answered,blockNum,choice,condition,corResp,correct,correct_response,explo,fb,internal_node_id,isStable_1,isStable_2,isStable_3,key_press,newBlock,part,persev,persevResp,rt,sessNum,stableAS,stimulus,subject,task,time_elapsed,training,trap,trial_index,trial_type,trialsInBlock
true,1,1,0,1,true,z,false,true,0.0-2.0-0.0-0.0-3.0,0,0,0,90,true,stim,false,-1,1225,0,0,1,12080,task2,165611,false,false,109,image-keyboard-response,1
true,1,0,0,0,true,q,false,true,0.0-2.0-0.0-0.1-3.1,0,0,0,81,false,stim,false,-1,547,0,0,0,12080,task2,167669,false,false,112,image-keyboard-response,2
true,1,0,0,0,true,q,false,true,0.0-2.0-0.0-0.2-3.2,0,0,0,81,false,stim,false,-1,684,0,0,0,12080,task2,169866,false,false,115,image-keyboard-response,3
true,1,1,0,1,true,z,false,true,0.0-2.0-0.0-0.3-3.3,0,0,0,90,false,stim,false,-1,717,0,0,1,12080,task2,172106,false,false,118,image-keyboard-response,4
true,1,1,0,0,false,q,true,false,0.0-2.0-0.0-0.4-3.4,0,0,0,90,false,stim,false,-1,668,0,0,2,12080,task2,174294,false,false,121,image-keyboard-response,5
true,1,1,0,1,true,z,false,true,0.0-2.0-0.0-0.5-3.5,0,0,0,90,false,stim,false,-1,1135,0,0,1,12080,task2,176956,false,false,124,image-keyboard-response,6
true,1,1,0,0,false,q,true,false,0.0-2.0-0.0-0.6-3.6,0,0,0,90,false,stim,false,-1,671,0,0,2,12080,task2,179150,false,false,127,image-keyboard-response,7
true,1,0,0,0,true,q,false,true,0.0-2.0-0.0-0.7-3.7,0,0,0,81,false,stim,false,-1,491,0,0,0,12080,task2,181157,false,false,130,image-keyboard-response,8
true,1,1,0,0,false,q,true,false,0.0-2.0-0.0-0.8-3.8,0,0,0,90,false,stim,false,-1,482,0,0,2,12080,task2,183161,false,false,133,image-keyboard-response,9
true,1,1,0,1,true,z,false,true,0.0-2.0-0.1-0.9-3.9,0,0,0,90,false,stim,false,-1,608,0,0,1,12080,task2,185293,false,false,136,image-keyboard-response,10
true,1,1,0,1,true,z,false,true,0.0-2.0-0.1-0.10-3.10,0,0,0,90,false,stim,false,-1,845,0,0,1,12080,task2,187651,false,false,139,image-keyboard-response,11
true,1,1,0,0,false,q,true,false,0.0-2.0-0.1-0.11-3.11,0,0,0,90,false,stim,false,-1,859,0,0,2,12080,task2,190031,false,false,142,image-keyboard-response,12
true,1,0,0,0,true,q,false,true,0.0-2.0-0.1-0.12-3.12,0,0,0,81,false,stim,false,-1,536,0,0,0,12080,task2,192079,false,false,145,image-keyboard-response,13
true,1,0,0,0,true,q,false,true,0.0-2.0-0.1-0.13-3.13,0,0,0,81,false,stim,false,-1,703,0,0,0,12080,task2,194298,false,false,148,image-keyboard-response,14
true,1,2,0,0,false,q,true,false,0.0-2.0-0.1-0.14-3.14,0,0,0,68,false,stim,false,-1,1116,0,0,2,12080,task2,196925,false,false,151,image-keyboard-response,15
true,1,2,0,0,false,q,true,false,0.0-2.0-0.1-0.15-3.15,0,0,0,68,false,stim,false,-1,1165,0,0,2,12080,task2,199614,false,false,154,image-keyboard-response,16
true,1,0,0,0,true,q,false,true,0.0-2.0-0.1-0.16-3.16,0,0,0,81,false,stim,false,-1,537,0,0,0,12080,task2,201667,false,false,157,image-keyboard-response,17
true,1,1,0,1,true,z,false,true,0.0-2.0-0.1-0.17-3.17,0,0,0,90,false,stim,false,-1,653,0,0,1,12080,task2,203831,false,false,160,image-keyboard-response,18
true,1,1,0,1,true,z,false,true,0.0-2.0-0.2-0.18-3.18,0,0,0,90,false,stim,false,-1,549,0,0,1,12080,task2,205900,false,false,163,image-keyboard-response,19
true,1,1,0,1,true,z,false,true,0.0-2.0-0.2-0.19-3.19,0,0,0,90,false,stim,false,-1,396,0,0,1,12080,task2,207811,false,false,166,image-keyboard-response,20
true,1,1,0,0,false,q,true,false,0.0-2.0-0.2-0.20-3.20,0,0,0,90,false,stim,false,-1,533,0,0,2,12080,task2,209857,false,false,169,image-keyboard-response,21
true,1,1,0,1,true,z,false,true,0.0-2.0-0.2-0.21-3.21,0,0,0,90,false,stim,false,-1,742,0,0,1,12080,task2,212127,false,false,172,image-keyboard-response,22
true,1,1,0,0,false,q,true,false,0.0-2.0-0.2-0.22-3.22,0,0,0,90,false,stim,false,-1,799,0,1,2,12080,task2,214449,false,false,175,image-keyboard-response,23
true,1,0,0,0,true,q,false,false,0.0-2.0-0.2-0.23-3.23,0,0,0,81,false,stim,false,-1,393,0,0,0,12080,task2,216363,false,true,178,image-keyboard-response,24
true,1,1,0,0,false,q,true,false,0.0-2.0-0.2-0.24-3.24,0,0,0,90,false,stim,false,-1,596,0,1,2,12080,task2,218475,false,false,181,image-keyboard-response,25
true,1,0,0,0,true,q,false,true,0.0-2.0-0.2-0.25-3.25,0,0,0,81,false,stim,false,-1,541,0,0,0,12080,task2,220526,false,false,184,image-keyboard-response,26
true,2,0,2,2,false,d,false,false,0.0-2.0-0.2-0.26-3.26,0,0,1,81,true,stim,true,0,631,0,0,0,12080,task2,222669,false,false,187,image-keyboard-response,1
true,2,0,2,2,false,d,false,false,0.0-2.0-0.3-0.27-3.27,0,0,1,81,false,stim,true,0,653,0,0,0,12080,task2,224837,false,false,190,image-keyboard-response,2
true,2,1,2,0,false,q,true,false,0.0-2.0-0.3-0.28-3.28,0,0,1,90,false,stim,false,0,579,0,1,2,12080,task2,226940,false,false,193,image-keyboard-response,3
true,2,0,2,2,false,d,false,false,0.0-2.0-0.3-0.29-3.29,0,0,1,81,false,stim,true,0,649,0,0,0,12080,task2,229114,false,false,196,image-keyboard-response,4
true,2,1,2,2,false,d,false,false,0.0-2.0-0.3-0.30-3.30,0,0,1,90,false,stim,true,1,741,0,0,1,12080,task2,231375,false,false,199,image-keyboard-response,5
true,2,1,2,2,false,d,false,false,0.0-2.0-0.3-0.31-3.31,0,0,1,90,false,stim,true,1,888,0,0,1,12080,task2,233789,false,false,202,image-keyboard-response,6
true,2,1,2,0,false,q,true,false,0.0-2.0-0.3-0.32-3.32,0,0,1,90,false,stim,false,0,803,0,1,2,12080,task2,236098,false,false,205,image-keyboard-response,7
true,2,1,2,2,false,d,false,false,0.0-2.0-0.3-0.33-3.33,0,0,1,90,false,stim,true,1,667,0,0,1,12080,task2,238285,false,false,208,image-keyboard-response,8
true,2,0,2,2,false,d,false,true,0.0-2.0-0.3-0.34-3.34,0,0,1,81,false,stim,true,0,468,0,0,0,12080,task2,240264,false,true,211,image-keyboard-response,9
true,2,1,2,0,false,q,true,true,0.0-2.0-0.3-0.35-3.35,0,0,1,90,false,stim,false,0,762,0,1,2,12080,task2,242539,false,true,214,image-keyboard-response,10
true,2,0,2,2,false,d,false,false,0.0-2.0-0.4-0.36-3.36,0,0,1,81,false,stim,true,0,653,0,0,0,12080,task2,244706,false,false,217,image-keyboard-response,11
true,2,1,2,2,false,d,false,false,0.0-2.0-0.4-0.37-3.37,0,0,1,90,false,stim,true,1,685,0,0,1,12080,task2,246905,false,false,220,image-keyboard-response,12
true,2,1,2,2,false,d,false,false,0.0-2.0-0.4-0.38-3.38,0,0,1,90,false,stim,true,1,997,0,0,1,12080,task2,249418,false,false,223,image-keyboard-response,13
true,2,1,2,2,false,d,false,false,0.0-2.0-0.4-0.39-3.39,0,0,1,90,false,stim,true,1,667,0,0,1,12080,task2,251616,false,false,226,image-keyboard-response,14
true,2,0,2,0,true,q,false,true,0.0-2.0-0.4-0.40-3.40,0,0,1,81,false,stim,false,0,986,0,1,2,12080,task2,254117,false,false,229,image-keyboard-response,15
true,2,0,2,2,false,d,false,false,0.0-2.0-0.4-0.41-3.41,0,0,1,81,false,stim,true,0,486,0,0,0,12080,task2,256130,false,false,232,image-keyboard-response,16
true,2,0,2,0,true,q,false,false,0.0-2.0-0.4-0.42-3.42,0,0,1,81,false,stim,false,0,539,0,1,2,12080,task2,258181,false,true,235,image-keyboard-response,17
true,2,0,2,2,false,d,false,true,0.0-2.0-0.4-0.43-3.43,0,0,1,81,false,stim,true,0,692,0,0,0,12080,task2,260381,false,true,238,image-keyboard-response,18
true,2,1,2,0,false,q,true,false,0.0-2.0-0.4-0.44-3.44,0,0,1,90,false,stim,false,0,690,0,1,2,12080,task2,262593,false,false,241,image-keyboard-response,19
true,2,1,2,0,false,q,true,false,0.0-2.0-0.5-0.45-3.45,0,0,1,90,false,stim,false,0,514,0,1,2,12080,task2,264622,false,false,244,image-keyboard-response,20
true,2,0,2,2,false,d,true,false,0.0-2.0-0.5-0.46-3.46,0,0,1,81,false,stim,false,1,625,0,0,1,12080,task2,266763,false,false,247,image-keyboard-response,21
true,2,1,2,2,false,d,false,true,0.0-2.0-0.5-0.47-3.47,0,0,1,90,false,stim,true,1,752,0,0,1,12080,task2,269035,false,true,250,image-keyboard-response,22
true,2,0,2,2,false,d,false,false,0.0-2.0-0.5-0.48-3.48,0,0,1,81,false,stim,true,0,754,0,0,0,12080,task2,271301,false,false,253,image-keyboard-response,23
true,2,1,2,2,false,d,false,false,0.0-2.0-0.5-0.49-3.49,0,0,1,90,false,stim,true,1,755,0,0,1,12080,task2,273566,false,false,256,image-keyboard-response,24
true,2,1,2,0,false,q,true,true,0.0-2.0-0.5-0.50-3.50,0,0,1,90,false,stim,false,0,850,0,1,2,12080,task2,275929,false,true,259,image-keyboard-response,25
true,2,0,2,2,false,d,false,false,0.0-2.0-0.5-0.51-3.51,0,0,1,81,false,stim,true,0,1118,0,0,0,12080,task2,278560,false,false,262,image-keyboard-response,26
true,2,0,2,2,false,d,false,false,0.0-2.0-0.5-0.52-3.52,0,0,1,81,false,stim,true,0,538,0,0,0,12080,task2,280603,false,false,265,image-keyboard-response,27
true,2,1,2,0,false,q,true,false,0.0-2.0-0.5-0.53-3.53,0,0,1,90,false,stim,false,0,604,0,1,2,12080,task2,282728,false,false,268,image-keyboard-response,28
true,2,0,2,2,false,d,true,false,0.0-2.0-0.6-0.54-3.54,0,0,1,81,false,stim,false,1,627,0,0,1,12080,task2,284881,false,false,271,image-keyboard-response,29
true,2,0,2,2,false,d,false,false,0.0-2.0-0.6-0.55-3.55,0,0,1,81,false,stim,true,0,590,0,0,0,12080,task2,286987,false,false,274,image-keyboard-response,30
true,2,0,2,2,false,d,false,false,0.0-2.0-0.6-0.56-3.56,0,0,1,81,false,stim,true,0,642,0,0,0,12080,task2,289143,false,false,277,image-keyboard-response,31
true,2,1,2,2,false,d,false,false,0.0-2.0-0.6-0.57-3.57,0,0,1,90,false,stim,true,1,1148,0,0,1,12080,task2,291813,false,false,280,image-keyboard-response,32
true,2,2,2,2,true,d,false,true,0.0-2.0-0.6-0.58-3.58,0,0,1,68,false,stim,false,1,650,0,0,1,12080,task2,293980,false,false,283,image-keyboard-response,33
true,2,2,2,0,false,q,true,false,0.0-2.0-0.6-0.59-3.59,0,0,1,68,false,stim,false,0,714,0,0,2,12080,task2,296214,false,false,286,image-keyboard-response,34
true,3,0,1,0,true,q,false,true,0.0-2.0-0.6-0.60-3.60,0,0,0,81,true,stim,false,2,968,0,0,0,12080,task2,298696,false,false,289,image-keyboard-response,1
true,3,2,1,2,true,d,false,true,0.0-2.0-0.6-0.61-3.61,0,0,0,68,false,stim,false,0,596,0,0,2,12080,task2,300810,false,false,292,image-keyboard-response,2
true,3,2,1,2,true,d,false,false,0.0-2.0-0.6-0.62-3.62,0,0,0,68,false,stim,false,0,679,0,0,2,12080,task2,303000,false,true,295,image-keyboard-response,3
true,3,0,1,0,true,q,false,true,0.0-2.0-0.7-0.63-3.63,0,0,0,81,false,stim,false,2,773,0,0,0,12080,task2,305288,false,false,298,image-keyboard-response,4
true,3,2,1,2,true,d,false,true,0.0-2.0-0.7-0.64-3.64,0,0,0,68,false,stim,false,0,739,0,0,2,12080,task2,307541,false,false,301,image-keyboard-response,5
true,3,2,1,2,true,d,false,true,0.0-2.0-0.7-0.65-3.65,0,0,0,68,false,stim,false,0,691,0,0,2,12080,task2,309763,false,false,304,image-keyboard-response,6
true,3,0,1,0,true,q,false,true,0.0-2.0-0.7-0.66-3.66,0,0,0,81,false,stim,false,2,492,0,0,0,12080,task2,311770,false,false,307,image-keyboard-response,7
true,3,2,1,0,false,q,false,false,0.0-2.0-0.7-0.67-3.67,0,0,0,68,false,stim,true,2,2055,0,0,1,12080,task2,315343,false,false,310,image-keyboard-response,8
true,3,2,1,2,true,d,false,false,0.0-2.0-0.7-0.68-3.68,0,0,0,68,false,stim,false,0,644,0,0,2,12080,task2,317505,false,true,313,image-keyboard-response,9
true,3,2,1,0,false,q,false,false,0.0-2.0-0.7-0.69-3.69,0,0,0,68,false,stim,true,2,1125,0,0,1,12080,task2,320145,false,false,316,image-keyboard-response,10
true,3,1,1,0,false,q,true,false,0.0-2.0-0.7-0.70-3.70,0,0,0,90,false,stim,false,2,785,0,0,1,12080,task2,322451,false,false,319,image-keyboard-response,11
true,3,0,1,0,true,q,false,true,0.0-2.0-0.7-0.71-3.71,0,0,0,81,false,stim,false,2,528,0,0,0,12080,task2,324503,false,false,322,image-keyboard-response,12
true,3,2,1,2,true,d,false,true,0.0-2.0-0.8-0.72-3.72,0,0,0,68,false,stim,false,0,765,0,0,2,12080,task2,326789,false,false,325,image-keyboard-response,13
true,3,0,1,0,true,q,false,true,0.0-2.0-0.8-0.73-3.73,0,0,0,81,false,stim,false,2,616,0,0,0,12080,task2,328919,false,false,328,image-keyboard-response,14
true,3,0,1,0,true,q,false,true,0.0-2.0-0.8-0.74-3.74,0,0,0,81,false,stim,false,2,585,0,0,0,12080,task2,331014,false,false,331,image-keyboard-response,15
true,3,0,1,0,true,q,false,true,0.0-2.0-0.8-0.75-3.75,0,0,0,81,false,stim,false,2,566,0,0,0,12080,task2,333093,false,false,334,image-keyboard-response,16
true,3,1,1,0,false,q,true,false,0.0-2.0-0.8-0.76-3.76,0,0,0,90,false,stim,false,2,1689,0,0,1,12080,task2,336298,false,false,337,image-keyboard-response,17
true,3,1,1,0,false,q,true,false,0.0-2.0-0.8-0.77-3.77,0,0,0,90,false,stim,false,2,714,0,0,1,12080,task2,338527,false,false,340,image-keyboard-response,18
true,3,2,1,2,true,d,false,true,0.0-2.0-0.8-0.78-3.78,0,0,0,68,false,stim,false,0,670,0,0,2,12080,task2,340717,false,false,343,image-keyboard-response,19
true,3,0,1,0,true,q,false,true,0.0-2.0-0.8-0.79-3.79,0,0,0,81,false,stim,false,2,1063,0,0,1,12080,task2,343297,false,false,346,image-keyboard-response,20
true,3,2,1,2,true,d,false,true,0.0-2.0-0.8-0.80-3.80,0,0,0,68,false,stim,false,0,753,0,0,2,12080,task2,345565,false,false,349,image-keyboard-response,21
true,3,0,1,0,true,q,false,true,0.0-2.0-0.9-0.81-3.81,0,0,0,81,false,stim,false,2,481,0,0,0,12080,task2,347561,false,false,352,image-keyboard-response,22
true,3,0,1,0,true,q,false,true,0.0-2.0-0.9-0.82-3.82,0,0,0,81,false,stim,false,2,405,0,0,1,12080,task2,349482,false,false,355,image-keyboard-response,23
true,3,2,1,2,true,d,false,true,0.0-2.0-0.9-0.83-3.83,0,0,0,68,false,stim,false,0,571,0,0,2,12080,task2,351578,false,false,358,image-keyboard-response,24
true,3,2,1,2,true,d,false,true,0.0-2.0-0.9-0.84-3.84,0,0,0,68,false,stim,false,0,472,0,0,2,12080,task2,353565,false,false,361,image-keyboard-response,25
true,3,0,1,0,true,q,false,false,0.0-2.0-0.9-0.85-3.85,0,0,0,81,false,stim,false,2,476,0,0,0,12080,task2,355559,false,true,364,image-keyboard-response,26
true,3,0,1,0,true,q,false,true,0.0-2.0-0.9-0.86-3.86,0,0,0,81,false,stim,false,2,1298,0,0,0,12080,task2,358379,false,false,367,image-keyboard-response,27
true,3,0,1,0,true,q,false,true,0.0-2.0-0.9-0.87-3.87,0,0,0,81,false,stim,false,2,1119,0,0,1,12080,task2,361009,false,false,370,image-keyboard-response,28
true,3,0,1,0,true,q,false,true,0.0-2.0-0.9-0.88-3.88,0,0,0,81,false,stim,false,2,546,0,0,1,12080,task2,363072,false,false,373,image-keyboard-response,29
true,3,2,1,2,true,d,false,true,0.0-2.0-0.9-0.89-3.89,0,0,0,68,false,stim,false,0,478,0,0,2,12080,task2,365061,false,false,376,image-keyboard-response,30
true,3,0,1,0,true,q,false,true,0.0-2.0-0.10-0.90-3.90,0,0,0,81,false,stim,false,2,609,0,0,0,12080,task2,367178,false,false,379,image-keyboard-response,31
true,3,2,1,2,true,d,false,false,0.0-2.0-0.10-0.91-3.91,0,0,0,68,false,stim,false,0,589,0,1,2,12080,task2,369282,false,true,382,image-keyboard-response,32
true,3,0,1,0,true,q,false,true,0.0-2.0-0.10-0.92-3.92,0,0,0,81,false,stim,false,2,1207,0,0,1,12080,task2,372006,false,false,385,image-keyboard-response,33
true,3,0,1,0,true,q,false,true,0.0-2.0-0.10-0.93-3.93,0,0,0,81,false,stim,false,2,591,0,0,0,12080,task2,374107,false,false,388,image-keyboard-response,34
true,3,2,1,2,true,d,false,true,0.0-2.0-0.10-0.94-3.94,0,0,0,68,false,stim,false,0,762,0,1,2,12080,task2,376391,false,false,391,image-keyboard-response,35
true,3,2,1,2,true,d,false,true,0.0-2.0-0.10-0.95-3.95,0,0,0,68,false,stim,false,0,1103,0,1,2,12080,task2,379017,false,false,394,image-keyboard-response,36
true,4,2,2,1,false,z,true,false,0.0-2.0-0.10-0.96-3.96,0,0,1,68,true,stim,false,0,913,0,0,1,12080,task2,381442,false,false,397,image-keyboard-response,1
true,4,0,2,1,false,z,false,false,0.0-2.0-0.10-0.97-3.97,0,0,1,81,false,stim,true,0,676,0,0,0,12080,task2,383635,false,false,400,image-keyboard-response,2
true,4,0,2,1,false,z,false,false,0.0-2.0-0.10-0.98-3.98,0,0,1,81,false,stim,true,0,434,0,0,1,12080,task2,385594,false,false,403,image-keyboard-response,3
true,4,0,2,1,false,z,false,false,0.0-2.0-0.11-0.99-3.99,0,0,1,81,false,stim,true,0,787,0,0,0,12080,task2,387901,false,false,406,image-keyboard-response,4
true,4,1,2,1,true,z,false,true,0.0-2.0-0.11-0.100-3.100,0,0,1,90,false,stim,false,0,1201,0,0,1,12080,task2,390609,false,false,409,image-keyboard-response,5
true,4,1,2,1,true,z,false,false,0.0-2.0-0.11-0.101-3.101,0,0,1,90,false,stim,false,0,601,0,0,1,12080,task2,392740,false,true,412,image-keyboard-response,6
true,4,2,2,2,true,d,false,true,0.0-2.0-0.11-0.102-3.102,0,0,1,68,false,stim,false,2,618,0,1,2,12080,task2,394863,false,false,415,image-keyboard-response,7
true,4,2,2,2,true,d,false,false,0.0-2.0-0.11-0.103-3.103,0,0,1,68,false,stim,false,2,534,0,1,2,12080,task2,396911,false,true,418,image-keyboard-response,8
true,4,1,2,1,true,z,false,true,0.0-2.0-0.11-0.104-3.104,0,0,1,90,false,stim,false,0,1313,0,0,1,12080,task2,399726,false,false,421,image-keyboard-response,9
true,4,0,2,1,false,z,false,false,0.0-2.0-0.11-0.105-3.105,0,0,1,81,false,stim,true,0,771,0,0,0,12080,task2,402008,false,false,424,image-keyboard-response,10
true,4,1,2,1,true,z,false,true,0.0-2.0-0.11-0.106-3.106,0,0,1,90,false,stim,false,0,1052,0,0,0,12080,task2,404572,false,false,427,image-keyboard-response,11
true,4,2,2,2,true,d,false,true,0.0-2.0-0.11-0.107-3.107,0,0,1,68,false,stim,false,2,745,0,1,2,12080,task2,406837,false,false,430,image-keyboard-response,12
true,4,2,2,2,true,d,false,true,0.0-2.0-0.12-0.108-3.108,0,0,1,68,false,stim,false,2,711,0,1,2,12080,task2,409065,false,false,433,image-keyboard-response,13
true,4,1,2,1,true,z,false,true,0.0-2.0-0.12-0.109-3.109,0,0,1,90,false,stim,false,0,789,0,0,0,12080,task2,411369,false,false,436,image-keyboard-response,14
true,4,1,2,1,true,z,false,true,0.0-2.0-0.12-0.110-3.110,0,0,1,90,false,stim,false,0,416,0,0,0,12080,task2,413310,false,false,439,image-keyboard-response,15
true,4,1,2,1,true,z,false,true,0.0-2.0-0.12-0.111-3.111,0,0,1,90,false,stim,false,0,926,0,0,1,12080,task2,415746,false,false,442,image-keyboard-response,16
true,4,2,2,2,true,d,false,true,0.0-2.0-0.12-0.112-3.112,0,0,1,68,false,stim,false,2,1094,0,1,2,12080,task2,418356,false,false,445,image-keyboard-response,17
true,4,1,2,1,true,z,false,true,0.0-2.0-0.12-0.113-3.113,0,0,1,90,false,stim,false,0,490,0,0,0,12080,task2,420357,false,false,448,image-keyboard-response,18
true,4,1,2,1,true,z,false,true,0.0-2.0-0.12-0.114-3.114,0,0,1,90,false,stim,false,0,663,0,0,1,12080,task2,422530,false,false,451,image-keyboard-response,19
true,4,1,2,1,true,z,false,true,0.0-2.0-0.12-0.115-3.115,0,0,1,90,false,stim,false,0,503,0,0,1,12080,task2,424542,false,false,454,image-keyboard-response,20
true,4,2,2,2,true,d,false,true,0.0-2.0-0.12-0.116-3.116,0,0,1,68,false,stim,false,2,643,0,1,2,12080,task2,426692,false,false,457,image-keyboard-response,21
true,4,1,2,1,true,z,false,true,0.0-2.0-0.13-0.117-3.117,0,0,1,90,false,stim,false,0,1519,0,0,1,12080,task2,429729,false,false,460,image-keyboard-response,22
true,4,2,2,2,true,d,false,true,0.0-2.0-0.13-0.118-3.118,0,0,1,68,false,stim,false,2,750,0,1,2,12080,task2,431995,false,false,463,image-keyboard-response,23
true,4,1,2,1,true,z,false,true,0.0-2.0-0.13-0.119-3.119,0,0,1,90,false,stim,false,0,1594,0,0,1,12080,task2,435097,false,false,466,image-keyboard-response,24
true,4,1,2,1,true,z,false,true,0.0-2.0-0.13-0.120-3.120,0,0,1,90,false,stim,false,0,703,0,0,1,12080,task2,437311,false,false,469,image-keyboard-response,25
true,4,2,2,2,true,d,false,true,0.0-2.0-0.13-0.121-3.121,0,0,1,68,false,stim,false,2,543,0,1,2,12080,task2,439363,false,false,472,image-keyboard-response,26
true,4,1,2,1,true,z,false,true,0.0-2.0-0.13-0.122-3.122,0,0,1,90,false,stim,false,0,814,0,0,0,12080,task2,441692,false,false,475,image-keyboard-response,27
true,4,2,2,2,true,d,false,true,0.0-2.0-0.13-0.123-3.123,0,0,1,68,false,stim,false,2,468,0,1,2,12080,task2,443668,false,false,478,image-keyboard-response,28
true,4,1,2,1,true,z,false,true,0.0-2.0-0.13-0.124-3.124,0,0,1,90,false,stim,false,0,415,0,0,0,12080,task2,445597,false,false,481,image-keyboard-response,29
true,4,1,2,1,true,z,false,true,0.0-2.0-0.13-0.125-3.125,0,0,1,90,false,stim,false,0,1091,0,0,0,12080,task2,448193,false,false,484,image-keyboard-response,30
true,4,1,2,1,true,z,false,true,0.0-2.0-0.14-0.126-3.126,0,0,1,90,false,stim,false,0,661,0,1,1,12080,task2,450377,false,false,487,image-keyboard-response,31
true,4,2,2,2,true,d,false,true,0.0-2.0-0.14-0.127-3.127,0,0,1,68,false,stim,false,2,521,0,0,2,12080,task2,452414,false,false,490,image-keyboard-response,32
true,4,1,2,1,true,z,false,true,0.0-2.0-0.14-0.128-3.128,0,0,1,90,false,stim,false,0,662,0,0,0,12080,task2,454598,false,false,493,image-keyboard-response,33
true,4,1,2,1,true,z,false,true,0.0-2.0-0.14-0.129-3.129,0,0,1,90,false,stim,false,0,1290,0,1,1,12080,task2,457406,false,false,496,image-keyboard-response,34
true,4,2,2,2,true,d,false,true,0.0-2.0-0.14-0.130-3.130,0,0,1,68,false,stim,false,2,431,0,0,2,12080,task2,459358,false,false,499,image-keyboard-response,35
true,5,2,2,0,false,q,false,false,0.0-2.0-0.14-0.131-3.131,0,1,0,68,true,stim,true,2,562,0,0,2,12080,task2,461429,false,false,502,image-keyboard-response,1
true,5,1,2,1,true,z,false,true,0.0-2.0-0.14-0.132-3.132,0,1,0,90,false,stim,false,1,584,0,1,1,12080,task2,463526,false,false,505,image-keyboard-response,2
true,5,1,2,2,false,d,false,false,0.0-2.0-0.14-0.133-3.133,0,1,0,90,false,stim,true,1,837,0,0,0,12080,task2,465876,false,false,508,image-keyboard-response,3
true,5,0,2,2,false,d,true,true,0.0-2.0-0.14-0.134-3.134,0,1,0,81,false,stim,false,1,849,0,0,0,12080,task2,468237,false,true,511,image-keyboard-response,4
true,5,2,2,0,false,q,false,true,0.0-2.0-0.15-0.135-3.135,0,1,0,68,false,stim,true,2,646,0,0,2,12080,task2,470405,false,true,514,image-keyboard-response,5
true,5,2,2,0,false,q,false,true,0.0-2.0-0.15-0.136-3.136,0,1,0,68,false,stim,true,2,639,0,0,2,12080,task2,472554,false,true,517,image-keyboard-response,6
true,5,0,2,2,false,d,true,false,0.0-2.0-0.15-0.137-3.137,0,1,0,81,false,stim,false,1,682,0,0,0,12080,task2,474744,false,false,520,image-keyboard-response,7
true,5,0,2,2,false,d,true,false,0.0-2.0-0.15-0.138-3.138,0,1,0,81,false,stim,false,1,728,0,0,0,12080,task2,476992,false,false,523,image-keyboard-response,8
true,5,2,2,0,false,q,false,false,0.0-2.0-0.15-0.139-3.139,0,1,0,68,false,stim,true,2,620,0,0,2,12080,task2,479118,false,false,526,image-keyboard-response,9
true,5,1,2,1,true,z,false,true,0.0-2.0-0.15-0.140-3.140,0,1,0,90,false,stim,false,1,776,0,1,1,12080,task2,481413,false,false,529,image-keyboard-response,10
true,5,1,2,2,false,d,false,false,0.0-2.0-0.15-0.141-3.141,0,1,0,90,false,stim,true,1,850,0,0,0,12080,task2,483774,false,false,532,image-keyboard-response,11
true,5,1,2,1,true,z,false,true,0.0-2.0-0.15-0.142-3.142,0,1,0,90,false,stim,false,1,1008,0,1,1,12080,task2,486305,false,false,535,image-keyboard-response,12
true,5,1,2,1,true,z,false,true,0.0-2.0-0.15-0.143-3.143,0,1,0,90,false,stim,false,1,501,0,1,1,12080,task2,488318,false,false,538,image-keyboard-response,13
true,5,1,2,1,true,z,false,true,0.0-2.0-0.16-0.144-3.144,0,1,0,90,false,stim,false,1,532,0,1,1,12080,task2,490366,false,false,541,image-keyboard-response,14
true,5,1,2,2,false,d,false,false,0.0-2.0-0.16-0.145-3.145,0,1,0,90,false,stim,true,1,915,0,0,0,12080,task2,492793,false,false,544,image-keyboard-response,15
true,5,1,2,1,true,z,false,false,0.0-2.0-0.16-0.146-3.146,0,1,0,90,false,stim,false,1,692,0,1,1,12080,task2,495000,false,true,547,image-keyboard-response,16
true,5,2,2,1,false,z,true,false,0.0-2.0-0.16-0.147-3.147,0,1,0,68,false,stim,false,1,718,0,1,1,12080,task2,497226,false,false,550,image-keyboard-response,17
true,5,1,2,2,false,d,false,false,0.0-2.0-0.16-0.148-3.148,0,1,0,90,false,stim,true,1,910,0,0,0,12080,task2,499646,false,false,553,image-keyboard-response,18
true,5,2,2,0,false,q,false,false,0.0-2.0-0.16-0.149-3.149,0,1,0,68,false,stim,true,2,1052,0,0,2,12080,task2,502207,false,false,556,image-keyboard-response,19
true,5,0,2,0,true,q,false,true,0.0-2.0-0.16-0.150-3.150,0,1,0,81,false,stim,false,2,892,0,0,2,12080,task2,504611,false,false,559,image-keyboard-response,20
true,5,0,2,0,true,q,false,true,0.0-2.0-0.16-0.151-3.151,0,1,0,81,false,stim,false,2,567,0,0,2,12080,task2,506702,false,false,562,image-keyboard-response,21
true,5,1,2,2,false,d,false,false,0.0-2.0-0.16-0.152-3.152,0,1,0,90,false,stim,true,1,783,0,0,0,12080,task2,509009,false,false,565,image-keyboard-response,22
true,5,0,2,2,false,d,true,false,0.0-2.0-0.17-0.153-3.153,0,1,0,81,false,stim,false,1,821,0,0,0,12080,task2,511352,false,false,568,image-keyboard-response,23
true,5,2,2,2,true,d,false,true,0.0-2.0-0.17-0.154-3.154,0,1,0,68,false,stim,false,1,1369,0,0,0,12080,task2,514232,false,false,571,image-keyboard-response,24
true,5,0,2,0,true,q,false,true,0.0-2.0-0.17-0.155-3.155,0,1,0,81,false,stim,false,2,1013,0,0,2,12080,task2,516754,false,false,574,image-keyboard-response,25
true,5,1,2,1,true,z,false,true,0.0-2.0-0.17-0.156-3.156,0,1,0,90,false,stim,false,1,706,0,1,1,12080,task2,518974,false,false,577,image-keyboard-response,26
true,5,1,2,1,true,z,false,false,0.0-2.0-0.17-0.157-3.157,0,1,0,90,false,stim,false,1,579,0,1,1,12080,task2,521073,false,true,580,image-keyboard-response,27
true,5,2,2,0,false,q,false,false,0.0-2.0-0.17-0.158-3.158,0,1,0,68,false,stim,true,2,653,0,1,2,12080,task2,523248,false,false,583,image-keyboard-response,28
true,5,1,2,1,true,z,false,false,0.0-2.0-0.17-0.159-3.159,0,1,0,90,false,stim,false,1,1057,0,0,1,12080,task2,525817,false,true,586,image-keyboard-response,29
true,5,0,2,0,true,q,false,true,0.0-2.0-0.17-0.160-3.160,0,1,0,81,false,stim,false,2,637,0,1,2,12080,task2,527968,false,false,589,image-keyboard-response,30
true,5,2,2,2,true,d,false,true,0.0-2.0-0.17-0.161-3.161,0,1,0,68,false,stim,false,1,848,0,0,0,12080,task2,530330,false,false,592,image-keyboard-response,31
true,5,1,2,1,true,z,false,false,0.0-2.0-0.18-0.162-3.162,0,1,0,90,false,stim,false,1,1443,0,0,1,12080,task2,533277,false,true,595,image-keyboard-response,32
true,6,0,2,0,true,q,false,true,0.0-2.0-0.18-0.163-3.163,0,0,1,81,true,stim,false,0,1176,0,1,2,12080,task2,535978,false,false,598,image-keyboard-response,1
true,6,2,2,2,true,d,false,true,0.0-2.0-0.18-0.164-3.164,0,0,1,68,false,stim,false,1,1113,0,0,1,12080,task2,538605,false,false,601,image-keyboard-response,2
true,6,2,2,1,false,z,false,false,0.0-2.0-0.18-0.165-3.165,0,0,1,68,false,stim,true,2,582,0,0,0,12080,task2,540710,false,false,604,image-keyboard-response,3
true,6,0,2,0,true,q,false,false,0.0-2.0-0.18-0.166-3.166,0,0,1,81,false,stim,false,0,657,0,1,2,12080,task2,542879,false,true,607,image-keyboard-response,4
true,6,0,2,0,true,q,false,true,0.0-2.0-0.18-0.167-3.167,0,0,1,81,false,stim,false,0,1158,0,1,2,12080,task2,545556,false,false,610,image-keyboard-response,5
true,6,2,2,1,false,z,false,false,0.0-2.0-0.18-0.168-3.168,0,0,1,68,false,stim,true,2,489,0,0,0,12080,task2,547565,false,false,613,image-keyboard-response,6
true,6,2,2,2,true,d,false,true,0.0-2.0-0.18-0.169-3.169,0,0,1,68,false,stim,false,1,514,0,0,1,12080,task2,549595,false,false,616,image-keyboard-response,7
true,6,2,2,1,false,z,false,false,0.0-2.0-0.18-0.170-3.170,0,0,1,68,false,stim,true,2,590,0,0,0,12080,task2,551697,false,false,619,image-keyboard-response,8
true,6,0,2,2,false,d,true,false,0.0-2.0-0.19-0.171-3.171,0,0,1,81,false,stim,false,1,898,0,0,1,12080,task2,554117,false,false,622,image-keyboard-response,9
true,6,0,2,0,true,q,false,true,0.0-2.0-0.19-0.172-3.172,0,0,1,81,false,stim,false,0,976,0,1,2,12080,task2,556616,false,false,625,image-keyboard-response,10
true,6,1,2,1,true,z,false,true,0.0-2.0-0.19-0.173-3.173,0,0,1,90,false,stim,false,2,861,0,0,0,12080,task2,558995,false,false,628,image-keyboard-response,11
true,6,1,2,1,true,z,false,true,0.0-2.0-0.19-0.174-3.174,0,0,1,90,false,stim,false,2,512,0,0,0,12080,task2,561028,false,false,631,image-keyboard-response,12
true,6,2,2,2,true,d,false,true,0.0-2.0-0.19-0.175-3.175,0,0,1,68,false,stim,false,1,1351,0,0,1,12080,task2,563897,false,false,634,image-keyboard-response,13
true,6,2,2,2,true,d,false,false,0.0-2.0-0.19-0.176-3.176,0,0,1,68,false,stim,false,1,627,0,0,1,12080,task2,566054,false,true,637,image-keyboard-response,14
true,6,0,2,0,true,q,false,true,0.0-2.0-0.19-0.177-3.177,0,0,1,81,false,stim,false,0,645,0,1,2,12080,task2,568227,false,false,640,image-keyboard-response,15
true,6,1,2,1,true,z,false,true,0.0-2.0-0.19-0.178-3.178,0,0,1,90,false,stim,false,2,820,0,0,0,12080,task2,570566,false,false,643,image-keyboard-response,16
true,6,0,2,0,true,q,false,true,0.0-2.0-0.19-0.179-3.179,0,0,1,81,false,stim,false,0,1498,0,1,2,12080,task2,573572,false,false,646,image-keyboard-response,17
true,6,1,2,1,true,z,false,true,0.0-2.0-0.20-0.180-3.180,0,0,1,90,false,stim,false,2,1076,0,0,0,12080,task2,576172,false,false,649,image-keyboard-response,18
true,6,2,2,2,true,d,false,true,0.0-2.0-0.20-0.181-3.181,0,0,1,68,false,stim,false,1,846,0,0,1,12080,task2,578540,false,false,652,image-keyboard-response,19
true,6,1,2,1,true,z,false,false,0.0-2.0-0.20-0.182-3.182,0,0,1,90,false,stim,false,2,910,0,0,0,12080,task2,580980,false,true,655,image-keyboard-response,20
true,6,0,2,0,true,q,false,true,0.0-2.0-0.20-0.183-3.183,0,0,1,81,false,stim,false,0,544,0,1,2,12080,task2,583041,false,false,658,image-keyboard-response,21
true,6,2,2,2,true,d,false,false,0.0-2.0-0.20-0.184-3.184,0,0,1,68,false,stim,false,1,797,0,0,1,12080,task2,585351,false,true,661,image-keyboard-response,22
true,6,1,2,1,true,z,false,true,0.0-2.0-0.20-0.185-3.185,0,0,1,90,false,stim,false,2,1147,0,0,0,12080,task2,588028,false,false,664,image-keyboard-response,23
true,6,0,2,0,true,q,false,false,0.0-2.0-0.20-0.186-3.186,0,0,1,81,false,stim,false,0,1400,0,1,2,12080,task2,590947,false,true,667,image-keyboard-response,24
true,6,1,2,0,false,q,true,false,0.0-2.0-0.20-0.187-3.187,0,0,1,90,false,stim,false,0,753,0,1,2,12080,task2,593229,false,false,670,image-keyboard-response,25
true,6,2,2,2,true,d,false,true,0.0-2.0-0.20-0.188-3.188,0,0,1,68,false,stim,false,1,1538,0,0,1,12080,task2,596293,false,false,673,image-keyboard-response,26
true,6,0,2,0,true,q,false,true,0.0-2.0-0.21-0.189-3.189,0,0,1,81,false,stim,false,0,874,0,0,2,12080,task2,598683,false,false,676,image-keyboard-response,27
true,6,0,2,0,true,q,false,true,0.0-2.0-0.21-0.190-3.190,0,0,1,81,false,stim,false,0,1349,0,0,2,12080,task2,601553,false,false,679,image-keyboard-response,28
true,6,1,2,1,true,z,false,true,0.0-2.0-0.21-0.191-3.191,0,0,1,90,false,stim,false,2,886,0,0,0,12080,task2,603958,false,false,682,image-keyboard-response,29
true,6,2,2,2,true,d,false,true,0.0-2.0-0.21-0.192-3.192,0,0,1,68,false,stim,false,1,709,0,1,1,12080,task2,606185,false,false,685,image-keyboard-response,30
true,6,2,2,2,true,d,false,true,0.0-2.0-0.21-0.193-3.193,0,0,1,68,false,stim,false,1,724,0,1,1,12080,task2,608424,false,false,688,image-keyboard-response,31
true,7,0,2,1,false,z,false,false,0.0-2.0-0.21-0.194-3.194,0,1,0,81,true,stim,true,0,742,0,0,2,12080,task2,610685,false,false,691,image-keyboard-response,1
true,7,2,2,2,true,d,false,true,0.0-2.0-0.21-0.195-3.195,0,1,0,68,false,stim,false,2,1284,0,1,1,12080,task2,613490,false,false,694,image-keyboard-response,2
true,7,1,2,2,false,d,false,false,0.0-2.0-0.21-0.196-3.196,0,1,0,90,false,stim,true,1,823,0,0,0,12080,task2,615838,false,false,697,image-keyboard-response,3
true,7,2,2,2,true,d,false,true,0.0-2.0-0.21-0.197-3.197,0,1,0,68,false,stim,false,1,664,0,0,0,12080,task2,618013,false,false,700,image-keyboard-response,4
true,7,2,2,2,true,d,false,true,0.0-2.0-0.22-0.198-3.198,0,1,0,68,false,stim,false,2,1284,0,1,1,12080,task2,620824,false,false,703,image-keyboard-response,5
true,7,2,2,2,true,d,false,false,0.0-2.0-0.22-0.199-3.199,0,1,0,68,false,stim,false,1,707,0,0,0,12080,task2,623059,false,true,706,image-keyboard-response,6
true,7,2,2,2,true,d,false,true,0.0-2.0-0.22-0.200-3.200,0,1,0,68,false,stim,false,2,616,0,1,1,12080,task2,625194,false,false,709,image-keyboard-response,7
true,7,2,2,2,true,d,false,true,0.0-2.0-0.22-0.201-3.201,0,1,0,68,false,stim,false,2,822,0,1,1,12080,task2,627543,false,false,712,image-keyboard-response,8
true,7,0,2,1,false,z,false,false,0.0-2.0-0.22-0.202-3.202,0,1,0,81,false,stim,true,0,881,0,0,2,12080,task2,629953,false,false,715,image-keyboard-response,9
true,7,1,2,2,false,d,false,false,0.0-2.0-0.22-0.203-3.203,0,1,0,90,false,stim,true,1,1093,0,0,0,12080,task2,632565,false,false,718,image-keyboard-response,10
true,7,1,2,1,true,z,false,true,0.0-2.0-0.22-0.204-3.204,0,1,0,90,false,stim,false,0,934,0,0,2,12080,task2,635021,false,false,721,image-keyboard-response,11
true,7,1,2,1,true,z,false,false,0.0-2.0-0.22-0.205-3.205,0,1,0,90,false,stim,false,0,453,0,0,2,12080,task2,637002,false,true,724,image-keyboard-response,12
true,7,0,2,2,false,d,true,true,0.0-2.0-0.22-0.206-3.206,0,1,0,81,false,stim,false,1,1004,0,0,0,12080,task2,639534,false,true,727,image-keyboard-response,13
true,7,0,2,2,false,d,true,false,0.0-2.0-0.23-0.207-3.207,0,1,0,81,false,stim,false,1,463,0,0,0,12080,task2,641519,false,false,730,image-keyboard-response,14
true,7,0,2,2,false,d,true,false,0.0-2.0-0.23-0.208-3.208,0,1,0,81,false,stim,false,1,653,0,0,0,12080,task2,643690,false,false,733,image-keyboard-response,15
true,7,0,2,1,false,z,false,false,0.0-2.0-0.23-0.209-3.209,0,1,0,81,false,stim,true,0,1775,0,0,2,12080,task2,646982,false,false,736,image-keyboard-response,16
true,7,1,2,2,false,d,true,false,0.0-2.0-0.23-0.210-3.210,0,1,0,90,false,stim,false,2,1346,0,1,1,12080,task2,649849,false,false,739,image-keyboard-response,17
true,7,0,2,1,false,z,false,false,0.0-2.0-0.23-0.211-3.211,0,1,0,81,false,stim,true,0,1083,0,0,2,12080,task2,652443,false,false,742,image-keyboard-response,18
true,7,2,2,2,true,d,false,true,0.0-2.0-0.23-0.212-3.212,0,1,0,68,false,stim,false,2,1052,0,1,1,12080,task2,655018,false,false,745,image-keyboard-response,19
true,7,2,2,2,true,d,false,true,0.0-2.0-0.23-0.213-3.213,0,1,0,68,false,stim,false,2,399,0,1,1,12080,task2,656931,false,false,748,image-keyboard-response,20
true,7,1,2,2,false,d,false,false,0.0-2.0-0.23-0.214-3.214,0,1,0,90,false,stim,true,1,993,0,0,0,12080,task2,659453,false,false,751,image-keyboard-response,21
true,7,2,2,1,false,z,true,true,0.0-2.0-0.23-0.215-3.215,0,1,0,68,false,stim,false,0,406,0,0,2,12080,task2,661376,false,true,754,image-keyboard-response,22
true,7,2,2,1,false,z,true,false,0.0-2.0-0.24-0.216-3.216,0,1,0,68,false,stim,false,0,638,0,0,2,12080,task2,663535,false,false,757,image-keyboard-response,23
true,7,0,2,1,false,z,false,false,0.0-2.0-0.24-0.217-3.217,0,1,0,81,false,stim,true,0,1201,0,0,2,12080,task2,666267,false,false,760,image-keyboard-response,24
true,7,1,2,2,false,d,true,false,0.0-2.0-0.24-0.218-3.218,0,1,0,90,false,stim,false,2,1046,0,1,1,12080,task2,668841,false,false,763,image-keyboard-response,25
true,7,2,2,2,true,d,false,true,0.0-2.0-0.24-0.219-3.219,0,1,0,68,false,stim,false,2,705,0,1,1,12080,task2,671070,false,false,766,image-keyboard-response,26
true,7,2,2,2,true,d,false,true,0.0-2.0-0.24-0.220-3.220,0,1,0,68,false,stim,false,1,1310,0,0,0,12080,task2,673902,false,false,769,image-keyboard-response,27
true,7,2,2,2,true,d,false,true,0.0-2.0-0.24-0.221-3.221,0,1,0,68,false,stim,false,1,487,0,0,0,12080,task2,675909,false,false,772,image-keyboard-response,28
true,7,2,2,2,true,d,false,true,0.0-2.0-0.24-0.222-3.222,0,1,0,68,false,stim,false,1,464,0,0,0,12080,task2,677901,false,false,775,image-keyboard-response,29
true,7,0,2,1,false,z,false,false,0.0-2.0-0.24-0.223-3.223,0,1,0,81,false,stim,true,0,1089,0,0,2,12080,task2,680498,false,false,778,image-keyboard-response,30
true,7,2,2,2,true,d,false,true,0.0-2.0-0.24-0.224-3.224,0,1,0,68,false,stim,false,2,450,0,1,1,12080,task2,682475,false,false,781,image-keyboard-response,31
true,7,2,2,2,true,d,false,true,0.0-2.0-0.25-0.225-3.225,0,1,0,68,false,stim,false,2,527,0,1,1,12080,task2,684522,false,false,784,image-keyboard-response,32
true,7,2,2,1,false,z,true,false,0.0-2.0-0.25-0.226-3.226,0,1,0,68,false,stim,false,0,789,0,0,2,12080,task2,686835,false,false,787,image-keyboard-response,33
true,7,1,2,1,true,z,false,true,0.0-2.0-0.25-0.227-3.227,0,1,0,90,false,stim,false,0,1309,0,0,2,12080,task2,689668,false,false,790,image-keyboard-response,34
true,7,2,2,2,true,d,false,true,0.0-2.0-0.25-0.228-3.228,0,1,0,68,false,stim,false,1,1092,0,0,0,12080,task2,692275,false,false,793,image-keyboard-response,35
true,8,2,2,1,false,z,false,false,0.0-2.0-0.25-0.229-3.229,0,1,0,68,true,stim,true,2,633,0,0,0,12080,task2,694428,false,false,796,image-keyboard-response,1
true,8,1,2,2,false,d,false,false,0.0-2.0-0.25-0.230-3.230,0,1,0,90,false,stim,true,1,828,0,0,2,12080,task2,696787,false,false,799,image-keyboard-response,2
true,8,2,2,2,true,d,false,true,0.0-2.0-0.25-0.231-3.231,0,1,0,68,false,stim,false,2,580,0,1,1,12080,task2,698887,false,false,802,image-keyboard-response,3
true,8,0,2,1,false,z,true,false,0.0-2.0-0.25-0.232-3.232,0,1,0,81,false,stim,false,2,1985,0,0,0,12080,task2,702387,false,false,805,image-keyboard-response,4
true,8,2,2,2,true,d,false,true,0.0-2.0-0.25-0.233-3.233,0,1,0,68,false,stim,false,2,1068,0,1,1,12080,task2,704973,false,false,808,image-keyboard-response,5
true,8,0,2,1,false,z,true,true,0.0-2.0-0.26-0.234-3.234,0,1,0,81,false,stim,false,2,1162,0,0,0,12080,task2,707653,false,true,811,image-keyboard-response,6
true,8,2,2,2,true,d,false,true,0.0-2.0-0.26-0.235-3.235,0,1,0,68,false,stim,false,2,602,0,1,1,12080,task2,709777,false,false,814,image-keyboard-response,7
true,8,2,2,2,true,d,false,true,0.0-2.0-0.26-0.236-3.236,0,1,0,68,false,stim,false,2,624,0,1,1,12080,task2,711917,false,false,817,image-keyboard-response,8
true,8,2,2,2,true,d,false,true,0.0-2.0-0.26-0.237-3.237,0,1,0,68,false,stim,false,2,628,0,1,1,12080,task2,714068,false,false,820,image-keyboard-response,9
true,8,0,2,1,false,z,true,false,0.0-2.0-0.26-0.238-3.238,0,1,0,81,false,stim,false,2,879,0,0,0,12080,task2,716470,false,false,823,image-keyboard-response,10
true,8,2,2,1,false,z,false,false,0.0-2.0-0.26-0.239-3.239,0,1,0,68,false,stim,true,2,729,0,0,0,12080,task2,718718,false,false,826,image-keyboard-response,11
true,8,2,2,2,true,d,false,true,0.0-2.0-0.26-0.240-3.240,0,1,0,68,false,stim,false,1,669,0,0,2,12080,task2,720904,false,false,829,image-keyboard-response,12
true,8,2,2,2,true,d,false,false,0.0-2.0-0.26-0.241-3.241,0,1,0,68,false,stim,false,1,928,0,0,2,12080,task2,723355,false,true,832,image-keyboard-response,13
true,8,0,2,2,false,d,true,false,0.0-2.0-0.26-0.242-3.242,0,1,0,81,false,stim,false,1,666,0,0,2,12080,task2,725535,false,false,835,image-keyboard-response,14
true,8,2,2,2,true,d,false,true,0.0-2.0-0.27-0.243-3.243,0,1,0,68,false,stim,false,2,185,0,1,1,12080,task2,727237,false,false,838,image-keyboard-response,15
true,8,2,2,2,true,d,false,true,0.0-2.0-0.27-0.244-3.244,0,1,0,68,false,stim,false,1,1244,0,0,2,12080,task2,730007,false,false,841,image-keyboard-response,16
true,8,2,2,2,true,d,false,true,0.0-2.0-0.27-0.245-3.245,0,1,0,68,false,stim,false,1,928,0,0,2,12080,task2,732447,false,false,844,image-keyboard-response,17
true,8,0,2,1,false,z,true,false,0.0-2.0-0.27-0.246-3.246,0,1,0,81,false,stim,false,2,1162,0,0,0,12080,task2,735137,false,false,847,image-keyboard-response,18
true,8,2,2,1,false,z,false,false,0.0-2.0-0.27-0.247-3.247,0,1,0,68,false,stim,true,2,546,0,0,0,12080,task2,737215,false,false,850,image-keyboard-response,19
true,8,2,2,2,true,d,false,true,0.0-2.0-0.27-0.248-3.248,0,1,0,68,false,stim,false,1,1686,0,0,2,12080,task2,740424,false,false,853,image-keyboard-response,20
true,8,0,2,1,false,z,true,true,0.0-2.0-0.27-0.249-3.249,0,1,0,81,false,stim,false,2,1910,0,0,0,12080,task2,743863,false,true,856,image-keyboard-response,21
true,8,1,2,2,false,d,true,false,0.0-2.0-0.27-0.250-3.250,0,1,0,90,false,stim,false,2,860,0,1,1,12080,task2,746244,false,false,859,image-keyboard-response,22
true,8,1,2,2,false,d,true,false,0.0-2.0-0.27-0.251-3.251,0,1,0,90,false,stim,false,2,1069,0,1,1,12080,task2,748838,false,false,862,image-keyboard-response,23
true,8,2,2,2,true,d,false,true,0.0-2.0-0.28-0.252-3.252,0,1,0,68,false,stim,false,2,641,0,1,1,12080,task2,751009,false,false,865,image-keyboard-response,24
true,8,0,2,2,false,d,true,false,0.0-2.0-0.28-0.253-3.253,0,1,0,81,false,stim,false,1,976,0,0,2,12080,task2,753507,false,false,868,image-keyboard-response,25
true,8,2,2,2,true,d,false,true,0.0-2.0-0.28-0.254-3.254,0,1,0,68,false,stim,false,1,880,0,0,2,12080,task2,755915,false,false,871,image-keyboard-response,26
true,8,2,2,1,false,z,false,false,0.0-2.0-0.28-0.255-3.255,0,1,0,68,false,stim,true,2,863,0,0,0,12080,task2,758301,false,false,874,image-keyboard-response,27
true,8,2,2,2,true,d,false,false,0.0-2.0-0.28-0.256-3.256,0,1,0,68,false,stim,false,1,743,0,0,2,12080,task2,760561,false,true,877,image-keyboard-response,28
true,8,1,2,1,true,z,false,true,0.0-2.0-0.28-0.257-3.257,0,1,0,90,false,stim,false,2,985,0,0,0,12080,task2,763073,false,false,880,image-keyboard-response,29
true,8,0,2,2,false,d,true,false,0.0-2.0-0.28-0.258-3.258,0,1,0,81,false,stim,false,2,1255,0,1,1,12080,task2,765836,false,false,883,image-keyboard-response,30
true,8,1,2,1,true,z,false,true,0.0-2.0-0.28-0.259-3.259,0,1,0,90,false,stim,false,2,630,0,1,0,12080,task2,767982,false,false,886,image-keyboard-response,31
true,8,2,2,2,true,d,false,true,0.0-2.0-0.28-0.260-3.260,0,1,0,68,false,stim,false,2,792,0,0,1,12080,task2,770294,false,false,889,image-keyboard-response,32
true,8,1,2,1,true,z,false,false,0.0-2.0-0.29-0.261-3.261,0,1,0,90,false,stim,false,2,663,0,1,0,12080,task2,772479,false,true,892,image-keyboard-response,33
true,8,2,2,2,true,d,false,false,0.0-2.0-0.29-0.262-3.262,0,1,0,68,false,stim,false,2,461,0,0,1,12080,task2,774469,false,true,895,image-keyboard-response,34
true,8,2,2,2,true,d,false,true,0.0-2.0-0.29-0.263-3.263,0,1,0,68,false,stim,false,1,858,0,0,2,12080,task2,776855,false,false,898,image-keyboard-response,35
true,9,2,2,1,false,z,false,false,0.0-2.0-0.29-0.264-3.264,1,0,0,68,true,stim,true,2,764,0,0,1,12080,task2,779150,false,false,901,image-keyboard-response,1
true,9,0,2,1,false,z,true,false,0.0-2.0-0.29-0.265-3.265,1,0,0,81,false,stim,false,2,1173,0,0,1,12080,task2,781848,false,false,904,image-keyboard-response,2
true,9,2,2,0,false,q,false,false,0.0-2.0-0.29-0.266-3.266,1,0,0,68,false,stim,true,2,684,0,0,2,12080,task2,784049,false,false,907,image-keyboard-response,3
true,9,1,2,1,true,z,false,true,0.0-2.0-0.29-0.267-3.267,1,0,0,90,false,stim,false,1,649,0,1,0,12080,task2,786230,false,false,910,image-keyboard-response,4
true,9,1,2,1,true,z,false,true,0.0-2.0-0.29-0.268-3.268,1,0,0,90,false,stim,false,1,493,0,1,0,12080,task2,788251,false,false,913,image-keyboard-response,5
true,9,2,2,0,false,q,false,false,0.0-2.0-0.29-0.269-3.269,1,0,0,68,false,stim,true,2,863,0,0,2,12080,task2,790634,false,false,916,image-keyboard-response,6
true,9,2,2,1,false,z,false,false,0.0-2.0-0.30-0.270-3.270,1,0,0,68,false,stim,true,2,1524,0,0,1,12080,task2,793683,false,false,919,image-keyboard-response,7
true,9,0,2,0,true,q,false,true,0.0-2.0-0.30-0.271-3.271,1,0,0,81,false,stim,false,2,708,0,0,2,12080,task2,795902,false,false,922,image-keyboard-response,8
true,9,1,2,1,true,z,false,true,0.0-2.0-0.30-0.272-3.272,1,0,0,90,false,stim,false,1,829,0,1,0,12080,task2,798250,false,false,925,image-keyboard-response,9
true,9,2,2,1,false,z,false,false,0.0-2.0-0.30-0.273-3.273,1,0,0,68,false,stim,true,2,1600,0,0,1,12080,task2,801377,false,false,928,image-keyboard-response,10
true,9,0,2,0,true,q,false,false,0.0-2.0-0.30-0.274-3.274,1,0,0,81,false,stim,false,2,1266,0,0,2,12080,task2,804169,false,true,931,image-keyboard-response,11
true,9,0,2,0,true,q,false,true,0.0-2.0-0.30-0.275-3.275,1,0,0,81,false,stim,false,2,597,0,0,2,12080,task2,806275,false,false,934,image-keyboard-response,12
true,9,1,2,1,true,z,false,true,0.0-2.0-0.30-0.276-3.276,1,0,0,90,false,stim,false,1,1073,0,1,0,12080,task2,808871,false,false,937,image-keyboard-response,13
true,9,1,2,1,true,z,false,true,0.0-2.0-0.30-0.277-3.277,1,0,0,90,false,stim,false,2,1282,0,0,1,12080,task2,811672,false,false,940,image-keyboard-response,14
true,9,1,2,1,true,z,false,true,0.0-2.0-0.30-0.278-3.278,1,0,0,90,false,stim,false,1,1238,0,1,0,12080,task2,814427,false,false,943,image-keyboard-response,15
true,9,1,2,1,true,z,false,true,0.0-2.0-0.31-0.279-3.279,1,0,0,90,false,stim,false,2,747,0,0,1,12080,task2,816696,false,false,946,image-keyboard-response,16
true,9,1,2,1,true,z,false,true,0.0-2.0-0.31-0.280-3.280,1,0,0,90,false,stim,false,1,740,0,1,0,12080,task2,818949,false,false,949,image-keyboard-response,17
true,9,1,2,1,true,z,false,true,0.0-2.0-0.31-0.281-3.281,1,0,0,90,false,stim,false,2,1125,0,0,1,12080,task2,821595,false,false,952,image-keyboard-response,18
true,9,0,2,0,true,q,false,true,0.0-2.0-0.31-0.282-3.282,1,0,0,81,false,stim,false,2,965,0,0,2,12080,task2,824088,false,false,955,image-keyboard-response,19
true,9,1,2,1,true,z,false,true,0.0-2.0-0.31-0.283-3.283,1,0,0,90,false,stim,false,1,762,0,1,0,12080,task2,826378,false,false,958,image-keyboard-response,20
true,9,1,2,0,false,q,true,false,0.0-2.0-0.31-0.284-3.284,1,0,0,90,false,stim,false,2,1678,0,0,2,12080,task2,829574,false,false,961,image-keyboard-response,21
true,9,1,2,1,true,z,false,true,0.0-2.0-0.31-0.285-3.285,1,0,0,90,false,stim,false,2,1306,0,0,1,12080,task2,832395,false,false,964,image-keyboard-response,22
true,9,1,2,1,true,z,false,true,0.0-2.0-0.31-0.286-3.286,1,0,0,90,false,stim,false,1,578,0,1,0,12080,task2,834503,false,false,967,image-keyboard-response,23
true,9,0,2,0,true,q,false,true,0.0-2.0-0.31-0.287-3.287,1,0,0,81,false,stim,false,2,774,0,0,2,12080,task2,836796,false,false,970,image-keyboard-response,24
true,9,1,2,1,true,z,false,true,0.0-2.0-0.32-0.288-3.288,1,0,0,90,false,stim,false,1,829,0,1,0,12080,task2,839138,false,false,973,image-keyboard-response,25
true,9,1,2,1,true,z,false,true,0.0-2.0-0.32-0.289-3.289,1,0,0,90,false,stim,false,1,594,0,1,0,12080,task2,841237,false,false,976,image-keyboard-response,26
true,9,0,2,0,true,q,false,true,0.0-2.0-0.32-0.290-3.290,1,0,0,81,false,stim,false,2,1031,0,0,2,12080,task2,843787,false,false,979,image-keyboard-response,27
true,9,1,2,1,true,z,false,true,0.0-2.0-0.32-0.291-3.291,1,0,0,90,false,stim,false,2,2735,0,0,1,12080,task2,848039,false,false,982,image-keyboard-response,28
true,9,0,2,0,true,q,false,true,0.0-2.0-0.32-0.292-3.292,1,0,0,81,false,stim,false,2,1063,0,0,2,12080,task2,850617,false,false,985,image-keyboard-response,29
true,9,0,2,0,true,q,false,true,0.0-2.0-0.32-0.293-3.293,1,0,0,81,false,stim,false,2,701,0,0,2,12080,task2,852846,false,false,988,image-keyboard-response,30
true,9,1,2,1,true,z,false,true,0.0-2.0-0.32-0.294-3.294,1,0,0,90,false,stim,false,2,620,0,0,1,12080,task2,854991,false,false,991,image-keyboard-response,31
true,9,1,2,1,true,z,false,true,0.0-2.0-0.32-0.295-3.295,1,0,0,90,false,stim,false,1,438,0,0,0,12080,task2,856947,false,false,994,image-keyboard-response,32
true,9,1,2,1,true,z,false,false,0.0-2.0-0.32-0.296-3.296,1,0,0,90,false,stim,false,2,534,0,0,1,12080,task2,859007,false,true,997,image-keyboard-response,33
true,10,1,1,2,false,d,false,false,0.0-2.0-0.33-0.297-3.297,0,0,0,90,true,stim,true,1,835,0,0,0,12080,task2,861345,false,false,1000,image-keyboard-response,1
true,10,0,1,1,false,z,false,false,0.0-2.0-0.33-0.298-3.298,0,0,0,81,false,stim,true,0,757,0,0,2,12080,task2,863628,false,false,1003,image-keyboard-response,2
true,10,2,1,0,false,q,true,false,0.0-2.0-0.33-0.299-3.299,0,0,0,68,false,stim,false,1,852,0,0,1,12080,task2,865999,false,false,1006,image-keyboard-response,3
true,10,0,1,0,true,q,false,true,0.0-2.0-0.33-0.300-3.300,0,0,0,81,false,stim,false,1,1097,0,0,1,12080,task2,868609,false,false,1009,image-keyboard-response,4
true,10,0,1,2,false,d,true,true,0.0-2.0-0.33-0.301-3.301,0,0,0,81,false,stim,false,1,403,0,0,0,12080,task2,870538,false,true,1012,image-keyboard-response,5
true,10,0,1,2,false,d,true,false,0.0-2.0-0.33-0.302-3.302,0,0,0,81,false,stim,false,1,539,0,0,0,12080,task2,872592,false,false,1015,image-keyboard-response,6
true,10,1,1,1,true,z,false,true,0.0-2.0-0.33-0.303-3.303,0,0,0,90,false,stim,false,0,1018,0,0,2,12080,task2,875134,false,false,1018,image-keyboard-response,7
true,10,0,1,0,true,q,false,true,0.0-2.0-0.33-0.304-3.304,0,0,0,81,false,stim,false,1,1253,0,0,1,12080,task2,877915,false,false,1021,image-keyboard-response,8
true,10,1,1,1,true,z,false,true,0.0-2.0-0.33-0.305-3.305,0,0,0,90,false,stim,false,0,659,0,0,2,12080,task2,880093,false,false,1024,image-keyboard-response,9
true,10,0,1,0,true,q,false,true,0.0-2.0-0.34-0.306-3.306,0,0,0,81,false,stim,false,1,734,0,0,1,12080,task2,882352,false,false,1027,image-keyboard-response,10
true,10,1,1,1,true,z,false,true,0.0-2.0-0.34-0.307-3.307,0,0,0,90,false,stim,false,0,1511,0,0,2,12080,task2,885386,false,false,1030,image-keyboard-response,11
true,10,0,1,2,false,d,true,false,0.0-2.0-0.34-0.308-3.308,0,0,0,81,false,stim,false,1,669,0,0,0,12080,task2,887583,false,false,1033,image-keyboard-response,12
true,10,0,1,0,true,q,false,true,0.0-2.0-0.34-0.309-3.309,0,0,0,81,false,stim,false,1,705,0,0,1,12080,task2,889805,false,false,1036,image-keyboard-response,13
true,10,1,1,1,true,z,false,true,0.0-2.0-0.34-0.310-3.310,0,0,0,90,false,stim,false,0,943,0,0,2,12080,task2,892268,false,false,1039,image-keyboard-response,14
true,10,1,1,1,true,z,false,true,0.0-2.0-0.34-0.311-3.311,0,0,0,90,false,stim,false,0,1244,0,0,2,12080,task2,895038,false,false,1042,image-keyboard-response,15
true,10,0,1,2,false,d,true,false,0.0-2.0-0.34-0.312-3.312,0,0,0,81,false,stim,false,1,599,0,0,0,12080,task2,897161,false,false,1045,image-keyboard-response,16
true,10,1,1,0,false,q,false,false,0.0-2.0-0.34-0.313-3.313,0,0,0,90,false,stim,true,1,735,0,0,1,12080,task2,899418,false,false,1048,image-keyboard-response,17
true,10,2,1,2,true,d,false,true,0.0-2.0-0.34-0.314-3.314,0,0,0,68,false,stim,false,1,857,0,0,0,12080,task2,901793,false,false,1051,image-keyboard-response,18
true,10,2,1,2,true,d,false,true,0.0-2.0-0.35-0.315-3.315,0,0,0,68,false,stim,false,1,777,0,0,0,12080,task2,904090,false,false,1054,image-keyboard-response,19
true,10,1,1,1,true,z,false,true,0.0-2.0-0.35-0.316-3.316,0,0,0,90,false,stim,false,0,1489,0,0,2,12080,task2,907096,false,false,1057,image-keyboard-response,20
true,10,2,1,0,false,q,true,false,0.0-2.0-0.35-0.317-3.317,0,0,0,68,false,stim,false,1,512,0,0,1,12080,task2,909127,false,false,1060,image-keyboard-response,21
true,10,1,1,1,true,z,false,true,0.0-2.0-0.35-0.318-3.318,0,0,0,90,false,stim,false,0,959,0,0,2,12080,task2,911610,false,false,1063,image-keyboard-response,22
true,10,0,1,0,true,q,false,true,0.0-2.0-0.35-0.319-3.319,0,0,0,81,false,stim,false,1,1972,0,0,1,12080,task2,915103,false,false,1066,image-keyboard-response,23
true,10,2,1,2,true,d,false,true,0.0-2.0-0.35-0.320-3.320,0,0,0,68,false,stim,false,1,1030,0,0,0,12080,task2,917662,false,false,1069,image-keyboard-response,24
true,10,1,1,1,true,z,false,true,0.0-2.0-0.35-0.321-3.321,0,0,0,90,false,stim,false,0,1032,0,0,2,12080,task2,920224,false,false,1072,image-keyboard-response,25
true,10,0,1,0,true,q,false,true,0.0-2.0-0.35-0.322-3.322,0,0,0,81,false,stim,false,1,619,0,0,1,12080,task2,922367,false,false,1075,image-keyboard-response,26
true,10,2,1,2,true,d,false,true,0.0-2.0-0.35-0.323-3.323,0,0,0,68,false,stim,false,1,951,0,0,0,12080,task2,924845,false,false,1078,image-keyboard-response,27
true,10,0,1,0,true,q,false,true,0.0-2.0-0.36-0.324-3.324,0,0,0,81,false,stim,false,1,1126,0,0,1,12080,task2,927498,false,false,1081,image-keyboard-response,28
true,10,1,1,1,true,z,false,true,0.0-2.0-0.36-0.325-3.325,0,0,0,90,false,stim,false,0,854,0,0,2,12080,task2,929884,false,false,1084,image-keyboard-response,29
true,10,2,1,2,true,d,false,true,0.0-2.0-0.36-0.326-3.326,0,0,0,68,false,stim,false,1,711,0,0,0,12080,task2,932117,false,false,1087,image-keyboard-response,30
true,10,0,1,1,false,z,false,false,0.0-2.0-0.36-0.327-3.327,0,0,0,81,false,stim,true,0,1499,0,0,2,12080,task2,935135,false,false,1090,image-keyboard-response,31
true,10,1,1,1,true,z,false,true,0.0-2.0-0.36-0.328-3.328,0,0,0,90,false,stim,false,0,714,0,0,2,12080,task2,937378,false,false,1093,image-keyboard-response,32
true,10,2,1,2,true,d,false,false,0.0-2.0-0.36-0.329-3.329,0,0,0,68,false,stim,false,1,818,0,0,0,12080,task2,939722,false,true,1096,image-keyboard-response,33
true,10,1,1,0,false,q,false,false,0.0-2.0-0.36-0.330-3.330,0,0,0,90,false,stim,true,1,778,0,0,1,12080,task2,942020,false,false,1099,image-keyboard-response,34
true,10,0,1,0,true,q,false,false,0.0-2.0-0.36-0.331-3.331,0,0,0,81,false,stim,false,1,1231,0,0,1,12080,task2,944775,false,true,1102,image-keyboard-response,35
true,10,2,1,2,true,d,false,true,0.0-2.0-0.36-0.332-3.332,0,0,0,68,false,stim,false,1,1143,0,1,0,12080,task2,947446,false,false,1105,image-keyboard-response,36
true,10,2,1,0,false,q,true,true,0.0-2.0-0.37-0.333-3.333,0,0,0,68,false,stim,false,1,563,0,0,1,12080,task2,949531,false,true,1108,image-keyboard-response,37
true,10,0,1,1,false,z,false,false,0.0-2.0-0.37-0.334-3.334,0,0,0,81,false,stim,true,0,1009,0,0,2,12080,task2,952075,false,false,1111,image-keyboard-response,38
true,11,2,2,1,false,z,true,false,0.0-2.0-0.37-0.335-3.335,1,0,0,68,true,stim,false,0,631,0,0,1,12080,task2,954225,false,false,1114,image-keyboard-response,1
true,11,2,2,2,true,d,false,true,0.0-2.0-0.37-0.336-3.336,1,0,0,68,false,stim,false,2,373,0,1,0,12080,task2,956122,false,false,1117,image-keyboard-response,2
true,11,1,2,2,false,d,false,false,0.0-2.0-0.37-0.337-3.337,1,0,0,90,false,stim,true,1,582,0,0,2,12080,task2,958225,false,false,1120,image-keyboard-response,3
true,11,2,2,1,false,z,true,false,0.0-2.0-0.37-0.338-3.338,1,0,0,68,false,stim,false,0,1281,0,0,1,12080,task2,961026,false,false,1123,image-keyboard-response,4
true,11,2,2,2,true,d,false,false,0.0-2.0-0.37-0.339-3.339,1,0,0,68,false,stim,false,2,408,0,1,0,12080,task2,962953,false,true,1126,image-keyboard-response,5
true,11,1,2,2,false,d,false,false,0.0-2.0-0.37-0.340-3.340,1,0,0,90,false,stim,true,1,1230,0,0,2,12080,task2,965697,false,false,1129,image-keyboard-response,6
true,11,0,2,2,false,d,true,false,0.0-2.0-0.37-0.341-3.341,1,0,0,81,false,stim,false,2,587,0,1,0,12080,task2,967808,false,false,1132,image-keyboard-response,7
true,11,1,2,2,false,d,true,false,0.0-2.0-0.38-0.342-3.342,1,0,0,90,false,stim,false,2,454,0,1,0,12080,task2,969774,false,false,1135,image-keyboard-response,8
true,11,1,2,1,true,z,false,true,0.0-2.0-0.38-0.343-3.343,1,0,0,90,false,stim,false,0,945,0,0,1,12080,task2,972245,false,false,1138,image-keyboard-response,9
true,11,1,2,2,false,d,true,false,0.0-2.0-0.38-0.344-3.344,1,0,0,90,false,stim,false,2,447,0,1,0,12080,task2,974211,false,false,1141,image-keyboard-response,10
true,11,2,2,2,true,d,false,true,0.0-2.0-0.38-0.345-3.345,1,0,0,68,false,stim,false,1,872,0,0,2,12080,task2,976587,false,false,1144,image-keyboard-response,11
true,11,2,2,2,true,d,false,true,0.0-2.0-0.38-0.346-3.346,1,0,0,68,false,stim,false,2,1072,0,1,0,12080,task2,979176,false,false,1147,image-keyboard-response,12
true,11,1,2,1,true,z,false,true,0.0-2.0-0.38-0.347-3.347,1,0,0,90,false,stim,false,0,954,0,0,1,12080,task2,981649,false,false,1150,image-keyboard-response,13
true,11,1,2,1,true,z,false,true,0.0-2.0-0.38-0.348-3.348,1,0,0,90,false,stim,false,0,1083,0,0,1,12080,task2,984256,false,false,1153,image-keyboard-response,14
true,11,2,2,2,true,d,false,true,0.0-2.0-0.38-0.349-3.349,1,0,0,68,false,stim,false,1,569,0,0,2,12080,task2,986345,false,false,1156,image-keyboard-response,15
true,11,2,2,2,true,d,false,true,0.0-2.0-0.38-0.350-3.350,1,0,0,68,false,stim,false,1,726,0,0,2,12080,task2,988588,false,false,1159,image-keyboard-response,16
true,11,2,2,2,true,d,false,true,0.0-2.0-0.39-0.351-3.351,1,0,0,68,false,stim,false,2,556,0,1,0,12080,task2,990671,false,false,1162,image-keyboard-response,17
true,11,2,2,2,true,d,false,false,0.0-2.0-0.39-0.352-3.352,1,0,0,68,false,stim,false,2,978,0,1,0,12080,task2,993165,false,true,1165,image-keyboard-response,18
true,11,1,2,1,true,z,false,true,0.0-2.0-0.39-0.353-3.353,1,0,0,90,false,stim,false,0,1109,0,0,1,12080,task2,995794,false,false,1168,image-keyboard-response,19
true,11,1,2,1,true,z,false,true,0.0-2.0-0.39-0.354-3.354,1,0,0,90,false,stim,false,0,861,0,0,1,12080,task2,998178,false,false,1171,image-keyboard-response,20
true,11,2,2,2,true,d,false,true,0.0-2.0-0.39-0.355-3.355,1,0,0,68,false,stim,false,1,699,0,0,2,12080,task2,1000397,false,false,1174,image-keyboard-response,21
true,11,2,2,2,true,d,false,true,0.0-2.0-0.39-0.356-3.356,1,0,0,68,false,stim,false,1,738,0,0,2,12080,task2,1002653,false,false,1177,image-keyboard-response,22
true,11,2,2,2,true,d,false,true,0.0-2.0-0.39-0.357-3.357,1,0,0,68,false,stim,false,2,692,0,1,0,12080,task2,1004869,false,false,1180,image-keyboard-response,23
true,11,2,2,2,true,d,false,true,0.0-2.0-0.39-0.358-3.358,1,0,0,68,false,stim,false,1,1103,0,0,2,12080,task2,1007505,false,false,1183,image-keyboard-response,24
true,11,1,2,1,true,z,false,true,0.0-2.0-0.39-0.359-3.359,1,0,0,90,false,stim,false,0,599,0,0,1,12080,task2,1009621,false,false,1186,image-keyboard-response,25
true,11,1,2,1,true,z,false,true,0.0-2.0-0.40-0.360-3.360,1,0,0,90,false,stim,false,0,988,0,0,1,12080,task2,1012127,false,false,1189,image-keyboard-response,26
true,11,2,2,2,true,d,false,true,0.0-2.0-0.40-0.361-3.361,1,0,0,68,false,stim,false,1,765,0,0,2,12080,task2,1014411,false,false,1192,image-keyboard-response,27
true,11,2,2,2,true,d,false,true,0.0-2.0-0.40-0.362-3.362,1,0,0,68,false,stim,false,1,594,0,0,2,12080,task2,1016532,false,false,1195,image-keyboard-response,28
true,11,2,2,2,true,d,false,true,0.0-2.0-0.40-0.363-3.363,1,0,0,68,false,stim,false,2,966,0,0,0,12080,task2,1019015,false,false,1198,image-keyboard-response,29
true,11,2,2,1,false,z,true,false,0.0-2.0-0.40-0.364-3.364,1,0,0,68,false,stim,false,0,654,0,0,1,12080,task2,1021200,false,false,1201,image-keyboard-response,30
true,11,2,2,2,true,d,false,true,0.0-2.0-0.40-0.365-3.365,1,0,0,68,false,stim,false,2,735,0,0,0,12080,task2,1023457,false,false,1204,image-keyboard-response,31
true,11,2,2,2,true,d,false,true,0.0-2.0-0.40-0.366-3.366,1,0,0,68,false,stim,false,2,1288,0,0,0,12080,task2,1026255,false,false,1207,image-keyboard-response,32
true,12,2,1,0,false,q,false,false,0.0-2.0-0.40-0.367-3.367,0,0,0,68,true,stim,true,2,823,0,0,2,12080,task2,1028594,false,false,1210,image-keyboard-response,1
true,12,1,1,0,false,q,false,true,0.0-2.0-0.40-0.368-3.368,0,0,0,90,false,stim,true,1,641,0,0,1,12080,task2,1030751,false,true,1213,image-keyboard-response,2
true,12,2,1,1,false,z,false,false,0.0-2.0-0.41-0.369-3.369,0,0,0,68,false,stim,true,2,809,0,0,0,12080,task2,1033086,false,false,1216,image-keyboard-response,3
true,12,2,1,0,false,q,false,false,0.0-2.0-0.41-0.370-3.370,0,0,0,68,false,stim,true,2,1105,0,0,2,12080,task2,1035717,false,false,1219,image-keyboard-response,4
true,12,1,1,0,false,q,true,false,0.0-2.0-0.41-0.371-3.371,0,0,0,90,false,stim,false,2,1140,0,0,2,12080,task2,1038375,false,false,1222,image-keyboard-response,5
true,12,1,1,0,false,q,false,false,0.0-2.0-0.41-0.372-3.372,0,0,0,90,false,stim,true,1,915,0,0,1,12080,task2,1040815,false,false,1225,image-keyboard-response,6
true,12,0,1,1,false,z,true,false,0.0-2.0-0.41-0.373-3.373,0,0,0,81,false,stim,false,2,928,0,0,0,12080,task2,1043261,false,false,1228,image-keyboard-response,7
true,12,0,1,0,true,q,false,true,0.0-2.0-0.41-0.374-3.374,0,0,0,81,false,stim,false,2,762,0,0,2,12080,task2,1045548,false,false,1231,image-keyboard-response,8
true,12,1,1,1,true,z,false,true,0.0-2.0-0.41-0.375-3.375,0,0,0,90,false,stim,false,2,1393,0,0,0,12080,task2,1048465,false,false,1234,image-keyboard-response,9
true,12,2,1,0,false,q,true,false,0.0-2.0-0.41-0.376-3.376,0,0,0,68,false,stim,false,1,1417,0,0,1,12080,task2,1051403,false,false,1237,image-keyboard-response,10
true,12,1,1,0,false,q,false,false,0.0-2.0-0.41-0.377-3.377,0,0,0,90,false,stim,true,1,946,0,0,1,12080,task2,1053873,false,false,1240,image-keyboard-response,11
true,12,0,1,0,true,q,false,true,0.0-2.0-0.42-0.378-3.378,0,0,0,81,false,stim,false,2,643,0,0,2,12080,task2,1056035,false,false,1243,image-keyboard-response,12
true,12,0,1,0,true,q,false,true,0.0-2.0-0.42-0.379-3.379,0,0,0,81,false,stim,false,1,834,0,0,1,12080,task2,1058383,false,false,1246,image-keyboard-response,13
true,12,0,1,0,true,q,false,true,0.0-2.0-0.42-0.380-3.380,0,0,0,81,false,stim,false,1,516,0,0,1,12080,task2,1060418,false,false,1249,image-keyboard-response,14
true,12,1,1,1,true,z,false,true,0.0-2.0-0.42-0.381-3.381,0,0,0,90,false,stim,false,2,902,0,0,0,12080,task2,1062841,false,false,1252,image-keyboard-response,15
true,12,1,1,1,true,z,false,true,0.0-2.0-0.42-0.382-3.382,0,0,0,90,false,stim,false,2,465,0,0,0,12080,task2,1064835,false,false,1255,image-keyboard-response,16
true,12,0,1,0,true,q,false,true,0.0-2.0-0.42-0.383-3.383,0,0,0,81,false,stim,false,1,663,0,0,1,12080,task2,1067025,false,false,1258,image-keyboard-response,17
true,12,0,1,0,true,q,false,true,0.0-2.0-0.42-0.384-3.384,0,0,0,81,false,stim,false,2,443,0,0,2,12080,task2,1068987,false,false,1261,image-keyboard-response,18
true,12,1,1,1,true,z,false,true,0.0-2.0-0.42-0.385-3.385,0,0,0,90,false,stim,false,2,1011,0,0,0,12080,task2,1071515,false,false,1264,image-keyboard-response,19
false,12,-1,1,0,false,q,true,false,0.0-2.0-0.42-0.386-3.386,0,0,0,,false,stim,false,2,,0,0,2,12080,task2,1076037,false,false,1267,image-keyboard-response,20
true,12,0,1,0,true,q,false,true,0.0-2.0-0.43-0.387-3.387,0,0,0,81,false,stim,false,1,1980,0,0,1,12080,task2,1079545,false,false,1270,image-keyboard-response,21
true,12,1,1,1,true,z,false,true,0.0-2.0-0.43-0.388-3.388,0,0,0,90,false,stim,false,2,1634,0,0,0,12080,task2,1082697,false,false,1273,image-keyboard-response,22
true,12,1,1,1,true,z,false,true,0.0-2.0-0.43-0.389-3.389,0,0,0,90,false,stim,false,2,449,0,0,0,12080,task2,1084672,false,false,1276,image-keyboard-response,23
true,12,0,1,0,true,q,false,false,0.0-2.0-0.43-0.390-3.390,0,0,0,81,false,stim,false,1,819,0,0,1,12080,task2,1087019,false,true,1279,image-keyboard-response,24
true,12,0,1,0,true,q,false,false,0.0-2.0-0.43-0.391-3.391,0,0,0,81,false,stim,false,2,1510,0,0,2,12080,task2,1090054,false,true,1282,image-keyboard-response,25
true,12,2,1,0,false,q,false,false,0.0-2.0-0.43-0.392-3.392,0,0,0,68,false,stim,true,2,1623,0,0,2,12080,task2,1093206,false,false,1285,image-keyboard-response,26
true,12,1,1,1,true,z,false,true,0.0-2.0-0.43-0.393-3.393,0,0,0,90,false,stim,false,2,619,0,0,0,12080,task2,1095353,false,false,1288,image-keyboard-response,27
true,12,1,1,0,false,q,true,false,0.0-2.0-0.43-0.394-3.394,0,0,0,90,false,stim,false,2,474,0,0,2,12080,task2,1097355,false,false,1291,image-keyboard-response,28
true,12,1,1,0,false,q,false,false,0.0-2.0-0.43-0.395-3.395,0,0,0,90,false,stim,true,1,835,0,0,1,12080,task2,1099708,false,false,1294,image-keyboard-response,29
true,12,1,1,1,true,z,false,false,0.0-2.0-0.44-0.396-3.396,0,0,0,90,false,stim,false,2,763,0,0,0,12080,task2,1101992,false,true,1297,image-keyboard-response,30
true,12,2,1,0,false,q,false,false,0.0-2.0-0.44-0.397-3.397,0,0,0,68,false,stim,true,2,895,0,0,2,12080,task2,1104406,false,false,1300,image-keyboard-response,31
true,12,0,1,1,false,z,true,false,0.0-2.0-0.44-0.398-3.398,0,0,0,81,false,stim,false,2,733,0,0,0,12080,task2,1106666,false,false,1303,image-keyboard-response,32
true,12,1,1,0,false,q,false,false,0.0-2.0-0.44-0.399-3.399,0,0,0,90,false,stim,true,1,683,0,0,1,12080,task2,1108873,false,false,1306,image-keyboard-response,33
true,12,2,1,0,false,q,false,false,0.0-2.0-0.44-0.400-3.400,0,0,0,68,false,stim,true,2,637,0,0,2,12080,task2,1111031,false,false,1309,image-keyboard-response,34
true,12,2,1,0,false,q,true,false,0.0-2.0-0.44-0.401-3.401,0,0,0,68,false,stim,false,1,425,0,0,1,12080,task2,1112966,false,false,1312,image-keyboard-response,35
true,12,2,1,0,false,q,false,false,0.0-2.0-0.44-0.402-3.402,0,0,0,68,false,stim,true,2,624,0,0,2,12080,task2,1115110,false,false,1315,image-keyboard-response,36
true,12,2,1,0,false,q,true,false,0.0-2.0-0.44-0.403-3.403,0,0,0,68,false,stim,false,1,425,0,0,1,12080,task2,1117053,false,false,1318,image-keyboard-response,37
true,13,2,1,0,false,q,true,false,0.0-2.0-0.44-0.404-3.404,0,0,0,68,true,stim,false,1,674,0,0,0,12080,task2,1119247,false,false,1321,image-keyboard-response,1
true,13,2,1,0,false,q,true,false,0.0-2.0-0.45-0.405-3.405,0,0,0,68,false,stim,false,1,799,0,0,0,12080,task2,1121565,false,false,1324,image-keyboard-response,2
true,13,2,1,1,false,z,true,true,0.0-2.0-0.45-0.406-3.406,0,0,0,68,false,stim,false,0,547,0,0,1,12080,task2,1123637,false,true,1327,image-keyboard-response,3
true,13,1,1,0,false,q,false,false,0.0-2.0-0.45-0.407-3.407,0,0,0,90,false,stim,true,1,1627,0,0,0,12080,task2,1126789,false,false,1330,image-keyboard-response,4
true,13,2,1,1,false,z,true,false,0.0-2.0-0.45-0.408-3.408,0,0,0,68,false,stim,false,0,392,0,0,1,12080,task2,1128710,false,false,1333,image-keyboard-response,5
true,13,0,1,0,true,q,false,true,0.0-2.0-0.45-0.409-3.409,0,0,0,81,false,stim,false,1,813,0,0,0,12080,task2,1131038,false,false,1336,image-keyboard-response,6
true,13,1,1,1,true,z,false,true,0.0-2.0-0.45-0.410-3.410,0,0,0,90,false,stim,false,0,1185,0,0,2,12080,task2,1133742,false,false,1339,image-keyboard-response,7
true,13,2,1,1,false,z,true,false,0.0-2.0-0.45-0.411-3.411,0,0,0,68,false,stim,false,0,620,0,0,1,12080,task2,1135878,false,false,1342,image-keyboard-response,8
true,13,1,1,1,true,z,false,true,0.0-2.0-0.45-0.412-3.412,0,0,0,90,false,stim,false,0,672,0,0,2,12080,task2,1138059,false,false,1345,image-keyboard-response,9
true,13,1,1,1,true,z,false,true,0.0-2.0-0.45-0.413-3.413,0,0,0,90,false,stim,false,0,697,0,0,2,12080,task2,1140270,false,false,1348,image-keyboard-response,10
true,13,1,1,1,true,z,false,true,0.0-2.0-0.46-0.414-3.414,0,0,0,90,false,stim,false,0,822,0,0,2,12080,task2,1142623,false,false,1351,image-keyboard-response,11
true,13,1,1,1,true,z,false,true,0.0-2.0-0.46-0.415-3.415,0,0,0,90,false,stim,false,0,448,0,0,2,12080,task2,1144578,false,false,1354,image-keyboard-response,12
true,13,1,1,1,true,z,false,false,0.0-2.0-0.46-0.416-3.416,0,0,0,90,false,stim,false,0,757,0,0,1,12080,task2,1146860,false,true,1357,image-keyboard-response,13
true,13,1,1,1,true,z,false,true,0.0-2.0-0.46-0.417-3.417,0,0,0,90,false,stim,false,0,546,0,0,2,12080,task2,1148937,false,false,1360,image-keyboard-response,14
true,13,0,1,0,true,q,false,false,0.0-2.0-0.46-0.418-3.418,0,0,0,81,false,stim,false,1,734,0,0,0,12080,task2,1151179,false,true,1363,image-keyboard-response,15
true,13,0,1,0,true,q,false,true,0.0-2.0-0.46-0.419-3.419,0,0,0,81,false,stim,false,1,564,0,0,0,12080,task2,1153264,false,false,1366,image-keyboard-response,16
true,13,1,1,1,true,z,false,false,0.0-2.0-0.46-0.420-3.420,0,0,0,90,false,stim,false,0,599,0,0,1,12080,task2,1155383,false,true,1369,image-keyboard-response,17
true,13,1,1,1,true,z,false,true,0.0-2.0-0.46-0.421-3.421,0,0,0,90,false,stim,false,0,844,0,0,1,12080,task2,1157744,false,false,1372,image-keyboard-response,18
true,13,0,1,0,true,q,false,true,0.0-2.0-0.46-0.422-3.422,0,0,0,81,false,stim,false,1,741,0,0,0,12080,task2,1160015,false,false,1375,image-keyboard-response,19
true,13,1,1,1,true,z,false,true,0.0-2.0-0.47-0.423-3.423,0,0,0,90,false,stim,false,0,324,0,0,2,12080,task2,1161860,false,false,1378,image-keyboard-response,20
true,13,1,1,1,true,z,false,true,0.0-2.0-0.47-0.424-3.424,0,0,0,90,false,stim,false,0,514,0,0,1,12080,task2,1163899,false,false,1381,image-keyboard-response,21
true,13,1,1,1,true,z,false,true,0.0-2.0-0.47-0.425-3.425,0,0,0,90,false,stim,false,0,416,0,0,1,12080,task2,1165843,false,false,1384,image-keyboard-response,22
true,13,0,1,0,true,q,false,true,0.0-2.0-0.47-0.426-3.426,0,0,0,81,false,stim,false,1,683,0,0,0,12080,task2,1168050,false,false,1387,image-keyboard-response,23
true,13,1,1,1,true,z,false,true,0.0-2.0-0.47-0.427-3.427,0,0,0,90,false,stim,false,0,561,0,0,1,12080,task2,1170140,false,false,1390,image-keyboard-response,24
true,13,1,1,1,true,z,false,true,0.0-2.0-0.47-0.428-3.428,0,0,0,90,false,stim,false,0,885,0,0,2,12080,task2,1172551,false,false,1393,image-keyboard-response,25
true,13,1,1,1,true,z,false,true,0.0-2.0-0.47-0.429-3.429,0,0,0,90,false,stim,false,0,594,0,0,2,12080,task2,1174665,false,false,1396,image-keyboard-response,26
true,13,0,1,0,true,q,false,true,0.0-2.0-0.47-0.430-3.430,0,0,0,81,false,stim,false,1,622,0,0,0,12080,task2,1176803,false,false,1399,image-keyboard-response,27
true,13,1,1,0,false,q,false,false,0.0-2.0-0.47-0.431-3.431,0,0,0,90,false,stim,true,1,772,0,0,0,12080,task2,1179097,false,false,1402,image-keyboard-response,28
true,13,1,1,1,true,z,false,true,0.0-2.0-0.48-0.432-3.432,0,0,0,90,false,stim,false,0,1572,0,0,1,12080,task2,1182198,false,false,1405,image-keyboard-response,29
true,13,1,1,1,true,z,false,true,0.0-2.0-0.48-0.433-3.433,0,0,0,90,false,stim,false,0,718,0,0,2,12080,task2,1184447,false,false,1408,image-keyboard-response,30
true,13,0,1,0,true,q,false,false,0.0-2.0-0.48-0.434-3.434,0,0,0,81,false,stim,false,1,752,0,0,0,12080,task2,1186715,false,true,1411,image-keyboard-response,31
true,13,1,1,1,true,z,false,true,0.0-2.0-0.48-0.435-3.435,0,0,0,90,false,stim,false,0,1108,0,0,2,12080,task2,1189351,false,false,1414,image-keyboard-response,32
true,13,0,1,0,true,q,false,true,0.0-2.0-0.48-0.436-3.436,0,0,0,81,false,stim,false,1,501,0,0,0,12080,task2,1191379,false,false,1417,image-keyboard-response,33
true,13,1,1,1,true,z,false,true,0.0-2.0-0.48-0.437-3.437,0,0,0,90,false,stim,false,0,896,0,0,1,12080,task2,1193803,false,false,1420,image-keyboard-response,34
true,13,1,1,1,true,z,false,true,0.0-2.0-0.48-0.438-3.438,0,0,0,90,false,stim,false,0,850,0,0,2,12080,task2,1196171,false,false,1423,image-keyboard-response,35
true,13,1,1,1,true,z,false,true,0.0-2.0-0.48-0.439-3.439,0,0,0,90,false,stim,false,0,835,0,0,1,12080,task2,1198538,false,false,1426,image-keyboard-response,36
true,13,0,1,0,true,q,false,false,0.0-2.0-0.48-0.440-3.440,0,0,0,81,false,stim,false,1,964,0,0,0,12080,task2,1201024,false,true,1429,image-keyboard-response,37
true,14,1,1,0,false,q,false,false,0.0-2.0-0.49-0.441-3.441,0,0,0,90,true,stim,true,1,1220,0,0,1,12080,task2,1203768,false,false,1432,image-keyboard-response,1
true,14,0,1,2,false,d,false,false,0.0-2.0-0.49-0.442-3.442,0,0,0,81,false,stim,true,0,708,0,0,0,12080,task2,1205996,false,false,1435,image-keyboard-response,2
true,14,1,1,0,false,q,false,false,0.0-2.0-0.49-0.443-3.443,0,0,0,90,false,stim,true,1,857,0,0,1,12080,task2,1208384,false,false,1438,image-keyboard-response,3
true,14,0,1,0,true,q,false,true,0.0-2.0-0.49-0.444-3.444,0,0,0,81,false,stim,false,1,560,0,0,2,12080,task2,1210470,false,false,1441,image-keyboard-response,4
true,14,0,1,0,true,q,false,true,0.0-2.0-0.49-0.445-3.445,0,0,0,81,false,stim,false,1,1590,0,0,1,12080,task2,1213588,false,false,1444,image-keyboard-response,5
true,14,1,1,2,false,d,true,false,0.0-2.0-0.49-0.446-3.446,0,0,0,90,false,stim,false,0,690,0,0,0,12080,task2,1215808,false,false,1447,image-keyboard-response,6
true,14,2,1,2,true,d,false,true,0.0-2.0-0.49-0.447-3.447,0,0,0,68,false,stim,false,0,369,0,0,0,12080,task2,1217695,false,false,1450,image-keyboard-response,7
true,14,0,1,0,true,q,false,true,0.0-2.0-0.49-0.448-3.448,0,0,0,81,false,stim,false,1,1336,0,0,2,12080,task2,1220560,false,false,1453,image-keyboard-response,8
true,14,0,1,0,true,q,false,true,0.0-2.0-0.49-0.449-3.449,0,0,0,81,false,stim,false,1,632,0,0,2,12080,task2,1222720,false,false,1456,image-keyboard-response,9
true,14,0,1,0,true,q,false,false,0.0-2.0-0.50-0.450-3.450,0,0,0,81,false,stim,false,1,327,0,0,2,12080,task2,1224564,false,true,1459,image-keyboard-response,10
true,14,0,1,0,true,q,false,true,0.0-2.0-0.50-0.451-3.451,0,0,0,81,false,stim,false,1,358,0,0,2,12080,task2,1226444,false,false,1462,image-keyboard-response,11
true,14,2,1,2,true,d,false,true,0.0-2.0-0.50-0.452-3.452,0,0,0,68,false,stim,false,0,621,0,0,0,12080,task2,1228594,false,false,1465,image-keyboard-response,12
true,14,2,1,2,true,d,false,true,0.0-2.0-0.50-0.453-3.453,0,0,0,68,false,stim,false,0,702,0,0,0,12080,task2,1230806,false,false,1468,image-keyboard-response,13
true,14,0,1,0,true,q,false,false,0.0-2.0-0.50-0.454-3.454,0,0,0,81,false,stim,false,1,743,0,0,1,12080,task2,1233068,false,true,1471,image-keyboard-response,14
true,14,0,1,0,true,q,false,true,0.0-2.0-0.50-0.455-3.455,0,0,0,81,false,stim,false,1,1394,0,0,1,12080,task2,1235982,false,false,1474,image-keyboard-response,15
true,14,2,1,2,true,d,false,true,0.0-2.0-0.50-0.456-3.456,0,0,0,68,false,stim,false,0,883,0,0,0,12080,task2,1238391,false,false,1477,image-keyboard-response,16
true,14,0,1,0,true,q,false,true,0.0-2.0-0.50-0.457-3.457,0,0,0,81,false,stim,false,1,909,0,0,1,12080,task2,1240819,false,false,1480,image-keyboard-response,17
true,14,2,1,0,false,q,true,false,0.0-2.0-0.50-0.458-3.458,0,0,0,68,false,stim,false,1,922,0,0,2,12080,task2,1243260,false,false,1483,image-keyboard-response,18
true,14,0,1,2,false,d,false,false,0.0-2.0-0.51-0.459-3.459,0,0,0,81,false,stim,true,0,1245,0,0,0,12080,task2,1246036,false,false,1486,image-keyboard-response,19
true,14,0,1,2,false,d,false,true,0.0-2.0-0.51-0.460-3.460,0,0,0,81,false,stim,true,0,610,0,0,0,12080,task2,1248172,false,true,1489,image-keyboard-response,20
true,14,2,1,0,false,q,true,false,0.0-2.0-0.51-0.461-3.461,0,0,0,68,false,stim,false,1,798,0,0,2,12080,task2,1250489,false,false,1492,image-keyboard-response,21
true,14,2,1,0,false,q,true,false,0.0-2.0-0.51-0.462-3.462,0,0,0,68,false,stim,false,1,417,0,0,2,12080,task2,1252427,false,false,1495,image-keyboard-response,22
true,14,2,1,0,false,q,true,false,0.0-2.0-0.51-0.463-3.463,0,0,0,68,false,stim,false,1,857,0,0,1,12080,task2,1254802,false,false,1498,image-keyboard-response,23
true,14,1,1,0,false,q,false,true,0.0-2.0-0.51-0.464-3.464,0,0,0,90,false,stim,true,1,623,0,0,1,12080,task2,1256954,false,true,1501,image-keyboard-response,24
true,14,0,1,2,false,d,false,true,0.0-2.0-0.51-0.465-3.465,0,0,0,81,false,stim,true,0,540,0,0,0,12080,task2,1259023,false,true,1504,image-keyboard-response,25
true,14,1,1,0,false,q,false,false,0.0-2.0-0.51-0.466-3.466,0,0,0,90,false,stim,true,1,659,0,0,2,12080,task2,1261197,false,false,1507,image-keyboard-response,26
true,14,1,1,0,false,q,false,false,0.0-2.0-0.51-0.467-3.467,0,0,0,90,false,stim,true,1,402,0,0,1,12080,task2,1263130,false,false,1510,image-keyboard-response,27
true,14,0,1,2,false,d,false,false,0.0-2.0-0.52-0.468-3.468,0,0,0,81,false,stim,true,0,546,0,0,0,12080,task2,1265201,false,false,1513,image-keyboard-response,28
true,14,1,1,0,false,q,false,false,0.0-2.0-0.52-0.469-3.469,0,0,0,90,false,stim,true,1,713,0,0,1,12080,task2,1267440,false,false,1516,image-keyboard-response,29
true,14,2,1,0,false,q,true,false,0.0-2.0-0.52-0.470-3.470,0,0,0,68,false,stim,false,1,675,0,0,2,12080,task2,1269633,false,false,1519,image-keyboard-response,30
true,14,2,1,0,false,q,true,false,0.0-2.0-0.52-0.471-3.471,0,0,0,68,false,stim,false,1,793,0,0,1,12080,task2,1271953,false,false,1522,image-keyboard-response,31
true,14,2,1,2,true,d,false,true,0.0-2.0-0.52-0.472-3.472,0,0,0,68,false,stim,false,0,877,0,0,0,12080,task2,1274352,false,false,1525,image-keyboard-response,32
true,14,2,1,2,true,d,false,true,0.0-2.0-0.52-0.473-3.473,0,0,0,68,false,stim,false,0,421,0,0,0,12080,task2,1276304,false,false,1528,image-keyboard-response,33
true,14,0,1,0,true,q,false,true,0.0-2.0-0.52-0.474-3.474,0,0,0,81,false,stim,false,1,737,0,0,2,12080,task2,1278572,false,false,1531,image-keyboard-response,34
true,14,0,1,0,true,q,false,true,0.0-2.0-0.52-0.475-3.475,0,0,0,81,false,stim,false,1,655,0,0,2,12080,task2,1280749,false,false,1534,image-keyboard-response,35
true,14,0,1,0,true,q,false,true,0.0-2.0-0.52-0.476-3.476,0,0,0,81,false,stim,false,1,656,0,0,1,12080,task2,1282932,false,false,1537,image-keyboard-response,36
true,15,2,1,0,false,q,false,false,0.0-2.0-0.53-0.477-3.477,0,0,0,68,true,stim,true,2,507,0,0,0,12080,task2,1284964,false,false,1540,image-keyboard-response,1
true,15,0,1,1,false,z,false,false,0.0-2.0-0.53-0.478-3.478,0,0,0,81,false,stim,true,0,490,0,0,2,12080,task2,1286978,false,false,1543,image-keyboard-response,2
true,15,0,1,2,false,d,false,false,0.0-2.0-0.53-0.479-3.479,0,0,0,81,false,stim,true,0,808,0,0,1,12080,task2,1289303,false,false,1546,image-keyboard-response,3
true,15,2,1,0,false,q,false,true,0.0-2.0-0.53-0.480-3.480,0,0,0,68,false,stim,true,2,445,0,0,0,12080,task2,1291282,false,true,1549,image-keyboard-response,4
true,15,0,1,1,false,z,false,false,0.0-2.0-0.53-0.481-3.481,0,0,0,81,false,stim,true,0,493,0,0,2,12080,task2,1293303,false,false,1552,image-keyboard-response,5
true,15,1,1,2,false,d,true,false,0.0-2.0-0.53-0.482-3.482,0,0,0,90,false,stim,false,0,715,0,0,1,12080,task2,1295544,false,false,1555,image-keyboard-response,6
true,15,2,1,1,false,z,true,true,0.0-2.0-0.53-0.483-3.483,0,0,0,68,false,stim,false,0,1062,0,0,2,12080,task2,1298125,false,true,1558,image-keyboard-response,7
true,15,2,1,0,false,q,false,true,0.0-2.0-0.53-0.484-3.484,0,0,0,68,false,stim,true,2,509,0,0,0,12080,task2,1300159,false,true,1561,image-keyboard-response,8
true,15,2,1,2,true,d,false,true,0.0-2.0-0.53-0.485-3.485,0,0,0,68,false,stim,false,0,335,0,0,1,12080,task2,1302015,false,false,1564,image-keyboard-response,9
true,15,2,1,1,false,z,true,false,0.0-2.0-0.54-0.486-3.486,0,0,0,68,false,stim,false,0,308,0,0,2,12080,task2,1303843,false,false,1567,image-keyboard-response,10
true,15,2,1,2,true,d,false,true,0.0-2.0-0.54-0.487-3.487,0,0,0,68,false,stim,false,0,462,0,0,1,12080,task2,1305833,false,false,1570,image-keyboard-response,11
true,15,2,1,2,true,d,false,true,0.0-2.0-0.54-0.488-3.488,0,0,0,68,false,stim,false,0,828,0,0,1,12080,task2,1308181,false,false,1573,image-keyboard-response,12
true,15,2,1,0,false,q,false,false,0.0-2.0-0.54-0.489-3.489,0,0,0,68,false,stim,true,2,552,0,0,0,12080,task2,1310256,false,false,1576,image-keyboard-response,13
true,15,2,1,0,false,q,false,false,0.0-2.0-0.54-0.490-3.490,0,0,0,68,false,stim,true,2,1038,0,0,0,12080,task2,1312805,false,false,1579,image-keyboard-response,14
true,15,0,1,0,true,q,false,false,0.0-2.0-0.54-0.491-3.491,0,0,0,81,false,stim,false,2,657,0,0,0,12080,task2,1314979,false,true,1582,image-keyboard-response,15
true,15,2,1,1,false,z,true,false,0.0-2.0-0.54-0.492-3.492,0,0,0,68,false,stim,false,0,614,0,0,2,12080,task2,1317109,false,false,1585,image-keyboard-response,16
true,15,2,1,2,true,d,false,true,0.0-2.0-0.54-0.493-3.493,0,0,0,68,false,stim,false,0,429,0,0,1,12080,task2,1319070,false,false,1588,image-keyboard-response,17
true,15,1,1,1,true,z,false,true,0.0-2.0-0.54-0.494-3.494,0,0,0,90,false,stim,false,0,777,0,0,2,12080,task2,1321362,false,false,1591,image-keyboard-response,18
true,15,0,1,0,true,q,false,true,0.0-2.0-0.55-0.495-3.495,0,0,0,81,false,stim,false,2,658,0,0,0,12080,task2,1323545,false,false,1594,image-keyboard-response,19
true,15,1,1,1,true,z,false,true,0.0-2.0-0.55-0.496-3.496,0,0,0,90,false,stim,false,0,792,0,0,2,12080,task2,1325864,false,false,1597,image-keyboard-response,20
true,15,2,1,2,true,d,false,true,0.0-2.0-0.55-0.497-3.497,0,0,0,68,false,stim,false,0,492,0,0,1,12080,task2,1327878,false,false,1600,image-keyboard-response,21
true,15,2,1,2,true,d,false,true,0.0-2.0-0.55-0.498-3.498,0,0,0,68,false,stim,false,0,1354,0,0,1,12080,task2,1330766,false,false,1603,image-keyboard-response,22
true,15,0,1,0,true,q,false,true,0.0-2.0-0.55-0.499-3.499,0,0,0,81,false,stim,false,2,614,0,0,0,12080,task2,1332896,false,false,1606,image-keyboard-response,23
true,15,1,1,1,true,z,false,true,0.0-2.0-0.55-0.500-3.500,0,0,0,90,false,stim,false,0,838,0,0,2,12080,task2,1335251,false,false,1609,image-keyboard-response,24
true,15,2,1,2,true,d,false,true,0.0-2.0-0.55-0.501-3.501,0,0,0,68,false,stim,false,0,505,0,0,1,12080,task2,1337279,false,false,1612,image-keyboard-response,25
true,15,1,1,1,true,z,false,true,0.0-2.0-0.55-0.502-3.502,0,0,0,90,false,stim,false,0,693,0,0,2,12080,task2,1339489,false,false,1615,image-keyboard-response,26
true,15,0,1,0,true,q,false,true,0.0-2.0-0.55-0.503-3.503,0,0,0,81,false,stim,false,2,589,0,0,0,12080,task2,1341594,false,false,1618,image-keyboard-response,27
true,15,0,1,0,true,q,false,true,0.0-2.0-0.56-0.504-3.504,0,0,0,81,false,stim,false,2,755,0,0,0,12080,task2,1343869,false,false,1621,image-keyboard-response,28
true,15,2,1,2,true,d,false,true,0.0-2.0-0.56-0.505-3.505,0,0,0,68,false,stim,false,0,1725,0,0,1,12080,task2,1347124,false,false,1624,image-keyboard-response,29
true,15,1,1,1,true,z,false,true,0.0-2.0-0.56-0.506-3.506,0,0,0,90,false,stim,false,0,583,0,0,2,12080,task2,1349227,false,false,1627,image-keyboard-response,30
true,15,0,1,0,true,q,false,true,0.0-2.0-0.56-0.507-3.507,0,0,0,81,false,stim,false,2,463,0,1,0,12080,task2,1351212,false,false,1630,image-keyboard-response,31
true,15,1,1,1,true,z,false,true,0.0-2.0-0.56-0.508-3.508,0,0,0,90,false,stim,false,0,1117,0,1,2,12080,task2,1353857,false,false,1633,image-keyboard-response,32
true,15,0,1,0,true,q,false,true,0.0-2.0-0.56-0.509-3.509,0,0,0,81,false,stim,false,2,656,0,1,0,12080,task2,1356036,false,false,1636,image-keyboard-response,33
true,15,2,1,2,true,d,false,true,0.0-2.0-0.56-0.510-3.510,0,0,0,68,false,stim,false,0,827,0,1,1,12080,task2,1358396,false,false,1639,image-keyboard-response,34
true,15,1,1,1,true,z,false,true,0.0-2.0-0.56-0.511-3.511,0,0,0,90,false,stim,false,0,872,0,1,2,12080,task2,1360796,false,false,1642,image-keyboard-response,35
true,16,0,0,2,false,d,true,false,0.0-2.0-0.56-0.512-3.512,1,1,1,81,true,stim,false,2,1267,0,1,1,12080,task2,1484799,false,false,1765,image-keyboard-response,1
true,16,1,0,0,false,q,true,false,0.0-2.0-0.57-0.513-3.513,1,1,1,90,false,stim,false,0,1134,0,1,0,12080,task2,1487456,false,false,1768,image-keyboard-response,2
true,16,2,0,2,true,d,false,true,0.0-2.0-0.57-0.514-3.514,1,1,1,68,false,stim,false,2,382,0,1,1,12080,task2,1489354,false,false,1771,image-keyboard-response,3
true,16,1,0,1,true,z,false,true,0.0-2.0-0.57-0.515-3.515,1,1,1,90,false,stim,false,1,994,0,1,2,12080,task2,1491873,false,false,1774,image-keyboard-response,4
true,16,1,0,1,true,z,false,true,0.0-2.0-0.57-0.516-3.516,1,1,1,90,false,stim,false,1,673,0,1,2,12080,task2,1494066,false,false,1777,image-keyboard-response,5
true,16,2,0,2,true,d,false,true,0.0-2.0-0.57-0.517-3.517,1,1,1,68,false,stim,false,2,557,0,1,1,12080,task2,1496143,false,false,1780,image-keyboard-response,6
true,16,0,0,0,true,q,false,true,0.0-2.0-0.57-0.518-3.518,1,1,1,81,false,stim,false,0,660,0,1,0,12080,task2,1498318,false,false,1783,image-keyboard-response,7
true,16,2,0,2,true,d,false,true,0.0-2.0-0.57-0.519-3.519,1,1,1,68,false,stim,false,2,794,0,1,1,12080,task2,1500632,false,false,1786,image-keyboard-response,8
true,16,1,0,1,true,z,false,true,0.0-2.0-0.57-0.520-3.520,1,1,1,90,false,stim,false,1,486,0,0,2,12080,task2,1502644,false,false,1789,image-keyboard-response,9
true,16,0,0,0,true,q,false,true,0.0-2.0-0.57-0.521-3.521,1,1,1,81,false,stim,false,0,630,0,0,0,12080,task2,1504798,false,false,1792,image-keyboard-response,10
true,16,2,0,2,true,d,false,true,0.0-2.0-0.58-0.522-3.522,1,1,1,68,false,stim,false,2,939,0,0,1,12080,task2,1507269,false,false,1795,image-keyboard-response,11
true,16,1,0,1,true,z,false,true,0.0-2.0-0.58-0.523-3.523,1,1,1,90,false,stim,false,1,921,0,0,2,12080,task2,1509715,false,false,1798,image-keyboard-response,12
true,16,2,0,1,false,z,true,false,0.0-2.0-0.58-0.524-3.524,1,1,1,68,false,stim,false,1,723,0,0,2,12080,task2,1511977,false,false,1801,image-keyboard-response,13
true,17,1,1,0,false,q,true,false,0.0-2.0-0.58-0.525-3.525,0,0,0,90,true,stim,false,2,716,0,0,1,12080,task2,1514209,false,false,1804,image-keyboard-response,1
true,17,1,1,2,false,d,false,false,0.0-2.0-0.58-0.526-3.526,0,0,0,90,false,stim,true,1,844,0,0,2,12080,task2,1516569,false,false,1807,image-keyboard-response,2
true,17,2,1,0,false,q,false,false,0.0-2.0-0.58-0.527-3.527,0,0,0,68,false,stim,true,2,1817,0,0,1,12080,task2,1519910,false,false,1810,image-keyboard-response,3
true,17,0,1,1,false,z,false,false,0.0-2.0-0.58-0.528-3.528,0,0,0,81,false,stim,true,0,936,0,0,0,12080,task2,1522374,false,false,1813,image-keyboard-response,4
true,17,1,1,1,true,z,false,true,0.0-2.0-0.58-0.529-3.529,0,0,0,90,false,stim,false,0,513,0,0,0,12080,task2,1524399,false,false,1816,image-keyboard-response,5
true,17,1,1,1,true,z,false,true,0.0-2.0-0.58-0.530-3.530,0,0,0,90,false,stim,false,0,420,0,0,0,12080,task2,1526334,false,false,1819,image-keyboard-response,6
true,17,1,1,2,false,d,false,false,0.0-2.0-0.59-0.531-3.531,0,0,0,90,false,stim,true,1,849,0,0,2,12080,task2,1528712,false,false,1822,image-keyboard-response,7
true,17,0,1,2,false,d,true,false,0.0-2.0-0.59-0.532-3.532,0,0,0,81,false,stim,false,1,570,0,0,2,12080,task2,1530814,false,false,1825,image-keyboard-response,8
true,17,2,1,2,true,d,false,true,0.0-2.0-0.59-0.533-3.533,0,0,0,68,false,stim,false,1,548,0,0,2,12080,task2,1532882,false,false,1828,image-keyboard-response,9
true,17,1,1,0,false,q,true,false,0.0-2.0-0.59-0.534-3.534,0,0,0,90,false,stim,false,2,777,0,0,1,12080,task2,1535176,false,false,1831,image-keyboard-response,10
true,17,0,1,0,true,q,false,true,0.0-2.0-0.59-0.535-3.535,0,0,0,81,false,stim,false,2,1072,0,0,1,12080,task2,1537775,false,false,1834,image-keyboard-response,11
true,17,1,1,1,true,z,false,true,0.0-2.0-0.59-0.536-3.536,0,0,0,90,false,stim,false,0,743,0,0,0,12080,task2,1540039,false,false,1837,image-keyboard-response,12
true,17,0,1,0,true,q,false,true,0.0-2.0-0.59-0.537-3.537,0,0,0,81,false,stim,false,2,684,0,0,1,12080,task2,1542254,false,false,1840,image-keyboard-response,13
true,17,1,1,1,true,z,false,true,0.0-2.0-0.59-0.538-3.538,0,0,0,90,false,stim,false,0,608,0,0,0,12080,task2,1544378,false,false,1843,image-keyboard-response,14
true,17,1,1,1,true,z,false,true,0.0-2.0-0.59-0.539-3.539,0,0,0,90,false,stim,false,0,618,0,0,0,12080,task2,1546518,false,false,1846,image-keyboard-response,15
true,17,0,1,0,true,q,false,true,0.0-2.0-0.60-0.540-3.540,0,0,0,81,false,stim,false,2,2050,0,0,1,12080,task2,1550082,false,false,1849,image-keyboard-response,16
true,17,2,1,2,true,d,false,false,0.0-2.0-0.60-0.541-3.541,0,0,0,68,false,stim,false,1,669,0,0,2,12080,task2,1552271,false,true,1852,image-keyboard-response,17
true,17,1,1,2,false,d,false,false,0.0-2.0-0.60-0.542-3.542,0,0,0,90,false,stim,true,1,1009,0,0,2,12080,task2,1554808,false,false,1855,image-keyboard-response,18
true,17,1,1,1,true,z,false,true,0.0-2.0-0.60-0.543-3.543,0,0,0,90,false,stim,false,0,1959,0,0,0,12080,task2,1558291,false,false,1858,image-keyboard-response,19
true,17,0,1,0,true,q,false,true,0.0-2.0-0.60-0.544-3.544,0,0,0,81,false,stim,false,2,1752,0,0,1,12080,task2,1561571,false,false,1861,image-keyboard-response,20
true,17,1,1,1,true,z,false,true,0.0-2.0-0.60-0.545-3.545,0,0,0,90,false,stim,false,0,501,0,0,0,12080,task2,1563591,false,false,1864,image-keyboard-response,21
true,17,2,1,2,true,d,false,true,0.0-2.0-0.60-0.546-3.546,0,0,0,68,false,stim,false,1,863,0,0,2,12080,task2,1565983,false,false,1867,image-keyboard-response,22
true,17,1,1,1,true,z,false,true,0.0-2.0-0.60-0.547-3.547,0,0,0,90,false,stim,false,0,1219,0,0,0,12080,task2,1568728,false,false,1870,image-keyboard-response,23
true,17,0,1,0,true,q,false,true,0.0-2.0-0.60-0.548-3.548,0,0,0,81,false,stim,false,2,673,0,0,1,12080,task2,1570926,false,false,1873,image-keyboard-response,24
true,17,0,1,0,true,q,false,true,0.0-2.0-0.61-0.549-3.549,0,0,0,81,false,stim,false,2,1246,0,0,1,12080,task2,1573704,false,false,1876,image-keyboard-response,25
true,17,0,1,1,false,z,false,false,0.0-2.0-0.61-0.550-3.550,0,0,0,81,false,stim,true,0,953,0,0,0,12080,task2,1576178,false,false,1879,image-keyboard-response,26
true,17,1,1,1,true,z,false,true,0.0-2.0-0.61-0.551-3.551,0,0,0,90,false,stim,false,0,826,0,0,0,12080,task2,1578532,false,false,1882,image-keyboard-response,27
true,17,0,1,0,true,q,false,false,0.0-2.0-0.61-0.552-3.552,0,0,0,81,false,stim,false,2,877,0,0,1,12080,task2,1580937,false,true,1885,image-keyboard-response,28
true,17,0,1,0,true,q,false,true,0.0-2.0-0.61-0.553-3.553,0,0,0,81,false,stim,false,2,556,0,0,1,12080,task2,1583018,false,false,1888,image-keyboard-response,29
true,17,2,1,2,true,d,false,true,0.0-2.0-0.61-0.554-3.554,0,0,0,68,false,stim,false,1,110,0,0,2,12080,task2,1584650,false,false,1891,image-keyboard-response,30
true,17,2,1,2,true,d,false,true,0.0-2.0-0.61-0.555-3.555,0,0,0,68,false,stim,false,1,518,0,1,2,12080,task2,1586697,false,false,1894,image-keyboard-response,31
true,17,1,1,1,true,z,false,true,0.0-2.0-0.61-0.556-3.556,0,0,0,90,false,stim,false,0,492,0,0,0,12080,task2,1588712,false,false,1897,image-keyboard-response,32
true,17,2,1,2,true,d,false,true,0.0-2.0-0.61-0.557-3.557,0,0,0,68,false,stim,false,1,1397,0,1,2,12080,task2,1591625,false,false,1900,image-keyboard-response,33
true,17,2,1,2,true,d,false,true,0.0-2.0-0.62-0.558-3.558,0,0,0,68,false,stim,false,1,419,0,1,2,12080,task2,1593571,false,false,1903,image-keyboard-response,34
true,17,2,1,2,true,d,false,true,0.0-2.0-0.62-0.559-3.559,0,0,0,68,false,stim,false,1,467,0,1,2,12080,task2,1595557,false,false,1906,image-keyboard-response,35
true,18,1,2,1,true,z,false,true,0.0-2.0-0.62-0.560-3.560,0,0,1,90,true,stim,false,0,2693,0,0,1,12080,task2,1599762,false,false,1909,image-keyboard-response,1
true,18,0,2,0,true,q,false,true,0.0-2.0-0.62-0.561-3.561,0,0,1,81,false,stim,false,1,1406,0,0,0,12080,task2,1602689,false,false,1912,image-keyboard-response,2
true,18,2,2,2,true,d,false,false,0.0-2.0-0.62-0.562-3.562,0,0,1,68,false,stim,false,2,787,0,1,2,12080,task2,1604991,false,true,1915,image-keyboard-response,3
true,18,0,2,0,true,q,false,true,0.0-2.0-0.62-0.563-3.563,0,0,1,81,false,stim,false,1,562,0,0,0,12080,task2,1607081,false,false,1918,image-keyboard-response,4
true,18,0,2,0,true,q,false,true,0.0-2.0-0.62-0.564-3.564,0,0,1,81,false,stim,false,1,578,0,0,0,12080,task2,1609185,false,false,1921,image-keyboard-response,5
true,18,1,2,1,true,z,false,true,0.0-2.0-0.62-0.565-3.565,0,0,1,90,false,stim,false,0,547,0,0,1,12080,task2,1611259,false,false,1924,image-keyboard-response,6
true,18,1,2,1,true,z,false,true,0.0-2.0-0.62-0.566-3.566,0,0,1,90,false,stim,false,0,591,0,0,1,12080,task2,1613372,false,false,1927,image-keyboard-response,7
true,18,0,2,0,true,q,false,true,0.0-2.0-0.63-0.567-3.567,0,0,1,81,false,stim,false,1,813,0,0,0,12080,task2,1615716,false,false,1930,image-keyboard-response,8
true,18,0,2,2,false,d,true,false,0.0-2.0-0.63-0.568-3.568,0,0,1,81,false,stim,false,2,685,0,1,2,12080,task2,1617932,false,false,1933,image-keyboard-response,9
true,18,1,2,1,true,z,false,true,0.0-2.0-0.63-0.569-3.569,0,0,1,90,false,stim,false,0,1014,0,0,1,12080,task2,1620462,false,false,1936,image-keyboard-response,10
true,18,1,2,2,false,d,true,false,0.0-2.0-0.63-0.570-3.570,0,0,1,90,false,stim,false,2,469,0,1,2,12080,task2,1622448,false,false,1939,image-keyboard-response,11
true,18,2,2,2,true,d,false,true,0.0-2.0-0.63-0.571-3.571,0,0,1,68,false,stim,false,2,449,0,1,2,12080,task2,1624417,false,false,1942,image-keyboard-response,12
true,18,1,2,1,true,z,false,true,0.0-2.0-0.63-0.572-3.572,0,0,1,90,false,stim,false,0,460,0,0,1,12080,task2,1626408,false,false,1945,image-keyboard-response,13
true,18,2,2,1,false,z,true,false,0.0-2.0-0.63-0.573-3.573,0,0,1,68,false,stim,false,0,417,0,0,1,12080,task2,1628345,false,false,1948,image-keyboard-response,14
true,18,0,2,0,true,q,false,true,0.0-2.0-0.63-0.574-3.574,0,0,1,81,false,stim,false,1,1057,0,0,0,12080,task2,1630907,false,false,1951,image-keyboard-response,15
true,18,0,2,0,true,q,false,true,0.0-2.0-0.63-0.575-3.575,0,0,1,81,false,stim,false,1,934,0,0,0,12080,task2,1633361,false,false,1954,image-keyboard-response,16
true,18,0,2,0,true,q,false,true,0.0-2.0-0.64-0.576-3.576,0,0,1,81,false,stim,false,1,876,0,0,0,12080,task2,1635759,false,false,1957,image-keyboard-response,17
true,18,1,2,1,true,z,false,true,0.0-2.0-0.64-0.577-3.577,0,0,1,90,false,stim,false,0,603,0,0,1,12080,task2,1637883,false,false,1960,image-keyboard-response,18
true,18,1,2,1,true,z,false,true,0.0-2.0-0.64-0.578-3.578,0,0,1,90,false,stim,false,0,422,0,0,1,12080,task2,1639828,false,false,1963,image-keyboard-response,19
true,18,0,2,0,true,q,false,false,0.0-2.0-0.64-0.579-3.579,0,0,1,81,false,stim,false,1,709,0,0,0,12080,task2,1642060,false,true,1966,image-keyboard-response,20
true,18,2,2,2,true,d,false,true,0.0-2.0-0.64-0.580-3.580,0,0,1,68,false,stim,false,2,953,0,1,2,12080,task2,1644545,false,false,1969,image-keyboard-response,21
true,18,0,2,0,true,q,false,true,0.0-2.0-0.64-0.581-3.581,0,0,1,81,false,stim,false,1,1027,0,0,0,12080,task2,1647092,false,false,1972,image-keyboard-response,22
true,18,1,2,1,true,z,false,true,0.0-2.0-0.64-0.582-3.582,0,0,1,90,false,stim,false,0,1511,0,0,1,12080,task2,1650120,false,false,1975,image-keyboard-response,23
true,18,2,2,2,true,d,false,true,0.0-2.0-0.64-0.583-3.583,0,0,1,68,false,stim,false,2,585,0,1,2,12080,task2,1652230,false,false,1978,image-keyboard-response,24
true,18,2,2,2,true,d,false,true,0.0-2.0-0.64-0.584-3.584,0,0,1,68,false,stim,false,2,686,0,1,2,12080,task2,1654436,false,false,1981,image-keyboard-response,25
true,18,0,2,0,true,q,false,true,0.0-2.0-0.65-0.585-3.585,0,0,1,81,false,stim,false,1,802,0,0,0,12080,task2,1656758,false,false,1984,image-keyboard-response,26
true,18,2,2,2,true,d,false,true,0.0-2.0-0.65-0.586-3.586,0,0,1,68,false,stim,false,2,569,0,1,2,12080,task2,1658843,false,false,1987,image-keyboard-response,27
true,18,0,2,0,true,q,false,true,0.0-2.0-0.65-0.587-3.587,0,0,1,81,false,stim,false,1,1648,0,0,0,12080,task2,1662013,false,false,1990,image-keyboard-response,28
true,18,2,2,2,true,d,false,true,0.0-2.0-0.65-0.588-3.588,0,0,1,68,false,stim,false,2,628,0,0,2,12080,task2,1664168,false,false,1993,image-keyboard-response,29
true,18,1,2,1,true,z,false,false,0.0-2.0-0.65-0.589-3.589,0,0,1,90,false,stim,false,0,1494,0,0,1,12080,task2,1667169,false,true,1996,image-keyboard-response,30
true,18,1,2,1,true,z,false,true,0.0-2.0-0.65-0.590-3.590,0,0,1,90,false,stim,false,0,531,0,0,1,12080,task2,1669228,false,false,1999,image-keyboard-response,31
true,18,0,2,0,true,q,false,true,0.0-2.0-0.65-0.591-3.591,0,0,1,81,false,stim,false,1,774,0,0,0,12080,task2,1671518,false,false,2002,image-keyboard-response,32
true,19,1,1,0,false,q,false,false,0.0-2.0-0.65-0.592-3.592,0,0,0,90,true,stim,true,1,779,0,0,1,12080,task2,1673811,false,false,2005,image-keyboard-response,1
true,19,2,1,1,false,z,false,false,0.0-2.0-0.65-0.593-3.593,0,0,0,68,false,stim,true,2,697,0,0,2,12080,task2,1676026,false,false,2008,image-keyboard-response,2
true,19,2,1,1,false,z,false,false,0.0-2.0-0.66-0.594-3.594,0,0,0,68,false,stim,true,2,699,0,0,2,12080,task2,1678254,false,false,2011,image-keyboard-response,3
true,19,0,1,1,false,z,false,false,0.0-2.0-0.66-0.595-3.595,0,0,0,81,false,stim,true,0,844,0,0,0,12080,task2,1680621,false,false,2014,image-keyboard-response,4
true,19,1,1,0,false,q,false,false,0.0-2.0-0.66-0.596-3.596,0,0,0,90,false,stim,true,1,795,0,0,1,12080,task2,1682936,false,false,2017,image-keyboard-response,5
true,19,1,1,1,true,z,false,true,0.0-2.0-0.66-0.597-3.597,0,0,0,90,false,stim,false,2,1003,0,0,2,12080,task2,1685466,false,false,2020,image-keyboard-response,6
true,19,2,1,0,false,q,true,false,0.0-2.0-0.66-0.598-3.598,0,0,0,68,false,stim,false,1,695,0,0,1,12080,task2,1687688,false,false,2023,image-keyboard-response,7
true,19,1,1,1,true,z,false,true,0.0-2.0-0.66-0.599-3.599,0,0,0,90,false,stim,false,0,993,0,0,0,12080,task2,1690203,false,false,2026,image-keyboard-response,8
true,19,1,1,1,true,z,false,true,0.0-2.0-0.66-0.600-3.600,0,0,0,90,false,stim,false,2,798,0,0,2,12080,task2,1692526,false,false,2029,image-keyboard-response,9
true,19,0,1,0,true,q,false,true,0.0-2.0-0.66-0.601-3.601,0,0,0,81,false,stim,false,1,733,0,0,1,12080,task2,1694783,false,false,2032,image-keyboard-response,10
true,19,1,1,1,true,z,false,true,0.0-2.0-0.66-0.602-3.602,0,0,0,90,false,stim,false,0,444,0,0,0,12080,task2,1696747,false,false,2035,image-keyboard-response,11
true,19,1,1,1,true,z,false,true,0.0-2.0-0.67-0.603-3.603,0,0,0,90,false,stim,false,2,253,0,0,2,12080,task2,1698521,false,false,2038,image-keyboard-response,12
true,19,0,1,0,true,q,false,true,0.0-2.0-0.67-0.604-3.604,0,0,0,81,false,stim,false,1,480,0,0,1,12080,task2,1700524,false,false,2041,image-keyboard-response,13
true,19,0,1,0,true,q,false,true,0.0-2.0-0.67-0.605-3.605,0,0,0,81,false,stim,false,1,646,0,0,1,12080,task2,1702697,false,false,2044,image-keyboard-response,14
true,19,1,1,1,true,z,false,true,0.0-2.0-0.67-0.606-3.606,0,0,0,90,false,stim,false,2,361,0,0,2,12080,task2,1704588,false,false,2047,image-keyboard-response,15
true,19,1,1,1,true,z,false,true,0.0-2.0-0.67-0.607-3.607,0,0,0,90,false,stim,false,0,584,0,0,0,12080,task2,1706701,false,false,2050,image-keyboard-response,16
true,19,0,1,0,true,q,false,true,0.0-2.0-0.67-0.608-3.608,0,0,0,81,false,stim,false,1,788,0,0,1,12080,task2,1709012,false,false,2053,image-keyboard-response,17
true,19,1,1,1,true,z,false,true,0.0-2.0-0.67-0.609-3.609,0,0,0,90,false,stim,false,0,409,0,0,0,12080,task2,1710943,false,false,2056,image-keyboard-response,18
true,19,1,1,1,true,z,false,true,0.0-2.0-0.67-0.610-3.610,0,0,0,90,false,stim,false,2,1502,0,0,2,12080,task2,1713973,false,false,2059,image-keyboard-response,19
true,19,1,1,1,true,z,false,true,0.0-2.0-0.67-0.611-3.611,0,0,0,90,false,stim,false,0,366,0,0,0,12080,task2,1715864,false,false,2062,image-keyboard-response,20
true,19,1,1,1,true,z,false,true,0.0-2.0-0.68-0.612-3.612,0,0,0,90,false,stim,false,0,551,0,0,0,12080,task2,1717938,false,false,2065,image-keyboard-response,21
true,19,1,1,1,true,z,false,true,0.0-2.0-0.68-0.613-3.613,0,0,0,90,false,stim,false,2,416,0,0,2,12080,task2,1719877,false,false,2068,image-keyboard-response,22
true,19,1,1,1,true,z,false,true,0.0-2.0-0.68-0.614-3.614,0,0,0,90,false,stim,false,2,450,0,0,2,12080,task2,1721846,false,false,2071,image-keyboard-response,23
true,19,1,1,1,true,z,false,true,0.0-2.0-0.68-0.615-3.615,0,0,0,90,false,stim,false,0,379,0,0,0,12080,task2,1723745,false,false,2074,image-keyboard-response,24
true,19,1,1,1,true,z,false,true,0.0-2.0-0.68-0.616-3.616,0,0,0,90,false,stim,false,0,383,0,0,0,12080,task2,1725646,false,false,2077,image-keyboard-response,25
true,19,1,1,1,true,z,false,true,0.0-2.0-0.68-0.617-3.617,0,0,0,90,false,stim,false,2,941,0,0,2,12080,task2,1728110,false,false,2080,image-keyboard-response,26
true,19,0,1,0,true,q,false,true,0.0-2.0-0.68-0.618-3.618,0,0,0,81,false,stim,false,1,587,0,0,1,12080,task2,1730230,false,false,2083,image-keyboard-response,27
true,19,0,1,0,true,q,false,true,0.0-2.0-0.68-0.619-3.619,0,0,0,81,false,stim,false,1,615,0,0,1,12080,task2,1732363,false,false,2086,image-keyboard-response,28
true,19,0,1,0,true,q,false,false,0.0-2.0-0.68-0.620-3.620,0,0,0,81,false,stim,false,1,611,0,0,1,12080,task2,1734496,false,true,2089,image-keyboard-response,29
true,19,0,1,0,true,q,false,true,0.0-2.0-0.69-0.621-3.621,0,0,0,81,false,stim,false,1,398,0,0,1,12080,task2,1736403,false,false,2092,image-keyboard-response,30
true,19,1,1,1,true,z,false,true,0.0-2.0-0.69-0.622-3.622,0,0,0,90,false,stim,false,2,896,0,1,2,12080,task2,1738829,false,false,2095,image-keyboard-response,31
true,19,1,1,1,true,z,false,true,0.0-2.0-0.69-0.623-3.623,0,0,0,90,false,stim,false,2,427,0,1,2,12080,task2,1740771,false,false,2098,image-keyboard-response,32
true,19,1,1,1,true,z,false,true,0.0-2.0-0.69-0.624-3.624,0,0,0,90,false,stim,false,0,1047,0,0,0,12080,task2,1743346,false,false,2101,image-keyboard-response,33
true,19,1,1,1,true,z,false,true,0.0-2.0-0.69-0.625-3.625,0,0,0,90,false,stim,false,0,420,0,0,0,12080,task2,1745284,false,false,2104,image-keyboard-response,34
true,20,1,2,1,true,z,false,true,0.0-2.0-0.69-0.626-3.626,0,0,1,90,true,stim,false,0,2089,0,0,1,12080,task2,1748894,false,false,2107,image-keyboard-response,1
true,20,0,2,1,false,z,true,false,0.0-2.0-0.69-0.627-3.627,0,0,1,81,false,stim,false,1,610,0,1,2,12080,task2,1751034,false,false,2110,image-keyboard-response,2
true,20,1,2,1,true,z,false,true,0.0-2.0-0.69-0.628-3.628,0,0,1,90,false,stim,false,0,584,0,0,1,12080,task2,1753141,false,false,2113,image-keyboard-response,3
true,20,1,2,2,false,d,false,false,0.0-2.0-0.69-0.629-3.629,0,0,1,90,false,stim,true,1,419,0,0,0,12080,task2,1755076,false,false,2116,image-keyboard-response,4
true,20,0,2,1,false,z,false,false,0.0-2.0-0.70-0.630-3.630,0,0,1,81,false,stim,true,0,1660,0,0,1,12080,task2,1758264,false,false,2119,image-keyboard-response,5
true,20,1,2,2,false,d,false,false,0.0-2.0-0.70-0.631-3.631,0,0,1,90,false,stim,true,1,774,0,0,0,12080,task2,1760561,false,false,2122,image-keyboard-response,6
true,20,1,2,1,true,z,false,true,0.0-2.0-0.70-0.632-3.632,0,0,1,90,false,stim,false,1,1067,0,1,2,12080,task2,1763148,false,false,2125,image-keyboard-response,7
true,20,1,2,1,true,z,false,true,0.0-2.0-0.70-0.633-3.633,0,0,1,90,false,stim,false,1,1055,0,1,2,12080,task2,1765726,false,false,2128,image-keyboard-response,8
