answered,blockNum,choice,condition,corResp,correct,correct_response,explo,fb,internal_node_id,isStable_1,isStable_2,isStable_3,key_press,newBlock,part,persev,persevResp,rt,sessNum,stableAS,stimulus,subject,task,time_elapsed,training,trap,trial_index,trial_type,trialsInBlock
true,1,0,0,1,false,z,true,false,0.0-2.0-0.0-0.0-3.0,0,0,0,81,true,stim,false,-1,1231,2,0,0,12080,task3,123733,false,false,79,image-keyboard-response,1
true,1,0,0,0,true,q,false,true,0.0-2.0-0.0-0.1-3.1,0,0,0,81,false,stim,false,-1,474,2,0,1,12080,task3,125730,false,false,82,image-keyboard-response,2
true,1,0,0,0,true,q,false,true,0.0-2.0-0.0-0.2-3.2,0,0,0,81,false,stim,false,-1,898,2,0,2,12080,task3,128148,false,false,85,image-keyboard-response,3
true,1,2,0,1,false,z,true,false,0.0-2.0-0.0-0.3-3.3,0,0,0,68,false,stim,false,-1,627,2,0,0,12080,task3,130293,false,false,88,image-keyboard-response,4
true,1,0,0,0,true,q,false,true,0.0-2.0-0.0-0.4-3.4,0,0,0,81,false,stim,false,-1,460,2,0,1,12080,task3,132267,false,false,91,image-keyboard-response,5
true,1,0,0,0,true,q,false,true,0.0-2.0-0.0-0.5-3.5,0,0,0,81,false,stim,false,-1,352,2,0,2,12080,task3,134142,false,false,94,image-keyboard-response,6
true,1,1,0,1,true,z,false,true,0.0-2.0-0.0-0.6-3.6,0,0,0,90,false,stim,false,-1,491,2,0,0,12080,task3,136151,false,false,97,image-keyboard-response,7
true,1,0,0,0,true,q,false,true,0.0-2.0-0.0-0.7-3.7,0,0,0,81,false,stim,false,-1,391,2,0,1,12080,task3,138072,false,false,100,image-keyboard-response,8
true,1,0,0,0,true,q,false,true,0.0-2.0-0.0-0.8-3.8,0,0,0,81,false,stim,false,-1,422,2,0,2,12080,task3,140017,false,false,103,image-keyboard-response,9
true,1,0,0,0,true,q,false,false,0.0-2.0-0.1-0.9-3.9,0,0,0,81,false,stim,false,-1,425,2,0,2,12080,task3,141953,false,true,106,image-keyboard-response,10
true,1,1,0,1,true,z,false,true,0.0-2.0-0.1-0.10-3.10,0,0,0,90,false,stim,false,-1,435,2,0,0,12080,task3,143897,false,false,109,image-keyboard-response,11
true,1,0,0,0,true,q,false,true,0.0-2.0-0.1-0.11-3.11,0,0,0,81,false,stim,false,-1,419,2,0,1,12080,task3,145834,false,false,112,image-keyboard-response,12
true,1,1,0,1,true,z,false,true,0.0-2.0-0.1-0.12-3.12,0,0,0,90,false,stim,false,-1,372,2,0,0,12080,task3,147726,false,false,115,image-keyboard-response,13
true,1,0,0,0,true,q,false,true,0.0-2.0-0.1-0.13-3.13,0,0,0,81,false,stim,false,-1,682,2,0,1,12080,task3,149935,false,false,118,image-keyboard-response,14
true,1,1,0,1,true,z,false,true,0.0-2.0-0.1-0.14-3.14,0,0,0,90,false,stim,false,-1,585,2,0,0,12080,task3,152041,false,false,121,image-keyboard-response,15
true,1,0,0,0,true,q,false,true,0.0-2.0-0.1-0.15-3.15,0,0,0,81,false,stim,false,-1,437,2,0,1,12080,task3,153995,false,false,124,image-keyboard-response,16
true,1,0,0,0,true,q,false,true,0.0-2.0-0.1-0.16-3.16,0,0,0,81,false,stim,false,-1,467,2,0,2,12080,task3,155973,false,false,127,image-keyboard-response,17
true,1,0,0,0,true,q,false,true,0.0-2.0-0.1-0.17-3.17,0,0,0,81,false,stim,false,-1,431,2,0,2,12080,task3,157910,false,false,130,image-keyboard-response,18
true,1,0,0,0,true,q,false,true,0.0-2.0-0.2-0.18-3.18,0,0,0,81,false,stim,false,-1,813,2,0,1,12080,task3,160250,false,false,133,image-keyboard-response,19
true,1,1,0,1,true,z,false,true,0.0-2.0-0.2-0.19-3.19,0,0,0,90,false,stim,false,-1,423,2,0,0,12080,task3,162199,false,false,136,image-keyboard-response,20
true,1,0,0,0,true,q,false,false,0.0-2.0-0.2-0.20-3.20,0,0,0,81,false,stim,false,-1,398,2,0,2,12080,task3,164120,false,true,139,image-keyboard-response,21
true,1,0,0,0,true,q,false,true,0.0-2.0-0.2-0.21-3.21,0,0,0,81,false,stim,false,-1,372,2,0,2,12080,task3,166009,false,false,142,image-keyboard-response,22
true,1,1,0,1,true,z,false,true,0.0-2.0-0.2-0.22-3.22,0,0,0,90,false,stim,false,-1,367,2,1,0,12080,task3,167892,false,false,145,image-keyboard-response,23
true,1,0,0,0,true,q,false,true,0.0-2.0-0.2-0.23-3.23,0,0,0,81,false,stim,false,-1,543,2,1,1,12080,task3,169952,false,false,148,image-keyboard-response,24
true,1,0,0,0,true,q,false,true,0.0-2.0-0.2-0.24-3.24,0,0,0,81,false,stim,false,-1,637,2,0,2,12080,task3,172111,false,false,151,image-keyboard-response,25
true,1,0,0,0,true,q,false,true,0.0-2.0-0.2-0.25-3.25,0,0,0,81,false,stim,false,-1,532,2,1,1,12080,task3,174159,false,false,154,image-keyboard-response,26
true,2,1,2,1,true,z,false,true,0.0-2.0-0.2-0.26-3.26,1,1,0,90,true,stim,false,1,1080,2,1,0,12080,task3,176753,false,false,157,image-keyboard-response,1
true,2,0,2,2,false,d,false,false,0.0-2.0-0.3-0.27-3.27,1,1,0,81,false,stim,true,0,819,2,0,2,12080,task3,179095,false,false,160,image-keyboard-response,2
true,2,0,2,0,true,q,false,true,0.0-2.0-0.3-0.28-3.28,1,1,0,81,false,stim,false,0,1011,2,1,1,12080,task3,181623,false,false,163,image-keyboard-response,3
true,2,1,2,1,true,z,false,true,0.0-2.0-0.3-0.29-3.29,1,1,0,90,false,stim,false,1,599,2,1,0,12080,task3,183749,false,false,166,image-keyboard-response,4
true,2,0,2,2,false,d,false,false,0.0-2.0-0.3-0.30-3.30,1,1,0,81,false,stim,true,0,503,2,0,2,12080,task3,185781,false,false,169,image-keyboard-response,5
true,2,1,2,1,true,z,false,true,0.0-2.0-0.3-0.31-3.31,1,1,0,90,false,stim,false,1,490,2,1,0,12080,task3,187782,false,false,172,image-keyboard-response,6
true,2,0,2,0,true,q,false,true,0.0-2.0-0.3-0.32-3.32,1,1,0,81,false,stim,false,0,494,2,0,1,12080,task3,189795,false,false,175,image-keyboard-response,7
true,2,1,2,1,true,z,false,true,0.0-2.0-0.3-0.33-3.33,1,1,0,90,false,stim,false,1,381,2,1,0,12080,task3,191688,false,false,178,image-keyboard-response,8
true,2,0,2,2,false,d,false,false,0.0-2.0-0.3-0.34-3.34,1,1,0,81,false,stim,true,0,830,2,1,2,12080,task3,194027,false,false,181,image-keyboard-response,9
true,2,0,2,0,true,q,false,true,0.0-2.0-0.3-0.35-3.35,1,1,0,81,false,stim,false,0,541,2,0,1,12080,task3,196087,false,false,184,image-keyboard-response,10
true,2,1,2,1,true,z,false,true,0.0-2.0-0.4-0.36-3.36,1,1,0,90,false,stim,false,1,355,2,1,0,12080,task3,197962,false,false,187,image-keyboard-response,11
true,3,1,2,1,true,z,false,true,0.0-2.0-0.4-0.37-3.37,1,0,1,90,true,stim,false,1,447,2,1,0,12080,task3,199925,false,false,190,image-keyboard-response,1
true,3,0,2,2,false,d,false,false,0.0-2.0-0.4-0.38-3.38,1,0,1,81,false,stim,true,0,412,2,0,1,12080,task3,201869,false,false,193,image-keyboard-response,2
true,3,0,2,2,false,d,true,false,0.0-2.0-0.4-0.39-3.39,1,0,1,81,false,stim,false,2,459,2,1,2,12080,task3,203851,false,false,196,image-keyboard-response,3
true,3,0,2,2,false,d,true,false,0.0-2.0-0.4-0.40-3.40,1,0,1,81,false,stim,false,2,365,2,1,2,12080,task3,205734,false,false,199,image-keyboard-response,4
true,3,1,2,2,false,d,true,true,0.0-2.0-0.4-0.41-3.41,1,0,1,90,false,stim,false,0,656,2,0,1,12080,task3,207905,false,true,202,image-keyboard-response,5
true,3,1,2,2,false,d,true,false,0.0-2.0-0.4-0.42-3.42,1,0,1,90,false,stim,false,0,553,2,0,1,12080,task3,209981,false,false,205,image-keyboard-response,6
true,3,1,2,1,true,z,false,true,0.0-2.0-0.4-0.43-3.43,1,0,1,90,false,stim,false,1,547,2,1,0,12080,task3,212057,false,false,208,image-keyboard-response,7
true,3,1,2,2,false,d,true,false,0.0-2.0-0.4-0.44-3.44,1,0,1,90,false,stim,false,2,761,2,1,2,12080,task3,214341,false,false,211,image-keyboard-response,8
true,3,1,2,2,false,d,true,true,0.0-2.0-0.5-0.45-3.45,1,0,1,90,false,stim,false,0,416,2,0,1,12080,task3,216286,false,true,214,image-keyboard-response,9
true,3,2,2,2,true,d,false,true,0.0-2.0-0.5-0.46-3.46,1,0,1,68,false,stim,false,2,1047,2,1,2,12080,task3,218851,false,false,217,image-keyboard-response,10
true,3,2,2,2,true,d,false,true,0.0-2.0-0.5-0.47-3.47,1,0,1,68,false,stim,false,2,453,2,1,2,12080,task3,220812,false,false,220,image-keyboard-response,11
true,3,1,2,1,true,z,false,true,0.0-2.0-0.5-0.48-3.48,1,0,1,90,false,stim,false,1,420,2,1,0,12080,task3,222749,false,false,223,image-keyboard-response,12
true,3,1,2,1,true,z,false,false,0.0-2.0-0.5-0.49-3.49,1,0,1,90,false,stim,false,1,458,2,1,0,12080,task3,224731,false,true,226,image-keyboard-response,13
true,3,1,2,2,false,d,true,false,0.0-2.0-0.5-0.50-3.50,1,0,1,90,false,stim,false,0,637,2,0,1,12080,task3,226894,false,false,229,image-keyboard-response,14
true,3,1,2,1,true,z,false,true,0.0-2.0-0.5-0.51-3.51,1,0,1,90,false,stim,false,1,856,2,1,0,12080,task3,229271,false,false,232,image-keyboard-response,15
true,3,2,2,2,true,d,false,true,0.0-2.0-0.5-0.52-3.52,1,0,1,68,false,stim,false,2,404,2,1,2,12080,task3,231197,false,false,235,image-keyboard-response,16
true,3,1,2,2,false,d,true,false,0.0-2.0-0.5-0.53-3.53,1,0,1,90,false,stim,false,0,484,2,0,1,12080,task3,233201,false,false,238,image-keyboard-response,17
true,3,2,2,1,false,z,true,false,0.0-2.0-0.6-0.54-3.54,1,0,1,68,false,stim,false,1,519,2,1,0,12080,task3,235239,false,false,241,image-keyboard-response,18
true,3,1,2,1,true,z,false,true,0.0-2.0-0.6-0.55-3.55,1,0,1,90,false,stim,false,1,1180,2,1,0,12080,task3,237938,false,false,244,image-keyboard-response,19
true,3,1,2,2,false,d,true,false,0.0-2.0-0.6-0.56-3.56,1,0,1,90,false,stim,false,0,1191,2,0,1,12080,task3,240641,false,false,247,image-keyboard-response,20
true,3,0,2,2,false,d,false,false,0.0-2.0-0.6-0.57-3.57,1,0,1,81,false,stim,true,0,1267,2,0,1,12080,task3,243432,false,false,250,image-keyboard-response,21
true,3,1,2,1,true,z,false,true,0.0-2.0-0.6-0.58-3.58,1,0,1,90,false,stim,false,1,844,2,1,0,12080,task3,245791,false,false,253,image-keyboard-response,22
true,3,2,2,2,true,d,false,true,0.0-2.0-0.6-0.59-3.59,1,0,1,68,false,stim,false,0,604,2,0,1,12080,task3,247905,false,false,256,image-keyboard-response,23
true,4,2,1,0,false,q,false,false,0.0-2.0-0.6-0.60-3.60,1,0,0,68,true,stim,true,2,678,2,0,2,12080,task3,250100,false,false,259,image-keyboard-response,1
true,4,2,1,0,false,q,false,false,0.0-2.0-0.6-0.61-3.61,1,0,0,68,false,stim,true,2,408,2,0,2,12080,task3,252020,false,false,262,image-keyboard-response,2
true,4,2,1,0,false,q,false,false,0.0-2.0-0.6-0.62-3.62,1,0,0,68,false,stim,true,2,706,2,0,2,12080,task3,254253,false,false,265,image-keyboard-response,3
true,4,1,1,0,false,q,true,true,0.0-2.0-0.7-0.63-3.63,1,0,0,90,false,stim,false,2,1275,2,0,2,12080,task3,257039,false,true,268,image-keyboard-response,4
true,4,1,1,1,true,z,false,true,0.0-2.0-0.7-0.64-3.64,1,0,0,90,false,stim,false,1,565,2,1,0,12080,task3,259112,false,false,271,image-keyboard-response,5
true,4,1,1,0,false,q,true,false,0.0-2.0-0.7-0.65-3.65,1,0,0,90,false,stim,false,2,687,2,0,2,12080,task3,261308,false,false,274,image-keyboard-response,6
true,4,2,1,1,false,z,false,false,0.0-2.0-0.7-0.66-3.66,1,0,0,68,false,stim,true,2,377,2,0,1,12080,task3,263194,false,false,277,image-keyboard-response,7
true,4,2,1,1,false,z,false,true,0.0-2.0-0.7-0.67-3.67,1,0,0,68,false,stim,true,2,661,2,0,1,12080,task3,265375,false,true,280,image-keyboard-response,8
true,4,1,1,1,true,z,false,true,0.0-2.0-0.7-0.68-3.68,1,0,0,90,false,stim,false,1,479,2,1,0,12080,task3,267359,false,false,283,image-keyboard-response,9
true,4,1,1,0,false,q,true,false,0.0-2.0-0.7-0.69-3.69,1,0,0,90,false,stim,false,2,663,2,0,2,12080,task3,269531,false,false,286,image-keyboard-response,10
true,4,1,1,1,true,z,false,true,0.0-2.0-0.7-0.70-3.70,1,0,0,90,false,stim,false,1,556,2,1,0,12080,task3,271601,false,false,289,image-keyboard-response,11
true,4,2,1,1,false,z,false,false,0.0-2.0-0.7-0.71-3.71,1,0,0,68,false,stim,true,2,591,2,0,1,12080,task3,273700,false,false,292,image-keyboard-response,12
true,4,2,1,1,false,z,false,false,0.0-2.0-0.8-0.72-3.72,1,0,0,68,false,stim,true,2,709,2,0,1,12080,task3,275924,false,false,295,image-keyboard-response,13
true,4,1,1,1,true,z,false,true,0.0-2.0-0.8-0.73-3.73,1,0,0,90,false,stim,false,2,808,2,0,1,12080,task3,278251,false,false,298,image-keyboard-response,14
true,4,1,1,1,true,z,false,false,0.0-2.0-0.8-0.74-3.74,1,0,0,90,false,stim,false,1,624,2,1,0,12080,task3,280399,false,true,301,image-keyboard-response,15
true,4,1,1,1,true,z,false,true,0.0-2.0-0.8-0.75-3.75,1,0,0,90,false,stim,false,2,395,2,0,1,12080,task3,282311,false,false,304,image-keyboard-response,16
true,4,0,1,1,false,z,true,false,0.0-2.0-0.8-0.76-3.76,1,0,0,81,false,stim,false,1,502,2,1,0,12080,task3,284326,false,false,307,image-keyboard-response,17
true,4,2,1,0,false,q,false,false,0.0-2.0-0.8-0.77-3.77,1,0,0,68,false,stim,true,2,1024,2,0,2,12080,task3,286874,false,false,310,image-keyboard-response,18
true,4,2,1,1,false,z,true,false,0.0-2.0-0.8-0.78-3.78,1,0,0,68,false,stim,false,1,609,2,1,0,12080,task3,289003,false,false,313,image-keyboard-response,19
true,4,2,1,0,false,q,false,false,0.0-2.0-0.8-0.79-3.79,1,0,0,68,false,stim,true,2,1134,2,0,2,12080,task3,291647,false,false,316,image-keyboard-response,20
true,4,1,1,0,false,q,true,false,0.0-2.0-0.8-0.80-3.80,1,0,0,90,false,stim,false,2,690,2,0,2,12080,task3,293854,false,false,319,image-keyboard-response,21
true,4,1,1,1,true,z,false,true,0.0-2.0-0.9-0.81-3.81,1,0,0,90,false,stim,false,2,627,2,1,1,12080,task3,295991,false,false,322,image-keyboard-response,22
true,4,1,1,0,false,q,true,false,0.0-2.0-0.9-0.82-3.82,1,0,0,90,false,stim,false,2,465,2,0,2,12080,task3,297967,false,false,325,image-keyboard-response,23
true,4,0,1,1,false,z,true,false,0.0-2.0-0.9-0.83-3.83,1,0,0,81,false,stim,false,1,740,2,1,0,12080,task3,300224,false,false,328,image-keyboard-response,24
true,5,1,2,1,true,z,false,true,0.0-2.0-0.9-0.84-3.84,1,1,0,90,true,stim,false,1,682,2,1,0,12080,task3,302420,false,false,331,image-keyboard-response,1
true,5,1,2,1,true,z,false,true,0.0-2.0-0.9-0.85-3.85,1,1,0,90,false,stim,false,1,697,2,1,1,12080,task3,304637,false,false,334,image-keyboard-response,2
true,5,1,2,1,true,z,false,false,0.0-2.0-0.9-0.86-3.86,1,1,0,90,false,stim,false,1,472,2,1,1,12080,task3,306617,false,true,337,image-keyboard-response,3
true,5,1,2,1,true,z,false,true,0.0-2.0-0.9-0.87-3.87,1,1,0,90,false,stim,false,1,409,2,1,0,12080,task3,308541,false,false,340,image-keyboard-response,4
true,5,0,2,2,false,d,false,false,0.0-2.0-0.9-0.88-3.88,1,1,0,81,false,stim,true,0,656,2,0,2,12080,task3,310718,false,false,343,image-keyboard-response,5
true,5,2,2,2,true,d,false,true,0.0-2.0-0.9-0.89-3.89,1,1,0,68,false,stim,false,0,830,2,0,2,12080,task3,313057,false,false,346,image-keyboard-response,6
true,5,2,2,2,true,d,false,true,0.0-2.0-0.10-0.90-3.90,1,1,0,68,false,stim,false,0,431,2,0,2,12080,task3,315008,false,false,349,image-keyboard-response,7
true,5,2,2,2,true,d,false,false,0.0-2.0-0.10-0.91-3.91,1,1,0,68,false,stim,false,0,451,2,0,2,12080,task3,316986,false,true,352,image-keyboard-response,8
true,5,1,2,1,true,z,false,true,0.0-2.0-0.10-0.92-3.92,1,1,0,90,false,stim,false,1,685,2,0,1,12080,task3,319195,false,false,355,image-keyboard-response,9
true,5,1,2,1,true,z,false,true,0.0-2.0-0.10-0.93-3.93,1,1,0,90,false,stim,false,1,528,2,0,1,12080,task3,321234,false,false,358,image-keyboard-response,10
true,5,1,2,1,true,z,false,true,0.0-2.0-0.10-0.94-3.94,1,1,0,90,false,stim,false,1,608,2,0,0,12080,task3,323374,false,false,361,image-keyboard-response,11
true,5,1,2,1,true,z,false,true,0.0-2.0-0.10-0.95-3.95,1,1,0,90,false,stim,false,1,428,2,0,0,12080,task3,325327,false,false,364,image-keyboard-response,12
true,5,2,2,2,true,d,false,true,0.0-2.0-0.10-0.96-3.96,1,1,0,68,false,stim,false,0,433,2,1,2,12080,task3,327282,false,false,367,image-keyboard-response,13
true,6,1,1,2,false,d,false,false,0.0-2.0-0.10-0.97-3.97,0,0,1,90,true,stim,true,1,573,2,0,0,12080,task3,329373,false,false,370,image-keyboard-response,1
true,6,2,1,0,false,q,true,false,0.0-2.0-0.10-0.98-3.98,0,0,1,68,false,stim,false,1,464,2,0,1,12080,task3,331369,false,false,373,image-keyboard-response,2
true,6,1,1,2,false,d,false,false,0.0-2.0-0.11-0.99-3.99,0,0,1,90,false,stim,true,1,735,2,0,0,12080,task3,333625,false,false,376,image-keyboard-response,3
true,6,1,1,0,false,q,false,false,0.0-2.0-0.11-0.100-3.100,0,0,1,90,false,stim,true,1,604,2,0,1,12080,task3,335739,false,false,379,image-keyboard-response,4
true,6,1,1,0,false,q,false,false,0.0-2.0-0.11-0.101-3.101,0,0,1,90,false,stim,true,1,680,2,0,1,12080,task3,337948,false,false,382,image-keyboard-response,5
true,6,0,1,2,false,d,true,false,0.0-2.0-0.11-0.102-3.102,0,0,1,81,false,stim,false,1,1304,2,0,0,12080,task3,340763,false,false,385,image-keyboard-response,6
true,6,2,1,0,false,q,true,false,0.0-2.0-0.11-0.103-3.103,0,0,1,68,false,stim,false,1,1429,2,0,1,12080,task3,343715,false,false,388,image-keyboard-response,7
true,6,2,1,2,true,d,false,true,0.0-2.0-0.11-0.104-3.104,0,0,1,68,false,stim,false,2,627,2,1,2,12080,task3,345863,false,false,391,image-keyboard-response,8
true,6,2,1,2,true,d,false,true,0.0-2.0-0.11-0.105-3.105,0,0,1,68,false,stim,false,2,492,2,1,2,12080,task3,347878,false,false,394,image-keyboard-response,9
true,6,0,1,2,false,d,true,false,0.0-2.0-0.11-0.106-3.106,0,0,1,81,false,stim,false,1,482,2,0,0,12080,task3,349871,false,false,397,image-keyboard-response,10
true,6,0,1,2,false,d,true,false,0.0-2.0-0.11-0.107-3.107,0,0,1,81,false,stim,false,2,818,2,1,2,12080,task3,352192,false,false,400,image-keyboard-response,11
true,6,2,1,2,true,d,false,true,0.0-2.0-0.12-0.108-3.108,0,0,1,68,false,stim,false,1,941,2,0,0,12080,task3,354651,false,false,403,image-keyboard-response,12
true,6,2,1,2,true,d,false,true,0.0-2.0-0.12-0.109-3.109,0,0,1,68,false,stim,false,1,514,2,0,0,12080,task3,356683,false,false,406,image-keyboard-response,13
true,6,2,1,2,true,d,false,true,0.0-2.0-0.12-0.110-3.110,0,0,1,68,false,stim,false,2,572,2,1,2,12080,task3,358777,false,false,409,image-keyboard-response,14
true,6,2,1,2,true,d,false,true,0.0-2.0-0.12-0.111-3.111,0,0,1,68,false,stim,false,2,390,2,1,2,12080,task3,360697,false,false,412,image-keyboard-response,15
true,6,2,1,2,true,d,false,true,0.0-2.0-0.12-0.112-3.112,0,0,1,68,false,stim,false,2,321,2,1,2,12080,task3,362547,false,false,415,image-keyboard-response,16
true,6,0,1,0,true,q,false,true,0.0-2.0-0.12-0.113-3.113,0,0,1,81,false,stim,false,1,485,2,0,1,12080,task3,364552,false,false,418,image-keyboard-response,17
true,6,2,1,2,true,d,false,true,0.0-2.0-0.12-0.114-3.114,0,0,1,68,false,stim,false,1,427,2,0,0,12080,task3,366508,false,false,421,image-keyboard-response,18
true,6,0,1,0,true,q,false,true,0.0-2.0-0.12-0.115-3.115,0,0,1,81,false,stim,false,1,387,2,0,1,12080,task3,368424,false,false,424,image-keyboard-response,19
true,6,0,1,0,true,q,false,true,0.0-2.0-0.12-0.116-3.116,0,0,1,81,false,stim,false,1,460,2,0,1,12080,task3,370392,false,false,427,image-keyboard-response,20
true,6,0,1,0,true,q,false,true,0.0-2.0-0.13-0.117-3.117,0,0,1,81,false,stim,false,1,433,2,0,1,12080,task3,372336,false,false,430,image-keyboard-response,21
true,6,2,1,2,true,d,false,false,0.0-2.0-0.13-0.118-3.118,0,0,1,68,false,stim,false,1,744,2,1,0,12080,task3,374599,false,true,433,image-keyboard-response,22
true,6,2,1,2,true,d,false,true,0.0-2.0-0.13-0.119-3.119,0,0,1,68,false,stim,false,1,362,2,1,0,12080,task3,376478,false,false,436,image-keyboard-response,23
true,6,2,1,2,true,d,false,true,0.0-2.0-0.13-0.120-3.120,0,0,1,68,false,stim,false,2,856,2,1,2,12080,task3,378861,false,false,439,image-keyboard-response,24
true,6,0,1,0,true,q,false,true,0.0-2.0-0.13-0.121-3.121,0,0,1,81,false,stim,false,1,399,2,0,1,12080,task3,380775,false,false,442,image-keyboard-response,25
true,7,2,2,2,true,d,false,true,0.0-2.0-0.13-0.122-3.122,1,0,1,68,true,stim,false,2,423,2,1,2,12080,task3,382718,false,false,445,image-keyboard-response,1
true,7,0,2,2,false,d,true,false,0.0-2.0-0.13-0.123-3.123,1,0,1,81,false,stim,false,2,509,2,1,0,12080,task3,384747,false,false,448,image-keyboard-response,2
true,7,2,2,2,true,d,false,true,0.0-2.0-0.13-0.124-3.124,1,0,1,68,false,stim,false,2,855,2,1,2,12080,task3,387123,false,false,451,image-keyboard-response,3
true,7,0,2,1,false,z,false,false,0.0-2.0-0.13-0.125-3.125,1,0,1,81,false,stim,true,0,397,2,0,1,12080,task3,389052,false,false,454,image-keyboard-response,4
true,7,0,2,1,false,z,false,false,0.0-2.0-0.14-0.126-3.126,1,0,1,81,false,stim,true,0,357,2,0,1,12080,task3,390925,false,false,457,image-keyboard-response,5
true,7,2,2,2,true,d,false,true,0.0-2.0-0.14-0.127-3.127,1,0,1,68,false,stim,false,2,456,2,1,2,12080,task3,392908,false,false,460,image-keyboard-response,6
true,7,2,2,2,true,d,false,true,0.0-2.0-0.14-0.128-3.128,1,0,1,68,false,stim,false,2,399,2,1,0,12080,task3,394827,false,false,463,image-keyboard-response,7
true,7,2,2,2,true,d,false,true,0.0-2.0-0.14-0.129-3.129,1,0,1,68,false,stim,false,2,380,2,1,0,12080,task3,396723,false,false,466,image-keyboard-response,8
true,7,2,2,2,true,d,false,true,0.0-2.0-0.14-0.130-3.130,1,0,1,68,false,stim,false,2,654,2,1,2,12080,task3,398896,false,false,469,image-keyboard-response,9
true,7,0,2,1,false,z,false,false,0.0-2.0-0.14-0.131-3.131,1,0,1,81,false,stim,true,0,401,2,0,1,12080,task3,400823,false,false,472,image-keyboard-response,10
true,7,2,2,2,true,d,false,true,0.0-2.0-0.14-0.132-3.132,1,0,1,68,false,stim,false,2,513,2,1,2,12080,task3,402863,false,false,475,image-keyboard-response,11
true,7,2,2,2,true,d,false,true,0.0-2.0-0.14-0.133-3.133,1,0,1,68,false,stim,false,2,453,2,1,0,12080,task3,404831,false,false,478,image-keyboard-response,12
true,7,1,2,1,true,z,false,true,0.0-2.0-0.14-0.134-3.134,1,0,1,90,false,stim,false,0,425,2,0,1,12080,task3,406784,false,false,481,image-keyboard-response,13
true,7,2,2,2,true,d,false,true,0.0-2.0-0.15-0.135-3.135,1,0,1,68,false,stim,false,2,521,2,1,2,12080,task3,408828,false,false,484,image-keyboard-response,14
true,7,2,2,2,true,d,false,true,0.0-2.0-0.15-0.136-3.136,1,0,1,68,false,stim,false,2,566,2,1,0,12080,task3,410901,false,false,487,image-keyboard-response,15
true,7,2,2,2,true,d,false,false,0.0-2.0-0.15-0.137-3.137,1,0,1,68,false,stim,false,2,573,2,1,0,12080,task3,412997,false,true,490,image-keyboard-response,16
true,7,2,2,2,true,d,false,true,0.0-2.0-0.15-0.138-3.138,1,0,1,68,false,stim,false,2,633,2,1,2,12080,task3,415159,false,false,493,image-keyboard-response,17
true,7,2,2,2,true,d,false,true,0.0-2.0-0.15-0.139-3.139,1,0,1,68,false,stim,false,2,703,2,1,2,12080,task3,417373,false,false,496,image-keyboard-response,18
true,7,1,2,1,true,z,false,true,0.0-2.0-0.15-0.140-3.140,1,0,1,90,false,stim,false,0,379,2,0,1,12080,task3,419271,false,false,499,image-keyboard-response,19
true,7,2,2,2,true,d,false,false,0.0-2.0-0.15-0.141-3.141,1,0,1,68,false,stim,false,2,490,2,1,0,12080,task3,421290,false,true,502,image-keyboard-response,20
true,7,1,2,1,true,z,false,true,0.0-2.0-0.15-0.142-3.142,1,0,1,90,false,stim,false,0,939,2,0,1,12080,task3,423751,false,false,505,image-keyboard-response,21
true,7,1,2,1,true,z,false,true,0.0-2.0-0.15-0.143-3.143,1,0,1,90,false,stim,false,0,497,2,0,1,12080,task3,425771,false,false,508,image-keyboard-response,22
true,7,1,2,1,true,z,false,true,0.0-2.0-0.16-0.144-3.144,1,0,1,90,false,stim,false,0,452,2,0,1,12080,task3,427747,false,false,511,image-keyboard-response,23
true,7,2,2,2,true,d,false,true,0.0-2.0-0.16-0.145-3.145,1,0,1,68,false,stim,false,2,629,2,1,2,12080,task3,429901,false,false,514,image-keyboard-response,24
true,7,1,2,2,false,d,true,false,0.0-2.0-0.16-0.146-3.146,1,0,1,90,false,stim,false,2,539,2,0,0,12080,task3,431961,false,false,517,image-keyboard-response,25
true,7,2,2,2,true,d,false,false,0.0-2.0-0.16-0.147-3.147,1,0,1,68,false,stim,false,2,776,2,1,2,12080,task3,434255,false,true,520,image-keyboard-response,26
true,7,1,2,1,true,z,false,true,0.0-2.0-0.16-0.148-3.148,1,0,1,90,false,stim,false,0,511,2,0,1,12080,task3,436295,false,false,523,image-keyboard-response,27
true,7,0,2,2,false,d,true,true,0.0-2.0-0.16-0.149-3.149,1,0,1,81,false,stim,false,2,767,2,0,0,12080,task3,438587,false,true,526,image-keyboard-response,28
true,8,0,1,0,true,q,false,true,0.0-2.0-0.16-0.150-3.150,0,0,1,81,true,stim,false,2,486,2,0,0,12080,task3,440596,false,false,529,image-keyboard-response,1
true,8,0,1,2,false,d,true,false,0.0-2.0-0.16-0.151-3.151,0,0,1,81,false,stim,false,2,1000,2,1,2,12080,task3,443122,false,false,532,image-keyboard-response,2
true,8,1,1,2,false,d,false,false,0.0-2.0-0.16-0.152-3.152,0,0,1,90,false,stim,true,1,385,2,0,1,12080,task3,445025,false,false,535,image-keyboard-response,3
true,8,1,1,2,false,d,false,false,0.0-2.0-0.17-0.153-3.153,0,0,1,90,false,stim,true,1,689,2,0,1,12080,task3,447232,false,false,538,image-keyboard-response,4
true,8,1,1,2,false,d,true,false,0.0-2.0-0.17-0.154-3.154,0,0,1,90,false,stim,false,2,968,2,1,2,12080,task3,449723,false,false,541,image-keyboard-response,5
true,8,0,1,0,true,q,false,true,0.0-2.0-0.17-0.155-3.155,0,0,1,81,false,stim,false,2,534,2,0,0,12080,task3,451781,false,false,544,image-keyboard-response,6
true,8,0,1,0,true,q,false,true,0.0-2.0-0.17-0.156-3.156,0,0,1,81,false,stim,false,2,600,2,0,0,12080,task3,453906,false,false,547,image-keyboard-response,7
true,8,0,1,2,false,d,true,false,0.0-2.0-0.17-0.157-3.157,0,0,1,81,false,stim,false,2,497,2,1,2,12080,task3,455922,false,false,550,image-keyboard-response,8
true,8,2,1,2,true,d,false,true,0.0-2.0-0.17-0.158-3.158,0,0,1,68,false,stim,false,2,638,2,1,2,12080,task3,458085,false,false,553,image-keyboard-response,9
true,8,2,1,2,true,d,false,true,0.0-2.0-0.17-0.159-3.159,0,0,1,68,false,stim,false,1,501,2,1,1,12080,task3,460100,false,false,556,image-keyboard-response,10
true,8,0,1,0,true,q,false,true,0.0-2.0-0.17-0.160-3.160,0,0,1,81,false,stim,false,2,334,2,1,0,12080,task3,461943,false,false,559,image-keyboard-response,11
true,8,2,1,2,true,d,false,true,0.0-2.0-0.17-0.161-3.161,0,0,1,68,false,stim,false,1,403,2,1,1,12080,task3,463868,false,false,562,image-keyboard-response,12
true,8,2,1,2,true,d,false,true,0.0-2.0-0.18-0.162-3.162,0,0,1,68,false,stim,false,1,442,2,1,1,12080,task3,465826,false,false,565,image-keyboard-response,13
true,8,0,1,0,true,q,false,true,0.0-2.0-0.18-0.163-3.163,0,0,1,81,false,stim,false,2,411,2,1,0,12080,task3,467761,false,false,568,image-keyboard-response,14
true,9,2,2,0,false,q,false,true,0.0-2.0-0.18-0.164-3.164,1,1,0,68,true,stim,true,2,565,2,0,2,12080,task3,469849,false,true,571,image-keyboard-response,1
true,9,2,2,2,true,d,false,true,0.0-2.0-0.18-0.165-3.165,1,1,0,68,false,stim,false,2,698,2,1,1,12080,task3,472069,false,false,574,image-keyboard-response,2
true,9,2,2,0,false,q,false,false,0.0-2.0-0.18-0.166-3.166,1,1,0,68,false,stim,true,2,482,2,0,2,12080,task3,474071,false,false,577,image-keyboard-response,3
true,9,0,2,0,true,q,false,true,0.0-2.0-0.18-0.167-3.167,1,1,0,81,false,stim,false,0,567,2,1,0,12080,task3,476166,false,false,580,image-keyboard-response,4
true,9,2,2,2,true,d,false,true,0.0-2.0-0.18-0.168-3.168,1,1,0,68,false,stim,false,2,581,2,1,1,12080,task3,478254,false,false,583,image-keyboard-response,5
true,9,0,2,0,true,q,false,true,0.0-2.0-0.18-0.169-3.169,1,1,0,81,false,stim,false,0,574,2,1,0,12080,task3,480353,false,false,586,image-keyboard-response,6
true,9,2,2,0,false,q,false,false,0.0-2.0-0.18-0.170-3.170,1,1,0,68,false,stim,true,2,581,2,0,2,12080,task3,482459,false,false,589,image-keyboard-response,7
true,9,0,2,0,true,q,false,true,0.0-2.0-0.19-0.171-3.171,1,1,0,81,false,stim,false,0,709,2,1,0,12080,task3,484685,false,false,592,image-keyboard-response,8
true,9,2,2,2,true,d,false,true,0.0-2.0-0.19-0.172-3.172,1,1,0,68,false,stim,false,2,447,2,0,1,12080,task3,486651,false,false,595,image-keyboard-response,9
true,9,2,2,0,false,q,false,false,0.0-2.0-0.19-0.173-3.173,1,1,0,68,false,stim,true,2,493,2,1,2,12080,task3,488670,false,false,598,image-keyboard-response,10
true,9,0,2,0,true,q,false,false,0.0-2.0-0.19-0.174-3.174,1,1,0,81,false,stim,false,0,453,2,1,0,12080,task3,490635,false,true,601,image-keyboard-response,11
true,9,1,2,0,false,q,true,true,0.0-2.0-0.19-0.175-3.175,1,1,0,90,false,stim,false,2,897,2,1,2,12080,task3,493050,false,true,604,image-keyboard-response,12
true,9,1,2,0,false,q,true,false,0.0-2.0-0.19-0.176-3.176,1,1,0,90,false,stim,false,2,615,2,1,2,12080,task3,495184,false,false,607,image-keyboard-response,13
true,10,2,2,1,false,z,false,false,0.0-2.0-0.19-0.177-3.177,1,0,1,68,true,stim,true,2,504,2,0,1,12080,task3,497208,false,false,610,image-keyboard-response,1
true,10,1,2,1,true,z,false,true,0.0-2.0-0.19-0.178-3.178,1,0,1,90,false,stim,false,2,647,2,0,1,12080,task3,499377,false,false,613,image-keyboard-response,2
true,10,0,2,0,true,q,false,true,0.0-2.0-0.19-0.179-3.179,1,0,1,81,false,stim,false,0,847,2,1,0,12080,task3,501755,false,false,616,image-keyboard-response,3
true,10,1,2,0,false,q,true,false,0.0-2.0-0.20-0.180-3.180,1,0,1,90,false,stim,false,0,935,2,1,2,12080,task3,504214,false,false,619,image-keyboard-response,4
true,10,0,2,0,true,q,false,true,0.0-2.0-0.20-0.181-3.181,1,0,1,81,false,stim,false,0,677,2,1,0,12080,task3,506422,false,false,622,image-keyboard-response,5
true,10,0,2,0,true,q,false,true,0.0-2.0-0.20-0.182-3.182,1,0,1,81,false,stim,false,0,497,2,1,0,12080,task3,508445,false,false,625,image-keyboard-response,6
true,10,0,2,0,true,q,false,true,0.0-2.0-0.20-0.183-3.183,1,0,1,81,false,stim,false,0,478,2,1,0,12080,task3,510451,false,false,628,image-keyboard-response,7
true,10,1,2,1,true,z,false,true,0.0-2.0-0.20-0.184-3.184,1,0,1,90,false,stim,false,2,456,2,0,1,12080,task3,512426,false,false,631,image-keyboard-response,8
true,10,1,2,0,false,q,true,false,0.0-2.0-0.20-0.185-3.185,1,0,1,90,false,stim,false,0,491,2,1,2,12080,task3,514443,false,false,634,image-keyboard-response,9
true,10,0,2,0,true,q,false,true,0.0-2.0-0.20-0.186-3.186,1,0,1,81,false,stim,false,0,823,2,1,2,12080,task3,516786,false,false,637,image-keyboard-response,10
true,10,1,2,1,true,z,false,true,0.0-2.0-0.20-0.187-3.187,1,0,1,90,false,stim,false,2,428,2,1,1,12080,task3,518731,false,false,640,image-keyboard-response,11
true,10,1,2,1,true,z,false,true,0.0-2.0-0.20-0.188-3.188,1,0,1,90,false,stim,false,2,400,2,1,1,12080,task3,520655,false,false,643,image-keyboard-response,12
true,10,0,2,0,true,q,false,true,0.0-2.0-0.21-0.189-3.189,1,0,1,81,false,stim,false,0,512,2,1,0,12080,task3,522698,false,false,646,image-keyboard-response,13
true,10,0,2,0,true,q,false,true,0.0-2.0-0.21-0.190-3.190,1,0,1,81,false,stim,false,0,890,2,0,2,12080,task3,525102,false,false,649,image-keyboard-response,14
true,10,1,2,1,true,z,false,false,0.0-2.0-0.21-0.191-3.191,1,0,1,90,false,stim,false,2,444,2,1,1,12080,task3,527074,false,true,652,image-keyboard-response,15
true,11,0,2,0,true,q,false,true,0.0-2.0-0.21-0.192-3.192,1,1,0,81,true,stim,false,0,642,2,1,0,12080,task3,529237,false,false,655,image-keyboard-response,1
true,11,1,2,1,true,z,false,true,0.0-2.0-0.21-0.193-3.193,1,1,0,90,false,stim,false,0,745,2,0,2,12080,task3,531503,false,false,658,image-keyboard-response,2
true,11,1,2,1,true,z,false,true,0.0-2.0-0.21-0.194-3.194,1,1,0,90,false,stim,false,1,916,2,1,1,12080,task3,533949,false,false,661,image-keyboard-response,3
true,11,1,2,1,true,z,false,true,0.0-2.0-0.21-0.195-3.195,1,1,0,90,false,stim,false,1,771,2,1,1,12080,task3,536244,false,false,664,image-keyboard-response,4
true,11,0,2,0,true,q,false,false,0.0-2.0-0.21-0.196-3.196,1,1,0,81,false,stim,false,0,899,2,1,0,12080,task3,538661,false,true,667,image-keyboard-response,5
true,11,0,2,1,false,z,false,false,0.0-2.0-0.21-0.197-3.197,1,1,0,81,false,stim,true,0,2209,2,0,2,12080,task3,542400,false,false,670,image-keyboard-response,6
true,11,1,2,0,false,q,true,false,0.0-2.0-0.22-0.198-3.198,1,1,0,90,false,stim,false,0,1244,2,1,0,12080,task3,545169,false,false,673,image-keyboard-response,7
true,11,1,2,1,true,z,false,true,0.0-2.0-0.22-0.199-3.199,1,1,0,90,false,stim,false,1,446,2,1,1,12080,task3,547138,false,false,676,image-keyboard-response,8
true,11,1,2,1,true,z,false,true,0.0-2.0-0.22-0.200-3.200,1,1,0,90,false,stim,false,1,580,2,1,1,12080,task3,549233,false,false,679,image-keyboard-response,9
true,11,2,2,0,false,q,true,false,0.0-2.0-0.22-0.201-3.201,1,1,0,68,false,stim,false,0,646,2,1,0,12080,task3,551404,false,false,682,image-keyboard-response,10
true,11,2,2,0,false,q,true,false,0.0-2.0-0.22-0.202-3.202,1,1,0,68,false,stim,false,0,455,2,0,0,12080,task3,553379,false,false,685,image-keyboard-response,11
true,11,2,2,1,false,z,true,true,0.0-2.0-0.22-0.203-3.203,1,1,0,68,false,stim,false,0,827,2,1,2,12080,task3,555730,false,true,688,image-keyboard-response,12
true,11,2,2,1,false,z,true,false,0.0-2.0-0.22-0.204-3.204,1,1,0,68,false,stim,false,0,938,2,1,2,12080,task3,558194,false,false,691,image-keyboard-response,13
true,11,1,2,1,true,z,false,true,0.0-2.0-0.22-0.205-3.205,1,1,0,90,false,stim,false,1,821,2,1,1,12080,task3,560539,false,false,694,image-keyboard-response,14
true,11,2,2,1,false,z,true,false,0.0-2.0-0.22-0.206-3.206,1,1,0,68,false,stim,false,0,442,2,1,2,12080,task3,562502,false,false,697,image-keyboard-response,15
true,12,2,2,1,false,z,true,false,0.0-2.0-0.23-0.207-3.207,0,1,1,68,true,stim,false,1,445,2,1,2,12080,task3,564467,false,false,700,image-keyboard-response,1
true,12,2,2,2,true,d,false,true,0.0-2.0-0.23-0.208-3.208,0,1,1,68,false,stim,false,0,1151,2,0,0,12080,task3,567142,false,false,703,image-keyboard-response,2
true,12,2,2,2,true,d,false,true,0.0-2.0-0.23-0.209-3.209,0,1,1,68,false,stim,false,0,539,2,0,0,12080,task3,569205,false,false,706,image-keyboard-response,3
true,12,1,2,1,true,z,false,true,0.0-2.0-0.23-0.210-3.210,0,1,1,90,false,stim,false,1,809,2,1,1,12080,task3,571536,false,false,709,image-keyboard-response,4
true,12,1,2,1,true,z,false,true,0.0-2.0-0.23-0.211-3.211,0,1,1,90,false,stim,false,1,888,2,1,1,12080,task3,573932,false,false,712,image-keyboard-response,5
true,12,1,2,1,true,z,false,true,0.0-2.0-0.23-0.212-3.212,0,1,1,90,false,stim,false,1,455,2,1,1,12080,task3,575905,false,false,715,image-keyboard-response,6
true,12,2,2,2,true,d,false,true,0.0-2.0-0.23-0.213-3.213,0,1,1,68,false,stim,false,0,1636,2,0,0,12080,task3,579064,false,false,718,image-keyboard-response,7
true,12,0,2,1,false,z,true,false,0.0-2.0-0.23-0.214-3.214,0,1,1,81,false,stim,false,1,1105,2,1,2,12080,task3,581687,false,false,721,image-keyboard-response,8
true,12,2,2,1,false,z,true,false,0.0-2.0-0.23-0.215-3.215,0,1,1,68,false,stim,false,1,645,2,1,2,12080,task3,583861,false,false,724,image-keyboard-response,9
true,12,2,2,2,true,d,false,true,0.0-2.0-0.24-0.216-3.216,0,1,1,68,false,stim,false,0,1063,2,0,0,12080,task3,586443,false,false,727,image-keyboard-response,10
true,12,1,2,1,true,z,false,true,0.0-2.0-0.24-0.217-3.217,0,1,1,90,false,stim,false,1,716,2,0,1,12080,task3,588686,false,false,730,image-keyboard-response,11
true,12,1,2,1,true,z,false,true,0.0-2.0-0.24-0.218-3.218,0,1,1,90,false,stim,false,1,416,2,0,2,12080,task3,590620,false,false,733,image-keyboard-response,12
true,12,1,2,1,true,z,false,true,0.0-2.0-0.24-0.219-3.219,0,1,1,90,false,stim,false,1,809,2,0,2,12080,task3,592944,false,false,736,image-keyboard-response,13
true,12,1,2,1,true,z,false,true,0.0-2.0-0.24-0.220-3.220,0,1,1,90,false,stim,false,1,397,2,0,1,12080,task3,594868,false,false,739,image-keyboard-response,14
true,12,1,2,1,true,z,false,true,0.0-2.0-0.24-0.221-3.221,0,1,1,90,false,stim,false,1,504,2,0,2,12080,task3,596901,false,false,742,image-keyboard-response,15
true,13,2,1,2,true,d,false,true,0.0-2.0-0.24-0.222-3.222,1,0,0,68,true,stim,false,2,463,2,1,0,12080,task3,598892,false,false,745,image-keyboard-response,1
true,13,2,1,2,true,d,false,true,0.0-2.0-0.24-0.223-3.223,1,0,0,68,false,stim,false,2,380,2,1,0,12080,task3,600802,false,false,748,image-keyboard-response,2
true,13,1,1,0,false,q,false,false,0.0-2.0-0.24-0.224-3.224,1,0,0,90,false,stim,true,1,397,2,0,1,12080,task3,602711,false,false,751,image-keyboard-response,3
true,13,1,1,0,false,q,false,false,0.0-2.0-0.25-0.225-3.225,1,0,0,90,false,stim,true,1,382,2,0,1,12080,task3,604602,false,false,754,image-keyboard-response,4
true,13,1,1,0,false,q,false,false,0.0-2.0-0.25-0.226-3.226,1,0,0,90,false,stim,true,1,1265,2,0,2,12080,task3,607385,false,false,757,image-keyboard-response,5
true,13,1,1,0,false,q,false,false,0.0-2.0-0.25-0.227-3.227,1,0,0,90,false,stim,true,1,504,2,0,2,12080,task3,609413,false,false,760,image-keyboard-response,6
true,13,2,1,2,true,d,false,true,0.0-2.0-0.25-0.228-3.228,1,0,0,68,false,stim,false,2,383,2,1,0,12080,task3,611309,false,false,763,image-keyboard-response,7
true,13,2,1,2,true,d,false,true,0.0-2.0-0.25-0.229-3.229,1,0,0,68,false,stim,false,2,417,2,1,0,12080,task3,613244,false,false,766,image-keyboard-response,8
true,13,0,1,0,true,q,false,true,0.0-2.0-0.25-0.230-3.230,1,0,0,81,false,stim,false,1,557,2,0,1,12080,task3,615330,false,false,769,image-keyboard-response,9
true,13,0,1,0,true,q,false,true,0.0-2.0-0.25-0.231-3.231,1,0,0,81,false,stim,false,1,422,2,0,1,12080,task3,617273,false,false,772,image-keyboard-response,10
true,13,0,1,0,true,q,false,true,0.0-2.0-0.25-0.232-3.232,1,0,0,81,false,stim,false,1,616,2,0,2,12080,task3,619406,false,false,775,image-keyboard-response,11
true,13,2,1,2,true,d,false,true,0.0-2.0-0.25-0.233-3.233,1,0,0,68,false,stim,false,2,723,2,1,0,12080,task3,621659,false,false,778,image-keyboard-response,12
true,13,0,1,0,true,q,false,true,0.0-2.0-0.26-0.234-3.234,1,0,0,81,false,stim,false,1,268,2,0,1,12080,task3,623455,false,false,781,image-keyboard-response,13
true,13,2,1,2,true,d,false,false,0.0-2.0-0.26-0.235-3.235,1,0,0,68,false,stim,false,2,387,2,1,0,12080,task3,625372,false,true,784,image-keyboard-response,14
true,13,2,1,2,true,d,false,true,0.0-2.0-0.26-0.236-3.236,1,0,0,68,false,stim,false,2,349,2,1,0,12080,task3,627250,false,false,787,image-keyboard-response,15
true,13,0,1,0,true,q,false,true,0.0-2.0-0.26-0.237-3.237,1,0,0,81,false,stim,false,1,986,2,0,2,12080,task3,629762,false,false,790,image-keyboard-response,16
true,13,0,1,0,true,q,false,true,0.0-2.0-0.26-0.238-3.238,1,0,0,81,false,stim,false,1,339,2,0,2,12080,task3,631617,false,false,793,image-keyboard-response,17
true,13,2,1,2,true,d,false,true,0.0-2.0-0.26-0.239-3.239,1,0,0,68,false,stim,false,2,630,2,1,0,12080,task3,633774,false,false,796,image-keyboard-response,18
true,13,0,1,0,true,q,false,true,0.0-2.0-0.26-0.240-3.240,1,0,0,81,false,stim,false,1,521,2,0,1,12080,task3,635822,false,false,799,image-keyboard-response,19
true,13,0,1,0,true,q,false,true,0.0-2.0-0.26-0.241-3.241,1,0,0,81,false,stim,false,1,616,2,0,1,12080,task3,637973,false,false,802,image-keyboard-response,20
true,13,0,1,0,true,q,false,true,0.0-2.0-0.26-0.242-3.242,1,0,0,81,false,stim,false,1,538,2,0,2,12080,task3,640041,false,false,805,image-keyboard-response,21
true,13,0,1,0,true,q,false,true,0.0-2.0-0.27-0.243-3.243,1,0,0,81,false,stim,false,1,861,2,0,2,12080,task3,642427,false,false,808,image-keyboard-response,22
true,13,0,1,0,true,q,false,true,0.0-2.0-0.27-0.244-3.244,1,0,0,81,false,stim,false,1,533,2,1,1,12080,task3,644483,false,false,811,image-keyboard-response,23
true,13,2,1,2,true,d,false,true,0.0-2.0-0.27-0.245-3.245,1,0,0,68,false,stim,false,2,729,2,1,0,12080,task3,646734,false,false,814,image-keyboard-response,24
true,13,0,1,0,true,q,false,false,0.0-2.0-0.27-0.246-3.246,1,0,0,81,false,stim,false,1,468,2,0,2,12080,task3,648720,false,true,817,image-keyboard-response,25
true,14,0,2,1,false,z,false,false,0.0-2.0-0.27-0.247-3.247,1,1,0,81,true,stim,true,0,733,2,0,2,12080,task3,650981,false,false,820,image-keyboard-response,1
true,14,2,2,2,true,d,false,true,0.0-2.0-0.27-0.248-3.248,1,1,0,68,false,stim,false,2,457,2,1,0,12080,task3,652965,false,false,823,image-keyboard-response,2
true,14,2,2,2,true,d,false,true,0.0-2.0-0.27-0.249-3.249,1,1,0,68,false,stim,false,2,485,2,1,0,12080,task3,654971,false,false,826,image-keyboard-response,3
true,14,0,2,0,true,q,false,true,0.0-2.0-0.27-0.250-3.250,1,1,0,81,false,stim,false,0,584,2,1,1,12080,task3,657082,false,false,829,image-keyboard-response,4
true,14,0,2,0,true,q,false,true,0.0-2.0-0.27-0.251-3.251,1,1,0,81,false,stim,false,0,415,2,1,1,12080,task3,659012,false,false,832,image-keyboard-response,5
true,14,0,2,0,true,q,false,true,0.0-2.0-0.28-0.252-3.252,1,1,0,81,false,stim,false,0,373,2,1,1,12080,task3,660903,false,false,835,image-keyboard-response,6
true,14,2,2,2,true,d,false,true,0.0-2.0-0.28-0.253-3.253,1,1,0,68,false,stim,false,2,359,2,1,0,12080,task3,662773,false,false,838,image-keyboard-response,7
true,14,0,2,1,false,z,false,false,0.0-2.0-0.28-0.254-3.254,1,1,0,81,false,stim,true,0,837,2,0,2,12080,task3,665140,false,false,841,image-keyboard-response,8
true,14,2,2,2,true,d,false,true,0.0-2.0-0.28-0.255-3.255,1,1,0,68,false,stim,false,2,585,2,1,0,12080,task3,667249,false,false,844,image-keyboard-response,9
true,14,2,2,2,true,d,false,true,0.0-2.0-0.28-0.256-3.256,1,1,0,68,false,stim,false,2,442,2,1,0,12080,task3,669221,false,false,847,image-keyboard-response,10
true,14,0,2,1,false,z,false,true,0.0-2.0-0.28-0.257-3.257,1,1,0,81,false,stim,true,0,456,2,0,2,12080,task3,671204,false,true,850,image-keyboard-response,11
true,14,0,2,0,true,q,false,true,0.0-2.0-0.28-0.258-3.258,1,1,0,81,false,stim,false,0,613,2,1,1,12080,task3,673334,false,false,853,image-keyboard-response,12
true,14,0,2,0,true,q,false,false,0.0-2.0-0.28-0.259-3.259,1,1,0,81,false,stim,false,0,444,2,1,1,12080,task3,675301,false,true,856,image-keyboard-response,13
true,14,0,2,1,false,z,false,false,0.0-2.0-0.28-0.260-3.260,1,1,0,81,false,stim,true,0,650,2,0,2,12080,task3,677457,false,false,859,image-keyboard-response,14
true,14,0,2,0,true,q,false,true,0.0-2.0-0.29-0.261-3.261,1,1,0,81,false,stim,false,0,422,2,1,1,12080,task3,679393,false,false,862,image-keyboard-response,15
true,14,0,2,1,false,z,false,true,0.0-2.0-0.29-0.262-3.262,1,1,0,81,false,stim,true,0,460,2,0,2,12080,task3,681382,false,true,865,image-keyboard-response,16
true,14,0,2,0,true,q,false,true,0.0-2.0-0.29-0.263-3.263,1,1,0,81,false,stim,false,0,441,2,1,1,12080,task3,683356,false,false,868,image-keyboard-response,17
true,14,2,2,2,true,d,false,true,0.0-2.0-0.29-0.264-3.264,1,1,0,68,false,stim,false,2,526,2,1,0,12080,task3,685394,false,false,871,image-keyboard-response,18
true,14,2,2,2,true,d,false,true,0.0-2.0-0.29-0.265-3.265,1,1,0,68,false,stim,false,2,405,2,1,0,12080,task3,687332,false,false,874,image-keyboard-response,19
true,14,0,2,1,false,z,false,true,0.0-2.0-0.29-0.266-3.266,1,1,0,81,false,stim,true,0,581,2,0,2,12080,task3,689441,false,true,877,image-keyboard-response,20
true,14,0,2,0,true,q,false,true,0.0-2.0-0.29-0.267-3.267,1,1,0,81,false,stim,false,0,530,2,0,1,12080,task3,691493,false,false,880,image-keyboard-response,21
true,14,2,2,2,true,d,false,true,0.0-2.0-0.29-0.268-3.268,1,1,0,68,false,stim,false,2,508,2,1,0,12080,task3,693529,false,false,883,image-keyboard-response,22
true,14,0,2,1,false,z,false,false,0.0-2.0-0.29-0.269-3.269,1,1,0,81,false,stim,true,0,634,2,0,2,12080,task3,695679,false,false,886,image-keyboard-response,23
true,14,0,2,1,false,z,false,false,0.0-2.0-0.30-0.270-3.270,1,1,0,81,false,stim,true,0,751,2,0,2,12080,task3,697961,false,false,889,image-keyboard-response,24
true,15,0,1,1,false,z,false,false,0.0-2.0-0.30-0.271-3.271,1,0,0,81,true,stim,true,0,680,2,0,1,12080,task3,700161,false,false,892,image-keyboard-response,1
true,15,0,1,0,true,q,false,true,0.0-2.0-0.30-0.272-3.272,1,0,0,81,false,stim,false,1,1154,2,0,2,12080,task3,702834,false,false,895,image-keyboard-response,2
true,15,2,1,2,true,d,false,true,0.0-2.0-0.30-0.273-3.273,1,0,0,68,false,stim,false,2,527,2,1,0,12080,task3,704881,false,false,898,image-keyboard-response,3
true,15,0,1,0,true,q,false,true,0.0-2.0-0.30-0.274-3.274,1,0,0,81,false,stim,false,1,567,2,0,2,12080,task3,706983,false,false,901,image-keyboard-response,4
true,15,2,1,2,true,d,false,false,0.0-2.0-0.30-0.275-3.275,1,0,0,68,false,stim,false,2,544,2,1,0,12080,task3,709045,false,true,904,image-keyboard-response,5
true,15,0,1,1,false,z,false,true,0.0-2.0-0.30-0.276-3.276,1,0,0,81,false,stim,true,0,653,2,0,1,12080,task3,711221,false,true,907,image-keyboard-response,6
true,15,0,1,1,false,z,false,false,0.0-2.0-0.30-0.277-3.277,1,0,0,81,false,stim,true,0,547,2,0,1,12080,task3,713301,false,false,910,image-keyboard-response,7
true,15,2,1,2,true,d,false,true,0.0-2.0-0.30-0.278-3.278,1,0,0,68,false,stim,false,2,585,2,1,0,12080,task3,715409,false,false,913,image-keyboard-response,8
true,15,0,1,1,false,z,false,false,0.0-2.0-0.31-0.279-3.279,1,0,0,81,false,stim,true,0,518,2,0,1,12080,task3,717459,false,false,916,image-keyboard-response,9
true,15,0,1,1,false,z,false,false,0.0-2.0-0.31-0.280-3.280,1,0,0,81,false,stim,true,0,384,2,0,1,12080,task3,719357,false,false,919,image-keyboard-response,10
true,15,0,1,0,true,q,false,false,0.0-2.0-0.31-0.281-3.281,1,0,0,81,false,stim,false,1,728,2,0,2,12080,task3,721605,false,true,922,image-keyboard-response,11
true,15,2,1,2,true,d,false,true,0.0-2.0-0.31-0.282-3.282,1,0,0,68,false,stim,false,2,554,2,1,0,12080,task3,723674,false,false,925,image-keyboard-response,12
true,15,2,1,2,true,d,false,false,0.0-2.0-0.31-0.283-3.283,1,0,0,68,false,stim,false,2,377,2,1,0,12080,task3,725573,false,true,928,image-keyboard-response,13
true,15,2,1,2,true,d,false,true,0.0-2.0-0.31-0.284-3.284,1,0,0,68,false,stim,false,2,1682,2,1,0,12080,task3,728772,false,false,931,image-keyboard-response,14
true,15,2,1,0,false,q,true,false,0.0-2.0-0.31-0.285-3.285,1,0,0,68,false,stim,false,1,759,2,0,2,12080,task3,731054,false,false,934,image-keyboard-response,15
true,15,1,1,0,false,q,false,false,0.0-2.0-0.31-0.286-3.286,1,0,0,90,false,stim,true,1,467,2,0,2,12080,task3,733051,false,false,937,image-keyboard-response,16
true,15,1,1,1,true,z,false,true,0.0-2.0-0.31-0.287-3.287,1,0,0,90,false,stim,false,0,734,2,0,1,12080,task3,735305,false,false,940,image-keyboard-response,17
true,15,1,1,1,true,z,false,true,0.0-2.0-0.32-0.288-3.288,1,0,0,90,false,stim,false,0,439,2,0,1,12080,task3,737271,false,false,943,image-keyboard-response,18
true,15,2,1,2,true,d,false,true,0.0-2.0-0.32-0.289-3.289,1,0,0,68,false,stim,false,2,430,2,1,0,12080,task3,739224,false,false,946,image-keyboard-response,19
true,15,2,1,2,true,d,false,true,0.0-2.0-0.32-0.290-3.290,1,0,0,68,false,stim,false,2,1058,2,1,0,12080,task3,741809,false,false,949,image-keyboard-response,20
true,15,1,1,0,false,q,false,false,0.0-2.0-0.32-0.291-3.291,1,0,0,90,false,stim,true,1,634,2,0,2,12080,task3,743973,false,false,952,image-keyboard-response,21
true,15,2,1,0,false,q,true,false,0.0-2.0-0.32-0.292-3.292,1,0,0,68,false,stim,false,1,665,2,0,2,12080,task3,746154,false,false,955,image-keyboard-response,22
true,15,1,1,1,true,z,false,true,0.0-2.0-0.32-0.293-3.293,1,0,0,90,false,stim,false,0,882,2,1,1,12080,task3,748566,false,false,958,image-keyboard-response,23
true,15,1,1,1,true,z,false,true,0.0-2.0-0.32-0.294-3.294,1,0,0,90,false,stim,false,0,612,2,1,1,12080,task3,750694,false,false,961,image-keyboard-response,24
true,15,2,1,2,true,d,false,true,0.0-2.0-0.32-0.295-3.295,1,0,0,68,false,stim,false,2,605,2,0,0,12080,task3,752820,false,false,964,image-keyboard-response,25
true,15,0,1,0,true,q,false,true,0.0-2.0-0.32-0.296-3.296,1,0,0,81,false,stim,false,1,556,2,0,2,12080,task3,754902,false,false,967,image-keyboard-response,26
true,15,2,1,2,true,d,false,true,0.0-2.0-0.33-0.297-3.297,1,0,0,68,false,stim,false,2,633,2,0,0,12080,task3,757061,false,false,970,image-keyboard-response,27
true,16,2,1,0,false,q,false,true,0.0-2.0-0.33-0.298-3.298,0,1,0,68,true,stim,true,2,901,2,0,0,12080,task3,759479,false,true,973,image-keyboard-response,1
true,16,2,1,0,false,q,false,true,0.0-2.0-0.33-0.299-3.299,0,1,0,68,false,stim,true,2,676,2,0,0,12080,task3,761670,false,true,976,image-keyboard-response,2
true,16,1,1,1,true,z,false,false,0.0-2.0-0.33-0.300-3.300,0,1,0,90,false,stim,false,1,649,2,1,1,12080,task3,763841,false,true,979,image-keyboard-response,3
true,16,1,1,1,true,z,false,true,0.0-2.0-0.33-0.301-3.301,0,1,0,90,false,stim,false,1,556,2,1,1,12080,task3,765905,false,false,982,image-keyboard-response,4
true,16,0,1,2,false,d,false,false,0.0-2.0-0.33-0.302-3.302,0,1,0,81,false,stim,true,0,468,2,0,2,12080,task3,767902,false,false,985,image-keyboard-response,5
true,16,1,1,1,true,z,false,true,0.0-2.0-0.33-0.303-3.303,0,1,0,90,false,stim,false,1,803,2,1,1,12080,task3,770223,false,false,988,image-keyboard-response,6
true,16,0,1,2,false,d,false,true,0.0-2.0-0.33-0.304-3.304,0,1,0,81,false,stim,true,0,434,2,0,2,12080,task3,772174,false,true,991,image-keyboard-response,7
true,16,0,1,2,false,d,false,false,0.0-2.0-0.33-0.305-3.305,0,1,0,81,false,stim,true,0,470,2,0,2,12080,task3,774162,false,false,994,image-keyboard-response,8
true,16,1,1,1,true,z,false,true,0.0-2.0-0.34-0.306-3.306,0,1,0,90,false,stim,false,1,571,2,1,1,12080,task3,776256,false,false,997,image-keyboard-response,9
true,16,0,1,2,false,d,false,false,0.0-2.0-0.34-0.307-3.307,0,1,0,81,false,stim,true,0,418,2,0,2,12080,task3,778199,false,false,1000,image-keyboard-response,10
true,16,0,1,2,false,d,false,false,0.0-2.0-0.34-0.308-3.308,0,1,0,81,false,stim,true,0,503,2,0,2,12080,task3,780225,false,false,1003,image-keyboard-response,11
true,16,2,1,0,false,q,false,false,0.0-2.0-0.34-0.309-3.309,0,1,0,68,false,stim,true,2,609,2,0,0,12080,task3,782351,false,false,1006,image-keyboard-response,12
true,16,2,1,0,false,q,false,false,0.0-2.0-0.34-0.310-3.310,0,1,0,68,false,stim,true,2,439,2,0,0,12080,task3,784316,false,false,1009,image-keyboard-response,13
true,16,1,1,1,true,z,false,true,0.0-2.0-0.34-0.311-3.311,0,1,0,90,false,stim,false,1,984,2,1,1,12080,task3,786826,false,false,1012,image-keyboard-response,14
true,16,1,1,1,true,z,false,true,0.0-2.0-0.34-0.312-3.312,0,1,0,90,false,stim,false,1,379,2,1,1,12080,task3,788727,false,false,1015,image-keyboard-response,15
true,16,1,1,2,false,d,true,false,0.0-2.0-0.34-0.313-3.313,0,1,0,90,false,stim,false,0,396,2,0,2,12080,task3,790650,false,false,1018,image-keyboard-response,16
true,16,1,1,0,false,q,true,false,0.0-2.0-0.34-0.314-3.314,0,1,0,90,false,stim,false,2,645,2,0,0,12080,task3,792812,false,false,1021,image-keyboard-response,17
true,16,1,1,1,true,z,false,true,0.0-2.0-0.35-0.315-3.315,0,1,0,90,false,stim,false,1,423,2,1,1,12080,task3,794759,false,false,1024,image-keyboard-response,18
true,16,1,1,1,true,z,false,false,0.0-2.0-0.35-0.316-3.316,0,1,0,90,false,stim,false,1,511,2,1,1,12080,task3,796790,false,true,1027,image-keyboard-response,19
true,16,0,1,2,false,d,false,false,0.0-2.0-0.35-0.317-3.317,0,1,0,81,false,stim,true,0,684,2,0,2,12080,task3,798994,false,false,1030,image-keyboard-response,20
true,16,0,1,0,true,q,false,true,0.0-2.0-0.35-0.318-3.318,0,1,0,81,false,stim,false,2,408,2,0,0,12080,task3,800924,false,false,1033,image-keyboard-response,21
true,16,1,1,2,false,d,true,false,0.0-2.0-0.35-0.319-3.319,0,1,0,90,false,stim,false,0,1135,2,0,2,12080,task3,803584,false,false,1036,image-keyboard-response,22
true,16,0,1,0,true,q,false,true,0.0-2.0-0.35-0.320-3.320,0,1,0,81,false,stim,false,2,750,2,0,0,12080,task3,805851,false,false,1039,image-keyboard-response,23
true,16,2,1,2,true,d,false,true,0.0-2.0-0.35-0.321-3.321,0,1,0,68,false,stim,false,0,754,2,0,2,12080,task3,808132,false,false,1042,image-keyboard-response,24
true,16,0,1,0,true,q,false,true,0.0-2.0-0.35-0.322-3.322,0,1,0,81,false,stim,false,2,546,2,1,0,12080,task3,810197,false,false,1045,image-keyboard-response,25
true,16,2,1,1,false,z,true,false,0.0-2.0-0.35-0.323-3.323,0,1,0,68,false,stim,false,1,645,2,0,1,12080,task3,812367,false,false,1048,image-keyboard-response,26
true,16,0,1,0,true,q,false,true,0.0-2.0-0.36-0.324-3.324,0,1,0,81,false,stim,false,2,515,2,1,0,12080,task3,814404,false,false,1051,image-keyboard-response,27
true,16,2,1,2,true,d,false,true,0.0-2.0-0.36-0.325-3.325,0,1,0,68,false,stim,false,0,478,2,0,2,12080,task3,816411,false,false,1054,image-keyboard-response,28
true,16,2,1,2,true,d,false,true,0.0-2.0-0.36-0.326-3.326,0,1,0,68,false,stim,false,0,548,2,0,2,12080,task3,818489,false,false,1057,image-keyboard-response,29
true,17,0,1,2,false,d,true,false,0.0-2.0-0.36-0.327-3.327,1,0,0,81,true,stim,false,1,429,2,0,1,12080,task3,820438,false,false,1060,image-keyboard-response,1
true,17,0,1,0,true,q,false,true,0.0-2.0-0.36-0.328-3.328,1,0,0,81,false,stim,false,0,398,2,1,0,12080,task3,822365,false,false,1063,image-keyboard-response,2
true,17,2,1,2,true,d,false,true,0.0-2.0-0.36-0.329-3.329,1,0,0,68,false,stim,false,1,1769,2,0,1,12080,task3,825665,false,false,1066,image-keyboard-response,3
true,17,0,1,0,true,q,false,true,0.0-2.0-0.36-0.330-3.330,1,0,0,81,false,stim,false,0,1210,2,1,0,12080,task3,828396,false,false,1069,image-keyboard-response,4
true,17,2,1,2,true,d,false,true,0.0-2.0-0.36-0.331-3.331,1,0,0,68,false,stim,false,1,610,2,0,1,12080,task3,830530,false,false,1072,image-keyboard-response,5
true,17,2,1,1,false,z,false,false,0.0-2.0-0.36-0.332-3.332,1,0,0,68,false,stim,true,2,412,2,0,2,12080,task3,832463,false,false,1075,image-keyboard-response,6
true,17,0,1,0,true,q,false,true,0.0-2.0-0.37-0.333-3.333,1,0,0,81,false,stim,false,0,498,2,1,0,12080,task3,834478,false,false,1078,image-keyboard-response,7
true,17,0,1,0,true,q,false,true,0.0-2.0-0.37-0.334-3.334,1,0,0,81,false,stim,false,0,653,2,1,0,12080,task3,836659,false,false,1081,image-keyboard-response,8
true,17,2,1,2,true,d,false,true,0.0-2.0-0.37-0.335-3.335,1,0,0,68,false,stim,false,1,405,2,0,1,12080,task3,838588,false,false,1084,image-keyboard-response,9
true,17,0,1,0,true,q,false,true,0.0-2.0-0.37-0.336-3.336,1,0,0,81,false,stim,false,0,536,2,1,0,12080,task3,840651,false,false,1087,image-keyboard-response,10
true,17,0,1,1,false,z,true,true,0.0-2.0-0.37-0.337-3.337,1,0,0,81,false,stim,false,2,522,2,0,2,12080,task3,842702,false,true,1090,image-keyboard-response,11
true,17,0,1,1,false,z,true,false,0.0-2.0-0.37-0.338-3.338,1,0,0,81,false,stim,false,2,621,2,0,2,12080,task3,844844,false,false,1093,image-keyboard-response,12
true,17,0,1,1,false,z,true,false,0.0-2.0-0.37-0.339-3.339,1,0,0,81,false,stim,false,2,690,2,0,2,12080,task3,847054,false,false,1096,image-keyboard-response,13
true,17,2,1,2,true,d,false,true,0.0-2.0-0.37-0.340-3.340,1,0,0,68,false,stim,false,1,491,2,0,1,12080,task3,849065,false,false,1099,image-keyboard-response,14
true,17,2,1,2,true,d,false,true,0.0-2.0-0.37-0.341-3.341,1,0,0,68,false,stim,false,1,488,2,0,1,12080,task3,851074,false,false,1102,image-keyboard-response,15
true,17,0,1,0,true,q,false,false,0.0-2.0-0.38-0.342-3.342,1,0,0,81,false,stim,false,0,542,2,1,0,12080,task3,853132,false,true,1105,image-keyboard-response,16
true,17,0,1,1,false,z,true,false,0.0-2.0-0.38-0.343-3.343,1,0,0,81,false,stim,false,2,1299,2,0,2,12080,task3,855965,false,false,1108,image-keyboard-response,17
true,17,0,1,0,true,q,false,true,0.0-2.0-0.38-0.344-3.344,1,0,0,81,false,stim,false,0,653,2,1,0,12080,task3,858135,false,false,1111,image-keyboard-response,18
true,17,0,1,2,false,d,true,false,0.0-2.0-0.38-0.345-3.345,1,0,0,81,false,stim,false,1,776,2,0,1,12080,task3,860435,false,false,1114,image-keyboard-response,19
true,17,0,1,1,false,z,true,false,0.0-2.0-0.38-0.346-3.346,1,0,0,81,false,stim,false,2,622,2,0,2,12080,task3,862585,false,false,1117,image-keyboard-response,20
true,17,0,1,0,true,q,false,true,0.0-2.0-0.38-0.347-3.347,1,0,0,81,false,stim,false,0,546,2,0,0,12080,task3,864659,false,false,1120,image-keyboard-response,21
true,17,2,1,2,true,d,false,true,0.0-2.0-0.38-0.348-3.348,1,0,0,68,false,stim,false,1,394,2,1,1,12080,task3,866579,false,false,1123,image-keyboard-response,22
true,17,2,1,2,true,d,false,true,0.0-2.0-0.38-0.349-3.349,1,0,0,68,false,stim,false,1,376,2,1,1,12080,task3,868475,false,false,1126,image-keyboard-response,23
true,17,2,1,1,false,z,false,true,0.0-2.0-0.38-0.350-3.350,1,0,0,68,false,stim,true,2,493,2,0,2,12080,task3,870492,false,true,1129,image-keyboard-response,24
true,17,2,1,2,true,d,false,true,0.0-2.0-0.39-0.351-3.351,1,0,0,68,false,stim,false,1,661,2,1,1,12080,task3,872682,false,false,1132,image-keyboard-response,25
true,18,0,1,2,false,d,false,false,0.0-2.0-0.39-0.352-3.352,0,1,0,81,true,stim,true,0,357,2,0,0,12080,task3,874559,false,false,1135,image-keyboard-response,1
true,18,2,1,0,false,q,true,false,0.0-2.0-0.39-0.353-3.353,0,1,0,68,false,stim,false,1,481,2,0,2,12080,task3,876568,false,false,1138,image-keyboard-response,2
true,18,2,1,0,false,q,true,false,0.0-2.0-0.39-0.354-3.354,0,1,0,68,false,stim,false,1,399,2,0,2,12080,task3,878495,false,false,1141,image-keyboard-response,3
true,18,2,1,2,true,d,false,true,0.0-2.0-0.39-0.355-3.355,0,1,0,68,false,stim,false,2,739,2,1,1,12080,task3,880761,false,false,1144,image-keyboard-response,4
true,18,0,1,2,false,d,false,false,0.0-2.0-0.39-0.356-3.356,0,1,0,81,false,stim,true,0,639,2,0,0,12080,task3,882927,false,false,1147,image-keyboard-response,5
true,18,2,1,0,false,q,true,false,0.0-2.0-0.39-0.357-3.357,0,1,0,68,false,stim,false,1,865,2,0,2,12080,task3,885311,false,false,1150,image-keyboard-response,6
true,18,2,1,2,true,d,false,true,0.0-2.0-0.39-0.358-3.358,0,1,0,68,false,stim,false,2,362,2,1,1,12080,task3,887203,false,false,1153,image-keyboard-response,7
true,18,1,1,2,false,d,true,false,0.0-2.0-0.39-0.359-3.359,0,1,0,90,false,stim,false,0,469,2,0,0,12080,task3,889192,false,false,1156,image-keyboard-response,8
true,18,1,1,2,false,d,true,false,0.0-2.0-0.40-0.360-3.360,0,1,0,90,false,stim,false,0,612,2,0,0,12080,task3,891327,false,false,1159,image-keyboard-response,9
true,18,2,1,2,true,d,false,true,0.0-2.0-0.40-0.361-3.361,0,1,0,68,false,stim,false,2,756,2,1,1,12080,task3,893607,false,false,1162,image-keyboard-response,10
true,18,2,1,2,true,d,false,true,0.0-2.0-0.40-0.362-3.362,0,1,0,68,false,stim,false,0,623,2,0,0,12080,task3,895760,false,false,1165,image-keyboard-response,11
true,18,2,1,0,false,q,true,true,0.0-2.0-0.40-0.363-3.363,0,1,0,68,false,stim,false,1,688,2,0,2,12080,task3,897974,false,true,1168,image-keyboard-response,12
true,18,2,1,2,true,d,false,true,0.0-2.0-0.40-0.364-3.364,0,1,0,68,false,stim,false,2,269,2,1,1,12080,task3,899771,false,false,1171,image-keyboard-response,13
true,18,2,1,0,false,q,true,false,0.0-2.0-0.40-0.365-3.365,0,1,0,68,false,stim,false,1,268,2,0,2,12080,task3,901566,false,false,1174,image-keyboard-response,14
true,18,2,1,0,false,q,true,false,0.0-2.0-0.40-0.366-3.366,0,1,0,68,false,stim,false,1,393,2,0,2,12080,task3,903472,false,false,1177,image-keyboard-response,15
true,18,2,1,2,true,d,false,false,0.0-2.0-0.40-0.367-3.367,0,1,0,68,false,stim,false,0,321,2,0,0,12080,task3,905320,false,true,1180,image-keyboard-response,16
true,18,2,1,2,true,d,false,true,0.0-2.0-0.40-0.368-3.368,0,1,0,68,false,stim,false,2,342,2,1,1,12080,task3,907191,false,false,1183,image-keyboard-response,17
true,18,2,1,2,true,d,false,true,0.0-2.0-0.41-0.369-3.369,0,1,0,68,false,stim,false,2,793,2,1,1,12080,task3,909514,false,false,1186,image-keyboard-response,18
true,18,0,1,2,false,d,false,false,0.0-2.0-0.41-0.370-3.370,0,1,0,81,false,stim,true,0,807,2,0,0,12080,task3,911848,false,false,1189,image-keyboard-response,19
true,18,1,1,2,false,d,true,false,0.0-2.0-0.41-0.371-3.371,0,1,0,90,false,stim,false,0,749,2,0,0,12080,task3,914118,false,false,1192,image-keyboard-response,20
true,18,2,1,2,true,d,false,true,0.0-2.0-0.41-0.372-3.372,0,1,0,68,false,stim,false,2,632,2,1,1,12080,task3,916275,false,false,1195,image-keyboard-response,21
true,18,1,1,0,false,q,false,false,0.0-2.0-0.41-0.373-3.373,0,1,0,90,false,stim,true,1,905,2,0,2,12080,task3,918694,false,false,1198,image-keyboard-response,22
true,18,2,1,2,true,d,false,true,0.0-2.0-0.41-0.374-3.374,0,1,0,68,false,stim,false,2,638,2,1,1,12080,task3,920864,false,false,1201,image-keyboard-response,23
true,18,2,1,2,true,d,false,true,0.0-2.0-0.41-0.375-3.375,0,1,0,68,false,stim,false,0,843,2,0,0,12080,task3,923224,false,false,1204,image-keyboard-response,24
true,18,2,1,0,false,q,true,false,0.0-2.0-0.41-0.376-3.376,0,1,0,68,false,stim,false,1,461,2,0,2,12080,task3,925210,false,false,1207,image-keyboard-response,25
true,18,0,1,0,true,q,false,true,0.0-2.0-0.41-0.377-3.377,0,1,0,81,false,stim,false,1,1043,2,0,2,12080,task3,927770,false,false,1210,image-keyboard-response,26
true,18,2,1,2,true,d,false,true,0.0-2.0-0.42-0.378-3.378,0,1,0,68,false,stim,false,2,554,2,1,1,12080,task3,929842,false,false,1213,image-keyboard-response,27
true,18,0,1,0,true,q,false,true,0.0-2.0-0.42-0.379-3.379,0,1,0,81,false,stim,false,1,374,2,0,2,12080,task3,931727,false,false,1216,image-keyboard-response,28
true,18,0,1,0,true,q,false,true,0.0-2.0-0.42-0.380-3.380,0,1,0,81,false,stim,false,1,425,2,0,2,12080,task3,933671,false,false,1219,image-keyboard-response,29
true,19,2,1,2,true,d,false,true,0.0-2.0-0.42-0.381-3.381,0,1,0,68,true,stim,false,2,759,2,1,1,12080,task3,935946,false,false,1222,image-keyboard-response,1
true,19,0,1,1,false,z,true,false,0.0-2.0-0.42-0.382-3.382,0,1,0,81,false,stim,false,2,2195,2,0,0,12080,task3,939659,false,false,1225,image-keyboard-response,2
true,19,2,1,2,true,d,false,false,0.0-2.0-0.42-0.383-3.383,0,1,0,68,false,stim,false,2,1452,2,1,1,12080,task3,942633,false,true,1228,image-keyboard-response,3
true,19,0,1,1,false,z,true,false,0.0-2.0-0.42-0.384-3.384,0,1,0,81,false,stim,false,2,594,2,0,0,12080,task3,944751,false,false,1231,image-keyboard-response,4
true,19,2,1,1,false,z,false,false,0.0-2.0-0.42-0.385-3.385,0,1,0,68,false,stim,true,2,1005,2,0,0,12080,task3,947276,false,false,1234,image-keyboard-response,5
true,19,0,1,1,false,z,false,false,0.0-2.0-0.42-0.386-3.386,0,1,0,81,false,stim,true,0,1011,2,0,2,12080,task3,949807,false,false,1237,image-keyboard-response,6
true,19,2,1,2,true,d,false,true,0.0-2.0-0.43-0.387-3.387,0,1,0,68,false,stim,false,2,634,2,1,1,12080,task3,951972,false,false,1240,image-keyboard-response,7
true,19,0,1,1,false,z,false,false,0.0-2.0-0.43-0.388-3.388,0,1,0,81,false,stim,true,0,388,2,0,2,12080,task3,953880,false,false,1243,image-keyboard-response,8
true,19,2,1,2,true,d,false,true,0.0-2.0-0.43-0.389-3.389,0,1,0,68,false,stim,false,2,559,2,1,1,12080,task3,955956,false,false,1246,image-keyboard-response,9
true,19,2,1,1,false,z,true,false,0.0-2.0-0.43-0.390-3.390,0,1,0,68,false,stim,false,0,1090,2,0,2,12080,task3,958569,false,false,1249,image-keyboard-response,10
true,19,2,1,1,false,z,false,false,0.0-2.0-0.43-0.391-3.391,0,1,0,68,false,stim,true,2,1296,2,0,0,12080,task3,961396,false,false,1252,image-keyboard-response,11
true,19,1,1,1,true,z,false,true,0.0-2.0-0.43-0.392-3.392,0,1,0,90,false,stim,false,0,868,2,0,2,12080,task3,963788,false,false,1255,image-keyboard-response,12
true,19,1,1,1,true,z,false,true,0.0-2.0-0.43-0.393-3.393,0,1,0,90,false,stim,false,2,966,2,0,0,12080,task3,966283,false,false,1258,image-keyboard-response,13
true,19,2,1,2,true,d,false,true,0.0-2.0-0.43-0.394-3.394,0,1,0,68,false,stim,false,2,410,2,1,1,12080,task3,968222,false,false,1261,image-keyboard-response,14
true,19,1,1,1,true,z,false,true,0.0-2.0-0.43-0.395-3.395,0,1,0,90,false,stim,false,2,485,2,0,0,12080,task3,970231,false,false,1264,image-keyboard-response,15
true,19,2,1,2,true,d,false,true,0.0-2.0-0.44-0.396-3.396,0,1,0,68,false,stim,false,2,392,2,1,1,12080,task3,972147,false,false,1267,image-keyboard-response,16
true,19,1,1,1,true,z,false,true,0.0-2.0-0.44-0.397-3.397,0,1,0,90,false,stim,false,0,691,2,0,2,12080,task3,974353,false,false,1270,image-keyboard-response,17
true,19,2,1,2,true,d,false,true,0.0-2.0-0.44-0.398-3.398,0,1,0,68,false,stim,false,2,781,2,1,1,12080,task3,976651,false,false,1273,image-keyboard-response,18
true,19,1,1,1,true,z,false,true,0.0-2.0-0.44-0.399-3.399,0,1,0,90,false,stim,false,0,664,2,0,2,12080,task3,978830,false,false,1276,image-keyboard-response,19
true,19,1,1,1,true,z,false,true,0.0-2.0-0.44-0.400-3.400,0,1,0,90,false,stim,false,2,607,2,1,0,12080,task3,980966,false,false,1279,image-keyboard-response,20
true,19,1,1,1,true,z,false,true,0.0-2.0-0.44-0.401-3.401,0,1,0,90,false,stim,false,2,507,2,1,0,12080,task3,982997,false,false,1282,image-keyboard-response,21
true,19,2,1,2,true,d,false,true,0.0-2.0-0.44-0.402-3.402,0,1,0,68,false,stim,false,2,543,2,1,1,12080,task3,985063,false,false,1285,image-keyboard-response,22
true,19,1,1,1,true,z,false,true,0.0-2.0-0.44-0.403-3.403,0,1,0,90,false,stim,false,2,636,2,1,0,12080,task3,987211,false,false,1288,image-keyboard-response,23
true,19,1,1,1,true,z,false,true,0.0-2.0-0.44-0.404-3.404,0,1,0,90,false,stim,false,0,539,2,0,2,12080,task3,989281,false,false,1291,image-keyboard-response,24
true,20,2,2,2,true,d,false,true,0.0-2.0-0.45-0.405-3.405,1,1,0,68,true,stim,false,2,630,2,1,1,12080,task3,991431,false,false,1294,image-keyboard-response,1
true,20,1,2,1,true,z,false,true,0.0-2.0-0.45-0.406-3.406,1,1,0,90,false,stim,false,1,973,2,1,0,12080,task3,993922,false,false,1297,image-keyboard-response,2
true,20,1,2,0,false,q,false,false,0.0-2.0-0.45-0.407-3.407,1,1,0,90,false,stim,true,1,1860,2,0,2,12080,task3,997305,false,false,1300,image-keyboard-response,3
true,20,2,2,2,true,d,false,true,0.0-2.0-0.45-0.408-3.408,1,1,0,68,false,stim,false,2,385,2,1,1,12080,task3,999219,false,false,1303,image-keyboard-response,4
true,20,1,2,0,false,q,false,false,0.0-2.0-0.45-0.409-3.409,1,1,0,90,false,stim,true,1,609,2,0,2,12080,task3,1001355,false,false,1306,image-keyboard-response,5
true,20,1,2,0,false,q,false,false,0.0-2.0-0.45-0.410-3.410,1,1,0,90,false,stim,true,1,994,2,0,2,12080,task3,1003877,false,false,1309,image-keyboard-response,6
true,20,2,2,2,true,d,false,true,0.0-2.0-0.45-0.411-3.411,1,1,0,68,false,stim,false,2,363,2,1,1,12080,task3,1005769,false,false,1312,image-keyboard-response,7
true,20,2,2,1,false,z,true,true,0.0-2.0-0.45-0.412-3.412,1,1,0,68,false,stim,false,1,671,2,1,0,12080,task3,1007968,false,true,1315,image-keyboard-response,8
true,20,2,2,1,false,z,true,false,0.0-2.0-0.45-0.413-3.413,1,1,0,68,false,stim,false,1,601,2,1,0,12080,task3,1010094,false,false,1318,image-keyboard-response,9
true,20,1,2,0,false,q,false,false,0.0-2.0-0.46-0.414-3.414,1,1,0,90,false,stim,true,1,1163,2,0,2,12080,task3,1012765,false,false,1321,image-keyboard-response,10
true,20,2,2,2,true,d,false,true,0.0-2.0-0.46-0.415-3.415,1,1,0,68,false,stim,false,2,390,2,1,1,12080,task3,1014675,false,false,1324,image-keyboard-response,11
true,20,2,2,0,false,q,true,false,0.0-2.0-0.46-0.416-3.416,1,1,0,68,false,stim,false,1,865,2,0,2,12080,task3,1017072,false,false,1327,image-keyboard-response,12
true,20,2,2,2,true,d,false,true,0.0-2.0-0.46-0.417-3.417,1,1,0,68,false,stim,false,2,458,2,1,1,12080,task3,1019045,false,false,1330,image-keyboard-response,13
true,20,2,2,2,true,d,false,false,0.0-2.0-0.46-0.418-3.418,1,1,0,68,false,stim,false,2,837,2,1,1,12080,task3,1021411,false,true,1333,image-keyboard-response,14
true,20,0,2,1,false,z,true,false,0.0-2.0-0.46-0.419-3.419,1,1,0,81,false,stim,false,1,565,2,1,0,12080,task3,1023494,false,false,1336,image-keyboard-response,15
true,20,1,2,1,true,z,false,true,0.0-2.0-0.46-0.420-3.420,1,1,0,90,false,stim,false,1,554,2,1,0,12080,task3,1025562,false,false,1339,image-keyboard-response,16
true,20,1,2,0,false,q,false,false,0.0-2.0-0.46-0.421-3.421,1,1,0,90,false,stim,true,1,909,2,0,2,12080,task3,1027992,false,false,1342,image-keyboard-response,17
true,20,1,2,1,true,z,false,true,0.0-2.0-0.46-0.422-3.422,1,1,0,90,false,stim,false,1,441,2,1,0,12080,task3,1029952,false,false,1345,image-keyboard-response,18
true,20,1,2,1,true,z,false,true,0.0-2.0-0.47-0.423-3.423,1,1,0,90,false,stim,false,1,984,2,1,0,12080,task3,1032460,false,false,1348,image-keyboard-response,19
true,20,2,2,2,true,d,false,true,0.0-2.0-0.47-0.424-3.424,1,1,0,68,false,stim,false,2,714,2,1,1,12080,task3,1034701,false,false,1351,image-keyboard-response,20
true,20,1,2,1,true,z,false,false,0.0-2.0-0.47-0.425-3.425,1,1,0,90,false,stim,false,1,712,2,1,0,12080,task3,1036940,false,true,1354,image-keyboard-response,21
true,20,1,2,0,false,q,false,false,0.0-2.0-0.47-0.426-3.426,1,1,0,90,false,stim,true,1,996,2,0,2,12080,task3,1039460,false,false,1357,image-keyboard-response,22
true,20,0,2,0,true,q,false,true,0.0-2.0-0.47-0.427-3.427,1,1,0,81,false,stim,false,1,842,2,0,2,12080,task3,1041823,false,false,1360,image-keyboard-response,23
true,20,2,2,2,true,d,false,true,0.0-2.0-0.47-0.428-3.428,1,1,0,68,false,stim,false,2,788,2,1,1,12080,task3,1044132,false,false,1363,image-keyboard-response,24
true,20,2,2,2,true,d,false,true,0.0-2.0-0.47-0.429-3.429,1,1,0,68,false,stim,false,2,778,2,0,1,12080,task3,1046426,false,false,1366,image-keyboard-response,25
true,20,0,2,0,true,q,false,false,0.0-2.0-0.47-0.430-3.430,1,1,0,81,false,stim,false,1,512,2,0,2,12080,task3,1048467,false,true,1369,image-keyboard-response,26
true,20,1,2,1,true,z,false,true,0.0-2.0-0.47-0.431-3.431,1,1,0,90,false,stim,false,1,780,2,1,0,12080,task3,1050762,false,false,1372,image-keyboard-response,27
true,20,1,2,1,true,z,false,true,0.0-2.0-0.48-0.432-3.432,1,1,0,90,false,stim,false,1,748,2,1,0,12080,task3,1053041,false,false,1375,image-keyboard-response,28
true,20,1,2,1,true,z,false,true,0.0-2.0-0.48-0.433-3.433,1,1,0,90,false,stim,false,1,642,2,1,0,12080,task3,1055191,false,false,1378,image-keyboard-response,29
true,21,0,1,1,false,z,false,false,0.0-2.0-0.48-0.434-3.434,1,0,0,81,true,stim,true,0,475,2,0,2,12080,task3,1057191,false,false,1381,image-keyboard-response,1
true,21,0,1,1,false,z,false,false,0.0-2.0-0.48-0.435-3.435,1,0,0,81,false,stim,true,0,491,2,0,2,12080,task3,1059201,false,false,1384,image-keyboard-response,2
true,21,1,1,1,true,z,false,true,0.0-2.0-0.48-0.436-3.436,1,0,0,90,false,stim,false,0,518,2,0,2,12080,task3,1061237,false,false,1387,image-keyboard-response,3
true,21,2,1,0,false,q,false,false,0.0-2.0-0.48-0.437-3.437,1,0,0,68,false,stim,true,2,433,2,0,1,12080,task3,1063200,false,false,1390,image-keyboard-response,4
true,21,2,1,0,false,q,false,false,0.0-2.0-0.48-0.438-3.438,1,0,0,68,false,stim,true,2,771,2,0,1,12080,task3,1065490,false,false,1393,image-keyboard-response,5
true,21,1,1,1,true,z,false,true,0.0-2.0-0.48-0.439-3.439,1,0,0,90,false,stim,false,1,440,2,1,0,12080,task3,1067457,false,false,1396,image-keyboard-response,6
true,21,0,1,0,true,q,false,true,0.0-2.0-0.48-0.440-3.440,1,0,0,81,false,stim,false,2,736,2,0,1,12080,task3,1069724,false,false,1399,image-keyboard-response,7
true,21,1,1,1,true,z,false,true,0.0-2.0-0.49-0.441-3.441,1,0,0,90,false,stim,false,1,503,2,0,0,12080,task3,1071765,false,false,1402,image-keyboard-response,8
true,21,0,1,0,true,q,false,true,0.0-2.0-0.49-0.442-3.442,1,0,0,81,false,stim,false,2,389,2,1,1,12080,task3,1073686,false,false,1405,image-keyboard-response,9
true,21,1,1,1,true,z,false,true,0.0-2.0-0.49-0.443-3.443,1,0,0,90,false,stim,false,0,729,2,1,2,12080,task3,1075933,false,false,1408,image-keyboard-response,10
true,21,1,1,1,true,z,false,true,0.0-2.0-0.49-0.444-3.444,1,0,0,90,false,stim,false,0,612,2,1,2,12080,task3,1078062,false,false,1411,image-keyboard-response,11
true,21,1,1,1,true,z,false,false,0.0-2.0-0.49-0.445-3.445,1,0,0,90,false,stim,false,0,454,2,1,2,12080,task3,1080042,false,true,1414,image-keyboard-response,12
true,22,1,2,0,false,q,false,false,0.0-2.0-0.49-0.446-3.446,0,1,1,90,true,stim,true,1,735,2,0,0,12080,task3,1082293,false,false,1417,image-keyboard-response,1
true,22,0,2,0,true,q,false,true,0.0-2.0-0.49-0.447-3.447,0,1,1,81,false,stim,false,0,500,2,1,1,12080,task3,1084308,false,false,1420,image-keyboard-response,2
true,22,0,2,0,true,q,false,true,0.0-2.0-0.49-0.448-3.448,0,1,1,81,false,stim,false,0,404,2,1,1,12080,task3,1086231,false,false,1423,image-keyboard-response,3
true,22,1,2,0,false,q,false,false,0.0-2.0-0.49-0.449-3.449,0,1,1,90,false,stim,true,1,641,2,0,0,12080,task3,1088394,false,false,1426,image-keyboard-response,4
true,22,2,2,0,false,q,true,false,0.0-2.0-0.50-0.450-3.450,0,1,1,68,false,stim,false,1,637,2,0,0,12080,task3,1090554,false,false,1429,image-keyboard-response,5
true,22,0,2,0,true,q,false,true,0.0-2.0-0.50-0.451-3.451,0,1,1,81,false,stim,false,1,620,2,0,0,12080,task3,1092690,false,false,1432,image-keyboard-response,6
true,22,0,2,0,true,q,false,true,0.0-2.0-0.50-0.452-3.452,0,1,1,81,false,stim,false,1,685,2,0,0,12080,task3,1094901,false,false,1435,image-keyboard-response,7
true,22,0,2,0,true,q,false,true,0.0-2.0-0.50-0.453-3.453,0,1,1,81,false,stim,false,0,766,2,1,1,12080,task3,1097193,false,false,1438,image-keyboard-response,8
true,22,1,2,1,true,z,false,true,0.0-2.0-0.50-0.454-3.454,0,1,1,90,false,stim,false,1,565,2,1,2,12080,task3,1099280,false,false,1441,image-keyboard-response,9
true,22,1,2,1,true,z,false,true,0.0-2.0-0.50-0.455-3.455,0,1,1,90,false,stim,false,1,456,2,1,2,12080,task3,1101263,false,false,1444,image-keyboard-response,10
true,22,0,2,0,true,q,false,true,0.0-2.0-0.50-0.456-3.456,0,1,1,81,false,stim,false,0,478,2,1,1,12080,task3,1103262,false,false,1447,image-keyboard-response,11
true,22,1,2,1,true,z,false,true,0.0-2.0-0.50-0.457-3.457,0,1,1,90,false,stim,false,1,480,2,1,2,12080,task3,1105259,false,false,1450,image-keyboard-response,12
true,22,0,2,0,true,q,false,true,0.0-2.0-0.50-0.458-3.458,0,1,1,81,false,stim,false,0,681,2,1,1,12080,task3,1107465,false,false,1453,image-keyboard-response,13
true,22,0,2,0,true,q,false,true,0.0-2.0-0.51-0.459-3.459,0,1,1,81,false,stim,false,0,430,2,1,1,12080,task3,1109418,false,false,1456,image-keyboard-response,14
true,22,0,2,0,true,q,false,true,0.0-2.0-0.51-0.460-3.460,0,1,1,81,false,stim,false,1,1740,2,0,0,12080,task3,1112675,false,false,1459,image-keyboard-response,15
true,22,1,2,1,true,z,false,false,0.0-2.0-0.51-0.461-3.461,0,1,1,90,false,stim,false,1,505,2,1,2,12080,task3,1114704,false,true,1462,image-keyboard-response,16
true,22,1,2,1,true,z,false,true,0.0-2.0-0.51-0.462-3.462,0,1,1,90,false,stim,false,1,384,2,1,2,12080,task3,1116604,false,false,1465,image-keyboard-response,17
true,22,0,2,0,true,q,false,false,0.0-2.0-0.51-0.463-3.463,0,1,1,81,false,stim,false,1,504,2,0,0,12080,task3,1118637,false,true,1468,image-keyboard-response,18
true,22,0,2,0,true,q,false,true,0.0-2.0-0.51-0.464-3.464,0,1,1,81,false,stim,false,1,2009,2,0,0,12080,task3,1122173,false,false,1471,image-keyboard-response,19
true,22,0,2,0,true,q,false,true,0.0-2.0-0.51-0.465-3.465,0,1,1,81,false,stim,false,0,603,2,0,1,12080,task3,1124295,false,false,1474,image-keyboard-response,20
true,22,1,2,1,true,z,false,true,0.0-2.0-0.51-0.466-3.466,0,1,1,90,false,stim,false,1,389,2,1,2,12080,task3,1126209,false,false,1477,image-keyboard-response,21
true,22,0,2,0,true,q,false,false,0.0-2.0-0.51-0.467-3.467,0,1,1,81,false,stim,false,0,683,2,0,1,12080,task3,1128416,false,true,1480,image-keyboard-response,22
true,22,0,2,0,true,q,false,true,0.0-2.0-0.52-0.468-3.468,0,1,1,81,false,stim,false,1,545,2,0,0,12080,task3,1130493,false,false,1483,image-keyboard-response,23
true,22,1,2,1,true,z,false,true,0.0-2.0-0.52-0.469-3.469,0,1,1,90,false,stim,false,1,521,2,1,2,12080,task3,1132549,false,false,1486,image-keyboard-response,24
true,23,0,1,2,false,d,false,false,0.0-2.0-0.52-0.470-3.470,0,0,1,81,true,stim,true,0,815,2,0,1,12080,task3,1134884,false,false,1489,image-keyboard-response,1
true,23,0,1,2,false,d,false,false,0.0-2.0-0.52-0.471-3.471,0,0,1,81,false,stim,true,0,683,2,0,0,12080,task3,1137085,false,false,1492,image-keyboard-response,2
true,23,0,1,2,false,d,false,false,0.0-2.0-0.52-0.472-3.472,0,0,1,81,false,stim,true,0,570,2,0,0,12080,task3,1139182,false,false,1495,image-keyboard-response,3
true,23,1,1,2,false,d,true,false,0.0-2.0-0.52-0.473-3.473,0,0,1,90,false,stim,false,0,640,2,0,1,12080,task3,1141343,false,false,1498,image-keyboard-response,4
true,23,0,1,2,false,d,false,false,0.0-2.0-0.52-0.474-3.474,0,0,1,81,false,stim,true,0,437,2,0,1,12080,task3,1143322,false,false,1501,image-keyboard-response,5
true,23,1,1,1,true,z,false,true,0.0-2.0-0.52-0.475-3.475,0,0,1,90,false,stim,false,1,843,2,1,2,12080,task3,1145691,false,false,1504,image-keyboard-response,6
true,23,1,1,1,true,z,false,false,0.0-2.0-0.52-0.476-3.476,0,0,1,90,false,stim,false,1,421,2,1,2,12080,task3,1147641,false,true,1507,image-keyboard-response,7
true,23,1,1,1,true,z,false,true,0.0-2.0-0.53-0.477-3.477,0,0,1,90,false,stim,false,1,365,2,1,2,12080,task3,1149532,false,false,1510,image-keyboard-response,8
true,23,2,1,2,true,d,false,true,0.0-2.0-0.53-0.478-3.478,0,0,1,68,false,stim,false,0,552,2,0,1,12080,task3,1151612,false,false,1513,image-keyboard-response,9
true,23,2,1,2,true,d,false,true,0.0-2.0-0.53-0.479-3.479,0,0,1,68,false,stim,false,0,495,2,0,1,12080,task3,1153628,false,false,1516,image-keyboard-response,10
true,23,1,1,1,true,z,false,true,0.0-2.0-0.53-0.480-3.480,0,0,1,90,false,stim,false,1,718,2,1,2,12080,task3,1155875,false,false,1519,image-keyboard-response,11
true,23,2,1,2,true,d,false,true,0.0-2.0-0.53-0.481-3.481,0,0,1,68,false,stim,false,0,694,2,0,0,12080,task3,1158099,false,false,1522,image-keyboard-response,12
true,23,2,1,2,true,d,false,false,0.0-2.0-0.53-0.482-3.482,0,0,1,68,false,stim,false,0,466,2,0,0,12080,task3,1160092,false,true,1525,image-keyboard-response,13
true,23,1,1,2,false,d,true,false,0.0-2.0-0.53-0.483-3.483,0,0,1,90,false,stim,false,0,440,2,0,1,12080,task3,1162051,false,false,1528,image-keyboard-response,14
true,23,1,1,1,true,z,false,true,0.0-2.0-0.53-0.484-3.484,0,0,1,90,false,stim,false,1,370,2,1,2,12080,task3,1163945,false,false,1531,image-keyboard-response,15
true,23,2,1,2,true,d,false,true,0.0-2.0-0.53-0.485-3.485,0,0,1,68,false,stim,false,0,728,2,0,0,12080,task3,1166201,false,false,1534,image-keyboard-response,16
true,23,2,1,2,true,d,false,true,0.0-2.0-0.54-0.486-3.486,0,0,1,68,false,stim,false,0,650,2,0,0,12080,task3,1168382,false,false,1537,image-keyboard-response,17
true,23,1,1,1,true,z,false,true,0.0-2.0-0.54-0.487-3.487,0,0,1,90,false,stim,false,1,1124,2,1,2,12080,task3,1171024,false,false,1540,image-keyboard-response,18
true,23,2,1,1,false,z,true,false,0.0-2.0-0.54-0.488-3.488,0,0,1,68,false,stim,false,1,2196,2,1,2,12080,task3,1174736,false,false,1543,image-keyboard-response,19
true,23,1,1,1,true,z,false,true,0.0-2.0-0.54-0.489-3.489,0,0,1,90,false,stim,false,1,506,2,1,2,12080,task3,1176769,false,false,1546,image-keyboard-response,20
true,23,2,1,2,true,d,false,true,0.0-2.0-0.54-0.490-3.490,0,0,1,68,false,stim,false,0,1074,2,0,1,12080,task3,1179361,false,false,1549,image-keyboard-response,21
true,23,2,1,2,true,d,false,true,0.0-2.0-0.54-0.491-3.491,0,0,1,68,false,stim,false,0,531,2,1,1,12080,task3,1181405,false,false,1552,image-keyboard-response,22
true,23,2,1,2,true,d,false,true,0.0-2.0-0.54-0.492-3.492,0,0,1,68,false,stim,false,0,2595,2,0,0,12080,task3,1185524,false,false,1555,image-keyboard-response,23
true,23,2,1,2,true,d,false,true,0.0-2.0-0.54-0.493-3.493,0,0,1,68,false,stim,false,0,666,2,1,1,12080,task3,1187714,false,false,1558,image-keyboard-response,24
true,23,2,1,2,true,d,false,true,0.0-2.0-0.54-0.494-3.494,0,0,1,68,false,stim,false,0,387,2,0,0,12080,task3,1189617,false,false,1561,image-keyboard-response,25
true,23,2,1,2,true,d,false,false,0.0-2.0-0.55-0.495-3.495,0,0,1,68,false,stim,false,0,468,2,1,1,12080,task3,1191611,false,true,1564,image-keyboard-response,26
true,24,1,1,2,false,d,false,false,0.0-2.0-0.55-0.496-3.496,0,1,0,90,true,stim,true,1,1064,2,0,2,12080,task3,1194210,false,false,1567,image-keyboard-response,1
true,24,2,1,2,true,d,false,true,0.0-2.0-0.55-0.497-3.497,0,1,0,68,false,stim,false,2,523,2,1,1,12080,task3,1196264,false,false,1570,image-keyboard-response,2
true,24,2,1,2,true,d,false,true,0.0-2.0-0.55-0.498-3.498,0,1,0,68,false,stim,false,2,632,2,1,1,12080,task3,1198417,false,false,1573,image-keyboard-response,3
true,24,1,1,2,false,d,false,false,0.0-2.0-0.55-0.499-3.499,0,1,0,90,false,stim,true,1,1505,2,0,2,12080,task3,1201436,false,false,1576,image-keyboard-response,4
true,24,2,1,1,false,z,false,false,0.0-2.0-0.55-0.500-3.500,0,1,0,68,false,stim,true,2,2366,2,0,0,12080,task3,1205322,false,false,1579,image-keyboard-response,5
true,24,1,1,2,false,d,false,false,0.0-2.0-0.55-0.501-3.501,0,1,0,90,false,stim,true,1,1877,2,0,2,12080,task3,1208717,false,false,1582,image-keyboard-response,6
true,24,2,1,1,false,z,false,false,0.0-2.0-0.55-0.502-3.502,0,1,0,68,false,stim,true,2,495,2,0,0,12080,task3,1210734,false,false,1585,image-keyboard-response,7
true,24,0,1,1,false,z,true,false,0.0-2.0-0.55-0.503-3.503,0,1,0,81,false,stim,false,2,587,2,0,0,12080,task3,1212848,false,false,1588,image-keyboard-response,8
true,24,0,1,2,false,d,true,false,0.0-2.0-0.56-0.504-3.504,0,1,0,81,false,stim,false,2,783,2,0,1,12080,task3,1215159,false,false,1591,image-keyboard-response,9
true,24,1,1,1,true,z,false,true,0.0-2.0-0.56-0.505-3.505,0,1,0,90,false,stim,false,2,761,2,1,0,12080,task3,1217441,false,false,1594,image-keyboard-response,10
true,24,1,1,1,true,z,false,true,0.0-2.0-0.56-0.506-3.506,0,1,0,90,false,stim,false,2,375,2,1,0,12080,task3,1219342,false,false,1597,image-keyboard-response,11
true,24,2,1,2,true,d,false,true,0.0-2.0-0.56-0.507-3.507,0,1,0,68,false,stim,false,2,576,2,0,1,12080,task3,1221442,false,false,1600,image-keyboard-response,12
true,24,2,1,2,true,d,false,true,0.0-2.0-0.56-0.508-3.508,0,1,0,68,false,stim,false,1,1007,2,1,2,12080,task3,1223992,false,false,1603,image-keyboard-response,13
true,25,2,2,2,true,d,false,true,0.0-2.0-0.56-0.509-3.509,1,0,1,68,true,stim,false,2,520,2,1,2,12080,task3,1226041,false,false,1606,image-keyboard-response,1
true,25,2,2,2,true,d,false,true,0.0-2.0-0.56-0.510-3.510,1,0,1,68,false,stim,false,2,456,2,1,2,12080,task3,1228015,false,false,1609,image-keyboard-response,2
true,25,1,2,1,true,z,false,true,0.0-2.0-0.56-0.511-3.511,1,0,1,90,false,stim,false,1,356,2,1,0,12080,task3,1229901,false,false,1612,image-keyboard-response,3
true,25,2,2,0,false,q,false,false,0.0-2.0-0.56-0.512-3.512,1,0,1,68,false,stim,true,2,649,2,0,1,12080,task3,1232079,false,false,1615,image-keyboard-response,4
true,25,1,2,1,true,z,false,false,0.0-2.0-0.57-0.513-3.513,1,0,1,90,false,stim,false,1,492,2,1,0,12080,task3,1234103,false,true,1618,image-keyboard-response,5
true,25,2,2,0,false,q,false,false,0.0-2.0-0.57-0.514-3.514,1,0,1,68,false,stim,true,2,655,2,0,1,12080,task3,1236288,false,false,1621,image-keyboard-response,6
true,25,2,2,0,false,q,false,false,0.0-2.0-0.57-0.515-3.515,1,0,1,68,false,stim,true,2,470,2,0,1,12080,task3,1238280,false,false,1624,image-keyboard-response,7
true,25,1,2,1,true,z,false,true,0.0-2.0-0.57-0.516-3.516,1,0,1,90,false,stim,false,1,414,2,1,0,12080,task3,1240225,false,false,1627,image-keyboard-response,8
true,25,2,2,2,true,d,false,true,0.0-2.0-0.57-0.517-3.517,1,0,1,68,false,stim,false,2,606,2,1,2,12080,task3,1242350,false,false,1630,image-keyboard-response,9
true,25,0,2,0,true,q,false,true,0.0-2.0-0.57-0.518-3.518,1,0,1,81,false,stim,false,2,597,2,0,1,12080,task3,1244476,false,false,1633,image-keyboard-response,10
true,25,2,2,2,true,d,false,true,0.0-2.0-0.57-0.519-3.519,1,0,1,68,false,stim,false,2,583,2,1,2,12080,task3,1246579,false,false,1636,image-keyboard-response,11
true,25,2,2,2,true,d,false,true,0.0-2.0-0.57-0.520-3.520,1,0,1,68,false,stim,false,2,678,2,1,2,12080,task3,1248781,false,false,1639,image-keyboard-response,12
true,25,1,2,1,true,z,false,true,0.0-2.0-0.57-0.521-3.521,1,0,1,90,false,stim,false,1,440,2,1,0,12080,task3,1250738,false,false,1642,image-keyboard-response,13
true,25,1,2,1,true,z,false,true,0.0-2.0-0.58-0.522-3.522,1,0,1,90,false,stim,false,1,764,2,1,0,12080,task3,1253027,false,false,1645,image-keyboard-response,14
true,25,1,2,1,true,z,false,true,0.0-2.0-0.58-0.523-3.523,1,0,1,90,false,stim,false,1,735,2,1,0,12080,task3,1255278,false,false,1648,image-keyboard-response,15
true,26,0,0,2,false,d,true,false,0.0-2.0-0.58-0.524-3.524,1,1,1,81,true,stim,false,2,892,2,1,2,12080,task3,1370142,false,false,1763,image-keyboard-response,1
true,26,0,0,0,true,q,false,true,0.0-2.0-0.58-0.525-3.525,1,1,1,81,false,stim,false,0,757,2,1,1,12080,task3,1372429,false,false,1766,image-keyboard-response,2
true,26,2,0,2,true,d,false,true,0.0-2.0-0.58-0.526-3.526,1,1,1,68,false,stim,false,2,793,2,1,2,12080,task3,1374753,false,false,1769,image-keyboard-response,3
true,26,2,0,2,true,d,false,true,0.0-2.0-0.58-0.527-3.527,1,1,1,68,false,stim,false,2,660,2,1,2,12080,task3,1376932,false,false,1772,image-keyboard-response,4
true,26,0,0,0,true,q,false,false,0.0-2.0-0.58-0.528-3.528,1,1,1,81,false,stim,false,0,707,2,1,1,12080,task3,1379159,false,true,1775,image-keyboard-response,5
true,26,0,0,0,true,q,false,true,0.0-2.0-0.58-0.529-3.529,1,1,1,81,false,stim,false,0,639,2,1,1,12080,task3,1381322,false,false,1778,image-keyboard-response,6
true,26,2,0,1,false,z,true,false,0.0-2.0-0.58-0.530-3.530,1,1,1,68,false,stim,false,1,695,2,1,0,12080,task3,1383546,false,false,1781,image-keyboard-response,7
true,26,2,0,2,true,d,false,true,0.0-2.0-0.59-0.531-3.531,1,1,1,68,false,stim,false,2,379,2,1,2,12080,task3,1385459,false,false,1784,image-keyboard-response,8
true,26,2,0,2,true,d,false,true,0.0-2.0-0.59-0.532-3.532,1,1,1,68,false,stim,false,2,547,2,1,2,12080,task3,1387530,false,false,1787,image-keyboard-response,9
true,26,0,0,0,true,q,false,true,0.0-2.0-0.59-0.533-3.533,1,1,1,81,false,stim,false,0,826,2,0,1,12080,task3,1389871,false,false,1790,image-keyboard-response,10
true,26,0,0,1,false,z,true,false,0.0-2.0-0.59-0.534-3.534,1,1,1,81,false,stim,false,1,475,2,1,0,12080,task3,1391860,false,false,1793,image-keyboard-response,11
true,26,0,0,0,true,q,false,true,0.0-2.0-0.59-0.535-3.535,1,1,1,81,false,stim,false,0,917,2,0,1,12080,task3,1394295,false,false,1796,image-keyboard-response,12
true,26,1,0,1,true,z,false,true,0.0-2.0-0.59-0.536-3.536,1,1,1,90,false,stim,false,1,499,2,1,0,12080,task3,1396325,false,false,1799,image-keyboard-response,13
true,26,1,0,1,true,z,false,true,0.0-2.0-0.59-0.537-3.537,1,1,1,90,false,stim,false,1,469,2,1,0,12080,task3,1398329,false,false,1802,image-keyboard-response,14
true,27,2,2,2,true,d,false,true,0.0-2.0-0.59-0.538-3.538,1,0,1,68,true,stim,false,2,854,2,1,2,12080,task3,1400702,false,false,1805,image-keyboard-response,1
true,27,0,2,1,false,z,false,false,0.0-2.0-0.59-0.539-3.539,1,0,1,81,false,stim,true,0,517,2,0,1,12080,task3,1402743,false,false,1808,image-keyboard-response,2
true,27,2,2,2,true,d,false,true,0.0-2.0-0.60-0.540-3.540,1,0,1,68,false,stim,false,2,605,2,1,2,12080,task3,1404878,false,false,1811,image-keyboard-response,3
true,27,1,2,1,true,z,false,true,0.0-2.0-0.60-0.541-3.541,1,0,1,90,false,stim,false,1,523,2,1,0,12080,task3,1406929,false,false,1814,image-keyboard-response,4
true,27,2,2,2,true,d,false,false,0.0-2.0-0.60-0.542-3.542,1,0,1,68,false,stim,false,2,703,2,1,2,12080,task3,1409167,false,true,1817,image-keyboard-response,5
true,27,2,2,2,true,d,false,true,0.0-2.0-0.60-0.543-3.543,1,0,1,68,false,stim,false,2,520,2,1,2,12080,task3,1411216,false,false,1820,image-keyboard-response,6
true,27,0,2,1,false,z,false,false,0.0-2.0-0.60-0.544-3.544,1,0,1,81,false,stim,true,0,654,2,0,1,12080,task3,1413390,false,false,1823,image-keyboard-response,7
true,27,1,2,1,true,z,false,true,0.0-2.0-0.60-0.545-3.545,1,0,1,90,false,stim,false,1,626,2,0,0,12080,task3,1415536,false,false,1826,image-keyboard-response,8
true,27,0,2,1,false,z,false,false,0.0-2.0-0.60-0.546-3.546,1,0,1,81,false,stim,true,0,1514,2,1,1,12080,task3,1418570,false,false,1829,image-keyboard-response,9
true,27,1,2,1,true,z,false,true,0.0-2.0-0.60-0.547-3.547,1,0,1,90,false,stim,false,1,687,2,0,0,12080,task3,1420787,false,false,1832,image-keyboard-response,10
true,27,1,2,1,true,z,false,true,0.0-2.0-0.60-0.548-3.548,1,0,1,90,false,stim,false,0,857,2,1,1,12080,task3,1423177,false,false,1835,image-keyboard-response,11
true,27,1,2,1,true,z,false,true,0.0-2.0-0.61-0.549-3.549,1,0,1,90,false,stim,false,1,503,2,0,0,12080,task3,1425208,false,false,1838,image-keyboard-response,12
true,28,1,2,1,true,z,false,true,0.0-2.0-0.61-0.550-3.550,0,1,1,90,true,stim,false,1,565,2,1,1,12080,task3,1427303,false,false,1841,image-keyboard-response,1
true,28,1,2,1,true,z,false,true,0.0-2.0-0.61-0.551-3.551,0,1,1,90,false,stim,false,1,569,2,1,1,12080,task3,1429396,false,false,1844,image-keyboard-response,2
true,28,1,2,1,true,z,false,true,0.0-2.0-0.61-0.552-3.552,0,1,1,90,false,stim,false,1,408,2,1,1,12080,task3,1431327,false,false,1847,image-keyboard-response,3
true,28,2,2,2,true,d,false,true,0.0-2.0-0.61-0.553-3.553,0,1,1,68,false,stim,false,2,484,2,1,2,12080,task3,1433331,false,false,1850,image-keyboard-response,4
true,28,1,2,2,false,d,false,false,0.0-2.0-0.61-0.554-3.554,0,1,1,90,false,stim,true,1,471,2,0,0,12080,task3,1435326,false,false,1853,image-keyboard-response,5
true,28,1,2,2,false,d,false,false,0.0-2.0-0.61-0.555-3.555,0,1,1,90,false,stim,true,1,376,2,0,0,12080,task3,1437219,false,false,1856,image-keyboard-response,6
true,28,2,2,2,true,d,false,true,0.0-2.0-0.61-0.556-3.556,0,1,1,68,false,stim,false,2,826,2,1,2,12080,task3,1439576,false,false,1859,image-keyboard-response,7
true,28,2,2,2,true,d,false,true,0.0-2.0-0.61-0.557-3.557,0,1,1,68,false,stim,false,2,731,2,1,2,12080,task3,1441834,false,false,1862,image-keyboard-response,8
true,28,0,2,2,false,d,true,false,0.0-2.0-0.62-0.558-3.558,0,1,1,81,false,stim,false,1,817,2,0,0,12080,task3,1444184,false,false,1865,image-keyboard-response,9
true,28,1,2,2,false,d,false,false,0.0-2.0-0.62-0.559-3.559,0,1,1,90,false,stim,true,1,773,2,0,0,12080,task3,1446473,false,false,1868,image-keyboard-response,10
true,28,2,2,2,true,d,false,true,0.0-2.0-0.62-0.560-3.560,0,1,1,68,false,stim,false,1,584,2,1,0,12080,task3,1448580,false,false,1871,image-keyboard-response,11
true,28,2,2,2,true,d,false,true,0.0-2.0-0.62-0.561-3.561,0,1,1,68,false,stim,false,2,956,2,1,2,12080,task3,1451059,false,false,1874,image-keyboard-response,12
true,28,2,2,2,true,d,false,true,0.0-2.0-0.62-0.562-3.562,0,1,1,68,false,stim,false,2,1128,2,1,2,12080,task3,1453705,false,false,1877,image-keyboard-response,13
true,28,2,2,2,true,d,false,true,0.0-2.0-0.62-0.563-3.563,0,1,1,68,false,stim,false,2,590,2,1,2,12080,task3,1455821,false,false,1880,image-keyboard-response,14
true,28,0,2,1,false,z,true,false,0.0-2.0-0.62-0.564-3.564,0,1,1,81,false,stim,false,1,988,2,0,1,12080,task3,1458334,false,false,1883,image-keyboard-response,15
true,29,1,2,0,false,q,false,true,0.0-2.0-0.62-0.565-3.565,1,0,1,90,true,stim,true,1,472,2,0,1,12080,task3,1460332,false,true,1886,image-keyboard-response,1
true,29,1,2,0,false,q,false,false,0.0-2.0-0.62-0.566-3.566,1,0,1,90,false,stim,true,1,457,2,0,1,12080,task3,1462312,false,false,1889,image-keyboard-response,2
true,29,1,2,0,false,q,false,false,0.0-2.0-0.63-0.567-3.567,1,0,1,90,false,stim,true,1,358,2,0,1,12080,task3,1464187,false,false,1892,image-keyboard-response,3
true,29,2,2,2,true,d,false,true,0.0-2.0-0.63-0.568-3.568,1,0,1,68,false,stim,false,2,494,2,1,2,12080,task3,1466199,false,false,1895,image-keyboard-response,4
true,29,1,2,0,false,q,false,false,0.0-2.0-0.63-0.569-3.569,1,0,1,90,false,stim,true,1,595,2,0,1,12080,task3,1468326,false,false,1898,image-keyboard-response,5
true,29,2,2,0,false,q,true,false,0.0-2.0-0.63-0.570-3.570,1,0,1,68,false,stim,false,1,890,2,0,1,12080,task3,1470756,false,false,1901,image-keyboard-response,6
true,29,2,2,2,true,d,false,true,0.0-2.0-0.63-0.571-3.571,1,0,1,68,false,stim,false,2,437,2,1,0,12080,task3,1472713,false,false,1904,image-keyboard-response,7
true,29,2,2,2,true,d,false,false,0.0-2.0-0.63-0.572-3.572,1,0,1,68,false,stim,false,2,404,2,1,2,12080,task3,1474641,false,true,1907,image-keyboard-response,8
true,29,2,2,2,true,d,false,true,0.0-2.0-0.63-0.573-3.573,1,0,1,68,false,stim,false,2,390,2,0,2,12080,task3,1476551,false,false,1910,image-keyboard-response,9
true,29,2,2,2,true,d,false,true,0.0-2.0-0.63-0.574-3.574,1,0,1,68,false,stim,false,2,575,2,0,0,12080,task3,1478642,false,false,1913,image-keyboard-response,10
true,29,2,2,2,true,d,false,true,0.0-2.0-0.63-0.575-3.575,1,0,1,68,false,stim,false,2,441,2,0,0,12080,task3,1480600,false,false,1916,image-keyboard-response,11
true,29,2,2,2,true,d,false,true,0.0-2.0-0.64-0.576-3.576,1,0,1,68,false,stim,false,2,392,2,0,0,12080,task3,1482516,false,false,1919,image-keyboard-response,12
true,29,2,2,2,true,d,false,true,0.0-2.0-0.64-0.577-3.577,1,0,1,68,false,stim,false,2,352,2,0,0,12080,task3,1484392,false,false,1922,image-keyboard-response,13
true,30,0,1,0,true,q,false,true,0.0-2.0-0.64-0.578-3.578,0,1,0,81,true,stim,false,0,392,2,1,1,12080,task3,1486302,false,false,1925,image-keyboard-response,1
true,30,0,1,0,true,q,false,true,0.0-2.0-0.64-0.579-3.579,0,1,0,81,false,stim,false,0,1019,2,1,1,12080,task3,1488851,false,false,1928,image-keyboard-response,2
true,30,0,1,0,true,q,false,true,0.0-2.0-0.64-0.580-3.580,0,1,0,81,false,stim,false,0,468,2,1,1,12080,task3,1490840,false,false,1931,image-keyboard-response,3
true,30,2,1,0,false,q,false,false,0.0-2.0-0.64-0.581-3.581,0,1,0,68,false,stim,true,2,516,2,0,2,12080,task3,1492887,false,false,1934,image-keyboard-response,4
true,30,2,1,0,false,q,false,false,0.0-2.0-0.64-0.582-3.582,0,1,0,68,false,stim,true,2,446,2,0,2,12080,task3,1494862,false,false,1937,image-keyboard-response,5
true,30,0,1,1,false,z,true,false,0.0-2.0-0.64-0.583-3.583,0,1,0,81,false,stim,false,2,497,2,0,0,12080,task3,1496880,false,false,1940,image-keyboard-response,6
true,30,2,1,0,false,q,false,false,0.0-2.0-0.64-0.584-3.584,0,1,0,68,false,stim,true,2,589,2,0,2,12080,task3,1498983,false,false,1943,image-keyboard-response,7
true,30,2,1,1,false,z,false,false,0.0-2.0-0.65-0.585-3.585,0,1,0,68,false,stim,true,2,1364,2,1,0,12080,task3,1501868,false,false,1946,image-keyboard-response,8
true,30,1,1,1,true,z,false,true,0.0-2.0-0.65-0.586-3.586,0,1,0,90,false,stim,false,2,415,2,1,0,12080,task3,1503811,false,false,1949,image-keyboard-response,9
true,30,1,1,0,false,q,true,false,0.0-2.0-0.65-0.587-3.587,0,1,0,90,false,stim,false,0,576,2,0,1,12080,task3,1505905,false,false,1952,image-keyboard-response,10
true,30,1,1,0,false,q,true,false,0.0-2.0-0.65-0.588-3.588,0,1,0,90,false,stim,false,2,937,2,1,2,12080,task3,1508367,false,false,1955,image-keyboard-response,11
true,30,0,1,0,true,q,false,true,0.0-2.0-0.65-0.589-3.589,0,1,0,81,false,stim,false,0,727,2,0,1,12080,task3,1510619,false,false,1958,image-keyboard-response,12
true,31,0,2,0,true,q,false,false,0.0-2.0-0.65-0.590-3.590,1,0,1,81,true,stim,false,0,701,2,1,2,12080,task3,1512837,false,true,1961,image-keyboard-response,1
true,31,1,2,1,true,z,false,true,0.0-2.0-0.65-0.591-3.591,1,0,1,90,false,stim,false,1,822,2,1,0,12080,task3,1515180,false,false,1964,image-keyboard-response,2
true,31,0,2,1,false,z,false,false,0.0-2.0-0.65-0.592-3.592,1,0,1,81,false,stim,true,0,637,2,0,1,12080,task3,1517347,false,false,1967,image-keyboard-response,3
true,31,2,2,0,false,q,true,false,0.0-2.0-0.65-0.593-3.593,1,0,1,68,false,stim,false,0,623,2,1,2,12080,task3,1519501,false,false,1970,image-keyboard-response,4
true,31,0,2,0,true,q,false,true,0.0-2.0-0.66-0.594-3.594,1,0,1,81,false,stim,false,0,1106,2,1,2,12080,task3,1522130,false,false,1973,image-keyboard-response,5
true,31,1,2,1,true,z,false,true,0.0-2.0-0.66-0.595-3.595,1,0,1,90,false,stim,false,1,421,2,1,0,12080,task3,1524073,false,false,1976,image-keyboard-response,6
true,31,1,2,1,true,z,false,true,0.0-2.0-0.66-0.596-3.596,1,0,1,90,false,stim,false,1,404,2,1,0,12080,task3,1525997,false,false,1979,image-keyboard-response,7
true,31,0,2,1,false,z,false,false,0.0-2.0-0.66-0.597-3.597,1,0,1,81,false,stim,true,0,433,2,0,1,12080,task3,1527955,false,false,1982,image-keyboard-response,8
true,31,0,2,1,false,z,false,false,0.0-2.0-0.66-0.598-3.598,1,0,1,81,false,stim,true,0,364,2,1,1,12080,task3,1529841,false,false,1985,image-keyboard-response,9
true,31,1,2,1,true,z,false,true,0.0-2.0-0.66-0.599-3.599,1,0,1,90,false,stim,false,1,476,2,0,0,12080,task3,1531839,false,false,1988,image-keyboard-response,10
true,31,0,2,0,true,q,false,true,0.0-2.0-0.66-0.600-3.600,1,0,1,81,false,stim,false,0,397,2,1,2,12080,task3,1533761,false,false,1991,image-keyboard-response,11
true,31,0,2,0,true,q,false,true,0.0-2.0-0.66-0.601-3.601,1,0,1,81,false,stim,false,0,445,2,1,2,12080,task3,1535727,false,false,1994,image-keyboard-response,12
true,31,0,2,1,false,z,false,false,0.0-2.0-0.66-0.602-3.602,1,0,1,81,false,stim,true,0,413,2,1,1,12080,task3,1537664,false,false,1997,image-keyboard-response,13
true,32,0,2,0,true,q,false,true,0.0-2.0-0.67-0.603-3.603,0,1,1,81,true,stim,false,0,1021,2,1,2,12080,task3,1540203,false,false,2000,image-keyboard-response,1
true,32,1,2,0,false,q,false,false,0.0-2.0-0.67-0.604-3.604,0,1,1,90,false,stim,true,1,557,2,0,0,12080,task3,1542291,false,false,2003,image-keyboard-response,2
true,32,2,2,1,false,z,true,false,0.0-2.0-0.67-0.605-3.605,0,1,1,68,false,stim,false,1,815,2,1,1,12080,task3,1544626,false,false,2006,image-keyboard-response,3
true,32,1,2,0,false,q,false,false,0.0-2.0-0.67-0.606-3.606,0,1,1,90,false,stim,true,1,678,2,0,0,12080,task3,1546819,false,false,2009,image-keyboard-response,4
true,32,0,2,0,true,q,false,true,0.0-2.0-0.67-0.607-3.607,0,1,1,81,false,stim,false,0,517,2,1,2,12080,task3,1548853,false,false,2012,image-keyboard-response,5
true,32,2,2,0,false,q,true,false,0.0-2.0-0.67-0.608-3.608,0,1,1,68,false,stim,false,1,1379,2,0,0,12080,task3,1551753,false,false,2015,image-keyboard-response,6
true,32,0,2,0,true,q,false,true,0.0-2.0-0.67-0.609-3.609,0,1,1,81,false,stim,false,0,478,2,1,2,12080,task3,1553751,false,false,2018,image-keyboard-response,7
true,32,0,2,1,false,z,true,true,0.0-2.0-0.67-0.610-3.610,0,1,1,81,false,stim,false,1,915,2,1,1,12080,task3,1556181,false,true,2021,image-keyboard-response,8
true,32,0,2,1,false,z,true,true,0.0-2.0-0.67-0.611-3.611,0,1,1,81,false,stim,false,1,404,2,1,1,12080,task3,1558118,false,true,2024,image-keyboard-response,9
true,32,0,2,0,true,q,false,true,0.0-2.0-0.68-0.612-3.612,0,1,1,81,false,stim,false,0,370,2,1,2,12080,task3,1560020,false,false,2027,image-keyboard-response,10
true,32,0,2,1,false,z,true,false,0.0-2.0-0.68-0.613-3.613,0,1,1,81,false,stim,false,1,459,2,1,1,12080,task3,1561999,false,false,2030,image-keyboard-response,11
true,32,0,2,1,false,z,true,false,0.0-2.0-0.68-0.614-3.614,0,1,1,81,false,stim,false,1,356,2,1,1,12080,task3,1563889,false,false,2033,image-keyboard-response,12
true,32,2,2,1,false,z,true,false,0.0-2.0-0.68-0.615-3.615,0,1,1,68,false,stim,false,1,974,2,1,1,12080,task3,1566384,false,false,2036,image-keyboard-response,13
true,32,0,2,0,true,q,false,true,0.0-2.0-0.68-0.616-3.616,0,1,1,81,false,stim,false,1,914,2,0,0,12080,task3,1568814,false,false,2039,image-keyboard-response,14
true,32,0,2,0,true,q,false,false,0.0-2.0-0.68-0.617-3.617,0,1,1,81,false,stim,false,0,630,2,1,2,12080,task3,1570961,false,true,2042,image-keyboard-response,15
true,32,0,2,0,true,q,false,true,0.0-2.0-0.68-0.618-3.618,0,1,1,81,false,stim,false,1,521,2,0,0,12080,task3,1573012,false,false,2045,image-keyboard-response,16
true,32,1,2,0,false,q,true,false,0.0-2.0-0.68-0.619-3.619,0,1,1,90,false,stim,false,0,780,2,1,2,12080,task3,1575314,false,false,2048,image-keyboard-response,17
true,32,0,2,0,true,q,false,false,0.0-2.0-0.68-0.620-3.620,0,1,1,81,false,stim,false,1,536,2,0,0,12080,task3,1577372,false,true,2051,image-keyboard-response,18
true,32,0,2,0,true,q,false,false,0.0-2.0-0.69-0.621-3.621,0,1,1,81,false,stim,false,1,351,2,0,0,12080,task3,1579241,false,true,2054,image-keyboard-response,19
true,32,2,2,0,false,q,true,false,0.0-2.0-0.69-0.622-3.622,0,1,1,68,false,stim,false,0,1198,2,1,2,12080,task3,1581965,false,false,2057,image-keyboard-response,20
true,32,1,2,0,false,q,true,false,0.0-2.0-0.69-0.623-3.623,0,1,1,90,false,stim,false,0,728,2,1,2,12080,task3,1584223,false,false,2060,image-keyboard-response,21
true,32,0,2,0,true,q,false,true,0.0-2.0-0.69-0.624-3.624,0,1,1,81,false,stim,false,1,729,2,0,0,12080,task3,1586481,false,false,2063,image-keyboard-response,22
true,32,0,2,0,true,q,false,true,0.0-2.0-0.69-0.625-3.625,0,1,1,81,false,stim,false,1,449,2,0,0,12080,task3,1588451,false,false,2066,image-keyboard-response,23
true,32,0,2,0,true,q,false,true,0.0-2.0-0.69-0.626-3.626,0,1,1,81,false,stim,false,0,377,2,0,2,12080,task3,1590347,false,false,2069,image-keyboard-response,24
true,32,1,2,1,true,z,false,true,0.0-2.0-0.69-0.627-3.627,0,1,1,90,false,stim,false,1,770,2,1,1,12080,task3,1592641,false,false,2072,image-keyboard-response,25
true,32,1,2,1,true,z,false,true,0.0-2.0-0.69-0.628-3.628,0,1,1,90,false,stim,false,1,552,2,1,1,12080,task3,1594722,false,false,2075,image-keyboard-response,26
true,32,1,2,1,true,z,false,true,0.0-2.0-0.69-0.629-3.629,0,1,1,90,false,stim,false,1,410,2,1,1,12080,task3,1596661,false,false,2078,image-keyboard-response,27
true,32,0,2,0,true,q,false,true,0.0-2.0-0.70-0.630-3.630,0,1,1,81,false,stim,false,0,721,2,0,2,12080,task3,1598905,false,false,2081,image-keyboard-response,28
true,33,0,1,1,false,z,true,false,0.0-2.0-0.70-0.631-3.631,0,1,0,81,true,stim,false,1,956,2,1,1,12080,task3,1601391,false,false,2084,image-keyboard-response,1
true,33,0,1,2,false,d,false,false,0.0-2.0-0.70-0.632-3.632,0,1,0,81,false,stim,true,0,523,2,0,0,12080,task3,1603440,false,false,2087,image-keyboard-response,2
true,33,1,1,1,true,z,false,false,0.0-2.0-0.70-0.633-3.633,0,1,0,90,false,stim,false,1,432,2,1,1,12080,task3,1605391,false,true,2090,image-keyboard-response,3
true,33,0,1,1,false,z,false,false,0.0-2.0-0.70-0.634-3.634,0,1,0,81,false,stim,true,0,567,2,0,2,12080,task3,1607480,false,false,2093,image-keyboard-response,4
