answered,blockNum,choice,condition,corResp,correct,correct_response,explo,fb,internal_node_id,isStable_1,isStable_2,isStable_3,key_press,newBlock,part,persev,persevResp,rt,sessNum,stableAS,stimulus,subject,task,time_elapsed,training,trap,trial_index,trial_type,trialsInBlock
true,1,1,0,0,false,q,true,false,0.0-2.0-0.0-0.0-3.0,0,0,0,90,true,stim,false,-1,722.2000000029802,1,0,1,13581,task3,137722,false,false,79,image-keyboard-response,1
true,1,0,0,2,false,d,true,false,0.0-2.0-0.0-0.1-3.1,0,0,0,81,false,stim,false,-1,467.70000000298023,1,0,0,13581,task3,139710,false,false,82,image-keyboard-response,2
true,1,2,0,1,false,z,true,false,0.0-2.0-0.0-0.2-3.2,0,0,0,68,false,stim,false,-1,932.5999999940395,1,0,2,13581,task3,142168,false,false,85,image-keyboard-response,3
true,1,0,0,2,false,d,true,false,0.0-2.0-0.0-0.3-3.3,0,0,0,81,false,stim,false,-1,839.2999999970198,1,0,0,13581,task3,144528,false,false,88,image-keyboard-response,4
true,1,0,0,0,true,q,false,true,0.0-2.0-0.0-0.4-3.4,0,0,0,81,false,stim,false,-1,674.2000000029802,1,0,1,13581,task3,146712,false,false,91,image-keyboard-response,5
true,1,1,0,2,false,d,true,false,0.0-2.0-0.0-0.5-3.5,0,0,0,90,false,stim,false,-1,1521.699999988079,1,0,0,13581,task3,149775,false,false,94,image-keyboard-response,6
true,1,1,0,1,true,z,false,true,0.0-2.0-0.0-0.6-3.6,0,0,0,90,false,stim,false,-1,879.3999999910593,1,0,2,13581,task3,152180,false,false,97,image-keyboard-response,7
true,1,0,0,0,true,q,false,true,0.0-2.0-0.0-0.7-3.7,0,0,0,81,false,stim,false,-1,933.0,1,0,1,13581,task3,154639,false,false,100,image-keyboard-response,8
true,1,1,0,1,true,z,false,true,0.0-2.0-0.0-0.8-3.8,0,0,0,90,false,stim,false,-1,578.0,1,0,2,13581,task3,156734,false,false,103,image-keyboard-response,9
true,1,2,0,2,true,d,false,true,0.0-2.0-0.1-0.9-3.9,0,0,0,68,false,stim,false,-1,450.0,1,0,0,13581,task3,158709,false,false,106,image-keyboard-response,10
true,1,0,0,0,true,q,false,true,0.0-2.0-0.1-0.10-3.10,0,0,0,81,false,stim,false,-1,1060.1000000089407,1,0,1,13581,task3,161291,false,false,109,image-keyboard-response,11
true,1,1,0,1,true,z,false,true,0.0-2.0-0.1-0.11-3.11,0,0,0,90,false,stim,false,-1,702.7000000029802,1,0,2,13581,task3,163510,false,false,112,image-keyboard-response,12
true,1,1,0,1,true,z,false,true,0.0-2.0-0.1-0.12-3.12,0,0,0,90,false,stim,false,-1,634.2000000029802,1,0,2,13581,task3,165656,false,false,115,image-keyboard-response,13
true,1,0,0,0,true,q,false,true,0.0-2.0-0.1-0.13-3.13,0,0,0,81,false,stim,false,-1,887.4000000059605,1,0,1,13581,task3,168073,false,false,118,image-keyboard-response,14
true,1,2,0,2,true,d,false,true,0.0-2.0-0.1-0.14-3.14,0,0,0,68,false,stim,false,-1,649.8999999910593,1,0,0,13581,task3,170252,false,false,121,image-keyboard-response,15
true,1,0,0,0,true,q,false,true,0.0-2.0-0.1-0.15-3.15,0,0,0,81,false,stim,false,-1,740.3999999910593,1,0,1,13581,task3,172514,false,false,124,image-keyboard-response,16
true,1,1,0,1,true,z,false,true,0.0-2.0-0.1-0.16-3.16,0,0,0,90,false,stim,false,-1,513.4000000059605,1,0,2,13581,task3,174547,false,false,127,image-keyboard-response,17
true,1,2,0,2,true,d,false,false,0.0-2.0-0.1-0.17-3.17,0,0,0,68,false,stim,false,-1,455.5,1,0,0,13581,task3,176513,false,true,130,image-keyboard-response,18
true,1,1,0,0,false,q,true,false,0.0-2.0-0.2-0.18-3.18,0,0,0,90,false,stim,false,-1,695.6999999880791,1,0,1,13581,task3,178738,false,false,133,image-keyboard-response,19
true,1,1,0,1,true,z,false,true,0.0-2.0-0.2-0.19-3.19,0,0,0,90,false,stim,false,-1,1109.300000011921,1,0,2,13581,task3,181373,false,false,136,image-keyboard-response,20
true,1,0,0,0,true,q,false,true,0.0-2.0-0.2-0.20-3.20,0,0,0,81,false,stim,false,-1,503.20000000298023,1,0,1,13581,task3,183403,false,false,139,image-keyboard-response,21
true,1,1,0,1,true,z,false,true,0.0-2.0-0.2-0.21-3.21,0,0,0,90,false,stim,false,-1,762.9000000059605,1,0,2,13581,task3,185678,false,false,142,image-keyboard-response,22
true,1,2,0,2,true,d,false,true,0.0-2.0-0.2-0.22-3.22,0,0,0,68,false,stim,false,-1,618.5,1,0,0,13581,task3,187823,false,false,145,image-keyboard-response,23
true,1,2,0,2,true,d,false,true,0.0-2.0-0.2-0.23-3.23,0,0,0,68,false,stim,false,-1,721.4000000059605,1,0,0,13581,task3,190070,false,false,148,image-keyboard-response,24
true,1,2,0,2,true,d,false,true,0.0-2.0-0.2-0.24-3.24,0,0,0,68,false,stim,false,-1,468.20000000298023,1,0,0,13581,task3,192065,false,false,151,image-keyboard-response,25
true,1,1,0,0,false,q,true,false,0.0-2.0-0.2-0.25-3.25,0,0,0,90,false,stim,false,-1,688.2999999970198,1,0,1,13581,task3,194281,false,false,154,image-keyboard-response,26
true,1,1,0,1,true,z,false,false,0.0-2.0-0.2-0.26-3.26,0,0,0,90,false,stim,false,-1,1081.2999999970198,1,1,2,13581,task3,196891,false,true,157,image-keyboard-response,27
true,2,2,1,0,false,q,false,false,0.0-2.0-0.3-0.27-3.27,0,0,1,68,true,stim,true,2,825.7999999970198,1,0,0,13581,task3,199236,false,false,160,image-keyboard-response,1
true,2,0,1,1,false,z,false,false,0.0-2.0-0.3-0.28-3.28,0,0,1,81,false,stim,true,0,1194.7999999970198,1,0,1,13581,task3,201941,false,false,163,image-keyboard-response,2
true,2,1,1,1,true,z,false,true,0.0-2.0-0.3-0.29-3.29,0,0,1,90,false,stim,false,0,683.7999999970198,1,0,1,13581,task3,204147,false,false,166,image-keyboard-response,3
true,2,0,1,1,false,z,true,false,0.0-2.0-0.3-0.30-3.30,0,0,1,81,false,stim,false,1,962.0999999940395,1,1,2,13581,task3,206632,false,false,169,image-keyboard-response,4
true,2,2,1,1,false,z,true,false,0.0-2.0-0.3-0.31-3.31,0,0,1,68,false,stim,false,1,770.0,1,1,2,13581,task3,208922,false,false,172,image-keyboard-response,5
true,2,0,1,0,true,q,false,true,0.0-2.0-0.3-0.32-3.32,0,0,1,81,false,stim,false,2,869.6999999880791,1,0,0,13581,task3,211298,false,false,175,image-keyboard-response,6
true,2,0,1,0,true,q,false,true,0.0-2.0-0.3-0.33-3.33,0,0,1,81,false,stim,false,2,554.2999999970198,1,0,0,13581,task3,213371,false,false,178,image-keyboard-response,7
true,2,1,1,1,true,z,false,true,0.0-2.0-0.3-0.34-3.34,0,0,1,90,false,stim,false,1,849.5,1,1,2,13581,task3,215737,false,false,181,image-keyboard-response,8
true,2,1,1,1,true,z,false,true,0.0-2.0-0.3-0.35-3.35,0,0,1,90,false,stim,false,0,898.3000000119209,1,0,1,13581,task3,218170,false,false,184,image-keyboard-response,9
true,2,0,1,0,true,q,false,true,0.0-2.0-0.4-0.36-3.36,0,0,1,81,false,stim,false,2,497.0,1,0,0,13581,task3,220188,false,false,187,image-keyboard-response,10
true,2,1,1,1,true,z,false,true,0.0-2.0-0.4-0.37-3.37,0,0,1,90,false,stim,false,1,685.5,1,1,2,13581,task3,222383,false,false,190,image-keyboard-response,11
true,2,1,1,1,true,z,false,true,0.0-2.0-0.4-0.38-3.38,0,0,1,90,false,stim,false,1,411.79999999701977,1,1,2,13581,task3,224328,false,false,193,image-keyboard-response,12
true,2,0,1,0,true,q,false,true,0.0-2.0-0.4-0.39-3.39,0,0,1,81,false,stim,false,2,551.0999999940395,1,0,0,13581,task3,226403,false,false,196,image-keyboard-response,13
true,2,0,1,0,true,q,false,true,0.0-2.0-0.4-0.40-3.40,0,0,1,81,false,stim,false,2,626.5,1,0,0,13581,task3,228544,false,false,199,image-keyboard-response,14
true,2,1,1,1,true,z,false,true,0.0-2.0-0.4-0.41-3.41,0,0,1,90,false,stim,false,0,443.5,1,0,1,13581,task3,230513,false,false,202,image-keyboard-response,15
true,2,1,1,1,true,z,false,true,0.0-2.0-0.4-0.42-3.42,0,0,1,90,false,stim,false,0,348.5,1,0,1,13581,task3,232375,false,false,205,image-keyboard-response,16
true,2,1,1,1,true,z,false,true,0.0-2.0-0.4-0.43-3.43,0,0,1,90,false,stim,false,1,581.0999999940395,1,1,2,13581,task3,234468,false,false,208,image-keyboard-response,17
true,2,1,1,1,true,z,false,true,0.0-2.0-0.4-0.44-3.44,0,0,1,90,false,stim,false,0,394.20000000298023,1,0,1,13581,task3,236373,false,false,211,image-keyboard-response,18
true,2,0,1,0,true,q,false,true,0.0-2.0-0.5-0.45-3.45,0,0,1,81,false,stim,false,2,601.6000000089407,1,0,0,13581,task3,238499,false,false,214,image-keyboard-response,19
true,2,0,1,0,true,q,false,true,0.0-2.0-0.5-0.46-3.46,0,0,1,81,false,stim,false,2,610.7999999970198,1,1,0,13581,task3,240634,false,false,217,image-keyboard-response,20
true,2,1,1,1,true,z,false,true,0.0-2.0-0.5-0.47-3.47,0,0,1,90,false,stim,false,1,419.6000000089407,1,1,2,13581,task3,242570,false,false,220,image-keyboard-response,21
true,2,0,1,0,true,q,false,true,0.0-2.0-0.5-0.48-3.48,0,0,1,81,false,stim,false,2,572.5,1,1,0,13581,task3,244666,false,false,223,image-keyboard-response,22
true,2,1,1,1,true,z,false,true,0.0-2.0-0.5-0.49-3.49,0,0,1,90,false,stim,false,1,523.0,1,1,2,13581,task3,246706,false,false,226,image-keyboard-response,23
true,2,1,1,1,true,z,false,true,0.0-2.0-0.5-0.50-3.50,0,0,1,90,false,stim,false,1,367.20000000298023,1,1,2,13581,task3,248590,false,false,229,image-keyboard-response,24
true,3,1,2,0,false,q,false,false,0.0-2.0-0.5-0.51-3.51,1,0,1,90,true,stim,true,1,360.5,1,0,1,13581,task3,250481,false,false,232,image-keyboard-response,1
true,3,1,2,0,false,q,false,false,0.0-2.0-0.5-0.52-3.52,1,0,1,90,false,stim,true,1,542.5999999940395,1,0,1,13581,task3,252532,false,false,235,image-keyboard-response,2
true,3,0,2,0,true,q,false,true,0.0-2.0-0.5-0.53-3.53,1,0,1,81,false,stim,false,1,904.7000000029802,1,0,1,13581,task3,254959,false,false,238,image-keyboard-response,3
true,3,0,2,0,true,q,false,true,0.0-2.0-0.6-0.54-3.54,1,0,1,81,false,stim,false,0,714.1000000089407,1,1,0,13581,task3,257187,false,false,241,image-keyboard-response,4
true,3,1,2,1,true,z,false,true,0.0-2.0-0.6-0.55-3.55,1,0,1,90,false,stim,false,1,497.79999999701977,1,1,2,13581,task3,259205,false,false,244,image-keyboard-response,5
true,3,0,2,0,true,q,false,false,0.0-2.0-0.6-0.56-3.56,1,0,1,81,false,stim,false,1,431.19999998807907,1,0,1,13581,task3,261160,false,true,247,image-keyboard-response,6
true,3,0,2,0,true,q,false,true,0.0-2.0-0.6-0.57-3.57,1,0,1,81,false,stim,false,0,967.0,1,1,0,13581,task3,263641,false,false,250,image-keyboard-response,7
true,3,1,2,0,false,q,false,false,0.0-2.0-0.6-0.58-3.58,1,0,1,90,false,stim,true,1,806.0,1,0,1,13581,task3,265962,false,false,253,image-keyboard-response,8
true,3,1,2,1,true,z,false,true,0.0-2.0-0.6-0.59-3.59,1,0,1,90,false,stim,false,1,1134.5999999940395,1,1,2,13581,task3,268622,false,false,256,image-keyboard-response,9
true,3,0,2,0,true,q,false,true,0.0-2.0-0.6-0.60-3.60,1,0,1,81,false,stim,false,0,524.5,1,1,0,13581,task3,270678,false,false,259,image-keyboard-response,10
true,3,2,2,0,false,q,true,true,0.0-2.0-0.6-0.61-3.61,1,0,1,68,false,stim,false,1,754.8999999910593,1,0,1,13581,task3,272963,false,true,262,image-keyboard-response,11
true,3,1,2,1,true,z,false,false,0.0-2.0-0.6-0.62-3.62,1,0,1,90,false,stim,false,1,1647.0999999940395,1,1,2,13581,task3,276139,false,true,265,image-keyboard-response,12
true,3,2,2,0,false,q,true,false,0.0-2.0-0.7-0.63-3.63,1,0,1,68,false,stim,false,1,1048.9000000059605,1,0,1,13581,task3,278703,false,false,268,image-keyboard-response,13
true,3,0,2,0,true,q,false,true,0.0-2.0-0.7-0.64-3.64,1,0,1,81,false,stim,false,0,785.3999999910593,1,1,0,13581,task3,281008,false,false,271,image-keyboard-response,14
true,3,0,2,0,true,q,false,true,0.0-2.0-0.7-0.65-3.65,1,0,1,81,false,stim,false,0,590.4000000059605,1,1,0,13581,task3,283119,false,false,274,image-keyboard-response,15
true,3,1,2,0,false,q,false,false,0.0-2.0-0.7-0.66-3.66,1,0,1,90,false,stim,true,1,1025.5999999940395,1,0,1,13581,task3,285663,false,false,277,image-keyboard-response,16
true,3,0,2,0,true,q,false,true,0.0-2.0-0.7-0.67-3.67,1,0,1,81,false,stim,false,1,435.5,1,0,1,13581,task3,287610,false,false,280,image-keyboard-response,17
true,3,1,2,1,true,z,false,true,0.0-2.0-0.7-0.68-3.68,1,0,1,90,false,stim,false,1,1069.0,1,1,2,13581,task3,290205,false,false,283,image-keyboard-response,18
true,3,0,2,0,true,q,false,true,0.0-2.0-0.7-0.69-3.69,1,0,1,81,false,stim,false,0,653.5999999940395,1,1,0,13581,task3,292379,false,false,286,image-keyboard-response,19
true,3,1,2,1,true,z,false,true,0.0-2.0-0.7-0.70-3.70,1,0,1,90,false,stim,false,1,515.0999999940395,1,1,2,13581,task3,294419,false,false,289,image-keyboard-response,20
true,3,1,2,1,true,z,false,true,0.0-2.0-0.7-0.71-3.71,1,0,1,90,false,stim,false,1,560.0,1,1,2,13581,task3,296499,false,false,292,image-keyboard-response,21
true,3,1,2,1,true,z,false,true,0.0-2.0-0.8-0.72-3.72,1,0,1,90,false,stim,false,1,498.79999999701977,1,1,2,13581,task3,298504,false,false,295,image-keyboard-response,22
true,3,0,2,0,true,q,false,false,0.0-2.0-0.8-0.73-3.73,1,0,1,81,false,stim,false,0,511.40000000596046,1,1,0,13581,task3,300529,false,true,298,image-keyboard-response,23
true,3,0,2,0,true,q,false,true,0.0-2.0-0.8-0.74-3.74,1,0,1,81,false,stim,false,0,419.1000000089407,1,1,0,13581,task3,302475,false,false,301,image-keyboard-response,24
true,3,1,2,1,true,z,false,true,0.0-2.0-0.8-0.75-3.75,1,0,1,90,false,stim,false,1,1506.4000000059605,1,1,2,13581,task3,305500,false,false,304,image-keyboard-response,25
true,3,1,2,1,true,z,false,true,0.0-2.0-0.8-0.76-3.76,1,0,1,90,false,stim,false,1,533.7999999970198,1,1,2,13581,task3,307553,false,false,307,image-keyboard-response,26
true,3,0,2,0,true,q,false,true,0.0-2.0-0.8-0.77-3.77,1,0,1,81,false,stim,false,1,731.0,1,0,1,13581,task3,309799,false,false,310,image-keyboard-response,27
true,3,0,2,0,true,q,false,true,0.0-2.0-0.8-0.78-3.78,1,0,1,81,false,stim,false,1,423.1000000089407,1,0,1,13581,task3,311744,false,false,313,image-keyboard-response,28
true,4,0,2,0,true,q,false,true,0.0-2.0-0.8-0.79-3.79,1,0,1,81,true,stim,false,0,613.6999999880791,1,1,0,13581,task3,313884,false,false,316,image-keyboard-response,1
true,4,0,2,2,false,d,false,false,0.0-2.0-0.8-0.80-3.80,1,0,1,81,false,stim,true,0,685.6000000089407,1,0,1,13581,task3,316076,false,false,319,image-keyboard-response,2
true,4,0,2,0,true,q,false,true,0.0-2.0-0.9-0.81-3.81,1,0,1,81,false,stim,false,0,1177.3999999910593,1,1,0,13581,task3,318785,false,false,322,image-keyboard-response,3
true,4,0,2,2,false,d,false,false,0.0-2.0-0.9-0.82-3.82,1,0,1,81,false,stim,true,0,437.79999999701977,1,0,1,13581,task3,320743,false,false,325,image-keyboard-response,4
true,4,0,2,0,true,q,false,false,0.0-2.0-0.9-0.83-3.83,1,0,1,81,false,stim,false,0,899.2999999970198,1,1,0,13581,task3,323160,false,true,328,image-keyboard-response,5
true,4,1,2,2,false,d,true,false,0.0-2.0-0.9-0.84-3.84,1,0,1,90,false,stim,false,0,873.4000000059605,1,0,1,13581,task3,325551,false,false,331,image-keyboard-response,6
true,4,1,2,1,true,z,false,true,0.0-2.0-0.9-0.85-3.85,1,0,1,90,false,stim,false,1,780.1999999880791,1,1,2,13581,task3,327857,false,false,334,image-keyboard-response,7
true,4,1,2,1,true,z,false,true,0.0-2.0-0.9-0.86-3.86,1,0,1,90,false,stim,false,1,1376.699999988079,1,0,2,13581,task3,330772,false,false,337,image-keyboard-response,8
true,4,2,2,2,true,d,false,true,0.0-2.0-0.9-0.87-3.87,1,0,1,68,false,stim,false,0,781.5,1,1,1,13581,task3,333061,false,false,340,image-keyboard-response,9
true,4,0,2,0,true,q,false,true,0.0-2.0-0.9-0.88-3.88,1,0,1,81,false,stim,false,0,726.3999999910593,1,0,0,13581,task3,335315,false,false,343,image-keyboard-response,10
true,4,1,2,1,true,z,false,false,0.0-2.0-0.9-0.89-3.89,1,0,1,90,false,stim,false,1,866.7999999970198,1,0,2,13581,task3,337700,false,true,346,image-keyboard-response,11
true,4,2,2,2,true,d,false,true,0.0-2.0-0.10-0.90-3.90,1,0,1,68,false,stim,false,0,816.0999999940395,1,1,1,13581,task3,340028,false,false,349,image-keyboard-response,12
true,5,0,1,1,false,z,false,false,0.0-2.0-0.10-0.91-3.91,0,1,0,81,true,stim,true,0,711.7999999970198,1,0,0,13581,task3,342253,false,false,352,image-keyboard-response,1
true,5,1,1,0,false,q,false,false,0.0-2.0-0.10-0.92-3.92,0,1,0,90,false,stim,true,1,387.59999999403954,1,0,2,13581,task3,344161,false,false,355,image-keyboard-response,2
true,5,1,1,1,true,z,false,true,0.0-2.0-0.10-0.93-3.93,0,1,0,90,false,stim,false,0,876.3999999910593,1,0,0,13581,task3,346558,false,false,358,image-keyboard-response,3
true,5,2,1,2,true,d,false,true,0.0-2.0-0.10-0.94-3.94,0,1,0,68,false,stim,false,2,808.5999999940395,1,1,1,13581,task3,348886,false,false,361,image-keyboard-response,4
true,5,1,1,1,true,z,false,true,0.0-2.0-0.10-0.95-3.95,0,1,0,90,false,stim,false,0,429.70000000298023,1,0,0,13581,task3,350832,false,false,364,image-keyboard-response,5
true,5,2,1,0,false,q,true,true,0.0-2.0-0.10-0.96-3.96,0,1,0,68,false,stim,false,1,416.59999999403954,1,0,2,13581,task3,352784,false,true,367,image-keyboard-response,6
true,5,2,1,2,true,d,false,true,0.0-2.0-0.10-0.97-3.97,0,1,0,68,false,stim,false,2,467.30000001192093,1,1,1,13581,task3,354778,false,false,370,image-keyboard-response,7
true,5,2,1,0,false,q,true,false,0.0-2.0-0.10-0.98-3.98,0,1,0,68,false,stim,false,1,824.0,1,0,2,13581,task3,357137,false,false,373,image-keyboard-response,8
true,5,1,1,1,true,z,false,false,0.0-2.0-0.11-0.99-3.99,0,1,0,90,false,stim,false,0,702.2999999970198,1,0,0,13581,task3,359372,false,true,376,image-keyboard-response,9
true,5,2,1,2,true,d,false,true,0.0-2.0-0.11-0.100-3.100,0,1,0,68,false,stim,false,2,860.0999999940395,1,1,1,13581,task3,361748,false,false,379,image-keyboard-response,10
true,5,0,1,1,false,z,false,false,0.0-2.0-0.11-0.101-3.101,0,1,0,81,false,stim,true,0,1379.2999999970198,1,0,0,13581,task3,364654,false,false,382,image-keyboard-response,11
true,5,1,1,0,false,q,false,false,0.0-2.0-0.11-0.102-3.102,0,1,0,90,false,stim,true,1,1335.0999999940395,1,0,2,13581,task3,367504,false,false,385,image-keyboard-response,12
true,5,2,1,2,true,d,false,true,0.0-2.0-0.11-0.103-3.103,0,1,0,68,false,stim,false,2,435.40000000596046,1,1,1,13581,task3,369464,false,false,388,image-keyboard-response,13
true,5,2,1,2,true,d,false,true,0.0-2.0-0.11-0.104-3.104,0,1,0,68,false,stim,false,2,455.90000000596046,1,1,1,13581,task3,371464,false,false,391,image-keyboard-response,14
true,5,2,1,0,false,q,true,false,0.0-2.0-0.11-0.105-3.105,0,1,0,68,false,stim,false,1,385.70000000298023,1,0,2,13581,task3,373369,false,false,394,image-keyboard-response,15
true,5,1,1,1,true,z,false,true,0.0-2.0-0.11-0.106-3.106,0,1,0,90,false,stim,false,0,994.2999999970198,1,0,0,13581,task3,375875,false,false,397,image-keyboard-response,16
true,5,1,1,0,false,q,false,false,0.0-2.0-0.11-0.107-3.107,0,1,0,90,false,stim,true,1,989.8999999910593,1,0,2,13581,task3,378379,false,false,400,image-keyboard-response,17
true,5,1,1,1,true,z,false,true,0.0-2.0-0.12-0.108-3.108,0,1,0,90,false,stim,false,0,685.1000000089407,1,0,0,13581,task3,380603,false,false,403,image-keyboard-response,18
true,5,1,1,1,true,z,false,true,0.0-2.0-0.12-0.109-3.109,0,1,0,90,false,stim,false,0,430.90000000596046,1,0,0,13581,task3,382553,false,false,406,image-keyboard-response,19
true,5,2,1,2,true,d,false,true,0.0-2.0-0.12-0.110-3.110,0,1,0,68,false,stim,false,2,845.8999999910593,1,1,1,13581,task3,384923,false,false,409,image-keyboard-response,20
true,5,2,1,2,true,d,false,true,0.0-2.0-0.12-0.111-3.111,0,1,0,68,false,stim,false,2,687.1999999880791,1,1,1,13581,task3,387119,false,false,412,image-keyboard-response,21
true,5,0,1,0,true,q,false,true,0.0-2.0-0.12-0.112-3.112,0,1,0,81,false,stim,false,1,700.5,1,1,2,13581,task3,389355,false,false,415,image-keyboard-response,22
true,5,2,1,2,true,d,false,true,0.0-2.0-0.12-0.113-3.113,0,1,0,68,false,stim,false,2,1031.199999988079,1,1,1,13581,task3,391910,false,false,418,image-keyboard-response,23
true,5,0,1,0,true,q,false,true,0.0-2.0-0.12-0.114-3.114,0,1,0,81,false,stim,false,1,1652.7000000029802,1,1,2,13581,task3,395086,false,false,421,image-keyboard-response,24
true,5,1,1,1,true,z,false,true,0.0-2.0-0.12-0.115-3.115,0,1,0,90,false,stim,false,0,703.5,1,0,0,13581,task3,397317,false,false,424,image-keyboard-response,25
true,6,0,2,0,true,q,false,false,0.0-2.0-0.12-0.116-3.116,0,1,1,81,true,stim,false,0,801.0999999940395,1,1,2,13581,task3,399640,false,true,427,image-keyboard-response,1
true,6,0,2,0,true,q,false,true,0.0-2.0-0.13-0.117-3.117,0,1,1,81,false,stim,false,0,1484.1000000089407,1,1,2,13581,task3,402650,false,false,430,image-keyboard-response,2
true,6,0,2,0,true,q,false,true,0.0-2.0-0.13-0.118-3.118,0,1,1,81,false,stim,false,0,523.8999999910593,1,1,2,13581,task3,404699,false,false,433,image-keyboard-response,3
true,6,1,2,0,false,q,false,false,0.0-2.0-0.13-0.119-3.119,0,1,1,90,false,stim,true,1,456.5,1,0,0,13581,task3,406674,false,false,436,image-keyboard-response,4
true,6,0,2,0,true,q,false,true,0.0-2.0-0.13-0.120-3.120,0,1,1,81,false,stim,false,0,672.7999999970198,1,1,2,13581,task3,408870,false,false,439,image-keyboard-response,5
true,6,2,2,2,true,d,false,true,0.0-2.0-0.13-0.121-3.121,0,1,1,68,false,stim,false,2,558.8000000119209,1,1,1,13581,task3,410934,false,false,442,image-keyboard-response,6
true,6,2,2,2,true,d,false,true,0.0-2.0-0.13-0.122-3.122,0,1,1,68,false,stim,false,2,600.7999999970198,1,1,1,13581,task3,413052,false,false,445,image-keyboard-response,7
true,6,2,2,2,true,d,false,true,0.0-2.0-0.13-0.123-3.123,0,1,1,68,false,stim,false,2,418.59999999403954,1,1,1,13581,task3,415002,false,false,448,image-keyboard-response,8
true,6,1,2,0,false,q,false,false,0.0-2.0-0.13-0.124-3.124,0,1,1,90,false,stim,true,1,1586.7000000029802,1,0,0,13581,task3,418122,false,false,451,image-keyboard-response,9
true,6,0,2,0,true,q,false,true,0.0-2.0-0.13-0.125-3.125,0,1,1,81,false,stim,false,1,721.7000000029802,1,0,0,13581,task3,420367,false,false,454,image-keyboard-response,10
true,6,2,2,2,true,d,false,true,0.0-2.0-0.14-0.126-3.126,0,1,1,68,false,stim,false,2,748.4000000059605,1,1,1,13581,task3,422642,false,false,457,image-keyboard-response,11
true,6,2,2,2,true,d,false,true,0.0-2.0-0.14-0.127-3.127,0,1,1,68,false,stim,false,2,483.29999999701977,1,1,1,13581,task3,424646,false,false,460,image-keyboard-response,12
true,6,2,2,2,true,d,false,false,0.0-2.0-0.14-0.128-3.128,0,1,1,68,false,stim,false,2,530.5,1,1,1,13581,task3,426725,false,true,463,image-keyboard-response,13
true,6,0,2,0,true,q,false,true,0.0-2.0-0.14-0.129-3.129,0,1,1,81,false,stim,false,1,773.1999999880791,1,1,0,13581,task3,429028,false,false,466,image-keyboard-response,14
true,6,0,2,0,true,q,false,true,0.0-2.0-0.14-0.130-3.130,0,1,1,81,false,stim,false,0,751.0,1,0,2,13581,task3,431312,false,false,469,image-keyboard-response,15
true,7,0,2,0,true,q,false,true,0.0-2.0-0.14-0.131-3.131,1,1,0,81,true,stim,false,0,432.90000000596046,1,1,0,13581,task3,433272,false,false,472,image-keyboard-response,1
true,7,0,2,0,true,q,false,false,0.0-2.0-0.14-0.132-3.132,1,1,0,81,false,stim,false,0,340.90000000596046,1,1,0,13581,task3,435137,false,true,475,image-keyboard-response,2
true,7,0,2,2,false,d,false,false,0.0-2.0-0.14-0.133-3.133,1,1,0,81,false,stim,true,0,1317.4000000059605,1,0,2,13581,task3,437991,false,false,478,image-keyboard-response,3
true,7,0,2,2,false,d,false,false,0.0-2.0-0.14-0.134-3.134,1,1,0,81,false,stim,true,0,501.09999999403954,1,0,2,13581,task3,440017,false,false,481,image-keyboard-response,4
true,7,1,2,2,false,d,true,false,0.0-2.0-0.15-0.135-3.135,1,1,0,90,false,stim,false,0,486.40000000596046,1,0,2,13581,task3,442024,false,false,484,image-keyboard-response,5
true,7,1,2,0,false,q,true,false,0.0-2.0-0.15-0.136-3.136,1,1,0,90,false,stim,false,0,1732.4000000059605,1,1,0,13581,task3,445267,false,false,487,image-keyboard-response,6
true,7,2,2,2,true,d,false,true,0.0-2.0-0.15-0.137-3.137,1,1,0,68,false,stim,false,2,567.7000000029802,1,1,1,13581,task3,447363,false,false,490,image-keyboard-response,7
true,7,2,2,2,true,d,false,true,0.0-2.0-0.15-0.138-3.138,1,1,0,68,false,stim,false,0,355.90000000596046,1,0,2,13581,task3,449243,false,false,493,image-keyboard-response,8
true,7,2,2,2,true,d,false,true,0.0-2.0-0.15-0.139-3.139,1,1,0,68,false,stim,false,2,559.5999999940395,1,1,1,13581,task3,451327,false,false,496,image-keyboard-response,9
true,7,2,2,0,false,q,true,false,0.0-2.0-0.15-0.140-3.140,1,1,0,68,false,stim,false,0,362.29999999701977,1,1,0,13581,task3,453211,false,false,499,image-keyboard-response,10
true,7,2,2,2,true,d,false,true,0.0-2.0-0.15-0.141-3.141,1,1,0,68,false,stim,false,0,409.70000000298023,1,1,2,13581,task3,455136,false,false,502,image-keyboard-response,11
true,7,0,2,0,true,q,false,true,0.0-2.0-0.15-0.142-3.142,1,1,0,81,false,stim,false,0,487.59999999403954,1,0,0,13581,task3,457146,false,false,505,image-keyboard-response,12
true,7,2,2,2,true,d,false,true,0.0-2.0-0.15-0.143-3.143,1,1,0,68,false,stim,false,2,580.0,1,0,1,13581,task3,459251,false,false,508,image-keyboard-response,13
true,7,2,2,2,true,d,false,true,0.0-2.0-0.16-0.144-3.144,1,1,0,68,false,stim,false,2,436.3999999910593,1,0,1,13581,task3,461217,false,false,511,image-keyboard-response,14
true,7,2,2,2,true,d,false,false,0.0-2.0-0.16-0.145-3.145,1,1,0,68,false,stim,false,0,359.1000000089407,1,1,2,13581,task3,463094,false,true,514,image-keyboard-response,15
true,8,2,1,0,false,q,false,false,0.0-2.0-0.16-0.146-3.146,0,0,1,68,true,stim,true,2,803.5,1,0,1,13581,task3,465408,false,false,517,image-keyboard-response,1
true,8,0,1,2,false,d,false,false,0.0-2.0-0.16-0.147-3.147,0,0,1,81,false,stim,true,0,961.0,1,0,0,13581,task3,467898,false,false,520,image-keyboard-response,2
true,8,1,1,2,false,d,true,true,0.0-2.0-0.16-0.148-3.148,0,0,1,90,false,stim,false,0,903.8000000119209,1,0,0,13581,task3,470332,false,true,523,image-keyboard-response,3
true,8,1,1,0,false,q,true,false,0.0-2.0-0.16-0.149-3.149,0,0,1,90,false,stim,false,2,1222.9000000059605,1,0,1,13581,task3,473088,false,false,526,image-keyboard-response,4
true,8,1,1,2,false,d,true,false,0.0-2.0-0.16-0.150-3.150,0,0,1,90,false,stim,false,0,1020.2000000029802,1,0,0,13581,task3,475635,false,false,529,image-keyboard-response,5
true,8,2,1,2,true,d,false,true,0.0-2.0-0.16-0.151-3.151,0,0,1,68,false,stim,false,2,770.7000000029802,1,1,2,13581,task3,477931,false,false,532,image-keyboard-response,6
true,8,2,1,2,true,d,false,true,0.0-2.0-0.16-0.152-3.152,0,0,1,68,false,stim,false,2,369.70000000298023,1,1,2,13581,task3,479816,false,false,535,image-keyboard-response,7
true,8,1,1,0,false,q,true,false,0.0-2.0-0.17-0.153-3.153,0,0,1,90,false,stim,false,2,724.0,1,0,1,13581,task3,482063,false,false,538,image-keyboard-response,8
true,8,2,1,2,true,d,false,true,0.0-2.0-0.17-0.154-3.154,0,0,1,68,false,stim,false,2,643.5999999940395,1,1,2,13581,task3,484236,false,false,541,image-keyboard-response,9
true,8,0,1,2,false,d,false,false,0.0-2.0-0.17-0.155-3.155,0,0,1,81,false,stim,true,0,741.3999999910593,1,0,0,13581,task3,486509,false,false,544,image-keyboard-response,10
true,8,1,1,2,false,d,true,false,0.0-2.0-0.17-0.156-3.156,0,0,1,90,false,stim,false,0,667.4000000059605,1,0,0,13581,task3,488698,false,false,547,image-keyboard-response,11
true,8,2,1,2,true,d,false,true,0.0-2.0-0.17-0.157-3.157,0,0,1,68,false,stim,false,2,808.7999999970198,1,1,2,13581,task3,491028,false,false,550,image-keyboard-response,12
true,8,2,1,2,true,d,false,true,0.0-2.0-0.17-0.158-3.158,0,0,1,68,false,stim,false,0,444.20000000298023,1,0,0,13581,task3,493000,false,false,553,image-keyboard-response,13
true,8,0,1,0,true,q,false,true,0.0-2.0-0.17-0.159-3.159,0,0,1,81,false,stim,false,2,1068.0,1,0,1,13581,task3,495593,false,false,556,image-keyboard-response,14
true,8,0,1,0,true,q,false,false,0.0-2.0-0.17-0.160-3.160,0,0,1,81,false,stim,false,2,687.5,1,0,1,13581,task3,497799,false,true,559,image-keyboard-response,15
true,8,2,1,2,true,d,false,true,0.0-2.0-0.17-0.161-3.161,0,0,1,68,false,stim,false,2,853.2999999970198,1,1,2,13581,task3,500174,false,false,562,image-keyboard-response,16
true,8,2,1,2,true,d,false,true,0.0-2.0-0.18-0.162-3.162,0,0,1,68,false,stim,false,2,466.1000000089407,1,1,2,13581,task3,502162,false,false,565,image-keyboard-response,17
true,8,0,1,0,true,q,false,true,0.0-2.0-0.18-0.163-3.163,0,0,1,81,false,stim,false,2,1451.5,1,0,1,13581,task3,505133,false,false,568,image-keyboard-response,18
true,8,0,1,0,true,q,false,true,0.0-2.0-0.18-0.164-3.164,0,0,1,81,false,stim,false,2,395.69999998807907,1,0,1,13581,task3,507049,false,false,571,image-keyboard-response,19
true,8,2,1,2,true,d,false,true,0.0-2.0-0.18-0.165-3.165,0,0,1,68,false,stim,false,0,865.7999999970198,1,0,0,13581,task3,509435,false,false,574,image-keyboard-response,20
true,8,0,1,0,true,q,false,true,0.0-2.0-0.18-0.166-3.166,0,0,1,81,false,stim,false,2,537.5999999940395,1,0,1,13581,task3,511488,false,false,577,image-keyboard-response,21
true,8,0,1,2,false,d,false,false,0.0-2.0-0.18-0.167-3.167,0,0,1,81,false,stim,true,0,578.0,1,0,0,13581,task3,513588,false,false,580,image-keyboard-response,22
true,8,2,1,2,true,d,false,true,0.0-2.0-0.18-0.168-3.168,0,0,1,68,false,stim,false,2,702.7000000029802,1,1,2,13581,task3,515809,false,false,583,image-keyboard-response,23
true,8,2,1,2,true,d,false,true,0.0-2.0-0.18-0.169-3.169,0,0,1,68,false,stim,false,0,755.5,1,0,0,13581,task3,518101,false,false,586,image-keyboard-response,24
true,8,2,1,2,true,d,false,true,0.0-2.0-0.18-0.170-3.170,0,0,1,68,false,stim,false,2,633.2000000029802,1,1,2,13581,task3,520269,false,false,589,image-keyboard-response,25
true,9,2,1,2,true,d,false,true,0.0-2.0-0.19-0.171-3.171,0,0,1,68,true,stim,false,2,434.09999999403954,1,1,2,13581,task3,522242,false,false,592,image-keyboard-response,1
true,9,2,1,2,true,d,false,true,0.0-2.0-0.19-0.172-3.172,0,0,1,68,false,stim,false,2,585.6000000089407,1,1,2,13581,task3,524358,false,false,595,image-keyboard-response,2
true,9,2,1,1,false,z,false,false,0.0-2.0-0.19-0.173-3.173,0,0,1,68,false,stim,true,2,617.0,1,0,0,13581,task3,526497,false,false,598,image-keyboard-response,3
true,9,0,1,2,false,d,false,false,0.0-2.0-0.19-0.174-3.174,0,0,1,81,false,stim,true,0,725.2999999970198,1,0,1,13581,task3,528747,false,false,601,image-keyboard-response,4
true,9,2,1,1,false,z,false,false,0.0-2.0-0.19-0.175-3.175,0,0,1,68,false,stim,true,2,832.5999999940395,1,0,0,13581,task3,531094,false,false,604,image-keyboard-response,5
true,9,1,1,2,false,d,true,false,0.0-2.0-0.19-0.176-3.176,0,0,1,90,false,stim,false,0,1109.0,1,0,1,13581,task3,533737,false,false,607,image-keyboard-response,6
true,9,0,1,1,false,z,true,false,0.0-2.0-0.19-0.177-3.177,0,0,1,81,false,stim,false,2,988.8000000119209,1,0,0,13581,task3,536244,false,false,610,image-keyboard-response,7
true,9,2,1,2,true,d,false,true,0.0-2.0-0.19-0.178-3.178,0,0,1,68,false,stim,false,2,901.2000000029802,1,1,2,13581,task3,538675,false,false,613,image-keyboard-response,8
true,9,2,1,2,true,d,false,true,0.0-2.0-0.19-0.179-3.179,0,0,1,68,false,stim,false,0,857.8999999910593,1,0,1,13581,task3,541055,false,false,616,image-keyboard-response,9
true,9,2,1,2,true,d,false,true,0.0-2.0-0.20-0.180-3.180,0,0,1,68,false,stim,false,0,660.9000000059605,1,0,1,13581,task3,543241,false,false,619,image-keyboard-response,10
true,9,2,1,2,true,d,false,true,0.0-2.0-0.20-0.181-3.181,0,0,1,68,false,stim,false,0,566.9000000059605,1,0,1,13581,task3,545339,false,false,622,image-keyboard-response,11
true,9,2,1,2,true,d,false,true,0.0-2.0-0.20-0.182-3.182,0,0,1,68,false,stim,false,2,672.7000000029802,1,1,2,13581,task3,547539,false,false,625,image-keyboard-response,12
true,9,2,1,2,true,d,false,true,0.0-2.0-0.20-0.183-3.183,0,0,1,68,false,stim,false,2,329.79999999701977,1,1,2,13581,task3,549403,false,false,628,image-keyboard-response,13
true,9,2,1,2,true,d,false,true,0.0-2.0-0.20-0.184-3.184,0,0,1,68,false,stim,false,0,366.8999999910593,1,0,1,13581,task3,551299,false,false,631,image-keyboard-response,14
true,9,2,1,1,false,z,false,false,0.0-2.0-0.20-0.185-3.185,0,0,1,68,false,stim,true,2,478.59999999403954,1,0,0,13581,task3,553305,false,false,634,image-keyboard-response,15
true,9,1,1,1,true,z,false,true,0.0-2.0-0.20-0.186-3.186,0,0,1,90,false,stim,false,2,743.1000000089407,1,0,0,13581,task3,555562,false,false,637,image-keyboard-response,16
true,9,2,1,1,false,z,false,false,0.0-2.0-0.20-0.187-3.187,0,0,1,68,false,stim,true,2,1176.5,1,0,0,13581,task3,558253,false,false,640,image-keyboard-response,17
true,9,2,1,2,true,d,false,true,0.0-2.0-0.20-0.188-3.188,0,0,1,68,false,stim,false,2,582.0,1,1,2,13581,task3,560348,false,false,643,image-keyboard-response,18
true,9,2,1,2,true,d,false,true,0.0-2.0-0.21-0.189-3.189,0,0,1,68,false,stim,false,2,390.29999999701977,1,1,2,13581,task3,562259,false,false,646,image-keyboard-response,19
true,9,2,1,2,true,d,false,true,0.0-2.0-0.21-0.190-3.190,0,0,1,68,false,stim,false,2,669.5,1,1,2,13581,task3,564457,false,false,649,image-keyboard-response,20
true,9,2,1,2,true,d,false,false,0.0-2.0-0.21-0.191-3.191,0,0,1,68,false,stim,false,0,315.70000000298023,1,0,1,13581,task3,566289,false,true,652,image-keyboard-response,21
true,9,1,1,1,true,z,false,true,0.0-2.0-0.21-0.192-3.192,0,0,1,90,false,stim,false,2,868.2999999970198,1,1,0,13581,task3,568690,false,false,655,image-keyboard-response,22
true,9,2,1,2,true,d,false,true,0.0-2.0-0.21-0.193-3.193,0,0,1,68,false,stim,false,0,1136.2000000029802,1,0,1,13581,task3,571351,false,false,658,image-keyboard-response,23
true,9,2,1,2,true,d,false,true,0.0-2.0-0.21-0.194-3.194,0,0,1,68,false,stim,false,0,593.0,1,0,1,13581,task3,573460,false,false,661,image-keyboard-response,24
true,9,1,1,1,true,z,false,true,0.0-2.0-0.21-0.195-3.195,0,0,1,90,false,stim,false,2,806.7000000029802,1,1,0,13581,task3,575790,false,false,664,image-keyboard-response,25
true,10,1,1,1,true,z,false,true,0.0-2.0-0.21-0.196-3.196,1,0,0,90,true,stim,false,1,597.7999999970198,1,1,0,13581,task3,577910,false,false,667,image-keyboard-response,1
true,10,2,1,0,false,q,false,false,0.0-2.0-0.21-0.197-3.197,1,0,0,68,false,stim,true,2,835.5999999940395,1,0,2,13581,task3,580275,false,false,670,image-keyboard-response,2
true,10,2,1,0,false,q,false,false,0.0-2.0-0.22-0.198-3.198,1,0,0,68,false,stim,true,2,572.5999999940395,1,0,2,13581,task3,582380,false,false,673,image-keyboard-response,3
true,10,1,1,0,false,q,true,false,0.0-2.0-0.22-0.199-3.199,1,0,0,90,false,stim,false,2,491.69999998807907,1,0,2,13581,task3,584390,false,false,676,image-keyboard-response,4
true,10,2,1,0,false,q,false,false,0.0-2.0-0.22-0.200-3.200,1,0,0,68,false,stim,true,2,930.9000000059605,1,0,1,13581,task3,586841,false,false,679,image-keyboard-response,5
true,10,0,1,0,true,q,false,true,0.0-2.0-0.22-0.201-3.201,1,0,0,81,false,stim,false,2,1282.5,1,0,1,13581,task3,589645,false,false,682,image-keyboard-response,6
true,10,0,1,0,true,q,false,true,0.0-2.0-0.22-0.202-3.202,1,0,0,81,false,stim,false,2,750.4000000059605,1,0,2,13581,task3,591909,false,false,685,image-keyboard-response,7
true,10,1,1,1,true,z,false,true,0.0-2.0-0.22-0.203-3.203,1,0,0,90,false,stim,false,1,719.9000000059605,1,1,0,13581,task3,594150,false,false,688,image-keyboard-response,8
true,10,0,1,0,true,q,false,true,0.0-2.0-0.22-0.204-3.204,1,0,0,81,false,stim,false,2,510.0,1,0,1,13581,task3,596190,false,false,691,image-keyboard-response,9
true,10,1,1,1,true,z,false,true,0.0-2.0-0.22-0.205-3.205,1,0,0,90,false,stim,false,1,776.8000000119209,1,1,0,13581,task3,598481,false,false,694,image-keyboard-response,10
true,10,1,1,1,true,z,false,true,0.0-2.0-0.22-0.206-3.206,1,0,0,90,false,stim,false,1,479.09999999403954,1,1,0,13581,task3,600485,false,false,697,image-keyboard-response,11
true,10,0,1,0,true,q,false,false,0.0-2.0-0.23-0.207-3.207,1,0,0,81,false,stim,false,2,442.0,1,0,2,13581,task3,602453,false,true,700,image-keyboard-response,12
true,10,0,1,0,true,q,false,true,0.0-2.0-0.23-0.208-3.208,1,0,0,81,false,stim,false,2,1009.0,1,0,2,13581,task3,604984,false,false,703,image-keyboard-response,13
true,10,0,1,0,true,q,false,true,0.0-2.0-0.23-0.209-3.209,1,0,0,81,false,stim,false,2,792.0,1,0,1,13581,task3,607293,false,false,706,image-keyboard-response,14
true,10,0,1,0,true,q,false,true,0.0-2.0-0.23-0.210-3.210,1,0,0,81,false,stim,false,2,506.09999999403954,1,0,2,13581,task3,609331,false,false,709,image-keyboard-response,15
true,10,1,1,1,true,z,false,true,0.0-2.0-0.23-0.211-3.211,1,0,0,90,false,stim,false,1,796.1999999880791,1,1,0,13581,task3,611655,false,false,712,image-keyboard-response,16
true,10,1,1,1,true,z,false,true,0.0-2.0-0.23-0.212-3.212,1,0,0,90,false,stim,false,1,579.9000000059605,1,1,0,13581,task3,613745,false,false,715,image-keyboard-response,17
true,10,0,1,0,true,q,false,true,0.0-2.0-0.23-0.213-3.213,1,0,0,81,false,stim,false,2,749.0,1,0,1,13581,task3,616011,false,false,718,image-keyboard-response,18
true,10,0,1,0,true,q,false,false,0.0-2.0-0.23-0.214-3.214,1,0,0,81,false,stim,false,2,548.2000000029802,1,0,1,13581,task3,618082,false,true,721,image-keyboard-response,19
true,10,1,1,1,true,z,false,true,0.0-2.0-0.23-0.215-3.215,1,0,0,90,false,stim,false,1,636.5,1,1,0,13581,task3,620241,false,false,724,image-keyboard-response,20
true,10,0,1,0,true,q,false,true,0.0-2.0-0.24-0.216-3.216,1,0,0,81,false,stim,false,2,1050.2000000029802,1,0,2,13581,task3,622815,false,false,727,image-keyboard-response,21
true,10,1,1,1,true,z,false,true,0.0-2.0-0.24-0.217-3.217,1,0,0,90,false,stim,false,1,711.5,1,1,0,13581,task3,625041,false,false,730,image-keyboard-response,22
true,10,1,1,1,true,z,false,true,0.0-2.0-0.24-0.218-3.218,1,0,0,90,false,stim,false,1,552.5999999940395,1,1,0,13581,task3,627109,false,false,733,image-keyboard-response,23
true,10,0,1,0,true,q,false,true,0.0-2.0-0.24-0.219-3.219,1,0,0,81,false,stim,false,2,1010.2000000029802,1,0,2,13581,task3,629629,false,false,736,image-keyboard-response,24
true,10,0,1,0,true,q,false,true,0.0-2.0-0.24-0.220-3.220,1,0,0,81,false,stim,false,2,367.40000000596046,1,0,1,13581,task3,631504,false,false,739,image-keyboard-response,25
true,10,0,1,0,true,q,false,true,0.0-2.0-0.24-0.221-3.221,1,0,0,81,false,stim,false,2,611.0,1,0,1,13581,task3,633629,false,false,742,image-keyboard-response,26
true,10,1,1,1,true,z,false,true,0.0-2.0-0.24-0.222-3.222,1,0,0,90,false,stim,false,1,760.9000000059605,1,1,0,13581,task3,635925,false,false,745,image-keyboard-response,27
true,11,0,1,2,false,d,false,false,0.0-2.0-0.24-0.223-3.223,1,0,0,81,true,stim,true,0,595.5,1,0,2,13581,task3,638035,false,false,748,image-keyboard-response,1
true,11,0,1,1,false,z,false,false,0.0-2.0-0.24-0.224-3.224,1,0,0,81,false,stim,true,0,658.7999999970198,1,0,1,13581,task3,640206,false,false,751,image-keyboard-response,2
true,11,1,1,1,true,z,false,true,0.0-2.0-0.25-0.225-3.225,1,0,0,90,false,stim,false,0,852.6000000089407,1,0,1,13581,task3,642581,false,false,754,image-keyboard-response,3
true,11,1,1,1,true,z,false,true,0.0-2.0-0.25-0.226-3.226,1,0,0,90,false,stim,false,1,403.29999999701977,1,1,0,13581,task3,644508,false,false,757,image-keyboard-response,4
true,11,1,1,1,true,z,false,true,0.0-2.0-0.25-0.227-3.227,1,0,0,90,false,stim,false,0,425.0,1,0,1,13581,task3,646448,false,false,760,image-keyboard-response,5
true,11,1,1,2,false,d,true,false,0.0-2.0-0.25-0.228-3.228,1,0,0,90,false,stim,false,0,576.7999999970198,1,0,2,13581,task3,648539,false,false,763,image-keyboard-response,6
true,11,1,1,1,true,z,false,true,0.0-2.0-0.25-0.229-3.229,1,0,0,90,false,stim,false,1,647.8000000119209,1,1,0,13581,task3,650705,false,false,766,image-keyboard-response,7
true,11,2,1,2,true,d,false,true,0.0-2.0-0.25-0.230-3.230,1,0,0,68,false,stim,false,0,476.90000000596046,1,0,2,13581,task3,652706,false,false,769,image-keyboard-response,8
true,11,1,1,1,true,z,false,true,0.0-2.0-0.25-0.231-3.231,1,0,0,90,false,stim,false,0,373.20000000298023,1,0,1,13581,task3,654601,false,false,772,image-keyboard-response,9
true,11,2,1,2,true,d,false,true,0.0-2.0-0.25-0.232-3.232,1,0,0,68,false,stim,false,0,437.0,1,0,2,13581,task3,656564,false,false,775,image-keyboard-response,10
true,11,1,1,1,true,z,false,true,0.0-2.0-0.25-0.233-3.233,1,0,0,90,false,stim,false,1,479.70000000298023,1,1,0,13581,task3,658570,false,false,778,image-keyboard-response,11
true,11,1,1,1,true,z,false,false,0.0-2.0-0.26-0.234-3.234,1,0,0,90,false,stim,false,0,1206.7000000029802,1,0,1,13581,task3,661315,false,true,781,image-keyboard-response,12
true,11,1,1,1,true,z,false,true,0.0-2.0-0.26-0.235-3.235,1,0,0,90,false,stim,false,1,1606.2000000029802,1,1,0,13581,task3,664440,false,false,784,image-keyboard-response,13
true,11,2,1,1,false,z,true,false,0.0-2.0-0.26-0.236-3.236,1,0,0,68,false,stim,false,0,582.4000000059605,1,0,1,13581,task3,666560,false,false,787,image-keyboard-response,14
true,11,1,1,1,true,z,false,false,0.0-2.0-0.26-0.237-3.237,1,0,0,90,false,stim,false,0,1134.4000000059605,1,0,1,13581,task3,669229,false,true,790,image-keyboard-response,15
true,11,1,1,1,true,z,false,true,0.0-2.0-0.26-0.238-3.238,1,0,0,90,false,stim,false,1,852.7000000029802,1,1,0,13581,task3,671610,false,false,793,image-keyboard-response,16
true,11,1,1,1,true,z,false,false,0.0-2.0-0.26-0.239-3.239,1,0,0,90,false,stim,false,1,1452.2000000029802,1,1,0,13581,task3,674588,false,true,796,image-keyboard-response,17
true,11,0,1,2,false,d,false,false,0.0-2.0-0.26-0.240-3.240,1,0,0,81,false,stim,true,0,572.4000000059605,1,0,2,13581,task3,676683,false,false,799,image-keyboard-response,18
true,11,2,1,2,true,d,false,true,0.0-2.0-0.26-0.241-3.241,1,0,0,68,false,stim,false,0,396.0,1,0,2,13581,task3,678603,false,false,802,image-keyboard-response,19
true,11,2,1,2,true,d,false,true,0.0-2.0-0.26-0.242-3.242,1,0,0,68,false,stim,false,0,428.29999999701977,1,0,2,13581,task3,680543,false,false,805,image-keyboard-response,20
true,11,2,1,2,true,d,false,true,0.0-2.0-0.27-0.243-3.243,1,0,0,68,false,stim,false,0,315.90000000596046,1,0,2,13581,task3,682374,false,false,808,image-keyboard-response,21
true,11,2,1,2,true,d,false,true,0.0-2.0-0.27-0.244-3.244,1,0,0,68,false,stim,false,0,345.20000000298023,1,0,2,13581,task3,684238,false,false,811,image-keyboard-response,22
true,11,2,1,2,true,d,false,true,0.0-2.0-0.27-0.245-3.245,1,0,0,68,false,stim,false,0,340.79999999701977,1,0,2,13581,task3,686105,false,false,814,image-keyboard-response,23
true,11,2,1,1,false,z,true,false,0.0-2.0-0.27-0.246-3.246,1,0,0,68,false,stim,false,0,351.0,1,0,1,13581,task3,687969,false,false,817,image-keyboard-response,24
true,11,2,1,1,false,z,true,false,0.0-2.0-0.27-0.247-3.247,1,0,0,68,false,stim,false,0,1113.5,1,0,1,13581,task3,690608,false,false,820,image-keyboard-response,25
true,11,1,1,1,true,z,false,false,0.0-2.0-0.27-0.248-3.248,1,0,0,90,false,stim,false,1,689.7000000029802,1,1,0,13581,task3,692834,false,true,823,image-keyboard-response,26
true,11,2,1,1,false,z,true,false,0.0-2.0-0.27-0.249-3.249,1,0,0,68,false,stim,false,0,1525.0999999940395,1,0,1,13581,task3,695883,false,false,826,image-keyboard-response,27
true,11,0,1,1,false,z,true,false,0.0-2.0-0.27-0.250-3.250,1,0,0,81,false,stim,false,1,1223.0,1,1,0,13581,task3,698638,false,false,829,image-keyboard-response,28
true,11,2,1,1,false,z,true,false,0.0-2.0-0.27-0.251-3.251,1,0,0,68,false,stim,false,1,433.70000000298023,1,1,0,13581,task3,700592,false,false,832,image-keyboard-response,29
true,12,2,2,2,true,d,false,true,0.0-2.0-0.28-0.252-3.252,1,0,1,68,true,stim,false,2,641.5,1,1,2,13581,task3,702752,false,false,835,image-keyboard-response,1
true,12,1,2,1,true,z,false,true,0.0-2.0-0.28-0.253-3.253,1,0,1,90,false,stim,false,1,588.0,1,1,0,13581,task3,704871,false,false,838,image-keyboard-response,2
true,12,2,2,2,true,d,false,true,0.0-2.0-0.28-0.254-3.254,1,0,1,68,false,stim,false,2,455.0,1,1,2,13581,task3,706846,false,false,841,image-keyboard-response,3
true,12,1,2,1,true,z,false,true,0.0-2.0-0.28-0.255-3.255,1,0,1,90,false,stim,false,1,625.1000000089407,1,1,0,13581,task3,708984,false,false,844,image-keyboard-response,4
true,12,2,2,0,false,q,true,false,0.0-2.0-0.28-0.256-3.256,1,0,1,68,false,stim,false,1,465.79999999701977,1,0,1,13581,task3,710978,false,false,847,image-keyboard-response,5
true,12,1,2,0,false,q,false,false,0.0-2.0-0.28-0.257-3.257,1,0,1,90,false,stim,true,1,665.5,1,0,1,13581,task3,713162,false,false,850,image-keyboard-response,6
true,12,1,2,1,true,z,false,true,0.0-2.0-0.28-0.258-3.258,1,0,1,90,false,stim,false,1,1044.7000000029802,1,1,0,13581,task3,715737,false,false,853,image-keyboard-response,7
true,12,2,2,2,true,d,false,true,0.0-2.0-0.28-0.259-3.259,1,0,1,68,false,stim,false,2,1634.5,1,1,2,13581,task3,718886,false,false,856,image-keyboard-response,8
true,12,0,2,0,true,q,false,false,0.0-2.0-0.28-0.260-3.260,1,0,1,81,false,stim,false,1,568.0,1,1,1,13581,task3,720983,false,true,859,image-keyboard-response,9
true,12,1,2,0,false,q,false,false,0.0-2.0-0.29-0.261-3.261,1,0,1,90,false,stim,true,1,1329.5,1,1,1,13581,task3,723843,false,false,862,image-keyboard-response,10
true,12,2,2,2,true,d,false,true,0.0-2.0-0.29-0.262-3.262,1,0,1,68,false,stim,false,2,844.7000000029802,1,0,2,13581,task3,726207,false,false,865,image-keyboard-response,11
true,12,2,2,0,false,q,true,true,0.0-2.0-0.29-0.263-3.263,1,0,1,68,false,stim,false,1,866.2999999970198,1,1,1,13581,task3,728597,false,true,868,image-keyboard-response,12
true,12,2,2,0,false,q,true,false,0.0-2.0-0.29-0.264-3.264,1,0,1,68,false,stim,false,1,513.5,1,1,1,13581,task3,730632,false,false,871,image-keyboard-response,13
true,13,2,2,1,false,z,false,false,0.0-2.0-0.29-0.265-3.265,1,1,0,68,true,stim,true,2,775.3999999910593,1,0,2,13581,task3,732923,false,false,874,image-keyboard-response,1
true,13,1,2,1,true,z,false,true,0.0-2.0-0.29-0.266-3.266,1,1,0,90,false,stim,false,1,680.8000000119209,1,1,0,13581,task3,735121,false,false,877,image-keyboard-response,2
true,13,1,2,1,true,z,false,true,0.0-2.0-0.29-0.267-3.267,1,1,0,90,false,stim,false,1,748.7000000029802,1,1,0,13581,task3,737397,false,false,880,image-keyboard-response,3
true,13,1,2,1,true,z,false,true,0.0-2.0-0.29-0.268-3.268,1,1,0,90,false,stim,false,1,379.29999999701977,1,1,0,13581,task3,739296,false,false,883,image-keyboard-response,4
true,13,2,2,1,false,z,false,false,0.0-2.0-0.29-0.269-3.269,1,1,0,68,false,stim,true,2,532.5999999940395,1,0,2,13581,task3,741346,false,false,886,image-keyboard-response,5
true,13,1,2,1,true,z,false,true,0.0-2.0-0.30-0.270-3.270,1,1,0,90,false,stim,false,2,1199.2000000029802,1,0,2,13581,task3,744073,false,false,889,image-keyboard-response,6
true,13,1,2,1,true,z,false,true,0.0-2.0-0.30-0.271-3.271,1,1,0,90,false,stim,false,2,399.90000000596046,1,1,2,13581,task3,746003,false,false,892,image-keyboard-response,7
true,13,1,2,1,true,z,false,true,0.0-2.0-0.30-0.272-3.272,1,1,0,90,false,stim,false,1,704.2999999970198,1,0,0,13581,task3,748230,false,false,895,image-keyboard-response,8
true,13,2,2,0,false,q,true,false,0.0-2.0-0.30-0.273-3.273,1,1,0,68,false,stim,false,0,730.0,1,0,1,13581,task3,750470,false,false,898,image-keyboard-response,9
true,13,0,2,0,true,q,false,true,0.0-2.0-0.30-0.274-3.274,1,1,0,81,false,stim,false,0,570.7999999970198,1,0,1,13581,task3,752580,false,false,901,image-keyboard-response,10
true,13,0,2,0,true,q,false,false,0.0-2.0-0.30-0.275-3.275,1,1,0,81,false,stim,false,0,1017.3999999910593,1,0,1,13581,task3,755121,false,true,904,image-keyboard-response,11
true,14,1,1,1,true,z,false,true,0.0-2.0-0.30-0.276-3.276,0,0,1,90,true,stim,false,1,742.7000000029802,1,1,2,13581,task3,757392,false,false,907,image-keyboard-response,1
true,14,1,1,2,false,d,false,false,0.0-2.0-0.30-0.277-3.277,0,0,1,90,false,stim,true,1,440.79999999701977,1,0,0,13581,task3,759360,false,false,910,image-keyboard-response,2
true,14,1,1,2,false,d,false,false,0.0-2.0-0.30-0.278-3.278,0,0,1,90,false,stim,true,1,469.5,1,0,0,13581,task3,761345,false,false,913,image-keyboard-response,3
true,14,1,1,1,true,z,false,true,0.0-2.0-0.31-0.279-3.279,0,0,1,90,false,stim,false,1,1415.5999999940395,1,1,2,13581,task3,764286,false,false,916,image-keyboard-response,4
true,14,0,1,2,false,d,true,false,0.0-2.0-0.31-0.280-3.280,0,0,1,81,false,stim,false,1,473.30000001192093,1,0,0,13581,task3,766282,false,false,919,image-keyboard-response,5
true,14,1,1,1,true,z,false,true,0.0-2.0-0.31-0.281-3.281,0,0,1,90,false,stim,false,1,751.4000000059605,1,1,2,13581,task3,768546,false,false,922,image-keyboard-response,6
true,14,1,1,1,true,z,false,true,0.0-2.0-0.31-0.282-3.282,0,0,1,90,false,stim,false,1,946.8999999910593,1,1,2,13581,task3,771012,false,false,925,image-keyboard-response,7
true,14,0,1,2,false,d,false,false,0.0-2.0-0.31-0.283-3.283,0,0,1,81,false,stim,true,0,1075.7000000029802,1,0,1,13581,task3,773604,false,false,928,image-keyboard-response,8
true,14,2,1,2,true,d,false,true,0.0-2.0-0.31-0.284-3.284,0,0,1,68,false,stim,false,1,1027.7000000029802,1,0,0,13581,task3,776144,false,false,931,image-keyboard-response,9
true,14,2,1,2,true,d,false,true,0.0-2.0-0.31-0.285-3.285,0,0,1,68,false,stim,false,1,991.7999999970198,1,0,0,13581,task3,778660,false,false,934,image-keyboard-response,10
true,14,2,1,2,true,d,false,true,0.0-2.0-0.31-0.286-3.286,0,0,1,68,false,stim,false,0,358.09999999403954,1,0,1,13581,task3,780534,false,false,937,image-keyboard-response,11
true,14,2,1,2,true,d,false,true,0.0-2.0-0.31-0.287-3.287,0,0,1,68,false,stim,false,0,629.4000000059605,1,0,1,13581,task3,782685,false,false,940,image-keyboard-response,12
true,14,1,1,1,true,z,false,false,0.0-2.0-0.32-0.288-3.288,0,0,1,90,false,stim,false,1,443.79999999701977,1,1,2,13581,task3,784661,false,true,943,image-keyboard-response,13
true,14,2,1,2,true,d,false,true,0.0-2.0-0.32-0.289-3.289,0,0,1,68,false,stim,false,1,393.59999999403954,1,0,0,13581,task3,786596,false,false,946,image-keyboard-response,14
true,14,2,1,2,true,d,false,true,0.0-2.0-0.32-0.290-3.290,0,0,1,68,false,stim,false,0,891.9000000059605,1,0,1,13581,task3,789011,false,false,949,image-keyboard-response,15
true,14,1,1,1,true,z,false,true,0.0-2.0-0.32-0.291-3.291,0,0,1,90,false,stim,false,1,594.2000000029802,1,1,2,13581,task3,791126,false,false,952,image-keyboard-response,16
true,14,1,1,1,true,z,false,true,0.0-2.0-0.32-0.292-3.292,0,0,1,90,false,stim,false,1,475.29999999701977,1,1,2,13581,task3,793135,false,false,955,image-keyboard-response,17
true,14,2,1,2,true,d,false,true,0.0-2.0-0.32-0.293-3.293,0,0,1,68,false,stim,false,1,573.6000000089407,1,0,0,13581,task3,795231,false,false,958,image-keyboard-response,18
true,14,2,1,2,true,d,false,true,0.0-2.0-0.32-0.294-3.294,0,0,1,68,false,stim,false,1,429.79999999701977,1,0,0,13581,task3,797190,false,false,961,image-keyboard-response,19
true,14,2,1,2,true,d,false,true,0.0-2.0-0.32-0.295-3.295,0,0,1,68,false,stim,false,0,799.3999999910593,1,0,1,13581,task3,799526,false,false,964,image-keyboard-response,20
true,14,2,1,2,true,d,false,true,0.0-2.0-0.32-0.296-3.296,0,0,1,68,false,stim,false,0,608.1999999880791,1,0,1,13581,task3,801661,false,false,967,image-keyboard-response,21
true,14,1,1,1,true,z,false,true,0.0-2.0-0.33-0.297-3.297,0,0,1,90,false,stim,false,1,1544.9000000059605,1,1,2,13581,task3,804725,false,false,970,image-keyboard-response,22
true,14,2,1,2,true,d,false,true,0.0-2.0-0.33-0.298-3.298,0,0,1,68,false,stim,false,1,441.5,1,0,0,13581,task3,806695,false,false,973,image-keyboard-response,23
true,14,1,1,1,true,z,false,true,0.0-2.0-0.33-0.299-3.299,0,0,1,90,false,stim,false,1,425.5,1,1,2,13581,task3,808635,false,false,976,image-keyboard-response,24
true,14,1,1,1,true,z,false,true,0.0-2.0-0.33-0.300-3.300,0,0,1,90,false,stim,false,1,359.59999999403954,1,1,2,13581,task3,810516,false,false,979,image-keyboard-response,25
true,14,2,1,2,true,d,false,true,0.0-2.0-0.33-0.301-3.301,0,0,1,68,false,stim,false,0,494.5,1,1,1,13581,task3,812535,false,false,982,image-keyboard-response,26
true,14,2,1,2,true,d,false,true,0.0-2.0-0.33-0.302-3.302,0,0,1,68,false,stim,false,0,389.20000000298023,1,1,1,13581,task3,814455,false,false,985,image-keyboard-response,27
true,15,2,2,1,false,z,false,false,0.0-2.0-0.33-0.303-3.303,0,1,1,68,true,stim,true,2,691.8999999910593,1,0,0,13581,task3,816674,false,false,988,image-keyboard-response,1
true,15,2,2,1,false,z,false,false,0.0-2.0-0.33-0.304-3.304,0,1,1,68,false,stim,true,2,399.40000000596046,1,0,0,13581,task3,818595,false,false,991,image-keyboard-response,2
true,15,2,2,2,true,d,false,true,0.0-2.0-0.33-0.305-3.305,0,1,1,68,false,stim,false,2,1103.7999999970198,1,1,1,13581,task3,821224,false,false,994,image-keyboard-response,3
true,15,1,2,1,true,z,false,true,0.0-2.0-0.34-0.306-3.306,0,1,1,90,false,stim,false,1,693.5999999940395,1,1,2,13581,task3,823438,false,false,997,image-keyboard-response,4
true,15,2,2,2,true,d,false,true,0.0-2.0-0.34-0.307-3.307,0,1,1,68,false,stim,false,2,1090.2999999970198,1,1,1,13581,task3,826055,false,false,1000,image-keyboard-response,5
true,15,1,2,1,true,z,false,true,0.0-2.0-0.34-0.308-3.308,0,1,1,90,false,stim,false,1,774.4000000059605,1,1,2,13581,task3,828364,false,false,1003,image-keyboard-response,6
true,15,2,2,1,false,z,true,false,0.0-2.0-0.34-0.309-3.309,0,1,1,68,false,stim,false,1,1051.0,1,1,2,13581,task3,830940,false,false,1006,image-keyboard-response,7
true,15,0,2,1,false,z,true,false,0.0-2.0-0.34-0.310-3.310,0,1,1,81,false,stim,false,2,852.5999999940395,1,0,0,13581,task3,833322,false,false,1009,image-keyboard-response,8
true,15,2,2,2,true,d,false,true,0.0-2.0-0.34-0.311-3.311,0,1,1,68,false,stim,false,2,821.3999999910593,1,1,1,13581,task3,835685,false,false,1012,image-keyboard-response,9
true,15,2,2,2,true,d,false,true,0.0-2.0-0.34-0.312-3.312,0,1,1,68,false,stim,false,2,429.8999999910593,1,1,1,13581,task3,837634,false,false,1015,image-keyboard-response,10
true,15,1,2,1,true,z,false,true,0.0-2.0-0.34-0.313-3.313,0,1,1,90,false,stim,false,2,385.30000001192093,1,0,0,13581,task3,839564,false,false,1018,image-keyboard-response,11
true,15,1,2,1,true,z,false,true,0.0-2.0-0.34-0.314-3.314,0,1,1,90,false,stim,false,2,405.79999999701977,1,0,0,13581,task3,841499,false,false,1021,image-keyboard-response,12
true,15,1,2,1,true,z,false,true,0.0-2.0-0.35-0.315-3.315,0,1,1,90,false,stim,false,2,377.20000000298023,1,0,0,13581,task3,843400,false,false,1024,image-keyboard-response,13
true,15,1,2,1,true,z,false,true,0.0-2.0-0.35-0.316-3.316,0,1,1,90,false,stim,false,1,1229.2000000029802,1,1,2,13581,task3,846143,false,false,1027,image-keyboard-response,14
true,15,2,2,2,true,d,false,false,0.0-2.0-0.35-0.317-3.317,0,1,1,68,false,stim,false,2,381.59999999403954,1,1,1,13581,task3,848043,false,true,1030,image-keyboard-response,15
true,15,2,2,2,true,d,false,true,0.0-2.0-0.35-0.318-3.318,0,1,1,68,false,stim,false,2,707.1999999880791,1,1,1,13581,task3,850277,false,false,1033,image-keyboard-response,16
true,15,1,2,1,true,z,false,true,0.0-2.0-0.35-0.319-3.319,0,1,1,90,false,stim,false,1,582.7999999970198,1,1,2,13581,task3,852383,false,false,1036,image-keyboard-response,17
true,15,1,2,1,true,z,false,true,0.0-2.0-0.35-0.320-3.320,0,1,1,90,false,stim,false,2,341.20000000298023,1,0,0,13581,task3,854249,false,false,1039,image-keyboard-response,18
true,15,2,2,2,true,d,false,true,0.0-2.0-0.35-0.321-3.321,0,1,1,68,false,stim,false,2,433.29999999701977,1,1,1,13581,task3,856198,false,false,1042,image-keyboard-response,19
true,15,1,2,1,true,z,false,true,0.0-2.0-0.35-0.322-3.322,0,1,1,90,false,stim,false,2,333.1000000089407,1,0,0,13581,task3,858049,false,false,1045,image-keyboard-response,20
true,15,1,2,1,true,z,false,true,0.0-2.0-0.35-0.323-3.323,0,1,1,90,false,stim,false,1,327.79999999701977,1,0,2,13581,task3,859899,false,false,1048,image-keyboard-response,21
true,15,1,2,1,true,z,false,true,0.0-2.0-0.36-0.324-3.324,0,1,1,90,false,stim,false,1,372.1000000089407,1,0,2,13581,task3,861794,false,false,1051,image-keyboard-response,22
true,15,1,2,1,true,z,false,true,0.0-2.0-0.36-0.325-3.325,0,1,1,90,false,stim,false,2,353.59999999403954,1,0,0,13581,task3,863669,false,false,1054,image-keyboard-response,23
true,15,1,2,1,true,z,false,true,0.0-2.0-0.36-0.326-3.326,0,1,1,90,false,stim,false,2,334.0,1,0,0,13581,task3,865529,false,false,1057,image-keyboard-response,24
true,15,1,2,1,true,z,false,true,0.0-2.0-0.36-0.327-3.327,0,1,1,90,false,stim,false,2,331.69999998807907,1,0,0,13581,task3,867373,false,false,1060,image-keyboard-response,25
true,16,1,1,0,false,q,false,false,0.0-2.0-0.36-0.328-3.328,0,1,0,90,true,stim,true,1,793.7999999970198,1,0,2,13581,task3,869704,false,false,1063,image-keyboard-response,1
true,16,1,1,0,false,q,false,false,0.0-2.0-0.36-0.329-3.329,0,1,0,90,false,stim,true,1,447.79999999701977,1,0,2,13581,task3,871677,false,false,1066,image-keyboard-response,2
true,16,2,1,2,true,d,false,true,0.0-2.0-0.36-0.330-3.330,0,1,0,68,false,stim,false,2,596.5,1,1,1,13581,task3,873812,false,false,1069,image-keyboard-response,3
true,16,2,1,2,true,d,false,true,0.0-2.0-0.36-0.331-3.331,0,1,0,68,false,stim,false,2,444.09999999403954,1,1,1,13581,task3,875778,false,false,1072,image-keyboard-response,4
true,16,2,1,2,true,d,false,true,0.0-2.0-0.36-0.332-3.332,0,1,0,68,false,stim,false,2,430.79999999701977,1,1,1,13581,task3,877722,false,false,1075,image-keyboard-response,5
true,16,2,1,0,false,q,true,false,0.0-2.0-0.37-0.333-3.333,0,1,0,68,false,stim,false,1,443.70000000298023,1,0,2,13581,task3,879688,false,false,1078,image-keyboard-response,6
true,16,2,1,2,true,d,false,true,0.0-2.0-0.37-0.334-3.334,0,1,0,68,false,stim,false,2,1175.300000011921,1,1,1,13581,task3,882398,false,false,1081,image-keyboard-response,7
true,16,1,1,2,false,d,false,false,0.0-2.0-0.37-0.335-3.335,0,1,0,90,false,stim,true,1,795.5999999940395,1,0,0,13581,task3,884727,false,false,1084,image-keyboard-response,8
true,16,2,1,2,true,d,false,true,0.0-2.0-0.37-0.336-3.336,0,1,0,68,false,stim,false,2,1024.4000000059605,1,1,1,13581,task3,887273,false,false,1087,image-keyboard-response,9
true,16,2,1,2,true,d,false,true,0.0-2.0-0.37-0.337-3.337,0,1,0,68,false,stim,false,2,594.2000000029802,1,1,1,13581,task3,889387,false,false,1090,image-keyboard-response,10
true,16,1,1,2,false,d,false,false,0.0-2.0-0.37-0.338-3.338,0,1,0,90,false,stim,true,1,862.2999999970198,1,0,0,13581,task3,891777,false,false,1093,image-keyboard-response,11
true,16,0,1,2,false,d,true,false,0.0-2.0-0.37-0.339-3.339,0,1,0,81,false,stim,false,1,1115.0,1,0,0,13581,task3,894421,false,false,1096,image-keyboard-response,12
true,16,0,1,0,true,q,false,true,0.0-2.0-0.37-0.340-3.340,0,1,0,81,false,stim,false,1,1295.0999999940395,1,0,2,13581,task3,897245,false,false,1099,image-keyboard-response,13
true,16,0,1,0,true,q,false,true,0.0-2.0-0.37-0.341-3.341,0,1,0,81,false,stim,false,1,974.7999999970198,1,0,2,13581,task3,899756,false,false,1102,image-keyboard-response,14
true,16,0,1,0,true,q,false,true,0.0-2.0-0.38-0.342-3.342,0,1,0,81,false,stim,false,1,656.2000000029802,1,0,2,13581,task3,901942,false,false,1105,image-keyboard-response,15
true,16,2,1,2,true,d,false,true,0.0-2.0-0.38-0.343-3.343,0,1,0,68,false,stim,false,1,734.3000000119209,1,0,0,13581,task3,904213,false,false,1108,image-keyboard-response,16
true,16,2,1,2,true,d,false,true,0.0-2.0-0.38-0.344-3.344,0,1,0,68,false,stim,false,1,617.2999999970198,1,0,0,13581,task3,906351,false,false,1111,image-keyboard-response,17
true,16,2,1,2,true,d,false,true,0.0-2.0-0.38-0.345-3.345,0,1,0,68,false,stim,false,2,529.2000000029802,1,1,1,13581,task3,908407,false,false,1114,image-keyboard-response,18
true,16,0,1,0,true,q,false,false,0.0-2.0-0.38-0.346-3.346,0,1,0,81,false,stim,false,1,478.90000000596046,1,0,2,13581,task3,910407,false,true,1117,image-keyboard-response,19
true,16,2,1,2,true,d,false,true,0.0-2.0-0.38-0.347-3.347,0,1,0,68,false,stim,false,2,381.90000000596046,1,1,1,13581,task3,912321,false,false,1120,image-keyboard-response,20
true,16,2,1,2,true,d,false,true,0.0-2.0-0.38-0.348-3.348,0,1,0,68,false,stim,false,2,719.5,1,1,1,13581,task3,914566,false,false,1123,image-keyboard-response,21
true,16,0,1,0,true,q,false,true,0.0-2.0-0.38-0.349-3.349,0,1,0,81,false,stim,false,1,443.29999999701977,1,0,2,13581,task3,916532,false,false,1126,image-keyboard-response,22
true,16,2,1,2,true,d,false,false,0.0-2.0-0.38-0.350-3.350,0,1,0,68,false,stim,false,1,514.7000000029802,1,1,0,13581,task3,918575,false,true,1129,image-keyboard-response,23
true,16,2,1,2,true,d,false,true,0.0-2.0-0.39-0.351-3.351,0,1,0,68,false,stim,false,1,409.0,1,1,0,13581,task3,920505,false,false,1132,image-keyboard-response,24
true,16,2,1,2,true,d,false,true,0.0-2.0-0.39-0.352-3.352,0,1,0,68,false,stim,false,1,343.59999999403954,1,1,0,13581,task3,922369,false,false,1135,image-keyboard-response,25
true,16,0,1,0,true,q,false,false,0.0-2.0-0.39-0.353-3.353,0,1,0,81,false,stim,false,1,859.2999999970198,1,0,2,13581,task3,924759,false,true,1138,image-keyboard-response,26
true,17,2,1,1,false,z,false,false,0.0-2.0-0.39-0.354-3.354,1,0,0,68,true,stim,true,2,677.7000000029802,1,0,1,13581,task3,926969,false,false,1141,image-keyboard-response,1
true,17,2,1,1,false,z,false,true,0.0-2.0-0.39-0.355-3.355,1,0,0,68,false,stim,true,2,392.59999999403954,1,0,1,13581,task3,928891,false,true,1144,image-keyboard-response,2
true,17,2,1,2,true,d,false,true,0.0-2.0-0.39-0.356-3.356,1,0,0,68,false,stim,false,2,653.0,1,1,0,13581,task3,931077,false,false,1147,image-keyboard-response,3
true,17,0,1,2,false,d,false,false,0.0-2.0-0.39-0.357-3.357,1,0,0,81,false,stim,true,0,820.4000000059605,1,0,2,13581,task3,933434,false,false,1150,image-keyboard-response,4
true,17,2,1,1,false,z,false,false,0.0-2.0-0.39-0.358-3.358,1,0,0,68,false,stim,true,2,558.0999999940395,1,0,1,13581,task3,935509,false,false,1153,image-keyboard-response,5
true,17,1,1,2,false,d,true,true,0.0-2.0-0.39-0.359-3.359,1,0,0,90,false,stim,false,0,840.5,1,0,2,13581,task3,937885,false,true,1156,image-keyboard-response,6
true,17,2,1,2,true,d,false,true,0.0-2.0-0.40-0.360-3.360,1,0,0,68,false,stim,false,2,788.7999999970198,1,1,0,13581,task3,940200,false,false,1159,image-keyboard-response,7
true,17,1,1,2,false,d,true,false,0.0-2.0-0.40-0.361-3.361,1,0,0,90,false,stim,false,0,927.8999999910593,1,0,2,13581,task3,942656,false,false,1162,image-keyboard-response,8
true,17,2,1,2,true,d,false,false,0.0-2.0-0.40-0.362-3.362,1,0,0,68,false,stim,false,2,1341.0999999940395,1,1,0,13581,task3,945510,false,true,1165,image-keyboard-response,9
true,17,1,1,1,true,z,false,true,0.0-2.0-0.40-0.363-3.363,1,0,0,90,false,stim,false,2,961.2999999970198,1,0,1,13581,task3,947984,false,false,1168,image-keyboard-response,10
true,17,1,1,1,true,z,false,true,0.0-2.0-0.40-0.364-3.364,1,0,0,90,false,stim,false,2,381.5,1,0,1,13581,task3,949879,false,false,1171,image-keyboard-response,11
true,17,1,1,2,false,d,true,false,0.0-2.0-0.40-0.365-3.365,1,0,0,90,false,stim,false,0,699.7000000029802,1,0,2,13581,task3,952105,false,false,1174,image-keyboard-response,12
true,17,1,1,2,false,d,true,false,0.0-2.0-0.40-0.366-3.366,1,0,0,90,false,stim,false,2,821.2999999970198,1,1,0,13581,task3,954450,false,false,1177,image-keyboard-response,13
true,17,0,1,2,false,d,false,false,0.0-2.0-0.40-0.367-3.367,1,0,0,81,false,stim,true,0,1444.2999999970198,1,0,2,13581,task3,957414,false,false,1180,image-keyboard-response,14
true,17,1,1,1,true,z,false,true,0.0-2.0-0.40-0.368-3.368,1,0,0,90,false,stim,false,2,605.6000000089407,1,0,1,13581,task3,959544,false,false,1183,image-keyboard-response,15
true,17,1,1,1,true,z,false,true,0.0-2.0-0.41-0.369-3.369,1,0,0,90,false,stim,false,2,777.6000000089407,1,0,1,13581,task3,961855,false,false,1186,image-keyboard-response,16
true,17,2,1,2,true,d,false,true,0.0-2.0-0.41-0.370-3.370,1,0,0,68,false,stim,false,2,940.2999999970198,1,1,0,13581,task3,964308,false,false,1189,image-keyboard-response,17
true,17,1,1,1,true,z,false,true,0.0-2.0-0.41-0.371-3.371,1,0,0,90,false,stim,false,2,934.0,1,0,1,13581,task3,966768,false,false,1192,image-keyboard-response,18
true,17,2,1,2,true,d,false,true,0.0-2.0-0.41-0.372-3.372,1,0,0,68,false,stim,false,2,1146.2000000029802,1,1,0,13581,task3,969438,false,false,1195,image-keyboard-response,19
true,17,1,1,1,true,z,false,true,0.0-2.0-0.41-0.373-3.373,1,0,0,90,false,stim,false,2,356.20000000298023,1,0,1,13581,task3,971317,false,false,1198,image-keyboard-response,20
true,17,1,1,2,false,d,true,false,0.0-2.0-0.41-0.374-3.374,1,0,0,90,false,stim,false,0,1696.7999999970198,1,0,2,13581,task3,974532,false,false,1201,image-keyboard-response,21
true,17,2,1,2,true,d,false,true,0.0-2.0-0.41-0.375-3.375,1,0,0,68,false,stim,false,0,648.6000000089407,1,1,2,13581,task3,976697,false,false,1204,image-keyboard-response,22
true,17,2,1,2,true,d,false,true,0.0-2.0-0.41-0.376-3.376,1,0,0,68,false,stim,false,2,512.7999999970198,1,0,0,13581,task3,978730,false,false,1207,image-keyboard-response,23
true,17,2,1,2,true,d,false,true,0.0-2.0-0.41-0.377-3.377,1,0,0,68,false,stim,false,0,663.6000000089407,1,1,2,13581,task3,980923,false,false,1210,image-keyboard-response,24
true,17,2,1,2,true,d,false,true,0.0-2.0-0.42-0.378-3.378,1,0,0,68,false,stim,false,0,517.7999999970198,1,1,2,13581,task3,982958,false,false,1213,image-keyboard-response,25
true,17,2,1,2,true,d,false,true,0.0-2.0-0.42-0.379-3.379,1,0,0,68,false,stim,false,0,331.29999999701977,1,1,2,13581,task3,984813,false,false,1216,image-keyboard-response,26
true,18,2,1,2,true,d,false,true,0.0-2.0-0.42-0.380-3.380,0,0,1,68,true,stim,false,2,321.5,1,1,2,13581,task3,986663,false,false,1219,image-keyboard-response,1
true,18,2,1,0,false,q,false,false,0.0-2.0-0.42-0.381-3.381,0,0,1,68,false,stim,true,2,476.0,1,0,0,13581,task3,988667,false,false,1222,image-keyboard-response,2
true,18,1,1,0,false,q,false,false,0.0-2.0-0.42-0.382-3.382,0,0,1,90,false,stim,true,1,349.79999999701977,1,0,1,13581,task3,990555,false,false,1225,image-keyboard-response,3
true,18,2,1,0,false,q,false,false,0.0-2.0-0.42-0.383-3.383,0,0,1,68,false,stim,true,2,423.0,1,0,0,13581,task3,992496,false,false,1228,image-keyboard-response,4
true,18,0,1,0,true,q,false,true,0.0-2.0-0.42-0.384-3.384,0,0,1,81,false,stim,false,1,1622.7000000029802,1,0,1,13581,task3,995631,false,false,1231,image-keyboard-response,5
true,18,0,1,0,true,q,false,true,0.0-2.0-0.42-0.385-3.385,0,0,1,81,false,stim,false,1,465.29999999701977,1,0,1,13581,task3,997626,false,false,1234,image-keyboard-response,6
true,18,1,1,0,false,q,true,false,0.0-2.0-0.42-0.386-3.386,0,0,1,90,false,stim,false,2,840.2000000029802,1,0,0,13581,task3,999997,false,false,1237,image-keyboard-response,7
true,18,2,1,2,true,d,false,true,0.0-2.0-0.43-0.387-3.387,0,0,1,68,false,stim,false,2,598.5,1,1,2,13581,task3,1002123,false,false,1240,image-keyboard-response,8
true,18,0,1,0,true,q,false,true,0.0-2.0-0.43-0.388-3.388,0,0,1,81,false,stim,false,2,609.1000000089407,1,0,0,13581,task3,1004242,false,false,1243,image-keyboard-response,9
true,18,0,1,0,true,q,false,true,0.0-2.0-0.43-0.389-3.389,0,0,1,81,false,stim,false,1,1007.4000000059605,1,0,1,13581,task3,1006771,false,false,1246,image-keyboard-response,10
true,18,0,1,0,true,q,false,true,0.0-2.0-0.43-0.390-3.390,0,0,1,81,false,stim,false,1,336.3999999910593,1,0,1,13581,task3,1008642,false,false,1249,image-keyboard-response,11
true,18,0,1,0,true,q,false,true,0.0-2.0-0.43-0.391-3.391,0,0,1,81,false,stim,false,2,516.6000000089407,1,0,0,13581,task3,1010677,false,false,1252,image-keyboard-response,12
true,18,2,1,2,true,d,false,true,0.0-2.0-0.43-0.392-3.392,0,0,1,68,false,stim,false,2,507.5,1,1,2,13581,task3,1012707,false,false,1255,image-keyboard-response,13
true,18,0,1,0,true,q,false,true,0.0-2.0-0.43-0.393-3.393,0,0,1,81,false,stim,false,2,318.59999999403954,1,0,0,13581,task3,1014546,false,false,1258,image-keyboard-response,14
true,18,2,1,2,true,d,false,true,0.0-2.0-0.43-0.394-3.394,0,0,1,68,false,stim,false,2,1852.0,1,1,2,13581,task3,1017927,false,false,1261,image-keyboard-response,15
true,18,0,1,0,true,q,false,true,0.0-2.0-0.43-0.395-3.395,0,0,1,81,false,stim,false,1,318.0,1,0,1,13581,task3,1019767,false,false,1264,image-keyboard-response,16
true,18,0,1,0,true,q,false,true,0.0-2.0-0.44-0.396-3.396,0,0,1,81,false,stim,false,1,290.1000000089407,1,0,1,13581,task3,1021581,false,false,1267,image-keyboard-response,17
true,18,2,1,2,true,d,false,true,0.0-2.0-0.44-0.397-3.397,0,0,1,68,false,stim,false,2,490.0,1,1,2,13581,task3,1023606,false,false,1270,image-keyboard-response,18
true,18,0,1,0,true,q,false,true,0.0-2.0-0.44-0.398-3.398,0,0,1,81,false,stim,false,2,398.5,1,0,0,13581,task3,1025540,false,false,1273,image-keyboard-response,19
true,18,0,1,0,true,q,false,true,0.0-2.0-0.44-0.399-3.399,0,0,1,81,false,stim,false,2,355.90000000596046,1,0,0,13581,task3,1027406,false,false,1276,image-keyboard-response,20
true,18,2,1,2,true,d,false,true,0.0-2.0-0.44-0.400-3.400,0,0,1,68,false,stim,false,2,745.5,1,1,2,13581,task3,1029685,false,false,1279,image-keyboard-response,21
true,18,0,1,0,true,q,false,true,0.0-2.0-0.44-0.401-3.401,0,0,1,81,false,stim,false,1,1263.4000000059605,1,0,1,13581,task3,1032480,false,false,1282,image-keyboard-response,22
true,18,0,1,0,true,q,false,true,0.0-2.0-0.44-0.402-3.402,0,0,1,81,false,stim,false,2,464.20000000298023,1,0,0,13581,task3,1034461,false,false,1285,image-keyboard-response,23
true,18,2,1,2,true,d,false,true,0.0-2.0-0.44-0.403-3.403,0,0,1,68,false,stim,false,2,405.09999999403954,1,1,2,13581,task3,1036385,false,false,1288,image-keyboard-response,24
true,18,0,1,0,true,q,false,true,0.0-2.0-0.44-0.404-3.404,0,0,1,81,false,stim,false,1,698.2999999970198,1,0,1,13581,task3,1038610,false,false,1291,image-keyboard-response,25
true,18,0,1,0,true,q,false,false,0.0-2.0-0.45-0.405-3.405,0,0,1,81,false,stim,false,2,727.9000000059605,1,1,0,13581,task3,1040869,false,true,1294,image-keyboard-response,26
true,18,0,1,0,true,q,false,true,0.0-2.0-0.45-0.406-3.406,0,0,1,81,false,stim,false,2,449.6000000089407,1,1,0,13581,task3,1042849,false,false,1297,image-keyboard-response,27
true,18,2,1,2,true,d,false,true,0.0-2.0-0.45-0.407-3.407,0,0,1,68,false,stim,false,2,597.3000000119209,1,1,2,13581,task3,1044959,false,false,1300,image-keyboard-response,28
true,18,0,1,0,true,q,false,true,0.0-2.0-0.45-0.408-3.408,0,0,1,81,false,stim,false,1,610.7000000029802,1,0,1,13581,task3,1047098,false,false,1303,image-keyboard-response,29
true,18,2,1,2,true,d,false,true,0.0-2.0-0.45-0.409-3.409,0,0,1,68,false,stim,false,2,721.8999999910593,1,1,2,13581,task3,1049339,false,false,1306,image-keyboard-response,30
true,19,0,2,0,true,q,false,true,0.0-2.0-0.45-0.410-3.410,1,0,1,81,true,stim,false,0,429.80000001192093,1,1,0,13581,task3,1051295,false,false,1309,image-keyboard-response,1
true,19,0,2,1,false,z,false,false,0.0-2.0-0.45-0.411-3.411,1,0,1,81,false,stim,true,0,622.0,1,0,1,13581,task3,1053429,false,false,1312,image-keyboard-response,2
true,19,2,2,2,true,d,false,true,0.0-2.0-0.45-0.412-3.412,1,0,1,68,false,stim,false,2,625.0999999940395,1,1,2,13581,task3,1055589,false,false,1315,image-keyboard-response,3
true,19,0,2,1,false,z,false,true,0.0-2.0-0.45-0.413-3.413,1,0,1,81,false,stim,true,0,365.3999999910593,1,0,1,13581,task3,1057479,false,true,1318,image-keyboard-response,4
true,19,0,2,1,false,z,false,false,0.0-2.0-0.46-0.414-3.414,1,0,1,81,false,stim,true,0,720.0,1,0,1,13581,task3,1059734,false,false,1321,image-keyboard-response,5
true,19,0,2,1,false,z,false,false,0.0-2.0-0.46-0.415-3.415,1,0,1,81,false,stim,true,0,799.8000000119209,1,0,1,13581,task3,1062054,false,false,1324,image-keyboard-response,6
true,19,2,2,2,true,d,false,true,0.0-2.0-0.46-0.416-3.416,1,0,1,68,false,stim,false,2,1020.0,1,0,2,13581,task3,1064589,false,false,1327,image-keyboard-response,7
true,19,2,2,2,true,d,false,false,0.0-2.0-0.46-0.417-3.417,1,0,1,68,false,stim,false,2,1050.0999999940395,1,0,2,13581,task3,1067157,false,true,1330,image-keyboard-response,8
true,19,0,2,0,true,q,false,true,0.0-2.0-0.46-0.418-3.418,1,0,1,81,false,stim,false,0,1005.5,1,1,0,13581,task3,1069676,false,false,1333,image-keyboard-response,9
true,19,2,2,2,true,d,false,false,0.0-2.0-0.46-0.419-3.419,1,0,1,68,false,stim,false,2,726.5999999940395,1,0,2,13581,task3,1071911,false,true,1336,image-keyboard-response,10
true,19,0,2,0,true,q,false,true,0.0-2.0-0.46-0.420-3.420,1,0,1,81,false,stim,false,0,1101.6000000089407,1,1,0,13581,task3,1074537,false,false,1339,image-keyboard-response,11
true,20,0,2,0,true,q,false,false,0.0-2.0-0.46-0.421-3.421,1,1,0,81,true,stim,false,0,650.0,1,1,0,13581,task3,1076712,false,true,1342,image-keyboard-response,1
true,20,1,2,1,true,z,false,true,0.0-2.0-0.46-0.422-3.422,1,1,0,90,false,stim,false,1,375.20000000298023,1,1,1,13581,task3,1078603,false,false,1345,image-keyboard-response,2
true,20,1,2,0,false,q,true,false,0.0-2.0-0.47-0.423-3.423,1,1,0,90,false,stim,false,2,887.2000000029802,1,0,2,13581,task3,1081003,false,false,1348,image-keyboard-response,3
true,20,1,2,1,true,z,false,true,0.0-2.0-0.47-0.424-3.424,1,1,0,90,false,stim,false,1,986.0,1,1,1,13581,task3,1083517,false,false,1351,image-keyboard-response,4
true,20,1,2,1,true,z,false,true,0.0-2.0-0.47-0.425-3.425,1,1,0,90,false,stim,false,1,500.1000000089407,1,1,1,13581,task3,1085547,false,false,1354,image-keyboard-response,5
true,20,0,2,0,true,q,false,true,0.0-2.0-0.47-0.426-3.426,1,1,0,81,false,stim,false,2,472.79999999701977,1,0,2,13581,task3,1087532,false,false,1357,image-keyboard-response,6
true,20,0,2,0,true,q,false,true,0.0-2.0-0.47-0.427-3.427,1,1,0,81,false,stim,false,0,737.9000000059605,1,1,0,13581,task3,1089803,false,false,1360,image-keyboard-response,7
true,20,0,2,0,true,q,false,true,0.0-2.0-0.47-0.428-3.428,1,1,0,81,false,stim,false,0,674.2000000029802,1,1,0,13581,task3,1092002,false,false,1363,image-keyboard-response,8
true,20,0,2,0,true,q,false,true,0.0-2.0-0.47-0.429-3.429,1,1,0,81,false,stim,false,2,356.5,1,0,2,13581,task3,1093873,false,false,1366,image-keyboard-response,9
true,20,1,2,1,true,z,false,true,0.0-2.0-0.47-0.430-3.430,1,1,0,90,false,stim,false,1,416.59999999403954,1,1,1,13581,task3,1095825,false,false,1369,image-keyboard-response,10
true,20,0,2,0,true,q,false,true,0.0-2.0-0.47-0.431-3.431,1,1,0,81,false,stim,false,0,513.0999999940395,1,1,0,13581,task3,1097860,false,false,1372,image-keyboard-response,11
true,20,0,2,0,true,q,false,true,0.0-2.0-0.48-0.432-3.432,1,1,0,81,false,stim,false,0,323.90000000596046,1,1,0,13581,task3,1099711,false,false,1375,image-keyboard-response,12
true,20,1,2,1,true,z,false,true,0.0-2.0-0.48-0.433-3.433,1,1,0,90,false,stim,false,1,694.7999999970198,1,1,1,13581,task3,1101946,false,false,1378,image-keyboard-response,13
true,20,0,2,0,true,q,false,true,0.0-2.0-0.48-0.434-3.434,1,1,0,81,false,stim,false,2,333.70000000298023,1,0,2,13581,task3,1103794,false,false,1381,image-keyboard-response,14
true,20,0,2,0,true,q,false,true,0.0-2.0-0.48-0.435-3.435,1,1,0,81,false,stim,false,0,347.5,1,1,0,13581,task3,1105661,false,false,1384,image-keyboard-response,15
true,20,0,2,0,true,q,false,true,0.0-2.0-0.48-0.436-3.436,1,1,0,81,false,stim,false,2,420.79999999701977,1,0,2,13581,task3,1107604,false,false,1387,image-keyboard-response,16
true,20,1,2,1,true,z,false,true,0.0-2.0-0.48-0.437-3.437,1,1,0,90,false,stim,false,1,353.59999999403954,1,1,1,13581,task3,1109479,false,false,1390,image-keyboard-response,17
true,20,0,2,0,true,q,false,true,0.0-2.0-0.48-0.438-3.438,1,1,0,81,false,stim,false,2,396.29999999701977,1,0,2,13581,task3,1111394,false,false,1393,image-keyboard-response,18
true,20,1,2,1,true,z,false,true,0.0-2.0-0.48-0.439-3.439,1,1,0,90,false,stim,false,1,392.29999999701977,1,1,1,13581,task3,1113303,false,false,1396,image-keyboard-response,19
true,20,0,2,0,true,q,false,true,0.0-2.0-0.48-0.440-3.440,1,1,0,81,false,stim,false,0,388.0,1,0,0,13581,task3,1115212,false,false,1399,image-keyboard-response,20
true,20,0,2,0,true,q,false,true,0.0-2.0-0.49-0.441-3.441,1,1,0,81,false,stim,false,0,445.69999998807907,1,0,0,13581,task3,1117182,false,false,1402,image-keyboard-response,21
true,20,0,2,0,true,q,false,true,0.0-2.0-0.49-0.442-3.442,1,1,0,81,false,stim,false,2,920.5999999940395,1,0,2,13581,task3,1119612,false,false,1405,image-keyboard-response,22
true,20,1,2,1,true,z,false,false,0.0-2.0-0.49-0.443-3.443,1,1,0,90,false,stim,false,1,616.5,1,1,1,13581,task3,1121743,false,true,1408,image-keyboard-response,23
true,20,0,2,0,true,q,false,false,0.0-2.0-0.49-0.444-3.444,1,1,0,81,false,stim,false,0,375.0,1,0,0,13581,task3,1123648,false,true,1411,image-keyboard-response,24
true,21,1,1,1,true,z,false,true,0.0-2.0-0.49-0.445-3.445,0,1,0,90,true,stim,false,1,529.0999999940395,1,1,1,13581,task3,1125698,false,false,1414,image-keyboard-response,1
true,21,0,1,1,false,z,false,false,0.0-2.0-0.49-0.446-3.446,0,1,0,81,false,stim,true,0,692.2000000029802,1,0,2,13581,task3,1127917,false,false,1417,image-keyboard-response,2
true,21,1,1,1,true,z,false,true,0.0-2.0-0.49-0.447-3.447,0,1,0,90,false,stim,false,0,901.7999999970198,1,0,2,13581,task3,1130341,false,false,1420,image-keyboard-response,3
true,21,1,1,1,true,z,false,true,0.0-2.0-0.49-0.448-3.448,0,1,0,90,false,stim,false,1,540.3999999910593,1,1,1,13581,task3,1132403,false,false,1423,image-keyboard-response,4
true,21,0,1,2,false,d,false,false,0.0-2.0-0.49-0.449-3.449,0,1,0,81,false,stim,true,0,1407.2000000029802,1,0,0,13581,task3,1135334,false,false,1426,image-keyboard-response,5
true,21,2,1,2,true,d,false,true,0.0-2.0-0.50-0.450-3.450,0,1,0,68,false,stim,false,0,925.3000000119209,1,0,0,13581,task3,1137786,false,false,1429,image-keyboard-response,6
true,21,1,1,1,true,z,false,true,0.0-2.0-0.50-0.451-3.451,0,1,0,90,false,stim,false,0,389.59999999403954,1,0,2,13581,task3,1139695,false,false,1432,image-keyboard-response,7
true,21,1,1,1,true,z,false,true,0.0-2.0-0.50-0.452-3.452,0,1,0,90,false,stim,false,1,303.40000000596046,1,1,1,13581,task3,1141525,false,false,1435,image-keyboard-response,8
true,21,1,1,1,true,z,false,true,0.0-2.0-0.50-0.453-3.453,0,1,0,90,false,stim,false,0,346.20000000298023,1,0,2,13581,task3,1143395,false,false,1438,image-keyboard-response,9
true,21,1,1,1,true,z,false,false,0.0-2.0-0.50-0.454-3.454,0,1,0,90,false,stim,false,1,348.40000000596046,1,1,1,13581,task3,1145275,false,true,1441,image-keyboard-response,10
true,21,2,1,2,true,d,false,true,0.0-2.0-0.50-0.455-3.455,0,1,0,68,false,stim,false,0,432.5,1,0,0,13581,task3,1147232,false,false,1444,image-keyboard-response,11
true,21,2,1,2,true,d,false,true,0.0-2.0-0.50-0.456-3.456,0,1,0,68,false,stim,false,0,658.0,1,0,0,13581,task3,1149415,false,false,1447,image-keyboard-response,12
true,21,2,1,1,false,z,true,false,0.0-2.0-0.50-0.457-3.457,0,1,0,68,false,stim,false,0,594.5,1,0,2,13581,task3,1151545,false,false,1450,image-keyboard-response,13
true,21,1,1,1,true,z,false,false,0.0-2.0-0.50-0.458-3.458,0,1,0,90,false,stim,false,1,551.8999999910593,1,1,1,13581,task3,1153651,false,true,1453,image-keyboard-response,14
true,21,0,1,1,false,z,true,false,0.0-2.0-0.51-0.459-3.459,0,1,0,81,false,stim,false,1,1241.0,1,1,1,13581,task3,1156410,false,false,1456,image-keyboard-response,15
true,21,2,1,2,true,d,false,true,0.0-2.0-0.51-0.460-3.460,0,1,0,68,false,stim,false,0,1201.7000000029802,1,0,0,13581,task3,1159137,false,false,1459,image-keyboard-response,16
true,21,1,1,1,true,z,false,true,0.0-2.0-0.51-0.461-3.461,0,1,0,90,false,stim,false,0,452.19999998807907,1,0,2,13581,task3,1161114,false,false,1462,image-keyboard-response,17
true,21,1,1,1,true,z,false,true,0.0-2.0-0.51-0.462-3.462,0,1,0,90,false,stim,false,0,960.2999999970198,1,0,2,13581,task3,1163594,false,false,1465,image-keyboard-response,18
true,21,2,1,2,true,d,false,true,0.0-2.0-0.51-0.463-3.463,0,1,0,68,false,stim,false,0,796.5999999940395,1,0,0,13581,task3,1165913,false,false,1468,image-keyboard-response,19
true,21,1,1,1,true,z,false,true,0.0-2.0-0.51-0.464-3.464,0,1,0,90,false,stim,false,0,1075.7000000029802,1,0,2,13581,task3,1168504,false,false,1471,image-keyboard-response,20
true,21,2,1,1,false,z,true,false,0.0-2.0-0.51-0.465-3.465,0,1,0,68,false,stim,false,1,902.0,1,1,1,13581,task3,1170948,false,false,1474,image-keyboard-response,21
true,21,2,1,2,true,d,false,true,0.0-2.0-0.51-0.466-3.466,0,1,0,68,false,stim,false,0,1374.0999999940395,1,0,0,13581,task3,1173844,false,false,1477,image-keyboard-response,22
true,21,1,1,1,true,z,false,true,0.0-2.0-0.51-0.467-3.467,0,1,0,90,false,stim,false,1,616.4000000059605,1,1,1,13581,task3,1175989,false,false,1480,image-keyboard-response,23
true,21,2,1,2,true,d,false,true,0.0-2.0-0.52-0.468-3.468,0,1,0,68,false,stim,false,0,931.2999999970198,1,1,0,13581,task3,1178457,false,false,1483,image-keyboard-response,24
true,21,1,1,1,true,z,false,true,0.0-2.0-0.52-0.469-3.469,0,1,0,90,false,stim,false,1,364.19999998807907,1,1,1,13581,task3,1180358,false,false,1486,image-keyboard-response,25
true,21,2,1,2,true,d,false,true,0.0-2.0-0.52-0.470-3.470,0,1,0,68,false,stim,false,0,675.4000000059605,1,1,0,13581,task3,1182553,false,false,1489,image-keyboard-response,26
true,21,1,1,1,true,z,false,false,0.0-2.0-0.52-0.471-3.471,0,1,0,90,false,stim,false,1,374.6000000089407,1,1,1,13581,task3,1184456,false,true,1492,image-keyboard-response,27
true,22,1,2,0,false,q,false,false,0.0-2.0-0.52-0.472-3.472,1,1,0,90,true,stim,true,1,989.2000000029802,1,0,2,13581,task3,1186965,false,false,1495,image-keyboard-response,1
true,22,1,2,1,true,z,false,true,0.0-2.0-0.52-0.473-3.473,1,1,0,90,false,stim,false,1,741.5,1,1,1,13581,task3,1189220,false,false,1498,image-keyboard-response,2
true,22,2,2,2,true,d,false,true,0.0-2.0-0.52-0.474-3.474,1,1,0,68,false,stim,false,2,567.0,1,1,0,13581,task3,1191315,false,false,1501,image-keyboard-response,3
true,22,1,2,0,false,q,false,false,0.0-2.0-0.52-0.475-3.475,1,1,0,90,false,stim,true,1,341.70000000298023,1,0,2,13581,task3,1193184,false,false,1504,image-keyboard-response,4
true,22,2,2,0,false,q,true,true,0.0-2.0-0.52-0.476-3.476,1,1,0,68,false,stim,false,1,806.0,1,0,2,13581,task3,1195510,false,true,1507,image-keyboard-response,5
true,22,1,2,1,true,z,false,false,0.0-2.0-0.53-0.477-3.477,1,1,0,90,false,stim,false,1,792.2999999970198,1,1,1,13581,task3,1197835,false,true,1510,image-keyboard-response,6
true,22,2,2,2,true,d,false,true,0.0-2.0-0.53-0.478-3.478,1,1,0,68,false,stim,false,2,610.1999999880791,1,1,0,13581,task3,1199976,false,false,1513,image-keyboard-response,7
true,22,2,2,0,false,q,true,false,0.0-2.0-0.53-0.479-3.479,1,1,0,68,false,stim,false,1,616.3999999910593,1,0,2,13581,task3,1202115,false,false,1516,image-keyboard-response,8
true,22,2,2,0,false,q,true,false,0.0-2.0-0.53-0.480-3.480,1,1,0,68,false,stim,false,1,379.79999999701977,1,0,2,13581,task3,1204011,false,false,1519,image-keyboard-response,9
true,22,1,2,1,true,z,false,true,0.0-2.0-0.53-0.481-3.481,1,1,0,90,false,stim,false,1,890.1000000089407,1,1,1,13581,task3,1206420,false,false,1522,image-keyboard-response,10
true,22,2,2,2,true,d,false,true,0.0-2.0-0.53-0.482-3.482,1,1,0,68,false,stim,false,2,519.3999999910593,1,1,0,13581,task3,1208463,false,false,1525,image-keyboard-response,11
true,22,0,2,0,true,q,false,true,0.0-2.0-0.53-0.483-3.483,1,1,0,81,false,stim,false,1,1005.5,1,0,2,13581,task3,1211008,false,false,1528,image-keyboard-response,12
true,22,1,2,1,true,z,false,true,0.0-2.0-0.53-0.484-3.484,1,1,0,90,false,stim,false,1,810.6999999880791,1,1,1,13581,task3,1213342,false,false,1531,image-keyboard-response,13
true,22,2,2,2,true,d,false,false,0.0-2.0-0.53-0.485-3.485,1,1,0,68,false,stim,false,2,792.2999999970198,1,1,0,13581,task3,1215646,false,true,1534,image-keyboard-response,14
true,22,1,2,1,true,z,false,true,0.0-2.0-0.54-0.486-3.486,1,1,0,90,false,stim,false,1,709.5999999940395,1,1,1,13581,task3,1217886,false,false,1537,image-keyboard-response,15
true,22,1,2,1,true,z,false,true,0.0-2.0-0.54-0.487-3.487,1,1,0,90,false,stim,false,1,660.0,1,1,1,13581,task3,1220069,false,false,1540,image-keyboard-response,16
true,22,0,2,2,false,d,true,false,0.0-2.0-0.54-0.488-3.488,1,1,0,81,false,stim,false,2,483.80000001192093,1,1,0,13581,task3,1222086,false,false,1543,image-keyboard-response,17
true,22,2,2,2,true,d,false,true,0.0-2.0-0.54-0.489-3.489,1,1,0,68,false,stim,false,2,880.5,1,1,0,13581,task3,1224492,false,false,1546,image-keyboard-response,18
true,22,1,2,1,true,z,false,true,0.0-2.0-0.54-0.490-3.490,1,1,0,90,false,stim,false,1,1265.0999999940395,1,1,1,13581,task3,1227286,false,false,1549,image-keyboard-response,19
true,22,0,2,0,true,q,false,true,0.0-2.0-0.54-0.491-3.491,1,1,0,81,false,stim,false,1,619.0,1,0,2,13581,task3,1229436,false,false,1552,image-keyboard-response,20
true,22,0,2,0,true,q,false,true,0.0-2.0-0.54-0.492-3.492,1,1,0,81,false,stim,false,1,1237.0,1,0,2,13581,task3,1232196,false,false,1555,image-keyboard-response,21
true,22,2,2,2,true,d,false,true,0.0-2.0-0.54-0.493-3.493,1,1,0,68,false,stim,false,2,1183.1000000089407,1,1,0,13581,task3,1234912,false,false,1558,image-keyboard-response,22
true,22,0,2,0,true,q,false,true,0.0-2.0-0.54-0.494-3.494,1,1,0,81,false,stim,false,1,1881.0999999940395,1,0,2,13581,task3,1238319,false,false,1561,image-keyboard-response,23
true,22,0,2,0,true,q,false,true,0.0-2.0-0.55-0.495-3.495,1,1,0,81,false,stim,false,1,492.20000000298023,1,0,2,13581,task3,1240339,false,false,1564,image-keyboard-response,24
true,22,1,2,2,false,d,true,false,0.0-2.0-0.55-0.496-3.496,1,1,0,90,false,stim,false,2,901.0,1,1,0,13581,task3,1242763,false,false,1567,image-keyboard-response,25
true,22,1,2,1,true,z,false,true,0.0-2.0-0.55-0.497-3.497,1,1,0,90,false,stim,false,1,853.5,1,0,1,13581,task3,1245153,false,false,1570,image-keyboard-response,26
true,22,1,2,1,true,z,false,true,0.0-2.0-0.55-0.498-3.498,1,1,0,90,false,stim,false,1,633.0,1,0,1,13581,task3,1247298,false,false,1573,image-keyboard-response,27
true,23,2,1,2,true,d,false,true,0.0-2.0-0.55-0.499-3.499,1,0,0,68,true,stim,false,2,672.6000000089407,1,1,0,13581,task3,1249482,false,false,1576,image-keyboard-response,1
true,23,0,1,1,false,z,false,true,0.0-2.0-0.55-0.500-3.500,1,0,0,81,false,stim,true,0,905.7999999970198,1,0,2,13581,task3,1251928,false,true,1579,image-keyboard-response,2
true,23,2,1,2,true,d,false,true,0.0-2.0-0.55-0.501-3.501,1,0,0,68,false,stim,false,2,908.7999999970198,1,1,0,13581,task3,1254362,false,false,1582,image-keyboard-response,3
true,23,0,1,1,false,z,false,false,0.0-2.0-0.55-0.502-3.502,1,0,0,81,false,stim,true,0,755.2999999970198,1,0,2,13581,task3,1256652,false,false,1585,image-keyboard-response,4
true,23,1,1,0,false,q,false,false,0.0-2.0-0.55-0.503-3.503,1,0,0,90,false,stim,true,1,670.2000000029802,1,0,1,13581,task3,1258856,false,false,1588,image-keyboard-response,5
true,23,0,1,1,false,z,false,false,0.0-2.0-0.56-0.504-3.504,1,0,0,81,false,stim,true,0,814.0,1,0,2,13581,task3,1261180,false,false,1591,image-keyboard-response,6
true,23,1,1,1,true,z,false,true,0.0-2.0-0.56-0.505-3.505,1,0,0,90,false,stim,false,0,691.6000000089407,1,0,2,13581,task3,1263400,false,false,1594,image-keyboard-response,7
true,23,2,1,2,true,d,false,true,0.0-2.0-0.56-0.506-3.506,1,0,0,68,false,stim,false,2,418.29999999701977,1,1,0,13581,task3,1265345,false,false,1597,image-keyboard-response,8
true,23,2,1,0,false,q,true,false,0.0-2.0-0.56-0.507-3.507,1,0,0,68,false,stim,false,1,802.9000000059605,1,0,1,13581,task3,1267673,false,false,1600,image-keyboard-response,9
true,23,1,1,0,false,q,false,true,0.0-2.0-0.56-0.508-3.508,1,0,0,90,false,stim,true,1,422.59999999403954,1,1,1,13581,task3,1269645,false,true,1603,image-keyboard-response,10
true,23,1,1,0,false,q,false,false,0.0-2.0-0.56-0.509-3.509,1,0,0,90,false,stim,true,1,737.5,1,1,1,13581,task3,1271909,false,false,1606,image-keyboard-response,11
true,23,2,1,2,true,d,false,true,0.0-2.0-0.56-0.510-3.510,1,0,0,68,false,stim,false,2,602.2999999970198,1,0,0,13581,task3,1274041,false,false,1609,image-keyboard-response,12
true,23,1,1,1,true,z,false,true,0.0-2.0-0.56-0.511-3.511,1,0,0,90,false,stim,false,0,669.8000000119209,1,1,2,13581,task3,1276249,false,false,1612,image-keyboard-response,13
true,23,2,1,2,true,d,false,true,0.0-2.0-0.56-0.512-3.512,1,0,0,68,false,stim,false,2,665.3000000119209,1,0,0,13581,task3,1278436,false,false,1615,image-keyboard-response,14
true,24,2,2,0,false,q,false,false,0.0-2.0-0.57-0.513-3.513,0,1,1,68,true,stim,true,2,674.4000000059605,1,0,0,13581,task3,1280643,false,false,1618,image-keyboard-response,1
true,24,1,2,0,false,q,true,false,0.0-2.0-0.57-0.514-3.514,0,1,1,90,false,stim,false,0,355.09999999403954,1,1,1,13581,task3,1282523,false,false,1621,image-keyboard-response,2
true,24,1,2,1,true,z,false,true,0.0-2.0-0.57-0.515-3.515,0,1,1,90,false,stim,false,1,718.2999999970198,1,1,2,13581,task3,1284762,false,false,1624,image-keyboard-response,3
true,24,0,2,0,true,q,false,true,0.0-2.0-0.57-0.516-3.516,0,1,1,81,false,stim,false,0,790.0,1,1,1,13581,task3,1287072,false,false,1627,image-keyboard-response,4
true,24,1,2,1,true,z,false,true,0.0-2.0-0.57-0.517-3.517,0,1,1,90,false,stim,false,1,897.0999999940395,1,1,2,13581,task3,1289482,false,false,1630,image-keyboard-response,5
true,24,1,2,1,true,z,false,true,0.0-2.0-0.57-0.518-3.518,0,1,1,90,false,stim,false,1,463.0,1,1,2,13581,task3,1291471,false,false,1633,image-keyboard-response,6
true,24,0,2,0,true,q,false,true,0.0-2.0-0.57-0.519-3.519,0,1,1,81,false,stim,false,0,1095.2999999970198,1,0,1,13581,task3,1294097,false,false,1636,image-keyboard-response,7
true,24,2,2,0,false,q,false,false,0.0-2.0-0.57-0.520-3.520,0,1,1,68,false,stim,true,2,734.0999999940395,1,1,0,13581,task3,1296358,false,false,1639,image-keyboard-response,8
true,24,1,2,0,false,q,true,false,0.0-2.0-0.57-0.521-3.521,0,1,1,90,false,stim,false,2,565.2000000029802,1,1,0,13581,task3,1298442,false,false,1642,image-keyboard-response,9
true,24,1,2,1,true,z,false,true,0.0-2.0-0.58-0.522-3.522,0,1,1,90,false,stim,false,1,992.6000000089407,1,1,2,13581,task3,1300948,false,false,1645,image-keyboard-response,10
true,24,0,2,0,true,q,false,false,0.0-2.0-0.58-0.523-3.523,0,1,1,81,false,stim,false,2,512.0,1,1,0,13581,task3,1302971,false,true,1648,image-keyboard-response,11
true,25,0,2,1,false,z,false,false,0.0-2.0-0.58-0.524-3.524,1,0,1,81,true,stim,true,0,794.5999999940395,1,0,1,13581,task3,1305291,false,false,1651,image-keyboard-response,1
true,25,0,2,1,false,z,false,false,0.0-2.0-0.58-0.525-3.525,1,0,1,81,false,stim,true,0,872.0999999940395,1,0,1,13581,task3,1307685,false,false,1654,image-keyboard-response,2
true,25,2,2,0,false,q,true,false,0.0-2.0-0.58-0.526-3.526,1,0,1,68,false,stim,false,0,922.0999999940395,1,1,0,13581,task3,1310141,false,false,1657,image-keyboard-response,3
true,25,1,2,0,false,q,true,false,0.0-2.0-0.58-0.527-3.527,1,0,1,90,false,stim,false,0,383.70000000298023,1,1,0,13581,task3,1312058,false,false,1660,image-keyboard-response,4
true,25,1,2,1,true,z,false,true,0.0-2.0-0.58-0.528-3.528,1,0,1,90,false,stim,false,1,960.8999999910593,1,1,2,13581,task3,1314538,false,false,1663,image-keyboard-response,5
true,25,2,2,1,false,z,true,false,0.0-2.0-0.58-0.529-3.529,1,0,1,68,false,stim,false,1,995.5,1,1,2,13581,task3,1317057,false,false,1666,image-keyboard-response,6
true,25,1,2,1,true,z,false,true,0.0-2.0-0.58-0.530-3.530,1,0,1,90,false,stim,false,0,1041.1000000089407,1,0,1,13581,task3,1319624,false,false,1669,image-keyboard-response,7
true,25,1,2,1,true,z,false,true,0.0-2.0-0.59-0.531-3.531,1,0,1,90,false,stim,false,0,439.8999999910593,1,0,1,13581,task3,1321588,false,false,1672,image-keyboard-response,8
true,25,1,2,0,false,q,true,false,0.0-2.0-0.59-0.532-3.532,1,0,1,90,false,stim,false,0,770.0999999940395,1,1,0,13581,task3,1323879,false,false,1675,image-keyboard-response,9
true,25,0,2,0,true,q,false,true,0.0-2.0-0.59-0.533-3.533,1,0,1,81,false,stim,false,0,551.7000000029802,1,1,0,13581,task3,1325964,false,false,1678,image-keyboard-response,10
true,25,1,2,1,true,z,false,true,0.0-2.0-0.59-0.534-3.534,1,0,1,90,false,stim,false,1,573.0,1,1,2,13581,task3,1328057,false,false,1681,image-keyboard-response,11
true,25,1,2,1,true,z,false,true,0.0-2.0-0.59-0.535-3.535,1,0,1,90,false,stim,false,1,391.79999999701977,1,1,2,13581,task3,1329972,false,false,1684,image-keyboard-response,12
true,25,0,2,0,true,q,false,true,0.0-2.0-0.59-0.536-3.536,1,0,1,81,false,stim,false,0,448.3999999910593,1,1,0,13581,task3,1331936,false,false,1687,image-keyboard-response,13
true,25,1,2,1,true,z,false,true,0.0-2.0-0.59-0.537-3.537,1,0,1,90,false,stim,false,0,670.5999999940395,1,1,1,13581,task3,1334116,false,false,1690,image-keyboard-response,14
true,25,1,2,1,true,z,false,true,0.0-2.0-0.59-0.538-3.538,1,0,1,90,false,stim,false,1,308.40000000596046,1,1,2,13581,task3,1335945,false,false,1693,image-keyboard-response,15
true,25,1,2,1,true,z,false,true,0.0-2.0-0.59-0.539-3.539,1,0,1,90,false,stim,false,0,374.69999998807907,1,1,1,13581,task3,1337830,false,false,1696,image-keyboard-response,16
true,26,1,0,1,true,z,false,true,0.0-2.0-0.60-0.540-3.540,1,1,1,90,true,stim,false,1,752.5,1,1,1,13581,task3,1347865,false,false,1707,image-keyboard-response,1
true,26,1,0,1,true,z,false,true,0.0-2.0-0.60-0.541-3.541,1,1,1,90,false,stim,false,1,331.29999999701977,1,1,2,13581,task3,1349725,false,false,1710,image-keyboard-response,2
true,26,0,0,0,true,q,false,true,0.0-2.0-0.60-0.542-3.542,1,1,1,81,false,stim,false,0,373.19999998807907,1,1,0,13581,task3,1351615,false,false,1713,image-keyboard-response,3
true,26,0,0,0,true,q,false,true,0.0-2.0-0.60-0.543-3.543,1,1,1,81,false,stim,false,0,557.5999999940395,1,1,0,13581,task3,1353706,false,false,1716,image-keyboard-response,4
true,26,1,0,1,true,z,false,true,0.0-2.0-0.60-0.544-3.544,1,1,1,90,false,stim,false,1,440.30000001192093,1,1,1,13581,task3,1355664,false,false,1719,image-keyboard-response,5
true,26,1,0,1,true,z,false,true,0.0-2.0-0.60-0.545-3.545,1,1,1,90,false,stim,false,1,318.09999999403954,1,1,1,13581,task3,1357499,false,false,1722,image-keyboard-response,6
true,26,1,0,1,true,z,false,true,0.0-2.0-0.60-0.546-3.546,1,1,1,90,false,stim,false,1,387.29999999701977,1,1,2,13581,task3,1359412,false,false,1725,image-keyboard-response,7
true,26,1,0,1,true,z,false,true,0.0-2.0-0.60-0.547-3.547,1,1,1,90,false,stim,false,1,399.59999999403954,1,1,2,13581,task3,1361332,false,false,1728,image-keyboard-response,8
true,26,0,0,0,true,q,false,true,0.0-2.0-0.60-0.548-3.548,1,1,1,81,false,stim,false,0,412.5,1,1,0,13581,task3,1363267,false,false,1731,image-keyboard-response,9
true,26,1,0,1,true,z,false,true,0.0-2.0-0.61-0.549-3.549,1,1,1,90,false,stim,false,1,398.5,1,0,2,13581,task3,1365182,false,false,1734,image-keyboard-response,10
true,26,0,0,0,true,q,false,true,0.0-2.0-0.61-0.550-3.550,1,1,1,81,false,stim,false,0,557.1000000089407,1,0,0,13581,task3,1367253,false,false,1737,image-keyboard-response,11
true,26,1,0,1,true,z,false,false,0.0-2.0-0.61-0.551-3.551,1,1,1,90,false,stim,false,1,345.5,1,1,1,13581,task3,1369133,false,true,1740,image-keyboard-response,12
true,26,1,0,1,true,z,false,true,0.0-2.0-0.61-0.552-3.552,1,1,1,90,false,stim,false,1,1725.4000000059605,1,0,2,13581,task3,1372392,false,false,1743,image-keyboard-response,13
true,26,0,0,0,true,q,false,false,0.0-2.0-0.61-0.553-3.553,1,1,1,81,false,stim,false,0,748.0,1,0,0,13581,task3,1374657,false,true,1746,image-keyboard-response,14
true,27,1,1,1,true,z,false,true,0.0-2.0-0.61-0.554-3.554,0,1,0,90,true,stim,false,0,748.0,1,0,0,13581,task3,1376927,false,false,1749,image-keyboard-response,1
true,27,0,1,1,false,z,true,false,0.0-2.0-0.61-0.555-3.555,0,1,0,81,false,stim,false,1,1259.5999999940395,1,1,1,13581,task3,1379703,false,false,1752,image-keyboard-response,2
true,27,2,1,1,false,z,true,false,0.0-2.0-0.61-0.556-3.556,0,1,0,68,false,stim,false,1,477.5,1,1,1,13581,task3,1381726,false,false,1755,image-keyboard-response,3
true,27,1,1,0,false,q,false,false,0.0-2.0-0.61-0.557-3.557,0,1,0,90,false,stim,true,1,649.3999999910593,1,0,2,13581,task3,1383895,false,false,1758,image-keyboard-response,4
true,27,1,1,1,true,z,false,true,0.0-2.0-0.62-0.558-3.558,0,1,0,90,false,stim,false,0,276.90000000596046,1,0,0,13581,task3,1385701,false,false,1761,image-keyboard-response,5
true,27,1,1,0,false,q,false,false,0.0-2.0-0.62-0.559-3.559,0,1,0,90,false,stim,true,1,713.5,1,0,2,13581,task3,1387945,false,false,1764,image-keyboard-response,6
true,27,1,1,1,true,z,false,true,0.0-2.0-0.62-0.560-3.560,0,1,0,90,false,stim,false,1,1370.7000000029802,1,1,1,13581,task3,1390860,false,false,1767,image-keyboard-response,7
true,27,1,1,1,true,z,false,true,0.0-2.0-0.62-0.561-3.561,0,1,0,90,false,stim,false,1,359.8999999910593,1,1,1,13581,task3,1392744,false,false,1770,image-keyboard-response,8
true,27,2,1,0,false,q,true,false,0.0-2.0-0.62-0.562-3.562,0,1,0,68,false,stim,false,1,585.1999999880791,1,0,2,13581,task3,1394845,false,false,1773,image-keyboard-response,9
true,27,0,1,0,true,q,false,true,0.0-2.0-0.62-0.563-3.563,0,1,0,81,false,stim,false,1,569.8000000119209,1,1,2,13581,task3,1396945,false,false,1776,image-keyboard-response,10
true,27,1,1,1,true,z,false,true,0.0-2.0-0.62-0.564-3.564,0,1,0,90,false,stim,false,0,369.40000000596046,1,1,0,13581,task3,1398838,false,false,1779,image-keyboard-response,11
true,27,1,1,1,true,z,false,true,0.0-2.0-0.62-0.565-3.565,0,1,0,90,false,stim,false,0,317.5,1,1,0,13581,task3,1400678,false,false,1782,image-keyboard-response,12
true,27,1,1,1,true,z,false,true,0.0-2.0-0.62-0.566-3.566,0,1,0,90,false,stim,false,1,356.40000000596046,1,0,1,13581,task3,1402564,false,false,1785,image-keyboard-response,13
true,27,1,1,1,true,z,false,true,0.0-2.0-0.63-0.567-3.567,0,1,0,90,false,stim,false,0,435.79999999701977,1,1,0,13581,task3,1404516,false,false,1788,image-keyboard-response,14
true,28,1,2,2,false,d,false,false,0.0-2.0-0.63-0.568-3.568,1,0,1,90,true,stim,true,1,443.70000000298023,1,0,1,13581,task3,1406480,false,false,1791,image-keyboard-response,1
true,28,1,2,1,true,z,false,false,0.0-2.0-0.63-0.569-3.569,1,0,1,90,false,stim,false,1,841.2000000029802,1,1,0,13581,task3,1408855,false,true,1794,image-keyboard-response,2
true,28,1,2,2,false,d,false,false,0.0-2.0-0.63-0.570-3.570,1,0,1,90,false,stim,true,1,559.5999999940395,1,0,1,13581,task3,1410941,false,false,1797,image-keyboard-response,3
true,28,2,2,1,false,z,true,false,0.0-2.0-0.63-0.571-3.571,1,0,1,68,false,stim,false,1,811.7999999970198,1,1,0,13581,task3,1413287,false,false,1800,image-keyboard-response,4
true,28,0,2,0,true,q,false,true,0.0-2.0-0.63-0.572-3.572,1,0,1,81,false,stim,false,0,1041.6000000089407,1,1,2,13581,task3,1415890,false,false,1803,image-keyboard-response,5
true,28,0,2,0,true,q,false,true,0.0-2.0-0.63-0.573-3.573,1,0,1,81,false,stim,false,0,915.1999999880791,1,1,2,13581,task3,1418335,false,false,1806,image-keyboard-response,6
true,28,0,2,0,true,q,false,true,0.0-2.0-0.63-0.574-3.574,1,0,1,81,false,stim,false,0,783.2999999970198,1,1,2,13581,task3,1420636,false,false,1809,image-keyboard-response,7
true,28,2,2,2,true,d,false,true,0.0-2.0-0.63-0.575-3.575,1,0,1,68,false,stim,false,1,803.2000000029802,1,0,1,13581,task3,1422961,false,false,1812,image-keyboard-response,8
true,28,0,2,0,true,q,false,true,0.0-2.0-0.64-0.576-3.576,1,0,1,81,false,stim,false,0,906.1000000089407,1,1,2,13581,task3,1425395,false,false,1815,image-keyboard-response,9
true,28,0,2,0,true,q,false,true,0.0-2.0-0.64-0.577-3.577,1,0,1,81,false,stim,false,0,402.90000000596046,1,1,2,13581,task3,1427324,false,false,1818,image-keyboard-response,10
true,28,2,2,2,true,d,false,true,0.0-2.0-0.64-0.578-3.578,1,0,1,68,false,stim,false,1,677.1999999880791,1,0,1,13581,task3,1429528,false,false,1821,image-keyboard-response,11
true,28,0,2,1,false,z,true,false,0.0-2.0-0.64-0.579-3.579,1,0,1,81,false,stim,false,1,559.5,1,0,0,13581,task3,1431617,false,false,1824,image-keyboard-response,12
true,28,2,2,1,false,z,true,false,0.0-2.0-0.64-0.580-3.580,1,0,1,68,false,stim,false,1,518.8999999910593,1,0,0,13581,task3,1433656,false,false,1827,image-keyboard-response,13
true,28,0,2,2,false,d,true,false,0.0-2.0-0.64-0.581-3.581,1,0,1,81,false,stim,false,1,1819.5999999940395,1,1,1,13581,task3,1437003,false,false,1830,image-keyboard-response,14
true,28,0,2,0,true,q,false,true,0.0-2.0-0.64-0.582-3.582,1,0,1,81,false,stim,false,0,1151.4000000059605,1,0,2,13581,task3,1439667,false,false,1833,image-keyboard-response,15
true,28,2,2,2,true,d,false,true,0.0-2.0-0.64-0.583-3.583,1,0,1,68,false,stim,false,1,479.90000000596046,1,1,1,13581,task3,1441666,false,false,1836,image-keyboard-response,16
true,29,2,1,0,false,q,true,false,0.0-2.0-0.64-0.584-3.584,0,1,0,68,true,stim,false,1,415.70000000298023,1,0,0,13581,task3,1443622,false,false,1839,image-keyboard-response,1
true,29,2,1,2,true,d,false,true,0.0-2.0-0.65-0.585-3.585,0,1,0,68,false,stim,false,2,1153.7999999970198,1,1,1,13581,task3,1446305,false,false,1842,image-keyboard-response,2
true,29,0,1,2,false,d,false,false,0.0-2.0-0.65-0.586-3.586,0,1,0,81,false,stim,true,0,1100.0,1,0,2,13581,task3,1448931,false,false,1845,image-keyboard-response,3
true,29,2,1,2,true,d,false,true,0.0-2.0-0.65-0.587-3.587,0,1,0,68,false,stim,false,2,509.79999999701977,1,1,1,13581,task3,1450971,false,false,1848,image-keyboard-response,4
true,29,0,1,0,true,q,false,true,0.0-2.0-0.65-0.588-3.588,0,1,0,81,false,stim,false,1,829.5,1,0,0,13581,task3,1453326,false,false,1851,image-keyboard-response,5
true,29,2,1,2,true,d,false,true,0.0-2.0-0.65-0.589-3.589,0,1,0,68,false,stim,false,2,734.2999999970198,1,1,1,13581,task3,1455594,false,false,1854,image-keyboard-response,6
true,29,0,1,2,false,d,false,false,0.0-2.0-0.65-0.590-3.590,0,1,0,81,false,stim,true,0,609.0,1,0,2,13581,task3,1457725,false,false,1857,image-keyboard-response,7
true,29,0,1,0,true,q,false,true,0.0-2.0-0.65-0.591-3.591,0,1,0,81,false,stim,false,1,1049.5,1,0,0,13581,task3,1460305,false,false,1860,image-keyboard-response,8
