answered,blockNum,choice,condition,corResp,correct,correct_response,explo,fb,internal_node_id,isStable_1,isStable_2,isStable_3,key_press,newBlock,part,persev,persevResp,rt,sessNum,stableAS,stimulus,subject,task,time_elapsed,training,trap,trial_index,trial_type,trialsInBlock
true,1,0,0,2,false,d,true,false,0.0-2.0-0.0-0.0-3.0,0,0,0,81,true,stim,false,-1,943.0999999940395,2,0,0,13581,task1,117937,false,false,79,image-keyboard-response,1
true,1,1,0,1,true,z,false,true,0.0-2.0-0.0-0.1-3.1,0,0,0,90,false,stim,false,-1,790.0,2,0,2,13581,task1,120244,false,false,82,image-keyboard-response,2
true,1,1,0,2,false,d,true,false,0.0-2.0-0.0-0.2-3.2,0,0,0,90,false,stim,false,-1,810.0999999940395,2,0,0,13581,task1,122574,false,false,85,image-keyboard-response,3
true,1,1,0,0,false,q,true,false,0.0-2.0-0.0-0.3-3.3,0,0,0,90,false,stim,false,-1,868.1999999880791,2,0,1,13581,task1,124951,false,false,88,image-keyboard-response,4
true,1,2,0,2,true,d,false,true,0.0-2.0-0.0-0.4-3.4,0,0,0,68,false,stim,false,-1,808.1000000238419,2,0,0,13581,task1,127287,false,false,91,image-keyboard-response,5
true,1,0,0,0,true,q,false,true,0.0-2.0-0.0-0.5-3.5,0,0,0,81,false,stim,false,-1,797.9000000059605,2,0,1,13581,task1,129611,false,false,94,image-keyboard-response,6
true,1,0,0,0,true,q,false,false,0.0-2.0-0.0-0.6-3.6,0,0,0,81,false,stim,false,-1,766.3000000119209,2,0,1,13581,task1,131902,false,true,97,image-keyboard-response,7
true,1,1,0,1,true,z,false,true,0.0-2.0-0.0-0.7-3.7,0,0,0,90,false,stim,false,-1,725.1000000238419,2,0,2,13581,task1,134144,false,false,100,image-keyboard-response,8
true,1,1,0,1,true,z,false,true,0.0-2.0-0.0-0.8-3.8,0,0,0,90,false,stim,false,-1,419.19999998807907,2,0,2,13581,task1,136089,false,false,103,image-keyboard-response,9
true,1,0,0,0,true,q,false,true,0.0-2.0-0.1-0.9-3.9,0,0,0,81,false,stim,false,-1,1321.5,2,0,1,13581,task1,138937,false,false,106,image-keyboard-response,10
true,1,0,0,0,true,q,false,true,0.0-2.0-0.1-0.10-3.10,0,0,0,81,false,stim,false,-1,419.2999999821186,2,0,1,13581,task1,140885,false,false,109,image-keyboard-response,11
true,1,1,0,1,true,z,false,true,0.0-2.0-0.1-0.11-3.11,0,0,0,90,false,stim,false,-1,812.7000000178814,2,0,2,13581,task1,143228,false,false,112,image-keyboard-response,12
true,1,2,0,2,true,d,false,true,0.0-2.0-0.1-0.12-3.12,0,0,0,68,false,stim,false,-1,711.7000000178814,2,0,0,13581,task1,145461,false,false,115,image-keyboard-response,13
true,1,1,0,0,false,q,true,false,0.0-2.0-0.1-0.13-3.13,0,0,0,90,false,stim,false,-1,683.5999999940395,2,0,1,13581,task1,147666,false,false,118,image-keyboard-response,14
true,1,2,0,2,true,d,false,true,0.0-2.0-0.1-0.14-3.14,0,0,0,68,false,stim,false,-1,1202.5999999940395,2,0,0,13581,task1,150385,false,false,121,image-keyboard-response,15
true,1,1,0,1,true,z,false,true,0.0-2.0-0.1-0.15-3.15,0,0,0,90,false,stim,false,-1,695.0999999940395,2,0,2,13581,task1,152613,false,false,124,image-keyboard-response,16
true,1,2,0,2,true,d,false,true,0.0-2.0-0.1-0.16-3.16,0,0,0,68,false,stim,false,-1,803.8000000119209,2,0,0,13581,task1,154953,false,false,127,image-keyboard-response,17
true,1,1,0,1,true,z,false,true,0.0-2.0-0.1-0.17-3.17,0,0,0,90,false,stim,false,-1,763.4000000059605,2,0,2,13581,task1,157232,false,false,130,image-keyboard-response,18
true,1,1,0,1,true,z,false,false,0.0-2.0-0.2-0.18-3.18,0,0,0,90,false,stim,false,-1,718.5,2,0,2,13581,task1,159485,false,true,133,image-keyboard-response,19
true,1,2,0,2,true,d,false,true,0.0-2.0-0.2-0.19-3.19,0,0,0,68,false,stim,false,-1,926.6000000238419,2,0,0,13581,task1,161942,false,false,136,image-keyboard-response,20
true,1,2,0,2,true,d,false,true,0.0-2.0-0.2-0.20-3.20,0,0,0,68,false,stim,false,-1,1014.0999999940395,2,0,0,13581,task1,164482,false,false,139,image-keyboard-response,21
true,1,2,0,2,true,d,false,false,0.0-2.0-0.2-0.21-3.21,0,0,0,68,false,stim,false,-1,429.0,2,0,0,13581,task1,166447,false,true,142,image-keyboard-response,22
true,1,0,0,0,true,q,false,true,0.0-2.0-0.2-0.22-3.22,0,0,0,81,false,stim,false,-1,1009.7000000178814,2,0,1,13581,task1,168978,false,false,145,image-keyboard-response,23
true,1,0,0,0,true,q,false,true,0.0-2.0-0.2-0.23-3.23,0,0,0,81,false,stim,false,-1,451.59999999403954,2,0,1,13581,task1,170953,false,false,148,image-keyboard-response,24
true,1,1,0,1,true,z,false,false,0.0-2.0-0.2-0.24-3.24,0,0,0,90,false,stim,false,-1,405.90000000596046,2,0,2,13581,task1,172890,false,true,151,image-keyboard-response,25
true,1,1,0,1,true,z,false,true,0.0-2.0-0.2-0.25-3.25,0,0,0,90,false,stim,false,-1,520.2999999821186,2,0,2,13581,task1,174939,false,false,154,image-keyboard-response,26
true,2,0,1,2,false,d,false,false,0.0-2.0-0.2-0.26-3.26,0,0,0,81,true,stim,true,0,1650.300000011921,2,0,1,13581,task1,178119,false,false,157,image-keyboard-response,1
true,2,1,1,2,false,d,false,false,0.0-2.0-0.3-0.27-3.27,0,0,0,90,false,stim,true,1,1049.5,2,0,2,13581,task1,180685,false,false,160,image-keyboard-response,2
true,2,2,1,2,true,d,false,false,0.0-2.0-0.3-0.28-3.28,0,0,0,68,false,stim,false,1,1142.4000000059605,2,0,2,13581,task1,183361,false,true,163,image-keyboard-response,3
true,2,0,1,2,false,d,true,false,0.0-2.0-0.3-0.29-3.29,0,0,0,81,false,stim,false,1,749.8000000119209,2,0,2,13581,task1,185636,false,false,166,image-keyboard-response,4
true,2,0,1,2,false,d,false,false,0.0-2.0-0.3-0.30-3.30,0,0,0,81,false,stim,true,0,732.5,2,0,1,13581,task1,187902,false,false,169,image-keyboard-response,5
true,2,0,1,0,true,q,false,true,0.0-2.0-0.3-0.31-3.31,0,0,0,81,false,stim,false,2,790.8999999761581,2,0,0,13581,task1,190227,false,false,172,image-keyboard-response,6
true,2,1,1,2,false,d,true,false,0.0-2.0-0.3-0.32-3.32,0,0,0,90,false,stim,false,0,967.2999999821186,2,0,1,13581,task1,192721,false,false,175,image-keyboard-response,7
true,2,0,1,0,true,q,false,false,0.0-2.0-0.3-0.33-3.33,0,0,0,81,false,stim,false,2,603.8000000119209,2,0,0,13581,task1,194857,false,true,178,image-keyboard-response,8
true,2,0,1,0,true,q,false,true,0.0-2.0-0.3-0.34-3.34,0,0,0,81,false,stim,false,2,396.69999998807907,2,0,0,13581,task1,196783,false,false,181,image-keyboard-response,9
true,2,2,1,2,true,d,false,true,0.0-2.0-0.3-0.35-3.35,0,0,0,68,false,stim,false,0,889.6000000238419,2,0,1,13581,task1,199208,false,false,184,image-keyboard-response,10
true,2,2,1,2,true,d,false,true,0.0-2.0-0.4-0.36-3.36,0,0,0,68,false,stim,false,1,352.7000000178814,2,0,2,13581,task1,201083,false,false,187,image-keyboard-response,11
true,2,0,1,0,true,q,false,true,0.0-2.0-0.4-0.37-3.37,0,0,0,81,false,stim,false,2,428.19999998807907,2,0,0,13581,task1,203047,false,false,190,image-keyboard-response,12
true,2,2,1,2,true,d,false,false,0.0-2.0-0.4-0.38-3.38,0,0,0,68,false,stim,false,0,654.7999999821186,2,0,1,13581,task1,205225,false,true,193,image-keyboard-response,13
true,2,2,1,2,true,d,false,true,0.0-2.0-0.4-0.39-3.39,0,0,0,68,false,stim,false,1,559.8999999761581,2,0,2,13581,task1,207312,false,false,196,image-keyboard-response,14
true,2,0,1,0,true,q,false,false,0.0-2.0-0.4-0.40-3.40,0,0,0,81,false,stim,false,2,727.5,2,0,0,13581,task1,209565,false,true,199,image-keyboard-response,15
true,2,2,1,2,true,d,false,true,0.0-2.0-0.4-0.41-3.41,0,0,0,68,false,stim,false,0,566.3000000119209,2,0,1,13581,task1,211654,false,false,202,image-keyboard-response,16
true,2,2,1,2,true,d,false,true,0.0-2.0-0.4-0.42-3.42,0,0,0,68,false,stim,false,1,562.0999999940395,2,0,2,13581,task1,213750,false,false,205,image-keyboard-response,17
true,2,2,1,2,true,d,false,false,0.0-2.0-0.4-0.43-3.43,0,0,0,68,false,stim,false,0,629.5999999940395,2,0,1,13581,task1,215917,false,true,208,image-keyboard-response,18
true,2,0,1,0,true,q,false,true,0.0-2.0-0.4-0.44-3.44,0,0,0,81,false,stim,false,2,580.2000000178814,2,0,0,13581,task1,218035,false,false,211,image-keyboard-response,19
true,2,2,1,2,true,d,false,false,0.0-2.0-0.5-0.45-3.45,0,0,0,68,false,stim,false,1,666.0999999940395,2,0,2,13581,task1,220237,false,true,214,image-keyboard-response,20
true,2,1,1,2,false,d,true,false,0.0-2.0-0.5-0.46-3.46,0,0,0,90,false,stim,false,0,757.4000000059605,2,0,1,13581,task1,222530,false,false,217,image-keyboard-response,21
true,2,0,1,2,false,d,false,false,0.0-2.0-0.5-0.47-3.47,0,0,0,81,false,stim,true,0,356.0,2,0,1,13581,task1,224411,false,false,220,image-keyboard-response,22
true,2,2,1,2,true,d,false,false,0.0-2.0-0.5-0.48-3.48,0,0,0,68,false,stim,false,1,1110.2000000178814,2,0,2,13581,task1,227048,false,true,223,image-keyboard-response,23
true,2,2,1,2,true,d,false,true,0.0-2.0-0.5-0.49-3.49,0,0,0,68,false,stim,false,0,438.10000002384186,2,0,1,13581,task1,229026,false,false,226,image-keyboard-response,24
true,2,0,1,0,true,q,false,true,0.0-2.0-0.5-0.50-3.50,0,0,0,81,false,stim,false,2,461.09999999403954,2,0,0,13581,task1,231016,false,false,229,image-keyboard-response,25
true,2,0,1,0,true,q,false,false,0.0-2.0-0.5-0.51-3.51,0,0,0,81,false,stim,false,2,642.0999999940395,2,0,0,13581,task1,233197,false,true,232,image-keyboard-response,26
true,2,0,1,0,true,q,false,true,0.0-2.0-0.5-0.52-3.52,0,0,0,81,false,stim,false,2,611.1000000238419,2,0,0,13581,task1,235333,false,false,235,image-keyboard-response,27
true,2,2,1,2,true,d,false,true,0.0-2.0-0.5-0.53-3.53,0,0,0,68,false,stim,false,1,482.90000000596046,2,0,2,13581,task1,237338,false,false,238,image-keyboard-response,28
true,2,2,1,2,true,d,false,true,0.0-2.0-0.6-0.54-3.54,0,0,0,68,false,stim,false,0,505.09999999403954,2,0,1,13581,task1,239377,false,false,241,image-keyboard-response,29
true,2,2,1,2,true,d,false,true,0.0-2.0-0.6-0.55-3.55,0,0,0,68,false,stim,false,1,597.4000000059605,2,0,2,13581,task1,241503,false,false,244,image-keyboard-response,30
true,2,2,1,2,true,d,false,true,0.0-2.0-0.6-0.56-3.56,0,0,0,68,false,stim,false,1,699.7000000178814,2,0,2,13581,task1,243738,false,false,247,image-keyboard-response,31
true,2,0,1,0,true,q,false,true,0.0-2.0-0.6-0.57-3.57,0,0,0,81,false,stim,false,2,480.89999997615814,2,0,0,13581,task1,245753,false,false,250,image-keyboard-response,32
true,2,2,1,2,true,d,false,true,0.0-2.0-0.6-0.58-3.58,0,0,0,68,false,stim,false,0,656.0,2,0,1,13581,task1,247945,false,false,253,image-keyboard-response,33
true,2,2,1,2,true,d,false,true,0.0-2.0-0.6-0.59-3.59,0,0,0,68,false,stim,false,0,399.59999999403954,2,0,1,13581,task1,249872,false,false,256,image-keyboard-response,34
true,2,0,1,0,true,q,false,true,0.0-2.0-0.6-0.60-3.60,0,0,0,81,false,stim,false,2,1016.3000000119209,2,0,0,13581,task1,252423,false,false,259,image-keyboard-response,35
true,2,2,1,2,true,d,false,false,0.0-2.0-0.6-0.61-3.61,0,0,0,68,false,stim,false,1,961.6999999880791,2,0,2,13581,task1,254918,false,true,262,image-keyboard-response,36
true,2,0,1,0,true,q,false,true,0.0-2.0-0.6-0.62-3.62,0,0,0,81,false,stim,false,2,844.1999999880791,2,0,0,13581,task1,257284,false,false,265,image-keyboard-response,37
true,2,2,1,2,true,d,false,true,0.0-2.0-0.7-0.63-3.63,0,0,0,68,false,stim,false,0,617.5,2,0,1,13581,task1,259424,false,false,268,image-keyboard-response,38
true,2,0,1,2,false,d,true,false,0.0-2.0-0.7-0.64-3.64,0,0,0,81,false,stim,false,1,1638.0,2,0,2,13581,task1,262593,false,false,271,image-keyboard-response,39
true,2,2,1,0,false,q,false,false,0.0-2.0-0.7-0.65-3.65,0,0,0,68,false,stim,true,2,554.3999999761581,2,0,0,13581,task1,264678,false,false,274,image-keyboard-response,40
true,2,2,1,2,true,d,false,true,0.0-2.0-0.7-0.66-3.66,0,0,0,68,false,stim,false,1,649.2999999821186,2,0,2,13581,task1,266840,false,false,277,image-keyboard-response,41
true,2,2,1,2,true,d,false,true,0.0-2.0-0.7-0.67-3.67,0,0,0,68,false,stim,false,1,2021.7000000178814,2,0,2,13581,task1,270395,false,false,280,image-keyboard-response,42
true,2,2,1,0,false,q,false,false,0.0-2.0-0.7-0.68-3.68,0,0,0,68,false,stim,true,2,1649.9000000059605,2,0,0,13581,task1,273574,false,false,283,image-keyboard-response,43
true,3,0,1,0,true,q,false,true,0.0-2.0-0.7-0.69-3.69,0,0,0,81,true,stim,false,2,1262.0999999940395,2,0,1,13581,task1,276370,false,false,286,image-keyboard-response,1
true,3,0,1,0,true,q,false,true,0.0-2.0-0.7-0.70-3.70,0,0,0,81,false,stim,false,2,517.3000000119209,2,0,1,13581,task1,278424,false,false,289,image-keyboard-response,2
true,3,1,1,1,true,z,false,true,0.0-2.0-0.7-0.71-3.71,0,0,0,90,false,stim,false,0,703.5,2,0,0,13581,task1,280661,false,false,292,image-keyboard-response,3
true,3,2,1,0,false,q,false,false,0.0-2.0-0.8-0.72-3.72,0,0,0,68,false,stim,true,2,1099.0,2,0,2,13581,task1,283291,false,false,295,image-keyboard-response,4
true,3,0,1,0,true,q,false,true,0.0-2.0-0.8-0.73-3.73,0,0,0,81,false,stim,false,2,957.9000000059605,2,0,1,13581,task1,285782,false,false,298,image-keyboard-response,5
true,3,1,1,1,true,z,false,true,0.0-2.0-0.8-0.74-3.74,0,0,0,90,false,stim,false,0,560.5999999940395,2,0,0,13581,task1,287871,false,false,301,image-keyboard-response,6
true,3,1,1,1,true,z,false,true,0.0-2.0-0.8-0.75-3.75,0,0,0,90,false,stim,false,0,583.3000000119209,2,0,0,13581,task1,289991,false,false,304,image-keyboard-response,7
true,3,0,1,0,true,q,false,true,0.0-2.0-0.8-0.76-3.76,0,0,0,81,false,stim,false,2,513.7000000178814,2,0,1,13581,task1,292039,false,false,307,image-keyboard-response,8
true,3,1,1,1,true,z,false,true,0.0-2.0-0.8-0.77-3.77,0,0,0,90,false,stim,false,0,556.3999999761581,2,0,0,13581,task1,294131,false,false,310,image-keyboard-response,9
true,3,0,1,0,true,q,false,true,0.0-2.0-0.8-0.78-3.78,0,0,0,81,false,stim,false,2,453.09999999403954,2,0,1,13581,task1,296112,false,false,313,image-keyboard-response,10
true,3,2,1,0,false,q,false,false,0.0-2.0-0.8-0.79-3.79,0,0,0,68,false,stim,true,2,1170.5,2,0,2,13581,task1,298812,false,false,316,image-keyboard-response,11
true,3,1,1,0,false,q,true,false,0.0-2.0-0.8-0.80-3.80,0,0,0,90,false,stim,false,2,601.4000000059605,2,0,2,13581,task1,300937,false,false,319,image-keyboard-response,12
true,3,0,1,0,true,q,false,true,0.0-2.0-0.9-0.81-3.81,0,0,0,81,false,stim,false,2,1188.5,2,0,2,13581,task1,303664,false,false,322,image-keyboard-response,13
true,3,0,1,0,true,q,false,true,0.0-2.0-0.9-0.82-3.82,0,0,0,81,false,stim,false,2,569.8999999761581,2,0,2,13581,task1,305762,false,false,325,image-keyboard-response,14
true,3,1,1,1,true,z,false,true,0.0-2.0-0.9-0.83-3.83,0,0,0,90,false,stim,false,0,754.2999999821186,2,0,0,13581,task1,308047,false,false,328,image-keyboard-response,15
true,3,0,1,0,true,q,false,true,0.0-2.0-0.9-0.84-3.84,0,0,0,81,false,stim,false,2,515.7999999821186,2,0,1,13581,task1,310092,false,false,331,image-keyboard-response,16
true,3,1,1,1,true,z,false,false,0.0-2.0-0.9-0.85-3.85,0,0,0,90,false,stim,false,0,745.0,2,0,0,13581,task1,312354,false,true,334,image-keyboard-response,17
true,3,1,1,1,true,z,false,true,0.0-2.0-0.9-0.86-3.86,0,0,0,90,false,stim,false,0,1061.4000000059605,2,0,0,13581,task1,314938,false,false,337,image-keyboard-response,18
true,3,0,1,0,true,q,false,true,0.0-2.0-0.9-0.87-3.87,0,0,0,81,false,stim,false,2,692.2999999821186,2,0,1,13581,task1,317168,false,false,340,image-keyboard-response,19
true,3,0,1,0,true,q,false,true,0.0-2.0-0.9-0.88-3.88,0,0,0,81,false,stim,false,2,492.39999997615814,2,0,2,13581,task1,319183,false,false,343,image-keyboard-response,20
true,3,0,1,0,true,q,false,true,0.0-2.0-0.9-0.89-3.89,0,0,0,81,false,stim,false,2,618.1000000238419,2,0,1,13581,task1,321327,false,false,346,image-keyboard-response,21
true,3,1,1,1,true,z,false,true,0.0-2.0-0.10-0.90-3.90,0,0,0,90,false,stim,false,0,423.0,2,0,0,13581,task1,323282,false,false,349,image-keyboard-response,22
true,3,0,1,0,true,q,false,true,0.0-2.0-0.10-0.91-3.91,0,0,0,81,false,stim,false,2,608.7000000178814,2,0,1,13581,task1,325419,false,false,352,image-keyboard-response,23
true,3,0,1,0,true,q,false,true,0.0-2.0-0.10-0.92-3.92,0,0,0,81,false,stim,false,2,306.59999999403954,2,0,2,13581,task1,327250,false,false,355,image-keyboard-response,24
true,3,0,1,0,true,q,false,true,0.0-2.0-0.10-0.93-3.93,0,0,0,81,false,stim,false,2,340.7999999821186,2,0,1,13581,task1,329118,false,false,358,image-keyboard-response,25
true,3,0,1,0,true,q,false,true,0.0-2.0-0.10-0.94-3.94,0,0,0,81,false,stim,false,2,544.4000000059605,2,0,2,13581,task1,331188,false,false,361,image-keyboard-response,26
true,3,1,1,1,true,z,false,true,0.0-2.0-0.10-0.95-3.95,0,0,0,90,false,stim,false,0,347.39999997615814,2,0,0,13581,task1,333057,false,false,364,image-keyboard-response,27
true,3,0,1,0,true,q,false,false,0.0-2.0-0.10-0.96-3.96,0,0,0,81,false,stim,false,2,444.09999999403954,2,0,1,13581,task1,335038,false,true,367,image-keyboard-response,28
true,3,0,1,0,true,q,false,true,0.0-2.0-0.10-0.97-3.97,0,0,0,81,false,stim,false,2,800.5,2,0,2,13581,task1,337357,false,false,370,image-keyboard-response,29
true,3,1,1,1,true,z,false,true,0.0-2.0-0.10-0.98-3.98,0,0,0,90,false,stim,false,0,394.09999999403954,2,0,0,13581,task1,339288,false,false,373,image-keyboard-response,30
true,3,0,1,0,true,q,false,true,0.0-2.0-0.11-0.99-3.99,0,0,0,81,false,stim,false,2,957.1999999880791,2,0,2,13581,task1,341768,false,false,376,image-keyboard-response,31
true,3,0,1,0,true,q,false,true,0.0-2.0-0.11-0.100-3.100,0,0,0,81,false,stim,false,2,437.5,2,0,2,13581,task1,343733,false,false,379,image-keyboard-response,32
true,3,0,1,0,true,q,false,true,0.0-2.0-0.11-0.101-3.101,0,0,0,81,false,stim,false,2,391.69999998807907,2,0,2,13581,task1,345653,false,false,382,image-keyboard-response,33
true,3,1,1,1,true,z,false,true,0.0-2.0-0.11-0.102-3.102,0,0,0,90,false,stim,false,0,824.7000000178814,2,0,0,13581,task1,348003,false,false,385,image-keyboard-response,34
true,3,0,1,0,true,q,false,true,0.0-2.0-0.11-0.103-3.103,0,0,0,81,false,stim,false,2,339.59999999403954,2,0,1,13581,task1,349868,false,false,388,image-keyboard-response,35
true,3,1,1,1,true,z,false,true,0.0-2.0-0.11-0.104-3.104,0,0,0,90,false,stim,false,0,627.4000000059605,2,0,0,13581,task1,352022,false,false,391,image-keyboard-response,36
true,3,0,1,0,true,q,false,false,0.0-2.0-0.11-0.105-3.105,0,0,0,81,false,stim,false,2,732.9000000059605,2,0,1,13581,task1,354278,false,true,394,image-keyboard-response,37
true,3,1,1,1,true,z,false,true,0.0-2.0-0.11-0.106-3.106,0,0,0,90,false,stim,false,0,730.3000000119209,2,0,0,13581,task1,356542,false,false,397,image-keyboard-response,38
true,3,2,1,0,false,q,false,false,0.0-2.0-0.11-0.107-3.107,0,0,0,68,false,stim,true,2,518.8999999761581,2,0,1,13581,task1,358598,false,false,400,image-keyboard-response,39
true,3,1,1,1,true,z,false,true,0.0-2.0-0.12-0.108-3.108,0,0,0,90,false,stim,false,0,792.0,2,0,0,13581,task1,360912,false,false,403,image-keyboard-response,40
true,4,1,1,1,true,z,false,false,0.0-2.0-0.12-0.109-3.109,0,0,0,90,true,stim,false,0,311.90000000596046,2,0,1,13581,task1,362747,false,true,406,image-keyboard-response,1
true,4,1,1,1,true,z,false,true,0.0-2.0-0.12-0.110-3.110,0,0,0,90,false,stim,false,0,587.9000000059605,2,0,1,13581,task1,364867,false,false,409,image-keyboard-response,2
true,4,0,1,2,false,d,false,false,0.0-2.0-0.12-0.111-3.111,0,0,0,81,false,stim,true,0,1185.0999999940395,2,0,2,13581,task1,367581,false,false,412,image-keyboard-response,3
true,4,0,1,2,false,d,false,false,0.0-2.0-0.12-0.112-3.112,0,0,0,81,false,stim,true,0,633.4000000059605,2,0,2,13581,task1,369747,false,false,415,image-keyboard-response,4
true,4,2,1,2,true,d,false,true,0.0-2.0-0.12-0.113-3.113,0,0,0,68,false,stim,false,0,919.0999999940395,2,0,2,13581,task1,372196,false,false,418,image-keyboard-response,5
true,4,1,1,0,false,q,false,false,0.0-2.0-0.12-0.114-3.114,0,0,0,90,false,stim,true,1,682.9000000059605,2,0,0,13581,task1,374396,false,false,421,image-keyboard-response,6
true,4,1,1,1,true,z,false,true,0.0-2.0-0.12-0.115-3.115,0,0,0,90,false,stim,false,0,1233.300000011921,2,0,1,13581,task1,377163,false,false,424,image-keyboard-response,7
true,4,0,1,0,true,q,false,true,0.0-2.0-0.12-0.116-3.116,0,0,0,81,false,stim,false,1,1089.699999988079,2,0,0,13581,task1,379787,false,false,427,image-keyboard-response,8
true,4,0,1,0,true,q,false,true,0.0-2.0-0.13-0.117-3.117,0,0,0,81,false,stim,false,1,360.40000000596046,2,0,0,13581,task1,381657,false,false,430,image-keyboard-response,9
true,4,0,1,0,true,q,false,true,0.0-2.0-0.13-0.118-3.118,0,0,0,81,false,stim,false,1,340.69999998807907,2,0,0,13581,task1,383521,false,false,433,image-keyboard-response,10
true,4,0,1,0,true,q,false,true,0.0-2.0-0.13-0.119-3.119,0,0,0,81,false,stim,false,1,388.90000000596046,2,0,0,13581,task1,385436,false,false,436,image-keyboard-response,11
true,4,1,1,1,true,z,false,true,0.0-2.0-0.13-0.120-3.120,0,0,0,90,false,stim,false,0,566.1999999880791,2,0,1,13581,task1,387530,false,false,439,image-keyboard-response,12
true,4,1,1,1,true,z,false,true,0.0-2.0-0.13-0.121-3.121,0,0,0,90,false,stim,false,0,391.2000000178814,2,0,1,13581,task1,389455,false,false,442,image-keyboard-response,13
true,4,2,1,2,true,d,false,true,0.0-2.0-0.13-0.122-3.122,0,0,0,68,false,stim,false,0,435.5,2,0,2,13581,task1,391416,false,false,445,image-keyboard-response,14
true,4,2,1,2,true,d,false,true,0.0-2.0-0.13-0.123-3.123,0,0,0,68,false,stim,false,0,1678.0,2,0,2,13581,task1,394625,false,false,448,image-keyboard-response,15
true,4,2,1,2,true,d,false,true,0.0-2.0-0.13-0.124-3.124,0,0,0,68,false,stim,false,0,642.2000000178814,2,0,2,13581,task1,396790,false,false,451,image-keyboard-response,16
true,4,1,1,1,true,z,false,true,0.0-2.0-0.13-0.125-3.125,0,0,0,90,false,stim,false,0,421.0,2,0,1,13581,task1,398735,false,false,454,image-keyboard-response,17
true,4,1,1,1,true,z,false,true,0.0-2.0-0.14-0.126-3.126,0,0,0,90,false,stim,false,0,328.09999999403954,2,0,1,13581,task1,400585,false,false,457,image-keyboard-response,18
true,4,0,1,0,true,q,false,false,0.0-2.0-0.14-0.127-3.127,0,0,0,81,false,stim,false,1,407.5,2,0,0,13581,task1,402522,false,true,460,image-keyboard-response,19
true,4,2,1,2,true,d,false,true,0.0-2.0-0.14-0.128-3.128,0,0,0,68,false,stim,false,0,742.8000000119209,2,0,2,13581,task1,404791,false,false,463,image-keyboard-response,20
true,4,0,1,0,true,q,false,true,0.0-2.0-0.14-0.129-3.129,0,0,0,81,false,stim,false,1,366.60000002384186,2,0,0,13581,task1,406681,false,false,466,image-keyboard-response,21
true,4,2,1,2,true,d,false,false,0.0-2.0-0.14-0.130-3.130,0,0,0,68,false,stim,false,0,834.0,2,0,2,13581,task1,409049,false,true,469,image-keyboard-response,22
true,4,1,1,1,true,z,false,true,0.0-2.0-0.14-0.131-3.131,0,0,0,90,false,stim,false,0,746.9000000059605,2,0,1,13581,task1,411328,false,false,472,image-keyboard-response,23
true,4,2,1,2,true,d,false,true,0.0-2.0-0.14-0.132-3.132,0,0,0,68,false,stim,false,0,645.2000000178814,2,0,2,13581,task1,413509,false,false,475,image-keyboard-response,24
true,4,1,1,1,true,z,false,false,0.0-2.0-0.14-0.133-3.133,0,0,0,90,false,stim,false,0,601.4000000059605,2,0,1,13581,task1,415633,false,true,478,image-keyboard-response,25
true,4,0,1,0,true,q,false,true,0.0-2.0-0.14-0.134-3.134,0,0,0,81,false,stim,false,1,799.6999999880791,2,0,0,13581,task1,417965,false,false,481,image-keyboard-response,26
true,4,0,1,0,true,q,false,true,0.0-2.0-0.15-0.135-3.135,0,0,0,81,false,stim,false,1,425.09999999403954,2,0,0,13581,task1,419924,false,false,484,image-keyboard-response,27
true,4,1,1,1,true,z,false,true,0.0-2.0-0.15-0.136-3.136,0,0,0,90,false,stim,false,0,433.90000000596046,2,0,1,13581,task1,421883,false,false,487,image-keyboard-response,28
true,4,0,1,0,true,q,false,true,0.0-2.0-0.15-0.137-3.137,0,0,0,81,false,stim,false,1,620.0,2,0,0,13581,task1,424019,false,false,490,image-keyboard-response,29
true,4,2,1,2,true,d,false,true,0.0-2.0-0.15-0.138-3.138,0,0,0,68,false,stim,false,0,713.6999999880791,2,0,2,13581,task1,426263,false,false,493,image-keyboard-response,30
true,4,0,1,0,true,q,false,false,0.0-2.0-0.15-0.139-3.139,0,0,0,81,false,stim,false,1,573.0999999940395,2,0,0,13581,task1,428372,false,true,496,image-keyboard-response,31
true,4,1,1,1,true,z,false,true,0.0-2.0-0.15-0.140-3.140,0,0,0,90,false,stim,false,0,517.6999999880791,2,0,1,13581,task1,430417,false,false,499,image-keyboard-response,32
true,4,2,1,2,true,d,false,true,0.0-2.0-0.15-0.141-3.141,0,0,0,68,false,stim,false,0,388.09999999403954,2,0,2,13581,task1,432338,false,false,502,image-keyboard-response,33
true,4,2,1,2,true,d,false,true,0.0-2.0-0.15-0.142-3.142,0,0,0,68,false,stim,false,0,2416.800000011921,2,0,2,13581,task1,436283,false,false,505,image-keyboard-response,34
true,4,1,1,1,true,z,false,true,0.0-2.0-0.15-0.143-3.143,0,0,0,90,false,stim,false,0,793.3000000119209,2,0,1,13581,task1,438610,false,false,508,image-keyboard-response,35
true,4,0,1,0,true,q,false,true,0.0-2.0-0.16-0.144-3.144,0,0,0,81,false,stim,false,1,478.0,2,0,0,13581,task1,440611,false,false,511,image-keyboard-response,36
true,4,2,1,2,true,d,false,true,0.0-2.0-0.16-0.145-3.145,0,0,0,68,false,stim,false,0,732.8000000119209,2,0,2,13581,task1,442866,false,false,514,image-keyboard-response,37
true,4,2,1,2,true,d,false,true,0.0-2.0-0.16-0.146-3.146,0,0,0,68,false,stim,false,0,681.0,2,0,2,13581,task1,445081,false,false,517,image-keyboard-response,38
true,4,1,1,1,true,z,false,true,0.0-2.0-0.16-0.147-3.147,0,0,0,90,false,stim,false,0,620.6000000238419,2,0,1,13581,task1,447238,false,false,520,image-keyboard-response,39
true,4,1,1,1,true,z,false,true,0.0-2.0-0.16-0.148-3.148,0,0,0,90,false,stim,false,0,589.1999999880791,2,0,1,13581,task1,449356,false,false,523,image-keyboard-response,40
true,4,0,1,0,true,q,false,true,0.0-2.0-0.16-0.149-3.149,0,0,0,81,false,stim,false,1,531.0999999940395,2,0,0,13581,task1,451415,false,false,526,image-keyboard-response,41
true,5,2,1,0,false,q,false,false,0.0-2.0-0.16-0.150-3.150,0,0,0,68,true,stim,true,2,818.5,2,0,2,13581,task1,453769,false,false,529,image-keyboard-response,1
true,5,0,1,2,false,d,false,false,0.0-2.0-0.16-0.151-3.151,0,0,0,81,false,stim,true,0,603.8999999761581,2,0,0,13581,task1,455905,false,false,532,image-keyboard-response,2
true,5,1,1,2,false,d,false,false,0.0-2.0-0.16-0.152-3.152,0,0,0,90,false,stim,true,1,630.9000000059605,2,0,1,13581,task1,458065,false,false,535,image-keyboard-response,3
true,5,1,1,2,false,d,true,false,0.0-2.0-0.17-0.153-3.153,0,0,0,90,false,stim,false,0,924.0999999940395,2,0,0,13581,task1,460524,false,false,538,image-keyboard-response,4
true,5,1,1,2,false,d,false,false,0.0-2.0-0.17-0.154-3.154,0,0,0,90,false,stim,true,1,867.0,2,0,1,13581,task1,462918,false,false,541,image-keyboard-response,5
true,5,2,1,2,true,d,false,false,0.0-2.0-0.17-0.155-3.155,0,0,0,68,false,stim,false,0,722.5,2,0,0,13581,task1,465174,false,true,544,image-keyboard-response,6
true,5,1,1,2,false,d,false,false,0.0-2.0-0.17-0.156-3.156,0,0,0,90,false,stim,true,1,621.4000000059605,2,0,1,13581,task1,467323,false,false,547,image-keyboard-response,7
true,5,1,1,2,false,d,false,false,0.0-2.0-0.17-0.157-3.157,0,0,0,90,false,stim,true,1,722.2999999821186,2,0,1,13581,task1,469574,false,false,550,image-keyboard-response,8
true,5,0,1,2,false,d,false,false,0.0-2.0-0.17-0.158-3.158,0,0,0,81,false,stim,true,0,1985.2000000178814,2,0,0,13581,task1,473087,false,false,553,image-keyboard-response,9
true,5,1,1,0,false,q,true,false,0.0-2.0-0.17-0.159-3.159,0,0,0,90,false,stim,false,2,781.5,2,0,2,13581,task1,475401,false,false,556,image-keyboard-response,10
true,5,2,1,0,false,q,false,false,0.0-2.0-0.17-0.160-3.160,0,0,0,68,false,stim,true,2,591.0999999940395,2,0,2,13581,task1,477526,false,false,559,image-keyboard-response,11
true,5,0,1,0,true,q,false,true,0.0-2.0-0.17-0.161-3.161,0,0,0,81,false,stim,false,2,380.2000000178814,2,0,2,13581,task1,479426,false,false,562,image-keyboard-response,12
true,5,0,1,0,true,q,false,true,0.0-2.0-0.18-0.162-3.162,0,0,0,81,false,stim,false,2,528.9000000059605,2,0,2,13581,task1,481498,false,false,565,image-keyboard-response,13
true,5,0,1,0,true,q,false,true,0.0-2.0-0.18-0.163-3.163,0,0,0,81,false,stim,false,2,372.40000000596046,2,0,2,13581,task1,483391,false,false,568,image-keyboard-response,14
true,5,0,1,2,false,d,false,false,0.0-2.0-0.18-0.164-3.164,0,0,0,81,false,stim,true,0,851.5,2,0,0,13581,task1,485771,false,false,571,image-keyboard-response,15
true,5,1,1,2,false,d,false,true,0.0-2.0-0.18-0.165-3.165,0,0,0,90,false,stim,true,1,766.3000000119209,2,0,1,13581,task1,488065,false,true,574,image-keyboard-response,16
true,5,0,1,0,true,q,false,true,0.0-2.0-0.18-0.166-3.166,0,0,0,81,false,stim,false,2,610.4000000059605,2,0,2,13581,task1,490192,false,false,577,image-keyboard-response,17
true,5,1,1,2,false,d,false,false,0.0-2.0-0.18-0.167-3.167,0,0,0,90,false,stim,true,1,363.59999999403954,2,0,1,13581,task1,492066,false,false,580,image-keyboard-response,18
true,5,1,1,2,false,d,true,false,0.0-2.0-0.18-0.168-3.168,0,0,0,90,false,stim,false,0,1162.0999999940395,2,0,0,13581,task1,494765,false,false,583,image-keyboard-response,19
true,5,1,1,2,false,d,false,true,0.0-2.0-0.18-0.169-3.169,0,0,0,90,false,stim,true,1,1447.7000000178814,2,0,1,13581,task1,497734,false,true,586,image-keyboard-response,20
true,5,2,1,2,true,d,false,true,0.0-2.0-0.18-0.170-3.170,0,0,0,68,false,stim,false,0,1103.300000011921,2,0,0,13581,task1,500373,false,false,589,image-keyboard-response,21
true,5,2,1,2,true,d,false,true,0.0-2.0-0.19-0.171-3.171,0,0,0,68,false,stim,false,0,709.5,2,0,0,13581,task1,502613,false,false,592,image-keyboard-response,22
true,5,1,1,2,false,d,false,false,0.0-2.0-0.19-0.172-3.172,0,0,0,90,false,stim,true,1,881.2999999821186,2,0,1,13581,task1,505018,false,false,595,image-keyboard-response,23
true,5,1,1,2,false,d,false,false,0.0-2.0-0.19-0.173-3.173,0,0,0,90,false,stim,true,1,500.5,2,0,1,13581,task1,507053,false,false,598,image-keyboard-response,24
true,5,2,1,2,true,d,false,true,0.0-2.0-0.19-0.174-3.174,0,0,0,68,false,stim,false,0,2806.0999999940395,2,0,0,13581,task1,511398,false,false,601,image-keyboard-response,25
true,5,0,1,0,true,q,false,true,0.0-2.0-0.19-0.175-3.175,0,0,0,81,false,stim,false,2,730.8000000119209,2,0,2,13581,task1,513652,false,false,604,image-keyboard-response,26
true,5,0,1,0,true,q,false,true,0.0-2.0-0.19-0.176-3.176,0,0,0,81,false,stim,false,2,449.7000000178814,2,0,2,13581,task1,515637,false,false,607,image-keyboard-response,27
true,5,2,1,2,true,d,false,true,0.0-2.0-0.19-0.177-3.177,0,0,0,68,false,stim,false,0,815.0999999940395,2,0,0,13581,task1,517986,false,false,610,image-keyboard-response,28
true,5,2,1,2,true,d,false,true,0.0-2.0-0.19-0.178-3.178,0,0,0,68,false,stim,false,1,401.2999999821186,2,0,1,13581,task1,519920,false,false,613,image-keyboard-response,29
true,5,0,1,0,true,q,false,true,0.0-2.0-0.19-0.179-3.179,0,0,0,81,false,stim,false,2,742.2000000178814,2,0,2,13581,task1,522197,false,false,616,image-keyboard-response,30
true,5,2,1,2,true,d,false,true,0.0-2.0-0.20-0.180-3.180,0,0,0,68,false,stim,false,1,728.5999999940395,2,0,1,13581,task1,524451,false,false,619,image-keyboard-response,31
true,5,2,1,2,true,d,false,true,0.0-2.0-0.20-0.181-3.181,0,0,0,68,false,stim,false,1,432.59999999403954,2,0,1,13581,task1,526404,false,false,622,image-keyboard-response,32
true,5,0,1,0,true,q,false,true,0.0-2.0-0.20-0.182-3.182,0,0,0,81,false,stim,false,2,920.6999999880791,2,0,2,13581,task1,528859,false,false,625,image-keyboard-response,33
true,5,0,1,0,true,q,false,true,0.0-2.0-0.20-0.183-3.183,0,0,0,81,false,stim,false,2,420.19999998807907,2,0,2,13581,task1,530808,false,false,628,image-keyboard-response,34
true,5,2,1,2,true,d,false,false,0.0-2.0-0.20-0.184-3.184,0,0,0,68,false,stim,false,0,1381.300000011921,2,0,0,13581,task1,533718,false,true,631,image-keyboard-response,35
true,5,2,1,2,true,d,false,true,0.0-2.0-0.20-0.185-3.185,0,0,0,68,false,stim,false,0,445.80000001192093,2,0,0,13581,task1,535685,false,false,634,image-keyboard-response,36
true,5,0,1,0,true,q,false,true,0.0-2.0-0.20-0.186-3.186,0,0,0,81,false,stim,false,2,781.7000000178814,2,0,2,13581,task1,537983,false,false,637,image-keyboard-response,37
true,5,2,1,2,true,d,false,true,0.0-2.0-0.20-0.187-3.187,0,0,0,68,false,stim,false,1,1405.0999999940395,2,0,1,13581,task1,540907,false,false,640,image-keyboard-response,38
true,5,2,1,2,true,d,false,true,0.0-2.0-0.20-0.188-3.188,0,0,0,68,false,stim,false,0,465.80000001192093,2,0,0,13581,task1,542904,false,false,643,image-keyboard-response,39
true,5,2,1,2,true,d,false,true,0.0-2.0-0.21-0.189-3.189,0,0,0,68,false,stim,false,1,374.0,2,0,1,13581,task1,544813,false,false,646,image-keyboard-response,40
true,5,2,1,2,true,d,false,false,0.0-2.0-0.21-0.190-3.190,0,0,0,68,false,stim,false,0,358.69999998807907,2,0,0,13581,task1,546698,false,true,649,image-keyboard-response,41
true,5,2,1,2,true,d,false,true,0.0-2.0-0.21-0.191-3.191,0,0,0,68,false,stim,false,1,2810.0999999940395,2,0,1,13581,task1,551033,false,false,652,image-keyboard-response,42
true,5,0,1,0,true,q,false,true,0.0-2.0-0.21-0.192-3.192,0,0,0,81,false,stim,false,2,343.90000000596046,2,0,2,13581,task1,552901,false,false,655,image-keyboard-response,43
true,5,2,1,2,true,d,false,true,0.0-2.0-0.21-0.193-3.193,0,0,0,68,false,stim,false,0,444.2000000178814,2,0,0,13581,task1,554867,false,false,658,image-keyboard-response,44
true,5,2,1,2,true,d,false,true,0.0-2.0-0.21-0.194-3.194,0,0,0,68,false,stim,false,0,721.2999999821186,2,0,0,13581,task1,557111,false,false,661,image-keyboard-response,45
true,6,2,1,0,false,q,false,false,0.0-2.0-0.21-0.195-3.195,0,0,0,68,true,stim,true,2,1034.5999999940395,2,0,1,13581,task1,559675,false,false,664,image-keyboard-response,1
true,6,0,1,1,false,z,false,false,0.0-2.0-0.21-0.196-3.196,0,0,0,81,false,stim,true,0,1049.0999999940395,2,0,2,13581,task1,562256,false,false,667,image-keyboard-response,2
true,6,0,1,1,false,z,false,false,0.0-2.0-0.21-0.197-3.197,0,0,0,81,false,stim,true,0,767.5,2,0,2,13581,task1,564559,false,false,670,image-keyboard-response,3
true,6,2,1,0,false,q,false,false,0.0-2.0-0.22-0.198-3.198,0,0,0,68,false,stim,true,2,693.7999999821186,2,0,1,13581,task1,566784,false,false,673,image-keyboard-response,4
true,6,2,1,0,false,q,false,false,0.0-2.0-0.22-0.199-3.199,0,0,0,68,false,stim,true,2,412.39999997615814,2,0,0,13581,task1,568720,false,false,676,image-keyboard-response,5
true,6,1,1,1,true,z,false,true,0.0-2.0-0.22-0.200-3.200,0,0,0,90,false,stim,false,0,687.8999999761581,2,0,2,13581,task1,570929,false,false,679,image-keyboard-response,6
true,6,2,1,0,false,q,false,false,0.0-2.0-0.22-0.201-3.201,0,0,0,68,false,stim,true,2,580.0999999940395,2,0,0,13581,task1,573038,false,false,682,image-keyboard-response,7
true,6,0,1,0,true,q,false,true,0.0-2.0-0.22-0.202-3.202,0,0,0,81,false,stim,false,2,443.5,2,0,0,13581,task1,575017,false,false,685,image-keyboard-response,8
true,6,1,1,1,true,z,false,false,0.0-2.0-0.22-0.203-3.203,0,0,0,90,false,stim,false,0,505.7000000178814,2,0,2,13581,task1,577047,false,true,688,image-keyboard-response,9
true,6,1,1,0,false,q,true,false,0.0-2.0-0.22-0.204-3.204,0,0,0,90,false,stim,false,2,824.5,2,0,1,13581,task1,579383,false,false,691,image-keyboard-response,10
true,6,0,1,0,true,q,false,true,0.0-2.0-0.22-0.205-3.205,0,0,0,81,false,stim,false,2,546.8000000119209,2,0,1,13581,task1,581450,false,false,694,image-keyboard-response,11
true,6,0,1,1,false,z,false,false,0.0-2.0-0.22-0.206-3.206,0,0,0,81,false,stim,true,0,416.2999999821186,2,0,2,13581,task1,583389,false,false,697,image-keyboard-response,12
true,6,0,1,0,true,q,false,true,0.0-2.0-0.23-0.207-3.207,0,0,0,81,false,stim,false,2,547.5,2,0,0,13581,task1,585471,false,false,700,image-keyboard-response,13
true,6,0,1,0,true,q,false,true,0.0-2.0-0.23-0.208-3.208,0,0,0,81,false,stim,false,2,401.19999998807907,2,0,0,13581,task1,587410,false,false,703,image-keyboard-response,14
true,6,0,1,0,true,q,false,false,0.0-2.0-0.23-0.209-3.209,0,0,0,81,false,stim,false,2,898.6999999880791,2,0,1,13581,task1,589841,false,true,706,image-keyboard-response,15
true,6,0,1,0,true,q,false,true,0.0-2.0-0.23-0.210-3.210,0,0,0,81,false,stim,false,2,362.90000000596046,2,0,1,13581,task1,591739,false,false,709,image-keyboard-response,16
true,6,2,1,1,false,z,true,false,0.0-2.0-0.23-0.211-3.211,0,0,0,68,false,stim,false,0,2199.0999999940395,2,0,2,13581,task1,595474,false,false,712,image-keyboard-response,17
true,6,0,1,0,true,q,false,false,0.0-2.0-0.23-0.212-3.212,0,0,0,81,false,stim,false,2,1175.2999999821186,2,0,1,13581,task1,598179,false,true,715,image-keyboard-response,18
true,6,0,1,0,true,q,false,true,0.0-2.0-0.23-0.213-3.213,0,0,0,81,false,stim,false,2,429.80000001192093,2,0,0,13581,task1,600139,false,false,718,image-keyboard-response,19
true,6,1,1,1,true,z,false,true,0.0-2.0-0.23-0.214-3.214,0,0,0,90,false,stim,false,0,771.0,2,0,2,13581,task1,602447,false,false,721,image-keyboard-response,20
true,6,1,1,1,true,z,false,true,0.0-2.0-0.23-0.215-3.215,0,0,0,90,false,stim,false,0,369.19999998807907,2,0,2,13581,task1,604346,false,false,724,image-keyboard-response,21
true,6,1,1,1,true,z,false,true,0.0-2.0-0.24-0.216-3.216,0,0,0,90,false,stim,false,0,744.8999999761581,2,0,2,13581,task1,606621,false,false,727,image-keyboard-response,22
true,6,0,1,0,true,q,false,true,0.0-2.0-0.24-0.217-3.217,0,0,0,81,false,stim,false,2,507.59999999403954,2,0,0,13581,task1,608651,false,false,730,image-keyboard-response,23
true,6,0,1,0,true,q,false,true,0.0-2.0-0.24-0.218-3.218,0,0,0,81,false,stim,false,2,394.80000001192093,2,0,1,13581,task1,610571,false,false,733,image-keyboard-response,24
true,6,1,1,1,true,z,false,true,0.0-2.0-0.24-0.219-3.219,0,0,0,90,false,stim,false,0,511.69999998807907,2,0,2,13581,task1,612605,false,false,736,image-keyboard-response,25
true,6,0,1,0,true,q,false,true,0.0-2.0-0.24-0.220-3.220,0,0,0,81,false,stim,false,2,293.90000000596046,2,0,0,13581,task1,614420,false,false,739,image-keyboard-response,26
true,6,0,1,0,true,q,false,true,0.0-2.0-0.24-0.221-3.221,0,0,0,81,false,stim,false,2,296.7000000178814,2,0,0,13581,task1,616239,false,false,742,image-keyboard-response,27
true,6,0,1,0,true,q,false,true,0.0-2.0-0.24-0.222-3.222,0,0,0,81,false,stim,false,2,1127.7000000178814,2,0,1,13581,task1,618904,false,false,745,image-keyboard-response,28
true,6,1,1,1,true,z,false,true,0.0-2.0-0.24-0.223-3.223,0,0,0,90,false,stim,false,0,450.69999998807907,2,0,2,13581,task1,620878,false,false,748,image-keyboard-response,29
true,6,0,1,0,true,q,false,true,0.0-2.0-0.24-0.224-3.224,0,0,0,81,false,stim,false,2,313.30000001192093,2,0,1,13581,task1,622723,false,false,751,image-keyboard-response,30
true,6,0,1,0,true,q,false,true,0.0-2.0-0.25-0.225-3.225,0,0,0,81,false,stim,false,2,398.59999999403954,2,0,1,13581,task1,624658,false,false,754,image-keyboard-response,31
true,6,1,1,1,true,z,false,true,0.0-2.0-0.25-0.226-3.226,0,0,0,90,false,stim,false,0,751.7999999821186,2,0,2,13581,task1,626946,false,false,757,image-keyboard-response,32
true,6,1,1,1,true,z,false,true,0.0-2.0-0.25-0.227-3.227,0,0,0,90,false,stim,false,0,467.5,2,0,2,13581,task1,628945,false,false,760,image-keyboard-response,33
true,6,0,1,0,true,q,false,true,0.0-2.0-0.25-0.228-3.228,0,0,0,81,false,stim,false,2,558.9000000059605,2,0,0,13581,task1,631036,false,false,763,image-keyboard-response,34
true,6,0,1,0,true,q,false,true,0.0-2.0-0.25-0.229-3.229,0,0,0,81,false,stim,false,2,454.90000000596046,2,0,1,13581,task1,633015,false,false,766,image-keyboard-response,35
true,6,1,1,1,true,z,false,true,0.0-2.0-0.25-0.230-3.230,0,0,0,90,false,stim,false,0,790.0,2,0,2,13581,task1,635334,false,false,769,image-keyboard-response,36
true,6,0,1,0,true,q,false,true,0.0-2.0-0.25-0.231-3.231,0,0,0,81,false,stim,false,2,488.0,2,0,0,13581,task1,637349,false,false,772,image-keyboard-response,37
true,6,0,1,0,true,q,false,true,0.0-2.0-0.25-0.232-3.232,0,0,0,81,false,stim,false,2,411.69999998807907,2,0,1,13581,task1,639289,false,false,775,image-keyboard-response,38
true,6,0,1,0,true,q,false,true,0.0-2.0-0.25-0.233-3.233,0,0,0,81,false,stim,false,2,417.5,2,0,0,13581,task1,641245,false,false,778,image-keyboard-response,39
true,6,0,1,0,true,q,false,true,0.0-2.0-0.26-0.234-3.234,0,0,0,81,false,stim,false,2,324.59999999403954,2,0,0,13581,task1,643102,false,false,781,image-keyboard-response,40
true,7,1,2,0,false,q,false,false,0.0-2.0-0.26-0.235-3.235,0,0,0,90,true,stim,true,1,619.9000000059605,2,0,2,13581,task1,645242,false,false,784,image-keyboard-response,1
true,7,1,2,0,false,q,false,false,0.0-2.0-0.26-0.236-3.236,0,0,0,90,false,stim,true,1,454.2999999821186,2,0,2,13581,task1,647232,false,false,787,image-keyboard-response,2
true,7,0,2,2,false,d,false,false,0.0-2.0-0.26-0.237-3.237,0,0,0,81,false,stim,true,0,370.59999999403954,2,0,0,13581,task1,649132,false,false,790,image-keyboard-response,3
true,7,0,2,2,false,d,false,false,0.0-2.0-0.26-0.238-3.238,0,0,0,81,false,stim,true,0,549.0,2,0,1,13581,task1,651210,false,false,793,image-keyboard-response,4
true,7,0,2,2,false,d,false,false,0.0-2.0-0.26-0.239-3.239,0,0,0,81,false,stim,true,0,1017.3000000119209,2,0,1,13581,task1,653745,false,false,796,image-keyboard-response,5
true,7,2,2,0,false,q,true,false,0.0-2.0-0.26-0.240-3.240,0,0,0,68,false,stim,false,1,1206.5999999940395,2,0,2,13581,task1,656485,false,false,799,image-keyboard-response,6
true,7,0,2,2,false,d,false,false,0.0-2.0-0.26-0.241-3.241,0,0,0,81,false,stim,true,0,527.4000000059605,2,0,0,13581,task1,658539,false,false,802,image-keyboard-response,7
true,7,0,2,2,false,d,false,false,0.0-2.0-0.26-0.242-3.242,0,0,0,81,false,stim,true,0,2137.9000000059605,2,0,1,13581,task1,662200,false,false,805,image-keyboard-response,8
true,7,1,2,2,false,d,true,false,0.0-2.0-0.27-0.243-3.243,0,0,0,90,false,stim,false,0,524.3999999761581,2,0,1,13581,task1,664248,false,false,808,image-keyboard-response,9
true,7,0,2,0,true,q,false,true,0.0-2.0-0.27-0.244-3.244,0,0,0,81,false,stim,false,1,1517.3999999761581,2,0,2,13581,task1,667296,false,false,811,image-keyboard-response,10
true,7,0,2,0,true,q,false,true,0.0-2.0-0.27-0.245-3.245,0,0,0,81,false,stim,false,1,1230.5,2,0,2,13581,task1,670060,false,false,814,image-keyboard-response,11
true,7,2,2,2,true,d,false,true,0.0-2.0-0.27-0.246-3.246,0,0,0,68,false,stim,false,0,1070.7000000178814,2,0,0,13581,task1,672667,false,false,817,image-keyboard-response,12
true,7,2,2,2,true,d,false,true,0.0-2.0-0.27-0.247-3.247,0,0,0,68,false,stim,false,0,800.3000000119209,2,0,0,13581,task1,674997,false,false,820,image-keyboard-response,13
true,7,0,2,0,true,q,false,true,0.0-2.0-0.27-0.248-3.248,0,0,0,81,false,stim,false,1,1198.699999988079,2,0,2,13581,task1,677729,false,false,823,image-keyboard-response,14
true,7,2,2,2,true,d,false,true,0.0-2.0-0.27-0.249-3.249,0,0,0,68,false,stim,false,0,560.0,2,0,1,13581,task1,679823,false,false,826,image-keyboard-response,15
true,7,2,2,2,true,d,false,true,0.0-2.0-0.27-0.250-3.250,0,0,0,68,false,stim,false,0,297.0,2,0,0,13581,task1,681644,false,false,829,image-keyboard-response,16
true,7,2,2,2,true,d,false,true,0.0-2.0-0.27-0.251-3.251,0,0,0,68,false,stim,false,0,767.6999999880791,2,0,1,13581,task1,683948,false,false,832,image-keyboard-response,17
true,7,2,2,2,true,d,false,true,0.0-2.0-0.28-0.252-3.252,0,0,0,68,false,stim,false,0,358.30000001192093,2,0,1,13581,task1,685838,false,false,835,image-keyboard-response,18
true,7,2,2,2,true,d,false,true,0.0-2.0-0.28-0.253-3.253,0,0,0,68,false,stim,false,0,359.40000000596046,2,0,0,13581,task1,687723,false,false,838,image-keyboard-response,19
true,7,0,2,0,true,q,false,true,0.0-2.0-0.28-0.254-3.254,0,0,0,81,false,stim,false,1,336.90000000596046,2,0,2,13581,task1,689601,false,false,841,image-keyboard-response,20
true,7,2,2,2,true,d,false,true,0.0-2.0-0.28-0.255-3.255,0,0,0,68,false,stim,false,0,446.59999999403954,2,0,0,13581,task1,691577,false,false,844,image-keyboard-response,21
true,7,0,2,0,true,q,false,true,0.0-2.0-0.28-0.256-3.256,0,0,0,81,false,stim,false,1,397.2999999821186,2,0,2,13581,task1,693511,false,false,847,image-keyboard-response,22
true,7,0,2,0,true,q,false,true,0.0-2.0-0.28-0.257-3.257,0,0,0,81,false,stim,false,1,538.1000000238419,2,0,2,13581,task1,695586,false,false,850,image-keyboard-response,23
true,7,2,2,2,true,d,false,true,0.0-2.0-0.28-0.258-3.258,0,0,0,68,false,stim,false,0,382.19999998807907,2,0,1,13581,task1,697480,false,false,853,image-keyboard-response,24
true,7,2,2,2,true,d,false,true,0.0-2.0-0.28-0.259-3.259,0,0,0,68,false,stim,false,0,307.69999998807907,2,0,1,13581,task1,699323,false,false,856,image-keyboard-response,25
true,7,2,2,2,true,d,false,true,0.0-2.0-0.28-0.260-3.260,0,0,0,68,false,stim,false,0,396.0,2,0,0,13581,task1,701244,false,false,859,image-keyboard-response,26
true,7,2,2,2,true,d,false,true,0.0-2.0-0.29-0.261-3.261,0,0,0,68,false,stim,false,0,354.09999999403954,2,0,0,13581,task1,703119,false,false,862,image-keyboard-response,27
true,7,2,2,2,true,d,false,true,0.0-2.0-0.29-0.262-3.262,0,0,0,68,false,stim,false,0,359.60000002384186,2,0,0,13581,task1,705008,false,false,865,image-keyboard-response,28
true,7,2,2,2,true,d,false,true,0.0-2.0-0.29-0.263-3.263,0,0,0,68,false,stim,false,0,899.6999999880791,2,0,1,13581,task1,707431,false,false,868,image-keyboard-response,29
true,7,0,2,0,true,q,false,true,0.0-2.0-0.29-0.264-3.264,0,0,0,81,false,stim,false,1,451.7000000178814,2,0,2,13581,task1,709417,false,false,871,image-keyboard-response,30
true,7,2,2,2,true,d,false,true,0.0-2.0-0.29-0.265-3.265,0,0,0,68,false,stim,false,0,457.7000000178814,2,0,0,13581,task1,711406,false,false,874,image-keyboard-response,31
true,7,0,2,0,true,q,false,true,0.0-2.0-0.29-0.266-3.266,0,0,0,81,false,stim,false,1,478.5,2,0,2,13581,task1,713410,false,false,877,image-keyboard-response,32
true,7,0,2,0,true,q,false,false,0.0-2.0-0.29-0.267-3.267,0,0,0,81,false,stim,false,1,392.80000001192093,2,0,2,13581,task1,715325,false,true,880,image-keyboard-response,33
true,7,2,2,2,true,d,false,true,0.0-2.0-0.29-0.268-3.268,0,0,0,68,false,stim,false,0,831.7999999821186,2,0,1,13581,task1,717680,false,false,883,image-keyboard-response,34
true,7,2,2,2,true,d,false,true,0.0-2.0-0.29-0.269-3.269,0,0,0,68,false,stim,false,0,418.69999998807907,2,0,1,13581,task1,719634,false,false,886,image-keyboard-response,35
true,7,2,2,2,true,d,false,true,0.0-2.0-0.30-0.270-3.270,0,0,0,68,false,stim,false,0,444.09999999403954,2,0,0,13581,task1,721593,false,false,889,image-keyboard-response,36
true,7,2,2,2,true,d,false,true,0.0-2.0-0.30-0.271-3.271,0,0,0,68,false,stim,false,0,457.40000000596046,2,0,0,13581,task1,723573,false,false,892,image-keyboard-response,37
true,7,0,2,0,true,q,false,true,0.0-2.0-0.30-0.272-3.272,0,0,0,81,false,stim,false,1,677.4000000059605,2,0,2,13581,task1,725777,false,false,895,image-keyboard-response,38
true,7,0,2,0,true,q,false,true,0.0-2.0-0.30-0.273-3.273,0,0,0,81,false,stim,false,1,361.90000000596046,2,0,2,13581,task1,727661,false,false,898,image-keyboard-response,39
true,7,0,2,0,true,q,false,true,0.0-2.0-0.30-0.274-3.274,0,0,0,81,false,stim,false,1,337.19999998807907,2,0,2,13581,task1,729526,false,false,901,image-keyboard-response,40
true,7,2,2,2,true,d,false,false,0.0-2.0-0.30-0.275-3.275,0,0,0,68,false,stim,false,0,521.5999999940395,2,0,1,13581,task1,731571,false,true,904,image-keyboard-response,41
true,7,2,2,2,true,d,false,true,0.0-2.0-0.30-0.276-3.276,0,0,0,68,false,stim,false,0,360.2999999821186,2,0,1,13581,task1,733460,false,false,907,image-keyboard-response,42
true,7,2,2,2,true,d,false,false,0.0-2.0-0.30-0.277-3.277,0,0,0,68,false,stim,false,0,375.0,2,0,1,13581,task1,735358,false,true,910,image-keyboard-response,43
true,7,2,2,2,true,d,false,true,0.0-2.0-0.30-0.278-3.278,0,0,0,68,false,stim,false,0,725.2999999821186,2,0,0,13581,task1,737609,false,false,913,image-keyboard-response,44
true,7,2,2,2,true,d,false,true,0.0-2.0-0.31-0.279-3.279,0,0,0,68,false,stim,false,0,458.69999998807907,2,0,0,13581,task1,739592,false,false,916,image-keyboard-response,45
true,8,0,2,2,false,d,false,false,0.0-2.0-0.31-0.280-3.280,0,0,0,81,true,stim,true,0,1069.0,2,0,2,13581,task1,742186,false,false,919,image-keyboard-response,1
true,8,2,2,0,false,q,false,false,0.0-2.0-0.31-0.281-3.281,0,0,0,68,false,stim,true,2,768.6999999880791,2,0,0,13581,task1,744486,false,false,922,image-keyboard-response,2
true,8,0,2,2,false,d,false,true,0.0-2.0-0.31-0.282-3.282,0,0,0,81,false,stim,true,0,518.4000000059605,2,0,2,13581,task1,746535,false,true,925,image-keyboard-response,3
true,8,2,2,1,false,z,false,false,0.0-2.0-0.31-0.283-3.283,0,0,0,68,false,stim,true,2,617.6999999880791,2,0,1,13581,task1,748685,false,false,928,image-keyboard-response,4
true,8,1,2,1,true,z,false,true,0.0-2.0-0.31-0.284-3.284,0,0,0,90,false,stim,false,2,657.5,2,0,1,13581,task1,750875,false,false,931,image-keyboard-response,5
true,8,0,2,2,false,d,false,false,0.0-2.0-0.31-0.285-3.285,0,0,0,81,false,stim,true,0,1383.699999988079,2,0,2,13581,task1,753784,false,false,934,image-keyboard-response,6
true,8,1,2,1,true,z,false,true,0.0-2.0-0.31-0.286-3.286,0,0,0,90,false,stim,false,2,329.89999997615814,2,0,1,13581,task1,755648,false,false,937,image-keyboard-response,7
true,8,2,2,0,false,q,false,false,0.0-2.0-0.31-0.287-3.287,0,0,0,68,false,stim,true,2,1132.6000000238419,2,0,0,13581,task1,758317,false,false,940,image-keyboard-response,8
true,8,1,2,0,false,q,true,false,0.0-2.0-0.32-0.288-3.288,0,0,0,90,false,stim,false,2,576.2999999821186,2,0,0,13581,task1,760427,false,false,943,image-keyboard-response,9
true,8,1,2,2,false,d,true,false,0.0-2.0-0.32-0.289-3.289,0,0,0,90,false,stim,false,0,1255.8999999761581,2,0,2,13581,task1,763201,false,false,946,image-keyboard-response,10
true,8,0,2,0,true,q,false,true,0.0-2.0-0.32-0.290-3.290,0,0,0,81,false,stim,false,2,707.9000000059605,2,0,0,13581,task1,765427,false,false,949,image-keyboard-response,11
true,8,2,2,2,true,d,false,true,0.0-2.0-0.32-0.291-3.291,0,0,0,68,false,stim,false,0,663.2000000178814,2,0,2,13581,task1,767615,false,false,952,image-keyboard-response,12
true,8,0,2,0,true,q,false,true,0.0-2.0-0.32-0.292-3.292,0,0,0,81,false,stim,false,2,472.90000000596046,2,0,0,13581,task1,769625,false,false,955,image-keyboard-response,13
true,8,1,2,1,true,z,false,true,0.0-2.0-0.32-0.293-3.293,0,0,0,90,false,stim,false,2,355.80000001192093,2,0,1,13581,task1,771500,false,false,958,image-keyboard-response,14
true,8,1,2,1,true,z,false,true,0.0-2.0-0.32-0.294-3.294,0,0,0,90,false,stim,false,2,680.3999999761581,2,0,1,13581,task1,773699,false,false,961,image-keyboard-response,15
true,8,2,2,2,true,d,false,true,0.0-2.0-0.32-0.295-3.295,0,0,0,68,false,stim,false,0,817.5,2,0,2,13581,task1,776053,false,false,964,image-keyboard-response,16
true,8,1,2,1,true,z,false,true,0.0-2.0-0.32-0.296-3.296,0,0,0,90,false,stim,false,2,782.6999999880791,2,0,1,13581,task1,778368,false,false,967,image-keyboard-response,17
true,8,0,2,0,true,q,false,true,0.0-2.0-0.33-0.297-3.297,0,0,0,81,false,stim,false,2,621.1999999880791,2,0,0,13581,task1,780507,false,false,970,image-keyboard-response,18
true,8,1,2,1,true,z,false,true,0.0-2.0-0.33-0.298-3.298,0,0,0,90,false,stim,false,2,674.4000000059605,2,0,1,13581,task1,782710,false,false,973,image-keyboard-response,19
true,8,1,2,1,true,z,false,false,0.0-2.0-0.33-0.299-3.299,0,0,0,90,false,stim,false,2,419.0,2,0,1,13581,task1,784655,false,true,976,image-keyboard-response,20
true,8,2,2,2,true,d,false,true,0.0-2.0-0.33-0.300-3.300,0,0,0,68,false,stim,false,0,584.0,2,0,2,13581,task1,786770,false,false,979,image-keyboard-response,21
true,8,2,2,2,true,d,false,true,0.0-2.0-0.33-0.301-3.301,0,0,0,68,false,stim,false,0,915.8000000119209,2,0,2,13581,task1,789219,false,false,982,image-keyboard-response,22
true,8,0,2,0,true,q,false,true,0.0-2.0-0.33-0.302-3.302,0,0,0,81,false,stim,false,2,760.6000000238419,2,0,0,13581,task1,791513,false,false,985,image-keyboard-response,23
true,8,1,2,1,true,z,false,true,0.0-2.0-0.33-0.303-3.303,0,0,0,90,false,stim,false,2,470.5,2,0,1,13581,task1,793508,false,false,988,image-keyboard-response,24
true,8,0,2,0,true,q,false,true,0.0-2.0-0.33-0.304-3.304,0,0,0,81,false,stim,false,2,700.0,2,0,0,13581,task1,795736,false,false,991,image-keyboard-response,25
true,8,2,2,2,true,d,false,true,0.0-2.0-0.33-0.305-3.305,0,0,0,68,false,stim,false,0,947.4000000059605,2,0,2,13581,task1,798217,false,false,994,image-keyboard-response,26
true,8,1,2,1,true,z,false,true,0.0-2.0-0.34-0.306-3.306,0,0,0,90,false,stim,false,2,1166.5999999940395,2,0,1,13581,task1,800920,false,false,997,image-keyboard-response,27
true,8,1,2,1,true,z,false,true,0.0-2.0-0.34-0.307-3.307,0,0,0,90,false,stim,false,2,662.3999999761581,2,0,1,13581,task1,803116,false,false,1000,image-keyboard-response,28
true,8,0,2,0,true,q,false,true,0.0-2.0-0.34-0.308-3.308,0,0,0,81,false,stim,false,2,381.80000001192093,2,0,0,13581,task1,805034,false,false,1003,image-keyboard-response,29
true,8,1,2,1,true,z,false,true,0.0-2.0-0.34-0.309-3.309,0,0,0,90,false,stim,false,2,327.89999997615814,2,0,1,13581,task1,806898,false,false,1006,image-keyboard-response,30
true,8,2,2,2,true,d,false,true,0.0-2.0-0.34-0.310-3.310,0,0,0,68,false,stim,false,0,383.5,2,0,2,13581,task1,808804,false,false,1009,image-keyboard-response,31
true,8,2,2,2,true,d,false,true,0.0-2.0-0.34-0.311-3.311,0,0,0,68,false,stim,false,0,736.7000000178814,2,0,2,13581,task1,811074,false,false,1012,image-keyboard-response,32
true,8,0,2,0,true,q,false,true,0.0-2.0-0.34-0.312-3.312,0,0,0,81,false,stim,false,2,830.6999999880791,2,0,0,13581,task1,813437,false,false,1015,image-keyboard-response,33
true,8,0,2,0,true,q,false,true,0.0-2.0-0.34-0.313-3.313,0,0,0,81,false,stim,false,2,437.59999999403954,2,0,0,13581,task1,815403,false,false,1018,image-keyboard-response,34
true,8,2,2,2,true,d,false,true,0.0-2.0-0.34-0.314-3.314,0,0,0,68,false,stim,false,0,949.2999999821186,2,0,2,13581,task1,817887,false,false,1021,image-keyboard-response,35
true,8,2,2,2,true,d,false,true,0.0-2.0-0.35-0.315-3.315,0,0,0,68,false,stim,false,0,701.1999999880791,2,0,2,13581,task1,820122,false,false,1024,image-keyboard-response,36
true,8,2,2,2,true,d,false,false,0.0-2.0-0.35-0.316-3.316,0,0,0,68,false,stim,false,0,445.5,2,0,2,13581,task1,822100,false,true,1027,image-keyboard-response,37
true,8,1,2,1,true,z,false,true,0.0-2.0-0.35-0.317-3.317,0,0,0,90,false,stim,false,2,670.5999999940395,2,0,1,13581,task1,824309,false,false,1030,image-keyboard-response,38
true,8,1,2,1,true,z,false,false,0.0-2.0-0.35-0.318-3.318,0,0,0,90,false,stim,false,2,454.30000001192093,2,0,1,13581,task1,826283,false,true,1033,image-keyboard-response,39
true,9,0,1,2,false,d,false,false,0.0-2.0-0.35-0.319-3.319,0,0,0,81,true,stim,true,0,827.5,2,0,0,13581,task1,828632,false,false,1036,image-keyboard-response,1
true,9,0,1,2,false,d,false,false,0.0-2.0-0.35-0.320-3.320,0,0,0,81,false,stim,true,0,452.40000000596046,2,0,0,13581,task1,830608,false,false,1039,image-keyboard-response,2
true,9,1,1,0,false,q,false,false,0.0-2.0-0.35-0.321-3.321,0,0,0,90,false,stim,true,1,679.0999999940395,2,0,1,13581,task1,832801,false,false,1042,image-keyboard-response,3
true,9,2,1,0,false,q,false,false,0.0-2.0-0.35-0.322-3.322,0,0,0,68,false,stim,true,2,356.40000000596046,2,0,2,13581,task1,834695,false,false,1045,image-keyboard-response,4
true,9,1,1,2,false,d,true,false,0.0-2.0-0.35-0.323-3.323,0,0,0,90,false,stim,false,0,799.4000000059605,2,0,0,13581,task1,837008,false,false,1048,image-keyboard-response,5
true,9,2,1,0,false,q,false,false,0.0-2.0-0.36-0.324-3.324,0,0,0,68,false,stim,true,2,964.0999999940395,2,0,2,13581,task1,839496,false,false,1051,image-keyboard-response,6
true,9,1,1,0,false,q,false,false,0.0-2.0-0.36-0.325-3.325,0,0,0,90,false,stim,true,1,1296.199999988079,2,0,1,13581,task1,842316,false,false,1054,image-keyboard-response,7
true,9,2,1,0,false,q,false,false,0.0-2.0-0.36-0.326-3.326,0,0,0,68,false,stim,true,2,675.5999999940395,2,0,2,13581,task1,844506,false,false,1057,image-keyboard-response,8
true,9,0,1,0,true,q,false,true,0.0-2.0-0.36-0.327-3.327,0,0,0,81,false,stim,false,1,1022.5,2,0,1,13581,task1,847062,false,false,1060,image-keyboard-response,9
true,9,0,1,2,false,d,false,false,0.0-2.0-0.36-0.328-3.328,0,0,0,81,false,stim,true,0,504.90000000596046,2,0,0,13581,task1,849095,false,false,1063,image-keyboard-response,10
true,9,0,1,0,true,q,false,false,0.0-2.0-0.36-0.329-3.329,0,0,0,81,false,stim,false,2,515.5999999940395,2,0,2,13581,task1,851139,false,true,1066,image-keyboard-response,11
true,9,1,1,2,false,d,true,false,0.0-2.0-0.36-0.330-3.330,0,0,0,90,false,stim,false,0,1334.9000000059605,2,0,0,13581,task1,854008,false,false,1069,image-keyboard-response,12
true,9,1,1,2,false,d,true,false,0.0-2.0-0.36-0.331-3.331,0,0,0,90,false,stim,false,0,506.89999997615814,2,0,0,13581,task1,856031,false,false,1072,image-keyboard-response,13
true,9,0,1,0,true,q,false,true,0.0-2.0-0.36-0.332-3.332,0,0,0,81,false,stim,false,1,795.5,2,0,1,13581,task1,858352,false,false,1075,image-keyboard-response,14
true,9,2,1,2,true,d,false,true,0.0-2.0-0.37-0.333-3.333,0,0,0,68,false,stim,false,0,577.5,2,0,0,13581,task1,860465,false,false,1078,image-keyboard-response,15
true,9,0,1,0,true,q,false,true,0.0-2.0-0.37-0.334-3.334,0,0,0,81,false,stim,false,1,559.0999999940395,2,0,1,13581,task1,862549,false,false,1081,image-keyboard-response,16
true,9,0,1,0,true,q,false,true,0.0-2.0-0.37-0.335-3.335,0,0,0,81,false,stim,false,1,495.60000002384186,2,0,1,13581,task1,864570,false,false,1084,image-keyboard-response,17
true,9,2,1,0,false,q,false,true,0.0-2.0-0.37-0.336-3.336,0,0,0,68,false,stim,true,2,770.6000000238419,2,0,2,13581,task1,866868,false,true,1087,image-keyboard-response,18
true,9,2,1,0,false,q,false,false,0.0-2.0-0.37-0.337-3.337,0,0,0,68,false,stim,true,2,698.2999999821186,2,0,2,13581,task1,869099,false,false,1090,image-keyboard-response,19
true,9,2,1,2,true,d,false,true,0.0-2.0-0.37-0.338-3.338,0,0,0,68,false,stim,false,0,420.40000000596046,2,0,0,13581,task1,871043,false,false,1093,image-keyboard-response,20
true,9,2,1,0,false,q,false,false,0.0-2.0-0.37-0.339-3.339,0,0,0,68,false,stim,true,2,367.09999999403954,2,0,2,13581,task1,872941,false,false,1096,image-keyboard-response,21
true,9,2,1,2,true,d,false,true,0.0-2.0-0.37-0.340-3.340,0,0,0,68,false,stim,false,0,1937.2999999821186,2,0,0,13581,task1,876410,false,false,1099,image-keyboard-response,22
true,9,0,1,0,true,q,false,true,0.0-2.0-0.37-0.341-3.341,0,0,0,81,false,stim,false,1,1887.5,2,0,1,13581,task1,879829,false,false,1102,image-keyboard-response,23
true,9,0,1,0,true,q,false,true,0.0-2.0-0.38-0.342-3.342,0,0,0,81,false,stim,false,1,415.09999999403954,2,0,1,13581,task1,881774,false,false,1105,image-keyboard-response,24
true,9,0,1,0,true,q,false,true,0.0-2.0-0.38-0.343-3.343,0,0,0,81,false,stim,false,1,625.5999999940395,2,0,1,13581,task1,883932,false,false,1108,image-keyboard-response,25
true,9,2,1,2,true,d,false,true,0.0-2.0-0.38-0.344-3.344,0,0,0,68,false,stim,false,0,721.4000000059605,2,0,0,13581,task1,886180,false,false,1111,image-keyboard-response,26
true,9,2,1,2,true,d,false,false,0.0-2.0-0.38-0.345-3.345,0,0,0,68,false,stim,false,0,2273.300000011921,2,0,0,13581,task1,889981,false,true,1114,image-keyboard-response,27
true,9,1,1,0,false,q,true,false,0.0-2.0-0.38-0.346-3.346,0,0,0,90,false,stim,false,2,1489.4000000059605,2,0,2,13581,task1,892999,false,false,1117,image-keyboard-response,28
true,9,0,1,0,true,q,false,true,0.0-2.0-0.38-0.347-3.347,0,0,0,81,false,stim,false,1,450.40000000596046,2,0,1,13581,task1,894973,false,false,1120,image-keyboard-response,29
true,9,2,1,2,true,d,false,true,0.0-2.0-0.38-0.348-3.348,0,0,0,68,false,stim,false,0,571.0,2,0,0,13581,task1,897064,false,false,1123,image-keyboard-response,30
true,9,0,1,0,true,q,false,true,0.0-2.0-0.38-0.349-3.349,0,0,0,81,false,stim,false,2,867.4000000059605,2,0,2,13581,task1,899458,false,false,1126,image-keyboard-response,31
true,9,2,1,0,false,q,false,false,0.0-2.0-0.38-0.350-3.350,0,0,0,68,false,stim,true,2,1409.5,2,0,2,13581,task1,902402,false,false,1129,image-keyboard-response,32
true,9,0,1,2,false,d,false,false,0.0-2.0-0.39-0.351-3.351,0,0,0,81,false,stim,true,0,516.0,2,0,0,13581,task1,904459,false,false,1132,image-keyboard-response,33
true,9,0,1,0,true,q,false,true,0.0-2.0-0.39-0.352-3.352,0,0,0,81,false,stim,false,1,541.2000000178814,2,0,1,13581,task1,906526,false,false,1135,image-keyboard-response,34
true,9,0,1,2,false,d,false,false,0.0-2.0-0.39-0.353-3.353,0,0,0,81,false,stim,true,0,455.19999998807907,2,0,0,13581,task1,908494,false,false,1138,image-keyboard-response,35
true,9,2,1,0,false,q,false,false,0.0-2.0-0.39-0.354-3.354,0,0,0,68,false,stim,true,2,816.5,2,0,2,13581,task1,910843,false,false,1141,image-keyboard-response,36
true,9,1,1,0,false,q,true,false,0.0-2.0-0.39-0.355-3.355,0,0,0,90,false,stim,false,2,540.9000000059605,2,0,2,13581,task1,912899,false,false,1144,image-keyboard-response,37
true,9,0,1,0,true,q,false,true,0.0-2.0-0.39-0.356-3.356,0,0,0,81,false,stim,false,2,600.9000000059605,2,0,2,13581,task1,915021,false,false,1147,image-keyboard-response,38
true,9,0,1,0,true,q,false,true,0.0-2.0-0.39-0.357-3.357,0,0,0,81,false,stim,false,1,697.0999999940395,2,0,1,13581,task1,917241,false,false,1150,image-keyboard-response,39
true,9,1,1,2,false,d,true,false,0.0-2.0-0.39-0.358-3.358,0,0,0,90,false,stim,false,0,1981.5,2,0,0,13581,task1,920758,false,false,1153,image-keyboard-response,40
true,9,0,1,0,true,q,false,true,0.0-2.0-0.39-0.359-3.359,0,0,0,81,false,stim,false,1,521.0,2,0,1,13581,task1,922814,false,false,1156,image-keyboard-response,41
true,9,0,1,2,false,d,false,false,0.0-2.0-0.40-0.360-3.360,0,0,0,81,false,stim,true,0,434.19999998807907,2,0,0,13581,task1,924778,false,false,1159,image-keyboard-response,42
true,9,0,1,0,true,q,false,true,0.0-2.0-0.40-0.361-3.361,0,0,0,81,false,stim,false,2,884.2000000178814,2,0,2,13581,task1,927196,false,false,1162,image-keyboard-response,43
true,9,2,1,2,true,d,false,true,0.0-2.0-0.40-0.362-3.362,0,0,0,68,false,stim,false,0,400.0,2,0,0,13581,task1,929126,false,false,1165,image-keyboard-response,44
true,10,0,2,1,false,z,false,false,0.0-2.0-0.40-0.363-3.363,0,0,0,81,true,stim,true,0,381.19999998807907,2,0,1,13581,task1,931042,false,false,1168,image-keyboard-response,1
true,10,2,2,0,false,q,false,false,0.0-2.0-0.40-0.364-3.364,0,0,0,68,false,stim,true,2,602.0,2,0,0,13581,task1,933179,false,false,1171,image-keyboard-response,2
true,10,0,2,1,false,z,false,false,0.0-2.0-0.40-0.365-3.365,0,0,0,81,false,stim,true,0,416.2999999821186,2,0,1,13581,task1,935129,false,false,1174,image-keyboard-response,3
true,10,0,2,2,false,d,false,false,0.0-2.0-0.40-0.366-3.366,0,0,0,81,false,stim,true,0,758.2999999821186,2,0,2,13581,task1,937419,false,false,1177,image-keyboard-response,4
true,10,1,2,2,false,d,true,false,0.0-2.0-0.40-0.367-3.367,0,0,0,90,false,stim,false,0,844.6000000238419,2,0,2,13581,task1,939788,false,false,1180,image-keyboard-response,5
true,10,0,2,1,false,z,false,false,0.0-2.0-0.40-0.368-3.368,0,0,0,81,false,stim,true,0,743.3000000119209,2,0,1,13581,task1,942053,false,false,1183,image-keyboard-response,6
true,10,1,2,0,false,q,true,false,0.0-2.0-0.41-0.369-3.369,0,0,0,90,false,stim,false,2,1581.2999999821186,2,0,0,13581,task1,945161,false,false,1186,image-keyboard-response,7
true,10,2,2,2,true,d,false,true,0.0-2.0-0.41-0.370-3.370,0,0,0,68,false,stim,false,0,762.6999999880791,2,0,2,13581,task1,947455,false,false,1189,image-keyboard-response,8
true,10,2,2,1,false,z,true,false,0.0-2.0-0.41-0.371-3.371,0,0,0,68,false,stim,false,0,467.90000000596046,2,0,1,13581,task1,949463,false,false,1192,image-keyboard-response,9
true,10,2,2,2,true,d,false,false,0.0-2.0-0.41-0.372-3.372,0,0,0,68,false,stim,false,0,992.0999999940395,2,0,2,13581,task1,951988,false,true,1195,image-keyboard-response,10
true,10,0,2,0,true,q,false,true,0.0-2.0-0.41-0.373-3.373,0,0,0,81,false,stim,false,2,751.4000000059605,2,0,0,13581,task1,954256,false,false,1198,image-keyboard-response,11
true,10,1,2,1,true,z,false,true,0.0-2.0-0.41-0.374-3.374,0,0,0,90,false,stim,false,0,1009.2000000178814,2,0,1,13581,task1,956818,false,false,1201,image-keyboard-response,12
true,10,2,2,2,true,d,false,true,0.0-2.0-0.41-0.375-3.375,0,0,0,68,false,stim,false,0,1331.2999999821186,2,0,2,13581,task1,959660,false,false,1204,image-keyboard-response,13
true,10,0,2,0,true,q,false,true,0.0-2.0-0.41-0.376-3.376,0,0,0,81,false,stim,false,2,854.0,2,0,0,13581,task1,962050,false,false,1207,image-keyboard-response,14
true,10,1,2,1,true,z,false,true,0.0-2.0-0.41-0.377-3.377,0,0,0,90,false,stim,false,0,589.5,2,0,1,13581,task1,964169,false,false,1210,image-keyboard-response,15
true,10,0,2,0,true,q,false,true,0.0-2.0-0.42-0.378-3.378,0,0,0,81,false,stim,false,2,725.6999999880791,2,0,0,13581,task1,966422,false,false,1213,image-keyboard-response,16
true,10,2,2,2,true,d,false,false,0.0-2.0-0.42-0.379-3.379,0,0,0,68,false,stim,false,0,650.2999999821186,2,0,2,13581,task1,968597,false,true,1216,image-keyboard-response,17
true,10,1,2,2,false,d,true,false,0.0-2.0-0.42-0.380-3.380,0,0,0,90,false,stim,false,0,481.7999999821186,2,0,2,13581,task1,970612,false,false,1219,image-keyboard-response,18
true,10,0,2,0,true,q,false,true,0.0-2.0-0.42-0.381-3.381,0,0,0,81,false,stim,false,2,627.9000000059605,2,0,0,13581,task1,972771,false,false,1222,image-keyboard-response,19
true,10,1,2,2,false,d,true,true,0.0-2.0-0.42-0.382-3.382,0,0,0,90,false,stim,false,0,487.90000000596046,2,0,2,13581,task1,974784,false,true,1225,image-keyboard-response,20
true,10,0,2,0,true,q,false,true,0.0-2.0-0.42-0.383-3.383,0,0,0,81,false,stim,false,2,610.8000000119209,2,0,0,13581,task1,976923,false,false,1228,image-keyboard-response,21
true,10,1,2,1,true,z,false,true,0.0-2.0-0.42-0.384-3.384,0,0,0,90,false,stim,false,0,471.59999999403954,2,0,1,13581,task1,978918,false,false,1231,image-keyboard-response,22
true,10,1,2,1,true,z,false,false,0.0-2.0-0.42-0.385-3.385,0,0,0,90,false,stim,false,0,364.59999999403954,2,0,1,13581,task1,980806,false,true,1234,image-keyboard-response,23
true,10,1,2,1,true,z,false,true,0.0-2.0-0.42-0.386-3.386,0,0,0,90,false,stim,false,0,310.0,2,0,1,13581,task1,982641,false,false,1237,image-keyboard-response,24
true,10,1,2,2,false,d,true,false,0.0-2.0-0.43-0.387-3.387,0,0,0,90,false,stim,false,0,489.09999999403954,2,0,2,13581,task1,984650,false,false,1240,image-keyboard-response,25
true,10,0,2,0,true,q,false,true,0.0-2.0-0.43-0.388-3.388,0,0,0,81,false,stim,false,2,545.9000000059605,2,0,0,13581,task1,986725,false,false,1243,image-keyboard-response,26
true,10,1,2,1,true,z,false,true,0.0-2.0-0.43-0.389-3.389,0,0,0,90,false,stim,false,0,506.59999999403954,2,0,1,13581,task1,988754,false,false,1246,image-keyboard-response,27
true,10,1,2,2,false,d,true,false,0.0-2.0-0.43-0.390-3.390,0,0,0,90,false,stim,false,0,328.5,2,0,2,13581,task1,990609,false,false,1249,image-keyboard-response,28
true,10,0,2,0,true,q,false,true,0.0-2.0-0.43-0.391-3.391,0,0,0,81,false,stim,false,2,399.2000000178814,2,0,0,13581,task1,992547,false,false,1252,image-keyboard-response,29
true,10,1,2,1,true,z,false,false,0.0-2.0-0.43-0.392-3.392,0,0,0,90,false,stim,false,0,417.09999999403954,2,0,1,13581,task1,994496,false,true,1255,image-keyboard-response,30
true,10,0,2,0,true,q,false,true,0.0-2.0-0.43-0.393-3.393,0,0,0,81,false,stim,false,2,697.2999999821186,2,0,0,13581,task1,996727,false,false,1258,image-keyboard-response,31
true,10,2,2,2,true,d,false,true,0.0-2.0-0.43-0.394-3.394,0,0,0,68,false,stim,false,0,417.39999997615814,2,0,2,13581,task1,998665,false,false,1261,image-keyboard-response,32
true,10,1,2,1,true,z,false,true,0.0-2.0-0.43-0.395-3.395,0,0,0,90,false,stim,false,0,740.3000000119209,2,0,1,13581,task1,1000931,false,false,1264,image-keyboard-response,33
true,10,2,2,2,true,d,false,false,0.0-2.0-0.44-0.396-3.396,0,0,0,68,false,stim,false,0,627.4000000059605,2,0,2,13581,task1,1003091,false,true,1267,image-keyboard-response,34
true,10,0,2,0,true,q,false,true,0.0-2.0-0.44-0.397-3.397,0,0,0,81,false,stim,false,2,568.7999999821186,2,0,0,13581,task1,1005183,false,false,1270,image-keyboard-response,35
true,10,1,2,2,false,d,true,false,0.0-2.0-0.44-0.398-3.398,0,0,0,90,false,stim,false,0,367.59999999403954,2,0,2,13581,task1,1007082,false,false,1273,image-keyboard-response,36
true,10,0,2,0,true,q,false,true,0.0-2.0-0.44-0.399-3.399,0,0,0,81,false,stim,false,2,522.0,2,0,0,13581,task1,1009136,false,false,1276,image-keyboard-response,37
true,10,2,2,2,true,d,false,false,0.0-2.0-0.44-0.400-3.400,0,0,0,68,false,stim,false,0,549.5999999940395,2,0,2,13581,task1,1011211,false,true,1279,image-keyboard-response,38
true,10,0,2,1,false,z,false,true,0.0-2.0-0.44-0.401-3.401,0,0,0,81,false,stim,true,0,490.80000001192093,2,0,1,13581,task1,1013235,false,true,1282,image-keyboard-response,39
true,10,0,2,1,false,z,false,false,0.0-2.0-0.44-0.402-3.402,0,0,0,81,false,stim,true,0,395.40000000596046,2,0,1,13581,task1,1015159,false,false,1285,image-keyboard-response,40
true,10,1,2,1,true,z,false,true,0.0-2.0-0.44-0.403-3.403,0,0,0,90,false,stim,false,0,492.40000000596046,2,0,1,13581,task1,1017175,false,false,1288,image-keyboard-response,41
true,10,0,2,0,true,q,false,true,0.0-2.0-0.44-0.404-3.404,0,0,0,81,false,stim,false,2,466.0,2,0,0,13581,task1,1019163,false,false,1291,image-keyboard-response,42
true,11,0,2,2,false,d,false,false,0.0-2.0-0.45-0.405-3.405,0,0,0,81,true,stim,true,0,355.60000002384186,2,0,0,13581,task1,1021054,false,false,1294,image-keyboard-response,1
true,11,0,2,2,false,d,false,false,0.0-2.0-0.45-0.406-3.406,0,0,0,81,false,stim,true,0,335.40000000596046,2,0,0,13581,task1,1022917,false,false,1297,image-keyboard-response,2
true,11,1,2,2,false,d,false,true,0.0-2.0-0.45-0.407-3.407,0,0,0,90,false,stim,true,1,593.0999999940395,2,0,1,13581,task1,1025043,false,true,1300,image-keyboard-response,3
true,11,2,2,0,false,q,false,false,0.0-2.0-0.45-0.408-3.408,0,0,0,68,false,stim,true,2,719.5999999940395,2,0,2,13581,task1,1027299,false,false,1303,image-keyboard-response,4
true,11,1,2,2,false,d,false,false,0.0-2.0-0.45-0.409-3.409,0,0,0,90,false,stim,true,1,971.4000000059605,2,0,1,13581,task1,1029798,false,false,1306,image-keyboard-response,5
true,11,1,2,2,false,d,false,false,0.0-2.0-0.45-0.410-3.410,0,0,0,90,false,stim,true,1,551.2999999821186,2,0,1,13581,task1,1031883,false,false,1309,image-keyboard-response,6
true,11,1,2,0,false,q,true,true,0.0-2.0-0.45-0.411-3.411,0,0,0,90,false,stim,false,2,986.7999999821186,2,0,2,13581,task1,1034403,false,true,1312,image-keyboard-response,7
true,11,0,2,2,false,d,false,false,0.0-2.0-0.45-0.412-3.412,0,0,0,81,false,stim,true,0,431.7000000178814,2,0,0,13581,task1,1036361,false,false,1315,image-keyboard-response,8
true,11,1,2,0,false,q,true,false,0.0-2.0-0.45-0.413-3.413,0,0,0,90,false,stim,false,2,735.5,2,0,2,13581,task1,1038635,false,false,1318,image-keyboard-response,9
true,11,1,2,0,false,q,true,false,0.0-2.0-0.46-0.414-3.414,0,0,0,90,false,stim,false,2,325.7000000178814,2,0,2,13581,task1,1040494,false,false,1321,image-keyboard-response,10
true,11,1,2,2,false,d,true,false,0.0-2.0-0.46-0.415-3.415,0,0,0,90,false,stim,false,0,927.5999999940395,2,0,0,13581,task1,1042944,false,false,1324,image-keyboard-response,11
true,11,1,2,0,false,q,true,false,0.0-2.0-0.46-0.416-3.416,0,0,0,90,false,stim,false,2,1453.9000000059605,2,0,2,13581,task1,1045918,false,false,1327,image-keyboard-response,12
true,11,1,2,2,false,d,false,false,0.0-2.0-0.46-0.417-3.417,0,0,0,90,false,stim,true,1,1055.2999999821186,2,0,1,13581,task1,1048497,false,false,1330,image-keyboard-response,13
true,11,2,2,2,true,d,false,true,0.0-2.0-0.46-0.418-3.418,0,0,0,68,false,stim,false,0,757.8999999761581,2,0,0,13581,task1,1050792,false,false,1333,image-keyboard-response,14
true,11,2,2,0,false,q,false,false,0.0-2.0-0.46-0.419-3.419,0,0,0,68,false,stim,true,2,369.5,2,0,2,13581,task1,1052685,false,false,1336,image-keyboard-response,15
true,11,2,2,2,true,d,false,true,0.0-2.0-0.46-0.420-3.420,0,0,0,68,false,stim,false,0,537.1000000238419,2,0,0,13581,task1,1054755,false,false,1339,image-keyboard-response,16
true,11,2,2,2,true,d,false,true,0.0-2.0-0.46-0.421-3.421,0,0,0,68,false,stim,false,1,755.5999999940395,2,0,1,13581,task1,1057041,false,false,1342,image-keyboard-response,17
true,11,2,2,2,true,d,false,true,0.0-2.0-0.46-0.422-3.422,0,0,0,68,false,stim,false,1,390.5,2,0,1,13581,task1,1058958,false,false,1345,image-keyboard-response,18
true,11,0,2,0,true,q,false,true,0.0-2.0-0.47-0.423-3.423,0,0,0,81,false,stim,false,2,1549.699999988079,2,0,2,13581,task1,1062032,false,false,1348,image-keyboard-response,19
true,11,2,2,2,true,d,false,true,0.0-2.0-0.47-0.424-3.424,0,0,0,68,false,stim,false,1,597.4000000059605,2,0,1,13581,task1,1064166,false,false,1351,image-keyboard-response,20
true,11,0,2,0,true,q,false,true,0.0-2.0-0.47-0.425-3.425,0,0,0,81,false,stim,false,2,704.2000000178814,2,0,2,13581,task1,1066405,false,false,1354,image-keyboard-response,21
true,11,2,2,2,true,d,false,true,0.0-2.0-0.47-0.426-3.426,0,0,0,68,false,stim,false,1,443.0,2,0,1,13581,task1,1068370,false,false,1357,image-keyboard-response,22
true,11,2,2,2,true,d,false,true,0.0-2.0-0.47-0.427-3.427,0,0,0,68,false,stim,false,0,381.30000001192093,2,0,0,13581,task1,1070283,false,false,1360,image-keyboard-response,23
true,11,2,2,2,true,d,false,false,0.0-2.0-0.47-0.428-3.428,0,0,0,68,false,stim,false,0,346.90000000596046,2,0,0,13581,task1,1072163,false,true,1363,image-keyboard-response,24
true,11,2,2,2,true,d,false,true,0.0-2.0-0.47-0.429-3.429,0,0,0,68,false,stim,false,0,572.6000000238419,2,0,0,13581,task1,1074257,false,false,1366,image-keyboard-response,25
true,11,0,2,0,true,q,false,false,0.0-2.0-0.47-0.430-3.430,0,0,0,81,false,stim,false,2,422.10000002384186,2,0,2,13581,task1,1076206,false,true,1369,image-keyboard-response,26
true,11,2,2,2,true,d,false,true,0.0-2.0-0.47-0.431-3.431,0,0,0,68,false,stim,false,1,1312.0999999940395,2,0,1,13581,task1,1079043,false,false,1372,image-keyboard-response,27
true,11,2,2,2,true,d,false,true,0.0-2.0-0.48-0.432-3.432,0,0,0,68,false,stim,false,1,339.59999999403954,2,0,1,13581,task1,1080910,false,false,1375,image-keyboard-response,28
true,11,2,2,2,true,d,false,true,0.0-2.0-0.48-0.433-3.433,0,0,0,68,false,stim,false,1,317.59999999403954,2,0,1,13581,task1,1082753,false,false,1378,image-keyboard-response,29
true,11,2,2,2,true,d,false,true,0.0-2.0-0.48-0.434-3.434,0,0,0,68,false,stim,false,0,378.10000002384186,2,0,0,13581,task1,1084662,false,false,1381,image-keyboard-response,30
true,11,2,2,2,true,d,false,true,0.0-2.0-0.48-0.435-3.435,0,0,0,68,false,stim,false,0,336.0,2,0,0,13581,task1,1086522,false,false,1384,image-keyboard-response,31
true,11,2,2,2,true,d,false,true,0.0-2.0-0.48-0.436-3.436,0,0,0,68,false,stim,false,0,354.09999999403954,2,0,0,13581,task1,1088401,false,false,1387,image-keyboard-response,32
true,11,0,2,0,true,q,false,true,0.0-2.0-0.48-0.437-3.437,0,0,0,81,false,stim,false,2,477.80000001192093,2,0,2,13581,task1,1090403,false,false,1390,image-keyboard-response,33
true,11,0,2,0,true,q,false,true,0.0-2.0-0.48-0.438-3.438,0,0,0,81,false,stim,false,2,483.59999999403954,2,0,2,13581,task1,1092420,false,false,1393,image-keyboard-response,34
true,11,0,2,0,true,q,false,true,0.0-2.0-0.48-0.439-3.439,0,0,0,81,false,stim,false,2,350.0,2,0,2,13581,task1,1094299,false,false,1396,image-keyboard-response,35
true,11,2,2,2,true,d,false,true,0.0-2.0-0.48-0.440-3.440,0,0,0,68,false,stim,false,1,365.19999998807907,2,0,1,13581,task1,1096199,false,false,1399,image-keyboard-response,36
true,11,2,2,2,true,d,false,true,0.0-2.0-0.49-0.441-3.441,0,0,0,68,false,stim,false,0,481.90000000596046,2,0,0,13581,task1,1098228,false,false,1402,image-keyboard-response,37
true,11,2,2,2,true,d,false,true,0.0-2.0-0.49-0.442-3.442,0,0,0,68,false,stim,false,0,366.90000000596046,2,0,0,13581,task1,1100121,false,false,1405,image-keyboard-response,38
true,11,0,2,0,true,q,false,true,0.0-2.0-0.49-0.443-3.443,0,0,0,81,false,stim,false,2,574.5,2,0,2,13581,task1,1102228,false,false,1408,image-keyboard-response,39
true,11,0,2,0,true,q,false,true,0.0-2.0-0.49-0.444-3.444,0,0,0,81,false,stim,false,2,331.59999999403954,2,0,2,13581,task1,1104085,false,false,1411,image-keyboard-response,40
true,11,2,2,2,true,d,false,true,0.0-2.0-0.49-0.445-3.445,0,0,0,68,false,stim,false,1,493.09999999403954,2,0,1,13581,task1,1106114,false,false,1414,image-keyboard-response,41
true,11,0,2,0,true,q,false,true,0.0-2.0-0.49-0.446-3.446,0,0,0,81,false,stim,false,2,485.40000000596046,2,0,2,13581,task1,1108133,false,false,1417,image-keyboard-response,42
true,11,2,2,2,true,d,false,true,0.0-2.0-0.49-0.447-3.447,0,0,0,68,false,stim,false,0,1175.699999988079,2,0,0,13581,task1,1110847,false,false,1420,image-keyboard-response,43
true,11,2,2,2,true,d,false,true,0.0-2.0-0.49-0.448-3.448,0,0,0,68,false,stim,false,1,478.90000000596046,2,0,1,13581,task1,1112848,false,false,1423,image-keyboard-response,44
true,11,2,2,2,true,d,false,true,0.0-2.0-0.49-0.449-3.449,0,0,0,68,false,stim,false,1,380.30000001192093,2,0,1,13581,task1,1114751,false,false,1426,image-keyboard-response,45
true,12,2,2,1,false,z,false,false,0.0-2.0-0.50-0.450-3.450,0,0,0,68,true,stim,true,2,381.2000000178814,2,0,1,13581,task1,1116665,false,false,1429,image-keyboard-response,1
true,12,2,2,0,false,q,false,false,0.0-2.0-0.50-0.451-3.451,0,0,0,68,false,stim,true,2,332.0,2,0,0,13581,task1,1118519,false,false,1432,image-keyboard-response,2
true,12,0,2,2,false,d,false,false,0.0-2.0-0.50-0.452-3.452,0,0,0,81,false,stim,true,0,578.0,2,0,2,13581,task1,1120633,false,false,1435,image-keyboard-response,3
true,12,2,2,1,false,z,false,true,0.0-2.0-0.50-0.453-3.453,0,0,0,68,false,stim,true,2,600.6000000238419,2,0,1,13581,task1,1122772,false,true,1438,image-keyboard-response,4
true,12,2,2,0,false,q,false,false,0.0-2.0-0.50-0.454-3.454,0,0,0,68,false,stim,true,2,471.2999999821186,2,0,0,13581,task1,1124776,false,false,1441,image-keyboard-response,5
true,12,1,2,0,false,q,true,false,0.0-2.0-0.50-0.455-3.455,0,0,0,90,false,stim,false,2,340.7999999821186,2,0,0,13581,task1,1126645,false,false,1444,image-keyboard-response,6
true,12,0,2,2,false,d,false,false,0.0-2.0-0.50-0.456-3.456,0,0,0,81,false,stim,true,0,659.5999999940395,2,0,2,13581,task1,1128815,false,false,1447,image-keyboard-response,7
true,12,1,2,2,false,d,true,false,0.0-2.0-0.50-0.457-3.457,0,0,0,90,false,stim,false,0,499.59999999403954,2,0,2,13581,task1,1130838,false,false,1450,image-keyboard-response,8
true,12,2,2,1,false,z,false,false,0.0-2.0-0.50-0.458-3.458,0,0,0,68,false,stim,true,2,900.5,2,0,1,13581,task1,1133272,false,false,1453,image-keyboard-response,9
true,12,2,2,2,true,d,false,true,0.0-2.0-0.51-0.459-3.459,0,0,0,68,false,stim,false,0,1239.7999999821186,2,0,2,13581,task1,1136045,false,false,1456,image-keyboard-response,10
true,12,0,2,0,true,q,false,true,0.0-2.0-0.51-0.460-3.460,0,0,0,81,false,stim,false,2,723.0,2,0,0,13581,task1,1138285,false,false,1459,image-keyboard-response,11
true,12,2,2,2,true,d,false,true,0.0-2.0-0.51-0.461-3.461,0,0,0,68,false,stim,false,0,726.5,2,0,2,13581,task1,1140545,false,false,1462,image-keyboard-response,12
true,12,2,2,2,true,d,false,true,0.0-2.0-0.51-0.462-3.462,0,0,0,68,false,stim,false,0,639.0,2,0,2,13581,task1,1142728,false,false,1465,image-keyboard-response,13
true,12,0,2,0,true,q,false,true,0.0-2.0-0.51-0.463-3.463,0,0,0,81,false,stim,false,2,642.2000000178814,2,0,0,13581,task1,1144897,false,false,1468,image-keyboard-response,14
true,12,0,2,1,false,z,true,false,0.0-2.0-0.51-0.464-3.464,0,0,0,81,false,stim,false,2,341.2999999821186,2,0,1,13581,task1,1146764,false,false,1471,image-keyboard-response,15
true,12,0,2,0,true,q,false,true,0.0-2.0-0.51-0.465-3.465,0,0,0,81,false,stim,false,2,790.7999999821186,2,0,0,13581,task1,1149080,false,false,1474,image-keyboard-response,16
true,12,2,2,1,false,z,false,false,0.0-2.0-0.51-0.466-3.466,0,0,0,68,false,stim,true,2,743.5,2,0,1,13581,task1,1151349,false,false,1477,image-keyboard-response,17
true,12,1,2,1,true,z,false,true,0.0-2.0-0.51-0.467-3.467,0,0,0,90,false,stim,false,2,435.0,2,0,1,13581,task1,1153309,false,false,1480,image-keyboard-response,18
true,12,1,2,1,true,z,false,true,0.0-2.0-0.52-0.468-3.468,0,0,0,90,false,stim,false,2,492.80000001192093,2,0,1,13581,task1,1155333,false,false,1483,image-keyboard-response,19
true,12,0,2,0,true,q,false,true,0.0-2.0-0.52-0.469-3.469,0,0,0,81,false,stim,false,2,359.5,2,0,0,13581,task1,1157233,false,false,1486,image-keyboard-response,20
true,12,2,2,2,true,d,false,true,0.0-2.0-0.52-0.470-3.470,0,0,0,68,false,stim,false,0,529.0999999940395,2,0,2,13581,task1,1159286,false,false,1489,image-keyboard-response,21
true,12,2,2,2,true,d,false,true,0.0-2.0-0.52-0.471-3.471,0,0,0,68,false,stim,false,0,656.8000000119209,2,0,2,13581,task1,1161479,false,false,1492,image-keyboard-response,22
true,12,1,2,1,true,z,false,true,0.0-2.0-0.52-0.472-3.472,0,0,0,90,false,stim,false,2,702.6999999880791,2,0,1,13581,task1,1163708,false,false,1495,image-keyboard-response,23
true,12,2,2,2,true,d,false,true,0.0-2.0-0.52-0.473-3.473,0,0,0,68,false,stim,false,0,859.0,2,0,2,13581,task1,1166098,false,false,1498,image-keyboard-response,24
true,12,0,2,0,true,q,false,true,0.0-2.0-0.52-0.474-3.474,0,0,0,81,false,stim,false,2,912.0999999940395,2,0,0,13581,task1,1168552,false,false,1501,image-keyboard-response,25
true,12,1,2,1,true,z,false,true,0.0-2.0-0.52-0.475-3.475,0,0,0,90,false,stim,false,2,739.5,2,0,1,13581,task1,1170831,false,false,1504,image-keyboard-response,26
true,12,0,2,0,true,q,false,true,0.0-2.0-0.52-0.476-3.476,0,0,0,81,false,stim,false,2,467.69999998807907,2,0,0,13581,task1,1172824,false,false,1507,image-keyboard-response,27
true,12,0,2,0,true,q,false,true,0.0-2.0-0.53-0.477-3.477,0,0,0,81,false,stim,false,2,423.19999998807907,2,0,0,13581,task1,1174774,false,false,1510,image-keyboard-response,28
true,12,2,2,2,true,d,false,true,0.0-2.0-0.53-0.478-3.478,0,0,0,68,false,stim,false,0,655.9000000059605,2,0,2,13581,task1,1176964,false,false,1513,image-keyboard-response,29
true,12,2,2,2,true,d,false,true,0.0-2.0-0.53-0.479-3.479,0,0,0,68,false,stim,false,0,967.8000000119209,2,0,2,13581,task1,1179472,false,false,1516,image-keyboard-response,30
true,12,1,2,1,true,z,false,true,0.0-2.0-0.53-0.480-3.480,0,0,0,90,false,stim,false,2,473.59999999403954,2,0,1,13581,task1,1181479,false,false,1519,image-keyboard-response,31
true,12,2,2,2,true,d,false,true,0.0-2.0-0.53-0.481-3.481,0,0,0,68,false,stim,false,0,777.2000000178814,2,0,2,13581,task1,1183783,false,false,1522,image-keyboard-response,32
true,12,0,2,0,true,q,false,true,0.0-2.0-0.53-0.482-3.482,0,0,0,81,false,stim,false,2,646.3999999761581,2,0,0,13581,task1,1185954,false,false,1525,image-keyboard-response,33
true,12,0,2,0,true,q,false,true,0.0-2.0-0.53-0.483-3.483,0,0,0,81,false,stim,false,2,438.7000000178814,2,0,0,13581,task1,1187928,false,false,1528,image-keyboard-response,34
true,12,1,2,1,true,z,false,false,0.0-2.0-0.53-0.484-3.484,0,0,0,90,false,stim,false,2,642.5,2,0,1,13581,task1,1190099,false,true,1531,image-keyboard-response,35
true,12,1,2,1,true,z,false,true,0.0-2.0-0.53-0.485-3.485,0,0,0,90,false,stim,false,2,357.59999999403954,2,0,1,13581,task1,1191983,false,false,1534,image-keyboard-response,36
true,12,1,2,1,true,z,false,true,0.0-2.0-0.54-0.486-3.486,0,0,0,90,false,stim,false,2,350.40000000596046,2,0,1,13581,task1,1193860,false,false,1537,image-keyboard-response,37
true,12,0,2,0,true,q,false,true,0.0-2.0-0.54-0.487-3.487,0,0,0,81,false,stim,false,2,575.1999999880791,2,0,0,13581,task1,1195964,false,false,1540,image-keyboard-response,38
true,12,0,2,0,true,q,false,true,0.0-2.0-0.54-0.488-3.488,0,0,0,81,false,stim,false,2,384.59999999403954,2,0,0,13581,task1,1197877,false,false,1543,image-keyboard-response,39
true,12,0,2,0,true,q,false,true,0.0-2.0-0.54-0.489-3.489,0,0,0,81,false,stim,false,2,360.80000001192093,2,0,0,13581,task1,1199767,false,false,1546,image-keyboard-response,40
true,12,2,2,2,true,d,false,false,0.0-2.0-0.54-0.490-3.490,0,0,0,68,false,stim,false,0,782.0999999940395,2,0,2,13581,task1,1202072,false,true,1549,image-keyboard-response,41
true,12,1,2,1,true,z,false,true,0.0-2.0-0.54-0.491-3.491,0,0,0,90,false,stim,false,2,742.9000000059605,2,0,1,13581,task1,1204349,false,false,1552,image-keyboard-response,42
true,12,2,2,2,true,d,false,true,0.0-2.0-0.54-0.492-3.492,0,0,0,68,false,stim,false,0,623.2000000178814,2,0,2,13581,task1,1206493,false,false,1555,image-keyboard-response,43
true,12,2,2,2,true,d,false,true,0.0-2.0-0.54-0.493-3.493,0,0,0,68,false,stim,false,0,406.90000000596046,2,0,2,13581,task1,1208434,false,false,1558,image-keyboard-response,44
true,12,1,2,1,true,z,false,true,0.0-2.0-0.54-0.494-3.494,0,0,0,90,false,stim,false,2,760.5,2,0,1,13581,task1,1210721,false,false,1561,image-keyboard-response,45
true,13,2,2,0,false,q,false,false,0.0-2.0-0.55-0.495-3.495,0,0,0,68,true,stim,true,2,621.8999999761581,2,0,2,13581,task1,1212866,false,false,1564,image-keyboard-response,1
true,13,0,2,2,false,d,false,true,0.0-2.0-0.55-0.496-3.496,0,0,0,81,false,stim,true,0,693.4000000059605,2,0,0,13581,task1,1215084,false,true,1567,image-keyboard-response,2
true,13,0,2,2,false,d,false,false,0.0-2.0-0.55-0.497-3.497,0,0,0,81,false,stim,true,0,1084.2999999821186,2,0,0,13581,task1,1217709,false,false,1570,image-keyboard-response,3
true,13,0,2,2,false,d,false,false,0.0-2.0-0.55-0.498-3.498,0,0,0,81,false,stim,true,0,363.19999998807907,2,0,0,13581,task1,1219607,false,false,1573,image-keyboard-response,4
true,13,1,2,2,false,d,false,false,0.0-2.0-0.55-0.499-3.499,0,0,0,90,false,stim,true,1,711.8000000119209,2,0,1,13581,task1,1221855,false,false,1576,image-keyboard-response,5
true,13,1,2,2,false,d,false,false,0.0-2.0-0.55-0.500-3.500,0,0,0,90,false,stim,true,1,1984.699999988079,2,0,1,13581,task1,1225361,false,false,1579,image-keyboard-response,6
true,13,2,2,2,true,d,false,true,0.0-2.0-0.55-0.501-3.501,0,0,0,68,false,stim,false,1,493.7000000178814,2,0,1,13581,task1,1227388,false,false,1582,image-keyboard-response,7
true,13,2,2,0,false,q,false,false,0.0-2.0-0.55-0.502-3.502,0,0,0,68,false,stim,true,2,1361.199999988079,2,0,2,13581,task1,1230282,false,false,1585,image-keyboard-response,8
true,13,1,2,0,false,q,true,false,0.0-2.0-0.55-0.503-3.503,0,0,0,90,false,stim,false,2,776.1000000238419,2,0,2,13581,task1,1232580,false,false,1588,image-keyboard-response,9
true,13,2,2,2,true,d,false,true,0.0-2.0-0.56-0.504-3.504,0,0,0,68,false,stim,false,0,863.0,2,0,0,13581,task1,1234971,false,false,1591,image-keyboard-response,10
true,13,2,2,2,true,d,false,true,0.0-2.0-0.56-0.505-3.505,0,0,0,68,false,stim,false,1,1225.9000000059605,2,0,1,13581,task1,1237718,false,false,1594,image-keyboard-response,11
true,13,0,2,2,false,d,false,false,0.0-2.0-0.56-0.506-3.506,0,0,0,81,false,stim,true,0,385.80000001192093,2,0,0,13581,task1,1239631,false,false,1597,image-keyboard-response,12
true,13,2,2,2,true,d,false,true,0.0-2.0-0.56-0.507-3.507,0,0,0,68,false,stim,false,0,403.69999998807907,2,0,0,13581,task1,1241564,false,false,1600,image-keyboard-response,13
true,13,0,2,0,true,q,false,true,0.0-2.0-0.56-0.508-3.508,0,0,0,81,false,stim,false,2,360.90000000596046,2,0,2,13581,task1,1243455,false,false,1603,image-keyboard-response,14
true,13,2,2,2,true,d,false,true,0.0-2.0-0.56-0.509-3.509,0,0,0,68,false,stim,false,1,330.59999999403954,2,0,1,13581,task1,1245299,false,false,1606,image-keyboard-response,15
true,13,0,2,0,true,q,false,true,0.0-2.0-0.56-0.510-3.510,0,0,0,81,false,stim,false,2,403.10000002384186,2,0,2,13581,task1,1247232,false,false,1609,image-keyboard-response,16
true,13,0,2,0,true,q,false,false,0.0-2.0-0.56-0.511-3.511,0,0,0,81,false,stim,false,2,441.0,2,0,2,13581,task1,1249203,false,true,1612,image-keyboard-response,17
true,13,2,2,2,true,d,false,true,0.0-2.0-0.56-0.512-3.512,0,0,0,68,false,stim,false,1,601.7999999821186,2,0,1,13581,task1,1251330,false,false,1615,image-keyboard-response,18
true,13,0,2,0,true,q,false,true,0.0-2.0-0.57-0.513-3.513,0,0,0,81,false,stim,false,2,488.0,2,0,2,13581,task1,1253348,false,false,1618,image-keyboard-response,19
true,13,2,2,2,true,d,false,true,0.0-2.0-0.57-0.514-3.514,0,0,0,68,false,stim,false,1,556.2999999821186,2,0,1,13581,task1,1255433,false,false,1621,image-keyboard-response,20
true,13,0,2,0,true,q,false,true,0.0-2.0-0.57-0.515-3.515,0,0,0,81,false,stim,false,2,1057.5,2,0,2,13581,task1,1258017,false,false,1624,image-keyboard-response,21
true,13,2,2,2,true,d,false,true,0.0-2.0-0.57-0.516-3.516,0,0,0,68,false,stim,false,1,1101.0,2,0,1,13581,task1,1260645,false,false,1627,image-keyboard-response,22
true,13,0,2,0,true,q,false,true,0.0-2.0-0.57-0.517-3.517,0,0,0,81,false,stim,false,2,1172.4000000059605,2,0,2,13581,task1,1263350,false,false,1630,image-keyboard-response,23
true,13,2,2,2,true,d,false,false,0.0-2.0-0.57-0.518-3.518,0,0,0,68,false,stim,false,1,756.3000000119209,2,0,1,13581,task1,1265637,false,true,1633,image-keyboard-response,24
true,13,2,2,2,true,d,false,false,0.0-2.0-0.57-0.519-3.519,0,0,0,68,false,stim,false,0,1412.8999999761581,2,0,0,13581,task1,1268576,false,true,1636,image-keyboard-response,25
true,13,2,2,2,true,d,false,true,0.0-2.0-0.57-0.520-3.520,0,0,0,68,false,stim,false,0,388.2999999821186,2,0,0,13581,task1,1270501,false,false,1639,image-keyboard-response,26
true,13,2,2,2,true,d,false,true,0.0-2.0-0.57-0.521-3.521,0,0,0,68,false,stim,false,0,360.19999998807907,2,0,0,13581,task1,1272390,false,false,1642,image-keyboard-response,27
true,13,2,2,2,true,d,false,true,0.0-2.0-0.58-0.522-3.522,0,0,0,68,false,stim,false,1,706.5999999940395,2,0,1,13581,task1,1274612,false,false,1645,image-keyboard-response,28
true,13,2,2,2,true,d,false,true,0.0-2.0-0.58-0.523-3.523,0,0,0,68,false,stim,false,1,415.7999999821186,2,0,1,13581,task1,1276562,false,false,1648,image-keyboard-response,29
true,13,0,2,0,true,q,false,true,0.0-2.0-0.58-0.524-3.524,0,0,0,81,false,stim,false,2,439.5,2,0,2,13581,task1,1278536,false,false,1651,image-keyboard-response,30
true,13,2,2,2,true,d,false,true,0.0-2.0-0.58-0.525-3.525,0,0,0,68,false,stim,false,0,383.09999999403954,2,0,0,13581,task1,1280445,false,false,1654,image-keyboard-response,31
true,13,2,2,2,true,d,false,true,0.0-2.0-0.58-0.526-3.526,0,0,0,68,false,stim,false,0,364.5,2,0,0,13581,task1,1282345,false,false,1657,image-keyboard-response,32
true,13,2,2,2,true,d,false,true,0.0-2.0-0.58-0.527-3.527,0,0,0,68,false,stim,false,1,367.19999998807907,2,0,1,13581,task1,1284249,false,false,1660,image-keyboard-response,33
true,13,0,2,0,true,q,false,true,0.0-2.0-0.58-0.528-3.528,0,0,0,81,false,stim,false,2,463.09999999403954,2,0,2,13581,task1,1286242,false,false,1663,image-keyboard-response,34
true,13,0,2,0,true,q,false,true,0.0-2.0-0.58-0.529-3.529,0,0,0,81,false,stim,false,2,371.60000002384186,2,0,2,13581,task1,1288136,false,false,1666,image-keyboard-response,35
true,13,2,2,2,true,d,false,true,0.0-2.0-0.58-0.530-3.530,0,0,0,68,false,stim,false,0,1676.699999988079,2,0,0,13581,task1,1291341,false,false,1669,image-keyboard-response,36
true,13,0,2,0,true,q,false,true,0.0-2.0-0.59-0.531-3.531,0,0,0,81,false,stim,false,2,1258.2000000178814,2,0,2,13581,task1,1294138,false,false,1672,image-keyboard-response,37
true,13,1,2,2,false,d,false,false,0.0-2.0-0.59-0.532-3.532,0,0,0,90,false,stim,true,1,668.8000000119209,2,0,1,13581,task1,1296328,false,false,1675,image-keyboard-response,38
true,13,2,2,2,true,d,false,true,0.0-2.0-0.59-0.533-3.533,0,0,0,68,false,stim,false,0,721.5999999940395,2,0,0,13581,task1,1298585,false,false,1678,image-keyboard-response,39
true,13,2,2,2,true,d,false,true,0.0-2.0-0.59-0.534-3.534,0,0,0,68,false,stim,false,0,339.19999998807907,2,1,0,13581,task1,1300449,false,false,1681,image-keyboard-response,40
true,13,2,2,2,true,d,false,true,0.0-2.0-0.59-0.535-3.535,0,0,0,68,false,stim,false,1,378.09999999403954,2,1,1,13581,task1,1302359,false,false,1684,image-keyboard-response,41
true,13,2,2,2,true,d,false,true,0.0-2.0-0.59-0.536-3.536,0,0,0,68,false,stim,false,1,391.60000002384186,2,1,1,13581,task1,1304273,false,false,1687,image-keyboard-response,42
true,13,2,2,0,false,q,false,false,0.0-2.0-0.59-0.537-3.537,0,0,0,68,false,stim,true,2,330.7999999821186,2,1,2,13581,task1,1306118,false,false,1690,image-keyboard-response,43
true,13,0,2,2,false,d,false,false,0.0-2.0-0.59-0.538-3.538,0,0,0,81,false,stim,true,0,647.6999999880791,2,1,0,13581,task1,1308296,false,false,1693,image-keyboard-response,44
true,14,0,0,0,true,q,false,true,0.0-2.0-0.59-0.539-3.539,1,1,1,81,true,stim,false,0,1363.0999999940395,2,1,2,13581,task1,1351048,false,false,1736,image-keyboard-response,1
true,14,0,0,0,true,q,false,false,0.0-2.0-0.60-0.540-3.540,1,1,1,81,false,stim,false,0,318.30000001192093,2,1,2,13581,task1,1352903,false,true,1739,image-keyboard-response,2
true,14,1,0,2,false,d,true,false,0.0-2.0-0.60-0.541-3.541,1,1,1,90,false,stim,false,2,855.7999999821186,2,1,1,13581,task1,1355291,false,false,1742,image-keyboard-response,3
true,14,0,0,0,true,q,false,true,0.0-2.0-0.60-0.542-3.542,1,1,1,81,false,stim,false,0,565.1000000238419,2,1,2,13581,task1,1357383,false,false,1745,image-keyboard-response,4
true,14,2,0,2,true,d,false,true,0.0-2.0-0.60-0.543-3.543,1,1,1,68,false,stim,false,2,461.19999998807907,2,1,1,13581,task1,1359379,false,false,1748,image-keyboard-response,5
true,14,2,0,2,true,d,false,true,0.0-2.0-0.60-0.544-3.544,1,1,1,68,false,stim,false,2,287.5,2,1,0,13581,task1,1361206,false,false,1751,image-keyboard-response,6
true,14,0,0,2,false,d,true,false,0.0-2.0-0.60-0.545-3.545,1,1,1,81,false,stim,false,2,660.7000000178814,2,1,0,13581,task1,1363395,false,false,1754,image-keyboard-response,7
true,14,2,0,2,true,d,false,true,0.0-2.0-0.60-0.546-3.546,1,1,1,68,false,stim,false,2,1224.5,2,1,1,13581,task1,1366143,false,false,1757,image-keyboard-response,8
true,14,0,0,0,true,q,false,true,0.0-2.0-0.60-0.547-3.547,1,1,1,81,false,stim,false,0,329.0,2,0,2,13581,task1,1367998,false,false,1760,image-keyboard-response,9
true,14,2,0,2,true,d,false,true,0.0-2.0-0.60-0.548-3.548,1,1,1,68,false,stim,false,2,373.5,2,0,0,13581,task1,1369909,false,false,1763,image-keyboard-response,10
true,14,2,0,2,true,d,false,true,0.0-2.0-0.61-0.549-3.549,1,1,1,68,false,stim,false,2,586.0,2,0,1,13581,task1,1372020,false,false,1766,image-keyboard-response,11
true,14,0,0,0,true,q,false,true,0.0-2.0-0.61-0.550-3.550,1,1,1,81,false,stim,false,0,382.5,2,0,2,13581,task1,1373935,false,false,1769,image-keyboard-response,12
true,14,0,0,0,true,q,false,true,0.0-2.0-0.61-0.551-3.551,1,1,1,81,false,stim,false,0,508.19999998807907,2,0,2,13581,task1,1375977,false,false,1772,image-keyboard-response,13
true,15,2,1,0,false,q,false,false,0.0-2.0-0.61-0.552-3.552,0,0,0,68,true,stim,true,2,554.0,2,0,0,13581,task1,1378057,false,false,1775,image-keyboard-response,1
true,15,2,1,0,false,q,false,false,0.0-2.0-0.61-0.553-3.553,0,0,0,68,false,stim,true,2,760.6999999880791,2,0,1,13581,task1,1380346,false,false,1778,image-keyboard-response,2
true,15,0,1,2,false,d,false,false,0.0-2.0-0.61-0.554-3.554,0,0,0,81,false,stim,true,0,1033.9000000059605,2,0,2,13581,task1,1382904,false,false,1781,image-keyboard-response,3
true,15,2,1,0,false,q,false,false,0.0-2.0-0.61-0.555-3.555,0,0,0,68,false,stim,true,2,761.9000000059605,2,0,0,13581,task1,1385197,false,false,1784,image-keyboard-response,4
true,15,1,1,0,false,q,true,false,0.0-2.0-0.61-0.556-3.556,0,0,0,90,false,stim,false,2,551.0,2,0,1,13581,task1,1387271,false,false,1787,image-keyboard-response,5
true,15,0,1,0,true,q,false,true,0.0-2.0-0.61-0.557-3.557,0,0,0,81,false,stim,false,2,1436.5999999940395,2,0,0,13581,task1,1390240,false,false,1790,image-keyboard-response,6
true,15,0,1,0,true,q,false,true,0.0-2.0-0.62-0.558-3.558,0,0,0,81,false,stim,false,2,313.7999999821186,2,0,1,13581,task1,1392085,false,false,1793,image-keyboard-response,7
true,15,2,1,2,true,d,false,true,0.0-2.0-0.62-0.559-3.559,0,0,0,68,false,stim,false,0,437.5,2,0,2,13581,task1,1394057,false,false,1796,image-keyboard-response,8
true,15,2,1,2,true,d,false,true,0.0-2.0-0.62-0.560-3.560,0,0,0,68,false,stim,false,0,483.80000001192093,2,0,2,13581,task1,1396070,false,false,1799,image-keyboard-response,9
true,15,2,1,2,true,d,false,true,0.0-2.0-0.62-0.561-3.561,0,0,0,68,false,stim,false,0,646.8000000119209,2,0,2,13581,task1,1398266,false,false,1802,image-keyboard-response,10
true,15,0,1,0,true,q,false,true,0.0-2.0-0.62-0.562-3.562,0,0,0,81,false,stim,false,2,518.5999999940395,2,0,0,13581,task1,1400323,false,false,1805,image-keyboard-response,11
true,15,0,1,0,true,q,false,true,0.0-2.0-0.62-0.563-3.563,0,0,0,81,false,stim,false,2,317.5,2,0,1,13581,task1,1402154,false,false,1808,image-keyboard-response,12
true,15,0,1,0,true,q,false,true,0.0-2.0-0.62-0.564-3.564,0,0,0,81,false,stim,false,2,420.40000000596046,2,0,0,13581,task1,1404107,false,false,1811,image-keyboard-response,13
true,15,0,1,0,true,q,false,true,0.0-2.0-0.62-0.565-3.565,0,0,0,81,false,stim,false,2,298.69999998807907,2,0,0,13581,task1,1405936,false,false,1814,image-keyboard-response,14
true,15,0,1,0,true,q,false,true,0.0-2.0-0.62-0.566-3.566,0,0,0,81,false,stim,false,2,341.19999998807907,2,0,1,13581,task1,1407811,false,false,1817,image-keyboard-response,15
true,15,0,1,0,true,q,false,true,0.0-2.0-0.63-0.567-3.567,0,0,0,81,false,stim,false,2,312.19999998807907,2,0,1,13581,task1,1409649,false,false,1820,image-keyboard-response,16
true,15,2,1,2,true,d,false,true,0.0-2.0-0.63-0.568-3.568,0,0,0,68,false,stim,false,0,524.0,2,0,2,13581,task1,1411712,false,false,1823,image-keyboard-response,17
true,15,0,1,0,true,q,false,true,0.0-2.0-0.63-0.569-3.569,0,0,0,81,false,stim,false,2,399.19999998807907,2,0,0,13581,task1,1413653,false,false,1826,image-keyboard-response,18
true,15,0,1,0,true,q,false,true,0.0-2.0-0.63-0.570-3.570,0,0,0,81,false,stim,false,2,1292.4000000059605,2,0,1,13581,task1,1416480,false,false,1829,image-keyboard-response,19
true,15,0,1,0,true,q,false,true,0.0-2.0-0.63-0.571-3.571,0,0,0,81,false,stim,false,2,318.40000000596046,2,0,0,13581,task1,1418323,false,false,1832,image-keyboard-response,20
true,15,2,1,2,true,d,false,true,0.0-2.0-0.63-0.572-3.572,0,0,0,68,false,stim,false,0,461.0,2,0,2,13581,task1,1420313,false,false,1835,image-keyboard-response,21
true,15,0,1,0,true,q,false,true,0.0-2.0-0.63-0.573-3.573,0,0,0,81,false,stim,false,2,524.5,2,0,0,13581,task1,1422362,false,false,1838,image-keyboard-response,22
true,15,0,1,0,true,q,false,true,0.0-2.0-0.63-0.574-3.574,0,0,0,81,false,stim,false,2,369.09999999403954,2,0,1,13581,task1,1424256,false,false,1841,image-keyboard-response,23
true,15,2,1,2,true,d,false,true,0.0-2.0-0.63-0.575-3.575,0,0,0,68,false,stim,false,0,827.6999999880791,2,0,2,13581,task1,1426614,false,false,1844,image-keyboard-response,24
true,15,2,1,2,true,d,false,false,0.0-2.0-0.64-0.576-3.576,0,0,0,68,false,stim,false,0,503.2000000178814,2,0,2,13581,task1,1428642,false,true,1847,image-keyboard-response,25
true,15,0,1,0,true,q,false,false,0.0-2.0-0.64-0.577-3.577,0,0,0,81,false,stim,false,2,377.0,2,0,1,13581,task1,1430548,false,true,1850,image-keyboard-response,26
true,15,2,1,2,true,d,false,true,0.0-2.0-0.64-0.578-3.578,0,0,0,68,false,stim,false,0,769.5999999940395,2,0,2,13581,task1,1432841,false,false,1853,image-keyboard-response,27
true,15,0,1,0,true,q,false,true,0.0-2.0-0.64-0.579-3.579,0,0,0,81,false,stim,false,2,300.0,2,0,1,13581,task1,1434672,false,false,1856,image-keyboard-response,28
true,15,2,1,2,true,d,false,true,0.0-2.0-0.64-0.580-3.580,0,0,0,68,false,stim,false,0,588.5999999940395,2,0,2,13581,task1,1436794,false,false,1859,image-keyboard-response,29
true,15,0,1,0,true,q,false,true,0.0-2.0-0.64-0.581-3.581,0,0,0,81,false,stim,false,2,389.59999999403954,2,0,1,13581,task1,1438712,false,false,1862,image-keyboard-response,30
true,15,0,1,0,true,q,false,true,0.0-2.0-0.64-0.582-3.582,0,0,0,81,false,stim,false,2,531.9000000059605,2,0,0,13581,task1,1440771,false,false,1865,image-keyboard-response,31
true,15,0,1,0,true,q,false,true,0.0-2.0-0.64-0.583-3.583,0,0,0,81,false,stim,false,2,341.0,2,0,0,13581,task1,1442647,false,false,1868,image-keyboard-response,32
true,15,0,1,0,true,q,false,false,0.0-2.0-0.64-0.584-3.584,0,0,0,81,false,stim,false,2,342.09999999403954,2,0,0,13581,task1,1444515,false,true,1871,image-keyboard-response,33
true,15,0,1,0,true,q,false,false,0.0-2.0-0.65-0.585-3.585,0,0,0,81,false,stim,false,2,395.5,2,0,0,13581,task1,1446435,false,true,1874,image-keyboard-response,34
true,15,2,1,0,false,q,false,true,0.0-2.0-0.65-0.586-3.586,0,0,0,68,false,stim,true,2,1069.5,2,0,0,13581,task1,1449042,false,true,1877,image-keyboard-response,35
true,15,2,1,0,false,q,false,false,0.0-2.0-0.65-0.587-3.587,0,0,0,68,false,stim,true,2,332.7999999821186,2,0,0,13581,task1,1450906,false,false,1880,image-keyboard-response,36
true,15,0,1,2,false,d,false,false,0.0-2.0-0.65-0.588-3.588,0,0,0,81,false,stim,true,0,1077.300000011921,2,0,2,13581,task1,1453500,false,false,1883,image-keyboard-response,37
true,15,2,1,0,false,q,false,false,0.0-2.0-0.65-0.589-3.589,0,0,0,68,false,stim,true,2,1264.800000011921,2,0,1,13581,task1,1456289,false,false,1886,image-keyboard-response,38
true,15,2,1,2,true,d,false,true,0.0-2.0-0.65-0.590-3.590,0,0,0,68,false,stim,false,0,331.2999999821186,2,0,2,13581,task1,1458155,false,false,1889,image-keyboard-response,39
