answered,blockNum,choice,condition,corResp,correct,correct_response,explo,fb,internal_node_id,isStable_1,isStable_2,isStable_3,key_press,newBlock,part,persev,persevResp,rt,sessNum,stableAS,stimulus,subject,task,time_elapsed,training,trap,trial_index,trial_type,trialsInBlock
true,1,0,0,1,false,z,true,false,0.0-2.0-0.0-0.0-3.0,0,0,0,81,true,stim,false,-1,1179,0,0,0,19096,task3,154364,false,false,85,image-keyboard-response,1
true,1,0,0,0,true,q,false,true,0.0-2.0-0.0-0.1-3.1,0,0,0,81,false,stim,false,-1,1567,0,0,1,19096,task3,157472,false,false,88,image-keyboard-response,2
true,1,1,0,1,true,z,false,true,0.0-2.0-0.0-0.2-3.2,0,0,0,90,false,stim,false,-1,2486,0,0,0,19096,task3,161492,false,false,91,image-keyboard-response,3
true,1,1,0,1,true,z,false,true,0.0-2.0-0.0-0.3-3.3,0,0,0,90,false,stim,false,-1,793,0,0,0,19096,task3,163818,false,false,94,image-keyboard-response,4
true,1,2,0,0,false,q,true,false,0.0-2.0-0.0-0.4-3.4,0,0,0,68,false,stim,false,-1,2260,0,0,1,19096,task3,167601,false,false,97,image-keyboard-response,5
true,1,0,0,0,true,q,false,true,0.0-2.0-0.0-0.5-3.5,0,0,0,81,false,stim,false,-1,787,0,0,1,19096,task3,169921,false,false,100,image-keyboard-response,6
true,1,2,0,0,false,q,true,false,0.0-2.0-0.0-0.6-3.6,0,0,0,68,false,stim,false,-1,1049,0,0,2,19096,task3,172504,false,false,103,image-keyboard-response,7
true,1,1,0,0,false,q,true,false,0.0-2.0-0.0-0.7-3.7,0,0,0,90,false,stim,false,-1,643,0,0,2,19096,task3,174679,false,false,106,image-keyboard-response,8
true,1,0,0,0,true,q,false,true,0.0-2.0-0.0-0.8-3.8,0,0,0,81,false,stim,false,-1,1073,0,0,2,19096,task3,177289,false,false,109,image-keyboard-response,9
true,1,0,0,0,true,q,false,true,0.0-2.0-0.1-0.9-3.9,0,0,0,81,false,stim,false,-1,684,0,0,1,19096,task3,179508,false,false,112,image-keyboard-response,10
true,1,1,0,1,true,z,false,true,0.0-2.0-0.1-0.10-3.10,0,0,0,90,false,stim,false,-1,906,0,0,0,19096,task3,181942,false,false,115,image-keyboard-response,11
true,1,0,0,0,true,q,false,true,0.0-2.0-0.1-0.11-3.11,0,0,0,81,false,stim,false,-1,655,0,0,1,19096,task3,184130,false,false,118,image-keyboard-response,12
true,1,0,0,0,true,q,false,true,0.0-2.0-0.1-0.12-3.12,0,0,0,81,false,stim,false,-1,686,0,0,2,19096,task3,186340,false,false,121,image-keyboard-response,13
true,1,1,0,0,false,q,true,false,0.0-2.0-0.1-0.13-3.13,0,0,0,90,false,stim,false,-1,250,0,0,2,19096,task3,188127,false,false,124,image-keyboard-response,14
true,1,1,0,1,true,z,false,true,0.0-2.0-0.1-0.14-3.14,0,0,0,90,false,stim,false,-1,2357,0,0,0,19096,task3,192013,false,false,127,image-keyboard-response,15
true,1,1,0,1,true,z,false,true,0.0-2.0-0.1-0.15-3.15,0,0,0,90,false,stim,false,-1,887,0,0,0,19096,task3,194441,false,false,130,image-keyboard-response,16
true,1,0,0,0,true,q,false,true,0.0-2.0-0.1-0.16-3.16,0,0,0,81,false,stim,false,-1,449,0,0,2,19096,task3,196413,false,false,133,image-keyboard-response,17
true,1,0,0,0,true,q,false,true,0.0-2.0-0.1-0.17-3.17,0,0,0,81,false,stim,false,-1,492,0,0,1,19096,task3,198436,false,false,136,image-keyboard-response,18
true,1,0,0,0,true,q,false,true,0.0-2.0-0.2-0.18-3.18,0,0,0,81,false,stim,false,-1,1168,0,0,2,19096,task3,201143,false,false,139,image-keyboard-response,19
true,1,0,0,0,true,q,false,true,0.0-2.0-0.2-0.19-3.19,0,0,0,81,false,stim,false,-1,2990,0,0,1,19096,task3,205665,false,false,142,image-keyboard-response,20
true,1,0,0,0,true,q,false,true,0.0-2.0-0.2-0.20-3.20,0,0,0,81,false,stim,false,-1,1647,0,0,2,19096,task3,208841,false,false,145,image-keyboard-response,21
true,1,1,0,1,true,z,false,true,0.0-2.0-0.2-0.21-3.21,0,0,0,90,false,stim,false,-1,921,0,0,0,19096,task3,211296,false,false,148,image-keyboard-response,22
true,1,1,0,1,true,z,false,true,0.0-2.0-0.2-0.22-3.22,0,0,0,90,false,stim,false,-1,1176,0,0,0,19096,task3,214000,false,false,151,image-keyboard-response,23
true,1,0,0,0,true,q,false,true,0.0-2.0-0.2-0.23-3.23,0,0,0,81,false,stim,false,-1,1030,0,0,2,19096,task3,216553,false,false,154,image-keyboard-response,24
true,1,0,0,0,true,q,false,true,0.0-2.0-0.2-0.24-3.24,0,0,0,81,false,stim,false,-1,607,0,0,1,19096,task3,218692,false,false,157,image-keyboard-response,25
true,1,1,0,1,true,z,false,true,0.0-2.0-0.2-0.25-3.25,0,0,0,90,false,stim,false,-1,1024,0,1,0,19096,task3,221247,false,false,160,image-keyboard-response,26
true,1,0,0,0,true,q,false,false,0.0-2.0-0.2-0.26-3.26,0,0,0,81,false,stim,false,-1,904,0,0,1,19096,task3,223687,false,true,163,image-keyboard-response,27
true,1,1,0,0,false,q,true,false,0.0-2.0-0.3-0.27-3.27,0,0,0,90,false,stim,false,-1,1067,0,0,1,19096,task3,226289,false,false,166,image-keyboard-response,28
true,1,1,0,1,true,z,false,false,0.0-2.0-0.3-0.28-3.28,0,0,0,90,false,stim,false,-1,2087,0,1,0,19096,task3,229911,false,true,169,image-keyboard-response,29
true,2,2,2,0,false,q,true,false,0.0-2.0-0.3-0.29-3.29,1,0,1,68,true,stim,false,0,355,0,1,2,19096,task3,231799,false,false,172,image-keyboard-response,1
true,2,1,2,1,true,z,false,true,0.0-2.0-0.3-0.30-3.30,1,0,1,90,false,stim,false,1,1627,0,1,0,19096,task3,234951,false,false,175,image-keyboard-response,2
true,2,1,2,1,true,z,false,true,0.0-2.0-0.3-0.31-3.31,1,0,1,90,false,stim,false,1,1484,0,1,0,19096,task3,237958,false,false,178,image-keyboard-response,3
true,2,0,2,2,false,d,false,false,0.0-2.0-0.3-0.32-3.32,1,0,1,81,false,stim,true,0,1865,0,0,1,19096,task3,241357,false,false,181,image-keyboard-response,4
true,2,0,2,0,true,q,false,true,0.0-2.0-0.3-0.33-3.33,1,0,1,81,false,stim,false,0,1371,0,1,2,19096,task3,244265,false,false,184,image-keyboard-response,5
true,2,0,2,0,true,q,false,true,0.0-2.0-0.3-0.34-3.34,1,0,1,81,false,stim,false,0,1471,0,1,2,19096,task3,247263,false,false,187,image-keyboard-response,6
true,2,2,2,2,true,d,false,true,0.0-2.0-0.3-0.35-3.35,1,0,1,68,false,stim,false,0,1971,0,0,1,19096,task3,250775,false,false,190,image-keyboard-response,7
true,2,2,2,2,true,d,false,true,0.0-2.0-0.4-0.36-3.36,1,0,1,68,false,stim,false,0,2743,0,0,1,19096,task3,255046,false,false,193,image-keyboard-response,8
true,2,1,2,1,true,z,false,true,0.0-2.0-0.4-0.37-3.37,1,0,1,90,false,stim,false,1,1154,0,1,0,19096,task3,257737,false,false,196,image-keyboard-response,9
true,2,2,2,2,true,d,false,true,0.0-2.0-0.4-0.38-3.38,1,0,1,68,false,stim,false,0,888,0,0,1,19096,task3,260140,false,false,199,image-keyboard-response,10
true,2,0,2,0,true,q,false,true,0.0-2.0-0.4-0.39-3.39,1,0,1,81,false,stim,false,0,492,0,1,2,19096,task3,262175,false,false,202,image-keyboard-response,11
true,2,0,2,0,true,q,false,true,0.0-2.0-0.4-0.40-3.40,1,0,1,81,false,stim,false,0,1190,0,1,2,19096,task3,264893,false,false,205,image-keyboard-response,12
true,2,0,2,0,true,q,false,true,0.0-2.0-0.4-0.41-3.41,1,0,1,81,false,stim,false,0,727,0,1,2,19096,task3,267150,false,false,208,image-keyboard-response,13
true,2,1,2,1,true,z,false,true,0.0-2.0-0.4-0.42-3.42,1,0,1,90,false,stim,false,1,720,0,1,0,19096,task3,269413,false,false,211,image-keyboard-response,14
true,2,2,2,2,true,d,false,true,0.0-2.0-0.4-0.43-3.43,1,0,1,68,false,stim,false,0,632,0,0,1,19096,task3,271583,false,false,214,image-keyboard-response,15
true,2,1,2,1,true,z,false,true,0.0-2.0-0.4-0.44-3.44,1,0,1,90,false,stim,false,1,1635,0,1,0,19096,task3,274747,false,false,217,image-keyboard-response,16
true,2,2,2,2,true,d,false,true,0.0-2.0-0.5-0.45-3.45,1,0,1,68,false,stim,false,0,742,0,0,1,19096,task3,277014,false,false,220,image-keyboard-response,17
true,2,2,2,2,true,d,false,true,0.0-2.0-0.5-0.46-3.46,1,0,1,68,false,stim,false,0,977,0,0,1,19096,task3,279529,false,false,223,image-keyboard-response,18
true,2,0,2,0,true,q,false,true,0.0-2.0-0.5-0.47-3.47,1,0,1,81,false,stim,false,0,1205,0,1,2,19096,task3,282257,false,false,226,image-keyboard-response,19
true,2,0,2,0,true,q,false,true,0.0-2.0-0.5-0.48-3.48,1,0,1,81,false,stim,false,0,974,0,1,2,19096,task3,284767,false,false,229,image-keyboard-response,20
true,2,1,2,1,true,z,false,true,0.0-2.0-0.5-0.49-3.49,1,0,1,90,false,stim,false,1,414,0,1,0,19096,task3,286706,false,false,232,image-keyboard-response,21
true,2,2,2,2,true,d,false,true,0.0-2.0-0.5-0.50-3.50,1,0,1,68,false,stim,false,0,1385,0,0,1,19096,task3,289616,false,false,235,image-keyboard-response,22
true,2,1,2,1,true,z,false,true,0.0-2.0-0.5-0.51-3.51,1,0,1,90,false,stim,false,1,2280,0,0,0,19096,task3,293422,false,false,238,image-keyboard-response,23
true,2,1,2,1,true,z,false,true,0.0-2.0-0.5-0.52-3.52,1,0,1,90,false,stim,false,1,784,0,0,0,19096,task3,295735,false,false,241,image-keyboard-response,24
true,2,0,2,0,true,q,false,true,0.0-2.0-0.5-0.53-3.53,1,0,1,81,false,stim,false,0,1352,0,1,2,19096,task3,298624,false,false,244,image-keyboard-response,25
true,2,1,2,1,true,z,false,true,0.0-2.0-0.6-0.54-3.54,1,0,1,90,false,stim,false,1,1054,0,0,0,19096,task3,301205,false,false,247,image-keyboard-response,26
true,3,2,1,0,false,q,false,false,0.0-2.0-0.6-0.55-3.55,0,0,1,68,true,stim,true,2,1110,0,0,1,19096,task3,303842,false,false,250,image-keyboard-response,1
true,3,1,1,2,false,d,false,false,0.0-2.0-0.6-0.56-3.56,0,0,1,90,false,stim,true,1,964,0,0,0,19096,task3,306336,false,false,253,image-keyboard-response,2
true,3,2,1,0,false,q,false,false,0.0-2.0-0.6-0.57-3.57,0,0,1,68,false,stim,true,2,2516,0,0,1,19096,task3,310387,false,false,256,image-keyboard-response,3
true,3,1,1,0,false,q,true,true,0.0-2.0-0.6-0.58-3.58,0,0,1,90,false,stim,false,2,1377,0,0,1,19096,task3,313299,false,true,259,image-keyboard-response,4
true,3,0,1,0,true,q,false,true,0.0-2.0-0.6-0.59-3.59,0,0,1,81,false,stim,false,0,1258,0,1,2,19096,task3,316101,false,false,262,image-keyboard-response,5
true,3,0,1,0,true,q,false,false,0.0-2.0-0.6-0.60-3.60,0,0,1,81,false,stim,false,0,1222,0,1,2,19096,task3,318862,false,true,265,image-keyboard-response,6
true,3,0,1,2,false,d,true,false,0.0-2.0-0.6-0.61-3.61,0,0,1,81,false,stim,false,1,1312,0,0,0,19096,task3,321713,false,false,268,image-keyboard-response,7
true,3,1,1,0,false,q,true,false,0.0-2.0-0.6-0.62-3.62,0,0,1,90,false,stim,false,0,2840,0,1,2,19096,task3,326092,false,false,271,image-keyboard-response,8
true,3,2,1,2,true,d,false,true,0.0-2.0-0.7-0.63-3.63,0,0,1,68,false,stim,false,1,261,0,0,0,19096,task3,327892,false,false,274,image-keyboard-response,9
true,3,1,1,0,false,q,true,false,0.0-2.0-0.7-0.64-3.64,0,0,1,90,false,stim,false,2,1959,0,0,1,19096,task3,331390,false,false,277,image-keyboard-response,10
true,3,0,1,0,true,q,false,true,0.0-2.0-0.7-0.65-3.65,0,0,1,81,false,stim,false,2,619,0,0,1,19096,task3,333539,false,false,280,image-keyboard-response,11
true,3,1,1,0,false,q,true,false,0.0-2.0-0.7-0.66-3.66,0,0,1,90,false,stim,false,0,1427,0,1,2,19096,task3,336507,false,false,283,image-keyboard-response,12
true,3,0,1,0,true,q,false,true,0.0-2.0-0.7-0.67-3.67,0,0,1,81,false,stim,false,0,495,0,1,2,19096,task3,338535,false,false,286,image-keyboard-response,13
true,3,0,1,0,true,q,false,true,0.0-2.0-0.7-0.68-3.68,0,0,1,81,false,stim,false,2,680,0,0,1,19096,task3,340741,false,false,289,image-keyboard-response,14
true,3,0,1,0,true,q,false,true,0.0-2.0-0.7-0.69-3.69,0,0,1,81,false,stim,false,0,860,0,1,2,19096,task3,343131,false,false,292,image-keyboard-response,15
true,3,2,1,2,true,d,false,true,0.0-2.0-0.7-0.70-3.70,0,0,1,68,false,stim,false,1,761,0,0,0,19096,task3,345431,false,false,295,image-keyboard-response,16
true,3,0,1,2,false,d,true,false,0.0-2.0-0.7-0.71-3.71,0,0,1,81,false,stim,false,1,767,0,0,0,19096,task3,347733,false,false,298,image-keyboard-response,17
true,3,0,1,0,true,q,false,true,0.0-2.0-0.8-0.72-3.72,0,0,1,81,false,stim,false,0,673,0,1,2,19096,task3,349949,false,false,301,image-keyboard-response,18
true,3,0,1,0,true,q,false,true,0.0-2.0-0.8-0.73-3.73,0,0,1,81,false,stim,false,2,569,0,0,1,19096,task3,352060,false,false,304,image-keyboard-response,19
true,3,2,1,2,true,d,false,true,0.0-2.0-0.8-0.74-3.74,0,0,1,68,false,stim,false,1,460,0,0,0,19096,task3,354049,false,false,307,image-keyboard-response,20
true,3,0,1,0,true,q,false,true,0.0-2.0-0.8-0.75-3.75,0,0,1,81,false,stim,false,0,739,0,1,2,19096,task3,356321,false,false,310,image-keyboard-response,21
true,3,0,1,2,false,d,true,true,0.0-2.0-0.8-0.76-3.76,0,0,1,81,false,stim,false,1,572,0,0,0,19096,task3,358433,false,true,313,image-keyboard-response,22
true,3,0,1,0,true,q,false,true,0.0-2.0-0.8-0.77-3.77,0,0,1,81,false,stim,false,2,1157,0,0,1,19096,task3,361127,false,false,316,image-keyboard-response,23
true,3,0,1,2,false,d,true,false,0.0-2.0-0.8-0.78-3.78,0,0,1,81,false,stim,false,1,1020,0,0,0,19096,task3,363671,false,false,319,image-keyboard-response,24
true,3,0,1,0,true,q,false,true,0.0-2.0-0.8-0.79-3.79,0,0,1,81,false,stim,false,0,1032,0,1,2,19096,task3,366242,false,false,322,image-keyboard-response,25
true,3,0,1,0,true,q,false,true,0.0-2.0-0.8-0.80-3.80,0,0,1,81,false,stim,false,2,1579,0,0,1,19096,task3,369360,false,false,325,image-keyboard-response,26
true,3,0,1,0,true,q,false,true,0.0-2.0-0.9-0.81-3.81,0,0,1,81,false,stim,false,2,1145,0,0,1,19096,task3,372045,false,false,328,image-keyboard-response,27
true,4,0,1,2,false,d,false,false,0.0-2.0-0.9-0.82-3.82,0,0,1,81,true,stim,true,0,683,0,0,1,19096,task3,374262,false,false,331,image-keyboard-response,1
true,4,0,1,2,false,d,false,false,0.0-2.0-0.9-0.83-3.83,0,0,1,81,false,stim,true,0,718,0,0,1,19096,task3,376517,false,false,334,image-keyboard-response,2
true,4,0,1,0,true,q,false,true,0.0-2.0-0.9-0.84-3.84,0,0,1,81,false,stim,false,0,779,0,1,2,19096,task3,378819,false,false,337,image-keyboard-response,3
true,4,0,1,0,true,q,false,true,0.0-2.0-0.9-0.85-3.85,0,0,1,81,false,stim,false,0,692,0,1,2,19096,task3,381042,false,false,340,image-keyboard-response,4
true,4,1,1,0,false,q,true,true,0.0-2.0-0.9-0.86-3.86,0,0,1,90,false,stim,false,2,1109,0,0,0,19096,task3,383679,false,true,343,image-keyboard-response,5
true,4,0,1,0,true,q,false,false,0.0-2.0-0.9-0.87-3.87,0,0,1,81,false,stim,false,0,1359,0,1,2,19096,task3,386568,false,true,346,image-keyboard-response,6
true,4,1,1,0,false,q,true,false,0.0-2.0-0.9-0.88-3.88,0,0,1,90,false,stim,false,2,959,0,0,0,19096,task3,389070,false,false,349,image-keyboard-response,7
true,4,0,1,0,true,q,false,true,0.0-2.0-0.9-0.89-3.89,0,0,1,81,false,stim,false,2,1235,0,1,0,19096,task3,391846,false,false,352,image-keyboard-response,8
true,4,0,1,0,true,q,false,true,0.0-2.0-0.10-0.90-3.90,0,0,1,81,false,stim,false,2,946,0,1,0,19096,task3,394324,false,false,355,image-keyboard-response,9
true,4,2,1,2,true,d,false,true,0.0-2.0-0.10-0.91-3.91,0,0,1,68,false,stim,false,0,1241,0,1,1,19096,task3,397099,false,false,358,image-keyboard-response,10
true,4,0,1,0,true,q,false,true,0.0-2.0-0.10-0.92-3.92,0,0,1,81,false,stim,false,2,1176,0,1,0,19096,task3,399815,false,false,361,image-keyboard-response,11
true,4,2,1,2,true,d,false,true,0.0-2.0-0.10-0.93-3.93,0,0,1,68,false,stim,false,0,1200,0,1,1,19096,task3,402551,false,false,364,image-keyboard-response,12
true,5,1,2,2,false,d,true,false,0.0-2.0-0.10-0.94-3.94,1,1,0,90,true,stim,false,0,976,0,0,2,19096,task3,405064,false,false,367,image-keyboard-response,1
true,5,2,2,2,true,d,false,true,0.0-2.0-0.10-0.95-3.95,1,1,0,68,false,stim,false,0,516,0,0,2,19096,task3,407114,false,false,370,image-keyboard-response,2
true,5,0,2,0,true,q,false,true,0.0-2.0-0.10-0.96-3.96,1,1,0,81,false,stim,false,0,640,0,1,0,19096,task3,409279,false,false,373,image-keyboard-response,3
true,5,2,2,2,true,d,false,true,0.0-2.0-0.10-0.97-3.97,1,1,0,68,false,stim,false,0,547,0,0,2,19096,task3,411365,false,false,376,image-keyboard-response,4
true,5,2,2,2,true,d,false,true,0.0-2.0-0.10-0.98-3.98,1,1,0,68,false,stim,false,2,787,0,1,1,19096,task3,413686,false,false,379,image-keyboard-response,5
true,5,2,2,2,true,d,false,true,0.0-2.0-0.11-0.99-3.99,1,1,0,68,false,stim,false,2,542,0,1,1,19096,task3,415759,false,false,382,image-keyboard-response,6
true,5,2,2,2,true,d,false,true,0.0-2.0-0.11-0.100-3.100,1,1,0,68,false,stim,false,0,714,0,0,2,19096,task3,418014,false,false,385,image-keyboard-response,7
true,5,2,2,2,true,d,false,true,0.0-2.0-0.11-0.101-3.101,1,1,0,68,false,stim,false,2,797,0,1,1,19096,task3,420335,false,false,388,image-keyboard-response,8
true,5,2,2,2,true,d,false,true,0.0-2.0-0.11-0.102-3.102,1,1,0,68,false,stim,false,0,1185,0,0,2,19096,task3,423044,false,false,391,image-keyboard-response,9
true,5,0,2,0,true,q,false,true,0.0-2.0-0.11-0.103-3.103,1,1,0,81,false,stim,false,0,813,0,1,0,19096,task3,425392,false,false,394,image-keyboard-response,10
true,5,2,2,2,true,d,false,false,0.0-2.0-0.11-0.104-3.104,1,1,0,68,false,stim,false,0,1121,0,1,2,19096,task3,428040,false,true,397,image-keyboard-response,11
true,5,0,2,0,true,q,false,true,0.0-2.0-0.11-0.105-3.105,1,1,0,81,false,stim,false,0,1938,0,1,0,19096,task3,431516,false,false,400,image-keyboard-response,12
true,5,2,2,2,true,d,false,true,0.0-2.0-0.11-0.106-3.106,1,1,0,68,false,stim,false,2,697,0,0,1,19096,task3,433756,false,false,403,image-keyboard-response,13
true,5,0,2,0,true,q,false,true,0.0-2.0-0.11-0.107-3.107,1,1,0,81,false,stim,false,0,1127,0,1,0,19096,task3,436426,false,false,406,image-keyboard-response,14
true,5,0,2,0,true,q,false,true,0.0-2.0-0.12-0.108-3.108,1,1,0,81,false,stim,false,0,901,0,1,0,19096,task3,438860,false,false,409,image-keyboard-response,15
true,6,0,2,0,true,q,false,true,0.0-2.0-0.12-0.109-3.109,1,0,1,81,true,stim,false,0,792,0,1,0,19096,task3,441189,false,false,412,image-keyboard-response,1
true,6,0,2,0,true,q,false,true,0.0-2.0-0.12-0.110-3.110,1,0,1,81,false,stim,false,0,560,0,1,0,19096,task3,443279,false,false,415,image-keyboard-response,2
true,6,1,2,2,false,d,true,false,0.0-2.0-0.12-0.111-3.111,1,0,1,90,false,stim,false,2,1433,0,1,2,19096,task3,446252,false,false,418,image-keyboard-response,3
true,6,1,2,1,true,z,false,false,0.0-2.0-0.12-0.112-3.112,1,0,1,90,false,stim,false,2,1019,0,0,1,19096,task3,448798,false,true,421,image-keyboard-response,4
true,6,0,2,2,false,d,true,true,0.0-2.0-0.12-0.113-3.113,1,0,1,81,false,stim,false,2,1416,0,1,2,19096,task3,451755,false,true,424,image-keyboard-response,5
true,6,2,2,1,false,z,false,false,0.0-2.0-0.12-0.114-3.114,1,0,1,68,false,stim,true,2,1473,0,0,1,19096,task3,454742,false,false,427,image-keyboard-response,6
true,6,0,2,2,false,d,true,false,0.0-2.0-0.12-0.115-3.115,1,0,1,81,false,stim,false,2,775,0,1,2,19096,task3,457043,false,false,430,image-keyboard-response,7
true,6,2,2,1,false,z,false,false,0.0-2.0-0.12-0.116-3.116,1,0,1,68,false,stim,true,2,1105,0,0,1,19096,task3,459671,false,false,433,image-keyboard-response,8
true,6,2,2,2,true,d,false,true,0.0-2.0-0.13-0.117-3.117,1,0,1,68,false,stim,false,2,984,0,1,2,19096,task3,462192,false,false,436,image-keyboard-response,9
true,6,2,2,2,true,d,false,true,0.0-2.0-0.13-0.118-3.118,1,0,1,68,false,stim,false,2,914,0,1,2,19096,task3,464641,false,false,439,image-keyboard-response,10
true,6,0,2,0,true,q,false,false,0.0-2.0-0.13-0.119-3.119,1,0,1,81,false,stim,false,0,590,0,1,0,19096,task3,466757,false,true,442,image-keyboard-response,11
true,6,0,2,1,false,z,true,false,0.0-2.0-0.13-0.120-3.120,1,0,1,81,false,stim,false,2,1540,0,0,1,19096,task3,469827,false,false,445,image-keyboard-response,12
true,6,1,2,1,true,z,false,true,0.0-2.0-0.13-0.121-3.121,1,0,1,90,false,stim,false,2,535,0,0,1,19096,task3,471903,false,false,448,image-keyboard-response,13
true,6,1,2,0,false,q,true,false,0.0-2.0-0.13-0.122-3.122,1,0,1,90,false,stim,false,0,1097,0,1,0,19096,task3,474524,false,false,451,image-keyboard-response,14
true,6,0,2,0,true,q,false,true,0.0-2.0-0.13-0.123-3.123,1,0,1,81,false,stim,false,0,455,0,1,0,19096,task3,476503,false,false,454,image-keyboard-response,15
true,6,2,2,1,false,z,false,false,0.0-2.0-0.13-0.124-3.124,1,0,1,68,false,stim,true,2,1800,0,0,1,19096,task3,479827,false,false,457,image-keyboard-response,16
true,6,2,2,2,true,d,false,true,0.0-2.0-0.13-0.125-3.125,1,0,1,68,false,stim,false,2,1065,0,1,2,19096,task3,482433,false,false,460,image-keyboard-response,17
true,6,0,2,0,true,q,false,true,0.0-2.0-0.14-0.126-3.126,1,0,1,81,false,stim,false,0,1314,0,1,0,19096,task3,485272,false,false,463,image-keyboard-response,18
true,6,1,2,1,true,z,false,true,0.0-2.0-0.14-0.127-3.127,1,0,1,90,false,stim,false,2,1992,0,0,1,19096,task3,488789,false,false,466,image-keyboard-response,19
true,6,1,2,1,true,z,false,true,0.0-2.0-0.14-0.128-3.128,1,0,1,90,false,stim,false,2,676,0,0,1,19096,task3,490993,false,false,469,image-keyboard-response,20
true,6,1,2,1,true,z,false,true,0.0-2.0-0.14-0.129-3.129,1,0,1,90,false,stim,false,2,690,0,0,1,19096,task3,493207,false,false,472,image-keyboard-response,21
true,6,0,2,0,true,q,false,true,0.0-2.0-0.14-0.130-3.130,1,0,1,81,false,stim,false,0,759,0,0,0,19096,task3,495495,false,false,475,image-keyboard-response,22
true,6,2,2,2,true,d,false,true,0.0-2.0-0.14-0.131-3.131,1,0,1,68,false,stim,false,2,1183,0,1,2,19096,task3,498219,false,false,478,image-keyboard-response,23
true,6,2,2,2,true,d,false,true,0.0-2.0-0.14-0.132-3.132,1,0,1,68,false,stim,false,2,645,0,1,2,19096,task3,500403,false,false,481,image-keyboard-response,24
true,7,2,1,2,true,d,false,true,0.0-2.0-0.14-0.133-3.133,0,0,1,68,true,stim,false,2,628,0,1,2,19096,task3,502565,false,false,484,image-keyboard-response,1
true,7,0,1,2,false,d,false,false,0.0-2.0-0.14-0.134-3.134,0,0,1,81,false,stim,true,0,972,0,0,0,19096,task3,505070,false,false,487,image-keyboard-response,2
true,7,0,1,2,false,d,false,false,0.0-2.0-0.15-0.135-3.135,0,0,1,81,false,stim,true,0,1102,0,0,0,19096,task3,507698,false,false,490,image-keyboard-response,3
true,7,1,1,0,false,q,false,false,0.0-2.0-0.15-0.136-3.136,0,0,1,90,false,stim,true,1,1381,0,0,1,19096,task3,510618,false,false,493,image-keyboard-response,4
true,7,1,1,2,false,d,true,false,0.0-2.0-0.15-0.137-3.137,0,0,1,90,false,stim,false,0,1229,0,0,0,19096,task3,513387,false,false,496,image-keyboard-response,5
true,7,1,1,0,false,q,false,false,0.0-2.0-0.15-0.138-3.138,0,0,1,90,false,stim,true,1,1104,0,0,1,19096,task3,516021,false,false,499,image-keyboard-response,6
true,7,2,1,0,false,q,true,false,0.0-2.0-0.15-0.139-3.139,0,0,1,68,false,stim,false,1,932,0,0,1,19096,task3,518479,false,false,502,image-keyboard-response,7
true,7,2,1,2,true,d,false,false,0.0-2.0-0.15-0.140-3.140,0,0,1,68,false,stim,false,2,975,0,1,2,19096,task3,520982,false,true,505,image-keyboard-response,8
true,7,0,1,2,false,d,true,false,0.0-2.0-0.15-0.141-3.141,0,0,1,81,false,stim,false,2,989,0,1,2,19096,task3,523485,false,false,508,image-keyboard-response,9
true,7,1,1,2,false,d,true,false,0.0-2.0-0.15-0.142-3.142,0,0,1,90,false,stim,false,0,1526,0,0,0,19096,task3,526542,false,false,511,image-keyboard-response,10
true,7,2,1,2,true,d,false,true,0.0-2.0-0.15-0.143-3.143,0,0,1,68,false,stim,false,2,1012,0,1,2,19096,task3,529089,false,false,514,image-keyboard-response,11
true,7,1,1,0,false,q,false,false,0.0-2.0-0.16-0.144-3.144,0,0,1,90,false,stim,true,1,1259,0,0,1,19096,task3,531876,false,false,517,image-keyboard-response,12
true,7,2,1,2,true,d,false,true,0.0-2.0-0.16-0.145-3.145,0,0,1,68,false,stim,false,0,889,0,0,0,19096,task3,534306,false,false,520,image-keyboard-response,13
true,7,2,1,2,true,d,false,true,0.0-2.0-0.16-0.146-3.146,0,0,1,68,false,stim,false,0,788,0,0,0,19096,task3,536623,false,false,523,image-keyboard-response,14
true,7,2,1,2,true,d,false,true,0.0-2.0-0.16-0.147-3.147,0,0,1,68,false,stim,false,2,606,0,1,2,19096,task3,538744,false,false,526,image-keyboard-response,15
true,7,0,1,0,true,q,false,true,0.0-2.0-0.16-0.148-3.148,0,0,1,81,false,stim,false,1,1090,0,0,1,19096,task3,541365,false,false,529,image-keyboard-response,16
true,7,0,1,0,true,q,false,true,0.0-2.0-0.16-0.149-3.149,0,0,1,81,false,stim,false,1,1562,0,0,1,19096,task3,544458,false,false,532,image-keyboard-response,17
true,7,2,1,2,true,d,false,true,0.0-2.0-0.16-0.150-3.150,0,0,1,68,false,stim,false,2,953,0,1,2,19096,task3,546949,false,false,535,image-keyboard-response,18
true,7,2,1,2,true,d,false,true,0.0-2.0-0.16-0.151-3.151,0,0,1,68,false,stim,false,0,1009,0,0,0,19096,task3,549486,false,false,538,image-keyboard-response,19
true,7,2,1,2,true,d,false,true,0.0-2.0-0.16-0.152-3.152,0,0,1,68,false,stim,false,2,769,0,1,2,19096,task3,551784,false,false,541,image-keyboard-response,20
true,7,0,1,0,true,q,false,true,0.0-2.0-0.17-0.153-3.153,0,0,1,81,false,stim,false,1,964,0,1,1,19096,task3,554280,false,false,544,image-keyboard-response,21
true,7,2,1,2,true,d,false,true,0.0-2.0-0.17-0.154-3.154,0,0,1,68,false,stim,false,0,1164,0,0,0,19096,task3,556980,false,false,547,image-keyboard-response,22
true,7,2,1,2,true,d,false,true,0.0-2.0-0.17-0.155-3.155,0,0,1,68,false,stim,false,2,606,0,1,2,19096,task3,559111,false,false,550,image-keyboard-response,23
true,7,0,1,2,false,d,false,true,0.0-2.0-0.17-0.156-3.156,0,0,1,81,false,stim,true,0,915,0,0,0,19096,task3,561560,false,true,553,image-keyboard-response,24
true,7,2,1,2,true,d,false,true,0.0-2.0-0.17-0.157-3.157,0,0,1,68,false,stim,false,2,1840,0,1,2,19096,task3,564925,false,false,556,image-keyboard-response,25
true,8,2,2,2,true,d,false,true,0.0-2.0-0.17-0.158-3.158,0,1,1,68,true,stim,false,2,966,0,1,2,19096,task3,567432,false,false,559,image-keyboard-response,1
true,8,0,2,0,true,q,false,true,0.0-2.0-0.17-0.159-3.159,0,1,1,81,false,stim,false,0,911,0,1,1,19096,task3,569867,false,false,562,image-keyboard-response,2
true,8,0,2,0,true,q,false,true,0.0-2.0-0.17-0.160-3.160,0,1,1,81,false,stim,false,0,656,0,1,1,19096,task3,572050,false,false,565,image-keyboard-response,3
true,8,2,2,1,false,z,false,false,0.0-2.0-0.17-0.161-3.161,0,1,1,68,false,stim,true,2,774,0,0,0,19096,task3,574359,false,false,568,image-keyboard-response,4
true,8,0,2,0,true,q,false,true,0.0-2.0-0.18-0.162-3.162,0,1,1,81,false,stim,false,0,1826,0,1,1,19096,task3,577712,false,false,571,image-keyboard-response,5
true,8,2,2,2,true,d,false,true,0.0-2.0-0.18-0.163-3.163,0,1,1,68,false,stim,false,2,705,0,1,2,19096,task3,579950,false,false,574,image-keyboard-response,6
true,8,0,2,0,true,q,false,true,0.0-2.0-0.18-0.164-3.164,0,1,1,81,false,stim,false,0,1332,0,1,1,19096,task3,582808,false,false,577,image-keyboard-response,7
true,8,1,2,1,true,z,false,true,0.0-2.0-0.18-0.165-3.165,0,1,1,90,false,stim,false,2,709,0,0,0,19096,task3,585043,false,false,580,image-keyboard-response,8
true,8,1,2,1,true,z,false,true,0.0-2.0-0.18-0.166-3.166,0,1,1,90,false,stim,false,2,1353,0,0,0,19096,task3,587928,false,false,583,image-keyboard-response,9
true,8,2,2,2,true,d,false,false,0.0-2.0-0.18-0.167-3.167,0,1,1,68,false,stim,false,2,731,0,1,2,19096,task3,590186,false,true,586,image-keyboard-response,10
true,8,0,2,0,true,q,false,true,0.0-2.0-0.18-0.168-3.168,0,1,1,81,false,stim,false,0,1471,0,1,1,19096,task3,593184,false,false,589,image-keyboard-response,11
true,8,1,2,1,true,z,false,true,0.0-2.0-0.18-0.169-3.169,0,1,1,90,false,stim,false,2,2031,0,0,0,19096,task3,596747,false,false,592,image-keyboard-response,12
true,8,1,2,2,false,d,true,false,0.0-2.0-0.18-0.170-3.170,0,1,1,90,false,stim,false,2,1510,0,1,2,19096,task3,599794,false,false,595,image-keyboard-response,13
true,8,1,2,1,true,z,false,true,0.0-2.0-0.19-0.171-3.171,0,1,1,90,false,stim,false,2,902,0,0,0,19096,task3,602226,false,false,598,image-keyboard-response,14
true,8,0,2,0,true,q,false,true,0.0-2.0-0.19-0.172-3.172,0,1,1,81,false,stim,false,0,647,0,1,1,19096,task3,604416,false,false,601,image-keyboard-response,15
true,8,0,2,0,true,q,false,true,0.0-2.0-0.19-0.173-3.173,0,1,1,81,false,stim,false,0,1009,0,1,1,19096,task3,606953,false,false,604,image-keyboard-response,16
true,8,0,2,0,true,q,false,false,0.0-2.0-0.19-0.174-3.174,0,1,1,81,false,stim,false,0,956,0,1,1,19096,task3,609450,false,true,607,image-keyboard-response,17
true,8,1,2,1,true,z,false,true,0.0-2.0-0.19-0.175-3.175,0,1,1,90,false,stim,false,2,971,0,0,0,19096,task3,611946,false,false,610,image-keyboard-response,18
true,8,0,2,2,false,d,true,false,0.0-2.0-0.19-0.176-3.176,0,1,1,81,false,stim,false,2,953,0,1,2,19096,task3,614427,false,false,613,image-keyboard-response,19
true,8,2,2,2,true,d,false,true,0.0-2.0-0.19-0.177-3.177,0,1,1,68,false,stim,false,2,1354,0,1,2,19096,task3,617309,false,false,616,image-keyboard-response,20
true,8,2,2,2,true,d,false,true,0.0-2.0-0.19-0.178-3.178,0,1,1,68,false,stim,false,2,617,0,1,2,19096,task3,619461,false,false,619,image-keyboard-response,21
true,8,1,2,1,true,z,false,true,0.0-2.0-0.19-0.179-3.179,0,1,1,90,false,stim,false,2,451,0,0,0,19096,task3,621424,false,false,622,image-keyboard-response,22
true,8,1,2,1,true,z,false,true,0.0-2.0-0.20-0.180-3.180,0,1,1,90,false,stim,false,2,776,0,0,0,19096,task3,623731,false,false,625,image-keyboard-response,23
true,8,2,2,0,false,q,true,false,0.0-2.0-0.20-0.181-3.181,0,1,1,68,false,stim,false,0,1032,0,1,1,19096,task3,626285,false,false,628,image-keyboard-response,24
true,8,1,2,0,false,q,true,true,0.0-2.0-0.20-0.182-3.182,0,1,1,90,false,stim,false,0,479,0,1,1,19096,task3,628292,false,true,631,image-keyboard-response,25
true,8,2,2,2,true,d,false,true,0.0-2.0-0.20-0.183-3.183,0,1,1,68,false,stim,false,2,737,0,1,2,19096,task3,630572,false,false,634,image-keyboard-response,26
true,8,1,2,1,true,z,false,true,0.0-2.0-0.20-0.184-3.184,0,1,1,90,false,stim,false,2,531,0,0,0,19096,task3,632644,false,false,637,image-keyboard-response,27
true,8,2,2,2,true,d,false,false,0.0-2.0-0.20-0.185-3.185,0,1,1,68,false,stim,false,2,712,0,1,2,19096,task3,634886,false,true,640,image-keyboard-response,28
true,9,1,2,0,false,q,false,false,0.0-2.0-0.20-0.186-3.186,0,1,1,90,true,stim,true,1,1422,0,0,0,19096,task3,637844,false,false,643,image-keyboard-response,1
true,9,0,2,0,true,q,false,true,0.0-2.0-0.20-0.187-3.187,0,1,1,81,false,stim,false,0,1010,0,1,1,19096,task3,640395,false,false,646,image-keyboard-response,2
true,9,1,2,2,false,d,true,false,0.0-2.0-0.20-0.188-3.188,0,1,1,90,false,stim,false,2,1182,0,1,2,19096,task3,643105,false,false,649,image-keyboard-response,3
true,9,0,2,0,true,q,false,true,0.0-2.0-0.21-0.189-3.189,0,1,1,81,false,stim,false,0,897,0,1,1,19096,task3,645530,false,false,652,image-keyboard-response,4
true,9,2,2,2,true,d,false,true,0.0-2.0-0.21-0.190-3.190,0,1,1,68,false,stim,false,2,598,0,1,2,19096,task3,647652,false,false,655,image-keyboard-response,5
true,9,0,2,0,true,q,false,true,0.0-2.0-0.21-0.191-3.191,0,1,1,81,false,stim,false,0,1160,0,1,1,19096,task3,650354,false,false,658,image-keyboard-response,6
true,9,0,2,0,true,q,false,true,0.0-2.0-0.21-0.192-3.192,0,1,1,81,false,stim,false,0,840,0,1,1,19096,task3,652733,false,false,661,image-keyboard-response,7
true,9,2,2,2,true,d,false,true,0.0-2.0-0.21-0.193-3.193,0,1,1,68,false,stim,false,2,721,0,1,2,19096,task3,654995,false,false,664,image-keyboard-response,8
true,9,1,2,0,false,q,false,false,0.0-2.0-0.21-0.194-3.194,0,1,1,90,false,stim,true,1,730,0,0,0,19096,task3,657253,false,false,667,image-keyboard-response,9
true,9,0,2,0,true,q,false,true,0.0-2.0-0.21-0.195-3.195,0,1,1,81,false,stim,false,1,444,0,1,0,19096,task3,659229,false,false,670,image-keyboard-response,10
true,9,0,2,0,true,q,false,false,0.0-2.0-0.21-0.196-3.196,0,1,1,81,false,stim,false,1,922,0,1,0,19096,task3,661680,false,true,673,image-keyboard-response,11
true,9,2,2,2,true,d,false,true,0.0-2.0-0.21-0.197-3.197,0,1,1,68,false,stim,false,2,1556,0,0,2,19096,task3,664769,false,false,676,image-keyboard-response,12
true,9,2,2,2,true,d,false,true,0.0-2.0-0.22-0.198-3.198,0,1,1,68,false,stim,false,2,636,0,0,2,19096,task3,666930,false,false,679,image-keyboard-response,13
true,9,2,2,2,true,d,false,true,0.0-2.0-0.22-0.199-3.199,0,1,1,68,false,stim,false,2,658,0,0,2,19096,task3,669131,false,false,682,image-keyboard-response,14
true,10,2,2,1,false,z,false,false,0.0-2.0-0.22-0.200-3.200,1,1,0,68,true,stim,true,2,808,0,0,2,19096,task3,671481,false,false,685,image-keyboard-response,1
true,10,0,2,0,true,q,false,true,0.0-2.0-0.22-0.201-3.201,1,1,0,81,false,stim,false,0,1514,0,1,0,19096,task3,674528,false,false,688,image-keyboard-response,2
true,10,1,2,0,false,q,true,false,0.0-2.0-0.22-0.202-3.202,1,1,0,90,false,stim,false,0,1569,0,1,1,19096,task3,677620,false,false,691,image-keyboard-response,3
true,10,0,2,0,true,q,false,false,0.0-2.0-0.22-0.203-3.203,1,1,0,81,false,stim,false,0,984,0,1,0,19096,task3,680138,false,true,694,image-keyboard-response,4
true,10,0,2,0,true,q,false,false,0.0-2.0-0.22-0.204-3.204,1,1,0,81,false,stim,false,0,688,0,1,0,19096,task3,682360,false,true,697,image-keyboard-response,5
true,10,0,2,0,true,q,false,true,0.0-2.0-0.22-0.205-3.205,1,1,0,81,false,stim,false,0,1025,0,1,1,19096,task3,684919,false,false,700,image-keyboard-response,6
true,10,0,2,0,true,q,false,true,0.0-2.0-0.22-0.206-3.206,1,1,0,81,false,stim,false,0,643,0,1,1,19096,task3,687094,false,false,703,image-keyboard-response,7
true,10,0,2,0,true,q,false,true,0.0-2.0-0.23-0.207-3.207,1,1,0,81,false,stim,false,0,631,0,1,1,19096,task3,689263,false,false,706,image-keyboard-response,8
true,10,2,2,1,false,z,false,false,0.0-2.0-0.23-0.208-3.208,1,1,0,68,false,stim,true,2,1072,0,0,2,19096,task3,691864,false,false,709,image-keyboard-response,9
true,10,1,2,1,true,z,false,true,0.0-2.0-0.23-0.209-3.209,1,1,0,90,false,stim,false,2,506,0,0,2,19096,task3,693899,false,false,712,image-keyboard-response,10
true,10,2,2,0,false,q,true,false,0.0-2.0-0.23-0.210-3.210,1,1,0,68,false,stim,false,0,1209,0,0,0,19096,task3,696621,false,false,715,image-keyboard-response,11
true,10,1,2,1,true,z,false,true,0.0-2.0-0.23-0.211-3.211,1,1,0,90,false,stim,false,2,2446,0,1,2,19096,task3,700598,false,false,718,image-keyboard-response,12
true,10,0,2,0,true,q,false,true,0.0-2.0-0.23-0.212-3.212,1,1,0,81,false,stim,false,0,475,0,0,1,19096,task3,702607,false,false,721,image-keyboard-response,13
true,10,0,2,0,true,q,false,true,0.0-2.0-0.23-0.213-3.213,1,1,0,81,false,stim,false,0,651,0,0,0,19096,task3,704782,false,false,724,image-keyboard-response,14
true,10,0,2,0,true,q,false,true,0.0-2.0-0.23-0.214-3.214,1,1,0,81,false,stim,false,0,1363,0,0,0,19096,task3,707675,false,false,727,image-keyboard-response,15
true,11,0,1,2,false,d,false,false,0.0-2.0-0.23-0.215-3.215,0,0,1,81,true,stim,true,0,459,0,0,1,19096,task3,709661,false,false,730,image-keyboard-response,1
true,11,1,1,1,true,z,false,true,0.0-2.0-0.24-0.216-3.216,0,0,1,90,false,stim,false,1,996,0,1,2,19096,task3,712199,false,false,733,image-keyboard-response,2
true,11,1,1,1,true,z,false,true,0.0-2.0-0.24-0.217-3.217,0,0,1,90,false,stim,false,1,1088,0,1,2,19096,task3,714810,false,false,736,image-keyboard-response,3
true,11,2,1,2,true,d,false,true,0.0-2.0-0.24-0.218-3.218,0,0,1,68,false,stim,false,0,538,0,0,1,19096,task3,716881,false,false,739,image-keyboard-response,4
true,11,2,1,2,true,d,false,true,0.0-2.0-0.24-0.219-3.219,0,0,1,68,false,stim,false,0,1041,0,0,1,19096,task3,719454,false,false,742,image-keyboard-response,5
true,11,0,1,2,false,d,false,true,0.0-2.0-0.24-0.220-3.220,0,0,1,81,false,stim,true,0,948,0,0,0,19096,task3,721941,false,true,745,image-keyboard-response,6
true,11,1,1,2,false,d,true,false,0.0-2.0-0.24-0.221-3.221,0,0,1,90,false,stim,false,0,1765,0,0,1,19096,task3,725237,false,false,748,image-keyboard-response,7
true,11,0,1,2,false,d,false,false,0.0-2.0-0.24-0.222-3.222,0,0,1,81,false,stim,true,0,807,0,0,0,19096,task3,727568,false,false,751,image-keyboard-response,8
true,11,1,1,1,true,z,false,true,0.0-2.0-0.24-0.223-3.223,0,0,1,90,false,stim,false,1,990,0,1,2,19096,task3,730091,false,false,754,image-keyboard-response,9
true,11,0,1,2,false,d,false,false,0.0-2.0-0.24-0.224-3.224,0,0,1,81,false,stim,true,0,1371,0,0,0,19096,task3,733003,false,false,757,image-keyboard-response,10
true,11,2,1,2,true,d,false,true,0.0-2.0-0.25-0.225-3.225,0,0,1,68,false,stim,false,0,1575,0,0,1,19096,task3,736106,false,false,760,image-keyboard-response,11
true,11,1,1,1,true,z,false,true,0.0-2.0-0.25-0.226-3.226,0,0,1,90,false,stim,false,1,1705,0,1,2,19096,task3,739337,false,false,763,image-keyboard-response,12
true,11,2,1,2,true,d,false,true,0.0-2.0-0.25-0.227-3.227,0,0,1,68,false,stim,false,0,1003,0,0,0,19096,task3,741875,false,false,766,image-keyboard-response,13
false,11,-1,1,2,false,d,true,false,0.0-2.0-0.25-0.228-3.228,0,0,1,,false,stim,false,0,,0,0,1,19096,task3,746425,false,false,769,image-keyboard-response,14
true,11,2,1,2,true,d,false,true,0.0-2.0-0.25-0.229-3.229,0,0,1,68,false,stim,false,0,1003,0,0,0,19096,task3,748956,false,false,772,image-keyboard-response,15
true,11,1,1,1,true,z,false,true,0.0-2.0-0.25-0.230-3.230,0,0,1,90,false,stim,false,1,750,0,1,2,19096,task3,751242,false,false,775,image-keyboard-response,16
true,11,1,1,1,true,z,false,true,0.0-2.0-0.25-0.231-3.231,0,0,1,90,false,stim,false,1,1015,0,1,2,19096,task3,753785,false,false,778,image-keyboard-response,17
true,11,2,1,2,true,d,false,true,0.0-2.0-0.25-0.232-3.232,0,0,1,68,false,stim,false,0,1740,0,0,1,19096,task3,757051,false,false,781,image-keyboard-response,18
true,11,2,1,2,true,d,false,true,0.0-2.0-0.25-0.233-3.233,0,0,1,68,false,stim,false,0,546,0,0,0,19096,task3,759138,false,false,784,image-keyboard-response,19
true,11,1,1,1,true,z,false,true,0.0-2.0-0.26-0.234-3.234,0,0,1,90,false,stim,false,1,435,0,1,2,19096,task3,761106,false,false,787,image-keyboard-response,20
true,11,2,1,2,true,d,false,true,0.0-2.0-0.26-0.235-3.235,0,0,1,68,false,stim,false,0,724,0,0,1,19096,task3,763355,false,false,790,image-keyboard-response,21
true,11,2,1,2,true,d,false,true,0.0-2.0-0.26-0.236-3.236,0,0,1,68,false,stim,false,0,708,0,0,1,19096,task3,765589,false,false,793,image-keyboard-response,22
true,11,2,1,2,true,d,false,true,0.0-2.0-0.26-0.237-3.237,0,0,1,68,false,stim,false,0,593,0,0,0,19096,task3,767714,false,false,796,image-keyboard-response,23
true,11,1,1,1,true,z,false,true,0.0-2.0-0.26-0.238-3.238,0,0,1,90,false,stim,false,1,1371,0,1,2,19096,task3,770610,false,false,799,image-keyboard-response,24
true,11,2,1,2,true,d,false,true,0.0-2.0-0.26-0.239-3.239,0,0,1,68,false,stim,false,0,889,0,0,1,19096,task3,773030,false,false,802,image-keyboard-response,25
true,11,1,1,1,true,z,false,true,0.0-2.0-0.26-0.240-3.240,0,0,1,90,false,stim,false,1,1745,0,1,2,19096,task3,776301,false,false,805,image-keyboard-response,26
true,11,2,1,2,true,d,false,true,0.0-2.0-0.26-0.241-3.241,0,0,1,68,false,stim,false,0,2887,0,1,0,19096,task3,780727,false,false,808,image-keyboard-response,27
true,11,2,1,2,true,d,false,true,0.0-2.0-0.26-0.242-3.242,0,0,1,68,false,stim,false,0,566,0,1,0,19096,task3,782817,false,false,811,image-keyboard-response,28
true,11,1,1,2,false,d,true,false,0.0-2.0-0.27-0.243-3.243,0,0,1,90,false,stim,false,0,765,0,0,1,19096,task3,785115,false,false,814,image-keyboard-response,29
true,12,2,2,1,false,z,false,true,0.0-2.0-0.27-0.244-3.244,1,0,1,68,true,stim,true,2,437,0,0,1,19096,task3,787088,false,true,817,image-keyboard-response,1
true,12,2,2,1,false,z,false,false,0.0-2.0-0.27-0.245-3.245,1,0,1,68,false,stim,true,2,559,0,0,1,19096,task3,789190,false,false,820,image-keyboard-response,2
true,12,1,2,2,false,d,true,false,0.0-2.0-0.27-0.246-3.246,1,0,1,90,false,stim,false,2,725,0,1,0,19096,task3,791456,false,false,823,image-keyboard-response,3
true,12,2,2,2,true,d,false,true,0.0-2.0-0.27-0.247-3.247,1,0,1,68,false,stim,false,2,246,0,1,0,19096,task3,793235,false,false,826,image-keyboard-response,4
true,12,2,2,2,true,d,false,false,0.0-2.0-0.27-0.248-3.248,1,0,1,68,false,stim,false,2,756,0,1,0,19096,task3,795525,false,true,829,image-keyboard-response,5
true,12,2,2,1,false,z,true,false,0.0-2.0-0.27-0.249-3.249,1,0,1,68,false,stim,false,1,1263,0,1,2,19096,task3,798314,false,false,832,image-keyboard-response,6
true,12,1,2,1,true,z,false,true,0.0-2.0-0.27-0.250-3.250,1,0,1,90,false,stim,false,1,389,0,1,2,19096,task3,800239,false,false,835,image-keyboard-response,7
true,12,1,2,1,true,z,false,true,0.0-2.0-0.27-0.251-3.251,1,0,1,90,false,stim,false,1,558,0,1,2,19096,task3,802328,false,false,838,image-keyboard-response,8
true,12,1,2,1,true,z,false,true,0.0-2.0-0.28-0.252-3.252,1,0,1,90,false,stim,false,1,399,0,1,2,19096,task3,804259,false,false,841,image-keyboard-response,9
true,12,2,2,1,false,z,false,false,0.0-2.0-0.28-0.253-3.253,1,0,1,68,false,stim,true,2,1605,0,1,1,19096,task3,807406,false,false,844,image-keyboard-response,10
true,12,0,2,2,false,d,true,false,0.0-2.0-0.28-0.254-3.254,1,0,1,81,false,stim,false,2,1272,0,0,0,19096,task3,810203,false,false,847,image-keyboard-response,11
true,12,1,2,1,true,z,false,false,0.0-2.0-0.28-0.255-3.255,1,0,1,90,false,stim,false,2,747,0,1,1,19096,task3,812477,false,true,850,image-keyboard-response,12
true,12,2,2,1,false,z,false,false,0.0-2.0-0.28-0.256-3.256,1,0,1,68,false,stim,true,2,504,0,1,1,19096,task3,814515,false,false,853,image-keyboard-response,13
true,12,1,2,2,false,d,true,false,0.0-2.0-0.28-0.257-3.257,1,0,1,90,false,stim,false,2,1746,0,0,0,19096,task3,817797,false,false,856,image-keyboard-response,14
true,13,1,2,1,true,z,false,false,0.0-2.0-0.28-0.258-3.258,0,1,1,90,true,stim,false,1,573,0,1,2,19096,task3,819902,false,true,859,image-keyboard-response,1
true,13,0,2,1,false,z,true,false,0.0-2.0-0.28-0.259-3.259,0,1,1,81,false,stim,false,1,1167,0,1,2,19096,task3,822597,false,false,862,image-keyboard-response,2
true,13,2,2,0,false,q,false,false,0.0-2.0-0.28-0.260-3.260,0,1,1,68,false,stim,true,2,1797,0,0,0,19096,task3,825937,false,false,865,image-keyboard-response,3
true,13,1,2,1,true,z,false,true,0.0-2.0-0.29-0.261-3.261,0,1,1,90,false,stim,false,1,1448,0,1,2,19096,task3,828927,false,false,868,image-keyboard-response,4
true,13,0,2,0,true,q,false,true,0.0-2.0-0.29-0.262-3.262,0,1,1,81,false,stim,false,2,1090,0,0,0,19096,task3,831548,false,false,871,image-keyboard-response,5
true,13,2,2,1,false,z,true,false,0.0-2.0-0.29-0.263-3.263,0,1,1,68,false,stim,false,1,994,0,1,1,19096,task3,834073,false,false,874,image-keyboard-response,6
true,13,1,2,1,true,z,false,true,0.0-2.0-0.29-0.264-3.264,0,1,1,90,false,stim,false,1,1797,0,1,2,19096,task3,837397,false,false,877,image-keyboard-response,7
true,13,0,2,0,true,q,false,true,0.0-2.0-0.29-0.265-3.265,0,1,1,81,false,stim,false,2,554,0,0,0,19096,task3,839493,false,false,880,image-keyboard-response,8
true,13,1,2,1,true,z,false,true,0.0-2.0-0.29-0.266-3.266,0,1,1,90,false,stim,false,1,1741,0,1,1,19096,task3,842761,false,false,883,image-keyboard-response,9
true,13,0,2,0,true,q,false,true,0.0-2.0-0.29-0.267-3.267,0,1,1,81,false,stim,false,2,1222,0,0,0,19096,task3,845521,false,false,886,image-keyboard-response,10
true,13,1,2,1,true,z,false,false,0.0-2.0-0.29-0.268-3.268,0,1,1,90,false,stim,false,1,2088,0,1,1,19096,task3,849147,false,true,889,image-keyboard-response,11
true,13,0,2,1,false,z,true,false,0.0-2.0-0.29-0.269-3.269,0,1,1,81,false,stim,false,1,1261,0,1,2,19096,task3,851940,false,false,892,image-keyboard-response,12
true,13,0,2,0,true,q,false,true,0.0-2.0-0.30-0.270-3.270,0,1,1,81,false,stim,false,2,982,0,0,0,19096,task3,854450,false,false,895,image-keyboard-response,13
true,13,1,2,1,true,z,false,true,0.0-2.0-0.30-0.271-3.271,0,1,1,90,false,stim,false,1,474,0,1,2,19096,task3,856463,false,false,898,image-keyboard-response,14
true,13,2,2,1,false,z,true,false,0.0-2.0-0.30-0.272-3.272,0,1,1,68,false,stim,false,1,553,0,1,1,19096,task3,858555,false,false,901,image-keyboard-response,15
true,13,1,2,1,true,z,false,true,0.0-2.0-0.30-0.273-3.273,0,1,1,90,false,stim,false,1,745,0,1,1,19096,task3,860834,false,false,904,image-keyboard-response,16
true,13,1,2,1,true,z,false,true,0.0-2.0-0.30-0.274-3.274,0,1,1,90,false,stim,false,1,2137,0,1,2,19096,task3,864506,false,false,907,image-keyboard-response,17
true,13,1,2,1,true,z,false,true,0.0-2.0-0.30-0.275-3.275,0,1,1,90,false,stim,false,1,1316,0,1,1,19096,task3,867359,false,false,910,image-keyboard-response,18
true,13,0,2,0,true,q,false,true,0.0-2.0-0.30-0.276-3.276,0,1,1,81,false,stim,false,2,838,0,0,0,19096,task3,869738,false,false,913,image-keyboard-response,19
true,13,1,2,1,true,z,false,true,0.0-2.0-0.30-0.277-3.277,0,1,1,90,false,stim,false,1,1221,0,1,2,19096,task3,872499,false,false,916,image-keyboard-response,20
true,13,0,2,0,true,q,false,true,0.0-2.0-0.30-0.278-3.278,0,1,1,81,false,stim,false,2,1029,0,0,0,19096,task3,875054,false,false,919,image-keyboard-response,21
true,13,1,2,1,true,z,false,true,0.0-2.0-0.31-0.279-3.279,0,1,1,90,false,stim,false,1,1380,0,1,1,19096,task3,877969,false,false,922,image-keyboard-response,22
false,13,-1,2,1,false,z,true,true,0.0-2.0-0.31-0.280-3.280,0,1,1,,false,stim,false,1,,0,0,2,19096,task3,882526,false,true,925,image-keyboard-response,23
true,13,1,2,1,true,z,false,true,0.0-2.0-0.31-0.281-3.281,0,1,1,90,false,stim,false,1,786,0,1,1,19096,task3,884854,false,false,928,image-keyboard-response,24
true,13,0,2,0,true,q,false,true,0.0-2.0-0.31-0.282-3.282,0,1,1,81,false,stim,false,2,764,0,0,0,19096,task3,887142,false,false,931,image-keyboard-response,25
true,13,0,2,0,true,q,false,true,0.0-2.0-0.31-0.283-3.283,0,1,1,81,false,stim,false,2,934,0,0,0,19096,task3,889613,false,false,934,image-keyboard-response,26
true,14,0,1,1,false,z,false,false,0.0-2.0-0.31-0.284-3.284,0,1,0,81,true,stim,true,0,2329,0,0,0,19096,task3,893467,false,false,937,image-keyboard-response,1
true,14,1,1,2,false,d,false,false,0.0-2.0-0.31-0.285-3.285,0,1,0,90,false,stim,true,1,622,0,0,2,19096,task3,895630,false,false,940,image-keyboard-response,2
true,14,2,1,2,true,d,false,true,0.0-2.0-0.31-0.286-3.286,0,1,0,68,false,stim,false,1,1506,0,0,2,19096,task3,898674,false,false,943,image-keyboard-response,3
true,14,1,1,1,true,z,false,true,0.0-2.0-0.31-0.287-3.287,0,1,0,90,false,stim,false,1,956,0,1,1,19096,task3,901164,false,false,946,image-keyboard-response,4
true,14,1,1,1,true,z,false,true,0.0-2.0-0.32-0.288-3.288,0,1,0,90,false,stim,false,1,720,0,1,1,19096,task3,903408,false,false,949,image-keyboard-response,5
true,14,1,1,1,true,z,false,true,0.0-2.0-0.32-0.289-3.289,0,1,0,90,false,stim,false,1,643,0,1,1,19096,task3,905581,false,false,952,image-keyboard-response,6
false,14,-1,1,1,false,z,true,true,0.0-2.0-0.32-0.290-3.290,0,1,0,,false,stim,false,0,,0,0,0,19096,task3,910136,false,true,955,image-keyboard-response,7
true,14,1,1,1,true,z,false,true,0.0-2.0-0.32-0.291-3.291,0,1,0,90,false,stim,false,1,2159,0,1,1,19096,task3,913837,false,false,958,image-keyboard-response,8
true,14,2,1,2,true,d,false,true,0.0-2.0-0.32-0.292-3.292,0,1,0,68,false,stim,false,1,602,0,0,2,19096,task3,915971,false,false,961,image-keyboard-response,9
true,14,0,1,1,false,z,false,false,0.0-2.0-0.32-0.293-3.293,0,1,0,81,false,stim,true,0,1006,0,0,0,19096,task3,918514,false,false,964,image-keyboard-response,10
true,14,1,1,2,false,d,false,false,0.0-2.0-0.32-0.294-3.294,0,1,0,90,false,stim,true,1,2252,0,0,2,19096,task3,922299,false,false,967,image-keyboard-response,11
true,14,2,1,2,true,d,false,true,0.0-2.0-0.32-0.295-3.295,0,1,0,68,false,stim,false,1,796,0,0,2,19096,task3,924634,false,false,970,image-keyboard-response,12
true,14,0,1,1,false,z,false,false,0.0-2.0-0.32-0.296-3.296,0,1,0,81,false,stim,true,0,1182,0,0,0,19096,task3,927339,false,false,973,image-keyboard-response,13
true,14,1,1,1,true,z,false,true,0.0-2.0-0.33-0.297-3.297,0,1,0,90,false,stim,false,0,1165,0,0,0,19096,task3,930043,false,false,976,image-keyboard-response,14
true,14,2,1,2,true,d,false,true,0.0-2.0-0.33-0.298-3.298,0,1,0,68,false,stim,false,1,1352,0,0,2,19096,task3,932929,false,false,979,image-keyboard-response,15
true,14,1,1,1,true,z,false,false,0.0-2.0-0.33-0.299-3.299,0,1,0,90,false,stim,false,1,672,0,1,1,19096,task3,935130,false,true,982,image-keyboard-response,16
true,14,1,1,2,false,d,false,false,0.0-2.0-0.33-0.300-3.300,0,1,0,90,false,stim,true,1,810,0,0,2,19096,task3,937467,false,false,985,image-keyboard-response,17
true,14,2,1,1,false,z,true,false,0.0-2.0-0.33-0.301-3.301,0,1,0,68,false,stim,false,1,583,0,1,1,19096,task3,939582,false,false,988,image-keyboard-response,18
true,14,1,1,1,true,z,false,true,0.0-2.0-0.33-0.302-3.302,0,1,0,90,false,stim,false,0,1552,0,0,0,19096,task3,942670,false,false,991,image-keyboard-response,19
true,14,2,1,2,true,d,false,true,0.0-2.0-0.33-0.303-3.303,0,1,0,68,false,stim,false,1,740,0,1,2,19096,task3,944938,false,false,994,image-keyboard-response,20
true,14,1,1,1,true,z,false,true,0.0-2.0-0.33-0.304-3.304,0,1,0,90,false,stim,false,0,1140,0,0,0,19096,task3,947618,false,false,997,image-keyboard-response,21
true,14,2,1,1,false,z,true,false,0.0-2.0-0.33-0.305-3.305,0,1,0,68,false,stim,false,1,673,0,1,1,19096,task3,949820,false,false,1000,image-keyboard-response,22
true,14,2,1,2,true,d,false,true,0.0-2.0-0.34-0.306-3.306,0,1,0,68,false,stim,false,1,1093,0,1,2,19096,task3,952460,false,false,1003,image-keyboard-response,23
true,15,0,2,1,false,z,true,false,0.0-2.0-0.34-0.307-3.307,0,1,1,81,true,stim,false,1,2790,0,1,1,19096,task3,956777,false,false,1006,image-keyboard-response,1
true,15,2,2,2,true,d,false,true,0.0-2.0-0.34-0.308-3.308,0,1,1,68,false,stim,false,2,1126,0,1,2,19096,task3,959446,false,false,1009,image-keyboard-response,2
true,15,1,2,2,false,d,false,false,0.0-2.0-0.34-0.309-3.309,0,1,1,90,false,stim,true,1,558,0,0,0,19096,task3,961535,false,false,1012,image-keyboard-response,3
true,15,1,2,2,false,d,false,false,0.0-2.0-0.34-0.310-3.310,0,1,1,90,false,stim,true,1,647,0,0,0,19096,task3,963725,false,false,1015,image-keyboard-response,4
true,15,1,2,2,false,d,true,false,0.0-2.0-0.34-0.311-3.311,0,1,1,90,false,stim,false,2,1289,0,1,2,19096,task3,966537,false,false,1018,image-keyboard-response,5
true,15,1,2,1,true,z,false,false,0.0-2.0-0.34-0.312-3.312,0,1,1,90,false,stim,false,1,1120,0,1,1,19096,task3,969187,false,true,1021,image-keyboard-response,6
true,15,2,2,1,false,z,true,false,0.0-2.0-0.34-0.313-3.313,0,1,1,68,false,stim,false,1,472,0,0,1,19096,task3,971198,false,false,1024,image-keyboard-response,7
true,15,1,2,2,false,d,false,false,0.0-2.0-0.34-0.314-3.314,0,1,1,90,false,stim,true,1,770,0,1,0,19096,task3,973497,false,false,1027,image-keyboard-response,8
true,15,2,2,2,true,d,false,true,0.0-2.0-0.35-0.315-3.315,0,1,1,68,false,stim,false,2,1019,0,0,2,19096,task3,976057,false,false,1030,image-keyboard-response,9
true,15,2,2,2,true,d,false,true,0.0-2.0-0.35-0.316-3.316,0,1,1,68,false,stim,false,2,535,0,0,2,19096,task3,978132,false,false,1033,image-keyboard-response,10
true,15,0,2,2,false,d,true,false,0.0-2.0-0.35-0.317-3.317,0,1,1,81,false,stim,false,1,1151,0,1,0,19096,task3,980809,false,false,1036,image-keyboard-response,11
true,16,1,1,2,false,d,true,false,0.0-2.0-0.35-0.318-3.318,1,0,0,90,true,stim,false,2,640,0,1,0,19096,task3,982977,false,false,1039,image-keyboard-response,1
true,16,1,1,2,false,d,false,false,0.0-2.0-0.35-0.319-3.319,1,0,0,90,false,stim,true,1,2026,0,0,1,19096,task3,986533,false,false,1042,image-keyboard-response,2
true,16,2,1,2,true,d,false,true,0.0-2.0-0.35-0.320-3.320,1,0,0,68,false,stim,false,2,994,0,1,0,19096,task3,989061,false,false,1045,image-keyboard-response,3
true,16,2,1,0,false,q,false,false,0.0-2.0-0.35-0.321-3.321,1,0,0,68,false,stim,true,2,420,0,0,2,19096,task3,991016,false,false,1048,image-keyboard-response,4
true,16,1,1,2,false,d,false,false,0.0-2.0-0.35-0.322-3.322,1,0,0,90,false,stim,true,1,588,0,0,1,19096,task3,993144,false,false,1051,image-keyboard-response,5
true,16,0,1,2,false,d,true,false,0.0-2.0-0.35-0.323-3.323,1,0,0,81,false,stim,false,1,1786,0,0,1,19096,task3,996462,false,false,1054,image-keyboard-response,6
true,16,2,1,0,false,q,false,false,0.0-2.0-0.36-0.324-3.324,1,0,0,68,false,stim,true,2,1031,0,0,2,19096,task3,999027,false,false,1057,image-keyboard-response,7
true,16,1,1,2,false,d,false,false,0.0-2.0-0.36-0.325-3.325,1,0,0,90,false,stim,true,1,1240,0,0,1,19096,task3,1001796,false,false,1060,image-keyboard-response,8
true,16,0,1,2,false,d,true,false,0.0-2.0-0.36-0.326-3.326,1,0,0,81,false,stim,false,1,1550,0,0,1,19096,task3,1004887,false,false,1063,image-keyboard-response,9
true,16,2,1,2,true,d,false,true,0.0-2.0-0.36-0.327-3.327,1,0,0,68,false,stim,false,2,2374,0,1,0,19096,task3,1008790,false,false,1066,image-keyboard-response,10
true,16,2,1,2,true,d,false,true,0.0-2.0-0.36-0.328-3.328,1,0,0,68,false,stim,false,2,789,0,1,0,19096,task3,1011105,false,false,1069,image-keyboard-response,11
true,16,2,1,0,false,q,false,false,0.0-2.0-0.36-0.329-3.329,1,0,0,68,false,stim,true,2,464,0,0,2,19096,task3,1013102,false,false,1072,image-keyboard-response,12
true,16,2,1,2,true,d,false,true,0.0-2.0-0.36-0.330-3.330,1,0,0,68,false,stim,false,2,982,0,1,0,19096,task3,1015619,false,false,1075,image-keyboard-response,13
true,16,1,1,0,false,q,true,false,0.0-2.0-0.36-0.331-3.331,1,0,0,90,false,stim,false,2,1425,0,0,2,19096,task3,1018580,false,false,1078,image-keyboard-response,14
true,16,2,1,2,true,d,false,true,0.0-2.0-0.36-0.332-3.332,1,0,0,68,false,stim,false,1,600,0,0,1,19096,task3,1020697,false,false,1081,image-keyboard-response,15
true,16,2,1,2,true,d,false,true,0.0-2.0-0.37-0.333-3.333,1,0,0,68,false,stim,false,1,602,0,0,1,19096,task3,1022839,false,false,1084,image-keyboard-response,16
true,16,2,1,2,true,d,false,true,0.0-2.0-0.37-0.334-3.334,1,0,0,68,false,stim,false,2,467,0,1,0,19096,task3,1024843,false,false,1087,image-keyboard-response,17
true,16,0,1,0,true,q,false,true,0.0-2.0-0.37-0.335-3.335,1,0,0,81,false,stim,false,2,970,0,0,2,19096,task3,1027355,false,false,1090,image-keyboard-response,18
true,16,2,1,2,true,d,false,true,0.0-2.0-0.37-0.336-3.336,1,0,0,68,false,stim,false,1,2384,0,0,1,19096,task3,1031271,false,false,1093,image-keyboard-response,19
true,16,2,1,2,true,d,false,true,0.0-2.0-0.37-0.337-3.337,1,0,0,68,false,stim,false,1,703,0,0,1,19096,task3,1033509,false,false,1096,image-keyboard-response,20
true,16,0,1,0,true,q,false,true,0.0-2.0-0.37-0.338-3.338,1,0,0,81,false,stim,false,2,777,0,1,2,19096,task3,1035821,false,false,1099,image-keyboard-response,21
true,16,0,1,0,true,q,false,true,0.0-2.0-0.37-0.339-3.339,1,0,0,81,false,stim,false,2,1992,0,1,2,19096,task3,1039357,false,false,1102,image-keyboard-response,22
true,16,2,1,2,true,d,false,true,0.0-2.0-0.37-0.340-3.340,1,0,0,68,false,stim,false,2,840,0,0,0,19096,task3,1041737,false,false,1105,image-keyboard-response,23
true,17,2,1,1,false,z,false,true,0.0-2.0-0.37-0.341-3.341,0,0,1,68,true,stim,true,2,841,0,0,0,19096,task3,1044117,false,true,1108,image-keyboard-response,1
true,17,0,1,0,true,q,false,true,0.0-2.0-0.38-0.342-3.342,0,0,1,81,false,stim,false,0,882,0,1,2,19096,task3,1046537,false,false,1111,image-keyboard-response,2
true,17,2,1,1,false,z,false,false,0.0-2.0-0.38-0.343-3.343,0,0,1,68,false,stim,true,2,1239,0,0,1,19096,task3,1049315,false,false,1114,image-keyboard-response,3
true,17,2,1,1,false,z,false,false,0.0-2.0-0.38-0.344-3.344,0,0,1,68,false,stim,true,2,1641,0,0,0,19096,task3,1052487,false,false,1117,image-keyboard-response,4
true,17,2,1,1,false,z,false,false,0.0-2.0-0.38-0.345-3.345,0,0,1,68,false,stim,true,2,2414,0,0,0,19096,task3,1056440,false,false,1120,image-keyboard-response,5
true,17,2,1,1,false,z,false,false,0.0-2.0-0.38-0.346-3.346,0,0,1,68,false,stim,true,2,989,0,0,1,19096,task3,1058954,false,false,1123,image-keyboard-response,6
true,17,0,1,0,true,q,false,true,0.0-2.0-0.38-0.347-3.347,0,0,1,81,false,stim,false,0,1302,0,1,2,19096,task3,1061788,false,false,1126,image-keyboard-response,7
true,17,0,1,1,false,z,true,false,0.0-2.0-0.38-0.348-3.348,0,0,1,81,false,stim,false,2,1238,0,0,0,19096,task3,1064554,false,false,1129,image-keyboard-response,8
true,17,2,1,1,false,z,false,false,0.0-2.0-0.38-0.349-3.349,0,0,1,68,false,stim,true,2,1177,0,0,1,19096,task3,1067272,false,false,1132,image-keyboard-response,9
true,17,0,1,0,true,q,false,false,0.0-2.0-0.38-0.350-3.350,0,0,1,81,false,stim,false,0,1373,0,1,2,19096,task3,1070169,false,true,1135,image-keyboard-response,10
true,17,1,1,1,true,z,false,true,0.0-2.0-0.39-0.351-3.351,0,0,1,90,false,stim,false,2,881,0,0,1,19096,task3,1072576,false,false,1138,image-keyboard-response,11
true,17,1,1,1,true,z,false,true,0.0-2.0-0.39-0.352-3.352,0,0,1,90,false,stim,false,2,876,0,0,1,19096,task3,1074991,false,false,1141,image-keyboard-response,12
true,17,1,1,1,true,z,false,true,0.0-2.0-0.39-0.353-3.353,0,0,1,90,false,stim,false,2,805,0,0,0,19096,task3,1077321,false,false,1144,image-keyboard-response,13
true,17,1,1,1,true,z,false,true,0.0-2.0-0.39-0.354-3.354,0,0,1,90,false,stim,false,2,693,0,0,0,19096,task3,1079548,false,false,1147,image-keyboard-response,14
true,17,0,1,0,true,q,false,true,0.0-2.0-0.39-0.355-3.355,0,0,1,81,false,stim,false,0,1664,0,1,2,19096,task3,1082740,false,false,1150,image-keyboard-response,15
true,17,0,1,0,true,q,false,true,0.0-2.0-0.39-0.356-3.356,0,0,1,81,false,stim,false,0,756,0,1,2,19096,task3,1085031,false,false,1153,image-keyboard-response,16
true,17,0,1,0,true,q,false,true,0.0-2.0-0.39-0.357-3.357,0,0,1,81,false,stim,false,0,743,0,1,2,19096,task3,1087297,false,false,1156,image-keyboard-response,17
true,17,1,1,1,true,z,false,true,0.0-2.0-0.39-0.358-3.358,0,0,1,90,false,stim,false,2,490,0,0,1,19096,task3,1089325,false,false,1159,image-keyboard-response,18
true,17,1,1,1,true,z,false,true,0.0-2.0-0.39-0.359-3.359,0,0,1,90,false,stim,false,2,371,0,0,0,19096,task3,1091226,false,false,1162,image-keyboard-response,19
true,17,0,1,0,true,q,false,true,0.0-2.0-0.40-0.360-3.360,0,0,1,81,false,stim,false,0,756,0,1,2,19096,task3,1093521,false,false,1165,image-keyboard-response,20
true,17,1,1,1,true,z,false,true,0.0-2.0-0.40-0.361-3.361,0,0,1,90,false,stim,false,2,979,0,0,0,19096,task3,1096014,false,false,1168,image-keyboard-response,21
true,17,1,1,1,true,z,false,true,0.0-2.0-0.40-0.362-3.362,0,0,1,90,false,stim,false,2,756,0,0,0,19096,task3,1098310,false,false,1171,image-keyboard-response,22
true,17,0,1,0,true,q,false,true,0.0-2.0-0.40-0.363-3.363,0,0,1,81,false,stim,false,0,1393,0,1,2,19096,task3,1101227,false,false,1174,image-keyboard-response,23
true,17,1,1,1,true,z,false,true,0.0-2.0-0.40-0.364-3.364,0,0,1,90,false,stim,false,2,656,0,0,1,19096,task3,1103421,false,false,1177,image-keyboard-response,24
true,17,1,1,1,true,z,false,true,0.0-2.0-0.40-0.365-3.365,0,0,1,90,false,stim,false,2,444,0,0,1,19096,task3,1105388,false,false,1180,image-keyboard-response,25
true,17,0,1,0,true,q,false,true,0.0-2.0-0.40-0.366-3.366,0,0,1,81,false,stim,false,0,856,0,0,2,19096,task3,1107781,false,false,1183,image-keyboard-response,26
true,17,1,1,1,true,z,false,true,0.0-2.0-0.40-0.367-3.367,0,0,1,90,false,stim,false,2,902,0,0,1,19096,task3,1110226,false,false,1186,image-keyboard-response,27
true,17,1,1,1,true,z,false,true,0.0-2.0-0.40-0.368-3.368,0,0,1,90,false,stim,false,2,1591,0,1,0,19096,task3,1113355,false,false,1189,image-keyboard-response,28
true,17,0,1,0,true,q,false,false,0.0-2.0-0.41-0.369-3.369,0,0,1,81,false,stim,false,0,709,0,0,2,19096,task3,1115593,false,true,1192,image-keyboard-response,29
true,18,1,1,2,false,d,false,false,0.0-2.0-0.41-0.370-3.370,1,0,0,90,true,stim,true,1,455,0,0,1,19096,task3,1117574,false,false,1195,image-keyboard-response,1
true,18,1,1,1,true,z,false,true,0.0-2.0-0.41-0.371-3.371,1,0,0,90,false,stim,false,0,1650,0,0,2,19096,task3,1120749,false,false,1198,image-keyboard-response,2
true,18,1,1,1,true,z,false,true,0.0-2.0-0.41-0.372-3.372,1,0,0,90,false,stim,false,1,1264,0,1,0,19096,task3,1123540,false,false,1201,image-keyboard-response,3
true,18,2,1,2,true,d,false,true,0.0-2.0-0.41-0.373-3.373,1,0,0,68,false,stim,false,1,767,0,0,1,19096,task3,1125831,false,false,1204,image-keyboard-response,4
true,18,2,1,2,true,d,false,true,0.0-2.0-0.41-0.374-3.374,1,0,0,68,false,stim,false,1,620,0,0,1,19096,task3,1127984,false,false,1207,image-keyboard-response,5
true,18,1,1,1,true,z,false,true,0.0-2.0-0.41-0.375-3.375,1,0,0,90,false,stim,false,0,1595,0,0,2,19096,task3,1131117,false,false,1210,image-keyboard-response,6
true,18,1,1,1,true,z,false,true,0.0-2.0-0.41-0.376-3.376,1,0,0,90,false,stim,false,1,409,0,0,0,19096,task3,1133053,false,false,1213,image-keyboard-response,7
true,18,1,1,1,true,z,false,true,0.0-2.0-0.41-0.377-3.377,1,0,0,90,false,stim,false,1,887,0,0,0,19096,task3,1135461,false,false,1216,image-keyboard-response,8
true,18,2,1,2,true,d,false,false,0.0-2.0-0.42-0.378-3.378,1,0,0,68,false,stim,false,1,426,0,1,1,19096,task3,1137420,false,true,1219,image-keyboard-response,9
true,18,1,1,1,true,z,false,true,0.0-2.0-0.42-0.379-3.379,1,0,0,90,false,stim,false,0,1170,0,1,2,19096,task3,1140126,false,false,1222,image-keyboard-response,10
true,18,1,1,2,false,d,false,false,0.0-2.0-0.42-0.380-3.380,1,0,0,90,false,stim,true,1,717,0,1,1,19096,task3,1142371,false,false,1225,image-keyboard-response,11
true,19,1,2,1,true,z,false,true,0.0-2.0-0.42-0.381-3.381,0,1,1,90,true,stim,false,1,465,0,1,2,19096,task3,1144379,false,false,1228,image-keyboard-response,1
true,19,1,2,0,false,q,false,false,0.0-2.0-0.42-0.382-3.382,0,1,1,90,false,stim,true,1,381,0,0,0,19096,task3,1146296,false,false,1231,image-keyboard-response,2
true,19,0,2,0,true,q,false,true,0.0-2.0-0.42-0.383-3.383,0,1,1,81,false,stim,false,1,1767,0,0,0,19096,task3,1149601,false,false,1234,image-keyboard-response,3
true,19,1,2,1,true,z,false,true,0.0-2.0-0.42-0.384-3.384,0,1,1,90,false,stim,false,1,1012,0,1,2,19096,task3,1152143,false,false,1237,image-keyboard-response,4
true,19,0,2,0,true,q,false,true,0.0-2.0-0.42-0.385-3.385,0,1,1,81,false,stim,false,1,1819,0,0,0,19096,task3,1155494,false,false,1240,image-keyboard-response,5
true,19,0,2,2,false,d,true,true,0.0-2.0-0.42-0.386-3.386,0,1,1,81,false,stim,false,2,1101,0,1,1,19096,task3,1158135,false,true,1243,image-keyboard-response,6
true,19,0,2,0,true,q,false,true,0.0-2.0-0.43-0.387-3.387,0,1,1,81,false,stim,false,1,1391,0,0,0,19096,task3,1161067,false,false,1246,image-keyboard-response,7
true,19,0,2,2,false,d,true,false,0.0-2.0-0.43-0.388-3.388,0,1,1,81,false,stim,false,2,967,0,1,1,19096,task3,1163561,false,false,1249,image-keyboard-response,8
true,19,1,2,2,false,d,true,true,0.0-2.0-0.43-0.389-3.389,0,1,1,90,false,stim,false,2,486,0,1,1,19096,task3,1165579,false,true,1252,image-keyboard-response,9
true,19,0,2,0,true,q,false,true,0.0-2.0-0.43-0.390-3.390,0,1,1,81,false,stim,false,1,1060,0,0,0,19096,task3,1168173,false,false,1255,image-keyboard-response,10
true,19,0,2,1,false,z,true,false,0.0-2.0-0.43-0.391-3.391,0,1,1,81,false,stim,false,1,909,0,1,2,19096,task3,1170623,false,false,1258,image-keyboard-response,11
true,19,0,2,0,true,q,false,true,0.0-2.0-0.43-0.392-3.392,0,1,1,81,false,stim,false,1,802,0,0,0,19096,task3,1172952,false,false,1261,image-keyboard-response,12
true,19,2,2,1,false,z,true,false,0.0-2.0-0.43-0.393-3.393,0,1,1,68,false,stim,false,1,2867,0,1,2,19096,task3,1177361,false,false,1264,image-keyboard-response,13
true,19,2,2,2,true,d,false,false,0.0-2.0-0.43-0.394-3.394,0,1,1,68,false,stim,false,2,1887,0,1,1,19096,task3,1180780,false,true,1267,image-keyboard-response,14
true,19,1,2,1,true,z,false,false,0.0-2.0-0.43-0.395-3.395,0,1,1,90,false,stim,false,1,1916,0,1,2,19096,task3,1184229,false,true,1270,image-keyboard-response,15
true,19,0,2,1,false,z,true,true,0.0-2.0-0.44-0.396-3.396,0,1,1,81,false,stim,false,1,505,0,1,2,19096,task3,1186259,false,true,1273,image-keyboard-response,16
true,19,0,2,0,true,q,false,true,0.0-2.0-0.44-0.397-3.397,0,1,1,81,false,stim,false,1,541,0,0,0,19096,task3,1188323,false,false,1276,image-keyboard-response,17
true,19,0,2,2,false,d,true,false,0.0-2.0-0.44-0.398-3.398,0,1,1,81,false,stim,false,2,1738,0,1,1,19096,task3,1191600,false,false,1279,image-keyboard-response,18
true,19,0,2,1,false,z,true,false,0.0-2.0-0.44-0.399-3.399,0,1,1,81,false,stim,false,1,767,0,1,2,19096,task3,1193910,false,false,1282,image-keyboard-response,19
true,19,2,2,2,true,d,false,true,0.0-2.0-0.44-0.400-3.400,0,1,1,68,false,stim,false,2,2116,0,1,1,19096,task3,1197559,false,false,1285,image-keyboard-response,20
true,19,0,2,0,true,q,false,true,0.0-2.0-0.44-0.401-3.401,0,1,1,81,false,stim,false,1,840,0,0,0,19096,task3,1199933,false,false,1288,image-keyboard-response,21
true,19,2,2,2,true,d,false,false,0.0-2.0-0.44-0.402-3.402,0,1,1,68,false,stim,false,2,680,0,1,1,19096,task3,1202153,false,true,1291,image-keyboard-response,22
true,19,0,2,0,true,q,false,true,0.0-2.0-0.44-0.403-3.403,0,1,1,81,false,stim,false,1,1789,0,0,0,19096,task3,1205481,false,false,1294,image-keyboard-response,23
true,19,2,2,1,false,z,true,false,0.0-2.0-0.44-0.404-3.404,0,1,1,68,false,stim,false,1,1086,0,1,2,19096,task3,1208109,false,false,1297,image-keyboard-response,24
true,19,2,2,2,true,d,false,true,0.0-2.0-0.45-0.405-3.405,0,1,1,68,false,stim,false,2,1103,0,0,1,19096,task3,1210746,false,false,1300,image-keyboard-response,25
true,19,0,2,1,false,z,true,false,0.0-2.0-0.45-0.406-3.406,0,1,1,81,false,stim,false,1,2964,0,1,2,19096,task3,1215267,false,false,1303,image-keyboard-response,26
true,19,1,2,1,true,z,false,true,0.0-2.0-0.45-0.407-3.407,0,1,1,90,false,stim,false,1,520,0,1,2,19096,task3,1217324,false,false,1306,image-keyboard-response,27
true,19,0,2,0,true,q,false,true,0.0-2.0-0.45-0.408-3.408,0,1,1,81,false,stim,false,1,1632,0,0,0,19096,task3,1220484,false,false,1309,image-keyboard-response,28
true,19,0,2,0,true,q,false,true,0.0-2.0-0.45-0.409-3.409,0,1,1,81,false,stim,false,1,836,0,0,0,19096,task3,1222851,false,false,1312,image-keyboard-response,29
true,20,1,1,1,true,z,false,true,0.0-2.0-0.45-0.410-3.410,0,0,1,90,true,stim,false,1,606,0,1,2,19096,task3,1225000,false,false,1315,image-keyboard-response,1
true,20,2,1,0,false,q,false,false,0.0-2.0-0.45-0.411-3.411,0,0,1,68,false,stim,true,2,684,0,0,1,19096,task3,1227217,false,false,1318,image-keyboard-response,2
true,20,1,1,0,false,q,true,false,0.0-2.0-0.45-0.412-3.412,0,0,1,90,false,stim,false,2,487,0,0,1,19096,task3,1229242,false,false,1321,image-keyboard-response,3
true,20,0,1,2,false,d,false,false,0.0-2.0-0.45-0.413-3.413,0,0,1,81,false,stim,true,0,1099,0,0,0,19096,task3,1231872,false,false,1324,image-keyboard-response,4
true,20,1,1,1,true,z,false,true,0.0-2.0-0.46-0.414-3.414,0,0,1,90,false,stim,false,1,1025,0,1,2,19096,task3,1234435,false,false,1327,image-keyboard-response,5
true,20,0,1,0,true,q,false,true,0.0-2.0-0.46-0.415-3.415,0,0,1,81,false,stim,false,2,1839,0,0,1,19096,task3,1237812,false,false,1330,image-keyboard-response,6
true,20,1,1,2,false,d,true,false,0.0-2.0-0.46-0.416-3.416,0,0,1,90,false,stim,false,0,1754,0,0,0,19096,task3,1241106,false,false,1333,image-keyboard-response,7
true,20,0,1,0,true,q,false,true,0.0-2.0-0.46-0.417-3.417,0,0,1,81,false,stim,false,2,1784,0,0,1,19096,task3,1244417,false,false,1336,image-keyboard-response,8
true,20,1,1,1,true,z,false,true,0.0-2.0-0.46-0.418-3.418,0,0,1,90,false,stim,false,1,1152,0,1,2,19096,task3,1247099,false,false,1339,image-keyboard-response,9
true,20,2,1,2,true,d,false,true,0.0-2.0-0.46-0.419-3.419,0,0,1,68,false,stim,false,0,461,0,0,0,19096,task3,1249083,false,false,1342,image-keyboard-response,10
true,20,2,1,2,true,d,false,true,0.0-2.0-0.46-0.420-3.420,0,0,1,68,false,stim,false,0,1321,0,0,0,19096,task3,1251943,false,false,1345,image-keyboard-response,11
true,20,1,1,1,true,z,false,true,0.0-2.0-0.46-0.421-3.421,0,0,1,90,false,stim,false,1,886,0,1,2,19096,task3,1254369,false,false,1348,image-keyboard-response,12
true,20,0,1,0,true,q,false,true,0.0-2.0-0.46-0.422-3.422,0,0,1,81,false,stim,false,2,530,0,0,1,19096,task3,1256433,false,false,1351,image-keyboard-response,13
true,20,0,1,0,true,q,false,true,0.0-2.0-0.47-0.423-3.423,0,0,1,81,false,stim,false,2,683,0,0,1,19096,task3,1258654,false,false,1354,image-keyboard-response,14
true,20,2,1,2,true,d,false,true,0.0-2.0-0.47-0.424-3.424,0,0,1,68,false,stim,false,0,1158,0,0,0,19096,task3,1261349,false,false,1357,image-keyboard-response,15
true,20,2,1,2,true,d,false,true,0.0-2.0-0.47-0.425-3.425,0,0,1,68,false,stim,false,0,1139,0,0,0,19096,task3,1264031,false,false,1360,image-keyboard-response,16
true,20,1,1,1,true,z,false,true,0.0-2.0-0.47-0.426-3.426,0,0,1,90,false,stim,false,1,1240,0,1,2,19096,task3,1266812,false,false,1363,image-keyboard-response,17
true,20,1,1,1,true,z,false,true,0.0-2.0-0.47-0.427-3.427,0,0,1,90,false,stim,false,1,1320,0,1,2,19096,task3,1269672,false,false,1366,image-keyboard-response,18
true,20,1,1,1,true,z,false,false,0.0-2.0-0.47-0.428-3.428,0,0,1,90,false,stim,false,1,677,0,1,2,19096,task3,1271879,false,true,1369,image-keyboard-response,19
true,20,0,1,0,true,q,false,true,0.0-2.0-0.47-0.429-3.429,0,0,1,81,false,stim,false,2,724,0,0,1,19096,task3,1274149,false,false,1372,image-keyboard-response,20
true,20,2,1,2,true,d,false,true,0.0-2.0-0.47-0.430-3.430,0,0,1,68,false,stim,false,0,656,0,0,0,19096,task3,1276338,false,false,1375,image-keyboard-response,21
true,20,0,1,0,true,q,false,true,0.0-2.0-0.47-0.431-3.431,0,0,1,81,false,stim,false,2,1031,0,0,1,19096,task3,1278902,false,false,1378,image-keyboard-response,22
true,20,2,1,2,true,d,false,true,0.0-2.0-0.48-0.432-3.432,0,0,1,68,false,stim,false,0,973,0,0,0,19096,task3,1281406,false,false,1381,image-keyboard-response,23
true,20,0,1,0,true,q,false,true,0.0-2.0-0.48-0.433-3.433,0,0,1,81,false,stim,false,2,939,0,1,1,19096,task3,1283870,false,false,1384,image-keyboard-response,24
true,20,1,1,1,true,z,false,false,0.0-2.0-0.48-0.434-3.434,0,0,1,90,false,stim,false,1,863,0,1,2,19096,task3,1286275,false,true,1387,image-keyboard-response,25
true,20,2,1,0,false,q,false,false,0.0-2.0-0.48-0.435-3.435,0,0,1,68,false,stim,true,2,816,0,1,1,19096,task3,1288626,false,false,1390,image-keyboard-response,26
true,20,2,1,2,true,d,false,true,0.0-2.0-0.48-0.436-3.436,0,0,1,68,false,stim,false,0,847,0,0,0,19096,task3,1291000,false,false,1393,image-keyboard-response,27
true,20,0,1,1,false,z,true,false,0.0-2.0-0.48-0.437-3.437,0,0,1,81,false,stim,false,1,1487,0,1,2,19096,task3,1294019,false,false,1396,image-keyboard-response,28
true,21,1,2,1,true,z,false,true,0.0-2.0-0.48-0.438-3.438,0,1,1,90,true,stim,false,1,732,0,1,2,19096,task3,1296284,false,false,1399,image-keyboard-response,1
true,21,2,2,1,false,z,false,false,0.0-2.0-0.48-0.439-3.439,0,1,1,68,false,stim,true,2,2178,0,0,0,19096,task3,1300010,false,false,1402,image-keyboard-response,2
true,21,0,2,0,true,q,false,true,0.0-2.0-0.48-0.440-3.440,0,1,1,81,false,stim,false,0,2302,0,1,1,19096,task3,1303855,false,false,1405,image-keyboard-response,3
true,21,0,2,0,true,q,false,true,0.0-2.0-0.49-0.441-3.441,0,1,1,81,false,stim,false,0,788,0,1,1,19096,task3,1306179,false,false,1408,image-keyboard-response,4
true,21,1,2,1,true,z,false,true,0.0-2.0-0.49-0.442-3.442,0,1,1,90,false,stim,false,1,721,0,1,2,19096,task3,1308442,false,false,1411,image-keyboard-response,5
true,21,2,2,1,false,z,false,false,0.0-2.0-0.49-0.443-3.443,0,1,1,68,false,stim,true,2,1199,0,0,0,19096,task3,1311181,false,false,1414,image-keyboard-response,6
true,21,1,2,1,true,z,false,true,0.0-2.0-0.49-0.444-3.444,0,1,1,90,false,stim,false,2,377,0,0,0,19096,task3,1313099,false,false,1417,image-keyboard-response,7
true,21,1,2,1,true,z,false,true,0.0-2.0-0.49-0.445-3.445,0,1,1,90,false,stim,false,1,1506,0,1,2,19096,task3,1316137,false,false,1420,image-keyboard-response,8
true,21,0,2,0,true,q,false,true,0.0-2.0-0.49-0.446-3.446,0,1,1,81,false,stim,false,0,1067,0,1,1,19096,task3,1318739,false,false,1423,image-keyboard-response,9
true,21,0,2,0,true,q,false,true,0.0-2.0-0.49-0.447-3.447,0,1,1,81,false,stim,false,0,772,0,1,1,19096,task3,1321043,false,false,1426,image-keyboard-response,10
true,21,0,2,1,false,z,true,false,0.0-2.0-0.49-0.448-3.448,0,1,1,81,false,stim,false,2,445,0,1,0,19096,task3,1323015,false,false,1429,image-keyboard-response,11
true,21,1,2,1,true,z,false,true,0.0-2.0-0.49-0.449-3.449,0,1,1,90,false,stim,false,1,489,0,0,2,19096,task3,1325040,false,false,1432,image-keyboard-response,12
true,21,1,2,1,true,z,false,true,0.0-2.0-0.50-0.450-3.450,0,1,1,90,false,stim,false,1,546,0,0,2,19096,task3,1327128,false,false,1435,image-keyboard-response,13
true,21,1,2,1,true,z,false,true,0.0-2.0-0.50-0.451-3.451,0,1,1,90,false,stim,false,2,457,0,1,0,19096,task3,1329118,false,false,1438,image-keyboard-response,14
true,21,1,2,1,true,z,false,true,0.0-2.0-0.50-0.452-3.452,0,1,1,90,false,stim,false,2,674,0,1,0,19096,task3,1331314,false,false,1441,image-keyboard-response,15
true,22,0,2,0,true,q,false,true,0.0-2.0-0.50-0.453-3.453,1,1,0,81,true,stim,false,0,951,0,1,1,19096,task3,1333792,false,false,1444,image-keyboard-response,1
true,22,0,2,1,false,z,true,false,0.0-2.0-0.50-0.454-3.454,1,1,0,81,false,stim,false,1,796,0,1,0,19096,task3,1336116,false,false,1447,image-keyboard-response,2
true,22,1,2,0,false,q,false,true,0.0-2.0-0.50-0.455-3.455,1,1,0,90,false,stim,true,1,2275,0,0,2,19096,task3,1339917,false,true,1450,image-keyboard-response,3
true,22,0,2,0,true,q,false,true,0.0-2.0-0.50-0.456-3.456,1,1,0,81,false,stim,false,0,996,0,1,1,19096,task3,1342447,false,false,1453,image-keyboard-response,4
true,22,0,2,0,true,q,false,true,0.0-2.0-0.50-0.457-3.457,1,1,0,81,false,stim,false,0,1044,0,1,1,19096,task3,1345015,false,false,1456,image-keyboard-response,5
true,22,1,2,0,false,q,false,false,0.0-2.0-0.50-0.458-3.458,1,1,0,90,false,stim,true,1,1008,0,0,2,19096,task3,1347549,false,false,1459,image-keyboard-response,6
true,22,2,2,0,false,q,true,false,0.0-2.0-0.51-0.459-3.459,1,1,0,68,false,stim,false,1,1435,0,1,2,19096,task3,1350516,false,false,1462,image-keyboard-response,7
true,22,0,2,0,true,q,false,true,0.0-2.0-0.51-0.460-3.460,1,1,0,81,false,stim,false,0,1087,0,0,1,19096,task3,1353128,false,false,1465,image-keyboard-response,8
true,22,1,2,1,true,z,false,true,0.0-2.0-0.51-0.461-3.461,1,1,0,90,false,stim,false,1,1008,0,0,0,19096,task3,1355680,false,false,1468,image-keyboard-response,9
true,22,1,2,1,true,z,false,true,0.0-2.0-0.51-0.462-3.462,1,1,0,90,false,stim,false,1,919,0,0,0,19096,task3,1358130,false,false,1471,image-keyboard-response,10
true,22,1,2,1,true,z,false,false,0.0-2.0-0.51-0.463-3.463,1,1,0,90,false,stim,false,1,1033,0,0,0,19096,task3,1360702,false,true,1474,image-keyboard-response,11
true,23,0,1,0,true,q,false,true,0.0-2.0-0.51-0.464-3.464,0,0,1,81,true,stim,false,0,840,0,1,2,19096,task3,1363071,false,false,1477,image-keyboard-response,1
true,23,0,1,0,true,q,false,true,0.0-2.0-0.51-0.465-3.465,0,0,1,81,false,stim,false,0,728,0,1,2,19096,task3,1365337,false,false,1480,image-keyboard-response,2
true,23,0,1,1,false,z,false,false,0.0-2.0-0.51-0.466-3.466,0,0,1,81,false,stim,true,0,487,0,0,1,19096,task3,1367358,false,false,1483,image-keyboard-response,3
true,23,1,1,1,true,z,false,true,0.0-2.0-0.51-0.467-3.467,0,0,1,90,false,stim,false,0,1002,0,0,1,19096,task3,1369871,false,false,1486,image-keyboard-response,4
true,23,0,1,0,true,q,false,true,0.0-2.0-0.52-0.468-3.468,0,0,1,81,false,stim,false,0,1482,0,1,2,19096,task3,1372892,false,false,1489,image-keyboard-response,5
true,23,2,1,2,true,d,false,true,0.0-2.0-0.52-0.469-3.469,0,0,1,68,false,stim,false,1,913,0,0,0,19096,task3,1375344,false,false,1492,image-keyboard-response,6
true,23,1,1,1,true,z,false,true,0.0-2.0-0.52-0.470-3.470,0,0,1,90,false,stim,false,0,1215,0,0,1,19096,task3,1378086,false,false,1495,image-keyboard-response,7
true,23,0,1,0,true,q,false,true,0.0-2.0-0.52-0.471-3.471,0,0,1,81,false,stim,false,0,1486,0,1,2,19096,task3,1381107,false,false,1498,image-keyboard-response,8
true,23,2,1,2,true,d,false,true,0.0-2.0-0.52-0.472-3.472,0,0,1,68,false,stim,false,1,1035,0,0,0,19096,task3,1383695,false,false,1501,image-keyboard-response,9
true,23,2,1,2,true,d,false,false,0.0-2.0-0.52-0.473-3.473,0,0,1,68,false,stim,false,1,858,0,0,0,19096,task3,1386080,false,true,1504,image-keyboard-response,10
true,23,1,1,1,true,z,false,true,0.0-2.0-0.52-0.474-3.474,0,0,1,90,false,stim,false,0,1243,0,0,1,19096,task3,1388864,false,false,1507,image-keyboard-response,11
true,23,1,1,1,true,z,false,true,0.0-2.0-0.52-0.475-3.475,0,0,1,90,false,stim,false,0,794,0,0,1,19096,task3,1391185,false,false,1510,image-keyboard-response,12
true,23,0,1,0,true,q,false,true,0.0-2.0-0.52-0.476-3.476,0,0,1,81,false,stim,false,0,461,0,1,2,19096,task3,1393171,false,false,1513,image-keyboard-response,13
true,23,1,1,1,true,z,false,true,0.0-2.0-0.53-0.477-3.477,0,0,1,90,false,stim,false,0,2059,0,0,1,19096,task3,1396770,false,false,1516,image-keyboard-response,14
true,23,1,1,1,true,z,false,false,0.0-2.0-0.53-0.478-3.478,0,0,1,90,false,stim,false,0,783,0,0,1,19096,task3,1399093,false,true,1519,image-keyboard-response,15
true,23,0,1,0,true,q,false,true,0.0-2.0-0.53-0.479-3.479,0,0,1,81,false,stim,false,0,1888,0,1,2,19096,task3,1402519,false,false,1522,image-keyboard-response,16
true,23,0,1,0,true,q,false,true,0.0-2.0-0.53-0.480-3.480,0,0,1,81,false,stim,false,0,820,0,1,2,19096,task3,1404869,false,false,1525,image-keyboard-response,17
true,23,2,1,2,true,d,false,true,0.0-2.0-0.53-0.481-3.481,0,0,1,68,false,stim,false,1,1018,0,0,0,19096,task3,1407417,false,false,1528,image-keyboard-response,18
true,23,0,1,0,true,q,false,true,0.0-2.0-0.53-0.482-3.482,0,0,1,81,false,stim,false,0,1990,0,1,2,19096,task3,1410950,false,false,1531,image-keyboard-response,19
true,23,2,1,2,true,d,false,true,0.0-2.0-0.53-0.483-3.483,0,0,1,68,false,stim,false,1,1058,0,0,0,19096,task3,1413548,false,false,1534,image-keyboard-response,20
true,23,1,1,1,true,z,false,true,0.0-2.0-0.53-0.484-3.484,0,0,1,90,false,stim,false,0,799,0,0,1,19096,task3,1415890,false,false,1537,image-keyboard-response,21
true,23,2,1,2,true,d,false,true,0.0-2.0-0.53-0.485-3.485,0,0,1,68,false,stim,false,1,1366,0,0,0,19096,task3,1418796,false,false,1540,image-keyboard-response,22
true,23,1,1,1,true,z,false,true,0.0-2.0-0.54-0.486-3.486,0,0,1,90,false,stim,false,0,1787,0,0,1,19096,task3,1422106,false,false,1543,image-keyboard-response,23
true,23,2,1,1,false,z,true,false,0.0-2.0-0.54-0.487-3.487,0,0,1,68,false,stim,false,0,669,0,0,1,19096,task3,1424318,false,false,1546,image-keyboard-response,24
true,24,0,1,0,true,q,false,true,0.0-2.0-0.54-0.488-3.488,0,0,1,81,true,stim,false,0,906,0,1,2,19096,task3,1426755,false,false,1549,image-keyboard-response,1
true,24,2,1,1,false,z,false,false,0.0-2.0-0.54-0.489-3.489,0,0,1,68,false,stim,true,2,935,0,0,0,19096,task3,1429215,false,false,1552,image-keyboard-response,2
true,24,1,1,0,false,q,true,false,0.0-2.0-0.54-0.490-3.490,0,0,1,90,false,stim,false,0,1357,0,1,2,19096,task3,1432107,false,false,1555,image-keyboard-response,3
true,24,0,1,0,true,q,false,true,0.0-2.0-0.54-0.491-3.491,0,0,1,81,false,stim,false,0,606,0,1,2,19096,task3,1434256,false,false,1558,image-keyboard-response,4
true,24,2,1,1,false,z,false,false,0.0-2.0-0.54-0.492-3.492,0,0,1,68,false,stim,true,2,697,0,0,0,19096,task3,1436487,false,false,1561,image-keyboard-response,5
true,24,1,1,2,false,d,false,false,0.0-2.0-0.54-0.493-3.493,0,0,1,90,false,stim,true,1,1065,0,0,1,19096,task3,1439094,false,false,1564,image-keyboard-response,6
true,24,1,1,1,true,z,false,true,0.0-2.0-0.54-0.494-3.494,0,0,1,90,false,stim,false,2,1637,0,0,0,19096,task3,1442265,false,false,1567,image-keyboard-response,7
true,24,2,1,2,true,d,false,false,0.0-2.0-0.55-0.495-3.495,0,0,1,68,false,stim,false,1,924,0,0,1,19096,task3,1444713,false,true,1570,image-keyboard-response,8
true,24,0,1,2,false,d,true,false,0.0-2.0-0.55-0.496-3.496,0,0,1,81,false,stim,false,1,1456,0,0,1,19096,task3,1447706,false,false,1573,image-keyboard-response,9
true,24,1,1,2,false,d,false,false,0.0-2.0-0.55-0.497-3.497,0,0,1,90,false,stim,true,1,502,0,0,1,19096,task3,1449751,false,false,1576,image-keyboard-response,10
true,24,0,1,0,true,q,false,true,0.0-2.0-0.55-0.498-3.498,0,0,1,81,false,stim,false,0,943,0,1,2,19096,task3,1452232,false,false,1579,image-keyboard-response,11
true,24,1,1,1,true,z,false,true,0.0-2.0-0.55-0.499-3.499,0,0,1,90,false,stim,false,2,765,0,0,0,19096,task3,1454533,false,false,1582,image-keyboard-response,12
true,24,1,1,1,true,z,false,true,0.0-2.0-0.55-0.500-3.500,0,0,1,90,false,stim,false,2,1263,0,0,0,19096,task3,1457332,false,false,1585,image-keyboard-response,13
true,24,0,1,0,true,q,false,true,0.0-2.0-0.55-0.501-3.501,0,0,1,81,false,stim,false,0,911,0,1,2,19096,task3,1459780,false,false,1588,image-keyboard-response,14
true,24,1,1,1,true,z,false,true,0.0-2.0-0.55-0.502-3.502,0,0,1,90,false,stim,false,2,633,0,0,0,19096,task3,1461942,false,false,1591,image-keyboard-response,15
true,24,0,1,0,true,q,false,true,0.0-2.0-0.55-0.503-3.503,0,0,1,81,false,stim,false,0,825,0,1,2,19096,task3,1464294,false,false,1594,image-keyboard-response,16
true,24,1,1,1,true,z,false,true,0.0-2.0-0.56-0.504-3.504,0,0,1,90,false,stim,false,2,532,0,0,0,19096,task3,1466350,false,false,1597,image-keyboard-response,17
true,24,0,1,0,true,q,false,true,0.0-2.0-0.56-0.505-3.505,0,0,1,81,false,stim,false,0,806,0,1,2,19096,task3,1468684,false,false,1600,image-keyboard-response,18
true,24,0,1,0,true,q,false,true,0.0-2.0-0.56-0.506-3.506,0,0,1,81,false,stim,false,0,1232,0,1,2,19096,task3,1471466,false,false,1603,image-keyboard-response,19
true,24,1,1,1,true,z,false,true,0.0-2.0-0.56-0.507-3.507,0,0,1,90,false,stim,false,2,1363,0,0,0,19096,task3,1474351,false,false,1606,image-keyboard-response,20
true,24,0,1,0,true,q,false,true,0.0-2.0-0.56-0.508-3.508,0,0,1,81,false,stim,false,0,703,0,1,2,19096,task3,1476592,false,false,1609,image-keyboard-response,21
true,24,1,1,1,true,z,false,true,0.0-2.0-0.56-0.509-3.509,0,0,1,90,false,stim,false,2,696,0,0,0,19096,task3,1478814,false,false,1612,image-keyboard-response,22
true,24,2,1,2,true,d,false,true,0.0-2.0-0.56-0.510-3.510,0,0,1,68,false,stim,false,1,908,0,0,1,19096,task3,1481246,false,false,1615,image-keyboard-response,23
true,25,2,1,0,false,q,false,false,0.0-2.0-0.56-0.511-3.511,0,0,1,68,true,stim,true,2,1308,0,0,1,19096,task3,1484086,false,false,1618,image-keyboard-response,1
true,25,2,1,0,false,q,false,false,0.0-2.0-0.56-0.512-3.512,0,0,1,68,false,stim,true,2,659,0,0,1,19096,task3,1486278,false,false,1621,image-keyboard-response,2
true,25,1,1,2,false,d,false,false,0.0-2.0-0.57-0.513-3.513,0,0,1,90,false,stim,true,1,1390,0,0,0,19096,task3,1489208,false,false,1624,image-keyboard-response,3
true,25,2,1,0,false,q,true,false,0.0-2.0-0.57-0.514-3.514,0,0,1,68,false,stim,false,0,771,0,1,2,19096,task3,1491509,false,false,1627,image-keyboard-response,4
true,25,1,1,0,false,q,true,false,0.0-2.0-0.57-0.515-3.515,0,0,1,90,false,stim,false,2,771,0,0,1,19096,task3,1493820,false,false,1630,image-keyboard-response,5
true,25,0,1,2,false,d,true,false,0.0-2.0-0.57-0.516-3.516,0,0,1,81,false,stim,false,1,1328,0,0,0,19096,task3,1496677,false,false,1633,image-keyboard-response,6
true,25,1,1,0,false,q,true,false,0.0-2.0-0.57-0.517-3.517,0,0,1,90,false,stim,false,2,1709,0,0,1,19096,task3,1499917,false,false,1636,image-keyboard-response,7
true,25,0,1,0,true,q,false,true,0.0-2.0-0.57-0.518-3.518,0,0,1,81,false,stim,false,2,562,0,1,1,19096,task3,1502020,false,false,1639,image-keyboard-response,8
true,25,1,1,0,false,q,true,false,0.0-2.0-0.57-0.519-3.519,0,0,1,90,false,stim,false,0,994,0,1,2,19096,task3,1504552,false,false,1642,image-keyboard-response,9
true,25,0,1,0,true,q,false,true,0.0-2.0-0.57-0.520-3.520,0,0,1,81,false,stim,false,0,891,0,1,2,19096,task3,1506980,false,false,1645,image-keyboard-response,10
true,25,1,1,2,false,d,false,false,0.0-2.0-0.57-0.521-3.521,0,0,1,90,false,stim,true,1,1074,0,1,0,19096,task3,1509581,false,false,1648,image-keyboard-response,11
true,25,0,1,0,true,q,false,true,0.0-2.0-0.58-0.522-3.522,0,0,1,81,false,stim,false,0,953,0,1,2,19096,task3,1512062,false,false,1651,image-keyboard-response,12
true,26,0,0,0,true,q,false,true,0.0-2.0-0.58-0.523-3.523,1,1,1,81,true,stim,false,0,1364,0,1,1,19096,task3,1637260,false,false,1774,image-keyboard-response,1
true,26,1,0,0,false,q,true,false,0.0-2.0-0.58-0.524-3.524,1,1,1,90,false,stim,false,0,1582,0,1,2,19096,task3,1640378,false,false,1777,image-keyboard-response,2
true,26,2,0,2,true,d,false,true,0.0-2.0-0.58-0.525-3.525,1,1,1,68,false,stim,false,2,845,0,1,0,19096,task3,1642752,false,false,1780,image-keyboard-response,3
true,26,0,0,0,true,q,false,true,0.0-2.0-0.58-0.526-3.526,1,1,1,81,false,stim,false,0,1668,0,1,1,19096,task3,1645943,false,false,1783,image-keyboard-response,4
true,26,2,0,2,true,d,false,true,0.0-2.0-0.58-0.527-3.527,1,1,1,68,false,stim,false,2,755,0,1,0,19096,task3,1648230,false,false,1786,image-keyboard-response,5
true,26,0,0,0,true,q,false,true,0.0-2.0-0.58-0.528-3.528,1,1,1,81,false,stim,false,0,756,0,1,1,19096,task3,1650523,false,false,1789,image-keyboard-response,6
true,26,2,0,0,false,q,true,false,0.0-2.0-0.58-0.529-3.529,1,1,1,68,false,stim,false,0,1233,0,1,2,19096,task3,1653299,false,false,1792,image-keyboard-response,7
true,26,2,0,2,true,d,false,true,0.0-2.0-0.58-0.530-3.530,1,1,1,68,false,stim,false,2,1198,0,1,0,19096,task3,1656034,false,false,1795,image-keyboard-response,8
true,26,2,0,2,true,d,false,true,0.0-2.0-0.59-0.531-3.531,1,1,1,68,false,stim,false,2,692,0,1,0,19096,task3,1658267,false,false,1798,image-keyboard-response,9
true,26,0,0,0,true,q,false,true,0.0-2.0-0.59-0.532-3.532,1,1,1,81,false,stim,false,0,889,0,1,2,19096,task3,1660705,false,false,1801,image-keyboard-response,10
true,26,0,0,0,true,q,false,true,0.0-2.0-0.59-0.533-3.533,1,1,1,81,false,stim,false,0,465,0,0,1,19096,task3,1662701,false,false,1804,image-keyboard-response,11
true,26,2,0,2,true,d,false,true,0.0-2.0-0.59-0.534-3.534,1,1,1,68,false,stim,false,2,812,0,0,0,19096,task3,1665036,false,false,1807,image-keyboard-response,12
true,26,2,0,2,true,d,false,true,0.0-2.0-0.59-0.535-3.535,1,1,1,68,false,stim,false,2,814,0,0,0,19096,task3,1667381,false,false,1810,image-keyboard-response,13
true,26,0,0,0,true,q,false,true,0.0-2.0-0.59-0.536-3.536,1,1,1,81,false,stim,false,0,1226,0,1,2,19096,task3,1670122,false,false,1813,image-keyboard-response,14
true,27,0,1,2,false,d,false,false,0.0-2.0-0.59-0.537-3.537,0,0,1,81,true,stim,true,0,682,0,0,1,19096,task3,1672337,false,false,1816,image-keyboard-response,1
true,27,0,1,2,false,d,false,false,0.0-2.0-0.59-0.538-3.538,0,0,1,81,false,stim,true,0,1337,0,0,1,19096,task3,1675213,false,false,1819,image-keyboard-response,2
true,27,0,1,0,true,q,false,true,0.0-2.0-0.59-0.539-3.539,0,0,1,81,false,stim,false,0,846,0,1,2,19096,task3,1677604,false,false,1822,image-keyboard-response,3
true,27,0,1,0,true,q,false,true,0.0-2.0-0.60-0.540-3.540,0,0,1,81,false,stim,false,0,628,0,1,2,19096,task3,1679764,false,false,1825,image-keyboard-response,4
true,27,2,1,0,false,q,false,true,0.0-2.0-0.60-0.541-3.541,0,0,1,68,false,stim,true,2,600,0,0,0,19096,task3,1681885,false,true,1828,image-keyboard-response,5
true,27,1,1,2,false,d,true,false,0.0-2.0-0.60-0.542-3.542,0,0,1,90,false,stim,false,0,515,0,0,1,19096,task3,1683940,false,false,1831,image-keyboard-response,6
true,27,2,1,2,true,d,false,true,0.0-2.0-0.60-0.543-3.543,0,0,1,68,false,stim,false,0,1958,0,0,1,19096,task3,1687423,false,false,1834,image-keyboard-response,7
true,27,2,1,0,false,q,false,false,0.0-2.0-0.60-0.544-3.544,0,0,1,68,false,stim,true,2,841,0,1,0,19096,task3,1689806,false,false,1837,image-keyboard-response,8
true,27,2,1,0,false,q,true,false,0.0-2.0-0.60-0.545-3.545,0,0,1,68,false,stim,false,0,944,0,0,2,19096,task3,1692289,false,false,1840,image-keyboard-response,9
true,27,0,1,0,true,q,false,true,0.0-2.0-0.60-0.546-3.546,0,0,1,81,false,stim,false,0,513,0,0,2,19096,task3,1694329,false,false,1843,image-keyboard-response,10
true,27,2,1,2,true,d,false,true,0.0-2.0-0.60-0.547-3.547,0,0,1,68,false,stim,false,0,544,0,1,1,19096,task3,1696399,false,false,1846,image-keyboard-response,11
true,27,1,1,0,false,q,true,false,0.0-2.0-0.60-0.548-3.548,0,0,1,90,false,stim,false,2,525,0,1,0,19096,task3,1698460,false,false,1849,image-keyboard-response,12
true,28,0,2,0,true,q,false,true,0.0-2.0-0.61-0.549-3.549,1,1,0,81,true,stim,false,0,788,0,1,0,19096,task3,1700783,false,false,1852,image-keyboard-response,1
true,28,0,2,2,false,d,false,false,0.0-2.0-0.61-0.550-3.550,1,1,0,81,false,stim,true,0,559,0,0,2,19096,task3,1702875,false,false,1855,image-keyboard-response,2
true,28,0,2,0,true,q,false,true,0.0-2.0-0.61-0.551-3.551,1,1,0,81,false,stim,false,0,1141,0,1,0,19096,task3,1705546,false,false,1858,image-keyboard-response,3
true,28,2,2,2,true,d,false,true,0.0-2.0-0.61-0.552-3.552,1,1,0,68,false,stim,false,2,903,0,1,1,19096,task3,1707987,false,false,1861,image-keyboard-response,4
true,28,1,2,2,false,d,true,true,0.0-2.0-0.61-0.553-3.553,1,1,0,90,false,stim,false,0,875,0,0,2,19096,task3,1710401,false,true,1864,image-keyboard-response,5
true,28,2,2,2,true,d,false,true,0.0-2.0-0.61-0.554-3.554,1,1,0,68,false,stim,false,2,2720,0,1,1,19096,task3,1714644,false,false,1867,image-keyboard-response,6
true,28,1,2,2,false,d,true,false,0.0-2.0-0.61-0.555-3.555,1,1,0,90,false,stim,false,0,1025,0,0,2,19096,task3,1717209,false,false,1870,image-keyboard-response,7
true,28,2,2,2,true,d,false,true,0.0-2.0-0.61-0.556-3.556,1,1,0,68,false,stim,false,2,1111,0,1,1,19096,task3,1719856,false,false,1873,image-keyboard-response,8
true,28,0,2,0,true,q,false,false,0.0-2.0-0.61-0.557-3.557,1,1,0,81,false,stim,false,0,1015,0,1,0,19096,task3,1722400,false,true,1876,image-keyboard-response,9
true,28,1,2,0,false,q,true,false,0.0-2.0-0.62-0.558-3.558,1,1,0,90,false,stim,false,0,711,0,0,0,19096,task3,1724636,false,false,1879,image-keyboard-response,10
true,28,2,2,2,true,d,false,true,0.0-2.0-0.62-0.559-3.559,1,1,0,68,false,stim,false,2,1344,0,0,1,19096,task3,1727517,false,false,1882,image-keyboard-response,11
true,28,2,2,0,false,q,true,false,0.0-2.0-0.62-0.560-3.560,1,1,0,68,false,stim,false,0,686,0,0,0,19096,task3,1729740,false,false,1885,image-keyboard-response,12
true,28,0,2,0,true,q,false,true,0.0-2.0-0.62-0.561-3.561,1,1,0,81,false,stim,false,0,686,0,0,0,19096,task3,1731959,false,false,1888,image-keyboard-response,13
true,28,1,2,2,false,d,true,false,0.0-2.0-0.62-0.562-3.562,1,1,0,90,false,stim,false,0,1916,0,1,2,19096,task3,1735412,false,false,1891,image-keyboard-response,14
true,29,0,1,2,false,d,true,false,0.0-2.0-0.62-0.563-3.563,0,0,1,81,true,stim,false,2,547,0,1,2,19096,task3,1737501,false,false,1894,image-keyboard-response,1
true,29,0,1,0,true,q,false,false,0.0-2.0-0.62-0.564-3.564,0,0,1,81,false,stim,false,2,1491,0,0,1,19096,task3,1740525,false,true,1897,image-keyboard-response,2
true,29,1,1,2,false,d,true,false,0.0-2.0-0.62-0.565-3.565,0,0,1,90,false,stim,false,2,273,0,1,2,19096,task3,1742327,false,false,1900,image-keyboard-response,3
true,29,0,1,0,true,q,false,true,0.0-2.0-0.62-0.566-3.566,0,0,1,81,false,stim,false,2,1123,0,0,1,19096,task3,1744997,false,false,1903,image-keyboard-response,4
true,29,0,1,1,false,z,false,false,0.0-2.0-0.63-0.567-3.567,0,0,1,81,false,stim,true,0,894,0,0,0,19096,task3,1747425,false,false,1906,image-keyboard-response,5
true,29,1,1,2,false,d,true,false,0.0-2.0-0.63-0.568-3.568,0,0,1,90,false,stim,false,2,1173,0,1,2,19096,task3,1750125,false,false,1909,image-keyboard-response,6
true,29,0,1,1,false,z,false,false,0.0-2.0-0.63-0.569-3.569,0,0,1,81,false,stim,true,0,1151,0,0,0,19096,task3,1752805,false,false,1912,image-keyboard-response,7
true,29,0,1,0,true,q,false,true,0.0-2.0-0.63-0.570-3.570,0,0,1,81,false,stim,false,2,1079,0,0,1,19096,task3,1755419,false,false,1915,image-keyboard-response,8
true,29,0,1,0,true,q,false,true,0.0-2.0-0.63-0.571-3.571,0,0,1,81,false,stim,false,2,503,0,0,1,19096,task3,1757447,false,false,1918,image-keyboard-response,9
true,29,2,1,2,true,d,false,true,0.0-2.0-0.63-0.572-3.572,0,0,1,68,false,stim,false,2,862,0,1,2,19096,task3,1759846,false,false,1921,image-keyboard-response,10
true,29,2,1,2,true,d,false,true,0.0-2.0-0.63-0.573-3.573,0,0,1,68,false,stim,false,2,716,0,1,2,19096,task3,1762100,false,false,1924,image-keyboard-response,11
true,29,0,1,0,true,q,false,true,0.0-2.0-0.63-0.574-3.574,0,0,1,81,false,stim,false,2,747,0,0,1,19096,task3,1764390,false,false,1927,image-keyboard-response,12
true,29,2,1,1,false,z,true,false,0.0-2.0-0.63-0.575-3.575,0,0,1,68,false,stim,false,0,1821,0,0,0,19096,task3,1767745,false,false,1930,image-keyboard-response,13
true,29,1,1,1,true,z,false,true,0.0-2.0-0.64-0.576-3.576,0,0,1,90,false,stim,false,0,434,0,0,0,19096,task3,1769708,false,false,1933,image-keyboard-response,14
true,29,1,1,1,true,z,false,true,0.0-2.0-0.64-0.577-3.577,0,0,1,90,false,stim,false,0,1070,0,0,0,19096,task3,1772304,false,false,1936,image-keyboard-response,15
true,29,2,1,2,true,d,false,true,0.0-2.0-0.64-0.578-3.578,0,0,1,68,false,stim,false,2,681,0,1,2,19096,task3,1774513,false,false,1939,image-keyboard-response,16
true,29,0,1,0,true,q,false,true,0.0-2.0-0.64-0.579-3.579,0,0,1,81,false,stim,false,2,1118,0,0,1,19096,task3,1777172,false,false,1942,image-keyboard-response,17
true,29,0,1,0,true,q,false,true,0.0-2.0-0.64-0.580-3.580,0,0,1,81,false,stim,false,2,836,0,0,1,19096,task3,1779538,false,false,1945,image-keyboard-response,18
true,29,1,1,1,true,z,false,true,0.0-2.0-0.64-0.581-3.581,0,0,1,90,false,stim,false,0,382,0,0,0,19096,task3,1781453,false,false,1948,image-keyboard-response,19
true,29,0,1,0,true,q,false,true,0.0-2.0-0.64-0.582-3.582,0,0,1,81,false,stim,false,2,696,0,0,1,19096,task3,1783691,false,false,1951,image-keyboard-response,20
true,29,2,1,2,true,d,false,true,0.0-2.0-0.64-0.583-3.583,0,0,1,68,false,stim,false,2,724,0,1,2,19096,task3,1785957,false,false,1954,image-keyboard-response,21
true,29,2,1,2,true,d,false,true,0.0-2.0-0.64-0.584-3.584,0,0,1,68,false,stim,false,2,646,0,1,2,19096,task3,1788139,false,false,1957,image-keyboard-response,22
true,29,0,1,0,true,q,false,true,0.0-2.0-0.65-0.585-3.585,0,0,1,81,false,stim,false,2,648,0,0,1,19096,task3,1790323,false,false,1960,image-keyboard-response,23
true,30,0,1,1,false,z,false,false,0.0-2.0-0.65-0.586-3.586,0,0,1,81,true,stim,true,0,408,0,0,1,19096,task3,1792261,false,false,1963,image-keyboard-response,1
true,30,2,1,2,true,d,false,true,0.0-2.0-0.65-0.587-3.587,0,0,1,68,false,stim,false,2,1004,0,1,2,19096,task3,1794797,false,false,1966,image-keyboard-response,2
true,30,2,1,2,true,d,false,true,0.0-2.0-0.65-0.588-3.588,0,0,1,68,false,stim,false,2,499,0,1,2,19096,task3,1796823,false,false,1969,image-keyboard-response,3
true,30,0,1,1,false,z,false,true,0.0-2.0-0.65-0.589-3.589,0,0,1,81,false,stim,true,0,910,0,0,1,19096,task3,1799274,false,true,1972,image-keyboard-response,4
true,30,1,1,0,false,q,false,false,0.0-2.0-0.65-0.590-3.590,0,0,1,90,false,stim,true,1,841,0,0,0,19096,task3,1801643,false,false,1975,image-keyboard-response,5
true,30,2,1,0,false,q,true,false,0.0-2.0-0.65-0.591-3.591,0,0,1,68,false,stim,false,1,1574,0,0,0,19096,task3,1804756,false,false,1978,image-keyboard-response,6
true,30,0,1,0,true,q,false,true,0.0-2.0-0.65-0.592-3.592,0,0,1,81,false,stim,false,1,551,0,0,0,19096,task3,1806833,false,false,1981,image-keyboard-response,7
true,30,2,1,2,true,d,false,true,0.0-2.0-0.65-0.593-3.593,0,0,1,68,false,stim,false,2,1869,0,1,2,19096,task3,1810241,false,false,1984,image-keyboard-response,8
true,30,0,1,0,true,q,false,true,0.0-2.0-0.66-0.594-3.594,0,0,1,81,false,stim,false,1,1172,0,0,0,19096,task3,1812945,false,false,1987,image-keyboard-response,9
true,30,0,1,0,true,q,false,true,0.0-2.0-0.66-0.595-3.595,0,0,1,81,false,stim,false,1,663,0,0,0,19096,task3,1815158,false,false,1990,image-keyboard-response,10
true,30,0,1,0,true,q,false,true,0.0-2.0-0.66-0.596-3.596,0,0,1,81,false,stim,false,1,689,0,0,0,19096,task3,1817382,false,false,1993,image-keyboard-response,11
true,30,0,1,1,false,z,false,false,0.0-2.0-0.66-0.597-3.597,0,0,1,81,false,stim,true,0,602,0,0,1,19096,task3,1819512,false,false,1996,image-keyboard-response,12
true,30,2,1,2,true,d,false,true,0.0-2.0-0.66-0.598-3.598,0,0,1,68,false,stim,false,2,695,0,1,2,19096,task3,1821738,false,false,1999,image-keyboard-response,13
true,30,2,1,2,true,d,false,true,0.0-2.0-0.66-0.599-3.599,0,0,1,68,false,stim,false,2,976,0,1,2,19096,task3,1824260,false,false,2002,image-keyboard-response,14
true,30,1,1,1,true,z,false,true,0.0-2.0-0.66-0.600-3.600,0,0,1,90,false,stim,false,0,1068,0,0,1,19096,task3,1826861,false,false,2005,image-keyboard-response,15
true,30,1,1,1,true,z,false,true,0.0-2.0-0.66-0.601-3.601,0,0,1,90,false,stim,false,0,775,0,0,1,19096,task3,1829168,false,false,2008,image-keyboard-response,16
true,30,2,1,2,true,d,false,true,0.0-2.0-0.66-0.602-3.602,0,0,1,68,false,stim,false,2,1152,0,1,2,19096,task3,1831844,false,false,2011,image-keyboard-response,17
true,30,2,1,2,true,d,false,true,0.0-2.0-0.67-0.603-3.603,0,0,1,68,false,stim,false,2,1174,0,1,2,19096,task3,1834548,false,false,2014,image-keyboard-response,18
true,30,0,1,0,true,q,false,true,0.0-2.0-0.67-0.604-3.604,0,0,1,81,false,stim,false,1,1002,0,0,0,19096,task3,1837075,false,false,2017,image-keyboard-response,19
true,30,2,1,2,true,d,false,false,0.0-2.0-0.67-0.605-3.605,0,0,1,68,false,stim,false,2,819,0,1,2,19096,task3,1839431,false,true,2020,image-keyboard-response,20
true,30,1,1,1,true,z,false,true,0.0-2.0-0.67-0.606-3.606,0,0,1,90,false,stim,false,0,892,0,0,1,19096,task3,1841865,false,false,2023,image-keyboard-response,21
true,30,1,1,1,true,z,false,true,0.0-2.0-0.67-0.607-3.607,0,0,1,90,false,stim,false,0,709,0,0,1,19096,task3,1844090,false,false,2026,image-keyboard-response,22
true,30,0,1,0,true,q,false,true,0.0-2.0-0.67-0.608-3.608,0,0,1,81,false,stim,false,1,483,0,0,0,19096,task3,1846105,false,false,2029,image-keyboard-response,23
true,30,1,1,2,false,d,true,false,0.0-2.0-0.67-0.609-3.609,0,0,1,90,false,stim,false,2,1385,0,1,2,19096,task3,1849028,false,false,2032,image-keyboard-response,24
true,31,0,1,2,false,d,false,false,0.0-2.0-0.67-0.610-3.610,0,0,1,81,true,stim,true,0,1807,0,0,0,19096,task3,1852370,false,false,2035,image-keyboard-response,1
true,31,1,1,0,false,q,false,false,0.0-2.0-0.67-0.611-3.611,0,0,1,90,false,stim,true,1,1540,0,0,1,19096,task3,1855432,false,false,2038,image-keyboard-response,2
true,31,1,1,2,false,d,true,false,0.0-2.0-0.68-0.612-3.612,0,0,1,90,false,stim,false,0,1420,0,0,0,19096,task3,1858373,false,false,2041,image-keyboard-response,3
true,31,0,1,0,true,q,false,true,0.0-2.0-0.68-0.613-3.613,0,0,1,81,false,stim,false,1,1507,0,0,1,19096,task3,1861419,false,false,2044,image-keyboard-response,4
true,31,0,1,0,true,q,false,false,0.0-2.0-0.68-0.614-3.614,0,0,1,81,false,stim,false,1,801,0,0,1,19096,task3,1863748,false,true,2047,image-keyboard-response,5
true,31,0,1,2,false,d,false,false,0.0-2.0-0.68-0.615-3.615,0,0,1,81,false,stim,true,0,486,0,0,0,19096,task3,1865778,false,false,2050,image-keyboard-response,6
true,31,1,1,2,false,d,true,false,0.0-2.0-0.68-0.616-3.616,0,0,1,90,false,stim,false,2,1314,0,1,2,19096,task3,1868626,false,false,2053,image-keyboard-response,7
true,31,0,1,2,false,d,true,false,0.0-2.0-0.68-0.617-3.617,0,0,1,81,false,stim,false,2,720,0,1,2,19096,task3,1870873,false,false,2056,image-keyboard-response,8
true,31,2,1,0,false,q,true,false,0.0-2.0-0.68-0.618-3.618,0,0,1,68,false,stim,false,1,1273,0,0,1,19096,task3,1873686,false,false,2059,image-keyboard-response,9
true,31,1,1,2,false,d,true,false,0.0-2.0-0.68-0.619-3.619,0,0,1,90,false,stim,false,2,771,0,1,2,19096,task3,1875982,false,false,2062,image-keyboard-response,10
true,31,0,1,2,false,d,false,true,0.0-2.0-0.68-0.620-3.620,0,0,1,81,false,stim,true,0,1276,0,0,0,19096,task3,1878788,false,true,2065,image-keyboard-response,11
true,31,0,1,0,true,q,false,true,0.0-2.0-0.69-0.621-3.621,0,0,1,81,false,stim,false,1,1683,0,0,1,19096,task3,1881995,false,false,2068,image-keyboard-response,12
true,31,0,1,0,true,q,false,true,0.0-2.0-0.69-0.622-3.622,0,0,1,81,false,stim,false,1,666,0,0,1,19096,task3,1884197,false,false,2071,image-keyboard-response,13
true,31,0,1,2,false,d,false,true,0.0-2.0-0.69-0.623-3.623,0,0,1,81,false,stim,true,0,632,0,0,0,19096,task3,1886354,false,true,2074,image-keyboard-response,14
true,31,1,1,2,false,d,true,true,0.0-2.0-0.69-0.624-3.624,0,0,1,90,false,stim,false,2,1008,0,1,2,19096,task3,1888909,false,true,2077,image-keyboard-response,15
true,31,0,1,0,true,q,false,false,0.0-2.0-0.69-0.625-3.625,0,0,1,81,false,stim,false,1,1117,0,0,1,19096,task3,1891559,false,true,2080,image-keyboard-response,16
true,31,1,1,2,false,d,true,false,0.0-2.0-0.69-0.626-3.626,0,0,1,90,false,stim,false,2,894,0,1,2,19096,task3,1893986,false,false,2083,image-keyboard-response,17
true,31,0,1,2,false,d,false,true,0.0-2.0-0.69-0.627-3.627,0,0,1,81,false,stim,true,0,761,0,0,0,19096,task3,1896273,false,true,2086,image-keyboard-response,18
true,31,1,1,2,false,d,true,false,0.0-2.0-0.69-0.628-3.628,0,0,1,90,false,stim,false,2,1001,0,1,2,19096,task3,1898811,false,false,2089,image-keyboard-response,19
true,31,0,1,2,false,d,false,false,0.0-2.0-0.69-0.629-3.629,0,0,1,81,false,stim,true,0,789,0,0,0,19096,task3,1901130,false,false,2092,image-keyboard-response,20
true,31,0,1,0,true,q,false,true,0.0-2.0-0.70-0.630-3.630,0,0,1,81,false,stim,false,1,1011,0,0,1,19096,task3,1903673,false,false,2095,image-keyboard-response,21
true,31,1,1,2,false,d,true,false,0.0-2.0-0.70-0.631-3.631,0,0,1,90,false,stim,false,2,1138,0,0,2,19096,task3,1906340,false,false,2098,image-keyboard-response,22
true,31,2,1,2,true,d,false,true,0.0-2.0-0.70-0.632-3.632,0,0,1,68,false,stim,false,2,740,0,0,2,19096,task3,1908639,false,false,2101,image-keyboard-response,23
