answered,blockNum,choice,condition,corResp,correct,correct_response,explo,fb,internal_node_id,isStable_1,isStable_2,isStable_3,key_press,newBlock,part,persev,persevResp,rt,sessNum,stableAS,stimulus,subject,task,time_elapsed,training,trap,trial_index,trial_type,trialsInBlock
true,1,0,0,2,false,d,true,false,0.0-2.0-0.0-0.0-3.0,0,0,0,81,true,stim,false,-1,2343,2,0,1,19096,task2,99952,false,false,103,image-keyboard-response,1
true,1,0,0,2,false,d,true,false,0.0-2.0-0.0-0.1-3.1,0,0,0,81,false,stim,false,-1,862,2,0,0,19096,task2,102320,false,false,106,image-keyboard-response,2
true,1,0,0,0,true,q,false,true,0.0-2.0-0.0-0.2-3.2,0,0,0,81,false,stim,false,-1,468,2,0,2,19096,task2,104297,false,false,109,image-keyboard-response,3
true,1,1,0,2,false,d,true,false,0.0-2.0-0.0-0.3-3.3,0,0,0,90,false,stim,false,-1,956,2,0,1,19096,task2,106760,false,false,112,image-keyboard-response,4
true,1,1,0,2,false,d,true,false,0.0-2.0-0.0-0.4-3.4,0,0,0,90,false,stim,false,-1,738,2,0,0,19096,task2,109016,false,false,115,image-keyboard-response,5
true,1,0,0,0,true,q,false,false,0.0-2.0-0.0-0.5-3.5,0,0,0,81,false,stim,false,-1,1486,2,0,2,19096,task2,112016,false,true,118,image-keyboard-response,6
true,1,2,0,0,false,q,true,false,0.0-2.0-0.0-0.6-3.6,0,0,0,68,false,stim,false,-1,1209,2,0,2,19096,task2,114745,false,false,121,image-keyboard-response,7
true,1,0,0,2,false,d,true,false,0.0-2.0-0.0-0.7-3.7,0,0,0,81,false,stim,false,-1,874,2,0,1,19096,task2,117144,false,false,124,image-keyboard-response,8
true,1,1,0,2,false,d,true,false,0.0-2.0-0.0-0.8-3.8,0,0,0,90,false,stim,false,-1,685,2,0,0,19096,task2,119336,false,false,127,image-keyboard-response,9
true,1,2,0,0,false,q,true,false,0.0-2.0-0.1-0.9-3.9,0,0,0,68,false,stim,false,-1,1218,2,0,2,19096,task2,122065,false,false,130,image-keyboard-response,10
true,1,0,0,2,false,d,true,false,0.0-2.0-0.1-0.10-3.10,0,0,0,81,false,stim,false,-1,876,2,0,0,19096,task2,124448,false,false,133,image-keyboard-response,11
true,1,1,0,2,false,d,true,true,0.0-2.0-0.1-0.11-3.11,0,0,0,90,false,stim,false,-1,457,2,0,0,19096,task2,126433,false,true,136,image-keyboard-response,12
true,1,2,0,2,true,d,false,true,0.0-2.0-0.1-0.12-3.12,0,0,0,68,false,stim,false,-1,892,2,0,1,19096,task2,128841,false,false,139,image-keyboard-response,13
true,1,2,0,0,false,q,true,false,0.0-2.0-0.1-0.13-3.13,0,0,0,68,false,stim,false,-1,1462,2,0,2,19096,task2,131824,false,false,142,image-keyboard-response,14
true,1,2,0,2,true,d,false,true,0.0-2.0-0.1-0.14-3.14,0,0,0,68,false,stim,false,-1,1226,2,0,1,19096,task2,134561,false,false,145,image-keyboard-response,15
true,1,2,0,2,true,d,false,true,0.0-2.0-0.1-0.15-3.15,0,0,0,68,false,stim,false,-1,524,2,0,1,19096,task2,136617,false,false,148,image-keyboard-response,16
true,1,0,0,0,true,q,false,true,0.0-2.0-0.1-0.16-3.16,0,0,0,81,false,stim,false,-1,896,2,0,2,19096,task2,139024,false,false,151,image-keyboard-response,17
true,1,1,0,2,false,d,true,false,0.0-2.0-0.1-0.17-3.17,0,0,0,90,false,stim,false,-1,516,2,0,0,19096,task2,141056,false,false,154,image-keyboard-response,18
true,1,2,0,2,true,d,false,true,0.0-2.0-0.2-0.18-3.18,0,0,0,68,false,stim,false,-1,632,2,0,0,19096,task2,143216,false,false,157,image-keyboard-response,19
true,1,0,0,0,true,q,false,true,0.0-2.0-0.2-0.19-3.19,0,0,0,81,false,stim,false,-1,453,2,0,2,19096,task2,145193,false,false,160,image-keyboard-response,20
true,1,2,0,2,true,d,false,true,0.0-2.0-0.2-0.20-3.20,0,0,0,68,false,stim,false,-1,586,2,0,1,19096,task2,147289,false,false,163,image-keyboard-response,21
true,1,2,0,2,true,d,false,false,0.0-2.0-0.2-0.21-3.21,0,0,0,68,false,stim,false,-1,1012,2,1,0,19096,task2,149817,false,true,166,image-keyboard-response,22
true,1,2,0,2,true,d,false,true,0.0-2.0-0.2-0.22-3.22,0,0,0,68,false,stim,false,-1,1625,2,0,1,19096,task2,152952,false,false,169,image-keyboard-response,23
true,1,0,0,0,true,q,false,true,0.0-2.0-0.2-0.23-3.23,0,0,0,81,false,stim,false,-1,514,2,0,2,19096,task2,154984,false,false,172,image-keyboard-response,24
true,1,2,0,2,true,d,false,true,0.0-2.0-0.2-0.24-3.24,0,0,0,68,false,stim,false,-1,766,2,0,1,19096,task2,157264,false,false,175,image-keyboard-response,25
true,1,1,0,2,false,d,true,false,0.0-2.0-0.2-0.25-3.25,0,0,0,90,false,stim,false,-1,823,2,1,0,19096,task2,159601,false,false,178,image-keyboard-response,26
true,2,0,2,1,false,z,false,true,0.0-2.0-0.2-0.26-3.26,1,0,0,81,true,stim,true,0,1025,2,0,2,19096,task2,162145,false,true,181,image-keyboard-response,1
true,2,0,2,1,false,z,false,false,0.0-2.0-0.3-0.27-3.27,1,0,0,81,false,stim,true,0,754,2,0,2,19096,task2,164408,false,false,184,image-keyboard-response,2
true,2,2,2,2,true,d,false,true,0.0-2.0-0.3-0.28-3.28,1,0,0,68,false,stim,false,2,940,2,1,0,19096,task2,166864,false,false,187,image-keyboard-response,3
true,2,2,2,2,true,d,false,true,0.0-2.0-0.3-0.29-3.29,1,0,0,68,false,stim,false,2,576,2,1,0,19096,task2,168951,false,false,190,image-keyboard-response,4
true,2,2,2,1,false,z,false,false,0.0-2.0-0.3-0.30-3.30,1,0,0,68,false,stim,true,2,419,2,0,1,19096,task2,170896,false,false,193,image-keyboard-response,5
true,2,2,2,1,false,z,false,false,0.0-2.0-0.3-0.31-3.31,1,0,0,68,false,stim,true,2,815,2,0,1,19096,task2,173239,false,false,196,image-keyboard-response,6
true,2,1,2,1,true,z,false,true,0.0-2.0-0.3-0.32-3.32,1,0,0,90,false,stim,false,2,364,2,0,1,19096,task2,175121,false,false,199,image-keyboard-response,7
true,2,2,2,2,true,d,false,true,0.0-2.0-0.3-0.33-3.33,1,0,0,68,false,stim,false,2,561,2,1,0,19096,task2,177200,false,false,202,image-keyboard-response,8
true,2,1,2,1,true,z,false,true,0.0-2.0-0.3-0.34-3.34,1,0,0,90,false,stim,false,0,1203,2,0,2,19096,task2,179912,false,false,205,image-keyboard-response,9
true,2,1,2,1,true,z,false,true,0.0-2.0-0.3-0.35-3.35,1,0,0,90,false,stim,false,0,800,2,0,2,19096,task2,182240,false,false,208,image-keyboard-response,10
true,2,1,2,1,true,z,false,true,0.0-2.0-0.4-0.36-3.36,1,0,0,90,false,stim,false,0,878,2,0,2,19096,task2,184632,false,false,211,image-keyboard-response,11
true,2,2,2,2,true,d,false,true,0.0-2.0-0.4-0.37-3.37,1,0,0,68,false,stim,false,2,890,2,1,0,19096,task2,187047,false,false,214,image-keyboard-response,12
true,2,1,2,1,true,z,false,true,0.0-2.0-0.4-0.38-3.38,1,0,0,90,false,stim,false,2,357,2,0,1,19096,task2,188912,false,false,217,image-keyboard-response,13
true,2,1,2,1,true,z,false,true,0.0-2.0-0.4-0.39-3.39,1,0,0,90,false,stim,false,0,1798,2,0,2,19096,task2,192224,false,false,220,image-keyboard-response,14
true,2,2,2,2,true,d,false,true,0.0-2.0-0.4-0.40-3.40,1,0,0,68,false,stim,false,2,407,2,1,0,19096,task2,194137,false,false,223,image-keyboard-response,15
true,2,1,2,1,true,z,false,true,0.0-2.0-0.4-0.41-3.41,1,0,0,90,false,stim,false,2,435,2,0,1,19096,task2,196089,false,false,226,image-keyboard-response,16
true,2,1,2,1,true,z,false,true,0.0-2.0-0.4-0.42-3.42,1,0,0,90,false,stim,false,2,408,2,0,1,19096,task2,198016,false,false,229,image-keyboard-response,17
true,2,1,2,1,true,z,false,true,0.0-2.0-0.4-0.43-3.43,1,0,0,90,false,stim,false,0,547,2,0,2,19096,task2,200072,false,false,232,image-keyboard-response,18
true,2,2,2,2,true,d,false,false,0.0-2.0-0.4-0.44-3.44,1,0,0,68,false,stim,false,2,663,2,1,0,19096,task2,202264,false,true,235,image-keyboard-response,19
true,2,1,2,1,true,z,false,true,0.0-2.0-0.5-0.45-3.45,1,0,0,90,false,stim,false,0,464,2,0,2,19096,task2,204249,false,false,238,image-keyboard-response,20
true,2,2,2,2,true,d,false,true,0.0-2.0-0.5-0.46-3.46,1,0,0,68,false,stim,false,2,644,2,1,0,19096,task2,206401,false,false,241,image-keyboard-response,21
true,2,1,2,1,true,z,false,true,0.0-2.0-0.5-0.47-3.47,1,0,0,90,false,stim,false,2,605,2,0,1,19096,task2,208528,false,false,244,image-keyboard-response,22
true,2,1,2,1,true,z,false,true,0.0-2.0-0.5-0.48-3.48,1,0,0,90,false,stim,false,2,365,2,0,1,19096,task2,210425,false,false,247,image-keyboard-response,23
true,2,1,2,1,true,z,false,true,0.0-2.0-0.5-0.49-3.49,1,0,0,90,false,stim,false,0,1146,2,0,2,19096,task2,213081,false,false,250,image-keyboard-response,24
true,2,2,2,2,true,d,false,true,0.0-2.0-0.5-0.50-3.50,1,0,0,68,false,stim,false,2,667,2,1,0,19096,task2,215256,false,false,253,image-keyboard-response,25
true,2,1,2,1,true,z,false,true,0.0-2.0-0.5-0.51-3.51,1,0,0,90,false,stim,false,2,680,2,0,1,19096,task2,217465,false,false,256,image-keyboard-response,26
true,2,2,2,2,true,d,false,true,0.0-2.0-0.5-0.52-3.52,1,0,0,68,false,stim,false,2,668,2,1,0,19096,task2,219640,false,false,259,image-keyboard-response,27
true,2,1,2,1,true,z,false,false,0.0-2.0-0.5-0.53-3.53,1,0,0,90,false,stim,false,0,390,2,0,2,19096,task2,221553,false,true,262,image-keyboard-response,28
true,2,2,2,2,true,d,false,true,0.0-2.0-0.6-0.54-3.54,1,0,0,68,false,stim,false,2,645,2,1,0,19096,task2,223704,false,false,265,image-keyboard-response,29
true,2,1,2,1,true,z,false,true,0.0-2.0-0.6-0.55-3.55,1,0,0,90,false,stim,false,2,622,2,1,1,19096,task2,225840,false,false,268,image-keyboard-response,30
true,2,1,2,1,true,z,false,true,0.0-2.0-0.6-0.56-3.56,1,0,0,90,false,stim,false,0,1059,2,0,2,19096,task2,228408,false,false,271,image-keyboard-response,31
true,2,1,2,1,true,z,false,true,0.0-2.0-0.6-0.57-3.57,1,0,0,90,false,stim,false,0,588,2,0,2,19096,task2,230520,false,false,274,image-keyboard-response,32
true,2,2,2,1,false,z,false,false,0.0-2.0-0.6-0.58-3.58,1,0,0,68,false,stim,true,2,2558,2,1,1,19096,task2,234584,false,false,277,image-keyboard-response,33
true,2,2,2,2,true,d,false,true,0.0-2.0-0.6-0.59-3.59,1,0,0,68,false,stim,false,2,688,2,0,0,19096,task2,236793,false,false,280,image-keyboard-response,34
true,3,1,2,0,false,q,false,false,0.0-2.0-0.6-0.60-3.60,0,1,0,90,true,stim,true,1,369,2,0,2,19096,task2,238680,false,false,283,image-keyboard-response,1
true,3,1,2,1,true,z,false,true,0.0-2.0-0.6-0.61-3.61,0,1,0,90,false,stim,false,1,363,2,1,1,19096,task2,240552,false,false,286,image-keyboard-response,2
true,3,2,2,1,false,z,false,false,0.0-2.0-0.6-0.62-3.62,0,1,0,68,false,stim,true,2,776,2,0,0,19096,task2,242848,false,false,289,image-keyboard-response,3
true,3,2,2,1,false,z,false,true,0.0-2.0-0.7-0.63-3.63,0,1,0,68,false,stim,true,2,607,2,0,0,19096,task2,244985,false,true,292,image-keyboard-response,4
true,3,2,2,1,false,z,false,false,0.0-2.0-0.7-0.64-3.64,0,1,0,68,false,stim,true,2,744,2,0,0,19096,task2,247248,false,false,295,image-keyboard-response,5
true,3,1,2,1,true,z,false,true,0.0-2.0-0.7-0.65-3.65,0,1,0,90,false,stim,false,2,558,2,0,0,19096,task2,249320,false,false,298,image-keyboard-response,6
true,3,2,2,0,false,q,true,false,0.0-2.0-0.7-0.66-3.66,0,1,0,68,false,stim,false,1,932,2,0,2,19096,task2,251776,false,false,301,image-keyboard-response,7
true,3,2,2,1,false,z,true,false,0.0-2.0-0.7-0.67-3.67,0,1,0,68,false,stim,false,1,1158,2,1,1,19096,task2,254449,false,false,304,image-keyboard-response,8
true,3,0,2,1,false,z,true,false,0.0-2.0-0.7-0.68-3.68,0,1,0,81,false,stim,false,1,778,2,1,1,19096,task2,256744,false,false,307,image-keyboard-response,9
true,3,1,2,0,false,q,false,false,0.0-2.0-0.7-0.69-3.69,0,1,0,90,false,stim,true,1,956,2,0,2,19096,task2,259217,false,false,310,image-keyboard-response,10
true,3,0,2,0,true,q,false,true,0.0-2.0-0.7-0.70-3.70,0,1,0,81,false,stim,false,1,440,2,0,2,19096,task2,261160,false,false,313,image-keyboard-response,11
true,3,2,2,1,false,z,true,false,0.0-2.0-0.7-0.71-3.71,0,1,0,68,false,stim,false,1,1348,2,1,1,19096,task2,264032,false,false,316,image-keyboard-response,12
true,3,1,2,1,true,z,false,true,0.0-2.0-0.8-0.72-3.72,0,1,0,90,false,stim,false,2,622,2,0,0,19096,task2,266176,false,false,319,image-keyboard-response,13
true,3,1,2,1,true,z,false,true,0.0-2.0-0.8-0.73-3.73,0,1,0,90,false,stim,false,2,620,2,0,0,19096,task2,268304,false,false,322,image-keyboard-response,14
true,3,0,2,0,true,q,false,true,0.0-2.0-0.8-0.74-3.74,0,1,0,81,false,stim,false,1,707,2,0,2,19096,task2,270536,false,false,325,image-keyboard-response,15
true,3,1,2,1,true,z,false,true,0.0-2.0-0.8-0.75-3.75,0,1,0,90,false,stim,false,2,1182,2,0,0,19096,task2,273224,false,false,328,image-keyboard-response,16
true,3,0,2,1,false,z,true,false,0.0-2.0-0.8-0.76-3.76,0,1,0,81,false,stim,false,1,950,2,1,1,19096,task2,275696,false,false,331,image-keyboard-response,17
true,3,1,2,1,true,z,false,true,0.0-2.0-0.8-0.77-3.77,0,1,0,90,false,stim,false,1,1251,2,1,1,19096,task2,278464,false,false,334,image-keyboard-response,18
true,3,1,2,1,true,z,false,true,0.0-2.0-0.8-0.78-3.78,0,1,0,90,false,stim,false,1,1362,2,1,1,19096,task2,281336,false,false,337,image-keyboard-response,19
true,3,0,2,0,true,q,false,true,0.0-2.0-0.8-0.79-3.79,0,1,0,81,false,stim,false,1,559,2,0,2,19096,task2,283401,false,false,340,image-keyboard-response,20
true,3,0,2,0,true,q,false,true,0.0-2.0-0.8-0.80-3.80,0,1,0,81,false,stim,false,1,757,2,0,2,19096,task2,285664,false,false,343,image-keyboard-response,21
true,3,0,2,0,true,q,false,true,0.0-2.0-0.9-0.81-3.81,0,1,0,81,false,stim,false,1,706,2,0,2,19096,task2,287880,false,false,346,image-keyboard-response,22
true,3,0,2,0,true,q,false,true,0.0-2.0-0.9-0.82-3.82,0,1,0,81,false,stim,false,1,619,2,0,2,19096,task2,290024,false,false,349,image-keyboard-response,23
true,3,1,2,1,true,z,false,true,0.0-2.0-0.9-0.83-3.83,0,1,0,90,false,stim,false,2,670,2,0,0,19096,task2,292208,false,false,352,image-keyboard-response,24
true,3,1,2,1,true,z,false,true,0.0-2.0-0.9-0.84-3.84,0,1,0,90,false,stim,false,1,1234,2,1,1,19096,task2,294968,false,false,355,image-keyboard-response,25
true,3,1,2,1,true,z,false,true,0.0-2.0-0.9-0.85-3.85,0,1,0,90,false,stim,false,2,1798,2,0,0,19096,task2,298280,false,false,358,image-keyboard-response,26
true,3,1,2,1,true,z,false,true,0.0-2.0-0.9-0.86-3.86,0,1,0,90,false,stim,false,1,612,2,1,1,19096,task2,300416,false,false,361,image-keyboard-response,27
true,3,1,2,1,true,z,false,true,0.0-2.0-0.9-0.87-3.87,0,1,0,90,false,stim,false,2,724,2,0,0,19096,task2,302664,false,false,364,image-keyboard-response,28
true,3,1,2,1,true,z,false,true,0.0-2.0-0.9-0.88-3.88,0,1,0,90,false,stim,false,1,1037,2,0,1,19096,task2,305216,false,false,367,image-keyboard-response,29
true,3,0,2,0,true,q,false,true,0.0-2.0-0.9-0.89-3.89,0,1,0,81,false,stim,false,1,1165,2,0,2,19096,task2,307896,false,false,370,image-keyboard-response,30
true,3,1,2,1,true,z,false,true,0.0-2.0-0.10-0.90-3.90,0,1,0,90,false,stim,false,2,594,2,0,0,19096,task2,310008,false,false,373,image-keyboard-response,31
true,3,0,2,0,true,q,false,true,0.0-2.0-0.10-0.91-3.91,0,1,0,81,false,stim,false,1,929,2,0,2,19096,task2,312457,false,false,376,image-keyboard-response,32
true,4,1,1,2,false,d,false,false,0.0-2.0-0.10-0.92-3.92,0,0,0,90,true,stim,true,1,929,2,0,0,19096,task2,314896,false,false,379,image-keyboard-response,1
true,4,0,1,2,false,d,false,true,0.0-2.0-0.10-0.93-3.93,0,0,0,81,false,stim,true,0,811,2,0,2,19096,task2,317216,false,true,382,image-keyboard-response,2
true,4,0,1,2,false,d,false,false,0.0-2.0-0.10-0.94-3.94,0,0,0,81,false,stim,true,0,974,2,0,2,19096,task2,319704,false,false,385,image-keyboard-response,3
true,4,1,1,0,false,q,false,false,0.0-2.0-0.10-0.95-3.95,0,0,0,90,false,stim,true,1,628,2,0,1,19096,task2,321848,false,false,388,image-keyboard-response,4
true,4,2,1,2,true,d,false,false,0.0-2.0-0.10-0.96-3.96,0,0,0,68,false,stim,false,1,1196,2,0,0,19096,task2,324569,false,true,391,image-keyboard-response,5
true,4,1,1,0,false,q,false,false,0.0-2.0-0.10-0.97-3.97,0,0,0,90,false,stim,true,1,1624,2,0,1,19096,task2,327713,false,false,394,image-keyboard-response,6
true,4,2,1,0,false,q,true,false,0.0-2.0-0.10-0.98-3.98,0,0,0,68,false,stim,false,1,419,2,0,1,19096,task2,329648,false,false,397,image-keyboard-response,7
true,4,0,1,0,true,q,false,true,0.0-2.0-0.11-0.99-3.99,0,0,0,81,false,stim,false,1,441,2,0,1,19096,task2,331608,false,false,400,image-keyboard-response,8
true,4,1,1,2,false,d,false,false,0.0-2.0-0.11-0.100-3.100,0,0,0,90,false,stim,true,1,1326,2,0,0,19096,task2,334464,false,false,403,image-keyboard-response,9
true,4,0,1,2,false,d,true,false,0.0-2.0-0.11-0.101-3.101,0,0,0,81,false,stim,false,1,528,2,0,0,19096,task2,336496,false,false,406,image-keyboard-response,10
true,4,0,1,0,true,q,false,true,0.0-2.0-0.11-0.102-3.102,0,0,0,81,false,stim,false,1,882,2,0,1,19096,task2,338896,false,false,409,image-keyboard-response,11
true,4,0,1,0,true,q,false,true,0.0-2.0-0.11-0.103-3.103,0,0,0,81,false,stim,false,1,888,2,0,1,19096,task2,341296,false,false,412,image-keyboard-response,12
true,4,1,1,2,false,d,true,false,0.0-2.0-0.11-0.104-3.104,0,0,0,90,false,stim,false,0,782,2,0,2,19096,task2,343592,false,false,415,image-keyboard-response,13
true,4,2,1,2,true,d,false,true,0.0-2.0-0.11-0.105-3.105,0,0,0,68,false,stim,false,1,1854,2,0,0,19096,task2,346968,false,false,418,image-keyboard-response,14
true,4,2,1,2,true,d,false,true,0.0-2.0-0.11-0.106-3.106,0,0,0,68,false,stim,false,0,1026,2,0,2,19096,task2,349520,false,false,421,image-keyboard-response,15
true,4,2,1,2,true,d,false,true,0.0-2.0-0.11-0.107-3.107,0,0,0,68,false,stim,false,0,828,2,0,2,19096,task2,351872,false,false,424,image-keyboard-response,16
true,4,2,1,2,true,d,false,true,0.0-2.0-0.12-0.108-3.108,0,0,0,68,false,stim,false,0,504,2,0,2,19096,task2,353889,false,false,427,image-keyboard-response,17
true,4,2,1,2,true,d,false,true,0.0-2.0-0.12-0.109-3.109,0,0,0,68,false,stim,false,1,2739,2,0,0,19096,task2,358143,false,false,430,image-keyboard-response,18
true,4,2,1,2,true,d,false,true,0.0-2.0-0.12-0.110-3.110,0,0,0,68,false,stim,false,1,551,2,0,0,19096,task2,360216,false,false,433,image-keyboard-response,19
true,4,0,1,0,true,q,false,false,0.0-2.0-0.12-0.111-3.111,0,0,0,81,false,stim,false,1,566,2,0,1,19096,task2,362296,false,true,436,image-keyboard-response,20
true,4,1,1,0,false,q,false,false,0.0-2.0-0.12-0.112-3.112,0,0,0,90,false,stim,true,1,622,2,0,1,19096,task2,364432,false,false,439,image-keyboard-response,21
true,4,0,1,0,true,q,false,true,0.0-2.0-0.12-0.113-3.113,0,0,0,81,false,stim,false,1,416,2,0,1,19096,task2,366360,false,false,442,image-keyboard-response,22
true,4,2,1,2,true,d,false,true,0.0-2.0-0.12-0.114-3.114,0,0,0,68,false,stim,false,0,633,2,0,2,19096,task2,368512,false,false,445,image-keyboard-response,23
true,4,2,1,2,true,d,false,true,0.0-2.0-0.12-0.115-3.115,0,0,0,68,false,stim,false,1,1957,2,0,0,19096,task2,371984,false,false,448,image-keyboard-response,24
true,4,2,1,2,true,d,false,true,0.0-2.0-0.12-0.116-3.116,0,0,0,68,false,stim,false,0,439,2,0,2,19096,task2,373952,false,false,451,image-keyboard-response,25
true,4,0,1,0,true,q,false,true,0.0-2.0-0.13-0.117-3.117,0,0,0,81,false,stim,false,1,999,2,0,1,19096,task2,376456,false,false,454,image-keyboard-response,26
true,4,2,1,2,true,d,false,true,0.0-2.0-0.13-0.118-3.118,0,0,0,68,false,stim,false,0,645,2,0,2,19096,task2,378608,false,false,457,image-keyboard-response,27
true,4,2,1,2,true,d,false,true,0.0-2.0-0.13-0.119-3.119,0,0,0,68,false,stim,false,1,957,2,0,0,19096,task2,381089,false,false,460,image-keyboard-response,28
true,4,2,1,2,true,d,false,true,0.0-2.0-0.13-0.120-3.120,0,0,0,68,false,stim,false,1,1083,2,0,0,19096,task2,383680,false,false,463,image-keyboard-response,29
true,4,2,1,2,true,d,false,true,0.0-2.0-0.13-0.121-3.121,0,0,0,68,false,stim,false,1,808,2,0,0,19096,task2,386008,false,false,466,image-keyboard-response,30
true,4,2,1,2,true,d,false,true,0.0-2.0-0.13-0.122-3.122,0,0,0,68,false,stim,false,0,707,2,0,2,19096,task2,388231,false,false,469,image-keyboard-response,31
true,4,0,1,0,true,q,false,true,0.0-2.0-0.13-0.123-3.123,0,0,0,81,false,stim,false,1,434,2,0,1,19096,task2,390184,false,false,472,image-keyboard-response,32
true,4,0,1,0,true,q,false,true,0.0-2.0-0.13-0.124-3.124,0,0,0,81,false,stim,false,1,867,2,0,1,19096,task2,392560,false,false,475,image-keyboard-response,33
true,4,2,1,2,true,d,false,true,0.0-2.0-0.13-0.125-3.125,0,0,0,68,false,stim,false,0,668,2,0,2,19096,task2,394736,false,false,478,image-keyboard-response,34
true,5,2,1,0,false,q,false,false,0.0-2.0-0.14-0.126-3.126,0,0,0,68,true,stim,true,2,512,2,0,2,19096,task2,396752,false,false,481,image-keyboard-response,1
true,5,2,1,1,false,z,false,false,0.0-2.0-0.14-0.127-3.127,0,0,0,68,false,stim,true,2,1627,2,0,0,19096,task2,399896,false,false,484,image-keyboard-response,2
true,5,0,1,2,false,d,false,false,0.0-2.0-0.14-0.128-3.128,0,0,0,81,false,stim,true,0,1146,2,0,1,19096,task2,402560,false,false,487,image-keyboard-response,3
true,5,0,1,2,false,d,false,false,0.0-2.0-0.14-0.129-3.129,0,0,0,81,false,stim,true,0,463,2,0,1,19096,task2,404543,false,false,490,image-keyboard-response,4
true,5,0,1,1,false,z,true,false,0.0-2.0-0.14-0.130-3.130,0,0,0,81,false,stim,false,2,1289,2,0,0,19096,task2,407344,false,false,493,image-keyboard-response,5
true,5,1,1,0,false,q,true,false,0.0-2.0-0.14-0.131-3.131,0,0,0,90,false,stim,false,2,1127,2,0,2,19096,task2,409975,false,false,496,image-keyboard-response,6
true,5,1,1,1,true,z,false,true,0.0-2.0-0.14-0.132-3.132,0,0,0,90,false,stim,false,2,1008,2,0,0,19096,task2,412496,false,false,499,image-keyboard-response,7
true,5,2,1,0,false,q,false,false,0.0-2.0-0.14-0.133-3.133,0,0,0,68,false,stim,true,2,947,2,0,2,19096,task2,414969,false,false,502,image-keyboard-response,8
true,5,2,1,2,true,d,false,true,0.0-2.0-0.14-0.134-3.134,0,0,0,68,false,stim,false,0,1256,2,0,1,19096,task2,417736,false,false,505,image-keyboard-response,9
true,5,0,1,0,true,q,false,true,0.0-2.0-0.15-0.135-3.135,0,0,0,81,false,stim,false,2,1233,2,0,2,19096,task2,420488,false,false,508,image-keyboard-response,10
true,5,2,1,2,true,d,false,true,0.0-2.0-0.15-0.136-3.136,0,0,0,68,false,stim,false,0,1124,2,0,1,19096,task2,423128,false,false,511,image-keyboard-response,11
true,5,1,1,1,true,z,false,true,0.0-2.0-0.15-0.137-3.137,0,0,0,90,false,stim,false,2,800,2,0,0,19096,task2,425440,false,false,514,image-keyboard-response,12
true,5,1,1,1,true,z,false,true,0.0-2.0-0.15-0.138-3.138,0,0,0,90,false,stim,false,2,768,2,0,0,19096,task2,427736,false,false,517,image-keyboard-response,13
true,5,2,1,2,true,d,false,true,0.0-2.0-0.15-0.139-3.139,0,0,0,68,false,stim,false,0,704,2,0,1,19096,task2,429968,false,false,520,image-keyboard-response,14
true,5,0,1,0,true,q,false,true,0.0-2.0-0.15-0.140-3.140,0,0,0,81,false,stim,false,2,489,2,0,2,19096,task2,431976,false,false,523,image-keyboard-response,15
true,5,0,1,0,true,q,false,true,0.0-2.0-0.15-0.141-3.141,0,0,0,81,false,stim,false,2,649,2,0,2,19096,task2,434136,false,false,526,image-keyboard-response,16
true,5,2,1,2,true,d,false,true,0.0-2.0-0.15-0.142-3.142,0,0,0,68,false,stim,false,0,595,2,0,1,19096,task2,436248,false,false,529,image-keyboard-response,17
true,5,1,1,1,true,z,false,true,0.0-2.0-0.15-0.143-3.143,0,0,0,90,false,stim,false,2,399,2,0,0,19096,task2,438159,false,false,532,image-keyboard-response,18
true,5,2,1,2,true,d,false,true,0.0-2.0-0.16-0.144-3.144,0,0,0,68,false,stim,false,0,1945,2,0,1,19096,task2,441623,false,false,535,image-keyboard-response,19
true,5,0,1,0,true,q,false,true,0.0-2.0-0.16-0.145-3.145,0,0,0,81,false,stim,false,2,659,2,0,2,19096,task2,443800,false,false,538,image-keyboard-response,20
true,5,1,1,1,true,z,false,false,0.0-2.0-0.16-0.146-3.146,0,0,0,90,false,stim,false,2,1253,2,0,0,19096,task2,446568,false,true,541,image-keyboard-response,21
true,5,2,1,2,true,d,false,true,0.0-2.0-0.16-0.147-3.147,0,0,0,68,false,stim,false,0,1687,2,0,1,19096,task2,449767,false,false,544,image-keyboard-response,22
true,5,0,1,0,true,q,false,true,0.0-2.0-0.16-0.148-3.148,0,0,0,81,false,stim,false,2,408,2,0,2,19096,task2,451695,false,false,547,image-keyboard-response,23
true,5,0,1,0,true,q,false,true,0.0-2.0-0.16-0.149-3.149,0,0,0,81,false,stim,false,2,842,2,0,2,19096,task2,454048,false,false,550,image-keyboard-response,24
true,5,2,1,2,true,d,false,true,0.0-2.0-0.16-0.150-3.150,0,0,0,68,false,stim,false,0,806,2,0,1,19096,task2,456367,false,false,553,image-keyboard-response,25
true,5,1,1,1,true,z,false,true,0.0-2.0-0.16-0.151-3.151,0,0,0,90,false,stim,false,2,493,2,0,0,19096,task2,458384,false,false,556,image-keyboard-response,26
true,5,1,1,1,true,z,false,true,0.0-2.0-0.16-0.152-3.152,0,0,0,90,false,stim,false,2,659,2,0,0,19096,task2,460560,false,false,559,image-keyboard-response,27
true,5,1,1,1,true,z,false,true,0.0-2.0-0.17-0.153-3.153,0,0,0,90,false,stim,false,2,585,2,0,0,19096,task2,462648,false,false,562,image-keyboard-response,28
true,5,2,1,2,true,d,false,true,0.0-2.0-0.17-0.154-3.154,0,0,0,68,false,stim,false,0,1501,2,0,1,19096,task2,465664,false,false,565,image-keyboard-response,29
true,5,2,1,2,true,d,false,true,0.0-2.0-0.17-0.155-3.155,0,0,0,68,false,stim,false,0,635,2,0,1,19096,task2,467824,false,false,568,image-keyboard-response,30
true,5,0,1,0,true,q,false,true,0.0-2.0-0.17-0.156-3.156,0,0,0,81,false,stim,false,2,729,2,0,2,19096,task2,470072,false,false,571,image-keyboard-response,31
true,5,0,1,0,true,q,false,false,0.0-2.0-0.17-0.157-3.157,0,0,0,81,false,stim,false,2,785,2,0,2,19096,task2,472360,false,true,574,image-keyboard-response,32
true,5,0,1,0,true,q,false,true,0.0-2.0-0.17-0.158-3.158,0,0,0,81,false,stim,false,2,607,2,1,2,19096,task2,474496,false,false,577,image-keyboard-response,33
true,5,2,1,2,true,d,false,true,0.0-2.0-0.17-0.159-3.159,0,0,0,68,false,stim,false,0,641,2,0,1,19096,task2,476647,false,false,580,image-keyboard-response,34
true,5,1,1,1,true,z,false,true,0.0-2.0-0.17-0.160-3.160,0,0,0,90,false,stim,false,2,451,2,0,0,19096,task2,478624,false,false,583,image-keyboard-response,35
true,5,1,1,1,true,z,false,true,0.0-2.0-0.17-0.161-3.161,0,0,0,90,false,stim,false,2,637,2,0,0,19096,task2,480792,false,false,586,image-keyboard-response,36
true,5,2,1,2,true,d,false,true,0.0-2.0-0.18-0.162-3.162,0,0,0,68,false,stim,false,0,1912,2,0,1,19096,task2,484224,false,false,589,image-keyboard-response,37
true,6,0,2,0,true,q,false,true,0.0-2.0-0.18-0.163-3.163,0,0,1,81,true,stim,false,0,1216,2,1,2,19096,task2,486960,false,false,592,image-keyboard-response,1
true,6,2,2,1,false,z,false,true,0.0-2.0-0.18-0.164-3.164,0,0,1,68,false,stim,true,2,1292,2,0,1,19096,task2,489767,false,true,595,image-keyboard-response,2
true,6,2,2,1,false,z,false,false,0.0-2.0-0.18-0.165-3.165,0,0,1,68,false,stim,true,2,2225,2,0,1,19096,task2,493504,false,false,598,image-keyboard-response,3
true,6,1,2,0,false,q,false,false,0.0-2.0-0.18-0.166-3.166,0,0,1,90,false,stim,true,1,872,2,0,0,19096,task2,495904,false,false,601,image-keyboard-response,4
true,6,0,2,0,true,q,false,true,0.0-2.0-0.18-0.167-3.167,0,0,1,81,false,stim,false,0,1301,2,1,2,19096,task2,498720,false,false,604,image-keyboard-response,5
true,6,1,2,0,false,q,false,false,0.0-2.0-0.18-0.168-3.168,0,0,1,90,false,stim,true,1,592,2,0,0,19096,task2,500840,false,false,607,image-keyboard-response,6
true,6,0,2,0,true,q,false,true,0.0-2.0-0.18-0.169-3.169,0,0,1,81,false,stim,false,0,886,2,1,2,19096,task2,503248,false,false,610,image-keyboard-response,7
true,6,2,2,0,false,q,true,false,0.0-2.0-0.18-0.170-3.170,0,0,1,68,false,stim,false,1,884,2,0,0,19096,task2,505647,false,false,613,image-keyboard-response,8
true,6,0,2,0,true,q,false,true,0.0-2.0-0.19-0.171-3.171,0,0,1,81,false,stim,false,1,540,2,0,0,19096,task2,507703,false,false,616,image-keyboard-response,9
true,6,0,2,0,true,q,false,true,0.0-2.0-0.19-0.172-3.172,0,0,1,81,false,stim,false,0,433,2,1,2,19096,task2,509648,false,false,619,image-keyboard-response,10
true,6,1,2,1,true,z,false,true,0.0-2.0-0.19-0.173-3.173,0,0,1,90,false,stim,false,2,1112,2,0,1,19096,task2,512272,false,false,622,image-keyboard-response,11
true,6,0,2,0,true,q,false,true,0.0-2.0-0.19-0.174-3.174,0,0,1,81,false,stim,false,0,764,2,1,2,19096,task2,514552,false,false,625,image-keyboard-response,12
true,6,1,2,1,true,z,false,true,0.0-2.0-0.19-0.175-3.175,0,0,1,90,false,stim,false,2,928,2,0,1,19096,task2,516992,false,false,628,image-keyboard-response,13
true,6,0,2,0,true,q,false,true,0.0-2.0-0.19-0.176-3.176,0,0,1,81,false,stim,false,0,792,2,1,2,19096,task2,519295,false,false,631,image-keyboard-response,14
true,6,0,2,0,true,q,false,true,0.0-2.0-0.19-0.177-3.177,0,0,1,81,false,stim,false,1,659,2,0,0,19096,task2,521471,false,false,634,image-keyboard-response,15
true,6,1,2,1,true,z,false,true,0.0-2.0-0.19-0.178-3.178,0,0,1,90,false,stim,false,2,1312,2,0,1,19096,task2,524296,false,false,637,image-keyboard-response,16
true,6,0,2,0,true,q,false,true,0.0-2.0-0.19-0.179-3.179,0,0,1,81,false,stim,false,1,906,2,0,0,19096,task2,526728,false,false,640,image-keyboard-response,17
true,6,1,2,1,true,z,false,false,0.0-2.0-0.20-0.180-3.180,0,0,1,90,false,stim,false,2,980,2,0,1,19096,task2,529216,false,true,643,image-keyboard-response,18
true,6,0,2,0,true,q,false,true,0.0-2.0-0.20-0.181-3.181,0,0,1,81,false,stim,false,0,528,2,1,2,19096,task2,531255,false,false,646,image-keyboard-response,19
true,6,1,2,1,true,z,false,false,0.0-2.0-0.20-0.182-3.182,0,0,1,90,false,stim,false,2,385,2,0,1,19096,task2,533168,false,true,649,image-keyboard-response,20
true,6,0,2,0,true,q,false,true,0.0-2.0-0.20-0.183-3.183,0,0,1,81,false,stim,false,1,1312,2,0,0,19096,task2,536000,false,false,652,image-keyboard-response,21
true,6,0,2,0,true,q,false,true,0.0-2.0-0.20-0.184-3.184,0,0,1,81,false,stim,false,0,654,2,1,2,19096,task2,538176,false,false,655,image-keyboard-response,22
true,6,0,2,0,true,q,false,true,0.0-2.0-0.20-0.185-3.185,0,0,1,81,false,stim,false,0,920,2,1,2,19096,task2,540600,false,false,658,image-keyboard-response,23
true,6,0,2,0,true,q,false,true,0.0-2.0-0.20-0.186-3.186,0,0,1,81,false,stim,false,1,597,2,0,0,19096,task2,542703,false,false,661,image-keyboard-response,24
true,6,0,2,0,true,q,false,true,0.0-2.0-0.20-0.187-3.187,0,0,1,81,false,stim,false,1,622,2,0,0,19096,task2,544855,false,false,664,image-keyboard-response,25
true,6,2,2,1,false,z,false,false,0.0-2.0-0.20-0.188-3.188,0,0,1,68,false,stim,true,2,839,2,0,1,19096,task2,547215,false,false,667,image-keyboard-response,26
true,6,0,2,1,false,z,true,false,0.0-2.0-0.21-0.189-3.189,0,0,1,81,false,stim,false,2,719,2,0,1,19096,task2,549448,false,false,670,image-keyboard-response,27
true,6,0,2,0,true,q,false,true,0.0-2.0-0.21-0.190-3.190,0,0,1,81,false,stim,false,1,807,2,1,0,19096,task2,551776,false,false,673,image-keyboard-response,28
true,6,0,2,0,true,q,false,true,0.0-2.0-0.21-0.191-3.191,0,0,1,81,false,stim,false,0,546,2,0,2,19096,task2,553840,false,false,676,image-keyboard-response,29
true,6,0,2,0,true,q,false,true,0.0-2.0-0.21-0.192-3.192,0,0,1,81,false,stim,false,0,941,2,0,2,19096,task2,556288,false,false,679,image-keyboard-response,30
true,6,0,2,1,false,z,true,false,0.0-2.0-0.21-0.193-3.193,0,0,1,81,false,stim,false,2,425,2,0,1,19096,task2,558232,false,false,682,image-keyboard-response,31
true,6,0,2,0,true,q,false,true,0.0-2.0-0.21-0.194-3.194,0,0,1,81,false,stim,false,0,606,2,0,2,19096,task2,560360,false,false,685,image-keyboard-response,32
true,7,1,2,0,false,q,false,false,0.0-2.0-0.21-0.195-3.195,1,0,0,90,true,stim,true,1,934,2,0,1,19096,task2,562816,false,false,688,image-keyboard-response,1
true,7,0,2,0,true,q,false,false,0.0-2.0-0.21-0.196-3.196,1,0,0,81,false,stim,false,0,588,2,1,0,19096,task2,564920,false,true,691,image-keyboard-response,2
true,7,0,2,0,true,q,false,true,0.0-2.0-0.21-0.197-3.197,1,0,0,81,false,stim,false,0,467,2,1,0,19096,task2,566895,false,false,694,image-keyboard-response,3
true,7,2,2,0,false,q,true,true,0.0-2.0-0.22-0.198-3.198,1,0,0,68,false,stim,false,1,903,2,0,1,19096,task2,569320,false,true,697,image-keyboard-response,4
true,7,0,2,1,false,z,false,false,0.0-2.0-0.22-0.199-3.199,1,0,0,81,false,stim,true,0,513,2,0,2,19096,task2,571359,false,false,700,image-keyboard-response,5
true,7,0,2,0,true,q,false,false,0.0-2.0-0.22-0.200-3.200,1,0,0,81,false,stim,false,0,822,2,1,0,19096,task2,573704,false,true,703,image-keyboard-response,6
true,7,2,2,0,false,q,true,false,0.0-2.0-0.22-0.201-3.201,1,0,0,68,false,stim,false,1,1786,2,0,1,19096,task2,577000,false,false,706,image-keyboard-response,7
true,7,1,2,0,false,q,true,false,0.0-2.0-0.22-0.202-3.202,1,0,0,90,false,stim,false,0,523,2,1,0,19096,task2,579047,false,false,709,image-keyboard-response,8
true,7,2,2,0,false,q,true,false,0.0-2.0-0.22-0.203-3.203,1,0,0,68,false,stim,false,1,1153,2,0,1,19096,task2,581728,false,false,712,image-keyboard-response,9
true,7,1,2,1,true,z,false,true,0.0-2.0-0.22-0.204-3.204,1,0,0,90,false,stim,false,0,670,2,0,2,19096,task2,583919,false,false,715,image-keyboard-response,10
true,7,1,2,0,false,q,true,false,0.0-2.0-0.22-0.205-3.205,1,0,0,90,false,stim,false,0,1554,2,1,0,19096,task2,586983,false,false,718,image-keyboard-response,11
true,7,1,2,1,true,z,false,true,0.0-2.0-0.22-0.206-3.206,1,0,0,90,false,stim,false,0,622,2,0,2,19096,task2,589119,false,false,721,image-keyboard-response,12
true,7,1,2,1,true,z,false,true,0.0-2.0-0.23-0.207-3.207,1,0,0,90,false,stim,false,0,549,2,0,2,19096,task2,591184,false,false,724,image-keyboard-response,13
true,7,1,2,1,true,z,false,true,0.0-2.0-0.23-0.208-3.208,1,0,0,90,false,stim,false,0,603,2,0,2,19096,task2,593312,false,false,727,image-keyboard-response,14
true,7,2,2,0,false,q,true,false,0.0-2.0-0.23-0.209-3.209,1,0,0,68,false,stim,false,0,539,2,1,0,19096,task2,595375,false,false,730,image-keyboard-response,15
true,7,0,2,0,true,q,false,false,0.0-2.0-0.23-0.210-3.210,1,0,0,81,false,stim,false,0,540,2,1,0,19096,task2,597432,false,true,733,image-keyboard-response,16
true,7,2,2,0,false,q,true,false,0.0-2.0-0.23-0.211-3.211,1,0,0,68,false,stim,false,1,1655,2,0,1,19096,task2,600616,false,false,736,image-keyboard-response,17
true,7,1,2,0,false,q,false,false,0.0-2.0-0.23-0.212-3.212,1,0,0,90,false,stim,true,1,437,2,0,1,19096,task2,602567,false,false,739,image-keyboard-response,18
true,7,1,2,0,false,q,true,false,0.0-2.0-0.23-0.213-3.213,1,0,0,90,false,stim,false,0,740,2,1,0,19096,task2,604831,false,false,742,image-keyboard-response,19
true,7,1,2,1,true,z,false,false,0.0-2.0-0.23-0.214-3.214,1,0,0,90,false,stim,false,0,620,2,0,2,19096,task2,606968,false,true,745,image-keyboard-response,20
true,7,0,2,0,true,q,false,true,0.0-2.0-0.23-0.215-3.215,1,0,0,81,false,stim,false,1,378,2,0,1,19096,task2,608856,false,false,748,image-keyboard-response,21
true,7,0,2,0,true,q,false,true,0.0-2.0-0.24-0.216-3.216,1,0,0,81,false,stim,false,1,681,2,0,1,19096,task2,611064,false,false,751,image-keyboard-response,22
true,7,1,2,1,true,z,false,true,0.0-2.0-0.24-0.217-3.217,1,0,0,90,false,stim,false,0,1136,2,0,2,19096,task2,613711,false,false,754,image-keyboard-response,23
true,7,1,2,1,true,z,false,true,0.0-2.0-0.24-0.218-3.218,1,0,0,90,false,stim,false,0,720,2,0,2,19096,task2,615960,false,false,757,image-keyboard-response,24
true,7,1,2,0,false,q,true,false,0.0-2.0-0.24-0.219-3.219,1,0,0,90,false,stim,false,0,1254,2,1,0,19096,task2,618719,false,false,760,image-keyboard-response,25
true,7,2,2,0,false,q,true,false,0.0-2.0-0.24-0.220-3.220,1,0,0,68,false,stim,false,0,400,2,1,0,19096,task2,620632,false,false,763,image-keyboard-response,26
true,7,0,2,0,true,q,false,false,0.0-2.0-0.24-0.221-3.221,1,0,0,81,false,stim,false,1,970,2,0,1,19096,task2,623112,false,true,766,image-keyboard-response,27
true,7,0,2,0,true,q,false,true,0.0-2.0-0.24-0.222-3.222,1,0,0,81,false,stim,false,0,959,2,1,0,19096,task2,625576,false,false,769,image-keyboard-response,28
true,7,0,2,0,true,q,false,true,0.0-2.0-0.24-0.223-3.223,1,0,0,81,false,stim,false,1,390,2,0,1,19096,task2,627495,false,false,772,image-keyboard-response,29
true,7,1,2,1,true,z,false,true,0.0-2.0-0.24-0.224-3.224,1,0,0,90,false,stim,false,0,381,2,0,2,19096,task2,629392,false,false,775,image-keyboard-response,30
true,7,1,2,1,true,z,false,true,0.0-2.0-0.25-0.225-3.225,1,0,0,90,false,stim,false,0,833,2,0,2,19096,task2,631751,false,false,778,image-keyboard-response,31
true,7,0,2,0,true,q,false,true,0.0-2.0-0.25-0.226-3.226,1,0,0,81,false,stim,false,0,857,2,0,0,19096,task2,634127,false,false,781,image-keyboard-response,32
true,7,0,2,0,true,q,false,true,0.0-2.0-0.25-0.227-3.227,1,0,0,81,false,stim,false,1,394,2,0,1,19096,task2,636040,false,false,784,image-keyboard-response,33
true,7,1,2,1,true,z,false,true,0.0-2.0-0.25-0.228-3.228,1,0,0,90,false,stim,false,0,390,2,0,2,19096,task2,637936,false,false,787,image-keyboard-response,34
true,8,1,1,2,false,d,false,false,0.0-2.0-0.25-0.229-3.229,0,0,0,90,true,stim,true,1,993,2,0,2,19096,task2,640456,false,false,790,image-keyboard-response,1
true,8,0,1,1,false,z,false,false,0.0-2.0-0.25-0.230-3.230,0,0,0,81,false,stim,true,0,1063,2,0,0,19096,task2,643039,false,false,793,image-keyboard-response,2
true,8,0,1,1,false,z,false,false,0.0-2.0-0.25-0.231-3.231,0,0,0,81,false,stim,true,0,632,2,0,0,19096,task2,645199,false,false,796,image-keyboard-response,3
true,8,0,1,2,false,d,false,false,0.0-2.0-0.25-0.232-3.232,0,0,0,81,false,stim,true,0,826,2,0,1,19096,task2,647536,false,false,799,image-keyboard-response,4
true,8,1,1,2,false,d,true,false,0.0-2.0-0.25-0.233-3.233,0,0,0,90,false,stim,false,0,561,2,0,1,19096,task2,649623,false,false,802,image-keyboard-response,5
true,8,2,1,2,true,d,false,true,0.0-2.0-0.26-0.234-3.234,0,0,0,68,false,stim,false,0,429,2,0,1,19096,task2,651576,false,false,805,image-keyboard-response,6
true,8,1,1,2,false,d,false,false,0.0-2.0-0.26-0.235-3.235,0,0,0,90,false,stim,true,1,811,2,0,2,19096,task2,653904,false,false,808,image-keyboard-response,7
true,8,0,1,2,false,d,true,false,0.0-2.0-0.26-0.236-3.236,0,0,0,81,false,stim,false,1,478,2,0,2,19096,task2,655912,false,false,811,image-keyboard-response,8
true,8,2,1,2,true,d,false,true,0.0-2.0-0.26-0.237-3.237,0,0,0,68,false,stim,false,0,954,2,0,1,19096,task2,658376,false,false,814,image-keyboard-response,9
true,8,2,1,2,true,d,false,true,0.0-2.0-0.26-0.238-3.238,0,0,0,68,false,stim,false,0,644,2,0,1,19096,task2,660527,false,false,817,image-keyboard-response,10
true,8,1,1,1,true,z,false,true,0.0-2.0-0.26-0.239-3.239,0,0,0,90,false,stim,false,0,1241,2,0,0,19096,task2,663279,false,false,820,image-keyboard-response,11
true,8,1,1,1,true,z,false,true,0.0-2.0-0.26-0.240-3.240,0,0,0,90,false,stim,false,0,718,2,0,0,19096,task2,665519,false,false,823,image-keyboard-response,12
true,8,1,1,1,true,z,false,true,0.0-2.0-0.26-0.241-3.241,0,0,0,90,false,stim,false,0,515,2,0,0,19096,task2,667544,false,false,826,image-keyboard-response,13
true,8,2,1,2,true,d,false,true,0.0-2.0-0.26-0.242-3.242,0,0,0,68,false,stim,false,1,524,2,0,2,19096,task2,669591,false,false,829,image-keyboard-response,14
true,8,2,1,2,true,d,false,true,0.0-2.0-0.27-0.243-3.243,0,0,0,68,false,stim,false,1,596,2,0,2,19096,task2,671704,false,false,832,image-keyboard-response,15
true,8,1,1,1,true,z,false,true,0.0-2.0-0.27-0.244-3.244,0,0,0,90,false,stim,false,0,835,2,0,0,19096,task2,674048,false,false,835,image-keyboard-response,16
true,8,1,1,1,true,z,false,false,0.0-2.0-0.27-0.245-3.245,0,0,0,90,false,stim,false,0,533,2,0,0,19096,task2,676087,false,true,838,image-keyboard-response,17
true,8,2,1,2,true,d,false,true,0.0-2.0-0.27-0.246-3.246,0,0,0,68,false,stim,false,0,740,2,0,1,19096,task2,678343,false,false,841,image-keyboard-response,18
true,8,1,1,1,true,z,false,true,0.0-2.0-0.27-0.247-3.247,0,0,0,90,false,stim,false,0,810,2,0,0,19096,task2,680671,false,false,844,image-keyboard-response,19
true,8,2,1,2,true,d,false,true,0.0-2.0-0.27-0.248-3.248,0,0,0,68,false,stim,false,0,980,2,0,1,19096,task2,683176,false,false,847,image-keyboard-response,20
true,8,2,1,2,true,d,false,false,0.0-2.0-0.27-0.249-3.249,0,0,0,68,false,stim,false,0,607,2,0,1,19096,task2,685311,false,true,850,image-keyboard-response,21
true,8,2,1,2,true,d,false,true,0.0-2.0-0.27-0.250-3.250,0,0,0,68,false,stim,false,1,844,2,0,2,19096,task2,687672,false,false,853,image-keyboard-response,22
true,8,2,1,2,true,d,false,true,0.0-2.0-0.27-0.251-3.251,0,0,0,68,false,stim,false,1,605,2,0,2,19096,task2,689800,false,false,856,image-keyboard-response,23
true,8,1,1,1,true,z,false,true,0.0-2.0-0.28-0.252-3.252,0,0,0,90,false,stim,false,0,795,2,0,0,19096,task2,692119,false,false,859,image-keyboard-response,24
true,8,1,1,1,true,z,false,true,0.0-2.0-0.28-0.253-3.253,0,0,0,90,false,stim,false,0,712,2,0,0,19096,task2,694359,false,false,862,image-keyboard-response,25
true,8,2,1,2,true,d,false,true,0.0-2.0-0.28-0.254-3.254,0,0,0,68,false,stim,false,0,917,2,0,1,19096,task2,696791,false,false,865,image-keyboard-response,26
true,8,1,1,1,true,z,false,true,0.0-2.0-0.28-0.255-3.255,0,0,0,90,false,stim,false,0,1227,2,0,0,19096,task2,699535,false,false,868,image-keyboard-response,27
true,8,2,1,2,true,d,false,true,0.0-2.0-0.28-0.256-3.256,0,0,0,68,false,stim,false,0,1040,2,0,1,19096,task2,702104,false,false,871,image-keyboard-response,28
true,8,2,1,2,true,d,false,true,0.0-2.0-0.28-0.257-3.257,0,0,0,68,false,stim,false,1,552,2,0,2,19096,task2,704167,false,false,874,image-keyboard-response,29
true,8,2,1,2,true,d,false,true,0.0-2.0-0.28-0.258-3.258,0,0,0,68,false,stim,false,1,440,2,0,2,19096,task2,706111,false,false,877,image-keyboard-response,30
true,8,2,1,2,true,d,false,false,0.0-2.0-0.28-0.259-3.259,0,0,0,68,false,stim,false,0,1025,2,0,1,19096,task2,708648,false,true,880,image-keyboard-response,31
true,8,2,1,2,true,d,false,false,0.0-2.0-0.28-0.260-3.260,0,0,0,68,false,stim,false,1,605,2,0,2,19096,task2,710775,false,true,883,image-keyboard-response,32
true,8,2,1,2,true,d,false,false,0.0-2.0-0.29-0.261-3.261,0,0,0,68,false,stim,false,1,564,2,1,2,19096,task2,712863,false,true,886,image-keyboard-response,33
true,8,1,1,2,false,d,false,false,0.0-2.0-0.29-0.262-3.262,0,0,0,90,false,stim,true,1,387,2,1,2,19096,task2,714775,false,false,889,image-keyboard-response,34
true,8,1,1,1,true,z,false,true,0.0-2.0-0.29-0.263-3.263,0,0,0,90,false,stim,false,0,878,2,0,0,19096,task2,717168,false,false,892,image-keyboard-response,35
true,8,1,1,2,false,d,true,false,0.0-2.0-0.29-0.264-3.264,0,0,0,90,false,stim,false,0,1381,2,0,1,19096,task2,720063,false,false,895,image-keyboard-response,36
true,8,0,1,2,false,d,false,false,0.0-2.0-0.29-0.265-3.265,0,0,0,81,false,stim,true,0,890,2,0,1,19096,task2,722479,false,false,898,image-keyboard-response,37
true,9,1,2,2,false,d,false,false,0.0-2.0-0.29-0.266-3.266,0,0,1,90,true,stim,true,1,864,2,0,0,19096,task2,724856,false,false,901,image-keyboard-response,1
true,9,0,2,2,false,d,true,false,0.0-2.0-0.29-0.267-3.267,0,0,1,81,false,stim,false,2,1159,2,1,2,19096,task2,727528,false,false,904,image-keyboard-response,2
true,9,2,2,2,true,d,false,true,0.0-2.0-0.29-0.268-3.268,0,0,1,68,false,stim,false,1,849,2,0,0,19096,task2,729904,false,false,907,image-keyboard-response,3
true,9,1,2,1,true,z,false,true,0.0-2.0-0.29-0.269-3.269,0,0,1,90,false,stim,false,2,856,2,0,1,19096,task2,732280,false,false,910,image-keyboard-response,4
true,9,2,2,2,true,d,false,true,0.0-2.0-0.30-0.270-3.270,0,0,1,68,false,stim,false,1,548,2,0,0,19096,task2,734351,false,false,913,image-keyboard-response,5
true,9,1,2,1,true,z,false,true,0.0-2.0-0.30-0.271-3.271,0,0,1,90,false,stim,false,2,643,2,0,1,19096,task2,736503,false,false,916,image-keyboard-response,6
true,9,1,2,1,true,z,false,true,0.0-2.0-0.30-0.272-3.272,0,0,1,90,false,stim,false,2,572,2,0,1,19096,task2,738591,false,false,919,image-keyboard-response,7
true,9,1,2,1,true,z,false,true,0.0-2.0-0.30-0.273-3.273,0,0,1,90,false,stim,false,2,773,2,0,1,19096,task2,740879,false,false,922,image-keyboard-response,8
true,9,1,2,2,false,d,true,false,0.0-2.0-0.30-0.274-3.274,0,0,1,90,false,stim,false,2,1108,2,1,2,19096,task2,743503,false,false,925,image-keyboard-response,9
true,9,2,2,2,true,d,false,true,0.0-2.0-0.30-0.275-3.275,0,0,1,68,false,stim,false,2,1015,2,1,2,19096,task2,746031,false,false,928,image-keyboard-response,10
true,9,2,2,2,true,d,false,true,0.0-2.0-0.30-0.276-3.276,0,0,1,68,false,stim,false,2,827,2,1,2,19096,task2,748375,false,false,931,image-keyboard-response,11
true,9,2,2,2,true,d,false,true,0.0-2.0-0.30-0.277-3.277,0,0,1,68,false,stim,false,1,378,2,0,0,19096,task2,750263,false,false,934,image-keyboard-response,12
true,9,2,2,2,true,d,false,true,0.0-2.0-0.30-0.278-3.278,0,0,1,68,false,stim,false,1,584,2,0,0,19096,task2,752359,false,false,937,image-keyboard-response,13
true,9,2,2,2,true,d,false,true,0.0-2.0-0.31-0.279-3.279,0,0,1,68,false,stim,false,1,635,2,0,0,19096,task2,754503,false,false,940,image-keyboard-response,14
true,9,2,2,2,true,d,false,true,0.0-2.0-0.31-0.280-3.280,0,0,1,68,false,stim,false,2,2128,2,1,2,19096,task2,758151,false,false,943,image-keyboard-response,15
true,9,2,2,2,true,d,false,true,0.0-2.0-0.31-0.281-3.281,0,0,1,68,false,stim,false,1,733,2,0,0,19096,task2,760399,false,false,946,image-keyboard-response,16
true,9,2,2,2,true,d,false,true,0.0-2.0-0.31-0.282-3.282,0,0,1,68,false,stim,false,2,1072,2,1,2,19096,task2,762976,false,false,949,image-keyboard-response,17
true,9,1,2,1,true,z,false,true,0.0-2.0-0.31-0.283-3.283,0,0,1,90,false,stim,false,2,566,2,0,1,19096,task2,765056,false,false,952,image-keyboard-response,18
true,9,1,2,1,true,z,false,true,0.0-2.0-0.31-0.284-3.284,0,0,1,90,false,stim,false,2,817,2,0,1,19096,task2,767375,false,false,955,image-keyboard-response,19
true,9,2,2,2,true,d,false,true,0.0-2.0-0.31-0.285-3.285,0,0,1,68,false,stim,false,2,930,2,1,2,19096,task2,769816,false,false,958,image-keyboard-response,20
true,9,2,2,2,true,d,false,true,0.0-2.0-0.31-0.286-3.286,0,0,1,68,false,stim,false,1,1249,2,0,0,19096,task2,772576,false,false,961,image-keyboard-response,21
true,9,1,2,1,true,z,false,true,0.0-2.0-0.31-0.287-3.287,0,0,1,90,false,stim,false,2,1091,2,0,1,19096,task2,775183,false,false,964,image-keyboard-response,22
true,9,1,2,1,true,z,false,true,0.0-2.0-0.32-0.288-3.288,0,0,1,90,false,stim,false,2,776,2,0,1,19096,task2,777479,false,false,967,image-keyboard-response,23
true,9,2,2,2,true,d,false,true,0.0-2.0-0.32-0.289-3.289,0,0,1,68,false,stim,false,2,856,2,1,2,19096,task2,779855,false,false,970,image-keyboard-response,24
true,9,2,2,2,true,d,false,true,0.0-2.0-0.32-0.290-3.290,0,0,1,68,false,stim,false,2,421,2,1,2,19096,task2,781800,false,false,973,image-keyboard-response,25
true,9,2,2,2,true,d,false,false,0.0-2.0-0.32-0.291-3.291,0,0,1,68,false,stim,false,1,939,2,0,0,19096,task2,784263,false,true,976,image-keyboard-response,26
true,9,1,2,1,true,z,false,true,0.0-2.0-0.32-0.292-3.292,0,0,1,90,false,stim,false,2,650,2,0,1,19096,task2,786423,false,false,979,image-keyboard-response,27
true,9,2,2,2,true,d,false,true,0.0-2.0-0.32-0.293-3.293,0,0,1,68,false,stim,false,1,473,2,0,0,19096,task2,788407,false,false,982,image-keyboard-response,28
true,9,1,2,1,true,z,false,true,0.0-2.0-0.32-0.294-3.294,0,0,1,90,false,stim,false,2,1204,2,0,1,19096,task2,791128,false,false,985,image-keyboard-response,29
true,9,2,2,2,true,d,false,true,0.0-2.0-0.32-0.295-3.295,0,0,1,68,false,stim,false,2,656,2,0,2,19096,task2,793303,false,false,988,image-keyboard-response,30
true,9,2,2,2,true,d,false,false,0.0-2.0-0.32-0.296-3.296,0,0,1,68,false,stim,false,1,1285,2,1,0,19096,task2,796103,false,true,991,image-keyboard-response,31
true,9,1,2,1,true,z,false,true,0.0-2.0-0.33-0.297-3.297,0,0,1,90,false,stim,false,2,1018,2,0,1,19096,task2,798639,false,false,994,image-keyboard-response,32
true,9,1,2,1,true,z,false,true,0.0-2.0-0.33-0.298-3.298,0,0,1,90,false,stim,false,2,571,2,0,1,19096,task2,800727,false,false,997,image-keyboard-response,33
true,10,2,2,2,true,d,false,true,0.0-2.0-0.33-0.299-3.299,1,0,0,68,true,stim,false,2,698,2,1,0,19096,task2,802935,false,false,1000,image-keyboard-response,1
true,10,2,2,0,false,q,false,false,0.0-2.0-0.33-0.300-3.300,1,0,0,68,false,stim,true,2,1131,2,0,2,19096,task2,805591,false,false,1003,image-keyboard-response,2
true,10,2,2,0,false,q,true,false,0.0-2.0-0.33-0.301-3.301,1,0,0,68,false,stim,false,1,873,2,0,1,19096,task2,807983,false,false,1006,image-keyboard-response,3
true,10,2,2,2,true,d,false,true,0.0-2.0-0.33-0.302-3.302,1,0,0,68,false,stim,false,2,1339,2,1,0,19096,task2,810840,false,false,1009,image-keyboard-response,4
true,10,2,2,2,true,d,false,true,0.0-2.0-0.33-0.303-3.303,1,0,0,68,false,stim,false,2,625,2,1,0,19096,task2,812983,false,false,1012,image-keyboard-response,5
true,10,2,2,0,false,q,false,false,0.0-2.0-0.33-0.304-3.304,1,0,0,68,false,stim,true,2,799,2,0,2,19096,task2,815287,false,false,1015,image-keyboard-response,6
true,10,1,2,0,false,q,true,false,0.0-2.0-0.33-0.305-3.305,1,0,0,90,false,stim,false,2,910,2,0,2,19096,task2,817711,false,false,1018,image-keyboard-response,7
true,10,1,2,0,false,q,false,false,0.0-2.0-0.34-0.306-3.306,1,0,0,90,false,stim,true,1,756,2,0,1,19096,task2,819984,false,false,1021,image-keyboard-response,8
true,10,0,2,0,true,q,false,true,0.0-2.0-0.34-0.307-3.307,1,0,0,81,false,stim,false,1,583,2,0,1,19096,task2,822079,false,false,1024,image-keyboard-response,9
true,10,2,2,2,true,d,false,true,0.0-2.0-0.34-0.308-3.308,1,0,0,68,false,stim,false,2,744,2,1,0,19096,task2,824343,false,false,1027,image-keyboard-response,10
true,10,2,2,2,true,d,false,true,0.0-2.0-0.34-0.309-3.309,1,0,0,68,false,stim,false,2,727,2,1,0,19096,task2,826591,false,false,1030,image-keyboard-response,11
true,10,0,2,0,true,q,false,true,0.0-2.0-0.34-0.310-3.310,1,0,0,81,false,stim,false,1,803,2,0,1,19096,task2,828920,false,false,1033,image-keyboard-response,12
true,10,0,2,0,true,q,false,true,0.0-2.0-0.34-0.311-3.311,1,0,0,81,false,stim,false,2,851,2,0,2,19096,task2,831295,false,false,1036,image-keyboard-response,13
true,10,0,2,0,true,q,false,true,0.0-2.0-0.34-0.312-3.312,1,0,0,81,false,stim,false,2,653,2,0,2,19096,task2,833471,false,false,1039,image-keyboard-response,14
true,10,2,2,2,true,d,false,true,0.0-2.0-0.34-0.313-3.313,1,0,0,68,false,stim,false,2,684,2,1,0,19096,task2,835671,false,false,1042,image-keyboard-response,15
true,10,0,2,0,true,q,false,true,0.0-2.0-0.34-0.314-3.314,1,0,0,81,false,stim,false,2,581,2,0,2,19096,task2,837783,false,false,1045,image-keyboard-response,16
true,10,2,2,2,true,d,false,true,0.0-2.0-0.35-0.315-3.315,1,0,0,68,false,stim,false,2,860,2,1,0,19096,task2,840159,false,false,1048,image-keyboard-response,17
true,10,2,2,2,true,d,false,true,0.0-2.0-0.35-0.316-3.316,1,0,0,68,false,stim,false,2,672,2,1,0,19096,task2,842343,false,false,1051,image-keyboard-response,18
true,10,2,2,2,true,d,false,true,0.0-2.0-0.35-0.317-3.317,1,0,0,68,false,stim,false,2,393,2,1,0,19096,task2,844263,false,false,1054,image-keyboard-response,19
true,10,0,2,0,true,q,false,false,0.0-2.0-0.35-0.318-3.318,1,0,0,81,false,stim,false,2,798,2,0,2,19096,task2,846576,false,true,1057,image-keyboard-response,20
true,10,0,2,0,true,q,false,true,0.0-2.0-0.35-0.319-3.319,1,0,0,81,false,stim,false,1,456,2,0,1,19096,task2,848535,false,false,1060,image-keyboard-response,21
true,10,0,2,0,true,q,false,true,0.0-2.0-0.35-0.320-3.320,1,0,0,81,false,stim,false,2,1061,2,0,2,19096,task2,851111,false,false,1063,image-keyboard-response,22
true,10,0,2,0,true,q,false,true,0.0-2.0-0.35-0.321-3.321,1,0,0,81,false,stim,false,2,610,2,0,2,19096,task2,853239,false,false,1066,image-keyboard-response,23
true,10,0,2,0,true,q,false,true,0.0-2.0-0.35-0.322-3.322,1,0,0,81,false,stim,false,1,843,2,0,1,19096,task2,855599,false,false,1069,image-keyboard-response,24
true,10,0,2,0,true,q,false,true,0.0-2.0-0.35-0.323-3.323,1,0,0,81,false,stim,false,1,723,2,0,1,19096,task2,857838,false,false,1072,image-keyboard-response,25
true,10,0,2,0,true,q,false,true,0.0-2.0-0.36-0.324-3.324,1,0,0,81,false,stim,false,2,827,2,0,2,19096,task2,860183,false,false,1075,image-keyboard-response,26
true,10,2,2,2,true,d,false,true,0.0-2.0-0.36-0.325-3.325,1,0,0,68,false,stim,false,2,561,2,1,0,19096,task2,862247,false,false,1078,image-keyboard-response,27
true,10,0,2,0,true,q,false,true,0.0-2.0-0.36-0.326-3.326,1,0,0,81,false,stim,false,2,644,2,0,2,19096,task2,864399,false,false,1081,image-keyboard-response,28
true,10,0,2,0,true,q,false,true,0.0-2.0-0.36-0.327-3.327,1,0,0,81,false,stim,false,1,779,2,1,1,19096,task2,866688,false,false,1084,image-keyboard-response,29
true,10,2,2,2,true,d,false,true,0.0-2.0-0.36-0.328-3.328,1,0,0,68,false,stim,false,2,765,2,0,0,19096,task2,868967,false,false,1087,image-keyboard-response,30
true,10,0,2,0,true,q,false,true,0.0-2.0-0.36-0.329-3.329,1,0,0,81,false,stim,false,2,598,2,0,2,19096,task2,871087,false,false,1090,image-keyboard-response,31
true,10,2,2,2,true,d,false,true,0.0-2.0-0.36-0.330-3.330,1,0,0,68,false,stim,false,2,689,2,0,0,19096,task2,873295,false,false,1093,image-keyboard-response,32
true,10,0,2,0,true,q,false,true,0.0-2.0-0.36-0.331-3.331,1,0,0,81,false,stim,false,1,549,2,1,1,19096,task2,875367,false,false,1096,image-keyboard-response,33
true,11,0,2,0,true,q,false,false,0.0-2.0-0.36-0.332-3.332,0,1,0,81,true,stim,false,0,502,2,1,1,19096,task2,877391,false,true,1099,image-keyboard-response,1
true,11,0,2,0,true,q,false,true,0.0-2.0-0.37-0.333-3.333,0,1,0,81,false,stim,false,0,479,2,1,1,19096,task2,879391,false,false,1102,image-keyboard-response,2
true,11,2,2,1,false,z,false,false,0.0-2.0-0.37-0.334-3.334,0,1,0,68,false,stim,true,2,665,2,0,0,19096,task2,881575,false,false,1105,image-keyboard-response,3
true,11,0,2,1,false,z,false,false,0.0-2.0-0.37-0.335-3.335,0,1,0,81,false,stim,true,0,585,2,0,2,19096,task2,883680,false,false,1108,image-keyboard-response,4
true,11,1,2,1,true,z,false,false,0.0-2.0-0.37-0.336-3.336,0,1,0,90,false,stim,false,2,786,2,0,0,19096,task2,885975,false,true,1111,image-keyboard-response,5
true,11,1,2,0,false,q,true,false,0.0-2.0-0.37-0.337-3.337,0,1,0,90,false,stim,false,0,1605,2,1,1,19096,task2,889095,false,false,1114,image-keyboard-response,6
true,11,1,2,1,true,z,false,true,0.0-2.0-0.37-0.338-3.338,0,1,0,90,false,stim,false,0,698,2,0,2,19096,task2,891319,false,false,1117,image-keyboard-response,7
true,11,1,2,1,true,z,false,true,0.0-2.0-0.37-0.339-3.339,0,1,0,90,false,stim,false,0,863,2,0,2,19096,task2,893711,false,false,1120,image-keyboard-response,8
true,11,2,2,1,false,z,false,false,0.0-2.0-0.37-0.340-3.340,0,1,0,68,false,stim,true,2,594,2,0,0,19096,task2,895823,false,false,1123,image-keyboard-response,9
true,11,2,2,0,false,q,true,false,0.0-2.0-0.37-0.341-3.341,0,1,0,68,false,stim,false,0,1703,2,1,1,19096,task2,899055,false,false,1126,image-keyboard-response,10
true,11,0,2,1,false,z,true,true,0.0-2.0-0.38-0.342-3.342,0,1,0,81,false,stim,false,2,1351,2,0,0,19096,task2,901911,false,true,1129,image-keyboard-response,11
true,11,1,2,1,true,z,false,true,0.0-2.0-0.38-0.343-3.343,0,1,0,90,false,stim,false,0,674,2,0,2,19096,task2,904111,false,false,1132,image-keyboard-response,12
true,11,1,2,1,true,z,false,true,0.0-2.0-0.38-0.344-3.344,0,1,0,90,false,stim,false,0,592,2,0,2,19096,task2,906215,false,false,1135,image-keyboard-response,13
true,11,1,2,1,true,z,false,false,0.0-2.0-0.38-0.345-3.345,0,1,0,90,false,stim,false,0,549,2,0,2,19096,task2,908279,false,true,1138,image-keyboard-response,14
true,11,0,2,0,true,q,false,true,0.0-2.0-0.38-0.346-3.346,0,1,0,81,false,stim,false,0,1785,2,1,1,19096,task2,911575,false,false,1141,image-keyboard-response,15
true,11,0,2,1,false,z,true,false,0.0-2.0-0.38-0.347-3.347,0,1,0,81,false,stim,false,2,429,2,0,0,19096,task2,913519,false,false,1144,image-keyboard-response,16
true,11,1,2,0,false,q,true,false,0.0-2.0-0.38-0.348-3.348,0,1,0,90,false,stim,false,0,1611,2,1,1,19096,task2,916655,false,false,1147,image-keyboard-response,17
true,11,0,2,0,true,q,false,false,0.0-2.0-0.38-0.349-3.349,0,1,0,81,false,stim,false,0,493,2,1,1,19096,task2,918663,false,true,1150,image-keyboard-response,18
true,11,1,2,1,true,z,false,true,0.0-2.0-0.38-0.350-3.350,0,1,0,90,false,stim,false,2,648,2,0,0,19096,task2,920831,false,false,1153,image-keyboard-response,19
true,11,1,2,1,true,z,false,true,0.0-2.0-0.39-0.351-3.351,0,1,0,90,false,stim,false,2,581,2,0,0,19096,task2,922927,false,false,1156,image-keyboard-response,20
true,11,1,2,0,false,q,true,false,0.0-2.0-0.39-0.352-3.352,0,1,0,90,false,stim,false,0,1176,2,1,1,19096,task2,925623,false,false,1159,image-keyboard-response,21
true,11,0,2,0,true,q,false,true,0.0-2.0-0.39-0.353-3.353,0,1,0,81,false,stim,false,0,565,2,1,1,19096,task2,927695,false,false,1162,image-keyboard-response,22
true,11,1,2,1,true,z,false,true,0.0-2.0-0.39-0.354-3.354,0,1,0,90,false,stim,false,2,892,2,0,0,19096,task2,930111,false,false,1165,image-keyboard-response,23
true,11,1,2,1,true,z,false,true,0.0-2.0-0.39-0.355-3.355,0,1,0,90,false,stim,false,2,869,2,0,0,19096,task2,932495,false,false,1168,image-keyboard-response,24
true,11,0,2,1,false,z,false,true,0.0-2.0-0.39-0.356-3.356,0,1,0,81,false,stim,true,0,496,2,0,2,19096,task2,934511,false,true,1171,image-keyboard-response,25
true,11,0,2,1,false,z,false,false,0.0-2.0-0.39-0.357-3.357,0,1,0,81,false,stim,true,0,422,2,0,2,19096,task2,936463,false,false,1174,image-keyboard-response,26
true,11,0,2,0,true,q,false,false,0.0-2.0-0.39-0.358-3.358,0,1,0,81,false,stim,false,0,472,2,1,1,19096,task2,938455,false,true,1177,image-keyboard-response,27
true,11,0,2,1,false,z,false,false,0.0-2.0-0.39-0.359-3.359,0,1,0,81,false,stim,true,0,1049,2,0,2,19096,task2,941023,false,false,1180,image-keyboard-response,28
true,11,0,2,0,true,q,false,true,0.0-2.0-0.40-0.360-3.360,0,1,0,81,false,stim,false,0,1053,2,0,1,19096,task2,943591,false,false,1183,image-keyboard-response,29
true,11,0,2,0,true,q,false,true,0.0-2.0-0.40-0.361-3.361,0,1,0,81,false,stim,false,0,510,2,0,1,19096,task2,945607,false,false,1186,image-keyboard-response,30
true,11,2,2,1,false,z,true,false,0.0-2.0-0.40-0.362-3.362,0,1,0,68,false,stim,false,0,1624,2,0,2,19096,task2,948743,false,false,1189,image-keyboard-response,31
true,11,1,2,1,true,z,false,true,0.0-2.0-0.40-0.363-3.363,0,1,0,90,false,stim,false,0,431,2,0,2,19096,task2,950703,false,false,1192,image-keyboard-response,32
true,12,1,1,0,false,q,false,false,0.0-2.0-0.40-0.364-3.364,0,0,0,90,true,stim,true,1,815,2,0,0,19096,task2,953047,false,false,1195,image-keyboard-response,1
true,12,1,1,0,false,q,false,false,0.0-2.0-0.40-0.365-3.365,0,0,0,90,false,stim,true,1,1247,2,0,2,19096,task2,955807,false,false,1198,image-keyboard-response,2
true,12,0,1,2,false,d,false,false,0.0-2.0-0.40-0.366-3.366,0,0,0,81,false,stim,true,0,463,2,0,1,19096,task2,957799,false,false,1201,image-keyboard-response,3
true,12,1,1,0,false,q,false,false,0.0-2.0-0.40-0.367-3.367,0,0,0,90,false,stim,true,1,637,2,0,0,19096,task2,959967,false,false,1204,image-keyboard-response,4
true,12,2,1,0,false,q,true,false,0.0-2.0-0.40-0.368-3.368,0,0,0,68,false,stim,false,1,913,2,0,0,19096,task2,962407,false,false,1207,image-keyboard-response,5
true,12,2,1,2,true,d,false,true,0.0-2.0-0.41-0.369-3.369,0,0,0,68,false,stim,false,0,997,2,0,1,19096,task2,964919,false,false,1210,image-keyboard-response,6
true,12,2,1,0,false,q,true,false,0.0-2.0-0.41-0.370-3.370,0,0,0,68,false,stim,false,1,1397,2,0,2,19096,task2,967831,false,false,1213,image-keyboard-response,7
true,12,1,1,2,false,d,true,false,0.0-2.0-0.41-0.371-3.371,0,0,0,90,false,stim,false,0,483,2,0,1,19096,task2,969839,false,false,1216,image-keyboard-response,8
true,12,1,1,0,false,q,false,false,0.0-2.0-0.41-0.372-3.372,0,0,0,90,false,stim,true,1,843,2,0,0,19096,task2,972191,false,false,1219,image-keyboard-response,9
true,12,2,1,0,false,q,true,false,0.0-2.0-0.41-0.373-3.373,0,0,0,68,false,stim,false,1,1369,2,0,2,19096,task2,975071,false,false,1222,image-keyboard-response,10
true,12,1,1,0,false,q,false,false,0.0-2.0-0.41-0.374-3.374,0,0,0,90,false,stim,true,1,785,2,0,0,19096,task2,977375,false,false,1225,image-keyboard-response,11
true,12,2,1,2,true,d,false,true,0.0-2.0-0.41-0.375-3.375,0,0,0,68,false,stim,false,0,783,2,0,1,19096,task2,979671,false,false,1228,image-keyboard-response,12
true,12,0,1,0,true,q,false,true,0.0-2.0-0.41-0.376-3.376,0,0,0,81,false,stim,false,1,731,2,0,2,19096,task2,981911,false,false,1231,image-keyboard-response,13
true,12,0,1,0,true,q,false,true,0.0-2.0-0.41-0.377-3.377,0,0,0,81,false,stim,false,1,1485,2,0,0,19096,task2,984911,false,false,1234,image-keyboard-response,14
true,12,0,1,0,true,q,false,true,0.0-2.0-0.42-0.378-3.378,0,0,0,81,false,stim,false,1,509,2,0,2,19096,task2,986927,false,false,1237,image-keyboard-response,15
true,12,0,1,0,true,q,false,true,0.0-2.0-0.42-0.379-3.379,0,0,0,81,false,stim,false,1,716,2,0,0,19096,task2,989166,false,false,1240,image-keyboard-response,16
true,12,2,1,2,true,d,false,true,0.0-2.0-0.42-0.380-3.380,0,0,0,68,false,stim,false,0,635,2,0,1,19096,task2,991318,false,false,1243,image-keyboard-response,17
true,12,0,1,0,true,q,false,true,0.0-2.0-0.42-0.381-3.381,0,0,0,81,false,stim,false,1,549,2,0,2,19096,task2,993399,false,false,1246,image-keyboard-response,18
true,12,2,1,2,true,d,false,true,0.0-2.0-0.42-0.382-3.382,0,0,0,68,false,stim,false,0,2887,2,0,1,19096,task2,997815,false,false,1249,image-keyboard-response,19
true,12,0,1,0,true,q,false,true,0.0-2.0-0.42-0.383-3.383,0,0,0,81,false,stim,false,1,1792,2,0,2,19096,task2,1001118,false,false,1252,image-keyboard-response,20
true,12,2,1,2,true,d,false,true,0.0-2.0-0.42-0.384-3.384,0,0,0,68,false,stim,false,0,712,2,0,1,19096,task2,1003343,false,false,1255,image-keyboard-response,21
true,12,0,1,0,true,q,false,true,0.0-2.0-0.42-0.385-3.385,0,0,0,81,false,stim,false,1,886,2,0,0,19096,task2,1005759,false,false,1258,image-keyboard-response,22
true,12,0,1,0,true,q,false,true,0.0-2.0-0.42-0.386-3.386,0,0,0,81,false,stim,false,1,462,2,0,0,19096,task2,1007751,false,false,1261,image-keyboard-response,23
true,12,2,1,2,true,d,false,true,0.0-2.0-0.43-0.387-3.387,0,0,0,68,false,stim,false,0,746,2,0,1,19096,task2,1010015,false,false,1264,image-keyboard-response,24
true,12,0,1,0,true,q,false,true,0.0-2.0-0.43-0.388-3.388,0,0,0,81,false,stim,false,1,584,2,0,2,19096,task2,1012119,false,false,1267,image-keyboard-response,25
true,12,2,1,2,true,d,false,true,0.0-2.0-0.43-0.389-3.389,0,0,0,68,false,stim,false,0,717,2,0,1,19096,task2,1014351,false,false,1270,image-keyboard-response,26
true,12,0,1,0,true,q,false,true,0.0-2.0-0.43-0.390-3.390,0,0,0,81,false,stim,false,1,664,2,0,2,19096,task2,1016535,false,false,1273,image-keyboard-response,27
true,12,0,1,0,true,q,false,true,0.0-2.0-0.43-0.391-3.391,0,0,0,81,false,stim,false,1,692,2,0,2,19096,task2,1018751,false,false,1276,image-keyboard-response,28
true,12,0,1,0,true,q,false,true,0.0-2.0-0.43-0.392-3.392,0,0,0,81,false,stim,false,1,1018,2,0,0,19096,task2,1021286,false,false,1279,image-keyboard-response,29
true,12,0,1,0,true,q,false,true,0.0-2.0-0.43-0.393-3.393,0,0,0,81,false,stim,false,1,527,2,0,0,19096,task2,1023335,false,false,1282,image-keyboard-response,30
true,12,0,1,0,true,q,false,true,0.0-2.0-0.43-0.394-3.394,0,0,0,81,false,stim,false,1,458,2,0,0,19096,task2,1025311,false,false,1285,image-keyboard-response,31
true,12,2,1,2,true,d,false,true,0.0-2.0-0.43-0.395-3.395,0,0,0,68,false,stim,false,0,1742,2,0,1,19096,task2,1028574,false,false,1288,image-keyboard-response,32
true,12,2,1,2,true,d,false,false,0.0-2.0-0.44-0.396-3.396,0,0,0,68,false,stim,false,0,684,2,0,1,19096,task2,1030766,false,true,1291,image-keyboard-response,33
true,12,2,1,2,true,d,false,true,0.0-2.0-0.44-0.397-3.397,0,0,0,68,false,stim,false,0,421,2,1,1,19096,task2,1032711,false,false,1294,image-keyboard-response,34
true,12,2,1,2,true,d,false,true,0.0-2.0-0.44-0.398-3.398,0,0,0,68,false,stim,false,0,607,2,1,1,19096,task2,1034839,false,false,1297,image-keyboard-response,35
true,12,0,1,0,true,q,false,true,0.0-2.0-0.44-0.399-3.399,0,0,0,81,false,stim,false,1,795,2,0,0,19096,task2,1037151,false,false,1300,image-keyboard-response,36
true,12,0,1,0,true,q,false,true,0.0-2.0-0.44-0.400-3.400,0,0,0,81,false,stim,false,1,428,2,0,0,19096,task2,1039111,false,false,1303,image-keyboard-response,37
true,12,0,1,0,true,q,false,true,0.0-2.0-0.44-0.401-3.401,0,0,0,81,false,stim,false,1,1252,2,0,2,19096,task2,1041887,false,false,1306,image-keyboard-response,38
true,13,0,2,1,false,z,false,false,0.0-2.0-0.44-0.402-3.402,0,1,0,81,true,stim,true,0,508,2,0,2,19096,task2,1043927,false,false,1309,image-keyboard-response,1
true,13,0,2,1,false,z,false,false,0.0-2.0-0.44-0.403-3.403,0,1,0,81,false,stim,true,0,406,2,0,2,19096,task2,1045854,false,false,1312,image-keyboard-response,2
true,13,0,2,2,false,d,false,true,0.0-2.0-0.44-0.404-3.404,0,1,0,81,false,stim,true,0,764,2,0,0,19096,task2,1048135,false,true,1315,image-keyboard-response,3
true,13,2,2,2,true,d,false,true,0.0-2.0-0.45-0.405-3.405,0,1,0,68,false,stim,false,2,931,2,1,1,19096,task2,1050598,false,false,1318,image-keyboard-response,4
true,13,0,2,2,false,d,false,false,0.0-2.0-0.45-0.406-3.406,0,1,0,81,false,stim,true,0,523,2,0,0,19096,task2,1052639,false,false,1321,image-keyboard-response,5
true,13,2,2,2,true,d,false,true,0.0-2.0-0.45-0.407-3.407,0,1,0,68,false,stim,false,2,1645,2,1,1,19096,task2,1055807,false,false,1324,image-keyboard-response,6
true,13,1,2,1,true,z,false,false,0.0-2.0-0.45-0.408-3.408,0,1,0,90,false,stim,false,0,1312,2,0,2,19096,task2,1058646,false,true,1327,image-keyboard-response,7
true,13,2,2,1,false,z,true,false,0.0-2.0-0.45-0.409-3.409,0,1,0,68,false,stim,false,0,425,2,0,2,19096,task2,1060591,false,false,1330,image-keyboard-response,8
true,13,0,2,1,false,z,false,false,0.0-2.0-0.45-0.410-3.410,0,1,0,81,false,stim,true,0,446,2,0,2,19096,task2,1062559,false,false,1333,image-keyboard-response,9
true,13,0,2,2,false,d,false,false,0.0-2.0-0.45-0.411-3.411,0,1,0,81,false,stim,true,0,1793,2,0,0,19096,task2,1065862,false,false,1336,image-keyboard-response,10
true,13,2,2,2,true,d,false,true,0.0-2.0-0.45-0.412-3.412,0,1,0,68,false,stim,false,2,756,2,1,1,19096,task2,1068126,false,false,1339,image-keyboard-response,11
true,13,0,2,2,false,d,false,false,0.0-2.0-0.45-0.413-3.413,0,1,0,81,false,stim,true,0,812,2,0,0,19096,task2,1070447,false,false,1342,image-keyboard-response,12
true,13,2,2,2,true,d,false,true,0.0-2.0-0.46-0.414-3.414,0,1,0,68,false,stim,false,2,887,2,1,1,19096,task2,1072855,false,false,1345,image-keyboard-response,13
true,13,1,2,1,true,z,false,true,0.0-2.0-0.46-0.415-3.415,0,1,0,90,false,stim,false,0,621,2,0,2,19096,task2,1074991,false,false,1348,image-keyboard-response,14
true,13,1,2,1,true,z,false,true,0.0-2.0-0.46-0.416-3.416,0,1,0,90,false,stim,false,0,376,2,0,2,19096,task2,1076887,false,false,1351,image-keyboard-response,15
true,13,2,2,2,true,d,false,true,0.0-2.0-0.46-0.417-3.417,0,1,0,68,false,stim,false,0,1096,2,0,0,19096,task2,1079511,false,false,1354,image-keyboard-response,16
true,13,2,2,2,true,d,false,false,0.0-2.0-0.46-0.418-3.418,0,1,0,68,false,stim,false,2,659,2,1,1,19096,task2,1081694,false,true,1357,image-keyboard-response,17
true,13,1,2,2,false,d,true,false,0.0-2.0-0.46-0.419-3.419,0,1,0,90,false,stim,false,0,926,2,0,0,19096,task2,1084134,false,false,1360,image-keyboard-response,18
true,13,2,2,2,true,d,false,true,0.0-2.0-0.46-0.420-3.420,0,1,0,68,false,stim,false,2,926,2,1,1,19096,task2,1086566,false,false,1363,image-keyboard-response,19
true,13,2,2,2,true,d,false,true,0.0-2.0-0.46-0.421-3.421,0,1,0,68,false,stim,false,0,807,2,0,0,19096,task2,1088878,false,false,1366,image-keyboard-response,20
true,13,1,2,1,true,z,false,true,0.0-2.0-0.46-0.422-3.422,0,1,0,90,false,stim,false,0,716,2,0,2,19096,task2,1091119,false,false,1369,image-keyboard-response,21
true,13,1,2,1,true,z,false,true,0.0-2.0-0.47-0.423-3.423,0,1,0,90,false,stim,false,0,1271,2,0,2,19096,task2,1093894,false,false,1372,image-keyboard-response,22
true,13,2,2,2,true,d,false,true,0.0-2.0-0.47-0.424-3.424,0,1,0,68,false,stim,false,0,916,2,0,0,19096,task2,1096335,false,false,1375,image-keyboard-response,23
true,13,2,2,2,true,d,false,true,0.0-2.0-0.47-0.425-3.425,0,1,0,68,false,stim,false,0,829,2,0,0,19096,task2,1098687,false,false,1378,image-keyboard-response,24
true,13,1,2,1,true,z,false,true,0.0-2.0-0.47-0.426-3.426,0,1,0,90,false,stim,false,0,634,2,0,2,19096,task2,1100846,false,false,1381,image-keyboard-response,25
true,13,2,2,2,true,d,false,true,0.0-2.0-0.47-0.427-3.427,0,1,0,68,false,stim,false,0,770,2,0,0,19096,task2,1103134,false,false,1384,image-keyboard-response,26
true,13,1,2,1,true,z,false,true,0.0-2.0-0.47-0.428-3.428,0,1,0,90,false,stim,false,0,1468,2,0,2,19096,task2,1106119,false,false,1387,image-keyboard-response,27
true,13,2,2,2,true,d,false,true,0.0-2.0-0.47-0.429-3.429,0,1,0,68,false,stim,false,2,1642,2,1,1,19096,task2,1109271,false,false,1390,image-keyboard-response,28
true,13,2,2,2,true,d,false,true,0.0-2.0-0.47-0.430-3.430,0,1,0,68,false,stim,false,2,624,2,0,1,19096,task2,1111422,false,false,1393,image-keyboard-response,29
true,13,2,2,2,true,d,false,true,0.0-2.0-0.47-0.431-3.431,0,1,0,68,false,stim,false,2,739,2,0,1,19096,task2,1113679,false,false,1396,image-keyboard-response,30
true,13,2,2,2,true,d,false,true,0.0-2.0-0.48-0.432-3.432,0,1,0,68,false,stim,false,2,487,2,0,1,19096,task2,1115695,false,false,1399,image-keyboard-response,31
true,13,2,2,2,true,d,false,true,0.0-2.0-0.48-0.433-3.433,0,1,0,68,false,stim,false,2,482,2,0,1,19096,task2,1117702,false,false,1402,image-keyboard-response,32
true,13,1,2,1,true,z,false,true,0.0-2.0-0.48-0.434-3.434,0,1,0,90,false,stim,false,0,2038,2,0,2,19096,task2,1121246,false,false,1405,image-keyboard-response,33
true,14,1,1,2,false,d,false,false,0.0-2.0-0.48-0.435-3.435,0,0,0,90,true,stim,true,1,419,2,0,2,19096,task2,1123174,false,false,1408,image-keyboard-response,1
true,14,2,1,1,false,z,false,false,0.0-2.0-0.48-0.436-3.436,0,0,0,68,false,stim,true,2,716,2,0,0,19096,task2,1125407,false,false,1411,image-keyboard-response,2
true,14,1,1,2,false,d,false,false,0.0-2.0-0.48-0.437-3.437,0,0,0,90,false,stim,true,1,557,2,0,2,19096,task2,1127495,false,false,1414,image-keyboard-response,3
true,14,2,1,0,false,q,false,true,0.0-2.0-0.48-0.438-3.438,0,0,0,68,false,stim,true,2,709,2,0,1,19096,task2,1129726,false,true,1417,image-keyboard-response,4
true,14,0,1,1,false,z,true,false,0.0-2.0-0.48-0.439-3.439,0,0,0,81,false,stim,false,2,1036,2,0,0,19096,task2,1132271,false,false,1420,image-keyboard-response,5
true,14,2,1,1,false,z,false,false,0.0-2.0-0.48-0.440-3.440,0,0,0,68,false,stim,true,2,540,2,0,0,19096,task2,1134327,false,false,1423,image-keyboard-response,6
true,14,1,1,1,true,z,false,true,0.0-2.0-0.49-0.441-3.441,0,0,0,90,false,stim,false,2,395,2,0,0,19096,task2,1136247,false,false,1426,image-keyboard-response,7
true,14,1,1,2,false,d,false,false,0.0-2.0-0.49-0.442-3.442,0,0,0,90,false,stim,true,1,781,2,0,2,19096,task2,1138551,false,false,1429,image-keyboard-response,8
true,14,1,1,1,true,z,false,true,0.0-2.0-0.49-0.443-3.443,0,0,0,90,false,stim,false,2,1020,2,0,0,19096,task2,1141086,false,false,1432,image-keyboard-response,9
true,14,2,1,0,false,q,false,false,0.0-2.0-0.49-0.444-3.444,0,0,0,68,false,stim,true,2,609,2,0,1,19096,task2,1143207,false,false,1435,image-keyboard-response,10
true,14,2,1,0,false,q,false,false,0.0-2.0-0.49-0.445-3.445,0,0,0,68,false,stim,true,2,722,2,0,1,19096,task2,1145447,false,false,1438,image-keyboard-response,11
true,14,1,1,0,false,q,true,false,0.0-2.0-0.49-0.446-3.446,0,0,0,90,false,stim,false,2,584,2,0,1,19096,task2,1147551,false,false,1441,image-keyboard-response,12
true,14,0,1,2,false,d,true,false,0.0-2.0-0.49-0.447-3.447,0,0,0,81,false,stim,false,1,1215,2,0,2,19096,task2,1150287,false,false,1444,image-keyboard-response,13
true,14,1,1,1,true,z,false,true,0.0-2.0-0.49-0.448-3.448,0,0,0,90,false,stim,false,2,581,2,0,0,19096,task2,1152399,false,false,1447,image-keyboard-response,14
true,14,2,1,2,true,d,false,true,0.0-2.0-0.49-0.449-3.449,0,0,0,68,false,stim,false,1,469,2,0,2,19096,task2,1154382,false,false,1450,image-keyboard-response,15
true,14,2,1,2,true,d,false,true,0.0-2.0-0.50-0.450-3.450,0,0,0,68,false,stim,false,1,675,2,0,2,19096,task2,1156575,false,false,1453,image-keyboard-response,16
true,14,2,1,2,true,d,false,true,0.0-2.0-0.50-0.451-3.451,0,0,0,68,false,stim,false,1,573,2,0,2,19096,task2,1158663,false,false,1456,image-keyboard-response,17
true,14,0,1,0,true,q,false,true,0.0-2.0-0.50-0.452-3.452,0,0,0,81,false,stim,false,2,1288,2,0,1,19096,task2,1161470,false,false,1459,image-keyboard-response,18
true,14,1,1,1,true,z,false,true,0.0-2.0-0.50-0.453-3.453,0,0,0,90,false,stim,false,2,852,2,0,0,19096,task2,1163838,false,false,1462,image-keyboard-response,19
true,14,0,1,0,true,q,false,true,0.0-2.0-0.50-0.454-3.454,0,0,0,81,false,stim,false,2,675,2,0,1,19096,task2,1166022,false,false,1465,image-keyboard-response,20
true,14,2,1,2,true,d,false,true,0.0-2.0-0.50-0.455-3.455,0,0,0,68,false,stim,false,1,859,2,0,2,19096,task2,1168391,false,false,1468,image-keyboard-response,21
true,14,1,1,1,true,z,false,true,0.0-2.0-0.50-0.456-3.456,0,0,0,90,false,stim,false,2,926,2,0,0,19096,task2,1170847,false,false,1471,image-keyboard-response,22
true,14,0,1,0,true,q,false,true,0.0-2.0-0.50-0.457-3.457,0,0,0,81,false,stim,false,2,1645,2,0,1,19096,task2,1174006,false,false,1474,image-keyboard-response,23
true,14,1,1,1,true,z,false,true,0.0-2.0-0.50-0.458-3.458,0,0,0,90,false,stim,false,2,881,2,0,0,19096,task2,1176398,false,false,1477,image-keyboard-response,24
true,14,2,1,2,true,d,false,true,0.0-2.0-0.51-0.459-3.459,0,0,0,68,false,stim,false,1,1609,2,0,2,19096,task2,1179519,false,false,1480,image-keyboard-response,25
true,14,0,1,0,true,q,false,false,0.0-2.0-0.51-0.460-3.460,0,0,0,81,false,stim,false,2,797,2,0,1,19096,task2,1181830,false,true,1483,image-keyboard-response,26
true,14,1,1,1,true,z,false,true,0.0-2.0-0.51-0.461-3.461,0,0,0,90,false,stim,false,2,560,2,0,0,19096,task2,1183902,false,false,1486,image-keyboard-response,27
true,14,2,1,0,false,q,false,false,0.0-2.0-0.51-0.462-3.462,0,0,0,68,false,stim,true,2,512,2,0,1,19096,task2,1185943,false,false,1489,image-keyboard-response,28
true,14,1,1,1,true,z,false,true,0.0-2.0-0.51-0.463-3.463,0,0,0,90,false,stim,false,2,645,2,0,0,19096,task2,1188094,false,false,1492,image-keyboard-response,29
true,14,2,1,2,true,d,false,true,0.0-2.0-0.51-0.464-3.464,0,0,0,68,false,stim,false,1,862,2,0,2,19096,task2,1190471,false,false,1495,image-keyboard-response,30
true,14,1,1,1,true,z,false,false,0.0-2.0-0.51-0.465-3.465,0,0,0,90,false,stim,false,2,920,2,0,0,19096,task2,1192903,false,true,1498,image-keyboard-response,31
true,14,0,1,0,true,q,false,true,0.0-2.0-0.51-0.466-3.466,0,0,0,81,false,stim,false,2,409,2,0,1,19096,task2,1194831,false,false,1501,image-keyboard-response,32
true,14,2,1,2,true,d,false,true,0.0-2.0-0.51-0.467-3.467,0,0,0,68,false,stim,false,1,1720,2,0,2,19096,task2,1198070,false,false,1504,image-keyboard-response,33
true,14,0,1,0,true,q,false,true,0.0-2.0-0.52-0.468-3.468,0,0,0,81,false,stim,false,2,893,2,0,1,19096,task2,1200478,false,false,1507,image-keyboard-response,34
true,14,1,1,1,true,z,false,false,0.0-2.0-0.52-0.469-3.469,0,0,0,90,false,stim,false,2,892,2,0,0,19096,task2,1202879,false,true,1510,image-keyboard-response,35
true,14,2,1,2,true,d,false,true,0.0-2.0-0.52-0.470-3.470,0,0,0,68,false,stim,false,1,1318,2,0,2,19096,task2,1205710,false,false,1513,image-keyboard-response,36
true,14,1,1,1,true,z,false,true,0.0-2.0-0.52-0.471-3.471,0,0,0,90,false,stim,false,2,1868,2,0,0,19096,task2,1209087,false,false,1516,image-keyboard-response,37
true,14,2,1,2,true,d,false,true,0.0-2.0-0.52-0.472-3.472,0,0,0,68,false,stim,false,1,636,2,0,2,19096,task2,1211239,false,false,1519,image-keyboard-response,38
true,15,0,1,2,false,d,false,false,0.0-2.0-0.52-0.473-3.473,0,0,0,81,true,stim,true,0,603,2,0,1,19096,task2,1213350,false,false,1522,image-keyboard-response,1
true,15,0,1,2,false,d,false,false,0.0-2.0-0.52-0.474-3.474,0,0,0,81,false,stim,true,0,402,2,0,1,19096,task2,1215263,false,false,1525,image-keyboard-response,2
true,15,2,1,1,false,z,false,false,0.0-2.0-0.52-0.475-3.475,0,0,0,68,false,stim,true,2,1197,2,0,2,19096,task2,1217975,false,false,1528,image-keyboard-response,3
true,15,1,1,0,false,q,false,false,0.0-2.0-0.52-0.476-3.476,0,0,0,90,false,stim,true,1,733,2,0,0,19096,task2,1220231,false,false,1531,image-keyboard-response,4
true,15,2,1,2,true,d,false,true,0.0-2.0-0.53-0.477-3.477,0,0,0,68,false,stim,false,0,1057,2,0,1,19096,task2,1222814,false,false,1534,image-keyboard-response,5
true,15,1,1,0,false,q,false,false,0.0-2.0-0.53-0.478-3.478,0,0,0,90,false,stim,true,1,900,2,0,0,19096,task2,1225239,false,false,1537,image-keyboard-response,6
true,15,2,1,0,false,q,true,false,0.0-2.0-0.53-0.479-3.479,0,0,0,68,false,stim,false,1,512,2,0,0,19096,task2,1227270,false,false,1540,image-keyboard-response,7
true,15,1,1,1,true,z,false,true,0.0-2.0-0.53-0.480-3.480,0,0,0,90,false,stim,false,2,1427,2,0,2,19096,task2,1230214,false,false,1543,image-keyboard-response,8
true,15,0,1,0,true,q,false,true,0.0-2.0-0.53-0.481-3.481,0,0,0,81,false,stim,false,1,825,2,0,0,19096,task2,1232551,false,false,1546,image-keyboard-response,9
true,15,1,1,1,true,z,false,true,0.0-2.0-0.53-0.482-3.482,0,0,0,90,false,stim,false,2,1038,2,0,2,19096,task2,1235110,false,false,1549,image-keyboard-response,10
true,15,2,1,2,true,d,false,true,0.0-2.0-0.53-0.483-3.483,0,0,0,68,false,stim,false,0,700,2,0,1,19096,task2,1237327,false,false,1552,image-keyboard-response,11
true,15,2,1,2,true,d,false,true,0.0-2.0-0.53-0.484-3.484,0,0,0,68,false,stim,false,0,673,2,0,1,19096,task2,1239511,false,false,1555,image-keyboard-response,12
true,15,1,1,1,true,z,false,false,0.0-2.0-0.53-0.485-3.485,0,0,0,90,false,stim,false,2,1403,2,0,2,19096,task2,1242430,false,true,1558,image-keyboard-response,13
true,15,1,1,1,true,z,false,true,0.0-2.0-0.54-0.486-3.486,0,0,0,90,false,stim,false,2,656,2,0,2,19096,task2,1244599,false,false,1561,image-keyboard-response,14
true,15,0,1,0,true,q,false,false,0.0-2.0-0.54-0.487-3.487,0,0,0,81,false,stim,false,1,2195,2,0,0,19096,task2,1248326,false,true,1564,image-keyboard-response,15
true,15,0,1,0,true,q,false,true,0.0-2.0-0.54-0.488-3.488,0,0,0,81,false,stim,false,1,557,2,0,0,19096,task2,1250399,false,false,1567,image-keyboard-response,16
true,15,2,1,2,true,d,false,false,0.0-2.0-0.54-0.489-3.489,0,0,0,68,false,stim,false,0,624,2,0,1,19096,task2,1252551,false,true,1570,image-keyboard-response,17
true,15,2,1,2,true,d,false,true,0.0-2.0-0.54-0.490-3.490,0,0,0,68,false,stim,false,0,548,2,0,1,19096,task2,1254606,false,false,1573,image-keyboard-response,18
true,15,2,1,2,true,d,false,true,0.0-2.0-0.54-0.491-3.491,0,0,0,68,false,stim,false,0,872,2,0,1,19096,task2,1257007,false,false,1576,image-keyboard-response,19
true,15,1,1,1,true,z,false,false,0.0-2.0-0.54-0.492-3.492,0,0,0,90,false,stim,false,2,1255,2,0,2,19096,task2,1259775,false,true,1579,image-keyboard-response,20
true,15,0,1,0,true,q,false,true,0.0-2.0-0.54-0.493-3.493,0,0,0,81,false,stim,false,1,1363,2,0,0,19096,task2,1262654,false,false,1582,image-keyboard-response,21
true,15,2,1,1,false,z,false,false,0.0-2.0-0.54-0.494-3.494,0,0,0,68,false,stim,true,2,1095,2,0,2,19096,task2,1265262,false,false,1585,image-keyboard-response,22
true,15,0,1,0,true,q,false,false,0.0-2.0-0.55-0.495-3.495,0,0,0,81,false,stim,false,1,821,2,0,0,19096,task2,1267598,false,true,1588,image-keyboard-response,23
true,15,2,1,2,true,d,false,true,0.0-2.0-0.55-0.496-3.496,0,0,0,68,false,stim,false,0,924,2,0,1,19096,task2,1270039,false,false,1591,image-keyboard-response,24
true,15,1,1,1,true,z,false,true,0.0-2.0-0.55-0.497-3.497,0,0,0,90,false,stim,false,2,517,2,0,2,19096,task2,1272078,false,false,1594,image-keyboard-response,25
true,15,1,1,1,true,z,false,true,0.0-2.0-0.55-0.498-3.498,0,0,0,90,false,stim,false,2,708,2,0,2,19096,task2,1274310,false,false,1597,image-keyboard-response,26
true,15,1,1,1,true,z,false,true,0.0-2.0-0.55-0.499-3.499,0,0,0,90,false,stim,false,2,717,2,0,2,19096,task2,1276550,false,false,1600,image-keyboard-response,27
true,15,2,1,2,true,d,false,true,0.0-2.0-0.55-0.500-3.500,0,0,0,68,false,stim,false,0,1450,2,0,1,19096,task2,1279527,false,false,1603,image-keyboard-response,28
true,15,0,1,0,true,q,false,true,0.0-2.0-0.55-0.501-3.501,0,0,0,81,false,stim,false,1,795,2,0,0,19096,task2,1281830,false,false,1606,image-keyboard-response,29
true,15,0,1,0,true,q,false,true,0.0-2.0-0.55-0.502-3.502,0,0,0,81,false,stim,false,1,1290,2,0,0,19096,task2,1284638,false,false,1609,image-keyboard-response,30
true,15,2,1,2,true,d,false,true,0.0-2.0-0.55-0.503-3.503,0,0,0,68,false,stim,false,0,2323,2,0,1,19096,task2,1288479,false,false,1612,image-keyboard-response,31
true,15,2,1,2,true,d,false,true,0.0-2.0-0.56-0.504-3.504,0,0,0,68,false,stim,false,0,742,2,0,1,19096,task2,1290734,false,false,1615,image-keyboard-response,32
true,15,0,1,0,true,q,false,true,0.0-2.0-0.56-0.505-3.505,0,0,0,81,false,stim,false,1,1317,2,0,0,19096,task2,1293574,false,false,1618,image-keyboard-response,33
true,15,0,1,0,true,q,false,true,0.0-2.0-0.56-0.506-3.506,0,0,0,81,false,stim,false,1,647,2,0,0,19096,task2,1295734,false,false,1621,image-keyboard-response,34
true,15,2,1,2,true,d,false,true,0.0-2.0-0.56-0.507-3.507,0,0,0,68,false,stim,false,0,1079,2,0,1,19096,task2,1298326,false,false,1624,image-keyboard-response,35
true,16,0,1,1,false,z,false,false,0.0-2.0-0.56-0.508-3.508,0,0,0,81,true,stim,true,0,780,2,0,0,19096,task2,1300630,false,false,1627,image-keyboard-response,1
true,16,2,1,1,false,z,false,false,0.0-2.0-0.56-0.509-3.509,0,0,0,68,false,stim,true,2,1097,2,0,1,19096,task2,1303239,false,false,1630,image-keyboard-response,2
true,16,1,1,2,false,d,false,false,0.0-2.0-0.56-0.510-3.510,0,0,0,90,false,stim,true,1,876,2,0,2,19096,task2,1305623,false,false,1633,image-keyboard-response,3
true,16,0,1,2,false,d,true,false,0.0-2.0-0.56-0.511-3.511,0,0,0,81,false,stim,false,1,776,2,0,2,19096,task2,1307918,false,false,1636,image-keyboard-response,4
true,16,2,1,2,true,d,false,true,0.0-2.0-0.56-0.512-3.512,0,0,0,68,false,stim,false,1,545,2,0,2,19096,task2,1309982,false,false,1639,image-keyboard-response,5
true,16,1,1,1,true,z,false,true,0.0-2.0-0.57-0.513-3.513,0,0,0,90,false,stim,false,0,899,2,0,0,19096,task2,1312399,false,false,1642,image-keyboard-response,6
true,16,2,1,2,true,d,false,true,0.0-2.0-0.57-0.514-3.514,0,0,0,68,false,stim,false,1,612,2,0,2,19096,task2,1314542,false,false,1645,image-keyboard-response,7
true,16,2,1,2,true,d,false,true,0.0-2.0-0.57-0.515-3.515,0,0,0,68,false,stim,false,1,780,2,0,2,19096,task2,1316838,false,false,1648,image-keyboard-response,8
true,16,1,1,1,true,z,false,true,0.0-2.0-0.57-0.516-3.516,0,0,0,90,false,stim,false,0,574,2,0,0,19096,task2,1318926,false,false,1651,image-keyboard-response,9
true,16,0,1,1,false,z,true,false,0.0-2.0-0.57-0.517-3.517,0,0,0,81,false,stim,false,2,1130,2,0,1,19096,task2,1321583,false,false,1654,image-keyboard-response,10
true,16,1,1,1,true,z,false,true,0.0-2.0-0.57-0.518-3.518,0,0,0,90,false,stim,false,2,576,2,0,1,19096,task2,1323678,false,false,1657,image-keyboard-response,11
true,16,2,1,2,true,d,false,true,0.0-2.0-0.57-0.519-3.519,0,0,0,68,false,stim,false,1,1243,2,0,2,19096,task2,1326447,false,false,1660,image-keyboard-response,12
true,16,1,1,1,true,z,false,true,0.0-2.0-0.57-0.520-3.520,0,0,0,90,false,stim,false,0,766,2,0,0,19096,task2,1328734,false,false,1663,image-keyboard-response,13
true,16,1,1,1,true,z,false,true,0.0-2.0-0.57-0.521-3.521,0,0,0,90,false,stim,false,2,448,2,0,1,19096,task2,1330686,false,false,1666,image-keyboard-response,14
true,16,2,1,2,true,d,false,true,0.0-2.0-0.58-0.522-3.522,0,0,0,68,false,stim,false,1,464,2,0,2,19096,task2,1332662,false,false,1669,image-keyboard-response,15
true,16,2,1,2,true,d,false,false,0.0-2.0-0.58-0.523-3.523,0,0,0,68,false,stim,false,1,397,2,0,2,19096,task2,1334574,false,true,1672,image-keyboard-response,16
true,16,1,1,1,true,z,false,true,0.0-2.0-0.58-0.524-3.524,0,0,0,90,false,stim,false,0,702,2,0,0,19096,task2,1336798,false,false,1675,image-keyboard-response,17
true,16,1,1,1,true,z,false,true,0.0-2.0-0.58-0.525-3.525,0,0,0,90,false,stim,false,0,580,2,0,0,19096,task2,1338886,false,false,1678,image-keyboard-response,18
true,16,2,1,1,false,z,false,false,0.0-2.0-0.58-0.526-3.526,0,0,0,68,false,stim,true,2,2787,2,0,1,19096,task2,1343190,false,false,1681,image-keyboard-response,19
true,16,2,1,2,true,d,false,true,0.0-2.0-0.58-0.527-3.527,0,0,0,68,false,stim,false,1,574,2,0,2,19096,task2,1345294,false,false,1684,image-keyboard-response,20
true,16,1,1,1,true,z,false,true,0.0-2.0-0.58-0.528-3.528,0,0,0,90,false,stim,false,0,811,2,0,0,19096,task2,1347630,false,false,1687,image-keyboard-response,21
true,16,1,1,1,true,z,false,true,0.0-2.0-0.58-0.529-3.529,0,0,0,90,false,stim,false,2,446,2,0,1,19096,task2,1349591,false,false,1690,image-keyboard-response,22
true,16,1,1,1,true,z,false,true,0.0-2.0-0.58-0.530-3.530,0,0,0,90,false,stim,false,2,596,2,0,1,19096,task2,1351702,false,false,1693,image-keyboard-response,23
true,16,1,1,1,true,z,false,true,0.0-2.0-0.59-0.531-3.531,0,0,0,90,false,stim,false,2,489,2,0,1,19096,task2,1353710,false,false,1696,image-keyboard-response,24
true,16,1,1,1,true,z,false,true,0.0-2.0-0.59-0.532-3.532,0,0,0,90,false,stim,false,0,1400,2,0,0,19096,task2,1356622,false,false,1699,image-keyboard-response,25
true,16,2,1,2,true,d,false,true,0.0-2.0-0.59-0.533-3.533,0,0,0,68,false,stim,false,1,903,2,0,2,19096,task2,1359046,false,false,1702,image-keyboard-response,26
true,16,2,1,2,true,d,false,true,0.0-2.0-0.59-0.534-3.534,0,0,0,68,false,stim,false,1,761,2,0,2,19096,task2,1361326,false,false,1705,image-keyboard-response,27
true,16,1,1,1,true,z,false,true,0.0-2.0-0.59-0.535-3.535,0,0,0,90,false,stim,false,2,690,2,0,1,19096,task2,1363534,false,false,1708,image-keyboard-response,28
true,16,1,1,1,true,z,false,false,0.0-2.0-0.59-0.536-3.536,0,0,0,90,false,stim,false,2,624,2,0,1,19096,task2,1365687,false,true,1711,image-keyboard-response,29
true,16,1,1,1,true,z,false,true,0.0-2.0-0.59-0.537-3.537,0,0,0,90,false,stim,false,0,854,2,0,0,19096,task2,1368062,false,false,1714,image-keyboard-response,30
true,16,2,1,2,true,d,false,true,0.0-2.0-0.59-0.538-3.538,0,0,0,68,false,stim,false,1,618,2,0,2,19096,task2,1370190,false,false,1717,image-keyboard-response,31
true,16,1,1,1,true,z,false,true,0.0-2.0-0.59-0.539-3.539,0,0,0,90,false,stim,false,0,2206,2,1,0,19096,task2,1373926,false,false,1720,image-keyboard-response,32
true,16,1,1,1,true,z,false,true,0.0-2.0-0.60-0.540-3.540,0,0,0,90,false,stim,false,0,469,2,1,0,19096,task2,1375918,false,false,1723,image-keyboard-response,33
true,16,2,1,2,true,d,false,false,0.0-2.0-0.60-0.541-3.541,0,0,0,68,false,stim,false,1,984,2,1,2,19096,task2,1378422,false,true,1726,image-keyboard-response,34
true,16,1,1,1,true,z,false,true,0.0-2.0-0.60-0.542-3.542,0,0,0,90,false,stim,false,2,617,2,1,1,19096,task2,1380550,false,false,1729,image-keyboard-response,35
true,16,1,1,1,true,z,false,true,0.0-2.0-0.60-0.543-3.543,0,0,0,90,false,stim,false,0,654,2,1,0,19096,task2,1382711,false,false,1732,image-keyboard-response,36
true,17,0,0,1,false,z,true,false,0.0-2.0-0.60-0.544-3.544,1,1,1,81,true,stim,false,1,940,2,1,1,19096,task2,1475198,false,false,1825,image-keyboard-response,1
true,17,1,0,2,false,d,true,false,0.0-2.0-0.60-0.545-3.545,1,1,1,90,false,stim,false,2,918,2,1,2,19096,task2,1477638,false,false,1828,image-keyboard-response,2
true,17,1,0,1,true,z,false,true,0.0-2.0-0.60-0.546-3.546,1,1,1,90,false,stim,false,1,870,2,1,1,19096,task2,1480022,false,false,1831,image-keyboard-response,3
true,17,1,0,1,true,z,false,false,0.0-2.0-0.60-0.547-3.547,1,1,1,90,false,stim,false,1,730,2,1,0,19096,task2,1482270,false,true,1834,image-keyboard-response,4
true,17,2,0,2,true,d,false,false,0.0-2.0-0.60-0.548-3.548,1,1,1,68,false,stim,false,2,1272,2,1,2,19096,task2,1485054,false,true,1837,image-keyboard-response,5
true,17,2,0,1,false,z,true,false,0.0-2.0-0.61-0.549-3.549,1,1,1,68,false,stim,false,1,617,2,1,0,19096,task2,1487182,false,false,1840,image-keyboard-response,6
true,17,0,0,2,false,d,true,false,0.0-2.0-0.61-0.550-3.550,1,1,1,81,false,stim,false,2,551,2,1,2,19096,task2,1489246,false,false,1843,image-keyboard-response,7
true,17,1,0,1,true,z,false,true,0.0-2.0-0.61-0.551-3.551,1,1,1,90,false,stim,false,1,782,2,1,1,19096,task2,1491558,false,false,1846,image-keyboard-response,8
true,17,1,0,1,true,z,false,true,0.0-2.0-0.61-0.552-3.552,1,1,1,90,false,stim,false,1,676,2,1,1,19096,task2,1493750,false,false,1849,image-keyboard-response,9
true,17,0,0,1,false,z,true,false,0.0-2.0-0.61-0.553-3.553,1,1,1,81,false,stim,false,1,565,2,0,0,19096,task2,1495829,false,false,1852,image-keyboard-response,10
true,17,1,0,2,false,d,true,false,0.0-2.0-0.61-0.554-3.554,1,1,1,90,false,stim,false,2,958,2,0,2,19096,task2,1498294,false,false,1855,image-keyboard-response,11
true,17,1,0,1,true,z,false,true,0.0-2.0-0.61-0.555-3.555,1,1,1,90,false,stim,false,1,863,2,1,1,19096,task2,1500662,false,false,1858,image-keyboard-response,12
true,17,1,0,2,false,d,true,false,0.0-2.0-0.61-0.556-3.556,1,1,1,90,false,stim,false,2,685,2,0,2,19096,task2,1502854,false,false,1861,image-keyboard-response,13
true,18,1,2,2,false,d,false,false,0.0-2.0-0.61-0.557-3.557,0,1,0,90,true,stim,true,1,912,2,0,0,19096,task2,1505294,false,false,1864,image-keyboard-response,1
true,18,2,2,0,false,q,false,false,0.0-2.0-0.62-0.558-3.558,0,1,0,68,false,stim,true,2,860,2,0,2,19096,task2,1507662,false,false,1867,image-keyboard-response,2
true,18,2,2,2,true,d,false,false,0.0-2.0-0.62-0.559-3.559,0,1,0,68,false,stim,false,1,921,2,0,0,19096,task2,1510102,false,true,1870,image-keyboard-response,3
true,18,1,2,1,true,z,false,true,0.0-2.0-0.62-0.560-3.560,0,1,0,90,false,stim,false,1,601,2,1,1,19096,task2,1512221,false,false,1873,image-keyboard-response,4
true,18,2,2,2,true,d,false,true,0.0-2.0-0.62-0.561-3.561,0,1,0,68,false,stim,false,1,621,2,0,0,19096,task2,1514358,false,false,1876,image-keyboard-response,5
true,18,2,2,0,false,q,false,false,0.0-2.0-0.62-0.562-3.562,0,1,0,68,false,stim,true,2,1236,2,0,2,19096,task2,1517126,false,false,1879,image-keyboard-response,6
true,18,1,2,1,true,z,false,true,0.0-2.0-0.62-0.563-3.563,0,1,0,90,false,stim,false,1,546,2,1,1,19096,task2,1519182,false,false,1882,image-keyboard-response,7
true,18,2,2,2,true,d,false,true,0.0-2.0-0.62-0.564-3.564,0,1,0,68,false,stim,false,1,892,2,0,0,19096,task2,1521581,false,false,1885,image-keyboard-response,8
true,18,1,2,1,true,z,false,true,0.0-2.0-0.62-0.565-3.565,0,1,0,90,false,stim,false,1,781,2,1,1,19096,task2,1523877,false,false,1888,image-keyboard-response,9
true,18,2,2,0,false,q,false,false,0.0-2.0-0.62-0.566-3.566,0,1,0,68,false,stim,true,2,730,2,0,2,19096,task2,1526134,false,false,1891,image-keyboard-response,10
true,18,1,2,1,true,z,false,true,0.0-2.0-0.63-0.567-3.567,0,1,0,90,false,stim,false,1,660,2,1,1,19096,task2,1528318,false,false,1894,image-keyboard-response,11
true,18,1,2,1,true,z,false,true,0.0-2.0-0.63-0.568-3.568,0,1,0,90,false,stim,false,1,1192,2,1,1,19096,task2,1531030,false,false,1897,image-keyboard-response,12
true,18,0,2,0,true,q,false,true,0.0-2.0-0.63-0.569-3.569,0,1,0,81,false,stim,false,2,1018,2,0,2,19096,task2,1533558,false,false,1900,image-keyboard-response,13
true,18,0,2,0,true,q,false,true,0.0-2.0-0.63-0.570-3.570,0,1,0,81,false,stim,false,2,522,2,0,2,19096,task2,1535598,false,false,1903,image-keyboard-response,14
true,18,2,2,2,true,d,false,true,0.0-2.0-0.63-0.571-3.571,0,1,0,68,false,stim,false,1,729,2,0,0,19096,task2,1537838,false,false,1906,image-keyboard-response,15
true,18,0,2,0,true,q,false,true,0.0-2.0-0.63-0.572-3.572,0,1,0,81,false,stim,false,2,938,2,0,2,19096,task2,1540286,false,false,1909,image-keyboard-response,16
true,18,2,2,2,true,d,false,true,0.0-2.0-0.63-0.573-3.573,0,1,0,68,false,stim,false,1,1652,2,0,0,19096,task2,1543454,false,false,1912,image-keyboard-response,17
true,18,2,2,2,true,d,false,true,0.0-2.0-0.63-0.574-3.574,0,1,0,68,false,stim,false,1,964,2,0,0,19096,task2,1545934,false,false,1915,image-keyboard-response,18
true,18,1,2,1,true,z,false,false,0.0-2.0-0.63-0.575-3.575,0,1,0,90,false,stim,false,1,696,2,1,1,19096,task2,1548150,false,true,1918,image-keyboard-response,19
true,18,0,2,1,false,z,true,false,0.0-2.0-0.64-0.576-3.576,0,1,0,81,false,stim,false,1,433,2,1,1,19096,task2,1550102,false,false,1921,image-keyboard-response,20
true,18,2,2,2,true,d,false,true,0.0-2.0-0.64-0.577-3.577,0,1,0,68,false,stim,false,1,939,2,0,0,19096,task2,1552558,false,false,1924,image-keyboard-response,21
true,18,2,2,2,true,d,false,true,0.0-2.0-0.64-0.578-3.578,0,1,0,68,false,stim,false,1,664,2,0,0,19096,task2,1554742,false,false,1927,image-keyboard-response,22
true,18,0,2,0,true,q,false,true,0.0-2.0-0.64-0.579-3.579,0,1,0,81,false,stim,false,2,1434,2,0,2,19096,task2,1557694,false,false,1930,image-keyboard-response,23
true,18,0,2,0,true,q,false,true,0.0-2.0-0.64-0.580-3.580,0,1,0,81,false,stim,false,2,456,2,0,2,19096,task2,1559662,false,false,1933,image-keyboard-response,24
true,18,2,2,2,true,d,false,true,0.0-2.0-0.64-0.581-3.581,0,1,0,68,false,stim,false,1,824,2,0,0,19096,task2,1562006,false,false,1936,image-keyboard-response,25
true,18,1,2,1,true,z,false,true,0.0-2.0-0.64-0.582-3.582,0,1,0,90,false,stim,false,1,1146,2,1,1,19096,task2,1564678,false,false,1939,image-keyboard-response,26
true,18,0,2,0,true,q,false,true,0.0-2.0-0.64-0.583-3.583,0,1,0,81,false,stim,false,2,1671,2,0,2,19096,task2,1567870,false,false,1942,image-keyboard-response,27
true,18,1,2,1,true,z,false,true,0.0-2.0-0.64-0.584-3.584,0,1,0,90,false,stim,false,1,1023,2,1,1,19096,task2,1570413,false,false,1945,image-keyboard-response,28
true,18,1,2,1,true,z,false,true,0.0-2.0-0.65-0.585-3.585,0,1,0,90,false,stim,false,1,540,2,1,1,19096,task2,1572477,false,false,1948,image-keyboard-response,29
true,18,0,2,0,true,q,false,true,0.0-2.0-0.65-0.586-3.586,0,1,0,81,false,stim,false,2,710,2,0,2,19096,task2,1574694,false,false,1951,image-keyboard-response,30
true,18,1,2,1,true,z,false,true,0.0-2.0-0.65-0.587-3.587,0,1,0,90,false,stim,false,1,445,2,1,1,19096,task2,1576654,false,false,1954,image-keyboard-response,31
true,18,0,2,0,true,q,false,true,0.0-2.0-0.65-0.588-3.588,0,1,0,81,false,stim,false,2,679,2,0,2,19096,task2,1578846,false,false,1957,image-keyboard-response,32
true,18,2,2,2,true,d,false,true,0.0-2.0-0.65-0.589-3.589,0,1,0,68,false,stim,false,1,938,2,0,0,19096,task2,1581294,false,false,1960,image-keyboard-response,33
true,18,2,2,2,true,d,false,true,0.0-2.0-0.65-0.590-3.590,0,1,0,68,false,stim,false,1,1764,2,0,0,19096,task2,1584574,false,false,1963,image-keyboard-response,34
true,18,2,2,2,true,d,false,true,0.0-2.0-0.65-0.591-3.591,0,1,0,68,false,stim,false,1,846,2,0,0,19096,task2,1586934,false,false,1966,image-keyboard-response,35
true,19,0,2,1,false,z,false,false,0.0-2.0-0.65-0.592-3.592,0,1,0,81,true,stim,true,0,1041,2,0,2,19096,task2,1589494,false,false,1969,image-keyboard-response,1
true,19,1,2,1,true,z,false,true,0.0-2.0-0.65-0.593-3.593,0,1,0,90,false,stim,false,1,526,2,1,1,19096,task2,1591534,false,false,1972,image-keyboard-response,2
true,19,2,2,0,false,q,false,false,0.0-2.0-0.66-0.594-3.594,0,1,0,68,false,stim,true,2,748,2,0,0,19096,task2,1593797,false,false,1975,image-keyboard-response,3
true,19,1,2,1,true,z,false,true,0.0-2.0-0.66-0.595-3.595,0,1,0,90,false,stim,false,1,1148,2,1,1,19096,task2,1596470,false,false,1978,image-keyboard-response,4
true,19,1,2,1,true,z,false,true,0.0-2.0-0.66-0.596-3.596,0,1,0,90,false,stim,false,1,608,2,1,1,19096,task2,1598606,false,false,1981,image-keyboard-response,5
true,19,2,2,0,false,q,false,true,0.0-2.0-0.66-0.597-3.597,0,1,0,68,false,stim,true,2,902,2,0,0,19096,task2,1601030,false,true,1984,image-keyboard-response,6
true,19,2,2,0,false,q,false,false,0.0-2.0-0.66-0.598-3.598,0,1,0,68,false,stim,true,2,1156,2,0,0,19096,task2,1603702,false,false,1987,image-keyboard-response,7
true,19,0,2,1,false,z,false,true,0.0-2.0-0.66-0.599-3.599,0,1,0,81,false,stim,true,0,623,2,0,2,19096,task2,1605829,false,true,1990,image-keyboard-response,8
true,19,1,2,1,true,z,false,true,0.0-2.0-0.66-0.600-3.600,0,1,0,90,false,stim,false,1,498,2,1,1,19096,task2,1607853,false,false,1993,image-keyboard-response,9
true,19,1,2,1,true,z,false,true,0.0-2.0-0.66-0.601-3.601,0,1,0,90,false,stim,false,0,802,2,0,2,19096,task2,1610174,false,false,1996,image-keyboard-response,10
true,19,1,2,1,true,z,false,true,0.0-2.0-0.66-0.602-3.602,0,1,0,90,false,stim,false,0,568,2,0,2,19096,task2,1612254,false,false,1999,image-keyboard-response,11
true,19,2,2,0,false,q,false,false,0.0-2.0-0.67-0.603-3.603,0,1,0,68,false,stim,true,2,1553,2,0,0,19096,task2,1615334,false,false,2002,image-keyboard-response,12
true,19,0,2,1,false,z,false,false,0.0-2.0-0.67-0.604-3.604,0,1,0,81,false,stim,true,0,1598,2,0,2,19096,task2,1618454,false,false,2005,image-keyboard-response,13
true,19,0,2,1,false,z,false,false,0.0-2.0-0.67-0.605-3.605,0,1,0,81,false,stim,true,0,716,2,0,2,19096,task2,1620694,false,false,2008,image-keyboard-response,14
true,19,1,2,1,true,z,false,true,0.0-2.0-0.67-0.606-3.606,0,1,0,90,false,stim,false,1,795,2,1,1,19096,task2,1623005,false,false,2011,image-keyboard-response,15
true,19,1,2,1,true,z,false,true,0.0-2.0-0.67-0.607-3.607,0,1,0,90,false,stim,false,1,495,2,1,1,19096,task2,1625013,false,false,2014,image-keyboard-response,16
true,19,1,2,1,true,z,false,true,0.0-2.0-0.67-0.608-3.608,0,1,0,90,false,stim,false,1,464,2,1,1,19096,task2,1626997,false,false,2017,image-keyboard-response,17
true,19,1,2,1,true,z,false,true,0.0-2.0-0.67-0.609-3.609,0,1,0,90,false,stim,false,0,523,2,0,2,19096,task2,1629030,false,false,2020,image-keyboard-response,18
true,19,1,2,0,false,q,true,false,0.0-2.0-0.67-0.610-3.610,0,1,0,90,false,stim,false,2,574,2,0,0,19096,task2,1631109,false,false,2023,image-keyboard-response,19
true,19,0,2,0,true,q,false,true,0.0-2.0-0.67-0.611-3.611,0,1,0,81,false,stim,false,2,544,2,0,0,19096,task2,1633174,false,false,2026,image-keyboard-response,20
true,19,1,2,1,true,z,false,true,0.0-2.0-0.68-0.612-3.612,0,1,0,90,false,stim,false,1,577,2,1,1,19096,task2,1635270,false,false,2029,image-keyboard-response,21
true,19,1,2,1,true,z,false,true,0.0-2.0-0.68-0.613-3.613,0,1,0,90,false,stim,false,0,526,2,0,2,19096,task2,1637318,false,false,2032,image-keyboard-response,22
true,19,1,2,1,true,z,false,false,0.0-2.0-0.68-0.614-3.614,0,1,0,90,false,stim,false,0,466,2,0,2,19096,task2,1639302,false,true,2035,image-keyboard-response,23
true,19,0,2,0,true,q,false,true,0.0-2.0-0.68-0.615-3.615,0,1,0,81,false,stim,false,2,2025,2,0,0,19096,task2,1642838,false,false,2038,image-keyboard-response,24
true,19,1,2,1,true,z,false,true,0.0-2.0-0.68-0.616-3.616,0,1,0,90,false,stim,false,0,399,2,0,2,19096,task2,1644766,false,false,2041,image-keyboard-response,25
true,19,0,2,0,true,q,false,true,0.0-2.0-0.68-0.617-3.617,0,1,0,81,false,stim,false,2,713,2,0,0,19096,task2,1646989,false,false,2044,image-keyboard-response,26
true,19,1,2,1,true,z,false,true,0.0-2.0-0.68-0.618-3.618,0,1,0,90,false,stim,false,1,535,2,0,1,19096,task2,1649038,false,false,2047,image-keyboard-response,27
true,19,1,2,1,true,z,false,true,0.0-2.0-0.68-0.619-3.619,0,1,0,90,false,stim,false,1,474,2,0,1,19096,task2,1651030,false,false,2050,image-keyboard-response,28
true,19,1,2,0,false,q,true,false,0.0-2.0-0.68-0.620-3.620,0,1,0,90,false,stim,false,2,1429,2,0,0,19096,task2,1653974,false,false,2053,image-keyboard-response,29
true,19,1,2,1,true,z,false,false,0.0-2.0-0.69-0.621-3.621,0,1,0,90,false,stim,false,1,1069,2,0,1,19096,task2,1656557,false,true,2056,image-keyboard-response,30
true,19,0,2,0,true,q,false,true,0.0-2.0-0.69-0.622-3.622,0,1,0,81,false,stim,false,2,659,2,0,0,19096,task2,1658741,false,false,2059,image-keyboard-response,31
true,20,1,2,0,false,q,false,false,0.0-2.0-0.69-0.623-3.623,0,0,1,90,true,stim,true,1,468,2,0,1,19096,task2,1660718,false,false,2062,image-keyboard-response,1
true,20,1,2,1,true,z,false,true,0.0-2.0-0.69-0.624-3.624,0,0,1,90,false,stim,false,1,510,2,1,2,19096,task2,1662758,false,false,2065,image-keyboard-response,2
true,20,1,2,1,true,z,false,true,0.0-2.0-0.69-0.625-3.625,0,0,1,90,false,stim,false,1,513,2,1,2,19096,task2,1664798,false,false,2068,image-keyboard-response,3
true,20,0,2,2,false,d,false,false,0.0-2.0-0.69-0.626-3.626,0,0,1,81,false,stim,true,0,555,2,0,0,19096,task2,1666869,false,false,2071,image-keyboard-response,4
true,20,1,2,0,false,q,false,false,0.0-2.0-0.69-0.627-3.627,0,0,1,90,false,stim,true,1,595,2,0,1,19096,task2,1668974,false,false,2074,image-keyboard-response,5
true,20,0,2,2,false,d,false,false,0.0-2.0-0.69-0.628-3.628,0,0,1,81,false,stim,true,0,1006,2,0,0,19096,task2,1671502,false,false,2077,image-keyboard-response,6
true,20,1,2,1,true,z,false,false,0.0-2.0-0.69-0.629-3.629,0,0,1,90,false,stim,false,1,1417,2,1,2,19096,task2,1674446,false,true,2080,image-keyboard-response,7
true,20,2,2,1,false,z,true,false,0.0-2.0-0.70-0.630-3.630,0,0,1,68,false,stim,false,1,917,2,1,2,19096,task2,1676886,false,false,2083,image-keyboard-response,8
true,20,1,2,2,false,d,true,false,0.0-2.0-0.70-0.631-3.631,0,0,1,90,false,stim,false,0,977,2,0,0,19096,task2,1679382,false,false,2086,image-keyboard-response,9
true,20,2,2,1,false,z,true,false,0.0-2.0-0.70-0.632-3.632,0,0,1,68,false,stim,false,1,1192,2,1,2,19096,task2,1682094,false,false,2089,image-keyboard-response,10
true,20,0,2,2,false,d,false,false,0.0-2.0-0.70-0.633-3.633,0,0,1,81,false,stim,true,0,1637,2,0,0,19096,task2,1685253,false,false,2092,image-keyboard-response,11
