answered,blockNum,choice,condition,corResp,correct,correct_response,explo,fb,internal_node_id,isStable_1,isStable_2,isStable_3,key_press,newBlock,part,persev,persevResp,rt,sessNum,stableAS,stimulus,subject,task,time_elapsed,training,trap,trial_index,trial_type,trialsInBlock
false,1,-1,0,2,false,d,false,false,0.0-2.0-0.0-0.0-3.0,0,0,0,,true,stim,true,-1,,2,0,2,19791,task1,157947,false,false,97,image-keyboard-response,1
true,1,2,0,2,true,d,false,true,0.0-2.0-0.0-0.1-3.1,0,0,0,68,false,stim,false,-1,213.9999999999709,2,0,2,19791,task1,159665,false,false,100,image-keyboard-response,2
false,1,-1,0,1,false,z,false,false,0.0-2.0-0.0-0.2-3.2,0,0,0,,false,stim,true,-1,,2,0,1,19791,task1,164171,false,false,103,image-keyboard-response,3
true,1,1,0,1,true,z,false,true,0.0-2.0-0.0-0.3-3.3,0,0,0,90,false,stim,false,-1,1239.0,2,0,0,19791,task1,166914,false,false,106,image-keyboard-response,4
true,1,0,0,2,false,d,true,false,0.0-2.0-0.0-0.4-3.4,0,0,0,81,false,stim,false,-1,1253.0,2,0,2,19791,task1,169670,false,false,109,image-keyboard-response,5
true,1,2,0,1,false,z,true,false,0.0-2.0-0.0-0.5-3.5,0,0,0,68,false,stim,false,-1,745.0,2,0,1,19791,task1,171919,false,false,112,image-keyboard-response,6
true,1,1,0,1,true,z,false,true,0.0-2.0-0.0-0.6-3.6,0,0,0,90,false,stim,false,-1,688.0,2,0,1,19791,task1,174111,false,false,115,image-keyboard-response,7
true,1,1,0,1,true,z,false,true,0.0-2.0-0.0-0.7-3.7,0,0,0,90,false,stim,false,-1,678.0,2,0,0,19791,task1,176293,false,false,118,image-keyboard-response,8
true,1,1,0,1,true,z,false,true,0.0-2.0-0.0-0.8-3.8,0,0,0,90,false,stim,false,-1,673.0,2,0,0,19791,task1,178472,false,false,121,image-keyboard-response,9
true,1,1,0,1,true,z,false,true,0.0-2.0-0.1-0.9-3.9,0,0,0,90,false,stim,false,-1,529.0000000000291,2,0,1,19791,task1,180506,false,false,124,image-keyboard-response,10
true,1,1,0,2,false,d,true,false,0.0-2.0-0.1-0.10-3.10,0,0,0,90,false,stim,false,-1,811.0,2,0,2,19791,task1,182823,false,false,127,image-keyboard-response,11
true,1,1,0,1,true,z,false,true,0.0-2.0-0.1-0.11-3.11,0,0,0,90,false,stim,false,-1,677.0000000000291,2,0,1,19791,task1,185006,false,false,130,image-keyboard-response,12
true,1,2,0,2,true,d,false,true,0.0-2.0-0.1-0.12-3.12,0,0,0,68,false,stim,false,-1,585.0000000000291,2,0,2,19791,task1,187095,false,false,133,image-keyboard-response,13
true,1,1,0,1,true,z,false,true,0.0-2.0-0.1-0.13-3.13,0,0,0,90,false,stim,false,-1,519.0000000000291,2,0,0,19791,task1,189119,false,false,136,image-keyboard-response,14
true,1,1,0,1,true,z,false,true,0.0-2.0-0.1-0.14-3.14,0,0,0,90,false,stim,false,-1,664.0,2,0,0,19791,task1,191288,false,false,139,image-keyboard-response,15
true,1,1,0,1,true,z,false,false,0.0-2.0-0.1-0.15-3.15,0,0,0,90,false,stim,false,-1,1462.0,2,0,1,19791,task1,194256,false,true,142,image-keyboard-response,16
true,1,1,0,1,true,z,false,true,0.0-2.0-0.1-0.16-3.16,0,0,0,90,false,stim,false,-1,902.0,2,0,0,19791,task1,196662,false,false,145,image-keyboard-response,17
true,1,2,0,2,true,d,false,true,0.0-2.0-0.1-0.17-3.17,0,0,0,68,false,stim,false,-1,1032.0,2,0,2,19791,task1,199198,false,false,148,image-keyboard-response,18
true,1,2,0,2,true,d,false,true,0.0-2.0-0.2-0.18-3.18,0,0,0,68,false,stim,false,-1,962.0,2,0,2,19791,task1,201667,false,false,151,image-keyboard-response,19
true,1,1,0,1,true,z,false,true,0.0-2.0-0.2-0.19-3.19,0,0,0,90,false,stim,false,-1,1741.0,2,0,1,19791,task1,204913,false,false,154,image-keyboard-response,20
true,1,1,0,1,true,z,false,true,0.0-2.0-0.2-0.20-3.20,0,0,0,90,false,stim,false,-1,2998.0,2,0,0,19791,task1,209417,false,false,157,image-keyboard-response,21
true,1,1,0,1,true,z,false,true,0.0-2.0-0.2-0.21-3.21,0,0,0,90,false,stim,false,-1,1558.0,2,0,1,19791,task1,212482,false,false,160,image-keyboard-response,22
true,1,1,0,1,true,z,false,true,0.0-2.0-0.2-0.22-3.22,0,0,0,90,false,stim,false,-1,836.0,2,0,1,19791,task1,214824,false,false,163,image-keyboard-response,23
true,1,1,0,1,true,z,false,true,0.0-2.0-0.2-0.23-3.23,0,0,0,90,false,stim,false,-1,1040.0,2,0,0,19791,task1,217369,false,false,166,image-keyboard-response,24
true,1,2,0,2,true,d,false,true,0.0-2.0-0.2-0.24-3.24,0,0,0,68,false,stim,false,-1,1152.0,2,0,2,19791,task1,220026,false,false,169,image-keyboard-response,25
true,1,2,0,2,true,d,false,true,0.0-2.0-0.2-0.25-3.25,0,0,0,68,false,stim,false,-1,1055.0,2,0,2,19791,task1,222587,false,false,172,image-keyboard-response,26
true,2,1,1,2,false,d,false,false,0.0-2.0-0.2-0.26-3.26,0,0,0,90,true,stim,true,1,1157.000000000029,2,0,0,19791,task1,225251,false,false,175,image-keyboard-response,1
true,2,1,1,2,false,d,false,false,0.0-2.0-0.3-0.27-3.27,0,0,0,90,false,stim,true,1,1452.0,2,0,1,19791,task1,228209,false,false,178,image-keyboard-response,2
true,2,1,1,2,false,d,false,false,0.0-2.0-0.3-0.28-3.28,0,0,0,90,false,stim,true,1,1451.0,2,0,0,19791,task1,231165,false,false,181,image-keyboard-response,3
true,2,2,1,1,false,z,false,false,0.0-2.0-0.3-0.29-3.29,0,0,0,68,false,stim,true,2,1549.0,2,0,2,19791,task1,234219,false,false,184,image-keyboard-response,4
true,2,0,1,2,false,d,true,false,0.0-2.0-0.3-0.30-3.30,0,0,0,81,false,stim,false,1,1382.0,2,0,0,19791,task1,237106,false,false,187,image-keyboard-response,5
true,2,1,1,2,false,d,false,false,0.0-2.0-0.3-0.31-3.31,0,0,0,90,false,stim,true,1,1455.0,2,0,1,19791,task1,240065,false,false,190,image-keyboard-response,6
true,2,2,1,2,true,d,false,true,0.0-2.0-0.3-0.32-3.32,0,0,0,68,false,stim,false,1,841.0,2,0,1,19791,task1,242411,false,false,193,image-keyboard-response,7
true,2,0,1,2,false,d,true,true,0.0-2.0-0.3-0.33-3.33,0,0,0,81,false,stim,false,1,899.0,2,0,0,19791,task1,244815,false,true,196,image-keyboard-response,8
true,2,2,1,1,false,z,false,false,0.0-2.0-0.3-0.34-3.34,0,0,0,68,false,stim,true,2,864.0,2,0,2,19791,task1,247184,false,false,199,image-keyboard-response,9
true,2,1,1,1,true,z,false,false,0.0-2.0-0.3-0.35-3.35,0,0,0,90,false,stim,false,2,2013.000000000029,2,0,2,19791,task1,250704,false,true,202,image-keyboard-response,10
true,2,2,1,2,true,d,false,true,0.0-2.0-0.4-0.36-3.36,0,0,0,68,false,stim,false,1,923.0,2,0,1,19791,task1,253132,false,false,205,image-keyboard-response,11
true,2,2,1,2,true,d,false,false,0.0-2.0-0.4-0.37-3.37,0,0,0,68,false,stim,false,1,1082.999999999971,2,0,1,19791,task1,255719,false,true,208,image-keyboard-response,12
true,2,2,1,2,true,d,false,true,0.0-2.0-0.4-0.38-3.38,0,0,0,68,false,stim,false,1,779.0,2,0,1,19791,task1,258003,false,false,211,image-keyboard-response,13
true,2,0,1,1,false,z,true,false,0.0-2.0-0.4-0.39-3.39,0,0,0,81,false,stim,false,2,1459.0,2,0,2,19791,task1,260966,false,false,214,image-keyboard-response,14
true,2,0,1,1,false,z,true,false,0.0-2.0-0.4-0.40-3.40,0,0,0,81,false,stim,false,2,1106.0000000000582,2,0,2,19791,task1,263576,false,false,217,image-keyboard-response,15
true,2,0,1,2,false,d,true,true,0.0-2.0-0.4-0.41-3.41,0,0,0,81,false,stim,false,1,899.0,2,0,0,19791,task1,265980,false,true,220,image-keyboard-response,16
true,2,1,1,1,true,z,false,true,0.0-2.0-0.4-0.42-3.42,0,0,0,90,false,stim,false,2,1860.0,2,0,2,19791,task1,269346,false,false,223,image-keyboard-response,17
true,2,0,1,2,false,d,true,false,0.0-2.0-0.4-0.43-3.43,0,0,0,81,false,stim,false,1,679.9999999999418,2,0,0,19791,task1,271530,false,false,226,image-keyboard-response,18
true,2,0,1,2,false,d,true,false,0.0-2.0-0.4-0.44-3.44,0,0,0,81,false,stim,false,1,710.9999999999418,2,0,0,19791,task1,273746,false,false,229,image-keyboard-response,19
true,2,2,1,2,true,d,false,true,0.0-2.0-0.5-0.45-3.45,0,0,0,68,false,stim,false,1,544.0,2,0,0,19791,task1,275795,false,false,232,image-keyboard-response,20
true,2,2,1,2,true,d,false,true,0.0-2.0-0.5-0.46-3.46,0,0,0,68,false,stim,false,1,697.0,2,0,0,19791,task1,277995,false,false,235,image-keyboard-response,21
true,2,2,1,2,true,d,false,true,0.0-2.0-0.5-0.47-3.47,0,0,0,68,false,stim,false,1,770.9999999999418,2,0,1,19791,task1,280271,false,false,238,image-keyboard-response,22
true,2,2,1,2,true,d,false,true,0.0-2.0-0.5-0.48-3.48,0,0,0,68,false,stim,false,1,509.0,2,0,1,19791,task1,282285,false,false,241,image-keyboard-response,23
true,2,1,1,1,true,z,false,true,0.0-2.0-0.5-0.49-3.49,0,0,0,90,false,stim,false,2,1007.0,2,0,2,19791,task1,284795,false,false,244,image-keyboard-response,24
true,2,2,1,2,true,d,false,true,0.0-2.0-0.5-0.50-3.50,0,0,0,68,false,stim,false,1,882.0,2,0,1,19791,task1,287181,false,false,247,image-keyboard-response,25
true,2,1,1,1,true,z,false,true,0.0-2.0-0.5-0.51-3.51,0,0,0,90,false,stim,false,2,610.0,2,0,2,19791,task1,289296,false,false,250,image-keyboard-response,26
true,2,2,1,2,true,d,false,true,0.0-2.0-0.5-0.52-3.52,0,0,0,68,false,stim,false,1,877.0,2,0,0,19791,task1,291677,false,false,253,image-keyboard-response,27
true,2,1,1,1,true,z,false,true,0.0-2.0-0.5-0.53-3.53,0,0,0,90,false,stim,false,2,851.0,2,0,2,19791,task1,294032,false,false,256,image-keyboard-response,28
true,2,2,1,2,true,d,false,true,0.0-2.0-0.6-0.54-3.54,0,0,0,68,false,stim,false,1,510.0,2,0,0,19791,task1,296049,false,false,259,image-keyboard-response,29
true,2,1,1,1,true,z,false,true,0.0-2.0-0.6-0.55-3.55,0,0,0,90,false,stim,false,2,1013.0,2,0,2,19791,task1,298567,false,false,262,image-keyboard-response,30
true,2,2,1,2,true,d,false,false,0.0-2.0-0.6-0.56-3.56,0,0,0,68,false,stim,false,1,738.9999999999418,2,0,1,19791,task1,300811,false,true,265,image-keyboard-response,31
true,2,2,1,2,true,d,false,true,0.0-2.0-0.6-0.57-3.57,0,0,0,68,false,stim,false,1,706.9999999999418,2,0,0,19791,task1,303022,false,false,268,image-keyboard-response,32
true,2,2,1,2,true,d,false,true,0.0-2.0-0.6-0.58-3.58,0,0,0,68,false,stim,false,1,463.0,2,0,1,19791,task1,304990,false,false,271,image-keyboard-response,33
true,2,1,1,1,true,z,false,true,0.0-2.0-0.6-0.59-3.59,0,0,0,90,false,stim,false,2,677.0,2,0,2,19791,task1,307172,false,false,274,image-keyboard-response,34
true,2,2,1,2,true,d,false,true,0.0-2.0-0.6-0.60-3.60,0,0,0,68,false,stim,false,1,658.0,2,0,1,19791,task1,309336,false,false,277,image-keyboard-response,35
true,2,1,1,1,true,z,false,true,0.0-2.0-0.6-0.61-3.61,0,0,0,90,false,stim,false,2,650.0,2,0,2,19791,task1,311491,false,false,280,image-keyboard-response,36
true,2,2,1,2,true,d,false,true,0.0-2.0-0.6-0.62-3.62,0,0,0,68,false,stim,false,1,768.0,2,0,0,19791,task1,313764,false,false,283,image-keyboard-response,37
true,2,2,1,2,true,d,false,true,0.0-2.0-0.7-0.63-3.63,0,0,0,68,false,stim,false,1,425.0,2,0,0,19791,task1,315693,false,false,286,image-keyboard-response,38
true,2,2,1,2,true,d,false,true,0.0-2.0-0.7-0.64-3.64,0,0,0,68,false,stim,false,1,592.0,2,0,1,19791,task1,317790,false,false,289,image-keyboard-response,39
true,2,1,1,1,true,z,false,true,0.0-2.0-0.7-0.65-3.65,0,0,0,90,false,stim,false,2,688.0,2,0,2,19791,task1,319984,false,false,292,image-keyboard-response,40
true,2,2,1,2,true,d,false,true,0.0-2.0-0.7-0.66-3.66,0,0,0,68,false,stim,false,1,618.0,2,0,1,19791,task1,322106,false,false,295,image-keyboard-response,41
true,2,1,1,1,true,z,false,true,0.0-2.0-0.7-0.67-3.67,0,0,0,90,false,stim,false,2,940.0,2,0,2,19791,task1,324553,false,false,298,image-keyboard-response,42
true,2,2,1,2,true,d,false,true,0.0-2.0-0.7-0.68-3.68,0,0,0,68,false,stim,false,1,649.0,2,0,1,19791,task1,326710,false,false,301,image-keyboard-response,43
true,2,2,1,1,false,z,false,false,0.0-2.0-0.7-0.69-3.69,0,0,0,68,false,stim,true,2,606.0,2,0,2,19791,task1,328822,false,false,304,image-keyboard-response,44
true,3,2,1,1,false,z,false,false,0.0-2.0-0.7-0.70-3.70,0,0,0,68,true,stim,true,2,566.9999999999418,2,0,0,19791,task1,330895,false,false,307,image-keyboard-response,1
true,3,2,1,1,false,z,false,false,0.0-2.0-0.7-0.71-3.71,0,0,0,68,false,stim,true,2,691.0,2,0,0,19791,task1,333091,false,false,310,image-keyboard-response,2
true,3,2,1,0,false,q,false,false,0.0-2.0-0.8-0.72-3.72,0,0,0,68,false,stim,true,2,1087.0,2,0,1,19791,task1,335685,false,false,313,image-keyboard-response,3
true,3,2,1,0,false,q,false,false,0.0-2.0-0.8-0.73-3.73,0,0,0,68,false,stim,true,2,661.0,2,0,1,19791,task1,337852,false,false,316,image-keyboard-response,4
true,3,0,1,1,false,z,true,false,0.0-2.0-0.8-0.74-3.74,0,0,0,81,false,stim,false,2,696.0,2,0,0,19791,task1,340055,false,false,319,image-keyboard-response,5
true,3,1,1,0,false,q,false,false,0.0-2.0-0.8-0.75-3.75,0,0,0,90,false,stim,true,1,771.9999999999418,2,0,2,19791,task1,342333,false,false,322,image-keyboard-response,6
true,3,2,1,0,false,q,true,false,0.0-2.0-0.8-0.76-3.76,0,0,0,68,false,stim,false,1,1029.0,2,0,2,19791,task1,344867,false,false,325,image-keyboard-response,7
true,3,1,1,1,true,z,false,true,0.0-2.0-0.8-0.77-3.77,0,0,0,90,false,stim,false,2,818.0000000000582,2,0,0,19791,task1,347191,false,false,328,image-keyboard-response,8
true,3,0,1,0,true,q,false,true,0.0-2.0-0.8-0.78-3.78,0,0,0,81,false,stim,false,1,1446.0,2,0,2,19791,task1,350143,false,false,331,image-keyboard-response,9
true,3,1,1,1,true,z,false,true,0.0-2.0-0.8-0.79-3.79,0,0,0,90,false,stim,false,2,604.0,2,0,0,19791,task1,352252,false,false,334,image-keyboard-response,10
true,3,0,1,0,true,q,false,true,0.0-2.0-0.8-0.80-3.80,0,0,0,81,false,stim,false,2,833.0,2,0,1,19791,task1,354592,false,false,337,image-keyboard-response,11
true,3,0,1,0,true,q,false,true,0.0-2.0-0.9-0.81-3.81,0,0,0,81,false,stim,false,2,688.9999999999418,2,0,1,19791,task1,356787,false,false,340,image-keyboard-response,12
true,3,1,1,1,true,z,false,true,0.0-2.0-0.9-0.82-3.82,0,0,0,90,false,stim,false,2,825.0,2,0,0,19791,task1,359118,false,false,343,image-keyboard-response,13
true,3,0,1,0,true,q,false,true,0.0-2.0-0.9-0.83-3.83,0,0,0,81,false,stim,false,2,887.0,2,0,1,19791,task1,361512,false,false,346,image-keyboard-response,14
true,3,0,1,0,true,q,false,true,0.0-2.0-0.9-0.84-3.84,0,0,0,81,false,stim,false,1,815.0,2,0,2,19791,task1,363833,false,false,349,image-keyboard-response,15
true,3,0,1,0,true,q,false,true,0.0-2.0-0.9-0.85-3.85,0,0,0,81,false,stim,false,1,766.0,2,0,2,19791,task1,366105,false,false,352,image-keyboard-response,16
true,3,0,1,0,true,q,false,true,0.0-2.0-0.9-0.86-3.86,0,0,0,81,false,stim,false,1,712.0000000000582,2,0,2,19791,task1,368323,false,false,355,image-keyboard-response,17
true,3,1,1,1,true,z,false,false,0.0-2.0-0.9-0.87-3.87,0,0,0,90,false,stim,false,2,650.0,2,0,0,19791,task1,370479,false,true,358,image-keyboard-response,18
true,3,0,1,0,true,q,false,true,0.0-2.0-0.9-0.88-3.88,0,0,0,81,false,stim,false,2,803.0,2,0,1,19791,task1,372787,false,false,361,image-keyboard-response,19
true,3,1,1,1,true,z,false,false,0.0-2.0-0.9-0.89-3.89,0,0,0,90,false,stim,false,2,731.0,2,0,0,19791,task1,375025,false,true,364,image-keyboard-response,20
true,3,0,1,0,true,q,false,true,0.0-2.0-0.10-0.90-3.90,0,0,0,81,false,stim,false,1,828.0000000000582,2,0,2,19791,task1,377360,false,false,367,image-keyboard-response,21
true,3,0,1,0,true,q,false,true,0.0-2.0-0.10-0.91-3.91,0,0,0,81,false,stim,false,1,614.0,2,0,2,19791,task1,379480,false,false,370,image-keyboard-response,22
true,3,0,1,0,true,q,false,true,0.0-2.0-0.10-0.92-3.92,0,0,0,81,false,stim,false,2,542.0,2,0,1,19791,task1,381528,false,false,373,image-keyboard-response,23
true,3,0,1,0,true,q,false,true,0.0-2.0-0.10-0.93-3.93,0,0,0,81,false,stim,false,1,898.0,2,0,2,19791,task1,383932,false,false,376,image-keyboard-response,24
true,3,0,1,0,true,q,false,true,0.0-2.0-0.10-0.94-3.94,0,0,0,81,false,stim,false,2,621.0,2,0,1,19791,task1,386060,false,false,379,image-keyboard-response,25
true,3,2,1,1,false,z,false,false,0.0-2.0-0.10-0.95-3.95,0,0,0,68,false,stim,true,2,670.0000000000582,2,0,0,19791,task1,388236,false,false,382,image-keyboard-response,26
true,3,0,1,0,true,q,false,true,0.0-2.0-0.10-0.96-3.96,0,0,0,81,false,stim,false,2,727.0,2,0,1,19791,task1,390469,false,false,385,image-keyboard-response,27
true,3,0,1,1,false,z,true,false,0.0-2.0-0.10-0.97-3.97,0,0,0,81,false,stim,false,2,569.0,2,0,0,19791,task1,392543,false,false,388,image-keyboard-response,28
true,3,0,1,1,false,z,true,false,0.0-2.0-0.10-0.98-3.98,0,0,0,81,false,stim,false,2,805.0,2,0,0,19791,task1,394854,false,false,391,image-keyboard-response,29
true,3,0,1,0,true,q,false,true,0.0-2.0-0.11-0.99-3.99,0,0,0,81,false,stim,false,1,562.0,2,0,2,19791,task1,396923,false,false,394,image-keyboard-response,30
true,3,0,1,0,true,q,false,true,0.0-2.0-0.11-0.100-3.100,0,0,0,81,false,stim,false,2,643.0,2,0,1,19791,task1,399073,false,false,397,image-keyboard-response,31
true,3,2,1,1,false,z,false,false,0.0-2.0-0.11-0.101-3.101,0,0,0,68,false,stim,true,2,710.9999999999418,2,0,0,19791,task1,401291,false,false,400,image-keyboard-response,32
true,3,1,1,1,true,z,false,true,0.0-2.0-0.11-0.102-3.102,0,0,0,90,false,stim,false,2,572.0,2,0,0,19791,task1,403373,false,false,403,image-keyboard-response,33
true,3,1,1,1,true,z,false,true,0.0-2.0-0.11-0.103-3.103,0,0,0,90,false,stim,false,2,794.0,2,0,0,19791,task1,405674,false,false,406,image-keyboard-response,34
true,3,0,1,0,true,q,false,true,0.0-2.0-0.11-0.104-3.104,0,0,0,81,false,stim,false,1,935.0000000000582,2,0,2,19791,task1,408115,false,false,409,image-keyboard-response,35
true,3,0,1,0,true,q,false,false,0.0-2.0-0.11-0.105-3.105,0,0,0,81,false,stim,false,2,738.0,2,0,1,19791,task1,410359,false,true,412,image-keyboard-response,36
true,3,0,1,0,true,q,false,true,0.0-2.0-0.11-0.106-3.106,0,0,0,81,false,stim,false,1,728.0000000000582,2,0,2,19791,task1,412591,false,false,415,image-keyboard-response,37
true,3,0,1,0,true,q,false,true,0.0-2.0-0.11-0.107-3.107,0,0,0,81,false,stim,false,2,669.0,2,0,1,19791,task1,414767,false,false,418,image-keyboard-response,38
true,3,0,1,0,true,q,false,true,0.0-2.0-0.12-0.108-3.108,0,0,0,81,false,stim,false,1,941.0,2,0,2,19791,task1,417215,false,false,421,image-keyboard-response,39
true,3,0,1,0,true,q,false,true,0.0-2.0-0.12-0.109-3.109,0,0,0,81,false,stim,false,1,588.0,2,0,2,19791,task1,419310,false,false,424,image-keyboard-response,40
true,3,1,1,1,true,z,false,true,0.0-2.0-0.12-0.110-3.110,0,0,0,90,false,stim,false,2,707.0,2,0,0,19791,task1,421523,false,false,427,image-keyboard-response,41
true,3,1,1,1,true,z,false,true,0.0-2.0-0.12-0.111-3.111,0,0,0,90,false,stim,false,2,603.0,2,0,0,19791,task1,423633,false,false,430,image-keyboard-response,42
true,4,0,1,1,false,z,false,false,0.0-2.0-0.12-0.112-3.112,0,0,0,81,true,stim,true,0,686.9999999999418,2,0,1,19791,task1,425827,false,false,433,image-keyboard-response,1
true,4,0,1,1,false,z,false,false,0.0-2.0-0.12-0.113-3.113,0,0,0,81,false,stim,true,0,557.0000000000582,2,0,1,19791,task1,427890,false,false,436,image-keyboard-response,2
true,4,0,1,2,false,d,false,false,0.0-2.0-0.12-0.114-3.114,0,0,0,81,false,stim,true,0,1496.0,2,0,2,19791,task1,430892,false,false,439,image-keyboard-response,3
true,4,2,1,1,false,z,true,false,0.0-2.0-0.12-0.115-3.115,0,0,0,68,false,stim,false,0,662.9999999999418,2,0,1,19791,task1,433060,false,false,442,image-keyboard-response,4
true,4,1,1,0,false,q,false,false,0.0-2.0-0.12-0.116-3.116,0,0,0,90,false,stim,true,1,897.0,2,0,0,19791,task1,435463,false,false,445,image-keyboard-response,5
true,4,1,1,2,false,d,true,false,0.0-2.0-0.13-0.117-3.117,0,0,0,90,false,stim,false,0,718.9999999999418,2,0,2,19791,task1,437686,false,false,448,image-keyboard-response,6
true,4,1,1,2,false,d,true,false,0.0-2.0-0.13-0.118-3.118,0,0,0,90,false,stim,false,0,880.0,2,0,2,19791,task1,440072,false,false,451,image-keyboard-response,7
true,4,1,1,0,false,q,false,false,0.0-2.0-0.13-0.119-3.119,0,0,0,90,false,stim,true,1,985.0,2,0,0,19791,task1,442561,false,false,454,image-keyboard-response,8
true,4,2,1,1,false,z,true,false,0.0-2.0-0.13-0.120-3.120,0,0,0,68,false,stim,false,0,1138.0,2,0,1,19791,task1,445205,false,false,457,image-keyboard-response,9
true,4,0,1,0,true,q,false,true,0.0-2.0-0.13-0.121-3.121,0,0,0,81,false,stim,false,1,1101.0,2,0,0,19791,task1,447811,false,false,460,image-keyboard-response,10
true,4,0,1,1,false,z,false,false,0.0-2.0-0.13-0.122-3.122,0,0,0,81,false,stim,true,0,894.0,2,0,1,19791,task1,450209,false,false,463,image-keyboard-response,11
true,4,1,1,1,true,z,false,true,0.0-2.0-0.13-0.123-3.123,0,0,0,90,false,stim,false,0,707.0,2,0,1,19791,task1,452422,false,false,466,image-keyboard-response,12
true,4,2,1,2,true,d,false,true,0.0-2.0-0.13-0.124-3.124,0,0,0,68,false,stim,false,0,1078.0,2,0,2,19791,task1,455006,false,false,469,image-keyboard-response,13
true,4,0,1,0,true,q,false,true,0.0-2.0-0.13-0.125-3.125,0,0,0,81,false,stim,false,1,605.0,2,0,0,19791,task1,457118,false,false,472,image-keyboard-response,14
true,4,0,1,0,true,q,false,true,0.0-2.0-0.14-0.126-3.126,0,0,0,81,false,stim,false,1,658.0,2,0,0,19791,task1,459283,false,false,475,image-keyboard-response,15
true,4,2,1,1,false,z,true,false,0.0-2.0-0.14-0.127-3.127,0,0,0,68,false,stim,false,0,888.9999999999418,2,0,1,19791,task1,461679,false,false,478,image-keyboard-response,16
true,4,1,1,1,true,z,false,true,0.0-2.0-0.14-0.128-3.128,0,0,0,90,false,stim,false,0,791.0,2,0,1,19791,task1,463977,false,false,481,image-keyboard-response,17
true,4,2,1,2,true,d,false,true,0.0-2.0-0.14-0.129-3.129,0,0,0,68,false,stim,false,0,658.0000000000582,2,0,2,19791,task1,466141,false,false,484,image-keyboard-response,18
true,4,0,1,0,true,q,false,true,0.0-2.0-0.14-0.130-3.130,0,0,0,81,false,stim,false,1,798.0,2,0,0,19791,task1,468445,false,false,487,image-keyboard-response,19
true,4,2,1,2,true,d,false,true,0.0-2.0-0.14-0.131-3.131,0,0,0,68,false,stim,false,0,659.9999999999418,2,0,2,19791,task1,470612,false,false,490,image-keyboard-response,20
true,4,1,1,1,true,z,false,false,0.0-2.0-0.14-0.132-3.132,0,0,0,90,false,stim,false,0,949.0,2,0,1,19791,task1,473068,false,true,493,image-keyboard-response,21
true,4,0,1,0,true,q,false,true,0.0-2.0-0.14-0.133-3.133,0,0,0,81,false,stim,false,1,563.0000000000582,2,0,0,19791,task1,475136,false,false,496,image-keyboard-response,22
true,4,2,1,2,true,d,false,true,0.0-2.0-0.14-0.134-3.134,0,0,0,68,false,stim,false,0,780.0,2,0,2,19791,task1,477423,false,false,499,image-keyboard-response,23
true,4,0,1,0,true,q,false,true,0.0-2.0-0.15-0.135-3.135,0,0,0,81,false,stim,false,1,844.0000000000582,2,0,0,19791,task1,479778,false,false,502,image-keyboard-response,24
true,4,0,1,0,true,q,false,true,0.0-2.0-0.15-0.136-3.136,0,0,0,81,false,stim,false,1,675.0,2,0,0,19791,task1,481959,false,false,505,image-keyboard-response,25
true,4,1,1,1,true,z,false,true,0.0-2.0-0.15-0.137-3.137,0,0,0,90,false,stim,false,0,805.0,2,0,1,19791,task1,484271,false,false,508,image-keyboard-response,26
true,4,2,1,2,true,d,false,true,0.0-2.0-0.15-0.138-3.138,0,0,0,68,false,stim,false,0,1111.0,2,0,2,19791,task1,486889,false,false,511,image-keyboard-response,27
true,4,0,1,0,true,q,false,true,0.0-2.0-0.15-0.139-3.139,0,0,0,81,false,stim,false,1,756.0,2,0,0,19791,task1,489151,false,false,514,image-keyboard-response,28
true,4,1,1,1,true,z,false,true,0.0-2.0-0.15-0.140-3.140,0,0,0,90,false,stim,false,0,1078.0,2,0,1,19791,task1,491736,false,false,517,image-keyboard-response,29
true,4,2,1,2,true,d,false,true,0.0-2.0-0.15-0.141-3.141,0,0,0,68,false,stim,false,0,690.0,2,0,2,19791,task1,493932,false,false,520,image-keyboard-response,30
true,4,1,1,1,true,z,false,true,0.0-2.0-0.15-0.142-3.142,0,0,0,90,false,stim,false,0,1409.0,2,0,1,19791,task1,496848,false,false,523,image-keyboard-response,31
true,4,2,1,2,true,d,false,false,0.0-2.0-0.15-0.143-3.143,0,0,0,68,false,stim,false,0,793.0,2,0,2,19791,task1,499146,false,true,526,image-keyboard-response,32
true,4,1,1,1,true,z,false,true,0.0-2.0-0.16-0.144-3.144,0,0,0,90,false,stim,false,0,741.0000000000582,2,0,1,19791,task1,501392,false,false,529,image-keyboard-response,33
true,4,1,1,1,true,z,false,false,0.0-2.0-0.16-0.145-3.145,0,0,0,90,false,stim,false,0,709.0,2,0,1,19791,task1,503607,false,true,532,image-keyboard-response,34
true,4,1,1,1,true,z,false,false,0.0-2.0-0.16-0.146-3.146,0,0,0,90,false,stim,false,0,717.9999999999418,2,0,1,19791,task1,505831,false,true,535,image-keyboard-response,35
true,4,2,1,2,true,d,false,true,0.0-2.0-0.16-0.147-3.147,0,0,0,68,false,stim,false,0,542.0000000000582,2,0,2,19791,task1,507880,false,false,538,image-keyboard-response,36
true,4,2,1,2,true,d,false,true,0.0-2.0-0.16-0.148-3.148,0,0,0,68,false,stim,false,0,654.0,2,0,2,19791,task1,510040,false,false,541,image-keyboard-response,37
true,4,0,1,0,true,q,false,true,0.0-2.0-0.16-0.149-3.149,0,0,0,81,false,stim,false,1,976.0,2,0,0,19791,task1,512523,false,false,544,image-keyboard-response,38
true,4,0,1,0,true,q,false,true,0.0-2.0-0.16-0.150-3.150,0,0,0,81,false,stim,false,1,643.0,2,0,0,19791,task1,514672,false,false,547,image-keyboard-response,39
true,4,0,1,0,true,q,false,false,0.0-2.0-0.16-0.151-3.151,0,0,0,81,false,stim,false,1,678.9999999999418,2,0,0,19791,task1,516857,false,true,550,image-keyboard-response,40
true,4,2,1,2,true,d,false,true,0.0-2.0-0.16-0.152-3.152,0,0,0,68,false,stim,false,0,725.0,2,0,2,19791,task1,519088,false,false,553,image-keyboard-response,41
true,4,2,1,1,false,z,true,false,0.0-2.0-0.17-0.153-3.153,0,0,0,68,false,stim,false,0,559.0000000000582,2,0,1,19791,task1,521153,false,false,556,image-keyboard-response,42
true,4,2,1,2,true,d,false,false,0.0-2.0-0.17-0.154-3.154,0,0,0,68,false,stim,false,0,936.0000000001164,2,0,2,19791,task1,523596,false,true,559,image-keyboard-response,43
true,4,2,1,0,false,q,true,false,0.0-2.0-0.17-0.155-3.155,0,0,0,68,false,stim,false,1,1177.0,2,0,0,19791,task1,526280,false,false,562,image-keyboard-response,44
true,5,0,1,2,false,d,true,false,0.0-2.0-0.17-0.156-3.156,0,0,0,81,true,stim,false,1,693.0,2,0,1,19791,task1,528479,false,false,565,image-keyboard-response,1
true,5,0,1,0,true,q,false,true,0.0-2.0-0.17-0.157-3.157,0,0,0,81,false,stim,false,2,1326.0,2,0,2,19791,task1,531311,false,false,568,image-keyboard-response,2
true,5,1,1,1,true,z,false,true,0.0-2.0-0.17-0.158-3.158,0,0,0,90,false,stim,false,0,1048.9999999998836,2,0,0,19791,task1,533866,false,false,571,image-keyboard-response,3
true,5,1,1,2,false,d,false,false,0.0-2.0-0.17-0.159-3.159,0,0,0,90,false,stim,true,1,914.0,2,0,1,19791,task1,536286,false,false,574,image-keyboard-response,4
true,5,0,1,0,true,q,false,true,0.0-2.0-0.17-0.160-3.160,0,0,0,81,false,stim,false,2,806.0,2,0,2,19791,task1,538597,false,false,577,image-keyboard-response,5
true,5,1,1,1,true,z,false,true,0.0-2.0-0.17-0.161-3.161,0,0,0,90,false,stim,false,0,738.0,2,0,0,19791,task1,540842,false,false,580,image-keyboard-response,6
true,5,1,1,1,true,z,false,true,0.0-2.0-0.18-0.162-3.162,0,0,0,90,false,stim,false,0,666.0,2,0,0,19791,task1,543015,false,false,583,image-keyboard-response,7
true,5,0,1,0,true,q,false,true,0.0-2.0-0.18-0.163-3.163,0,0,0,81,false,stim,false,2,1036.0,2,0,2,19791,task1,545558,false,false,586,image-keyboard-response,8
true,5,0,1,2,false,d,true,false,0.0-2.0-0.18-0.164-3.164,0,0,0,81,false,stim,false,1,699.0,2,0,1,19791,task1,547764,false,false,589,image-keyboard-response,9
true,5,2,1,2,true,d,false,true,0.0-2.0-0.18-0.165-3.165,0,0,0,68,false,stim,false,1,625.0,2,0,1,19791,task1,549895,false,false,592,image-keyboard-response,10
true,5,1,1,1,true,z,false,true,0.0-2.0-0.18-0.166-3.166,0,0,0,90,false,stim,false,0,774.0,2,0,0,19791,task1,552175,false,false,595,image-keyboard-response,11
true,5,1,1,1,true,z,false,true,0.0-2.0-0.18-0.167-3.167,0,0,0,90,false,stim,false,0,657.0,2,0,0,19791,task1,554339,false,false,598,image-keyboard-response,12
true,5,0,1,0,true,q,false,true,0.0-2.0-0.18-0.168-3.168,0,0,0,81,false,stim,false,2,1012.0,2,0,2,19791,task1,556863,false,false,601,image-keyboard-response,13
true,5,2,1,2,true,d,false,true,0.0-2.0-0.18-0.169-3.169,0,0,0,68,false,stim,false,1,596.0,2,0,1,19791,task1,558965,false,false,604,image-keyboard-response,14
true,5,0,1,0,true,q,false,false,0.0-2.0-0.18-0.170-3.170,0,0,0,81,false,stim,false,2,817.9999999998836,2,0,2,19791,task1,561290,false,true,607,image-keyboard-response,15
true,5,0,1,0,true,q,false,true,0.0-2.0-0.19-0.171-3.171,0,0,0,81,false,stim,false,2,758.0,2,0,2,19791,task1,563555,false,false,610,image-keyboard-response,16
true,5,2,1,2,true,d,false,false,0.0-2.0-0.19-0.172-3.172,0,0,0,68,false,stim,false,1,699.0,2,0,1,19791,task1,565761,false,true,613,image-keyboard-response,17
true,5,2,1,2,true,d,false,true,0.0-2.0-0.19-0.173-3.173,0,0,0,68,false,stim,false,1,502.0000000001164,2,0,1,19791,task1,567770,false,false,616,image-keyboard-response,18
true,5,0,1,0,true,q,false,true,0.0-2.0-0.19-0.174-3.174,0,0,0,81,false,stim,false,2,787.0,2,0,2,19791,task1,570063,false,false,619,image-keyboard-response,19
true,5,2,1,2,true,d,false,true,0.0-2.0-0.19-0.175-3.175,0,0,0,68,false,stim,false,1,1244.0,2,0,1,19791,task1,572812,false,false,622,image-keyboard-response,20
true,5,1,1,1,true,z,false,true,0.0-2.0-0.19-0.176-3.176,0,0,0,90,false,stim,false,0,772.0,2,0,0,19791,task1,575091,false,false,625,image-keyboard-response,21
true,5,1,1,1,true,z,false,true,0.0-2.0-0.19-0.177-3.177,0,0,0,90,false,stim,false,0,598.0,2,0,0,19791,task1,577196,false,false,628,image-keyboard-response,22
true,5,1,1,1,true,z,false,true,0.0-2.0-0.19-0.178-3.178,0,0,0,90,false,stim,false,0,686.0,2,0,0,19791,task1,579389,false,false,631,image-keyboard-response,23
true,5,0,1,0,true,q,false,false,0.0-2.0-0.19-0.179-3.179,0,0,0,81,false,stim,false,2,1510.0,2,0,2,19791,task1,582406,false,true,634,image-keyboard-response,24
true,5,2,1,2,true,d,false,true,0.0-2.0-0.20-0.180-3.180,0,0,0,68,false,stim,false,1,743.0,2,0,1,19791,task1,584656,false,false,637,image-keyboard-response,25
true,5,1,1,1,true,z,false,true,0.0-2.0-0.20-0.181-3.181,0,0,0,90,false,stim,false,0,740.0,2,0,0,19791,task1,586902,false,false,640,image-keyboard-response,26
true,5,2,1,0,false,q,false,false,0.0-2.0-0.20-0.182-3.182,0,0,0,68,false,stim,true,2,838.0,2,0,2,19791,task1,589247,false,false,643,image-keyboard-response,27
true,5,1,1,1,true,z,false,true,0.0-2.0-0.20-0.183-3.183,0,0,0,90,false,stim,false,0,803.0,2,0,0,19791,task1,591556,false,false,646,image-keyboard-response,28
true,5,2,1,2,true,d,false,true,0.0-2.0-0.20-0.184-3.184,0,0,0,68,false,stim,false,1,880.0,2,0,1,19791,task1,593943,false,false,649,image-keyboard-response,29
true,5,2,1,2,true,d,false,true,0.0-2.0-0.20-0.185-3.185,0,0,0,68,false,stim,false,1,712.0,2,0,1,19791,task1,596162,false,false,652,image-keyboard-response,30
true,5,0,1,0,true,q,false,true,0.0-2.0-0.20-0.186-3.186,0,0,0,81,false,stim,false,2,831.0,2,0,2,19791,task1,598500,false,false,655,image-keyboard-response,31
true,5,0,1,0,true,q,false,true,0.0-2.0-0.20-0.187-3.187,0,0,0,81,false,stim,false,2,902.0,2,0,2,19791,task1,600908,false,false,658,image-keyboard-response,32
true,5,1,1,1,true,z,false,false,0.0-2.0-0.20-0.188-3.188,0,0,0,90,false,stim,false,0,986.0000000001164,2,0,0,19791,task1,603401,false,true,661,image-keyboard-response,33
true,5,0,1,0,true,q,false,true,0.0-2.0-0.21-0.189-3.189,0,0,0,81,false,stim,false,2,963.0,2,0,2,19791,task1,605870,false,false,664,image-keyboard-response,34
true,5,0,1,0,true,q,false,true,0.0-2.0-0.21-0.190-3.190,0,0,0,81,false,stim,false,2,875.9999999998836,2,0,2,19791,task1,608252,false,false,667,image-keyboard-response,35
true,5,2,1,2,true,d,false,true,0.0-2.0-0.21-0.191-3.191,0,0,0,68,false,stim,false,1,756.0,2,0,1,19791,task1,610514,false,false,670,image-keyboard-response,36
true,5,0,1,0,true,q,false,true,0.0-2.0-0.21-0.192-3.192,0,0,0,81,false,stim,false,2,1522.9999999998836,2,0,2,19791,task1,613543,false,false,673,image-keyboard-response,37
true,5,1,1,1,true,z,false,true,0.0-2.0-0.21-0.193-3.193,0,0,0,90,false,stim,false,0,911.0,2,0,0,19791,task1,615960,false,false,676,image-keyboard-response,38
true,5,1,1,1,true,z,false,true,0.0-2.0-0.21-0.194-3.194,0,0,0,90,false,stim,false,0,709.0,2,0,0,19791,task1,618175,false,false,679,image-keyboard-response,39
true,5,2,1,2,true,d,false,true,0.0-2.0-0.21-0.195-3.195,0,0,0,68,false,stim,false,1,1307.0,2,0,1,19791,task1,620989,false,false,682,image-keyboard-response,40
true,5,2,1,2,true,d,false,true,0.0-2.0-0.21-0.196-3.196,0,0,0,68,false,stim,false,1,635.0,2,0,1,19791,task1,623129,false,false,685,image-keyboard-response,41
true,5,1,1,1,true,z,false,true,0.0-2.0-0.21-0.197-3.197,0,0,0,90,false,stim,false,0,717.0,2,0,0,19791,task1,625352,false,false,688,image-keyboard-response,42
true,5,2,1,2,true,d,false,true,0.0-2.0-0.22-0.198-3.198,0,0,0,68,false,stim,false,1,716.0,2,0,1,19791,task1,627575,false,false,691,image-keyboard-response,43
true,5,1,1,1,true,z,false,true,0.0-2.0-0.22-0.199-3.199,0,0,0,90,false,stim,false,0,654.0,2,0,0,19791,task1,629736,false,false,694,image-keyboard-response,44
true,6,0,1,1,false,z,false,true,0.0-2.0-0.22-0.200-3.200,0,0,0,81,true,stim,true,0,936.9999999998836,2,0,2,19791,task1,632180,false,true,697,image-keyboard-response,1
true,6,1,1,2,false,d,false,false,0.0-2.0-0.22-0.201-3.201,0,0,0,90,false,stim,true,1,877.0,2,0,0,19791,task1,634563,false,false,700,image-keyboard-response,2
true,6,1,1,2,false,d,false,false,0.0-2.0-0.22-0.202-3.202,0,0,0,90,false,stim,true,1,732.9999999998836,2,0,0,19791,task1,636808,false,false,703,image-keyboard-response,3
true,6,0,1,1,false,z,false,false,0.0-2.0-0.22-0.203-3.203,0,0,0,81,false,stim,true,0,901.0,2,0,2,19791,task1,639215,false,false,706,image-keyboard-response,4
true,6,2,1,1,false,z,false,false,0.0-2.0-0.22-0.204-3.204,0,0,0,68,false,stim,true,2,753.0,2,0,1,19791,task1,641475,false,false,709,image-keyboard-response,5
true,6,0,1,1,false,z,false,false,0.0-2.0-0.22-0.205-3.205,0,0,0,81,false,stim,true,0,733.0,2,0,2,19791,task1,643714,false,false,712,image-keyboard-response,6
true,6,2,1,1,false,z,false,false,0.0-2.0-0.22-0.206-3.206,0,0,0,68,false,stim,true,2,1091.0,2,0,1,19791,task1,646311,false,false,715,image-keyboard-response,7
true,6,2,1,1,false,z,true,false,0.0-2.0-0.23-0.207-3.207,0,0,0,68,false,stim,false,0,1052.0,2,0,2,19791,task1,648869,false,false,718,image-keyboard-response,8
true,6,2,1,2,true,d,false,false,0.0-2.0-0.23-0.208-3.208,0,0,0,68,false,stim,false,1,945.0000000001164,2,0,0,19791,task1,651320,false,true,721,image-keyboard-response,9
true,6,1,1,1,true,z,false,true,0.0-2.0-0.23-0.209-3.209,0,0,0,90,false,stim,false,0,1134.0,2,0,2,19791,task1,653961,false,false,724,image-keyboard-response,10
true,6,1,1,1,true,z,false,true,0.0-2.0-0.23-0.210-3.210,0,0,0,90,false,stim,false,2,708.0000000001164,2,0,1,19791,task1,656176,false,false,727,image-keyboard-response,11
true,6,1,1,1,true,z,false,true,0.0-2.0-0.23-0.211-3.211,0,0,0,90,false,stim,false,0,875.0,2,0,2,19791,task1,658556,false,false,730,image-keyboard-response,12
true,6,0,1,2,false,d,true,false,0.0-2.0-0.23-0.212-3.212,0,0,0,81,false,stim,false,1,899.0,2,0,0,19791,task1,660962,false,false,733,image-keyboard-response,13
true,6,2,1,2,true,d,false,false,0.0-2.0-0.23-0.213-3.213,0,0,0,68,false,stim,false,1,637.0,2,0,0,19791,task1,663105,false,true,736,image-keyboard-response,14
true,6,1,1,1,true,z,false,false,0.0-2.0-0.23-0.214-3.214,0,0,0,90,false,stim,false,2,916.0,2,0,1,19791,task1,665529,false,true,739,image-keyboard-response,15
true,6,1,1,1,true,z,false,true,0.0-2.0-0.23-0.215-3.215,0,0,0,90,false,stim,false,2,688.0,2,0,1,19791,task1,667723,false,false,742,image-keyboard-response,16
true,6,1,1,1,true,z,false,true,0.0-2.0-0.24-0.216-3.216,0,0,0,90,false,stim,false,2,683.0,2,0,1,19791,task1,669913,false,false,745,image-keyboard-response,17
true,6,1,1,2,false,d,false,false,0.0-2.0-0.24-0.217-3.217,0,0,0,90,false,stim,true,1,926.0,2,0,0,19791,task1,672346,false,false,748,image-keyboard-response,18
true,6,1,1,1,true,z,false,true,0.0-2.0-0.24-0.218-3.218,0,0,0,90,false,stim,false,2,758.0,2,0,1,19791,task1,674611,false,false,751,image-keyboard-response,19
true,6,0,1,1,false,z,false,false,0.0-2.0-0.24-0.219-3.219,0,0,0,81,false,stim,true,0,1074.0,2,0,2,19791,task1,677191,false,false,754,image-keyboard-response,20
true,6,1,1,1,true,z,false,true,0.0-2.0-0.24-0.220-3.220,0,0,0,90,false,stim,false,2,669.0,2,0,1,19791,task1,679367,false,false,757,image-keyboard-response,21
true,6,1,1,1,true,z,false,true,0.0-2.0-0.24-0.221-3.221,0,0,0,90,false,stim,false,0,553.9999999998836,2,0,2,19791,task1,681427,false,false,760,image-keyboard-response,22
true,6,0,1,2,false,d,true,false,0.0-2.0-0.24-0.222-3.222,0,0,0,81,false,stim,false,1,1302.0,2,0,0,19791,task1,684236,false,false,763,image-keyboard-response,23
true,6,0,1,2,false,d,true,false,0.0-2.0-0.24-0.223-3.223,0,0,0,81,false,stim,false,1,656.0,2,0,0,19791,task1,686398,false,false,766,image-keyboard-response,24
true,6,1,1,1,true,z,false,true,0.0-2.0-0.24-0.224-3.224,0,0,0,90,false,stim,false,0,649.0,2,0,2,19791,task1,688555,false,false,769,image-keyboard-response,25
true,6,2,1,2,true,d,false,true,0.0-2.0-0.25-0.225-3.225,0,0,0,68,false,stim,false,1,739.0,2,0,0,19791,task1,690801,false,false,772,image-keyboard-response,26
true,6,1,1,1,true,z,false,true,0.0-2.0-0.25-0.226-3.226,0,0,0,90,false,stim,false,2,725.0,2,0,1,19791,task1,693032,false,false,775,image-keyboard-response,27
true,6,1,1,1,true,z,false,true,0.0-2.0-0.25-0.227-3.227,0,0,0,90,false,stim,false,0,826.0,2,0,2,19791,task1,695365,false,false,778,image-keyboard-response,28
true,6,1,1,1,true,z,false,true,0.0-2.0-0.25-0.228-3.228,0,0,0,90,false,stim,false,2,604.0,2,0,1,19791,task1,697475,false,false,781,image-keyboard-response,29
true,6,1,1,1,true,z,false,true,0.0-2.0-0.25-0.229-3.229,0,0,0,90,false,stim,false,0,703.0,2,0,2,19791,task1,699685,false,false,784,image-keyboard-response,30
true,6,2,1,2,true,d,false,true,0.0-2.0-0.25-0.230-3.230,0,0,0,68,false,stim,false,1,689.0,2,0,0,19791,task1,701880,false,false,787,image-keyboard-response,31
true,6,2,1,2,true,d,false,true,0.0-2.0-0.25-0.231-3.231,0,0,0,68,false,stim,false,1,657.0,2,0,0,19791,task1,704044,false,false,790,image-keyboard-response,32
true,6,1,1,1,true,z,false,true,0.0-2.0-0.25-0.232-3.232,0,0,0,90,false,stim,false,0,665.0,2,0,2,19791,task1,706216,false,false,793,image-keyboard-response,33
true,6,1,1,1,true,z,false,true,0.0-2.0-0.25-0.233-3.233,0,0,0,90,false,stim,false,2,614.0,2,0,1,19791,task1,708337,false,false,796,image-keyboard-response,34
true,6,1,1,1,true,z,false,true,0.0-2.0-0.26-0.234-3.234,0,0,0,90,false,stim,false,2,526.0,2,0,1,19791,task1,710370,false,false,799,image-keyboard-response,35
true,6,1,1,1,true,z,false,false,0.0-2.0-0.26-0.235-3.235,0,0,0,90,false,stim,false,0,797.0000000001164,2,0,2,19791,task1,712677,false,true,802,image-keyboard-response,36
true,6,1,1,1,true,z,false,true,0.0-2.0-0.26-0.236-3.236,0,0,0,90,false,stim,false,0,503.0,2,0,2,19791,task1,714686,false,false,805,image-keyboard-response,37
true,6,2,1,2,true,d,false,true,0.0-2.0-0.26-0.237-3.237,0,0,0,68,false,stim,false,1,669.0,2,0,0,19791,task1,716862,false,false,808,image-keyboard-response,38
true,6,1,1,1,true,z,false,true,0.0-2.0-0.26-0.238-3.238,0,0,0,90,false,stim,false,2,708.0000000001164,2,0,1,19791,task1,719077,false,false,811,image-keyboard-response,39
true,6,2,1,2,true,d,false,true,0.0-2.0-0.26-0.239-3.239,0,0,0,68,false,stim,false,1,676.0,2,0,0,19791,task1,721260,false,false,814,image-keyboard-response,40
true,7,2,2,1,false,z,false,false,0.0-2.0-0.26-0.240-3.240,0,0,0,68,true,stim,true,2,759.0,2,0,0,19791,task1,723526,false,false,817,image-keyboard-response,1
true,7,1,2,0,false,q,false,false,0.0-2.0-0.26-0.241-3.241,0,0,0,90,false,stim,true,1,741.0000000001164,2,0,2,19791,task1,725774,false,false,820,image-keyboard-response,2
true,7,1,2,0,false,q,false,false,0.0-2.0-0.26-0.242-3.242,0,0,0,90,false,stim,true,1,695.0000000001164,2,0,1,19791,task1,727976,false,false,823,image-keyboard-response,3
true,7,2,2,1,false,z,false,true,0.0-2.0-0.27-0.243-3.243,0,0,0,68,false,stim,true,2,776.0,2,0,0,19791,task1,730257,false,true,826,image-keyboard-response,4
true,7,1,2,0,false,q,false,false,0.0-2.0-0.27-0.244-3.244,0,0,0,90,false,stim,true,1,743.0,2,0,2,19791,task1,732507,false,false,829,image-keyboard-response,5
true,7,1,2,0,false,q,false,true,0.0-2.0-0.27-0.245-3.245,0,0,0,90,false,stim,true,1,1009.0,2,0,1,19791,task1,735022,false,true,832,image-keyboard-response,6
true,7,2,2,1,false,z,false,false,0.0-2.0-0.27-0.246-3.246,0,0,0,68,false,stim,true,2,780.9999999998836,2,0,0,19791,task1,737310,false,false,835,image-keyboard-response,7
true,7,0,2,0,true,q,false,true,0.0-2.0-0.27-0.247-3.247,0,0,0,81,false,stim,false,1,1164.0,2,0,2,19791,task1,739981,false,false,838,image-keyboard-response,8
true,7,2,2,1,false,z,false,false,0.0-2.0-0.27-0.248-3.248,0,0,0,68,false,stim,true,2,698.0,2,0,0,19791,task1,742185,false,false,841,image-keyboard-response,9
true,7,1,2,0,false,q,false,false,0.0-2.0-0.27-0.249-3.249,0,0,0,90,false,stim,true,1,704.9999999998836,2,0,1,19791,task1,744397,false,false,844,image-keyboard-response,10
true,7,1,2,0,false,q,false,false,0.0-2.0-0.27-0.250-3.250,0,0,0,90,false,stim,true,1,497.9999999998836,2,0,1,19791,task1,746402,false,false,847,image-keyboard-response,11
true,7,0,2,0,true,q,false,true,0.0-2.0-0.27-0.251-3.251,0,0,0,81,false,stim,false,1,871.0000000001164,2,0,2,19791,task1,748779,false,false,850,image-keyboard-response,12
true,7,0,2,0,true,q,false,true,0.0-2.0-0.28-0.252-3.252,0,0,0,81,false,stim,false,1,701.0,2,0,1,19791,task1,750987,false,false,853,image-keyboard-response,13
true,7,0,2,0,true,q,false,true,0.0-2.0-0.28-0.253-3.253,0,0,0,81,false,stim,false,1,882.0000000001164,2,0,2,19791,task1,753375,false,false,856,image-keyboard-response,14
true,7,0,2,0,true,q,false,true,0.0-2.0-0.28-0.254-3.254,0,0,0,81,false,stim,false,1,583.0,2,0,1,19791,task1,755466,false,false,859,image-keyboard-response,15
true,7,1,2,1,true,z,false,false,0.0-2.0-0.28-0.255-3.255,0,0,0,90,false,stim,false,2,720.0000000001164,2,0,0,19791,task1,757693,false,true,862,image-keyboard-response,16
true,7,1,2,1,true,z,false,true,0.0-2.0-0.28-0.256-3.256,0,0,0,90,false,stim,false,2,680.0,2,0,0,19791,task1,759879,false,false,865,image-keyboard-response,17
true,7,0,2,0,true,q,false,true,0.0-2.0-0.28-0.257-3.257,0,0,0,81,false,stim,false,1,776.0,2,0,2,19791,task1,762161,false,false,868,image-keyboard-response,18
true,7,0,2,0,true,q,false,true,0.0-2.0-0.28-0.258-3.258,0,0,0,81,false,stim,false,1,1203.9999999998836,2,0,1,19791,task1,764872,false,false,871,image-keyboard-response,19
true,7,0,2,0,true,q,false,true,0.0-2.0-0.28-0.259-3.259,0,0,0,81,false,stim,false,1,890.0000000001164,2,0,2,19791,task1,767269,false,false,874,image-keyboard-response,20
true,7,1,2,1,true,z,false,false,0.0-2.0-0.28-0.260-3.260,0,0,0,90,false,stim,false,2,975.0000000001164,2,0,0,19791,task1,769750,false,true,877,image-keyboard-response,21
true,7,0,2,0,true,q,false,true,0.0-2.0-0.29-0.261-3.261,0,0,0,81,false,stim,false,1,811.0,2,0,2,19791,task1,772069,false,false,880,image-keyboard-response,22
true,7,0,2,0,true,q,false,true,0.0-2.0-0.29-0.262-3.262,0,0,0,81,false,stim,false,1,572.0,2,0,1,19791,task1,774148,false,false,883,image-keyboard-response,23
true,7,0,2,0,true,q,false,true,0.0-2.0-0.29-0.263-3.263,0,0,0,81,false,stim,false,1,964.0,2,0,1,19791,task1,776618,false,false,886,image-keyboard-response,24
true,7,1,2,1,true,z,false,true,0.0-2.0-0.29-0.264-3.264,0,0,0,90,false,stim,false,2,612.0,2,0,0,19791,task1,778737,false,false,889,image-keyboard-response,25
true,7,0,2,0,true,q,false,true,0.0-2.0-0.29-0.265-3.265,0,0,0,81,false,stim,false,1,684.0,2,0,2,19791,task1,780927,false,false,892,image-keyboard-response,26
true,7,1,2,1,true,z,false,false,0.0-2.0-0.29-0.266-3.266,0,0,0,90,false,stim,false,2,746.0,2,0,0,19791,task1,783180,false,true,895,image-keyboard-response,27
true,7,1,2,1,true,z,false,true,0.0-2.0-0.29-0.267-3.267,0,0,0,90,false,stim,false,2,594.0,2,0,0,19791,task1,785281,false,false,898,image-keyboard-response,28
true,7,0,2,0,true,q,false,true,0.0-2.0-0.29-0.268-3.268,0,0,0,81,false,stim,false,1,899.9999999998836,2,0,1,19791,task1,787695,false,false,901,image-keyboard-response,29
true,7,0,2,0,true,q,false,true,0.0-2.0-0.29-0.269-3.269,0,0,0,81,false,stim,false,1,911.0,2,0,2,19791,task1,790114,false,false,904,image-keyboard-response,30
true,7,1,2,1,true,z,false,true,0.0-2.0-0.30-0.270-3.270,0,0,0,90,false,stim,false,2,665.9999999998836,2,0,0,19791,task1,792288,false,false,907,image-keyboard-response,31
true,7,1,2,1,true,z,false,true,0.0-2.0-0.30-0.271-3.271,0,0,0,90,false,stim,false,2,933.0,2,0,0,19791,task1,794729,false,false,910,image-keyboard-response,32
true,7,0,2,0,true,q,false,false,0.0-2.0-0.30-0.272-3.272,0,0,0,81,false,stim,false,1,843.0000000001164,2,0,2,19791,task1,797078,false,true,913,image-keyboard-response,33
true,7,1,2,1,true,z,false,true,0.0-2.0-0.30-0.273-3.273,0,0,0,90,false,stim,false,2,840.0,2,0,0,19791,task1,799425,false,false,916,image-keyboard-response,34
true,7,0,2,0,true,q,false,true,0.0-2.0-0.30-0.274-3.274,0,0,0,81,false,stim,false,1,688.0,2,0,2,19791,task1,801620,false,false,919,image-keyboard-response,35
true,7,0,2,0,true,q,false,true,0.0-2.0-0.30-0.275-3.275,0,0,0,81,false,stim,false,1,575.0,2,0,1,19791,task1,803705,false,false,922,image-keyboard-response,36
true,7,0,2,0,true,q,false,true,0.0-2.0-0.30-0.276-3.276,0,0,0,81,false,stim,false,1,674.0,2,0,1,19791,task1,805885,false,false,925,image-keyboard-response,37
true,7,0,2,0,true,q,false,false,0.0-2.0-0.30-0.277-3.277,0,0,0,81,false,stim,false,1,712.0,2,0,1,19791,task1,808104,false,true,928,image-keyboard-response,38
true,7,0,2,0,true,q,false,true,0.0-2.0-0.30-0.278-3.278,0,0,0,81,false,stim,false,1,742.0000000001164,2,0,2,19791,task1,810353,false,false,931,image-keyboard-response,39
true,7,1,2,1,true,z,false,true,0.0-2.0-0.31-0.279-3.279,0,0,0,90,false,stim,false,2,792.0,2,0,0,19791,task1,812653,false,false,934,image-keyboard-response,40
true,7,0,2,0,true,q,false,true,0.0-2.0-0.31-0.280-3.280,0,0,0,81,false,stim,false,1,887.0,2,0,1,19791,task1,815047,false,false,937,image-keyboard-response,41
true,7,1,2,1,true,z,false,true,0.0-2.0-0.31-0.281-3.281,0,0,0,90,false,stim,false,2,696.0,2,0,0,19791,task1,817250,false,false,940,image-keyboard-response,42
true,7,0,2,0,true,q,false,true,0.0-2.0-0.31-0.282-3.282,0,0,0,81,false,stim,false,1,1053.9999999998836,2,0,1,19791,task1,819811,false,false,943,image-keyboard-response,43
true,8,0,2,2,false,d,false,false,0.0-2.0-0.31-0.283-3.283,0,0,0,81,true,stim,true,0,864.0,2,0,2,19791,task1,822182,false,false,946,image-keyboard-response,1
true,8,1,2,0,false,q,false,false,0.0-2.0-0.31-0.284-3.284,0,0,0,90,false,stim,true,1,603.0,2,0,0,19791,task1,824292,false,false,949,image-keyboard-response,2
true,8,0,2,1,false,z,false,false,0.0-2.0-0.31-0.285-3.285,0,0,0,81,false,stim,true,0,1046.0,2,0,1,19791,task1,826845,false,false,952,image-keyboard-response,3
true,8,0,2,2,false,d,false,false,0.0-2.0-0.31-0.286-3.286,0,0,0,81,false,stim,true,0,719.0,2,0,2,19791,task1,829071,false,false,955,image-keyboard-response,4
true,8,0,2,2,false,d,false,false,0.0-2.0-0.31-0.287-3.287,0,0,0,81,false,stim,true,0,719.0,2,0,2,19791,task1,831296,false,false,958,image-keyboard-response,5
true,8,1,2,0,false,q,false,true,0.0-2.0-0.32-0.288-3.288,0,0,0,90,false,stim,true,1,936.0,2,0,0,19791,task1,833740,false,true,961,image-keyboard-response,6
true,8,2,2,2,true,d,false,true,0.0-2.0-0.32-0.289-3.289,0,0,0,68,false,stim,false,0,548.9999999998836,2,0,2,19791,task1,835796,false,false,964,image-keyboard-response,7
true,8,2,2,1,false,z,true,true,0.0-2.0-0.32-0.290-3.290,0,0,0,68,false,stim,false,0,787.0,2,0,1,19791,task1,838089,false,true,967,image-keyboard-response,8
true,8,2,2,1,false,z,true,false,0.0-2.0-0.32-0.291-3.291,0,0,0,68,false,stim,false,0,647.0000000001164,2,0,1,19791,task1,840242,false,false,970,image-keyboard-response,9
true,8,2,2,2,true,d,false,true,0.0-2.0-0.32-0.292-3.292,0,0,0,68,false,stim,false,0,699.9999999998836,2,0,2,19791,task1,842448,false,false,973,image-keyboard-response,10
true,8,2,2,1,false,z,true,true,0.0-2.0-0.32-0.293-3.293,0,0,0,68,false,stim,false,0,699.9999999998836,2,0,1,19791,task1,844655,false,true,976,image-keyboard-response,11
true,8,1,2,0,false,q,false,false,0.0-2.0-0.32-0.294-3.294,0,0,0,90,false,stim,true,1,604.0,2,0,0,19791,task1,846765,false,false,979,image-keyboard-response,12
true,8,2,2,2,true,d,false,true,0.0-2.0-0.32-0.295-3.295,0,0,0,68,false,stim,false,0,860.0,2,0,2,19791,task1,849131,false,false,982,image-keyboard-response,13
true,8,0,2,0,true,q,false,true,0.0-2.0-0.32-0.296-3.296,0,0,0,81,false,stim,false,1,854.0,2,0,0,19791,task1,851495,false,false,985,image-keyboard-response,14
true,8,2,2,1,false,z,true,false,0.0-2.0-0.33-0.297-3.297,0,0,0,68,false,stim,false,0,587.0,2,0,1,19791,task1,853591,false,false,988,image-keyboard-response,15
true,8,2,2,1,false,z,true,false,0.0-2.0-0.33-0.298-3.298,0,0,0,68,false,stim,false,0,687.0,2,0,1,19791,task1,855784,false,false,991,image-keyboard-response,16
true,8,0,2,0,true,q,false,true,0.0-2.0-0.33-0.299-3.299,0,0,0,81,false,stim,false,1,780.0000000001164,2,0,0,19791,task1,858070,false,false,994,image-keyboard-response,17
true,8,2,2,1,false,z,true,false,0.0-2.0-0.33-0.300-3.300,0,0,0,68,false,stim,false,0,529.0,2,0,1,19791,task1,860106,false,false,997,image-keyboard-response,18
true,8,0,2,0,true,q,false,true,0.0-2.0-0.33-0.301-3.301,0,0,0,81,false,stim,false,1,890.0,2,0,0,19791,task1,862504,false,false,1000,image-keyboard-response,19
true,8,1,2,2,false,d,true,false,0.0-2.0-0.33-0.302-3.302,0,0,0,90,false,stim,false,0,687.0000000001164,2,0,2,19791,task1,864705,false,false,1003,image-keyboard-response,20
true,8,2,2,2,true,d,false,true,0.0-2.0-0.33-0.303-3.303,0,0,0,68,false,stim,false,0,490.0,2,0,2,19791,task1,866701,false,false,1006,image-keyboard-response,21
true,8,2,2,2,true,d,false,true,0.0-2.0-0.33-0.304-3.304,0,0,0,68,false,stim,false,0,614.0,2,0,2,19791,task1,868822,false,false,1009,image-keyboard-response,22
true,8,0,2,0,true,q,false,true,0.0-2.0-0.33-0.305-3.305,0,0,0,81,false,stim,false,1,907.0,2,0,0,19791,task1,871236,false,false,1012,image-keyboard-response,23
true,8,2,2,2,true,d,false,true,0.0-2.0-0.34-0.306-3.306,0,0,0,68,false,stim,false,0,721.9999999998836,2,0,2,19791,task1,873465,false,false,1015,image-keyboard-response,24
true,8,1,2,1,true,z,false,true,0.0-2.0-0.34-0.307-3.307,0,0,0,90,false,stim,false,0,739.0,2,0,1,19791,task1,875711,false,false,1018,image-keyboard-response,25
true,8,0,2,0,true,q,false,false,0.0-2.0-0.34-0.308-3.308,0,0,0,81,false,stim,false,1,1089.0000000001164,2,0,0,19791,task1,878307,false,true,1021,image-keyboard-response,26
true,8,0,2,0,true,q,false,true,0.0-2.0-0.34-0.309-3.309,0,0,0,81,false,stim,false,1,630.0,2,0,0,19791,task1,880444,false,false,1024,image-keyboard-response,27
true,8,1,2,1,true,z,false,false,0.0-2.0-0.34-0.310-3.310,0,0,0,90,false,stim,false,0,722.9999999998836,2,0,1,19791,task1,882674,false,true,1027,image-keyboard-response,28
true,8,2,2,2,true,d,false,true,0.0-2.0-0.34-0.311-3.311,0,0,0,68,false,stim,false,0,779.0,2,0,2,19791,task1,884959,false,false,1030,image-keyboard-response,29
true,8,1,2,1,true,z,false,true,0.0-2.0-0.34-0.312-3.312,0,0,0,90,false,stim,false,0,802.0000000001164,2,0,1,19791,task1,887268,false,false,1033,image-keyboard-response,30
true,8,0,2,0,true,q,false,true,0.0-2.0-0.34-0.313-3.313,0,0,0,81,false,stim,false,1,880.0,2,0,0,19791,task1,889655,false,false,1036,image-keyboard-response,31
true,8,2,2,2,true,d,false,true,0.0-2.0-0.34-0.314-3.314,0,0,0,68,false,stim,false,0,835.0,2,0,2,19791,task1,891996,false,false,1039,image-keyboard-response,32
true,8,0,2,0,true,q,false,true,0.0-2.0-0.35-0.315-3.315,0,0,0,81,false,stim,false,1,821.0,2,0,0,19791,task1,894332,false,false,1042,image-keyboard-response,33
true,8,0,2,0,true,q,false,false,0.0-2.0-0.35-0.316-3.316,0,0,0,81,false,stim,false,1,703.0000000001164,2,0,0,19791,task1,896542,false,true,1045,image-keyboard-response,34
true,8,2,2,2,true,d,false,true,0.0-2.0-0.35-0.317-3.317,0,0,0,68,false,stim,false,0,570.0,2,0,2,19791,task1,898620,false,false,1048,image-keyboard-response,35
true,8,1,2,1,true,z,false,true,0.0-2.0-0.35-0.318-3.318,0,0,0,90,false,stim,false,0,842.0,2,0,1,19791,task1,900969,false,false,1051,image-keyboard-response,36
true,8,1,2,1,true,z,false,true,0.0-2.0-0.35-0.319-3.319,0,0,0,90,false,stim,false,0,818.0,2,0,1,19791,task1,903294,false,false,1054,image-keyboard-response,37
true,8,2,2,2,true,d,false,true,0.0-2.0-0.35-0.320-3.320,0,0,0,68,false,stim,false,0,772.0,2,0,2,19791,task1,905572,false,false,1057,image-keyboard-response,38
true,8,0,2,0,true,q,false,false,0.0-2.0-0.35-0.321-3.321,0,0,0,81,false,stim,false,1,785.0,2,0,0,19791,task1,907864,false,true,1060,image-keyboard-response,39
true,8,1,2,1,true,z,false,true,0.0-2.0-0.35-0.322-3.322,0,0,0,90,false,stim,false,0,819.0,2,0,1,19791,task1,910190,false,false,1063,image-keyboard-response,40
true,9,2,1,0,false,q,false,false,0.0-2.0-0.35-0.323-3.323,0,0,0,68,true,stim,true,2,927.0000000001164,2,0,2,19791,task1,912624,false,false,1066,image-keyboard-response,1
true,9,2,1,0,false,q,false,false,0.0-2.0-0.36-0.324-3.324,0,0,0,68,false,stim,true,2,650.0,2,0,2,19791,task1,914782,false,false,1069,image-keyboard-response,2
true,9,1,1,2,false,d,false,false,0.0-2.0-0.36-0.325-3.325,0,0,0,90,false,stim,true,1,774.0,2,0,1,19791,task1,917063,false,false,1072,image-keyboard-response,3
true,9,1,1,2,false,d,false,false,0.0-2.0-0.36-0.326-3.326,0,0,0,90,false,stim,true,1,534.0,2,0,1,19791,task1,919105,false,false,1075,image-keyboard-response,4
true,9,0,1,2,false,d,true,false,0.0-2.0-0.36-0.327-3.327,0,0,0,81,false,stim,false,1,700.0,2,0,1,19791,task1,921312,false,false,1078,image-keyboard-response,5
true,9,0,1,0,true,q,false,true,0.0-2.0-0.36-0.328-3.328,0,0,0,81,false,stim,false,2,1119.0,2,0,2,19791,task1,923937,false,false,1081,image-keyboard-response,6
true,9,2,1,2,true,d,false,true,0.0-2.0-0.36-0.329-3.329,0,0,0,68,false,stim,false,0,848.0,2,0,0,19791,task1,926291,false,false,1084,image-keyboard-response,7
true,9,2,1,2,true,d,false,true,0.0-2.0-0.36-0.330-3.330,0,0,0,68,false,stim,false,0,747.9999999998836,2,0,0,19791,task1,928545,false,false,1087,image-keyboard-response,8
true,9,2,1,2,true,d,false,true,0.0-2.0-0.36-0.331-3.331,0,0,0,68,false,stim,false,0,577.0,2,0,0,19791,task1,930630,false,false,1090,image-keyboard-response,9
true,9,0,1,0,true,q,false,true,0.0-2.0-0.36-0.332-3.332,0,0,0,81,false,stim,false,2,1136.0000000001164,2,0,2,19791,task1,933274,false,false,1093,image-keyboard-response,10
true,9,2,1,2,true,d,false,true,0.0-2.0-0.37-0.333-3.333,0,0,0,68,false,stim,false,0,638.0,2,0,0,19791,task1,935420,false,false,1096,image-keyboard-response,11
true,9,0,1,0,true,q,false,true,0.0-2.0-0.37-0.334-3.334,0,0,0,81,false,stim,false,2,689.9999999998836,2,0,2,19791,task1,937618,false,false,1099,image-keyboard-response,12
true,9,2,1,2,true,d,false,true,0.0-2.0-0.37-0.335-3.335,0,0,0,68,false,stim,false,1,1050.0,2,0,1,19791,task1,940182,false,false,1102,image-keyboard-response,13
true,9,2,1,2,true,d,false,true,0.0-2.0-0.37-0.336-3.336,0,0,0,68,false,stim,false,1,586.0,2,0,1,19791,task1,942275,false,false,1105,image-keyboard-response,14
true,9,0,1,0,true,q,false,false,0.0-2.0-0.37-0.337-3.337,0,0,0,81,false,stim,false,2,835.0,2,0,2,19791,task1,944617,false,true,1108,image-keyboard-response,15
true,9,2,1,2,true,d,false,true,0.0-2.0-0.37-0.338-3.338,0,0,0,68,false,stim,false,0,645.0,2,0,0,19791,task1,946768,false,false,1111,image-keyboard-response,16
true,9,2,1,0,false,q,false,false,0.0-2.0-0.37-0.339-3.339,0,0,0,68,false,stim,true,2,849.0,2,0,2,19791,task1,949125,false,false,1114,image-keyboard-response,17
true,9,2,1,2,true,d,false,true,0.0-2.0-0.37-0.340-3.340,0,0,0,68,false,stim,false,0,694.0,2,0,0,19791,task1,951326,false,false,1117,image-keyboard-response,18
true,9,2,1,2,true,d,false,true,0.0-2.0-0.37-0.341-3.341,0,0,0,68,false,stim,false,1,724.0,2,0,1,19791,task1,953558,false,false,1120,image-keyboard-response,19
true,9,2,1,2,true,d,false,true,0.0-2.0-0.38-0.342-3.342,0,0,0,68,false,stim,false,0,821.0,2,0,0,19791,task1,955886,false,false,1123,image-keyboard-response,20
true,9,2,1,2,true,d,false,true,0.0-2.0-0.38-0.343-3.343,0,0,0,68,false,stim,false,1,824.0,2,0,1,19791,task1,958217,false,false,1126,image-keyboard-response,21
true,9,2,1,0,false,q,false,false,0.0-2.0-0.38-0.344-3.344,0,0,0,68,false,stim,true,2,922.0,2,0,2,19791,task1,960650,false,false,1129,image-keyboard-response,22
true,9,2,1,2,true,d,false,true,0.0-2.0-0.38-0.345-3.345,0,0,0,68,false,stim,false,0,662.0,2,0,0,19791,task1,962819,false,false,1132,image-keyboard-response,23
true,9,2,1,2,true,d,false,true,0.0-2.0-0.38-0.346-3.346,0,0,0,68,false,stim,false,0,782.0,2,0,0,19791,task1,965109,false,false,1135,image-keyboard-response,24
true,9,2,1,2,true,d,false,true,0.0-2.0-0.38-0.347-3.347,0,0,0,68,false,stim,false,1,862.0,2,0,1,19791,task1,967479,false,false,1138,image-keyboard-response,25
false,9,-1,1,2,false,d,true,false,0.0-2.0-0.38-0.348-3.348,0,0,0,,false,stim,false,1,,2,0,1,19791,task1,971988,false,false,1141,image-keyboard-response,26
true,9,2,1,0,false,q,false,true,0.0-2.0-0.38-0.349-3.349,0,0,0,68,false,stim,true,2,803.0,2,0,2,19791,task1,974298,false,true,1144,image-keyboard-response,27
true,9,2,1,0,false,q,false,false,0.0-2.0-0.38-0.350-3.350,0,0,0,68,false,stim,true,2,572.0,2,0,2,19791,task1,976377,false,false,1147,image-keyboard-response,28
true,9,2,1,0,false,q,false,false,0.0-2.0-0.39-0.351-3.351,0,0,0,68,false,stim,true,2,812.0,2,0,2,19791,task1,978697,false,false,1150,image-keyboard-response,29
true,9,0,1,0,true,q,false,false,0.0-2.0-0.39-0.352-3.352,0,0,0,81,false,stim,false,2,582.0,2,0,2,19791,task1,980786,false,true,1153,image-keyboard-response,30
true,9,0,1,2,false,d,true,false,0.0-2.0-0.39-0.353-3.353,0,0,0,81,false,stim,false,1,1210.9999999998836,2,0,1,19791,task1,983505,false,false,1156,image-keyboard-response,31
true,9,2,1,2,true,d,false,true,0.0-2.0-0.39-0.354-3.354,0,0,0,68,false,stim,false,0,691.0000000001164,2,0,0,19791,task1,985703,false,false,1159,image-keyboard-response,32
true,9,2,1,2,true,d,false,true,0.0-2.0-0.39-0.355-3.355,0,0,0,68,false,stim,false,1,462.0,2,0,1,19791,task1,987672,false,false,1162,image-keyboard-response,33
true,9,2,1,2,true,d,false,true,0.0-2.0-0.39-0.356-3.356,0,0,0,68,false,stim,false,1,596.9999999998836,2,0,1,19791,task1,989776,false,false,1165,image-keyboard-response,34
true,9,0,1,0,true,q,false,true,0.0-2.0-0.39-0.357-3.357,0,0,0,81,false,stim,false,2,810.0,2,0,2,19791,task1,992094,false,false,1168,image-keyboard-response,35
true,9,2,1,2,true,d,false,true,0.0-2.0-0.39-0.358-3.358,0,0,0,68,false,stim,false,0,593.0,2,0,0,19791,task1,994195,false,false,1171,image-keyboard-response,36
true,9,2,1,2,true,d,false,true,0.0-2.0-0.39-0.359-3.359,0,0,0,68,false,stim,false,0,577.0,2,0,0,19791,task1,996280,false,false,1174,image-keyboard-response,37
true,9,0,1,0,true,q,false,true,0.0-2.0-0.40-0.360-3.360,0,0,0,81,false,stim,false,2,1197.0,2,0,2,19791,task1,998984,false,false,1177,image-keyboard-response,38
true,9,2,1,2,true,d,false,true,0.0-2.0-0.40-0.361-3.361,0,0,0,68,false,stim,false,0,532.0,2,0,0,19791,task1,1001023,false,false,1180,image-keyboard-response,39
true,9,0,1,2,false,d,true,false,0.0-2.0-0.40-0.362-3.362,0,0,0,81,false,stim,false,1,751.9999999998836,2,0,1,19791,task1,1003282,false,false,1183,image-keyboard-response,40
true,10,0,2,2,false,d,false,false,0.0-2.0-0.40-0.363-3.363,0,0,0,81,true,stim,true,0,614.0,2,0,2,19791,task1,1005403,false,false,1186,image-keyboard-response,1
true,10,2,2,1,false,z,false,false,0.0-2.0-0.40-0.364-3.364,0,0,0,68,false,stim,true,2,634.9999999998836,2,0,1,19791,task1,1007546,false,false,1189,image-keyboard-response,2
true,10,2,2,0,false,q,false,false,0.0-2.0-0.40-0.365-3.365,0,0,0,68,false,stim,true,2,635.0,2,0,0,19791,task1,1009689,false,false,1192,image-keyboard-response,3
true,10,2,2,0,false,q,false,false,0.0-2.0-0.40-0.366-3.366,0,0,0,68,false,stim,true,2,608.0,2,0,0,19791,task1,1011806,false,false,1195,image-keyboard-response,4
true,10,0,2,2,false,d,false,false,0.0-2.0-0.40-0.367-3.367,0,0,0,81,false,stim,true,0,906.0,2,0,2,19791,task1,1014222,false,false,1198,image-keyboard-response,5
true,10,1,2,1,true,z,false,true,0.0-2.0-0.40-0.368-3.368,0,0,0,90,false,stim,false,2,883.0,2,0,1,19791,task1,1016622,false,false,1201,image-keyboard-response,6
true,10,1,2,0,false,q,true,false,0.0-2.0-0.41-0.369-3.369,0,0,0,90,false,stim,false,2,653.0000000001164,2,0,0,19791,task1,1018784,false,false,1204,image-keyboard-response,7
true,10,1,2,1,true,z,false,true,0.0-2.0-0.41-0.370-3.370,0,0,0,90,false,stim,false,2,676.0000000001164,2,0,1,19791,task1,1020968,false,false,1207,image-keyboard-response,8
true,10,0,2,0,true,q,false,true,0.0-2.0-0.41-0.371-3.371,0,0,0,81,false,stim,false,2,623.0,2,0,0,19791,task1,1023099,false,false,1210,image-keyboard-response,9
true,10,1,2,1,true,z,false,true,0.0-2.0-0.41-0.372-3.372,0,0,0,90,false,stim,false,2,667.0000000002328,2,0,1,19791,task1,1025273,false,false,1213,image-keyboard-response,10
true,10,1,2,2,false,d,true,false,0.0-2.0-0.41-0.373-3.373,0,0,0,90,false,stim,false,0,814.9999999998836,2,0,2,19791,task1,1027597,false,false,1216,image-keyboard-response,11
true,10,2,2,2,true,d,false,true,0.0-2.0-0.41-0.374-3.374,0,0,0,68,false,stim,false,0,642.0000000001164,2,0,2,19791,task1,1029747,false,false,1219,image-keyboard-response,12
true,10,1,2,1,true,z,false,true,0.0-2.0-0.41-0.375-3.375,0,0,0,90,false,stim,false,2,727.9999999998836,2,0,1,19791,task1,1031982,false,false,1222,image-keyboard-response,13
true,10,0,2,0,true,q,false,true,0.0-2.0-0.41-0.376-3.376,0,0,0,81,false,stim,false,2,1585.0000000001164,2,0,0,19791,task1,1035074,false,false,1225,image-keyboard-response,14
true,10,2,2,2,true,d,false,true,0.0-2.0-0.41-0.377-3.377,0,0,0,68,false,stim,false,0,701.0000000001164,2,0,2,19791,task1,1037282,false,false,1228,image-keyboard-response,15
true,10,2,2,2,true,d,false,true,0.0-2.0-0.42-0.378-3.378,0,0,0,68,false,stim,false,0,539.0,2,0,2,19791,task1,1039330,false,false,1231,image-keyboard-response,16
true,10,0,2,0,true,q,false,false,0.0-2.0-0.42-0.379-3.379,0,0,0,81,false,stim,false,2,784.0000000001164,2,0,0,19791,task1,1041621,false,true,1234,image-keyboard-response,17
true,10,0,2,0,true,q,false,true,0.0-2.0-0.42-0.380-3.380,0,0,0,81,false,stim,false,2,703.0,2,0,0,19791,task1,1043831,false,false,1237,image-keyboard-response,18
true,10,2,2,1,false,z,false,false,0.0-2.0-0.42-0.381-3.381,0,0,0,68,false,stim,true,2,460.0000000001164,2,0,1,19791,task1,1045798,false,false,1240,image-keyboard-response,19
true,10,1,2,1,true,z,false,true,0.0-2.0-0.42-0.382-3.382,0,0,0,90,false,stim,false,2,527.0,2,0,1,19791,task1,1047833,false,false,1243,image-keyboard-response,20
true,10,0,2,0,true,q,false,false,0.0-2.0-0.42-0.383-3.383,0,0,0,81,false,stim,false,2,798.0,2,0,0,19791,task1,1050139,false,true,1246,image-keyboard-response,21
true,10,2,2,2,true,d,false,true,0.0-2.0-0.42-0.384-3.384,0,0,0,68,false,stim,false,0,659.0000000002328,2,0,2,19791,task1,1052305,false,false,1249,image-keyboard-response,22
true,10,2,2,2,true,d,false,true,0.0-2.0-0.42-0.385-3.385,0,0,0,68,false,stim,false,0,606.0,2,0,2,19791,task1,1054419,false,false,1252,image-keyboard-response,23
true,10,1,2,1,true,z,false,true,0.0-2.0-0.42-0.386-3.386,0,0,0,90,false,stim,false,2,609.0,2,0,1,19791,task1,1056536,false,false,1255,image-keyboard-response,24
true,10,2,2,2,true,d,false,true,0.0-2.0-0.43-0.387-3.387,0,0,0,68,false,stim,false,0,626.0,2,0,2,19791,task1,1058670,false,false,1258,image-keyboard-response,25
true,10,0,2,0,true,q,false,true,0.0-2.0-0.43-0.388-3.388,0,0,0,81,false,stim,false,2,666.0,2,0,0,19791,task1,1060843,false,false,1261,image-keyboard-response,26
true,10,1,2,1,true,z,false,true,0.0-2.0-0.43-0.389-3.389,0,0,0,90,false,stim,false,2,1124.0,2,0,1,19791,task1,1063475,false,false,1264,image-keyboard-response,27
true,10,1,2,1,true,z,false,false,0.0-2.0-0.43-0.390-3.390,0,0,0,90,false,stim,false,2,556.0,2,0,1,19791,task1,1065539,false,true,1267,image-keyboard-response,28
true,10,2,2,2,true,d,false,false,0.0-2.0-0.43-0.391-3.391,0,0,0,68,false,stim,false,0,868.0,2,0,2,19791,task1,1067914,false,true,1270,image-keyboard-response,29
true,10,2,2,2,true,d,false,false,0.0-2.0-0.43-0.392-3.392,0,0,0,68,false,stim,false,0,557.0,2,0,2,19791,task1,1069978,false,true,1273,image-keyboard-response,30
true,10,0,2,0,true,q,false,true,0.0-2.0-0.43-0.393-3.393,0,0,0,81,false,stim,false,2,908.0,2,0,0,19791,task1,1072393,false,false,1276,image-keyboard-response,31
true,10,0,2,0,true,q,false,true,0.0-2.0-0.43-0.394-3.394,0,0,0,81,false,stim,false,2,685.0,2,0,0,19791,task1,1074585,false,false,1279,image-keyboard-response,32
true,10,2,2,1,false,z,false,false,0.0-2.0-0.43-0.395-3.395,0,0,0,68,false,stim,true,2,890.0,2,0,1,19791,task1,1076982,false,false,1282,image-keyboard-response,33
true,10,1,2,1,true,z,false,true,0.0-2.0-0.44-0.396-3.396,0,0,0,90,false,stim,false,2,570.9999999997672,2,0,1,19791,task1,1079061,false,false,1285,image-keyboard-response,34
true,10,2,2,2,true,d,false,true,0.0-2.0-0.44-0.397-3.397,0,0,0,68,false,stim,false,0,624.0000000002328,2,0,2,19791,task1,1081193,false,false,1288,image-keyboard-response,35
true,10,1,2,1,true,z,false,true,0.0-2.0-0.44-0.398-3.398,0,0,0,90,false,stim,false,2,704.0,2,0,1,19791,task1,1083405,false,false,1291,image-keyboard-response,36
true,10,0,2,0,true,q,false,true,0.0-2.0-0.44-0.399-3.399,0,0,0,81,false,stim,false,2,681.0,2,0,0,19791,task1,1085594,false,false,1294,image-keyboard-response,37
true,10,0,2,0,true,q,false,true,0.0-2.0-0.44-0.400-3.400,0,0,0,81,false,stim,false,2,784.0000000002328,2,0,0,19791,task1,1087885,false,false,1297,image-keyboard-response,38
true,10,0,2,0,true,q,false,true,0.0-2.0-0.44-0.401-3.401,0,0,0,81,false,stim,false,2,714.0,2,0,0,19791,task1,1090107,false,false,1300,image-keyboard-response,39
true,10,2,2,2,true,d,false,true,0.0-2.0-0.44-0.402-3.402,0,0,0,68,false,stim,false,0,825.0,2,0,2,19791,task1,1092446,false,false,1303,image-keyboard-response,40
true,10,2,2,2,true,d,false,true,0.0-2.0-0.44-0.403-3.403,0,0,0,68,false,stim,false,0,639.0,2,0,2,19791,task1,1094593,false,false,1306,image-keyboard-response,41
true,10,1,2,1,true,z,false,true,0.0-2.0-0.44-0.404-3.404,0,0,0,90,false,stim,false,2,1180.0,2,0,1,19791,task1,1097280,false,false,1309,image-keyboard-response,42
true,11,0,2,1,false,z,false,true,0.0-2.0-0.45-0.405-3.405,0,0,0,81,true,stim,true,0,677.0,2,0,0,19791,task1,1099465,false,true,1312,image-keyboard-response,1
true,11,2,2,0,false,q,false,true,0.0-2.0-0.45-0.406-3.406,0,0,0,68,false,stim,true,2,683.0000000002328,2,0,2,19791,task1,1101654,false,true,1315,image-keyboard-response,2
true,11,1,2,0,false,q,false,false,0.0-2.0-0.45-0.407-3.407,0,0,0,90,false,stim,true,1,776.0,2,0,1,19791,task1,1103938,false,false,1318,image-keyboard-response,3
true,11,0,2,1,false,z,false,false,0.0-2.0-0.45-0.408-3.408,0,0,0,81,false,stim,true,0,1235.0,2,0,0,19791,task1,1106681,false,false,1321,image-keyboard-response,4
true,11,2,2,0,false,q,false,false,0.0-2.0-0.45-0.409-3.409,0,0,0,68,false,stim,true,2,875.0,2,0,2,19791,task1,1109064,false,false,1324,image-keyboard-response,5
true,11,2,2,0,false,q,false,false,0.0-2.0-0.45-0.410-3.410,0,0,0,68,false,stim,true,2,756.0000000002328,2,0,2,19791,task1,1111327,false,false,1327,image-keyboard-response,6
true,11,0,2,0,true,q,false,true,0.0-2.0-0.45-0.411-3.411,0,0,0,81,false,stim,false,1,863.0,2,0,1,19791,task1,1113698,false,false,1330,image-keyboard-response,7
true,11,2,2,1,false,z,true,false,0.0-2.0-0.45-0.412-3.412,0,0,0,68,false,stim,false,0,962.9999999997672,2,0,0,19791,task1,1116166,false,false,1333,image-keyboard-response,8
true,11,0,2,0,true,q,false,true,0.0-2.0-0.45-0.413-3.413,0,0,0,81,false,stim,false,1,773.0,2,0,1,19791,task1,1118446,false,false,1336,image-keyboard-response,9
true,11,0,2,0,true,q,false,true,0.0-2.0-0.46-0.414-3.414,0,0,0,81,false,stim,false,1,724.0,2,0,1,19791,task1,1120678,false,false,1339,image-keyboard-response,10
true,11,0,2,0,true,q,false,true,0.0-2.0-0.46-0.415-3.415,0,0,0,81,false,stim,false,1,915.0,2,0,1,19791,task1,1123101,false,false,1342,image-keyboard-response,11
true,11,0,2,0,true,q,false,true,0.0-2.0-0.46-0.416-3.416,0,0,0,81,false,stim,false,1,683.0,2,0,1,19791,task1,1125292,false,false,1345,image-keyboard-response,12
true,11,1,2,0,false,q,true,false,0.0-2.0-0.46-0.417-3.417,0,0,0,90,false,stim,false,2,856.0,2,0,2,19791,task1,1127655,false,false,1348,image-keyboard-response,13
true,11,1,2,1,true,z,false,true,0.0-2.0-0.46-0.418-3.418,0,0,0,90,false,stim,false,0,1049.0,2,0,0,19791,task1,1130211,false,false,1351,image-keyboard-response,14
true,11,0,2,0,true,q,false,true,0.0-2.0-0.46-0.419-3.419,0,0,0,81,false,stim,false,2,644.0,2,0,2,19791,task1,1132361,false,false,1354,image-keyboard-response,15
true,11,1,2,1,true,z,false,true,0.0-2.0-0.46-0.420-3.420,0,0,0,90,false,stim,false,0,1394.0,2,0,0,19791,task1,1135262,false,false,1357,image-keyboard-response,16
true,11,0,2,0,true,q,false,false,0.0-2.0-0.46-0.421-3.421,0,0,0,81,false,stim,false,2,740.0,2,0,2,19791,task1,1137510,false,true,1360,image-keyboard-response,17
true,11,1,2,1,true,z,false,true,0.0-2.0-0.46-0.422-3.422,0,0,0,90,false,stim,false,0,677.0,2,0,0,19791,task1,1139693,false,false,1363,image-keyboard-response,18
true,11,1,2,1,true,z,false,true,0.0-2.0-0.47-0.423-3.423,0,0,0,90,false,stim,false,0,698.0,2,0,0,19791,task1,1141899,false,false,1366,image-keyboard-response,19
true,11,0,2,0,true,q,false,true,0.0-2.0-0.47-0.424-3.424,0,0,0,81,false,stim,false,2,1318.0,2,0,2,19791,task1,1144725,false,false,1369,image-keyboard-response,20
true,11,0,2,0,true,q,false,true,0.0-2.0-0.47-0.425-3.425,0,0,0,81,false,stim,false,2,606.0,2,0,2,19791,task1,1146838,false,false,1372,image-keyboard-response,21
true,11,0,2,0,true,q,false,true,0.0-2.0-0.47-0.426-3.426,0,0,0,81,false,stim,false,1,730.0,2,0,1,19791,task1,1149075,false,false,1375,image-keyboard-response,22
true,11,0,2,0,true,q,false,true,0.0-2.0-0.47-0.427-3.427,0,0,0,81,false,stim,false,1,618.0,2,0,1,19791,task1,1151200,false,false,1378,image-keyboard-response,23
true,11,0,2,0,true,q,false,true,0.0-2.0-0.47-0.428-3.428,0,0,0,81,false,stim,false,1,660.0000000002328,2,0,1,19791,task1,1153368,false,false,1381,image-keyboard-response,24
true,11,0,2,0,true,q,false,true,0.0-2.0-0.47-0.429-3.429,0,0,0,81,false,stim,false,2,944.0000000002328,2,0,2,19791,task1,1155820,false,false,1384,image-keyboard-response,25
true,11,1,2,1,true,z,false,true,0.0-2.0-0.47-0.430-3.430,0,0,0,90,false,stim,false,0,595.0,2,0,0,19791,task1,1157923,false,false,1387,image-keyboard-response,26
true,11,1,2,1,true,z,false,false,0.0-2.0-0.47-0.431-3.431,0,0,0,90,false,stim,false,0,497.0,2,0,0,19791,task1,1159927,false,true,1390,image-keyboard-response,27
true,11,0,2,0,true,q,false,true,0.0-2.0-0.48-0.432-3.432,0,0,0,81,false,stim,false,2,875.0,2,0,2,19791,task1,1162310,false,false,1393,image-keyboard-response,28
true,11,1,2,1,true,z,false,true,0.0-2.0-0.48-0.433-3.433,0,0,0,90,false,stim,false,0,521.0,2,0,0,19791,task1,1164337,false,false,1396,image-keyboard-response,29
true,11,0,2,0,true,q,false,true,0.0-2.0-0.48-0.434-3.434,0,0,0,81,false,stim,false,1,708.0,2,0,1,19791,task1,1166552,false,false,1399,image-keyboard-response,30
true,11,0,2,0,true,q,false,true,0.0-2.0-0.48-0.435-3.435,0,0,0,81,false,stim,false,2,1650.0,2,0,2,19791,task1,1169717,false,false,1402,image-keyboard-response,31
true,11,0,2,0,true,q,false,true,0.0-2.0-0.48-0.436-3.436,0,0,0,81,false,stim,false,1,747.0,2,0,1,19791,task1,1171971,false,false,1405,image-keyboard-response,32
true,11,0,2,0,true,q,false,true,0.0-2.0-0.48-0.437-3.437,0,0,0,81,false,stim,false,2,1388.0,2,0,2,19791,task1,1174866,false,false,1408,image-keyboard-response,33
true,11,1,2,1,true,z,false,true,0.0-2.0-0.48-0.438-3.438,0,0,0,90,false,stim,false,0,1158.0,2,0,0,19791,task1,1177532,false,false,1411,image-keyboard-response,34
true,11,1,2,1,true,z,false,true,0.0-2.0-0.48-0.439-3.439,0,0,0,90,false,stim,false,0,662.0,2,0,0,19791,task1,1179701,false,false,1414,image-keyboard-response,35
true,11,0,2,0,true,q,false,true,0.0-2.0-0.48-0.440-3.440,0,0,0,81,false,stim,false,1,932.0,2,0,1,19791,task1,1182141,false,false,1417,image-keyboard-response,36
true,11,1,2,1,true,z,false,true,0.0-2.0-0.49-0.441-3.441,0,0,0,90,false,stim,false,0,713.0,2,0,0,19791,task1,1184361,false,false,1420,image-keyboard-response,37
true,11,0,2,0,true,q,false,true,0.0-2.0-0.49-0.442-3.442,0,0,0,81,false,stim,false,1,721.9999999997672,2,0,1,19791,task1,1186590,false,false,1423,image-keyboard-response,38
true,11,1,2,1,true,z,false,true,0.0-2.0-0.49-0.443-3.443,0,0,0,90,false,stim,false,0,570.0,2,0,0,19791,task1,1188668,false,false,1426,image-keyboard-response,39
true,11,0,2,0,true,q,false,true,0.0-2.0-0.49-0.444-3.444,0,0,0,81,false,stim,false,2,876.9999999997672,2,0,2,19791,task1,1191053,false,false,1429,image-keyboard-response,40
true,11,0,2,0,true,q,false,true,0.0-2.0-0.49-0.445-3.445,0,0,0,81,false,stim,false,2,957.9999999997672,2,0,2,19791,task1,1193519,false,false,1432,image-keyboard-response,41
true,12,1,2,0,false,q,false,false,0.0-2.0-0.49-0.446-3.446,0,0,0,90,true,stim,true,1,646.0,2,0,0,19791,task1,1195673,false,false,1435,image-keyboard-response,1
true,12,0,2,1,false,z,false,false,0.0-2.0-0.49-0.447-3.447,0,0,0,81,false,stim,true,0,725.0,2,0,1,19791,task1,1197906,false,false,1438,image-keyboard-response,2
true,12,0,2,2,false,d,false,true,0.0-2.0-0.49-0.448-3.448,0,0,0,81,false,stim,true,0,817.0,2,0,2,19791,task1,1200230,false,true,1441,image-keyboard-response,3
true,12,0,2,1,false,z,false,false,0.0-2.0-0.49-0.449-3.449,0,0,0,81,false,stim,true,0,756.0,2,0,1,19791,task1,1202493,false,false,1444,image-keyboard-response,4
true,12,0,2,1,false,z,false,false,0.0-2.0-0.50-0.450-3.450,0,0,0,81,false,stim,true,0,700.0,2,0,1,19791,task1,1204701,false,false,1447,image-keyboard-response,5
true,12,2,2,1,false,z,true,false,0.0-2.0-0.50-0.451-3.451,0,0,0,68,false,stim,false,0,508.0,2,0,1,19791,task1,1206717,false,false,1450,image-keyboard-response,6
true,12,1,2,1,true,z,false,true,0.0-2.0-0.50-0.452-3.452,0,0,0,90,false,stim,false,0,598.0000000002328,2,0,1,19791,task1,1208822,false,false,1453,image-keyboard-response,7
true,12,0,2,2,false,d,false,false,0.0-2.0-0.50-0.453-3.453,0,0,0,81,false,stim,true,0,1004.0,2,0,2,19791,task1,1211333,false,false,1456,image-keyboard-response,8
true,12,1,2,0,false,q,false,false,0.0-2.0-0.50-0.454-3.454,0,0,0,90,false,stim,true,1,797.0,2,0,0,19791,task1,1213636,false,false,1459,image-keyboard-response,9
true,12,2,2,0,false,q,true,false,0.0-2.0-0.50-0.455-3.455,0,0,0,68,false,stim,false,1,515.0,2,0,0,19791,task1,1215659,false,false,1462,image-keyboard-response,10
true,12,0,2,2,false,d,false,false,0.0-2.0-0.50-0.456-3.456,0,0,0,81,false,stim,true,0,1469.0,2,0,2,19791,task1,1218632,false,false,1465,image-keyboard-response,11
true,12,0,2,0,true,q,false,true,0.0-2.0-0.50-0.457-3.457,0,0,0,81,false,stim,false,1,818.0,2,0,0,19791,task1,1220957,false,false,1468,image-keyboard-response,12
true,12,1,2,2,false,d,true,false,0.0-2.0-0.50-0.458-3.458,0,0,0,90,false,stim,false,0,772.0,2,0,2,19791,task1,1223236,false,false,1471,image-keyboard-response,13
true,12,0,2,0,true,q,false,true,0.0-2.0-0.51-0.459-3.459,0,0,0,81,false,stim,false,1,676.0,2,0,0,19791,task1,1225420,false,false,1474,image-keyboard-response,14
true,12,1,2,1,true,z,false,true,0.0-2.0-0.51-0.460-3.460,0,0,0,90,false,stim,false,0,716.0,2,0,1,19791,task1,1227644,false,false,1477,image-keyboard-response,15
true,12,2,2,2,true,d,false,true,0.0-2.0-0.51-0.461-3.461,0,0,0,68,false,stim,false,0,517.0,2,0,2,19791,task1,1229669,false,false,1480,image-keyboard-response,16
true,12,1,2,1,true,z,false,true,0.0-2.0-0.51-0.462-3.462,0,0,0,90,false,stim,false,0,855.0,2,0,1,19791,task1,1232031,false,false,1483,image-keyboard-response,17
true,12,1,2,1,true,z,false,true,0.0-2.0-0.51-0.463-3.463,0,0,0,90,false,stim,false,0,609.0,2,0,1,19791,task1,1234148,false,false,1486,image-keyboard-response,18
true,12,1,2,2,false,d,true,true,0.0-2.0-0.51-0.464-3.464,0,0,0,90,false,stim,false,0,594.0,2,0,2,19791,task1,1236249,false,true,1489,image-keyboard-response,19
true,12,2,2,2,true,d,false,true,0.0-2.0-0.51-0.465-3.465,0,0,0,68,false,stim,false,0,649.0,2,0,2,19791,task1,1238406,false,false,1492,image-keyboard-response,20
true,12,0,2,0,true,q,false,true,0.0-2.0-0.51-0.466-3.466,0,0,0,81,false,stim,false,1,708.0,2,0,0,19791,task1,1240624,false,false,1495,image-keyboard-response,21
true,12,0,2,0,true,q,false,true,0.0-2.0-0.51-0.467-3.467,0,0,0,81,false,stim,false,1,853.0000000002328,2,0,0,19791,task1,1242985,false,false,1498,image-keyboard-response,22
true,12,2,2,2,true,d,false,true,0.0-2.0-0.52-0.468-3.468,0,0,0,68,false,stim,false,0,716.0,2,0,2,19791,task1,1245220,false,false,1501,image-keyboard-response,23
true,12,0,2,0,true,q,false,false,0.0-2.0-0.52-0.469-3.469,0,0,0,81,false,stim,false,1,940.0,2,0,0,19791,task1,1247668,false,true,1504,image-keyboard-response,24
true,12,0,2,0,true,q,false,false,0.0-2.0-0.52-0.470-3.470,0,0,0,81,false,stim,false,1,677.0,2,0,0,19791,task1,1249852,false,true,1507,image-keyboard-response,25
true,12,2,2,2,true,d,false,true,0.0-2.0-0.52-0.471-3.471,0,0,0,68,false,stim,false,0,865.0,2,0,2,19791,task1,1252227,false,false,1510,image-keyboard-response,26
true,12,1,2,1,true,z,false,true,0.0-2.0-0.52-0.472-3.472,0,0,0,90,false,stim,false,0,945.0,2,0,1,19791,task1,1254679,false,false,1513,image-keyboard-response,27
true,12,1,2,1,true,z,false,true,0.0-2.0-0.52-0.473-3.473,0,0,0,90,false,stim,false,0,528.0,2,0,1,19791,task1,1256714,false,false,1516,image-keyboard-response,28
true,12,2,2,2,true,d,false,true,0.0-2.0-0.52-0.474-3.474,0,0,0,68,false,stim,false,0,697.0,2,0,2,19791,task1,1258920,false,false,1519,image-keyboard-response,29
true,12,2,2,1,false,z,true,false,0.0-2.0-0.52-0.475-3.475,0,0,0,68,false,stim,false,0,707.9999999997672,2,0,1,19791,task1,1261136,false,false,1522,image-keyboard-response,30
true,12,0,2,0,true,q,false,true,0.0-2.0-0.52-0.476-3.476,0,0,0,81,false,stim,false,1,763.0,2,0,0,19791,task1,1263408,false,false,1525,image-keyboard-response,31
true,12,2,2,2,true,d,false,true,0.0-2.0-0.53-0.477-3.477,0,0,0,68,false,stim,false,0,556.0,2,0,2,19791,task1,1265473,false,false,1528,image-keyboard-response,32
true,12,0,2,0,true,q,false,true,0.0-2.0-0.53-0.478-3.478,0,0,0,81,false,stim,false,1,733.0,2,0,0,19791,task1,1267715,false,false,1531,image-keyboard-response,33
true,12,0,2,0,true,q,false,true,0.0-2.0-0.53-0.479-3.479,0,0,0,81,false,stim,false,1,784.0,2,0,0,19791,task1,1270007,false,false,1534,image-keyboard-response,34
true,12,2,2,2,true,d,false,true,0.0-2.0-0.53-0.480-3.480,0,0,0,68,false,stim,false,0,616.0000000002328,2,0,2,19791,task1,1272130,false,false,1537,image-keyboard-response,35
true,12,0,2,0,true,q,false,true,0.0-2.0-0.53-0.481-3.481,0,0,0,81,false,stim,false,1,642.0,2,0,0,19791,task1,1274279,false,false,1540,image-keyboard-response,36
true,12,1,2,1,true,z,false,false,0.0-2.0-0.53-0.482-3.482,0,0,0,90,false,stim,false,0,758.0,2,0,1,19791,task1,1276545,false,true,1543,image-keyboard-response,37
true,12,2,2,2,true,d,false,true,0.0-2.0-0.53-0.483-3.483,0,0,0,68,false,stim,false,0,510.0,2,0,2,19791,task1,1278562,false,false,1546,image-keyboard-response,38
true,12,1,2,1,true,z,false,true,0.0-2.0-0.53-0.484-3.484,0,0,0,90,false,stim,false,0,738.0,2,0,1,19791,task1,1280808,false,false,1549,image-keyboard-response,39
true,12,1,2,1,true,z,false,true,0.0-2.0-0.53-0.485-3.485,0,0,0,90,false,stim,false,0,783.0,2,0,1,19791,task1,1283100,false,false,1552,image-keyboard-response,40
true,12,1,2,1,true,z,false,false,0.0-2.0-0.54-0.486-3.486,0,0,0,90,false,stim,false,0,600.0000000002328,2,0,1,19791,task1,1285208,false,true,1555,image-keyboard-response,41
true,13,2,2,0,false,q,false,false,0.0-2.0-0.54-0.487-3.487,0,0,0,68,true,stim,true,2,731.0,2,0,2,19791,task1,1287447,false,false,1558,image-keyboard-response,1
true,13,2,2,0,false,q,false,false,0.0-2.0-0.54-0.488-3.488,0,0,0,68,false,stim,true,2,497.0,2,0,2,19791,task1,1289452,false,false,1561,image-keyboard-response,2
true,13,0,2,1,false,z,false,false,0.0-2.0-0.54-0.489-3.489,0,0,0,81,false,stim,true,0,946.0,2,0,0,19791,task1,1291906,false,false,1564,image-keyboard-response,3
true,13,0,2,1,false,z,false,false,0.0-2.0-0.54-0.490-3.490,0,0,0,81,false,stim,true,0,623.0,2,0,0,19791,task1,1294036,false,false,1567,image-keyboard-response,4
true,13,1,2,1,true,z,false,true,0.0-2.0-0.54-0.491-3.491,0,0,0,90,false,stim,false,0,838.0000000002328,2,0,0,19791,task1,1296381,false,false,1570,image-keyboard-response,5
true,13,0,2,0,true,q,false,true,0.0-2.0-0.54-0.492-3.492,0,0,0,81,false,stim,false,1,931.0,2,0,1,19791,task1,1298821,false,false,1573,image-keyboard-response,6
true,13,0,2,0,true,q,false,true,0.0-2.0-0.54-0.493-3.493,0,0,0,81,false,stim,false,2,708.0,2,0,2,19791,task1,1301037,false,false,1576,image-keyboard-response,7
true,13,0,2,0,true,q,false,true,0.0-2.0-0.54-0.494-3.494,0,0,0,81,false,stim,false,1,584.0,2,0,1,19791,task1,1303128,false,false,1579,image-keyboard-response,8
true,13,1,2,1,true,z,false,true,0.0-2.0-0.55-0.495-3.495,0,0,0,90,false,stim,false,0,1076.0,2,0,0,19791,task1,1305714,false,false,1582,image-keyboard-response,9
true,13,0,2,0,true,q,false,true,0.0-2.0-0.55-0.496-3.496,0,0,0,81,false,stim,false,2,917.0,2,0,2,19791,task1,1308139,false,false,1585,image-keyboard-response,10
true,13,1,2,1,true,z,false,true,0.0-2.0-0.55-0.497-3.497,0,0,0,90,false,stim,false,0,831.0,2,0,0,19791,task1,1310479,false,false,1588,image-keyboard-response,11
true,13,1,2,1,true,z,false,true,0.0-2.0-0.55-0.498-3.498,0,0,0,90,false,stim,false,0,725.0,2,0,0,19791,task1,1312710,false,false,1591,image-keyboard-response,12
true,13,0,2,0,true,q,false,true,0.0-2.0-0.55-0.499-3.499,0,0,0,81,false,stim,false,1,1271.0,2,0,1,19791,task1,1315490,false,false,1594,image-keyboard-response,13
true,13,0,2,0,true,q,false,true,0.0-2.0-0.55-0.500-3.500,0,0,0,81,false,stim,false,2,1040.0,2,0,2,19791,task1,1318037,false,false,1597,image-keyboard-response,14
true,13,0,2,0,true,q,false,true,0.0-2.0-0.55-0.501-3.501,0,0,0,81,false,stim,false,1,604.0,2,0,1,19791,task1,1320149,false,false,1600,image-keyboard-response,15
true,13,0,2,0,true,q,false,true,0.0-2.0-0.55-0.502-3.502,0,0,0,81,false,stim,false,2,1397.0000000002328,2,0,2,19791,task1,1323065,false,false,1603,image-keyboard-response,16
true,13,0,2,0,true,q,false,false,0.0-2.0-0.55-0.503-3.503,0,0,0,81,false,stim,false,1,643.0,2,0,1,19791,task1,1325216,false,true,1606,image-keyboard-response,17
true,13,0,2,0,true,q,false,true,0.0-2.0-0.56-0.504-3.504,0,0,0,81,false,stim,false,1,657.0,2,0,1,19791,task1,1327380,false,false,1609,image-keyboard-response,18
true,13,0,2,0,true,q,false,true,0.0-2.0-0.56-0.505-3.505,0,0,0,81,false,stim,false,1,673.0,2,0,1,19791,task1,1329562,false,false,1612,image-keyboard-response,19
true,13,0,2,0,true,q,false,true,0.0-2.0-0.56-0.506-3.506,0,0,0,81,false,stim,false,2,1157.0,2,0,2,19791,task1,1332227,false,false,1615,image-keyboard-response,20
true,13,1,2,1,true,z,false,true,0.0-2.0-0.56-0.507-3.507,0,0,0,90,false,stim,false,0,819.0,2,0,0,19791,task1,1334553,false,false,1618,image-keyboard-response,21
true,13,0,2,0,true,q,false,false,0.0-2.0-0.56-0.508-3.508,0,0,0,81,false,stim,false,1,1124.0,2,0,1,19791,task1,1337185,false,true,1621,image-keyboard-response,22
true,13,1,2,1,true,z,false,true,0.0-2.0-0.56-0.509-3.509,0,0,0,90,false,stim,false,0,547.0,2,0,0,19791,task1,1339240,false,false,1624,image-keyboard-response,23
true,13,0,2,0,true,q,false,true,0.0-2.0-0.56-0.510-3.510,0,0,0,81,false,stim,false,2,698.9999999997672,2,0,2,19791,task1,1341447,false,false,1627,image-keyboard-response,24
true,13,1,2,1,true,z,false,true,0.0-2.0-0.56-0.511-3.511,0,0,0,90,false,stim,false,0,787.0,2,0,0,19791,task1,1343741,false,false,1630,image-keyboard-response,25
true,13,0,2,0,true,q,false,true,0.0-2.0-0.56-0.512-3.512,0,0,0,81,false,stim,false,2,826.0000000002328,2,0,2,19791,task1,1346075,false,false,1633,image-keyboard-response,26
true,13,0,2,0,true,q,false,true,0.0-2.0-0.57-0.513-3.513,0,0,0,81,false,stim,false,1,687.9999999997672,2,0,1,19791,task1,1348272,false,false,1636,image-keyboard-response,27
true,13,1,2,1,true,z,false,true,0.0-2.0-0.57-0.514-3.514,0,0,0,90,false,stim,false,0,567.0,2,0,0,19791,task1,1350346,false,false,1639,image-keyboard-response,28
true,13,1,2,1,true,z,false,true,0.0-2.0-0.57-0.515-3.515,0,0,0,90,false,stim,false,0,587.9999999997672,2,0,0,19791,task1,1352442,false,false,1642,image-keyboard-response,29
true,13,0,2,0,true,q,false,true,0.0-2.0-0.57-0.516-3.516,0,0,0,81,false,stim,false,2,745.9999999997672,2,0,2,19791,task1,1354697,false,false,1645,image-keyboard-response,30
true,13,1,2,1,true,z,false,true,0.0-2.0-0.57-0.517-3.517,0,0,0,90,false,stim,false,0,583.0,2,0,0,19791,task1,1356788,false,false,1648,image-keyboard-response,31
true,13,0,2,0,true,q,false,true,0.0-2.0-0.57-0.518-3.518,0,0,0,81,false,stim,false,2,912.0,2,0,2,19791,task1,1359207,false,false,1651,image-keyboard-response,32
true,13,0,2,0,true,q,false,true,0.0-2.0-0.57-0.519-3.519,0,0,0,81,false,stim,false,1,708.0,2,0,1,19791,task1,1361423,false,false,1654,image-keyboard-response,33
true,13,0,2,0,true,q,false,true,0.0-2.0-0.57-0.520-3.520,0,0,0,81,false,stim,false,2,1213.9999999997672,2,0,2,19791,task1,1364145,false,false,1657,image-keyboard-response,34
true,13,0,2,0,true,q,false,true,0.0-2.0-0.57-0.521-3.521,0,0,0,81,false,stim,false,1,573.9999999997672,2,0,1,19791,task1,1366226,false,false,1660,image-keyboard-response,35
true,13,0,2,0,true,q,false,true,0.0-2.0-0.58-0.522-3.522,0,0,0,81,false,stim,false,2,707.0000000002328,2,0,2,19791,task1,1368442,false,false,1663,image-keyboard-response,36
true,13,0,2,0,true,q,false,true,0.0-2.0-0.58-0.523-3.523,0,0,0,81,false,stim,false,2,577.0,2,0,2,19791,task1,1370527,false,false,1666,image-keyboard-response,37
true,13,0,2,0,true,q,false,true,0.0-2.0-0.58-0.524-3.524,0,0,0,81,false,stim,false,1,596.9999999997672,2,1,1,19791,task1,1372634,false,false,1669,image-keyboard-response,38
true,13,1,2,1,true,z,false,true,0.0-2.0-0.58-0.525-3.525,0,0,0,90,false,stim,false,0,1007.0,2,1,0,19791,task1,1375149,false,false,1672,image-keyboard-response,39
true,13,1,2,1,true,z,false,true,0.0-2.0-0.58-0.526-3.526,0,0,0,90,false,stim,false,0,582.0000000002328,2,1,0,19791,task1,1377240,false,false,1675,image-keyboard-response,40
true,13,0,2,0,true,q,false,true,0.0-2.0-0.58-0.527-3.527,0,0,0,81,false,stim,false,2,1370.0,2,1,2,19791,task1,1380119,false,false,1678,image-keyboard-response,41
true,13,0,2,0,true,q,false,true,0.0-2.0-0.58-0.528-3.528,0,0,0,81,false,stim,false,1,742.0,2,1,1,19791,task1,1382368,false,false,1681,image-keyboard-response,42
false,14,-1,0,0,false,q,true,false,0.0-2.0-0.58-0.529-3.529,1,1,1,,true,stim,false,0,,2,1,1,19791,task1,1507201,false,false,1804,image-keyboard-response,1
true,14,0,0,1,false,z,true,false,0.0-2.0-0.58-0.530-3.530,1,1,1,81,false,stim,false,1,1941.0,2,1,0,19791,task1,1510650,false,false,1807,image-keyboard-response,2
true,14,0,0,0,true,q,false,true,0.0-2.0-0.59-0.531-3.531,1,1,1,81,false,stim,false,0,1390.0,2,1,1,19791,task1,1513550,false,false,1810,image-keyboard-response,3
true,14,1,0,0,false,q,true,false,0.0-2.0-0.59-0.532-3.532,1,1,1,90,false,stim,false,0,1968.0,2,1,2,19791,task1,1517026,false,false,1813,image-keyboard-response,4
true,14,1,0,1,true,z,false,true,0.0-2.0-0.59-0.533-3.533,1,1,1,90,false,stim,false,1,1011.0,2,1,0,19791,task1,1519547,false,false,1816,image-keyboard-response,5
true,14,0,0,0,true,q,false,true,0.0-2.0-0.59-0.534-3.534,1,1,1,81,false,stim,false,0,1195.0,2,1,1,19791,task1,1522250,false,false,1819,image-keyboard-response,6
true,14,2,0,0,false,q,true,false,0.0-2.0-0.59-0.535-3.535,1,1,1,68,false,stim,false,0,1421.0,2,1,2,19791,task1,1525179,false,false,1822,image-keyboard-response,7
true,14,0,0,0,true,q,false,true,0.0-2.0-0.59-0.536-3.536,1,1,1,81,false,stim,false,0,1578.0,2,1,1,19791,task1,1528265,false,false,1825,image-keyboard-response,8
true,14,1,0,1,true,z,false,true,0.0-2.0-0.59-0.537-3.537,1,1,1,90,false,stim,false,1,1711.9999999997672,2,0,0,19791,task1,1531485,false,false,1828,image-keyboard-response,9
true,14,1,0,1,true,z,false,false,0.0-2.0-0.59-0.538-3.538,1,1,1,90,false,stim,false,1,1432.0,2,0,0,19791,task1,1534425,false,true,1831,image-keyboard-response,10
true,14,2,0,0,false,q,true,false,0.0-2.0-0.59-0.539-3.539,1,1,1,68,false,stim,false,0,2071.0,2,0,2,19791,task1,1538005,false,false,1834,image-keyboard-response,11
true,14,1,0,1,true,z,false,true,0.0-2.0-0.60-0.540-3.540,1,1,1,90,false,stim,false,1,1691.0000000002328,2,0,0,19791,task1,1541206,false,false,1837,image-keyboard-response,12
true,14,0,0,0,true,q,false,false,0.0-2.0-0.60-0.541-3.541,1,1,1,81,false,stim,false,0,1138.0,2,0,1,19791,task1,1543851,false,true,1840,image-keyboard-response,13
true,15,0,2,1,false,z,false,false,0.0-2.0-0.60-0.542-3.542,0,0,0,81,true,stim,true,0,828.0,2,0,1,19791,task1,1546188,false,false,1843,image-keyboard-response,1
true,15,0,2,2,false,d,false,false,0.0-2.0-0.60-0.543-3.543,0,0,0,81,false,stim,true,0,996.9999999997672,2,0,2,19791,task1,1548694,false,false,1846,image-keyboard-response,2
true,15,0,2,2,false,d,false,false,0.0-2.0-0.60-0.544-3.544,0,0,0,81,false,stim,true,0,966.0,2,0,2,19791,task1,1551166,false,false,1849,image-keyboard-response,3
true,15,1,2,0,false,q,false,false,0.0-2.0-0.60-0.545-3.545,0,0,0,90,false,stim,true,1,627.0000000002328,2,0,0,19791,task1,1553302,false,false,1852,image-keyboard-response,4
true,15,2,2,1,false,z,true,false,0.0-2.0-0.60-0.546-3.546,0,0,0,68,false,stim,false,0,1070.0000000002328,2,0,1,19791,task1,1555879,false,false,1855,image-keyboard-response,5
true,15,1,2,2,false,d,true,false,0.0-2.0-0.60-0.547-3.547,0,0,0,90,false,stim,false,0,879.0000000002328,2,0,2,19791,task1,1558264,false,false,1858,image-keyboard-response,6
true,15,1,2,0,false,q,false,false,0.0-2.0-0.60-0.548-3.548,0,0,0,90,false,stim,true,1,1115.9999999997672,2,0,0,19791,task1,1560890,false,false,1861,image-keyboard-response,7
true,15,2,2,0,false,q,true,false,0.0-2.0-0.61-0.549-3.549,0,0,0,68,false,stim,false,1,703.0000000002328,2,0,0,19791,task1,1563101,false,false,1864,image-keyboard-response,8
true,15,1,2,2,false,d,true,false,0.0-2.0-0.61-0.550-3.550,0,0,0,90,false,stim,false,0,1228.0,2,0,2,19791,task1,1565837,false,false,1867,image-keyboard-response,9
true,15,0,2,1,false,z,false,true,0.0-2.0-0.61-0.551-3.551,0,0,0,81,false,stim,true,0,743.0,2,0,1,19791,task1,1568091,false,true,1870,image-keyboard-response,10
true,15,0,2,2,false,d,false,false,0.0-2.0-0.61-0.552-3.552,0,0,0,81,false,stim,true,0,829.0000000002328,2,0,2,19791,task1,1570427,false,false,1873,image-keyboard-response,11
true,15,0,2,1,false,z,false,false,0.0-2.0-0.61-0.553-3.553,0,0,0,81,false,stim,true,0,801.0,2,0,1,19791,task1,1572736,false,false,1876,image-keyboard-response,12
true,15,1,2,0,false,q,false,false,0.0-2.0-0.61-0.554-3.554,0,0,0,90,false,stim,true,1,1110.0,2,0,0,19791,task1,1575357,false,false,1879,image-keyboard-response,13
true,15,1,2,2,false,d,true,false,0.0-2.0-0.61-0.555-3.555,0,0,0,90,false,stim,false,0,909.0000000002328,2,0,2,19791,task1,1577774,false,false,1882,image-keyboard-response,14
true,15,0,2,1,false,z,false,false,0.0-2.0-0.61-0.556-3.556,0,0,0,81,false,stim,true,0,894.0,2,0,1,19791,task1,1580176,false,false,1885,image-keyboard-response,15
true,15,2,2,0,false,q,true,false,0.0-2.0-0.61-0.557-3.557,0,0,0,68,false,stim,false,1,1977.0,2,0,0,19791,task1,1583663,false,false,1888,image-keyboard-response,16
true,15,2,2,2,true,d,false,true,0.0-2.0-0.62-0.558-3.558,0,0,0,68,false,stim,false,0,1491.0,2,0,2,19791,task1,1586664,false,false,1891,image-keyboard-response,17
true,15,1,2,0,false,q,false,false,0.0-2.0-0.62-0.559-3.559,0,0,0,90,false,stim,true,1,1257.0000000002328,2,0,0,19791,task1,1589428,false,false,1894,image-keyboard-response,18
true,15,0,2,0,true,q,false,true,0.0-2.0-0.62-0.560-3.560,0,0,0,81,false,stim,false,1,527.0,2,0,0,19791,task1,1591464,false,false,1897,image-keyboard-response,19
true,15,1,2,1,true,z,false,true,0.0-2.0-0.62-0.561-3.561,0,0,0,90,false,stim,false,0,1349.0,2,0,1,19791,task1,1594321,false,false,1900,image-keyboard-response,20
true,15,1,2,1,true,z,false,true,0.0-2.0-0.62-0.562-3.562,0,0,0,90,false,stim,false,0,702.0,2,0,1,19791,task1,1596542,false,false,1903,image-keyboard-response,21
true,15,2,2,2,true,d,false,true,0.0-2.0-0.62-0.563-3.563,0,0,0,68,false,stim,false,0,693.0,2,0,2,19791,task1,1598743,false,false,1906,image-keyboard-response,22
true,15,2,2,2,true,d,false,true,0.0-2.0-0.62-0.564-3.564,0,0,0,68,false,stim,false,0,844.0,2,0,2,19791,task1,1601097,false,false,1909,image-keyboard-response,23
true,15,0,2,0,true,q,false,true,0.0-2.0-0.62-0.565-3.565,0,0,0,81,false,stim,false,1,826.0,2,0,0,19791,task1,1603432,false,false,1912,image-keyboard-response,24
true,15,1,2,1,true,z,false,true,0.0-2.0-0.62-0.566-3.566,0,0,0,90,false,stim,false,0,586.0,2,0,1,19791,task1,1605527,false,false,1915,image-keyboard-response,25
true,15,0,2,0,true,q,false,true,0.0-2.0-0.63-0.567-3.567,0,0,0,81,false,stim,false,1,737.0,2,0,0,19791,task1,1607773,false,false,1918,image-keyboard-response,26
true,15,2,2,2,true,d,false,true,0.0-2.0-0.63-0.568-3.568,0,0,0,68,false,stim,false,0,658.0,2,0,2,19791,task1,1609942,false,false,1921,image-keyboard-response,27
true,15,0,2,0,true,q,false,true,0.0-2.0-0.63-0.569-3.569,0,0,0,81,false,stim,false,1,817.0,2,0,0,19791,task1,1612266,false,false,1924,image-keyboard-response,28
true,15,0,2,0,true,q,false,true,0.0-2.0-0.63-0.570-3.570,0,0,0,81,false,stim,false,1,676.9999999997672,2,0,0,19791,task1,1614452,false,false,1927,image-keyboard-response,29
true,15,1,2,1,true,z,false,true,0.0-2.0-0.63-0.571-3.571,0,0,0,90,false,stim,false,0,617.0,2,0,1,19791,task1,1616578,false,false,1930,image-keyboard-response,30
true,15,1,2,1,true,z,false,false,0.0-2.0-0.63-0.572-3.572,0,0,0,90,false,stim,false,0,664.0,2,0,1,19791,task1,1618750,false,true,1933,image-keyboard-response,31
true,15,1,2,1,true,z,false,true,0.0-2.0-0.63-0.573-3.573,0,0,0,90,false,stim,false,0,518.0,2,0,1,19791,task1,1620777,false,false,1936,image-keyboard-response,32
true,15,2,2,2,true,d,false,false,0.0-2.0-0.63-0.574-3.574,0,0,0,68,false,stim,false,0,651.9999999997672,2,0,2,19791,task1,1622937,false,true,1939,image-keyboard-response,33
true,15,2,2,2,true,d,false,true,0.0-2.0-0.63-0.575-3.575,0,0,0,68,false,stim,false,0,493.0,2,0,2,19791,task1,1624938,false,false,1942,image-keyboard-response,34
true,15,0,2,0,true,q,false,true,0.0-2.0-0.64-0.576-3.576,0,0,0,81,false,stim,false,1,650.9999999997672,2,0,0,19791,task1,1627100,false,false,1945,image-keyboard-response,35
true,15,1,2,1,true,z,false,true,0.0-2.0-0.64-0.577-3.577,0,0,0,90,false,stim,false,0,695.0,2,0,1,19791,task1,1629303,false,false,1948,image-keyboard-response,36
true,15,2,2,2,true,d,false,true,0.0-2.0-0.64-0.578-3.578,0,0,0,68,false,stim,false,0,784.0,2,0,2,19791,task1,1631595,false,false,1951,image-keyboard-response,37
true,15,0,2,0,true,q,false,true,0.0-2.0-0.64-0.579-3.579,0,0,0,81,false,stim,false,1,731.0,2,0,0,19791,task1,1633834,false,false,1954,image-keyboard-response,38
true,15,2,2,2,true,d,false,true,0.0-2.0-0.64-0.580-3.580,0,0,0,68,false,stim,false,0,875.9999999997672,2,0,2,19791,task1,1636219,false,false,1957,image-keyboard-response,39
true,15,2,2,2,true,d,false,true,0.0-2.0-0.64-0.581-3.581,0,0,0,68,false,stim,false,0,586.0,2,0,2,19791,task1,1638314,false,false,1960,image-keyboard-response,40
true,15,0,2,0,true,q,false,true,0.0-2.0-0.64-0.582-3.582,0,0,0,81,false,stim,false,1,810.9999999997672,2,0,0,19791,task1,1640635,false,false,1963,image-keyboard-response,41
true,16,1,2,0,false,q,false,false,0.0-2.0-0.64-0.583-3.583,0,0,0,90,true,stim,true,1,878.0,2,0,1,19791,task1,1643022,false,false,1966,image-keyboard-response,1
true,16,1,2,0,false,q,false,false,0.0-2.0-0.64-0.584-3.584,0,0,0,90,false,stim,true,1,545.0,2,0,1,19791,task1,1645075,false,false,1969,image-keyboard-response,2
true,16,2,2,0,false,q,false,false,0.0-2.0-0.65-0.585-3.585,0,0,0,68,false,stim,true,2,509.0,2,0,2,19791,task1,1647093,false,false,1972,image-keyboard-response,3
true,16,2,2,0,false,q,false,false,0.0-2.0-0.65-0.586-3.586,0,0,0,68,false,stim,true,2,527.0000000002328,2,0,2,19791,task1,1649131,false,false,1975,image-keyboard-response,4
true,16,2,2,0,false,q,true,false,0.0-2.0-0.65-0.587-3.587,0,0,0,68,false,stim,false,1,541.0,2,0,1,19791,task1,1651182,false,false,1978,image-keyboard-response,5
true,16,0,2,1,false,z,false,false,0.0-2.0-0.65-0.588-3.588,0,0,0,81,false,stim,true,0,1006.9999999997672,2,0,0,19791,task1,1653697,false,false,1981,image-keyboard-response,6
true,16,0,2,0,true,q,false,true,0.0-2.0-0.65-0.589-3.589,0,0,0,81,false,stim,false,1,810.0000000002328,2,0,1,19791,task1,1656017,false,false,1984,image-keyboard-response,7
true,16,2,2,1,false,z,true,false,0.0-2.0-0.65-0.590-3.590,0,0,0,68,false,stim,false,0,1022.0000000002328,2,0,0,19791,task1,1658546,false,false,1987,image-keyboard-response,8
true,16,0,2,0,true,q,false,true,0.0-2.0-0.65-0.591-3.591,0,0,0,81,false,stim,false,1,839.9999999997672,2,0,1,19791,task1,1660895,false,false,1990,image-keyboard-response,9
true,16,0,2,0,true,q,false,true,0.0-2.0-0.65-0.592-3.592,0,0,0,81,false,stim,false,2,1080.0,2,0,2,19791,task1,1663483,false,false,1993,image-keyboard-response,10
true,16,1,2,1,true,z,false,true,0.0-2.0-0.65-0.593-3.593,0,0,0,90,false,stim,false,0,691.0000000002328,2,0,0,19791,task1,1665681,false,false,1996,image-keyboard-response,11
true,16,1,2,1,true,z,false,true,0.0-2.0-0.66-0.594-3.594,0,0,0,90,false,stim,false,0,568.0,2,0,0,19791,task1,1667758,false,false,1999,image-keyboard-response,12
true,16,0,2,0,true,q,false,true,0.0-2.0-0.66-0.595-3.595,0,0,0,81,false,stim,false,1,1157.0000000002328,2,0,1,19791,task1,1670432,false,false,2002,image-keyboard-response,13
true,16,0,2,0,true,q,false,true,0.0-2.0-0.66-0.596-3.596,0,0,0,81,false,stim,false,1,631.0,2,0,1,19791,task1,1672573,false,false,2005,image-keyboard-response,14
true,16,0,2,0,true,q,false,true,0.0-2.0-0.66-0.597-3.597,0,0,0,81,false,stim,false,2,959.0,2,0,2,19791,task1,1675040,false,false,2008,image-keyboard-response,15
true,16,0,2,0,true,q,false,false,0.0-2.0-0.66-0.598-3.598,0,0,0,81,false,stim,false,2,603.0000000002328,2,0,2,19791,task1,1677153,false,true,2011,image-keyboard-response,16
true,16,1,2,1,true,z,false,true,0.0-2.0-0.66-0.599-3.599,0,0,0,90,false,stim,false,0,633.0,2,0,0,19791,task1,1679293,false,false,2014,image-keyboard-response,17
true,16,0,2,0,true,q,false,false,0.0-2.0-0.66-0.600-3.600,0,0,0,81,false,stim,false,2,577.0,2,0,2,19791,task1,1681378,false,true,2017,image-keyboard-response,18
true,16,1,2,1,true,z,false,false,0.0-2.0-0.66-0.601-3.601,0,0,0,90,false,stim,false,0,849.0,2,0,0,19791,task1,1683735,false,true,2020,image-keyboard-response,19
true,16,0,2,0,true,q,false,true,0.0-2.0-0.66-0.602-3.602,0,0,0,81,false,stim,false,1,766.0,2,0,1,19791,task1,1686010,false,false,2023,image-keyboard-response,20
true,16,1,2,1,true,z,false,true,0.0-2.0-0.67-0.603-3.603,0,0,0,90,false,stim,false,0,741.0,2,0,0,19791,task1,1688262,false,false,2026,image-keyboard-response,21
true,16,0,2,0,true,q,false,false,0.0-2.0-0.67-0.604-3.604,0,0,0,81,false,stim,false,1,869.0,2,0,1,19791,task1,1690639,false,true,2029,image-keyboard-response,22
true,16,1,2,1,true,z,false,true,0.0-2.0-0.67-0.605-3.605,0,0,0,90,false,stim,false,0,568.0,2,0,0,19791,task1,1692716,false,false,2032,image-keyboard-response,23
true,16,0,2,0,true,q,false,true,0.0-2.0-0.67-0.606-3.606,0,0,0,81,false,stim,false,1,763.0,2,0,1,19791,task1,1694988,false,false,2035,image-keyboard-response,24
true,16,0,2,0,true,q,false,true,0.0-2.0-0.67-0.607-3.607,0,0,0,81,false,stim,false,2,1031.0,2,0,2,19791,task1,1697527,false,false,2038,image-keyboard-response,25
true,16,1,2,1,true,z,false,true,0.0-2.0-0.67-0.608-3.608,0,0,0,90,false,stim,false,0,685.0000000002328,2,0,0,19791,task1,1699720,false,false,2041,image-keyboard-response,26
true,16,0,2,0,true,q,false,true,0.0-2.0-0.67-0.609-3.609,0,0,0,81,false,stim,false,2,684.0000000002328,2,0,2,19791,task1,1701912,false,false,2044,image-keyboard-response,27
true,16,0,2,0,true,q,false,true,0.0-2.0-0.67-0.610-3.610,0,0,0,81,false,stim,false,2,727.0,2,0,2,19791,task1,1704148,false,false,2047,image-keyboard-response,28
true,16,0,2,0,true,q,false,true,0.0-2.0-0.67-0.611-3.611,0,0,0,81,false,stim,false,1,562.0,2,0,1,19791,task1,1706219,false,false,2050,image-keyboard-response,29
true,16,0,2,0,true,q,false,true,0.0-2.0-0.68-0.612-3.612,0,0,0,81,false,stim,false,2,926.9999999997672,2,0,2,19791,task1,1708657,false,false,2053,image-keyboard-response,30
true,16,0,2,0,true,q,false,true,0.0-2.0-0.68-0.613-3.613,0,0,0,81,false,stim,false,2,710.0000000002328,2,0,2,19791,task1,1710874,false,false,2056,image-keyboard-response,31
true,16,0,2,0,true,q,false,true,0.0-2.0-0.68-0.614-3.614,0,0,0,81,false,stim,false,1,956.9999999997672,2,0,1,19791,task1,1713341,false,false,2059,image-keyboard-response,32
