answered,blockNum,choice,condition,corResp,correct,correct_response,explo,fb,internal_node_id,isStable_1,isStable_2,isStable_3,key_press,newBlock,part,persev,persevResp,rt,sessNum,stableAS,stimulus,subject,task,time_elapsed,training,trap,trial_index,trial_type,trialsInBlock
true,1,1,0,1,true,z,false,true,0.0-2.0-0.0-0.0-3.0,0,0,0,90,true,stim,false,-1,1541.0,1,0,1,19791,task3,129711,false,false,124,image-keyboard-response,1
true,1,1,0,1,true,z,false,true,0.0-2.0-0.0-0.1-3.1,0,0,0,90,false,stim,false,-1,701.0,1,0,0,19791,task3,131919,false,false,127,image-keyboard-response,2
true,1,2,0,2,true,d,false,true,0.0-2.0-0.0-0.2-3.2,0,0,0,68,false,stim,false,-1,933.0000000000291,1,0,2,19791,task3,134360,false,false,130,image-keyboard-response,3
true,1,1,0,1,true,z,false,true,0.0-2.0-0.0-0.3-3.3,0,0,0,90,false,stim,false,-1,549.9999999999709,1,0,1,19791,task3,136416,false,false,133,image-keyboard-response,4
true,1,1,0,1,true,z,false,true,0.0-2.0-0.0-0.4-3.4,0,0,0,90,false,stim,false,-1,684.0,1,0,1,19791,task3,138607,false,false,136,image-keyboard-response,5
true,1,1,0,1,true,z,false,true,0.0-2.0-0.0-0.5-3.5,0,0,0,90,false,stim,false,-1,629.0,1,0,0,19791,task3,140743,false,false,139,image-keyboard-response,6
true,1,2,0,2,true,d,false,true,0.0-2.0-0.0-0.6-3.6,0,0,0,68,false,stim,false,-1,534.0000000000291,1,0,2,19791,task3,142782,false,false,142,image-keyboard-response,7
true,1,1,0,2,false,d,true,false,0.0-2.0-0.0-0.7-3.7,0,0,0,90,false,stim,false,-1,564.0,1,0,2,19791,task3,144852,false,false,145,image-keyboard-response,8
true,1,1,0,1,true,z,false,true,0.0-2.0-0.0-0.8-3.8,0,0,0,90,false,stim,false,-1,692.0,1,0,0,19791,task3,147049,false,false,148,image-keyboard-response,9
true,1,1,0,1,true,z,false,true,0.0-2.0-0.1-0.9-3.9,0,0,0,90,false,stim,false,-1,696.0,1,0,1,19791,task3,149252,false,false,151,image-keyboard-response,10
true,1,1,0,1,true,z,false,true,0.0-2.0-0.1-0.10-3.10,0,0,0,90,false,stim,false,-1,659.9999999999709,1,0,0,19791,task3,151419,false,false,154,image-keyboard-response,11
true,1,1,0,1,true,z,false,true,0.0-2.0-0.1-0.11-3.11,0,0,0,90,false,stim,false,-1,938.0,1,0,1,19791,task3,153864,false,false,157,image-keyboard-response,12
true,1,2,0,2,true,d,false,true,0.0-2.0-0.1-0.12-3.12,0,0,0,68,false,stim,false,-1,773.0,1,0,2,19791,task3,156144,false,false,160,image-keyboard-response,13
true,1,2,0,2,true,d,false,true,0.0-2.0-0.1-0.13-3.13,0,0,0,68,false,stim,false,-1,709.0,1,0,2,19791,task3,158359,false,false,163,image-keyboard-response,14
true,1,2,0,2,true,d,false,true,0.0-2.0-0.1-0.14-3.14,0,0,0,68,false,stim,false,-1,839.9999999999709,1,0,2,19791,task3,160706,false,false,166,image-keyboard-response,15
true,1,1,0,1,true,z,false,true,0.0-2.0-0.1-0.15-3.15,0,0,0,90,false,stim,false,-1,1481.0,1,0,0,19791,task3,163694,false,false,169,image-keyboard-response,16
true,1,1,0,1,true,z,false,true,0.0-2.0-0.1-0.16-3.16,0,0,0,90,false,stim,false,-1,794.0,1,0,1,19791,task3,165993,false,false,172,image-keyboard-response,17
true,1,1,0,1,true,z,false,true,0.0-2.0-0.1-0.17-3.17,0,0,0,90,false,stim,false,-1,744.0,1,0,0,19791,task3,168243,false,false,175,image-keyboard-response,18
true,1,2,0,2,true,d,false,false,0.0-2.0-0.2-0.18-3.18,0,0,0,68,false,stim,false,-1,711.0,1,0,2,19791,task3,170461,false,true,178,image-keyboard-response,19
true,1,1,0,1,true,z,false,true,0.0-2.0-0.2-0.19-3.19,0,0,0,90,false,stim,false,-1,731.0,1,0,1,19791,task3,172697,false,false,181,image-keyboard-response,20
true,1,1,0,1,true,z,false,true,0.0-2.0-0.2-0.20-3.20,0,0,0,90,false,stim,false,-1,611.0,1,0,1,19791,task3,174814,false,false,184,image-keyboard-response,21
true,1,1,0,1,true,z,false,true,0.0-2.0-0.2-0.21-3.21,0,0,0,90,false,stim,false,-1,685.0,1,0,1,19791,task3,177005,false,false,187,image-keyboard-response,22
true,1,1,0,1,true,z,false,true,0.0-2.0-0.2-0.22-3.22,0,0,0,90,false,stim,false,-1,829.9999999999709,1,0,0,19791,task3,179340,false,false,190,image-keyboard-response,23
true,1,2,0,2,true,d,false,true,0.0-2.0-0.2-0.23-3.23,0,0,0,68,false,stim,false,-1,732.0,1,1,2,19791,task3,181577,false,false,193,image-keyboard-response,24
true,1,1,0,1,true,z,false,true,0.0-2.0-0.2-0.24-3.24,0,0,0,90,false,stim,false,-1,767.0,1,0,0,19791,task3,183850,false,false,196,image-keyboard-response,25
true,1,1,0,1,true,z,false,true,0.0-2.0-0.2-0.25-3.25,0,0,0,90,false,stim,false,-1,1145.0,1,0,0,19791,task3,186501,false,false,199,image-keyboard-response,26
true,1,2,0,2,true,d,false,true,0.0-2.0-0.2-0.26-3.26,0,0,0,68,false,stim,false,-1,964.0,1,1,2,19791,task3,188974,false,false,202,image-keyboard-response,27
true,1,2,0,2,true,d,false,false,0.0-2.0-0.3-0.27-3.27,0,0,0,68,false,stim,false,-1,826.9999999999709,1,1,2,19791,task3,191307,false,true,205,image-keyboard-response,28
true,2,2,2,2,true,d,false,true,0.0-2.0-0.3-0.28-3.28,0,1,1,68,true,stim,false,2,1439.0,1,1,2,19791,task3,194252,false,false,208,image-keyboard-response,1
true,2,1,2,1,true,z,false,true,0.0-2.0-0.3-0.29-3.29,0,1,1,90,false,stim,false,1,673.0,1,1,1,19791,task3,196431,false,false,211,image-keyboard-response,2
true,2,2,2,2,true,d,false,true,0.0-2.0-0.3-0.30-3.30,0,1,1,68,false,stim,false,2,824.0,1,1,2,19791,task3,198761,false,false,214,image-keyboard-response,3
true,2,2,2,1,false,z,true,false,0.0-2.0-0.3-0.31-3.31,0,1,1,68,false,stim,false,1,1046.0,1,1,1,19791,task3,201314,false,false,217,image-keyboard-response,4
true,2,1,2,1,true,z,false,true,0.0-2.0-0.3-0.32-3.32,0,1,1,90,false,stim,false,1,762.0,1,1,1,19791,task3,203581,false,false,220,image-keyboard-response,5
true,2,1,2,2,false,d,false,false,0.0-2.0-0.3-0.33-3.33,0,1,1,90,false,stim,true,1,682.0,1,0,0,19791,task3,205769,false,false,223,image-keyboard-response,6
true,2,1,2,2,false,d,false,false,0.0-2.0-0.3-0.34-3.34,0,1,1,90,false,stim,true,1,656.0,1,0,0,19791,task3,207930,false,false,226,image-keyboard-response,7
true,2,2,2,2,true,d,false,true,0.0-2.0-0.3-0.35-3.35,0,1,1,68,false,stim,false,1,566.0,1,0,0,19791,task3,210002,false,false,229,image-keyboard-response,8
true,2,2,2,2,true,d,false,true,0.0-2.0-0.4-0.36-3.36,0,1,1,68,false,stim,false,1,500.0,1,1,0,19791,task3,212007,false,false,232,image-keyboard-response,9
true,2,1,2,1,true,z,false,true,0.0-2.0-0.4-0.37-3.37,0,1,1,90,false,stim,false,1,855.0000000000291,1,1,1,19791,task3,214368,false,false,235,image-keyboard-response,10
true,2,2,2,2,true,d,false,false,0.0-2.0-0.4-0.38-3.38,0,1,1,68,false,stim,false,2,647.9999999999709,1,0,2,19791,task3,216522,false,true,238,image-keyboard-response,11
true,2,2,2,2,true,d,false,true,0.0-2.0-0.4-0.39-3.39,0,1,1,68,false,stim,false,2,611.0,1,0,2,19791,task3,218639,false,false,241,image-keyboard-response,12
true,2,1,2,1,true,z,false,true,0.0-2.0-0.4-0.40-3.40,0,1,1,90,false,stim,false,1,943.0,1,1,1,19791,task3,221088,false,false,244,image-keyboard-response,13
true,3,2,2,2,true,d,false,true,0.0-2.0-0.4-0.41-3.41,1,1,0,68,true,stim,false,2,901.0,1,1,0,19791,task3,223495,false,false,247,image-keyboard-response,1
true,3,2,2,2,true,d,false,true,0.0-2.0-0.4-0.42-3.42,1,1,0,68,false,stim,false,2,938.0000000000291,1,1,0,19791,task3,225940,false,false,250,image-keyboard-response,2
true,3,2,2,1,false,z,false,false,0.0-2.0-0.4-0.43-3.43,1,1,0,68,false,stim,true,2,793.0,1,0,2,19791,task3,228240,false,false,253,image-keyboard-response,3
true,3,1,2,1,true,z,false,true,0.0-2.0-0.4-0.44-3.44,1,1,0,90,false,stim,false,1,599.0,1,1,1,19791,task3,230345,false,false,256,image-keyboard-response,4
true,3,1,2,1,true,z,false,true,0.0-2.0-0.5-0.45-3.45,1,1,0,90,false,stim,false,1,756.0,1,1,1,19791,task3,232607,false,false,259,image-keyboard-response,5
true,3,2,2,2,true,d,false,true,0.0-2.0-0.5-0.46-3.46,1,1,0,68,false,stim,false,2,777.0,1,1,0,19791,task3,234890,false,false,262,image-keyboard-response,6
true,3,2,2,1,false,z,false,false,0.0-2.0-0.5-0.47-3.47,1,1,0,68,false,stim,true,2,708.0,1,0,2,19791,task3,237103,false,false,265,image-keyboard-response,7
true,3,1,2,1,true,z,false,false,0.0-2.0-0.5-0.48-3.48,1,1,0,90,false,stim,false,1,769.0,1,1,1,19791,task3,239378,false,true,268,image-keyboard-response,8
true,3,0,2,1,false,z,true,false,0.0-2.0-0.5-0.49-3.49,1,1,0,81,false,stim,false,2,728.0,1,0,2,19791,task3,241612,false,false,271,image-keyboard-response,9
true,3,2,2,2,true,d,false,true,0.0-2.0-0.5-0.50-3.50,1,1,0,68,false,stim,false,2,751.0000000000291,1,1,0,19791,task3,243869,false,false,274,image-keyboard-response,10
true,3,1,2,1,true,z,false,true,0.0-2.0-0.5-0.51-3.51,1,1,0,90,false,stim,false,2,607.0,1,0,2,19791,task3,245983,false,false,277,image-keyboard-response,11
true,3,2,2,1,false,z,true,false,0.0-2.0-0.5-0.52-3.52,1,1,0,68,false,stim,false,1,761.0000000000291,1,1,1,19791,task3,248250,false,false,280,image-keyboard-response,12
true,3,2,2,2,true,d,false,true,0.0-2.0-0.5-0.53-3.53,1,1,0,68,false,stim,false,2,837.9999999999709,1,1,0,19791,task3,250594,false,false,283,image-keyboard-response,13
true,3,2,2,2,true,d,false,true,0.0-2.0-0.6-0.54-3.54,1,1,0,68,false,stim,false,2,666.0,1,1,0,19791,task3,252766,false,false,286,image-keyboard-response,14
true,3,1,2,1,true,z,false,true,0.0-2.0-0.6-0.55-3.55,1,1,0,90,false,stim,false,1,1034.0,1,1,1,19791,task3,255305,false,false,289,image-keyboard-response,15
true,3,2,2,2,true,d,false,true,0.0-2.0-0.6-0.56-3.56,1,1,0,68,false,stim,false,2,669.0,1,1,0,19791,task3,257481,false,false,292,image-keyboard-response,16
true,3,1,2,1,true,z,false,true,0.0-2.0-0.6-0.57-3.57,1,1,0,90,false,stim,false,2,578.0,1,0,2,19791,task3,259566,false,false,295,image-keyboard-response,17
true,3,2,2,2,true,d,false,true,0.0-2.0-0.6-0.58-3.58,1,1,0,68,false,stim,false,2,941.0,1,1,0,19791,task3,262015,false,false,298,image-keyboard-response,18
true,3,1,2,1,true,z,false,true,0.0-2.0-0.6-0.59-3.59,1,1,0,90,false,stim,false,2,663.0,1,0,2,19791,task3,264185,false,false,301,image-keyboard-response,19
true,3,1,2,1,true,z,false,true,0.0-2.0-0.6-0.60-3.60,1,1,0,90,false,stim,false,1,796.0,1,1,1,19791,task3,266487,false,false,304,image-keyboard-response,20
true,3,1,2,1,true,z,false,true,0.0-2.0-0.6-0.61-3.61,1,1,0,90,false,stim,false,1,526.0,1,1,1,19791,task3,268520,false,false,307,image-keyboard-response,21
true,3,1,2,1,true,z,false,true,0.0-2.0-0.6-0.62-3.62,1,1,0,90,false,stim,false,2,629.0,1,0,2,19791,task3,270656,false,false,310,image-keyboard-response,22
true,3,1,2,1,true,z,false,true,0.0-2.0-0.7-0.63-3.63,1,1,0,90,false,stim,false,1,557.0,1,0,1,19791,task3,272719,false,false,313,image-keyboard-response,23
true,3,2,2,2,true,d,false,true,0.0-2.0-0.7-0.64-3.64,1,1,0,68,false,stim,false,2,727.9999999999418,1,1,0,19791,task3,274953,false,false,316,image-keyboard-response,24
true,3,2,2,2,true,d,false,true,0.0-2.0-0.7-0.65-3.65,1,1,0,68,false,stim,false,2,714.0,1,1,0,19791,task3,277174,false,false,319,image-keyboard-response,25
true,3,2,2,2,true,d,false,true,0.0-2.0-0.7-0.66-3.66,1,1,0,68,false,stim,false,2,782.0,1,1,0,19791,task3,279462,false,false,322,image-keyboard-response,26
true,3,1,2,1,true,z,false,true,0.0-2.0-0.7-0.67-3.67,1,1,0,90,false,stim,false,2,880.0,1,0,2,19791,task3,281849,false,false,325,image-keyboard-response,27
true,4,1,1,0,false,q,false,true,0.0-2.0-0.7-0.68-3.68,1,0,0,90,true,stim,true,1,1611.0,1,0,1,19791,task3,284967,false,true,328,image-keyboard-response,1
true,4,1,1,2,false,d,false,false,0.0-2.0-0.7-0.69-3.69,1,0,0,90,false,stim,true,1,1651.0,1,0,2,19791,task3,288124,false,false,331,image-keyboard-response,2
true,4,1,1,0,false,q,false,false,0.0-2.0-0.7-0.70-3.70,1,0,0,90,false,stim,true,1,1516.9999999999418,1,0,1,19791,task3,291147,false,false,334,image-keyboard-response,3
true,4,1,1,2,false,d,false,false,0.0-2.0-0.7-0.71-3.71,1,0,0,90,false,stim,true,1,817.0,1,0,2,19791,task3,293470,false,false,337,image-keyboard-response,4
true,4,1,1,0,false,q,false,false,0.0-2.0-0.8-0.72-3.72,1,0,0,90,false,stim,true,1,1160.9999999999418,1,0,1,19791,task3,296137,false,false,340,image-keyboard-response,5
true,4,0,1,2,false,d,true,false,0.0-2.0-0.8-0.73-3.73,1,0,0,81,false,stim,false,1,834.0,1,0,2,19791,task3,298478,false,false,343,image-keyboard-response,6
true,4,2,1,2,true,d,false,true,0.0-2.0-0.8-0.74-3.74,1,0,0,68,false,stim,false,2,783.0000000000582,1,1,0,19791,task3,300767,false,false,346,image-keyboard-response,7
true,4,2,1,2,true,d,false,true,0.0-2.0-0.8-0.75-3.75,1,0,0,68,false,stim,false,2,631.0000000000582,1,1,0,19791,task3,302903,false,false,349,image-keyboard-response,8
true,4,2,1,2,true,d,false,true,0.0-2.0-0.8-0.76-3.76,1,0,0,68,false,stim,false,2,711.0,1,1,0,19791,task3,305120,false,false,352,image-keyboard-response,9
true,4,2,1,0,false,q,true,false,0.0-2.0-0.8-0.77-3.77,1,0,0,68,false,stim,false,1,596.0,1,0,1,19791,task3,307223,false,false,355,image-keyboard-response,10
true,4,2,1,2,true,d,false,true,0.0-2.0-0.8-0.78-3.78,1,0,0,68,false,stim,false,1,706.0,1,0,2,19791,task3,309435,false,false,358,image-keyboard-response,11
true,4,2,1,2,true,d,false,true,0.0-2.0-0.8-0.79-3.79,1,0,0,68,false,stim,false,1,689.0000000000582,1,0,2,19791,task3,311630,false,false,361,image-keyboard-response,12
true,4,2,1,0,false,q,true,false,0.0-2.0-0.8-0.80-3.80,1,0,0,68,false,stim,false,1,715.9999999999418,1,0,1,19791,task3,313853,false,false,364,image-keyboard-response,13
true,4,1,1,0,false,q,false,false,0.0-2.0-0.9-0.81-3.81,1,0,0,90,false,stim,true,1,681.0000000000582,1,0,1,19791,task3,316041,false,false,367,image-keyboard-response,14
true,4,2,1,2,true,d,false,true,0.0-2.0-0.9-0.82-3.82,1,0,0,68,false,stim,false,2,812.0,1,1,0,19791,task3,318359,false,false,370,image-keyboard-response,15
true,4,0,1,0,true,q,false,true,0.0-2.0-0.9-0.83-3.83,1,0,0,81,false,stim,false,1,700.0000000000582,1,0,1,19791,task3,320565,false,false,373,image-keyboard-response,16
true,4,2,1,2,true,d,false,true,0.0-2.0-0.9-0.84-3.84,1,0,0,68,false,stim,false,2,997.0,1,1,0,19791,task3,323068,false,false,376,image-keyboard-response,17
true,4,0,1,0,true,q,false,true,0.0-2.0-0.9-0.85-3.85,1,0,0,81,false,stim,false,1,1055.0,1,0,1,19791,task3,325629,false,false,379,image-keyboard-response,18
true,4,2,1,2,true,d,false,true,0.0-2.0-0.9-0.86-3.86,1,0,0,68,false,stim,false,1,860.0,1,0,2,19791,task3,327995,false,false,382,image-keyboard-response,19
true,4,2,1,2,true,d,false,false,0.0-2.0-0.9-0.87-3.87,1,0,0,68,false,stim,false,2,789.0,1,1,0,19791,task3,330291,false,true,385,image-keyboard-response,20
true,4,2,1,2,true,d,false,true,0.0-2.0-0.9-0.88-3.88,1,0,0,68,false,stim,false,1,802.0,1,0,2,19791,task3,332599,false,false,388,image-keyboard-response,21
true,4,2,1,2,true,d,false,true,0.0-2.0-0.9-0.89-3.89,1,0,0,68,false,stim,false,1,1382.0,1,0,2,19791,task3,335488,false,false,391,image-keyboard-response,22
true,4,2,1,2,true,d,false,true,0.0-2.0-0.10-0.90-3.90,1,0,0,68,false,stim,false,1,835.9999999999418,1,0,2,19791,task3,337830,false,false,394,image-keyboard-response,23
true,4,2,1,2,true,d,false,true,0.0-2.0-0.10-0.91-3.91,1,0,0,68,false,stim,false,2,1201.0,1,1,0,19791,task3,340537,false,false,397,image-keyboard-response,24
true,4,2,1,2,true,d,false,true,0.0-2.0-0.10-0.92-3.92,1,0,0,68,false,stim,false,1,816.0,1,0,2,19791,task3,342860,false,false,400,image-keyboard-response,25
true,4,0,1,0,true,q,false,true,0.0-2.0-0.10-0.93-3.93,1,0,0,81,false,stim,false,1,997.0,1,0,1,19791,task3,345366,false,false,403,image-keyboard-response,26
true,4,2,1,2,true,d,false,true,0.0-2.0-0.10-0.94-3.94,1,0,0,68,false,stim,false,1,837.0,1,1,2,19791,task3,347710,false,false,406,image-keyboard-response,27
true,4,0,1,0,true,q,false,true,0.0-2.0-0.10-0.95-3.95,1,0,0,81,false,stim,false,1,726.9999999999418,1,0,1,19791,task3,349942,false,false,409,image-keyboard-response,28
true,4,0,1,0,true,q,false,true,0.0-2.0-0.10-0.96-3.96,1,0,0,81,false,stim,false,1,618.0,1,0,1,19791,task3,352067,false,false,412,image-keyboard-response,29
true,4,2,1,2,true,d,false,false,0.0-2.0-0.10-0.97-3.97,1,0,0,68,false,stim,false,2,773.0,1,0,0,19791,task3,354346,false,true,415,image-keyboard-response,30
true,5,0,1,0,true,q,false,false,0.0-2.0-0.10-0.98-3.98,0,0,1,81,true,stim,false,2,658.9999999999418,1,0,0,19791,task3,356511,false,true,418,image-keyboard-response,1
true,5,0,1,2,false,d,false,false,0.0-2.0-0.11-0.99-3.99,0,0,1,81,false,stim,true,0,892.9999999999418,1,0,1,19791,task3,358911,false,false,421,image-keyboard-response,2
true,5,1,1,0,false,q,true,true,0.0-2.0-0.11-0.100-3.100,0,0,1,90,false,stim,false,2,810.9999999999418,1,0,0,19791,task3,361228,false,true,424,image-keyboard-response,3
true,5,0,1,2,false,d,false,false,0.0-2.0-0.11-0.101-3.101,0,0,1,81,false,stim,true,0,804.0,1,0,1,19791,task3,363538,false,false,427,image-keyboard-response,4
true,5,2,1,2,true,d,false,true,0.0-2.0-0.11-0.102-3.102,0,0,1,68,false,stim,false,2,878.0,1,1,2,19791,task3,365922,false,false,430,image-keyboard-response,5
true,5,2,1,2,true,d,false,true,0.0-2.0-0.11-0.103-3.103,0,0,1,68,false,stim,false,2,667.0,1,1,2,19791,task3,368095,false,false,433,image-keyboard-response,6
true,5,2,1,2,true,d,false,false,0.0-2.0-0.11-0.104-3.104,0,0,1,68,false,stim,false,0,788.0,1,0,1,19791,task3,370390,false,true,436,image-keyboard-response,7
true,5,2,1,2,true,d,false,true,0.0-2.0-0.11-0.105-3.105,0,0,1,68,false,stim,false,2,860.0,1,1,2,19791,task3,372756,false,false,439,image-keyboard-response,8
true,5,1,1,0,false,q,true,false,0.0-2.0-0.11-0.106-3.106,0,0,1,90,false,stim,false,2,688.0,1,0,0,19791,task3,374951,false,false,442,image-keyboard-response,9
true,5,1,1,0,false,q,true,false,0.0-2.0-0.11-0.107-3.107,0,0,1,90,false,stim,false,2,497.0,1,0,0,19791,task3,376952,false,false,445,image-keyboard-response,10
true,5,0,1,2,false,d,false,false,0.0-2.0-0.12-0.108-3.108,0,0,1,81,false,stim,true,0,720.0000000000582,1,0,1,19791,task3,379180,false,false,448,image-keyboard-response,11
true,5,0,1,2,false,d,false,false,0.0-2.0-0.12-0.109-3.109,0,0,1,81,false,stim,true,0,509.0,1,0,1,19791,task3,381194,false,false,451,image-keyboard-response,12
true,5,2,1,2,true,d,false,true,0.0-2.0-0.12-0.110-3.110,0,0,1,68,false,stim,false,2,744.0,1,1,2,19791,task3,383445,false,false,454,image-keyboard-response,13
true,5,0,1,0,true,q,false,true,0.0-2.0-0.12-0.111-3.111,0,0,1,81,false,stim,false,2,1167.0,1,0,0,19791,task3,386119,false,false,457,image-keyboard-response,14
true,5,2,1,2,true,d,false,true,0.0-2.0-0.12-0.112-3.112,0,0,1,68,false,stim,false,2,744.0,1,1,2,19791,task3,388369,false,false,460,image-keyboard-response,15
true,5,0,1,0,true,q,false,true,0.0-2.0-0.12-0.113-3.113,0,0,1,81,false,stim,false,2,654.0,1,0,0,19791,task3,390529,false,false,463,image-keyboard-response,16
true,5,1,1,2,false,d,true,false,0.0-2.0-0.12-0.114-3.114,0,0,1,90,false,stim,false,0,691.0,1,0,1,19791,task3,392725,false,false,466,image-keyboard-response,17
true,5,0,1,0,true,q,false,true,0.0-2.0-0.12-0.115-3.115,0,0,1,81,false,stim,false,2,734.0,1,0,0,19791,task3,394965,false,false,469,image-keyboard-response,18
true,5,2,1,2,true,d,false,true,0.0-2.0-0.12-0.116-3.116,0,0,1,68,false,stim,false,2,534.0,1,1,2,19791,task3,397006,false,false,472,image-keyboard-response,19
true,5,0,1,0,true,q,false,true,0.0-2.0-0.13-0.117-3.117,0,0,1,81,false,stim,false,2,642.0,1,0,0,19791,task3,399154,false,false,475,image-keyboard-response,20
true,5,2,1,2,true,d,false,true,0.0-2.0-0.13-0.118-3.118,0,0,1,68,false,stim,false,2,512.0,1,0,2,19791,task3,401172,false,false,478,image-keyboard-response,21
true,5,2,1,2,true,d,false,true,0.0-2.0-0.13-0.119-3.119,0,0,1,68,false,stim,false,0,922.0,1,1,1,19791,task3,403602,false,false,481,image-keyboard-response,22
true,5,0,1,0,true,q,false,true,0.0-2.0-0.13-0.120-3.120,0,0,1,81,false,stim,false,2,795.0,1,0,0,19791,task3,405903,false,false,484,image-keyboard-response,23
true,5,2,1,2,true,d,false,true,0.0-2.0-0.13-0.121-3.121,0,0,1,68,false,stim,false,0,729.0,1,1,1,19791,task3,408138,false,false,487,image-keyboard-response,24
true,5,0,1,0,true,q,false,false,0.0-2.0-0.13-0.122-3.122,0,0,1,81,false,stim,false,2,668.9999999999418,1,0,0,19791,task3,410313,false,true,490,image-keyboard-response,25
true,6,2,1,2,true,d,false,true,0.0-2.0-0.13-0.123-3.123,0,1,0,68,true,stim,false,2,632.0,1,1,1,19791,task3,412452,false,false,493,image-keyboard-response,1
true,6,2,1,0,false,q,false,false,0.0-2.0-0.13-0.124-3.124,0,1,0,68,false,stim,true,2,613.0,1,0,2,19791,task3,414572,false,false,496,image-keyboard-response,2
true,6,2,1,0,false,q,false,false,0.0-2.0-0.13-0.125-3.125,0,1,0,68,false,stim,true,2,834.0,1,0,2,19791,task3,416912,false,false,499,image-keyboard-response,3
true,6,2,1,2,true,d,false,true,0.0-2.0-0.14-0.126-3.126,0,1,0,68,false,stim,false,2,1722.0000000000582,1,1,1,19791,task3,420145,false,false,502,image-keyboard-response,4
true,6,0,1,2,false,d,false,false,0.0-2.0-0.14-0.127-3.127,0,1,0,81,false,stim,true,0,675.0,1,0,0,19791,task3,422326,false,false,505,image-keyboard-response,5
true,6,1,1,2,false,d,true,false,0.0-2.0-0.14-0.128-3.128,0,1,0,90,false,stim,false,2,1308.0000000000582,1,1,1,19791,task3,425140,false,false,508,image-keyboard-response,6
true,6,2,1,0,false,q,false,false,0.0-2.0-0.14-0.129-3.129,0,1,0,68,false,stim,true,2,758.0,1,0,2,19791,task3,427404,false,false,511,image-keyboard-response,7
true,6,0,1,2,false,d,true,false,0.0-2.0-0.14-0.130-3.130,0,1,0,81,false,stim,false,2,737.0,1,1,1,19791,task3,429648,false,false,514,image-keyboard-response,8
true,6,1,1,2,false,d,true,false,0.0-2.0-0.14-0.131-3.131,0,1,0,90,false,stim,false,0,1160.0,1,0,0,19791,task3,432314,false,false,517,image-keyboard-response,9
true,6,2,1,0,false,q,false,false,0.0-2.0-0.14-0.132-3.132,0,1,0,68,false,stim,true,2,888.0,1,0,2,19791,task3,434708,false,false,520,image-keyboard-response,10
true,6,1,1,0,false,q,true,false,0.0-2.0-0.14-0.133-3.133,0,1,0,90,false,stim,false,2,1252.0,1,0,2,19791,task3,437465,false,false,523,image-keyboard-response,11
true,6,2,1,2,true,d,false,true,0.0-2.0-0.14-0.134-3.134,0,1,0,68,false,stim,false,0,894.0,1,0,0,19791,task3,439866,false,false,526,image-keyboard-response,12
true,6,2,1,2,true,d,false,true,0.0-2.0-0.15-0.135-3.135,0,1,0,68,false,stim,false,2,868.0,1,1,1,19791,task3,442241,false,false,529,image-keyboard-response,13
true,6,2,1,2,true,d,false,true,0.0-2.0-0.15-0.136-3.136,0,1,0,68,false,stim,false,0,764.0,1,0,0,19791,task3,444512,false,false,532,image-keyboard-response,14
true,6,2,1,2,true,d,false,true,0.0-2.0-0.15-0.137-3.137,0,1,0,68,false,stim,false,0,839.0,1,0,0,19791,task3,446858,false,false,535,image-keyboard-response,15
true,6,0,1,0,true,q,false,true,0.0-2.0-0.15-0.138-3.138,0,1,0,81,false,stim,false,2,901.0000000000582,1,0,2,19791,task3,449266,false,false,538,image-keyboard-response,16
true,6,0,1,0,true,q,false,true,0.0-2.0-0.15-0.139-3.139,0,1,0,81,false,stim,false,2,963.0,1,0,2,19791,task3,451734,false,false,541,image-keyboard-response,17
true,6,2,1,2,true,d,false,true,0.0-2.0-0.15-0.140-3.140,0,1,0,68,false,stim,false,0,648.0,1,0,0,19791,task3,453889,false,false,544,image-keyboard-response,18
true,6,2,1,2,true,d,false,false,0.0-2.0-0.15-0.141-3.141,0,1,0,68,false,stim,false,2,507.0,1,1,1,19791,task3,455902,false,true,547,image-keyboard-response,19
true,6,0,1,0,true,q,false,true,0.0-2.0-0.15-0.142-3.142,0,1,0,81,false,stim,false,2,608.9999999999418,1,0,2,19791,task3,458017,false,false,550,image-keyboard-response,20
true,6,2,1,2,true,d,false,false,0.0-2.0-0.15-0.143-3.143,0,1,0,68,false,stim,false,2,728.0,1,1,1,19791,task3,460252,false,true,553,image-keyboard-response,21
true,6,0,1,0,true,q,false,false,0.0-2.0-0.16-0.144-3.144,0,1,0,81,false,stim,false,2,729.9999999999418,1,1,2,19791,task3,462489,false,true,556,image-keyboard-response,22
true,6,2,1,2,true,d,false,false,0.0-2.0-0.16-0.145-3.145,0,1,0,68,false,stim,false,0,812.0000000000582,1,0,0,19791,task3,464807,false,true,559,image-keyboard-response,23
true,6,0,1,0,true,q,false,true,0.0-2.0-0.16-0.146-3.146,0,1,0,81,false,stim,false,2,1148.0,1,1,2,19791,task3,467461,false,false,562,image-keyboard-response,24
true,6,0,1,2,false,d,true,false,0.0-2.0-0.16-0.147-3.147,0,1,0,81,false,stim,false,2,588.0,1,1,1,19791,task3,469555,false,false,565,image-keyboard-response,25
true,7,0,2,0,true,q,false,true,0.0-2.0-0.16-0.148-3.148,0,1,1,81,true,stim,false,0,827.0,1,1,2,19791,task3,471888,false,false,568,image-keyboard-response,1
true,7,1,2,2,false,d,true,true,0.0-2.0-0.16-0.149-3.149,0,1,1,90,false,stim,false,2,937.0000000000582,1,1,1,19791,task3,474332,false,true,571,image-keyboard-response,2
true,7,2,2,0,false,q,false,false,0.0-2.0-0.16-0.150-3.150,0,1,1,68,false,stim,true,2,524.0,1,0,0,19791,task3,476362,false,false,574,image-keyboard-response,3
true,7,1,2,0,false,q,true,false,0.0-2.0-0.16-0.151-3.151,0,1,1,90,false,stim,false,2,670.0,1,0,0,19791,task3,478539,false,false,577,image-keyboard-response,4
true,7,1,2,2,false,d,true,false,0.0-2.0-0.16-0.152-3.152,0,1,1,90,false,stim,false,2,800.0,1,1,1,19791,task3,480845,false,false,580,image-keyboard-response,5
true,7,1,2,2,false,d,true,false,0.0-2.0-0.17-0.153-3.153,0,1,1,90,false,stim,false,2,586.9999999999418,1,1,1,19791,task3,482938,false,false,583,image-keyboard-response,6
true,7,0,2,2,false,d,true,false,0.0-2.0-0.17-0.154-3.154,0,1,1,81,false,stim,false,2,686.0000000000582,1,1,1,19791,task3,485130,false,false,586,image-keyboard-response,7
true,7,2,2,0,false,q,true,false,0.0-2.0-0.17-0.155-3.155,0,1,1,68,false,stim,false,0,1179.0000000000582,1,0,2,19791,task3,487815,false,false,589,image-keyboard-response,8
true,7,2,2,0,false,q,false,false,0.0-2.0-0.17-0.156-3.156,0,1,1,68,false,stim,true,2,1162.0,1,1,0,19791,task3,490483,false,false,592,image-keyboard-response,9
true,7,0,2,0,true,q,false,true,0.0-2.0-0.17-0.157-3.157,0,1,1,81,false,stim,false,0,718.0000000000582,1,0,2,19791,task3,492707,false,false,595,image-keyboard-response,10
true,7,0,2,2,false,d,true,false,0.0-2.0-0.17-0.158-3.158,0,1,1,81,false,stim,false,2,602.0000000000582,1,0,1,19791,task3,494815,false,false,598,image-keyboard-response,11
true,7,0,2,0,true,q,false,true,0.0-2.0-0.17-0.159-3.159,0,1,1,81,false,stim,false,2,822.0000000000582,1,1,0,19791,task3,497147,false,false,601,image-keyboard-response,12
true,8,0,1,0,true,q,false,true,0.0-2.0-0.17-0.160-3.160,1,0,0,81,true,stim,false,0,569.0,1,1,0,19791,task3,499222,false,false,604,image-keyboard-response,1
true,8,0,1,2,false,d,false,false,0.0-2.0-0.17-0.161-3.161,1,0,0,81,false,stim,true,0,666.0,1,0,2,19791,task3,501394,false,false,607,image-keyboard-response,2
true,8,0,1,2,false,d,false,false,0.0-2.0-0.18-0.162-3.162,1,0,0,81,false,stim,true,0,557.0000000000582,1,0,2,19791,task3,503457,false,false,610,image-keyboard-response,3
true,8,0,1,0,true,q,false,true,0.0-2.0-0.18-0.163-3.163,1,0,0,81,false,stim,false,0,872.0,1,1,0,19791,task3,505836,false,false,613,image-keyboard-response,4
true,8,2,1,0,false,q,false,false,0.0-2.0-0.18-0.164-3.164,1,0,0,68,false,stim,true,2,910.9999999999418,1,0,1,19791,task3,508253,false,false,616,image-keyboard-response,5
true,8,0,1,0,true,q,false,true,0.0-2.0-0.18-0.165-3.165,1,0,0,81,false,stim,false,0,737.9999999999418,1,1,0,19791,task3,510497,false,false,619,image-keyboard-response,6
true,8,0,1,0,true,q,false,true,0.0-2.0-0.18-0.166-3.166,1,0,0,81,false,stim,false,2,923.0,1,0,1,19791,task3,512927,false,false,622,image-keyboard-response,7
true,8,0,1,0,true,q,false,true,0.0-2.0-0.18-0.167-3.167,1,0,0,81,false,stim,false,0,640.9999999999418,1,1,0,19791,task3,515074,false,false,625,image-keyboard-response,8
true,8,0,1,0,true,q,false,false,0.0-2.0-0.18-0.168-3.168,1,0,0,81,false,stim,false,2,490.0,1,0,1,19791,task3,517070,false,true,628,image-keyboard-response,9
true,8,1,1,2,false,d,true,false,0.0-2.0-0.18-0.169-3.169,1,0,0,90,false,stim,false,0,675.9999999999418,1,0,2,19791,task3,519253,false,false,631,image-keyboard-response,10
true,8,1,1,2,false,d,true,false,0.0-2.0-0.18-0.170-3.170,1,0,0,90,false,stim,false,0,848.0,1,0,2,19791,task3,521607,false,false,634,image-keyboard-response,11
true,8,0,1,0,true,q,false,true,0.0-2.0-0.19-0.171-3.171,1,0,0,81,false,stim,false,2,1260.0,1,0,1,19791,task3,524373,false,false,637,image-keyboard-response,12
true,8,2,1,2,true,d,false,true,0.0-2.0-0.19-0.172-3.172,1,0,0,68,false,stim,false,0,831.0,1,0,2,19791,task3,526710,false,false,640,image-keyboard-response,13
true,8,0,1,0,true,q,false,true,0.0-2.0-0.19-0.173-3.173,1,0,0,81,false,stim,false,0,608.0,1,1,0,19791,task3,528822,false,false,643,image-keyboard-response,14
true,8,0,1,0,true,q,false,true,0.0-2.0-0.19-0.174-3.174,1,0,0,81,false,stim,false,2,1073.0,1,0,1,19791,task3,531402,false,false,646,image-keyboard-response,15
true,8,0,1,0,true,q,false,true,0.0-2.0-0.19-0.175-3.175,1,0,0,81,false,stim,false,2,587.0000000001164,1,0,1,19791,task3,533496,false,false,649,image-keyboard-response,16
true,8,0,1,0,true,q,false,true,0.0-2.0-0.19-0.176-3.176,1,0,0,81,false,stim,false,0,689.0,1,1,0,19791,task3,535692,false,false,652,image-keyboard-response,17
true,8,2,1,2,true,d,false,true,0.0-2.0-0.19-0.177-3.177,1,0,0,68,false,stim,false,0,751.0,1,0,2,19791,task3,537950,false,false,655,image-keyboard-response,18
true,8,2,1,2,true,d,false,false,0.0-2.0-0.19-0.178-3.178,1,0,0,68,false,stim,false,0,650.0,1,0,2,19791,task3,540107,false,true,658,image-keyboard-response,19
true,8,0,1,0,true,q,false,true,0.0-2.0-0.19-0.179-3.179,1,0,0,81,false,stim,false,0,556.0,1,1,0,19791,task3,542168,false,false,661,image-keyboard-response,20
true,8,0,1,0,true,q,false,true,0.0-2.0-0.20-0.180-3.180,1,0,0,81,false,stim,false,2,867.0,1,0,1,19791,task3,544542,false,false,664,image-keyboard-response,21
true,8,0,1,0,true,q,false,true,0.0-2.0-0.20-0.181-3.181,1,0,0,81,false,stim,false,2,649.0,1,0,1,19791,task3,546698,false,false,667,image-keyboard-response,22
true,8,2,1,2,true,d,false,true,0.0-2.0-0.20-0.182-3.182,1,0,0,68,false,stim,false,0,774.0,1,1,2,19791,task3,548979,false,false,670,image-keyboard-response,23
true,8,0,1,0,true,q,false,true,0.0-2.0-0.20-0.183-3.183,1,0,0,81,false,stim,false,0,772.0,1,1,0,19791,task3,551257,false,false,673,image-keyboard-response,24
true,8,2,1,2,true,d,false,true,0.0-2.0-0.20-0.184-3.184,1,0,0,68,false,stim,false,0,1660.0000000001164,1,1,2,19791,task3,554424,false,false,676,image-keyboard-response,25
true,9,0,2,0,true,q,false,true,0.0-2.0-0.20-0.185-3.185,1,0,1,81,true,stim,false,0,687.0,1,1,0,19791,task3,556618,false,false,679,image-keyboard-response,1
true,9,0,2,0,true,q,false,true,0.0-2.0-0.20-0.186-3.186,1,0,1,81,false,stim,false,0,649.0,1,1,0,19791,task3,558773,false,false,682,image-keyboard-response,2
true,9,0,2,1,false,z,false,false,0.0-2.0-0.20-0.187-3.187,1,0,1,81,false,stim,true,0,925.9999999998836,1,0,1,19791,task3,561207,false,false,685,image-keyboard-response,3
true,9,2,2,2,true,d,false,true,0.0-2.0-0.20-0.188-3.188,1,0,1,68,false,stim,false,2,623.0,1,1,2,19791,task3,563337,false,false,688,image-keyboard-response,4
true,9,0,2,0,true,q,false,true,0.0-2.0-0.21-0.189-3.189,1,0,1,81,false,stim,false,0,638.0,1,1,0,19791,task3,565483,false,false,691,image-keyboard-response,5
true,9,2,2,2,true,d,false,true,0.0-2.0-0.21-0.190-3.190,1,0,1,68,false,stim,false,2,754.0,1,1,2,19791,task3,567744,false,false,694,image-keyboard-response,6
true,9,0,2,0,true,q,false,true,0.0-2.0-0.21-0.191-3.191,1,0,1,81,false,stim,false,0,522.0,1,1,0,19791,task3,569772,false,false,697,image-keyboard-response,7
true,9,0,2,1,false,z,false,false,0.0-2.0-0.21-0.192-3.192,1,0,1,81,false,stim,true,0,745.0,1,0,1,19791,task3,572024,false,false,700,image-keyboard-response,8
true,9,0,2,0,true,q,false,true,0.0-2.0-0.21-0.193-3.193,1,0,1,81,false,stim,false,0,680.0,1,1,0,19791,task3,574215,false,false,703,image-keyboard-response,9
true,9,2,2,1,false,z,true,false,0.0-2.0-0.21-0.194-3.194,1,0,1,68,false,stim,false,0,689.9999999998836,1,0,1,19791,task3,576412,false,false,706,image-keyboard-response,10
true,9,2,2,2,true,d,false,true,0.0-2.0-0.21-0.195-3.195,1,0,1,68,false,stim,false,2,725.0,1,1,2,19791,task3,578643,false,false,709,image-keyboard-response,11
true,9,1,2,1,true,z,false,true,0.0-2.0-0.21-0.196-3.196,1,0,1,90,false,stim,false,0,695.9999999998836,1,1,1,19791,task3,580847,false,false,712,image-keyboard-response,12
true,9,2,2,2,true,d,false,true,0.0-2.0-0.21-0.197-3.197,1,0,1,68,false,stim,false,2,706.9999999998836,1,0,2,19791,task3,583060,false,false,715,image-keyboard-response,13
true,9,1,2,1,true,z,false,true,0.0-2.0-0.22-0.198-3.198,1,0,1,90,false,stim,false,0,792.0,1,1,1,19791,task3,585360,false,false,718,image-keyboard-response,14
true,9,1,2,1,true,z,false,true,0.0-2.0-0.22-0.199-3.199,1,0,1,90,false,stim,false,0,522.0,1,1,1,19791,task3,587387,false,false,721,image-keyboard-response,15
true,9,0,2,0,true,q,false,true,0.0-2.0-0.22-0.200-3.200,1,0,1,81,false,stim,false,0,569.0,1,1,0,19791,task3,589461,false,false,724,image-keyboard-response,16
true,10,2,2,1,false,z,false,false,0.0-2.0-0.22-0.201-3.201,1,1,0,68,true,stim,true,2,586.0,1,0,2,19791,task3,591551,false,false,727,image-keyboard-response,1
true,10,0,2,0,true,q,false,true,0.0-2.0-0.22-0.202-3.202,1,1,0,81,false,stim,false,0,633.9999999998836,1,1,0,19791,task3,593689,false,false,730,image-keyboard-response,2
true,10,1,2,1,true,z,false,true,0.0-2.0-0.22-0.203-3.203,1,1,0,90,false,stim,false,1,652.0,1,1,1,19791,task3,595847,false,false,733,image-keyboard-response,3
true,10,2,2,1,false,z,false,false,0.0-2.0-0.22-0.204-3.204,1,1,0,68,false,stim,true,2,747.9999999998836,1,0,2,19791,task3,598101,false,false,736,image-keyboard-response,4
true,10,0,2,0,true,q,false,true,0.0-2.0-0.22-0.205-3.205,1,1,0,81,false,stim,false,0,883.0,1,1,0,19791,task3,600490,false,false,739,image-keyboard-response,5
true,10,1,2,1,true,z,false,false,0.0-2.0-0.22-0.206-3.206,1,1,0,90,false,stim,false,2,690.0,1,0,2,19791,task3,602687,false,true,742,image-keyboard-response,6
true,10,1,2,1,true,z,false,false,0.0-2.0-0.23-0.207-3.207,1,1,0,90,false,stim,false,1,734.0,1,1,1,19791,task3,604928,false,true,745,image-keyboard-response,7
true,10,0,2,1,false,z,true,false,0.0-2.0-0.23-0.208-3.208,1,1,0,81,false,stim,false,2,706.0,1,1,2,19791,task3,607138,false,false,748,image-keyboard-response,8
true,10,0,2,1,false,z,true,false,0.0-2.0-0.23-0.209-3.209,1,1,0,81,false,stim,false,2,691.0,1,1,2,19791,task3,609333,false,false,751,image-keyboard-response,9
true,10,0,2,0,true,q,false,true,0.0-2.0-0.23-0.210-3.210,1,1,0,81,false,stim,false,0,1102.0,1,0,0,19791,task3,611940,false,false,754,image-keyboard-response,10
true,10,1,2,1,true,z,false,true,0.0-2.0-0.23-0.211-3.211,1,1,0,90,false,stim,false,1,1322.0,1,0,1,19791,task3,614768,false,false,757,image-keyboard-response,11
true,10,0,2,0,true,q,false,true,0.0-2.0-0.23-0.212-3.212,1,1,0,81,false,stim,false,0,899.0,1,0,0,19791,task3,617173,false,false,760,image-keyboard-response,12
true,11,0,1,1,false,z,false,false,0.0-2.0-0.23-0.213-3.213,0,0,1,81,true,stim,true,0,712.0,1,0,0,19791,task3,619392,false,false,763,image-keyboard-response,1
true,11,1,1,2,false,d,false,false,0.0-2.0-0.23-0.214-3.214,0,0,1,90,false,stim,true,1,578.0,1,0,1,19791,task3,621477,false,false,766,image-keyboard-response,2
true,11,1,1,1,true,z,false,true,0.0-2.0-0.23-0.215-3.215,0,0,1,90,false,stim,false,1,1005.0,1,1,2,19791,task3,623987,false,false,769,image-keyboard-response,3
true,11,0,1,1,false,z,false,false,0.0-2.0-0.24-0.216-3.216,0,0,1,81,false,stim,true,0,579.0,1,0,0,19791,task3,626074,false,false,772,image-keyboard-response,4
true,11,1,1,2,false,d,false,false,0.0-2.0-0.24-0.217-3.217,0,0,1,90,false,stim,true,1,1622.9999999998836,1,0,1,19791,task3,629203,false,false,775,image-keyboard-response,5
true,11,2,1,1,false,z,true,false,0.0-2.0-0.24-0.218-3.218,0,0,1,68,false,stim,false,0,960.0,1,0,0,19791,task3,631670,false,false,778,image-keyboard-response,6
true,11,1,1,1,true,z,false,true,0.0-2.0-0.24-0.219-3.219,0,0,1,90,false,stim,false,0,671.9999999998836,1,1,0,19791,task3,633848,false,false,781,image-keyboard-response,7
true,11,0,1,2,false,d,true,false,0.0-2.0-0.24-0.220-3.220,0,0,1,81,false,stim,false,1,1085.9999999998836,1,1,1,19791,task3,636440,false,false,784,image-keyboard-response,8
true,11,1,1,1,true,z,false,true,0.0-2.0-0.24-0.221-3.221,0,0,1,90,false,stim,false,1,655.0,1,0,2,19791,task3,638602,false,false,787,image-keyboard-response,9
true,11,1,1,1,true,z,false,true,0.0-2.0-0.24-0.222-3.222,0,0,1,90,false,stim,false,1,607.0,1,0,2,19791,task3,640715,false,false,790,image-keyboard-response,10
true,11,1,1,1,true,z,false,true,0.0-2.0-0.24-0.223-3.223,0,0,1,90,false,stim,false,1,594.0,1,0,2,19791,task3,642816,false,false,793,image-keyboard-response,11
true,12,1,2,2,false,d,true,false,0.0-2.0-0.24-0.224-3.224,1,1,0,90,true,stim,false,2,745.0,1,1,1,19791,task3,645068,false,false,796,image-keyboard-response,1
true,12,1,2,2,false,d,false,false,0.0-2.0-0.25-0.225-3.225,1,1,0,90,false,stim,true,1,687.0,1,0,2,19791,task3,647262,false,false,799,image-keyboard-response,2
true,12,0,2,2,false,d,true,false,0.0-2.0-0.25-0.226-3.226,1,1,0,81,false,stim,false,2,1558.0,1,1,1,19791,task3,650334,false,false,802,image-keyboard-response,3
true,12,2,2,1,false,z,true,false,0.0-2.0-0.25-0.227-3.227,1,1,0,68,false,stim,false,1,987.0,1,1,0,19791,task3,652828,false,false,805,image-keyboard-response,4
true,12,1,2,1,true,z,false,true,0.0-2.0-0.25-0.228-3.228,1,1,0,90,false,stim,false,1,625.0,1,1,0,19791,task3,654960,false,false,808,image-keyboard-response,5
true,12,1,2,2,false,d,false,false,0.0-2.0-0.25-0.229-3.229,1,1,0,90,false,stim,true,1,642.0,1,0,2,19791,task3,657109,false,false,811,image-keyboard-response,6
true,12,0,2,2,false,d,true,false,0.0-2.0-0.25-0.230-3.230,1,1,0,81,false,stim,false,2,1154.0,1,1,1,19791,task3,659769,false,false,814,image-keyboard-response,7
true,12,1,2,1,true,z,false,true,0.0-2.0-0.25-0.231-3.231,1,1,0,90,false,stim,false,1,775.0,1,1,0,19791,task3,662049,false,false,817,image-keyboard-response,8
true,12,2,2,2,true,d,false,true,0.0-2.0-0.25-0.232-3.232,1,1,0,68,false,stim,false,2,611.0,1,1,1,19791,task3,664166,false,false,820,image-keyboard-response,9
true,12,2,2,2,true,d,false,true,0.0-2.0-0.25-0.233-3.233,1,1,0,68,false,stim,false,1,560.9999999998836,1,0,2,19791,task3,666233,false,false,823,image-keyboard-response,10
true,12,1,2,1,true,z,false,true,0.0-2.0-0.26-0.234-3.234,1,1,0,90,false,stim,false,1,668.0000000001164,1,1,0,19791,task3,668408,false,false,826,image-keyboard-response,11
true,12,2,2,2,true,d,false,true,0.0-2.0-0.26-0.235-3.235,1,1,0,68,false,stim,false,1,714.0000000001164,1,0,2,19791,task3,670630,false,false,829,image-keyboard-response,12
true,12,2,2,2,true,d,false,true,0.0-2.0-0.26-0.236-3.236,1,1,0,68,false,stim,false,2,520.0,1,1,1,19791,task3,672657,false,false,832,image-keyboard-response,13
true,12,2,2,2,true,d,false,true,0.0-2.0-0.26-0.237-3.237,1,1,0,68,false,stim,false,1,649.0,1,0,2,19791,task3,674813,false,false,835,image-keyboard-response,14
true,12,1,2,1,true,z,false,true,0.0-2.0-0.26-0.238-3.238,1,1,0,90,false,stim,false,1,771.0,1,1,0,19791,task3,677090,false,false,838,image-keyboard-response,15
true,12,2,2,2,true,d,false,true,0.0-2.0-0.26-0.239-3.239,1,1,0,68,false,stim,false,1,1434.0,1,0,2,19791,task3,680031,false,false,841,image-keyboard-response,16
true,12,2,2,2,true,d,false,true,0.0-2.0-0.26-0.240-3.240,1,1,0,68,false,stim,false,2,688.0000000001164,1,1,1,19791,task3,682226,false,false,844,image-keyboard-response,17
true,12,1,2,1,true,z,false,true,0.0-2.0-0.26-0.241-3.241,1,1,0,90,false,stim,false,1,693.0,1,1,0,19791,task3,684426,false,false,847,image-keyboard-response,18
true,12,2,2,2,true,d,false,false,0.0-2.0-0.26-0.242-3.242,1,1,0,68,false,stim,false,2,1068.0,1,1,1,19791,task3,686999,false,true,850,image-keyboard-response,19
true,12,2,2,2,true,d,false,true,0.0-2.0-0.27-0.243-3.243,1,1,0,68,false,stim,false,1,665.0,1,0,2,19791,task3,689169,false,false,853,image-keyboard-response,20
true,12,1,2,1,true,z,false,true,0.0-2.0-0.27-0.244-3.244,1,1,0,90,false,stim,false,1,658.0,1,1,0,19791,task3,691333,false,false,856,image-keyboard-response,21
true,12,2,2,2,true,d,false,true,0.0-2.0-0.27-0.245-3.245,1,1,0,68,false,stim,false,2,778.0,1,1,1,19791,task3,693618,false,false,859,image-keyboard-response,22
true,12,2,2,2,true,d,false,true,0.0-2.0-0.27-0.246-3.246,1,1,0,68,false,stim,false,1,711.9999999998836,1,0,2,19791,task3,695837,false,false,862,image-keyboard-response,23
true,12,1,2,1,true,z,false,true,0.0-2.0-0.27-0.247-3.247,1,1,0,90,false,stim,false,1,720.0,1,1,0,19791,task3,698063,false,false,865,image-keyboard-response,24
true,12,1,2,1,true,z,false,true,0.0-2.0-0.27-0.248-3.248,1,1,0,90,false,stim,false,1,1254.0,1,0,0,19791,task3,700824,false,false,868,image-keyboard-response,25
true,12,2,2,2,true,d,false,true,0.0-2.0-0.27-0.249-3.249,1,1,0,68,false,stim,false,2,755.0,1,1,1,19791,task3,703087,false,false,871,image-keyboard-response,26
true,12,2,2,2,true,d,false,true,0.0-2.0-0.27-0.250-3.250,1,1,0,68,false,stim,false,1,712.0,1,0,2,19791,task3,705305,false,false,874,image-keyboard-response,27
true,12,1,2,2,false,d,true,false,0.0-2.0-0.27-0.251-3.251,1,1,0,90,false,stim,false,2,735.0,1,1,1,19791,task3,707547,false,false,877,image-keyboard-response,28
true,12,2,2,2,true,d,false,true,0.0-2.0-0.28-0.252-3.252,1,1,0,68,false,stim,false,1,610.9999999998836,1,0,2,19791,task3,709665,false,false,880,image-keyboard-response,29
true,13,1,1,2,false,d,false,false,0.0-2.0-0.28-0.253-3.253,0,1,0,90,true,stim,true,1,857.0,1,0,0,19791,task3,712029,false,false,883,image-keyboard-response,1
true,13,2,1,2,true,d,false,true,0.0-2.0-0.28-0.254-3.254,0,1,0,68,false,stim,false,1,738.0,1,0,0,19791,task3,714274,false,false,886,image-keyboard-response,2
true,13,2,1,1,false,z,false,false,0.0-2.0-0.28-0.255-3.255,0,1,0,68,false,stim,true,2,854.9999999998836,1,0,2,19791,task3,716635,false,false,889,image-keyboard-response,3
true,13,2,1,2,true,d,false,true,0.0-2.0-0.28-0.256-3.256,0,1,0,68,false,stim,false,1,677.0,1,0,0,19791,task3,718818,false,false,892,image-keyboard-response,4
true,13,1,1,2,false,d,true,false,0.0-2.0-0.28-0.257-3.257,0,1,0,90,false,stim,false,2,856.0,1,1,1,19791,task3,721181,false,false,895,image-keyboard-response,5
true,13,2,1,1,false,z,false,false,0.0-2.0-0.28-0.258-3.258,0,1,0,68,false,stim,true,2,1050.0,1,0,2,19791,task3,723737,false,false,898,image-keyboard-response,6
true,13,2,1,2,true,d,false,true,0.0-2.0-0.28-0.259-3.259,0,1,0,68,false,stim,false,2,657.0,1,1,1,19791,task3,725907,false,false,901,image-keyboard-response,7
true,13,2,1,2,true,d,false,true,0.0-2.0-0.28-0.260-3.260,0,1,0,68,false,stim,false,2,945.0,1,1,1,19791,task3,728358,false,false,904,image-keyboard-response,8
true,13,1,1,1,true,z,false,true,0.0-2.0-0.29-0.261-3.261,0,1,0,90,false,stim,false,2,1085.0,1,0,2,19791,task3,730951,false,false,907,image-keyboard-response,9
true,13,2,1,2,true,d,false,false,0.0-2.0-0.29-0.262-3.262,0,1,0,68,false,stim,false,2,556.9999999998836,1,1,1,19791,task3,733015,false,true,910,image-keyboard-response,10
true,13,2,1,2,true,d,false,true,0.0-2.0-0.29-0.263-3.263,0,1,0,68,false,stim,false,1,643.0,1,0,0,19791,task3,735164,false,false,913,image-keyboard-response,11
true,13,1,1,1,true,z,false,true,0.0-2.0-0.29-0.264-3.264,0,1,0,90,false,stim,false,2,831.0,1,0,2,19791,task3,737502,false,false,916,image-keyboard-response,12
true,13,1,1,1,true,z,false,true,0.0-2.0-0.29-0.265-3.265,0,1,0,90,false,stim,false,2,919.0,1,0,2,19791,task3,739928,false,false,919,image-keyboard-response,13
true,13,1,1,2,false,d,true,false,0.0-2.0-0.29-0.266-3.266,0,1,0,90,false,stim,false,2,822.0,1,1,1,19791,task3,742257,false,false,922,image-keyboard-response,14
true,13,2,1,2,true,d,false,true,0.0-2.0-0.29-0.267-3.267,0,1,0,68,false,stim,false,1,1073.0,1,0,0,19791,task3,744837,false,false,925,image-keyboard-response,15
true,13,2,1,2,true,d,false,true,0.0-2.0-0.29-0.268-3.268,0,1,0,68,false,stim,false,2,1168.0,1,1,1,19791,task3,747512,false,false,928,image-keyboard-response,16
true,13,2,1,2,true,d,false,true,0.0-2.0-0.29-0.269-3.269,0,1,0,68,false,stim,false,1,848.0,1,0,0,19791,task3,749867,false,false,931,image-keyboard-response,17
true,13,2,1,2,true,d,false,false,0.0-2.0-0.30-0.270-3.270,0,1,0,68,false,stim,false,2,621.0,1,1,1,19791,task3,751996,false,true,934,image-keyboard-response,18
true,13,2,1,2,true,d,false,true,0.0-2.0-0.30-0.271-3.271,0,1,0,68,false,stim,false,1,777.0,1,0,0,19791,task3,754278,false,false,937,image-keyboard-response,19
true,13,1,1,1,true,z,false,true,0.0-2.0-0.30-0.272-3.272,0,1,0,90,false,stim,false,2,761.0,1,0,2,19791,task3,756545,false,false,940,image-keyboard-response,20
true,13,2,1,2,true,d,false,true,0.0-2.0-0.30-0.273-3.273,0,1,0,68,false,stim,false,1,786.0,1,0,0,19791,task3,758838,false,false,943,image-keyboard-response,21
true,13,1,1,1,true,z,false,true,0.0-2.0-0.30-0.274-3.274,0,1,0,90,false,stim,false,2,1394.0,1,1,2,19791,task3,761738,false,false,946,image-keyboard-response,22
true,13,2,1,2,true,d,false,true,0.0-2.0-0.30-0.275-3.275,0,1,0,68,false,stim,false,1,860.0,1,0,0,19791,task3,764105,false,false,949,image-keyboard-response,23
true,13,2,1,2,true,d,false,true,0.0-2.0-0.30-0.276-3.276,0,1,0,68,false,stim,false,2,1017.0,1,1,1,19791,task3,766630,false,false,952,image-keyboard-response,24
true,13,1,1,1,true,z,false,false,0.0-2.0-0.30-0.277-3.277,0,1,0,90,false,stim,false,2,780.0,1,1,2,19791,task3,768916,false,true,955,image-keyboard-response,25
true,13,2,1,2,true,d,false,true,0.0-2.0-0.30-0.278-3.278,0,1,0,68,false,stim,false,2,710.0000000001164,1,1,1,19791,task3,771132,false,false,958,image-keyboard-response,26
true,14,1,2,1,true,z,false,true,0.0-2.0-0.31-0.279-3.279,0,1,1,90,true,stim,false,1,763.0,1,1,2,19791,task3,773402,false,false,961,image-keyboard-response,1
true,14,2,2,2,true,d,false,true,0.0-2.0-0.31-0.280-3.280,0,1,1,68,false,stim,false,2,792.0,1,1,1,19791,task3,775701,false,false,964,image-keyboard-response,2
true,14,2,2,2,true,d,false,true,0.0-2.0-0.31-0.281-3.281,0,1,1,68,false,stim,false,2,581.0,1,1,1,19791,task3,777790,false,false,967,image-keyboard-response,3
true,14,2,2,2,true,d,false,true,0.0-2.0-0.31-0.282-3.282,0,1,1,68,false,stim,false,2,727.0,1,1,1,19791,task3,780024,false,false,970,image-keyboard-response,4
true,14,2,2,0,false,q,false,false,0.0-2.0-0.31-0.283-3.283,0,1,1,68,false,stim,true,2,1150.0000000001164,1,0,0,19791,task3,782681,false,false,973,image-keyboard-response,5
true,14,1,2,1,true,z,false,true,0.0-2.0-0.31-0.284-3.284,0,1,1,90,false,stim,false,1,960.0,1,1,2,19791,task3,785148,false,false,976,image-keyboard-response,6
true,14,1,2,1,true,z,false,true,0.0-2.0-0.31-0.285-3.285,0,1,1,90,false,stim,false,1,798.0,1,1,2,19791,task3,787453,false,false,979,image-keyboard-response,7
true,14,2,2,0,false,q,false,false,0.0-2.0-0.31-0.286-3.286,0,1,1,68,false,stim,true,2,1778.0,1,0,0,19791,task3,790745,false,false,982,image-keyboard-response,8
true,14,2,2,0,false,q,false,false,0.0-2.0-0.31-0.287-3.287,0,1,1,68,false,stim,true,2,1662.0,1,0,0,19791,task3,793914,false,false,985,image-keyboard-response,9
true,14,2,2,2,true,d,false,true,0.0-2.0-0.32-0.288-3.288,0,1,1,68,false,stim,false,2,976.0,1,1,1,19791,task3,796399,false,false,988,image-keyboard-response,10
true,14,1,2,0,false,q,true,false,0.0-2.0-0.32-0.289-3.289,0,1,1,90,false,stim,false,2,602.0000000001164,1,0,0,19791,task3,798509,false,false,991,image-keyboard-response,11
true,14,1,2,1,true,z,false,true,0.0-2.0-0.32-0.290-3.290,0,1,1,90,false,stim,false,1,1286.0000000001164,1,1,2,19791,task3,801302,false,false,994,image-keyboard-response,12
true,14,1,2,1,true,z,false,true,0.0-2.0-0.32-0.291-3.291,0,1,1,90,false,stim,false,1,703.0,1,1,2,19791,task3,803512,false,false,997,image-keyboard-response,13
true,14,0,2,0,true,q,false,true,0.0-2.0-0.32-0.292-3.292,0,1,1,81,false,stim,false,2,881.0,1,0,0,19791,task3,805899,false,false,1000,image-keyboard-response,14
true,14,1,2,1,true,z,false,true,0.0-2.0-0.32-0.293-3.293,0,1,1,90,false,stim,false,1,942.0,1,1,2,19791,task3,808354,false,false,1003,image-keyboard-response,15
true,14,0,2,0,true,q,false,true,0.0-2.0-0.32-0.294-3.294,0,1,1,81,false,stim,false,2,1087.0,1,0,0,19791,task3,810947,false,false,1006,image-keyboard-response,16
true,14,2,2,2,true,d,false,true,0.0-2.0-0.32-0.295-3.295,0,1,1,68,false,stim,false,2,709.0,1,1,1,19791,task3,813164,false,false,1009,image-keyboard-response,17
true,14,2,2,2,true,d,false,true,0.0-2.0-0.32-0.296-3.296,0,1,1,68,false,stim,false,2,1046.9999999998836,1,1,1,19791,task3,815719,false,false,1012,image-keyboard-response,18
true,14,1,2,1,true,z,false,true,0.0-2.0-0.33-0.297-3.297,0,1,1,90,false,stim,false,1,1199.0,1,1,2,19791,task3,818426,false,false,1015,image-keyboard-response,19
true,14,0,2,0,true,q,false,true,0.0-2.0-0.33-0.298-3.298,0,1,1,81,false,stim,false,2,945.9999999998836,1,0,0,19791,task3,820878,false,false,1018,image-keyboard-response,20
true,14,2,2,2,true,d,false,true,0.0-2.0-0.33-0.299-3.299,0,1,1,68,false,stim,false,2,2258.0,1,1,1,19791,task3,824643,false,false,1021,image-keyboard-response,21
true,14,1,2,1,true,z,false,false,0.0-2.0-0.33-0.300-3.300,0,1,1,90,false,stim,false,1,1837.0,1,1,2,19791,task3,827987,false,true,1024,image-keyboard-response,22
true,14,2,2,2,true,d,false,true,0.0-2.0-0.33-0.301-3.301,0,1,1,68,false,stim,false,2,883.0,1,0,1,19791,task3,830377,false,false,1027,image-keyboard-response,23
true,14,1,2,1,true,z,false,true,0.0-2.0-0.33-0.302-3.302,0,1,1,90,false,stim,false,1,1936.0,1,1,2,19791,task3,833820,false,false,1030,image-keyboard-response,24
true,14,0,2,0,true,q,false,true,0.0-2.0-0.33-0.303-3.303,0,1,1,81,false,stim,false,2,729.0,1,0,0,19791,task3,836060,false,false,1033,image-keyboard-response,25
true,14,2,2,2,true,d,false,true,0.0-2.0-0.33-0.304-3.304,0,1,1,68,false,stim,false,2,680.0,1,0,1,19791,task3,838248,false,false,1036,image-keyboard-response,26
true,14,0,2,0,true,q,false,false,0.0-2.0-0.33-0.305-3.305,0,1,1,81,false,stim,false,2,759.0,1,0,0,19791,task3,840513,false,true,1039,image-keyboard-response,27
true,15,2,1,0,false,q,false,false,0.0-2.0-0.34-0.306-3.306,0,0,1,68,true,stim,true,2,855.0,1,0,1,19791,task3,842875,false,false,1042,image-keyboard-response,1
true,15,1,1,1,true,z,false,true,0.0-2.0-0.34-0.307-3.307,0,0,1,90,false,stim,false,1,923.0,1,1,2,19791,task3,845306,false,false,1045,image-keyboard-response,2
true,15,2,1,0,false,q,false,false,0.0-2.0-0.34-0.308-3.308,0,0,1,68,false,stim,true,2,803.9999999998836,1,0,1,19791,task3,847616,false,false,1048,image-keyboard-response,3
true,15,0,1,2,false,d,false,false,0.0-2.0-0.34-0.309-3.309,0,0,1,81,false,stim,true,0,1146.0,1,0,0,19791,task3,850270,false,false,1051,image-keyboard-response,4
true,15,2,1,2,true,d,false,true,0.0-2.0-0.34-0.310-3.310,0,0,1,68,false,stim,false,0,1003.0,1,0,0,19791,task3,852781,false,false,1054,image-keyboard-response,5
true,15,2,1,2,true,d,false,true,0.0-2.0-0.34-0.311-3.311,0,0,1,68,false,stim,false,0,651.0,1,0,0,19791,task3,854939,false,false,1057,image-keyboard-response,6
true,15,0,1,0,true,q,false,false,0.0-2.0-0.34-0.312-3.312,0,0,1,81,false,stim,false,2,738.0,1,0,1,19791,task3,857184,false,true,1060,image-keyboard-response,7
true,15,1,1,1,true,z,false,true,0.0-2.0-0.34-0.313-3.313,0,0,1,90,false,stim,false,1,907.0,1,1,2,19791,task3,859598,false,false,1063,image-keyboard-response,8
true,15,1,1,1,true,z,false,true,0.0-2.0-0.34-0.314-3.314,0,0,1,90,false,stim,false,1,684.0,1,1,2,19791,task3,861788,false,false,1066,image-keyboard-response,9
true,15,2,1,2,true,d,false,true,0.0-2.0-0.35-0.315-3.315,0,0,1,68,false,stim,false,0,590.0000000001164,1,0,0,19791,task3,863885,false,false,1069,image-keyboard-response,10
true,15,1,1,0,false,q,true,false,0.0-2.0-0.35-0.316-3.316,0,0,1,90,false,stim,false,2,597.0,1,1,1,19791,task3,865989,false,false,1072,image-keyboard-response,11
true,15,2,1,2,true,d,false,false,0.0-2.0-0.35-0.317-3.317,0,0,1,68,false,stim,false,0,905.0,1,1,0,19791,task3,868400,false,true,1075,image-keyboard-response,12
true,15,1,1,1,true,z,false,true,0.0-2.0-0.35-0.318-3.318,0,0,1,90,false,stim,false,1,1041.0000000001164,1,0,2,19791,task3,870948,false,false,1078,image-keyboard-response,13
true,15,2,1,2,true,d,false,true,0.0-2.0-0.35-0.319-3.319,0,0,1,68,false,stim,false,0,549.0,1,1,0,19791,task3,873004,false,false,1081,image-keyboard-response,14
true,15,1,1,0,false,q,true,false,0.0-2.0-0.35-0.320-3.320,0,0,1,90,false,stim,false,2,862.9999999998836,1,1,1,19791,task3,875374,false,false,1084,image-keyboard-response,15
true,16,1,2,0,false,q,false,false,0.0-2.0-0.35-0.321-3.321,1,1,0,90,true,stim,true,1,1134.9999999998836,1,0,2,19791,task3,878016,false,false,1087,image-keyboard-response,1
true,16,0,2,0,true,q,false,true,0.0-2.0-0.35-0.322-3.322,1,1,0,81,false,stim,false,0,1097.0,1,1,1,19791,task3,880620,false,false,1090,image-keyboard-response,2
true,16,1,2,0,false,q,false,false,0.0-2.0-0.35-0.323-3.323,1,1,0,90,false,stim,true,1,789.0,1,0,2,19791,task3,882915,false,false,1093,image-keyboard-response,3
true,16,0,2,0,true,q,false,false,0.0-2.0-0.36-0.324-3.324,1,1,0,81,false,stim,false,1,741.0,1,0,2,19791,task3,885164,false,true,1096,image-keyboard-response,4
true,16,0,2,0,true,q,false,true,0.0-2.0-0.36-0.325-3.325,1,1,0,81,false,stim,false,0,843.0,1,1,1,19791,task3,887513,false,false,1099,image-keyboard-response,5
true,16,2,2,2,true,d,false,true,0.0-2.0-0.36-0.326-3.326,1,1,0,68,false,stim,false,2,1939.0,1,1,0,19791,task3,890968,false,false,1102,image-keyboard-response,6
true,16,2,2,0,false,q,true,false,0.0-2.0-0.36-0.327-3.327,1,1,0,68,false,stim,false,1,942.0,1,1,2,19791,task3,893417,false,false,1105,image-keyboard-response,7
true,16,2,2,2,true,d,false,true,0.0-2.0-0.36-0.328-3.328,1,1,0,68,false,stim,false,2,707.9999999998836,1,1,0,19791,task3,895632,false,false,1108,image-keyboard-response,8
true,16,2,2,2,true,d,false,true,0.0-2.0-0.36-0.329-3.329,1,1,0,68,false,stim,false,2,669.0,1,1,0,19791,task3,897808,false,false,1111,image-keyboard-response,9
true,16,0,2,0,true,q,false,true,0.0-2.0-0.36-0.330-3.330,1,1,0,81,false,stim,false,0,712.0,1,0,1,19791,task3,900027,false,false,1114,image-keyboard-response,10
true,16,0,2,0,true,q,false,true,0.0-2.0-0.36-0.331-3.331,1,1,0,81,false,stim,false,1,675.0000000001164,1,1,2,19791,task3,902209,false,false,1117,image-keyboard-response,11
true,17,0,2,1,false,z,false,false,0.0-2.0-0.36-0.332-3.332,1,0,1,81,true,stim,true,0,647.0000000001164,1,0,1,19791,task3,904363,false,false,1120,image-keyboard-response,1
true,17,0,2,1,false,z,false,false,0.0-2.0-0.37-0.333-3.333,1,0,1,81,false,stim,true,0,616.0,1,0,1,19791,task3,906486,false,false,1123,image-keyboard-response,2
true,17,2,2,2,true,d,false,true,0.0-2.0-0.37-0.334-3.334,1,0,1,68,false,stim,false,2,785.0,1,1,0,19791,task3,908778,false,false,1126,image-keyboard-response,3
true,17,2,2,2,true,d,false,true,0.0-2.0-0.37-0.335-3.335,1,0,1,68,false,stim,false,2,662.0,1,1,0,19791,task3,910947,false,false,1129,image-keyboard-response,4
true,17,0,2,0,true,q,false,false,0.0-2.0-0.37-0.336-3.336,1,0,1,81,false,stim,false,0,1122.0,1,1,2,19791,task3,913575,false,true,1132,image-keyboard-response,5
true,17,2,2,0,false,q,true,false,0.0-2.0-0.37-0.337-3.337,1,0,1,68,false,stim,false,0,819.9999999998836,1,1,2,19791,task3,915904,false,false,1135,image-keyboard-response,6
true,17,1,2,0,false,q,true,false,0.0-2.0-0.37-0.338-3.338,1,0,1,90,false,stim,false,0,651.0,1,1,2,19791,task3,918063,false,false,1138,image-keyboard-response,7
true,17,1,2,1,true,z,false,true,0.0-2.0-0.37-0.339-3.339,1,0,1,90,false,stim,false,0,806.0,1,0,1,19791,task3,920376,false,false,1141,image-keyboard-response,8
true,17,2,2,2,true,d,false,true,0.0-2.0-0.37-0.340-3.340,1,0,1,68,false,stim,false,2,974.0,1,1,0,19791,task3,922857,false,false,1144,image-keyboard-response,9
true,17,1,2,1,true,z,false,true,0.0-2.0-0.37-0.341-3.341,1,0,1,90,false,stim,false,0,692.0,1,0,1,19791,task3,925057,false,false,1147,image-keyboard-response,10
true,17,2,2,2,true,d,false,true,0.0-2.0-0.38-0.342-3.342,1,0,1,68,false,stim,false,2,748.0,1,1,0,19791,task3,927314,false,false,1150,image-keyboard-response,11
true,17,1,2,0,false,q,true,true,0.0-2.0-0.38-0.343-3.343,1,0,1,90,false,stim,false,0,624.0,1,1,2,19791,task3,929445,false,true,1153,image-keyboard-response,12
true,17,1,2,1,true,z,false,true,0.0-2.0-0.38-0.344-3.344,1,0,1,90,false,stim,false,0,727.0,1,1,1,19791,task3,931679,false,false,1156,image-keyboard-response,13
true,17,1,2,1,true,z,false,true,0.0-2.0-0.38-0.345-3.345,1,0,1,90,false,stim,false,0,646.9999999998836,1,1,1,19791,task3,933837,false,false,1159,image-keyboard-response,14
true,17,2,2,2,true,d,false,true,0.0-2.0-0.38-0.346-3.346,1,0,1,68,false,stim,false,2,640.0,1,0,0,19791,task3,935985,false,false,1162,image-keyboard-response,15
true,17,1,2,0,false,q,true,true,0.0-2.0-0.38-0.347-3.347,1,0,1,90,false,stim,false,0,627.0,1,1,2,19791,task3,938120,false,true,1165,image-keyboard-response,16
true,18,1,2,0,false,q,true,false,0.0-2.0-0.38-0.348-3.348,0,1,1,90,true,stim,false,0,707.0,1,1,2,19791,task3,940334,false,false,1168,image-keyboard-response,1
true,18,2,2,1,false,z,false,false,0.0-2.0-0.38-0.349-3.349,0,1,1,68,false,stim,true,2,702.0,1,0,0,19791,task3,942544,false,false,1171,image-keyboard-response,2
true,18,1,2,1,true,z,false,true,0.0-2.0-0.38-0.350-3.350,0,1,1,90,false,stim,false,1,841.0,1,1,1,19791,task3,944893,false,false,1174,image-keyboard-response,3
true,18,2,2,1,false,z,false,false,0.0-2.0-0.39-0.351-3.351,0,1,1,68,false,stim,true,2,1119.0,1,0,0,19791,task3,947520,false,false,1177,image-keyboard-response,4
true,18,1,2,1,true,z,false,true,0.0-2.0-0.39-0.352-3.352,0,1,1,90,false,stim,false,1,701.0000000001164,1,1,1,19791,task3,949730,false,false,1180,image-keyboard-response,5
true,18,1,2,1,true,z,false,true,0.0-2.0-0.39-0.353-3.353,0,1,1,90,false,stim,false,1,694.0000000001164,1,1,1,19791,task3,951931,false,false,1183,image-keyboard-response,6
true,18,1,2,1,true,z,false,true,0.0-2.0-0.39-0.354-3.354,0,1,1,90,false,stim,false,2,992.0,1,0,0,19791,task3,954430,false,false,1186,image-keyboard-response,7
true,18,1,2,0,false,q,true,false,0.0-2.0-0.39-0.355-3.355,0,1,1,90,false,stim,false,0,894.0,1,1,2,19791,task3,956831,false,false,1189,image-keyboard-response,8
true,18,1,2,1,true,z,false,true,0.0-2.0-0.39-0.356-3.356,0,1,1,90,false,stim,false,2,614.0,1,0,0,19791,task3,958953,false,false,1192,image-keyboard-response,9
true,18,1,2,1,true,z,false,true,0.0-2.0-0.39-0.357-3.357,0,1,1,90,false,stim,false,1,877.0,1,1,1,19791,task3,961340,false,false,1195,image-keyboard-response,10
true,18,2,2,0,false,q,true,false,0.0-2.0-0.39-0.358-3.358,0,1,1,68,false,stim,false,0,808.0,1,1,2,19791,task3,963655,false,false,1198,image-keyboard-response,11
true,18,2,2,0,false,q,true,false,0.0-2.0-0.39-0.359-3.359,0,1,1,68,false,stim,false,0,724.0,1,1,2,19791,task3,965894,false,false,1201,image-keyboard-response,12
true,18,1,2,1,true,z,false,false,0.0-2.0-0.40-0.360-3.360,0,1,1,90,false,stim,false,2,774.0,1,1,0,19791,task3,968178,false,true,1204,image-keyboard-response,13
true,18,0,2,0,true,q,false,true,0.0-2.0-0.40-0.361-3.361,0,1,1,81,false,stim,false,0,829.0,1,1,2,19791,task3,970514,false,false,1207,image-keyboard-response,14
true,18,1,2,1,true,z,false,true,0.0-2.0-0.40-0.362-3.362,0,1,1,90,false,stim,false,2,957.0000000001164,1,1,0,19791,task3,972979,false,false,1210,image-keyboard-response,15
true,19,1,2,2,false,d,false,false,0.0-2.0-0.40-0.363-3.363,1,0,1,90,true,stim,true,1,954.9999999998836,1,0,1,19791,task3,975439,false,false,1213,image-keyboard-response,1
true,19,1,2,2,false,d,false,false,0.0-2.0-0.40-0.364-3.364,1,0,1,90,false,stim,true,1,986.0000000001164,1,0,1,19791,task3,977932,false,false,1216,image-keyboard-response,2
true,19,1,2,2,false,d,false,false,0.0-2.0-0.40-0.365-3.365,1,0,1,90,false,stim,true,1,1146.0,1,0,1,19791,task3,980585,false,false,1219,image-keyboard-response,3
true,19,0,2,0,true,q,false,true,0.0-2.0-0.40-0.366-3.366,1,0,1,81,false,stim,false,0,878.0,1,1,2,19791,task3,982972,false,false,1222,image-keyboard-response,4
true,19,0,2,0,true,q,false,true,0.0-2.0-0.40-0.367-3.367,1,0,1,81,false,stim,false,0,688.0,1,1,2,19791,task3,985169,false,false,1225,image-keyboard-response,5
true,19,1,2,1,true,z,false,true,0.0-2.0-0.40-0.368-3.368,1,0,1,90,false,stim,false,1,1086.0,1,1,0,19791,task3,987762,false,false,1228,image-keyboard-response,6
true,19,1,2,2,false,d,false,false,0.0-2.0-0.41-0.369-3.369,1,0,1,90,false,stim,true,1,655.0,1,0,1,19791,task3,989926,false,false,1231,image-keyboard-response,7
true,19,0,2,0,true,q,false,true,0.0-2.0-0.41-0.370-3.370,1,0,1,81,false,stim,false,0,680.0,1,1,2,19791,task3,992113,false,false,1234,image-keyboard-response,8
true,19,0,2,0,true,q,false,true,0.0-2.0-0.41-0.371-3.371,1,0,1,81,false,stim,false,0,647.0000000001164,1,1,2,19791,task3,994265,false,false,1237,image-keyboard-response,9
true,19,0,2,0,true,q,false,true,0.0-2.0-0.41-0.372-3.372,1,0,1,81,false,stim,false,0,658.0,1,1,2,19791,task3,996431,false,false,1240,image-keyboard-response,10
true,19,0,2,2,false,d,true,true,0.0-2.0-0.41-0.373-3.373,1,0,1,81,false,stim,false,1,1874.0,1,0,1,19791,task3,999816,false,true,1243,image-keyboard-response,11
true,19,1,2,1,true,z,false,false,0.0-2.0-0.41-0.374-3.374,1,0,1,90,false,stim,false,1,884.0,1,1,0,19791,task3,1002206,false,true,1246,image-keyboard-response,12
true,19,1,2,1,true,z,false,true,0.0-2.0-0.41-0.375-3.375,1,0,1,90,false,stim,false,1,873.9999999998836,1,1,0,19791,task3,1004587,false,false,1249,image-keyboard-response,13
true,19,1,2,1,true,z,false,true,0.0-2.0-0.41-0.376-3.376,1,0,1,90,false,stim,false,1,701.0000000001164,1,1,0,19791,task3,1006795,false,false,1252,image-keyboard-response,14
true,19,0,2,2,false,d,true,false,0.0-2.0-0.41-0.377-3.377,1,0,1,81,false,stim,false,1,1423.0,1,0,1,19791,task3,1009725,false,false,1255,image-keyboard-response,15
true,19,0,2,0,true,q,false,true,0.0-2.0-0.42-0.378-3.378,1,0,1,81,false,stim,false,0,1741.0,1,1,2,19791,task3,1012976,false,false,1258,image-keyboard-response,16
true,19,0,2,0,true,q,false,true,0.0-2.0-0.42-0.379-3.379,1,0,1,81,false,stim,false,0,1369.0,1,1,2,19791,task3,1015851,false,false,1261,image-keyboard-response,17
true,19,1,2,1,true,z,false,true,0.0-2.0-0.42-0.380-3.380,1,0,1,90,false,stim,false,1,1377.0,1,1,0,19791,task3,1018736,false,false,1264,image-keyboard-response,18
true,19,0,2,1,false,z,true,false,0.0-2.0-0.42-0.381-3.381,1,0,1,81,false,stim,false,1,1754.0,1,1,0,19791,task3,1021998,false,false,1267,image-keyboard-response,19
true,19,0,2,2,false,d,true,false,0.0-2.0-0.42-0.382-3.382,1,0,1,81,false,stim,false,1,656.9999999998836,1,0,1,19791,task3,1024162,false,false,1270,image-keyboard-response,20
true,19,0,2,2,false,d,true,false,0.0-2.0-0.42-0.383-3.383,1,0,1,81,false,stim,false,1,930.0,1,0,1,19791,task3,1026599,false,false,1273,image-keyboard-response,21
true,19,1,2,1,true,z,false,true,0.0-2.0-0.42-0.384-3.384,1,0,1,90,false,stim,false,1,631.0000000001164,1,1,0,19791,task3,1028736,false,false,1276,image-keyboard-response,22
true,19,0,2,0,true,q,false,true,0.0-2.0-0.42-0.385-3.385,1,0,1,81,false,stim,false,0,1024.9999999997672,1,1,2,19791,task3,1031269,false,false,1279,image-keyboard-response,23
true,19,2,2,2,true,d,false,false,0.0-2.0-0.42-0.386-3.386,1,0,1,68,false,stim,false,1,884.0,1,0,1,19791,task3,1033663,false,true,1282,image-keyboard-response,24
true,19,1,2,2,false,d,false,false,0.0-2.0-0.43-0.387-3.387,1,0,1,90,false,stim,true,1,1359.0000000001164,1,0,1,19791,task3,1036530,false,false,1285,image-keyboard-response,25
true,19,0,2,0,true,q,false,true,0.0-2.0-0.43-0.388-3.388,1,0,1,81,false,stim,false,0,945.0000000002328,1,1,2,19791,task3,1038982,false,false,1288,image-keyboard-response,26
true,19,0,2,2,false,d,true,false,0.0-2.0-0.43-0.389-3.389,1,0,1,81,false,stim,false,1,787.9999999997672,1,0,1,19791,task3,1041279,false,false,1291,image-keyboard-response,27
true,19,1,2,1,true,z,false,true,0.0-2.0-0.43-0.390-3.390,1,0,1,90,false,stim,false,1,916.0000000002328,1,1,0,19791,task3,1043703,false,false,1294,image-keyboard-response,28
true,19,1,2,1,true,z,false,true,0.0-2.0-0.43-0.391-3.391,1,0,1,90,false,stim,false,1,948.0,1,1,0,19791,task3,1046158,false,false,1297,image-keyboard-response,29
true,20,1,2,0,false,q,true,false,0.0-2.0-0.43-0.392-3.392,1,0,1,90,true,stim,false,2,654.0,1,0,1,19791,task3,1048319,false,false,1300,image-keyboard-response,1
true,20,1,2,1,true,z,false,true,0.0-2.0-0.43-0.393-3.393,1,0,1,90,false,stim,false,1,1127.0,1,1,0,19791,task3,1050961,false,false,1303,image-keyboard-response,2
true,20,0,2,0,true,q,false,false,0.0-2.0-0.43-0.394-3.394,1,0,1,81,false,stim,false,0,1006.0,1,1,2,19791,task3,1053476,false,true,1306,image-keyboard-response,3
true,20,0,2,0,true,q,false,true,0.0-2.0-0.43-0.395-3.395,1,0,1,81,false,stim,false,0,752.9999999997672,1,1,2,19791,task3,1055735,false,false,1309,image-keyboard-response,4
true,20,0,2,0,true,q,false,true,0.0-2.0-0.44-0.396-3.396,1,0,1,81,false,stim,false,0,855.0,1,1,2,19791,task3,1058100,false,false,1312,image-keyboard-response,5
true,20,2,2,0,false,q,false,false,0.0-2.0-0.44-0.397-3.397,1,0,1,68,false,stim,true,2,1540.0,1,0,1,19791,task3,1061148,false,false,1315,image-keyboard-response,6
true,20,1,2,1,true,z,false,true,0.0-2.0-0.44-0.398-3.398,1,0,1,90,false,stim,false,1,970.0000000002328,1,1,0,19791,task3,1063626,false,false,1318,image-keyboard-response,7
true,20,0,2,0,true,q,false,false,0.0-2.0-0.44-0.399-3.399,1,0,1,81,false,stim,false,0,827.0,1,1,2,19791,task3,1065960,false,true,1321,image-keyboard-response,8
true,20,1,2,1,true,z,false,false,0.0-2.0-0.44-0.400-3.400,1,0,1,90,false,stim,false,1,845.0,1,1,0,19791,task3,1068313,false,true,1324,image-keyboard-response,9
true,20,0,2,0,true,q,false,true,0.0-2.0-0.44-0.401-3.401,1,0,1,81,false,stim,false,0,799.0,1,1,2,19791,task3,1070619,false,false,1327,image-keyboard-response,10
true,20,2,2,0,false,q,false,false,0.0-2.0-0.44-0.402-3.402,1,0,1,68,false,stim,true,2,1052.9999999997672,1,0,1,19791,task3,1073180,false,false,1330,image-keyboard-response,11
true,20,0,2,0,true,q,false,true,0.0-2.0-0.44-0.403-3.403,1,0,1,81,false,stim,false,2,1145.0,1,1,1,19791,task3,1075833,false,false,1333,image-keyboard-response,12
true,20,1,2,1,true,z,false,true,0.0-2.0-0.44-0.404-3.404,1,0,1,90,false,stim,false,1,843.0,1,0,0,19791,task3,1078183,false,false,1336,image-keyboard-response,13
true,20,0,2,0,true,q,false,true,0.0-2.0-0.45-0.405-3.405,1,0,1,81,false,stim,false,2,749.0,1,1,1,19791,task3,1080439,false,false,1339,image-keyboard-response,14
true,20,1,2,1,true,z,false,true,0.0-2.0-0.45-0.406-3.406,1,0,1,90,false,stim,false,1,627.0,1,0,0,19791,task3,1082574,false,false,1342,image-keyboard-response,15
true,20,1,2,1,true,z,false,true,0.0-2.0-0.45-0.407-3.407,1,0,1,90,false,stim,false,1,1384.0,1,0,0,19791,task3,1085466,false,false,1345,image-keyboard-response,16
true,21,0,1,0,true,q,false,true,0.0-2.0-0.45-0.408-3.408,0,1,0,81,true,stim,false,0,781.0,1,1,1,19791,task3,1087758,false,false,1348,image-keyboard-response,1
true,21,0,1,0,true,q,false,true,0.0-2.0-0.45-0.409-3.409,0,1,0,81,false,stim,false,0,586.0,1,1,1,19791,task3,1089851,false,false,1351,image-keyboard-response,2
true,21,0,1,1,false,z,false,false,0.0-2.0-0.45-0.410-3.410,0,1,0,81,false,stim,true,0,736.0,1,0,2,19791,task3,1092095,false,false,1354,image-keyboard-response,3
true,21,1,1,0,false,q,false,false,0.0-2.0-0.45-0.411-3.411,0,1,0,90,false,stim,true,1,788.0,1,0,0,19791,task3,1094391,false,false,1357,image-keyboard-response,4
true,21,0,1,1,false,z,false,false,0.0-2.0-0.45-0.412-3.412,0,1,0,81,false,stim,true,0,921.0,1,0,2,19791,task3,1096821,false,false,1360,image-keyboard-response,5
true,21,0,1,1,false,z,false,false,0.0-2.0-0.45-0.413-3.413,0,1,0,81,false,stim,true,0,844.0,1,0,2,19791,task3,1099172,false,false,1363,image-keyboard-response,6
true,21,1,1,0,false,q,false,false,0.0-2.0-0.46-0.414-3.414,0,1,0,90,false,stim,true,1,675.0,1,0,0,19791,task3,1101355,false,false,1366,image-keyboard-response,7
true,21,2,1,0,false,q,true,false,0.0-2.0-0.46-0.415-3.415,0,1,0,68,false,stim,false,0,770.0,1,1,1,19791,task3,1103634,false,false,1369,image-keyboard-response,8
true,21,2,1,0,false,q,true,false,0.0-2.0-0.46-0.416-3.416,0,1,0,68,false,stim,false,1,739.0,1,0,0,19791,task3,1105881,false,false,1372,image-keyboard-response,9
true,21,2,1,1,false,z,true,false,0.0-2.0-0.46-0.417-3.417,0,1,0,68,false,stim,false,0,901.0,1,0,2,19791,task3,1108289,false,false,1375,image-keyboard-response,10
true,21,0,1,0,true,q,false,true,0.0-2.0-0.46-0.418-3.418,0,1,0,81,false,stim,false,0,737.0,1,1,1,19791,task3,1110533,false,false,1378,image-keyboard-response,11
true,21,0,1,1,false,z,false,false,0.0-2.0-0.46-0.419-3.419,0,1,0,81,false,stim,true,0,745.0,1,0,2,19791,task3,1112785,false,false,1381,image-keyboard-response,12
true,21,0,1,0,true,q,false,true,0.0-2.0-0.46-0.420-3.420,0,1,0,81,false,stim,false,1,811.0,1,0,0,19791,task3,1115105,false,false,1384,image-keyboard-response,13
true,21,0,1,0,true,q,false,true,0.0-2.0-0.46-0.421-3.421,0,1,0,81,false,stim,false,0,744.0,1,1,1,19791,task3,1117356,false,false,1387,image-keyboard-response,14
true,21,1,1,1,true,z,false,true,0.0-2.0-0.46-0.422-3.422,0,1,0,90,false,stim,false,0,720.0,1,0,2,19791,task3,1119584,false,false,1390,image-keyboard-response,15
true,21,1,1,1,true,z,false,true,0.0-2.0-0.47-0.423-3.423,0,1,0,90,false,stim,false,0,1285.0,1,0,2,19791,task3,1122378,false,false,1393,image-keyboard-response,16
true,21,1,1,1,true,z,false,true,0.0-2.0-0.47-0.424-3.424,0,1,0,90,false,stim,false,0,656.0,1,0,2,19791,task3,1124541,false,false,1396,image-keyboard-response,17
true,21,0,1,0,true,q,false,true,0.0-2.0-0.47-0.425-3.425,0,1,0,81,false,stim,false,1,771.0,1,0,0,19791,task3,1126820,false,false,1399,image-keyboard-response,18
true,21,0,1,1,false,z,false,false,0.0-2.0-0.47-0.426-3.426,0,1,0,81,false,stim,true,0,1370.0,1,0,2,19791,task3,1129706,false,false,1402,image-keyboard-response,19
true,21,0,1,0,true,q,false,true,0.0-2.0-0.47-0.427-3.427,0,1,0,81,false,stim,false,0,1289.0,1,1,1,19791,task3,1132503,false,false,1405,image-keyboard-response,20
true,21,0,1,0,true,q,false,false,0.0-2.0-0.47-0.428-3.428,0,1,0,81,false,stim,false,1,826.0,1,0,0,19791,task3,1134837,false,true,1408,image-keyboard-response,21
true,21,0,1,0,true,q,false,true,0.0-2.0-0.47-0.429-3.429,0,1,0,81,false,stim,false,0,794.0,1,1,1,19791,task3,1137139,false,false,1411,image-keyboard-response,22
true,21,0,1,0,true,q,false,false,0.0-2.0-0.47-0.430-3.430,0,1,0,81,false,stim,false,1,927.0,1,0,0,19791,task3,1139574,false,true,1414,image-keyboard-response,23
true,21,0,1,0,true,q,false,true,0.0-2.0-0.47-0.431-3.431,0,1,0,81,false,stim,false,0,1039.0,1,1,1,19791,task3,1142121,false,false,1417,image-keyboard-response,24
true,21,1,1,0,false,q,false,false,0.0-2.0-0.48-0.432-3.432,0,1,0,90,false,stim,true,1,1024.9999999997672,1,0,0,19791,task3,1144654,false,false,1420,image-keyboard-response,25
true,21,2,1,0,false,q,true,false,0.0-2.0-0.48-0.433-3.433,0,1,0,68,false,stim,false,1,945.0,1,0,0,19791,task3,1147106,false,false,1423,image-keyboard-response,26
true,21,0,1,0,true,q,false,true,0.0-2.0-0.48-0.434-3.434,0,1,0,81,false,stim,false,0,859.0,1,1,1,19791,task3,1149474,false,false,1426,image-keyboard-response,27
true,21,1,1,1,true,z,false,true,0.0-2.0-0.48-0.435-3.435,0,1,0,90,false,stim,false,0,930.0,1,0,2,19791,task3,1151911,false,false,1429,image-keyboard-response,28
true,22,0,1,0,true,q,false,true,0.0-2.0-0.48-0.436-3.436,0,1,0,81,true,stim,false,0,925.9999999997672,1,1,1,19791,task3,1154343,false,false,1432,image-keyboard-response,1
true,22,0,1,0,true,q,false,true,0.0-2.0-0.48-0.437-3.437,0,1,0,81,false,stim,false,0,830.0,1,1,1,19791,task3,1156682,false,false,1435,image-keyboard-response,2
true,22,1,1,2,false,d,false,false,0.0-2.0-0.48-0.438-3.438,0,1,0,90,false,stim,true,1,607.0,1,0,2,19791,task3,1158798,false,false,1438,image-keyboard-response,3
true,22,1,1,2,false,d,false,false,0.0-2.0-0.48-0.439-3.439,0,1,0,90,false,stim,true,1,703.0,1,0,2,19791,task3,1161008,false,false,1441,image-keyboard-response,4
true,22,2,1,1,false,z,true,false,0.0-2.0-0.48-0.440-3.440,0,1,0,68,false,stim,false,0,720.0000000002328,1,0,0,19791,task3,1163236,false,false,1444,image-keyboard-response,5
true,22,1,1,1,true,z,false,true,0.0-2.0-0.49-0.441-3.441,0,1,0,90,false,stim,false,0,559.9999999997672,1,0,0,19791,task3,1165305,false,false,1447,image-keyboard-response,6
true,22,2,1,2,true,d,false,true,0.0-2.0-0.49-0.442-3.442,0,1,0,68,false,stim,false,1,1009.0,1,0,2,19791,task3,1167820,false,false,1450,image-keyboard-response,7
true,22,1,1,1,true,z,false,true,0.0-2.0-0.49-0.443-3.443,0,1,0,90,false,stim,false,0,695.0,1,0,0,19791,task3,1170022,false,false,1453,image-keyboard-response,8
true,22,0,1,0,true,q,false,true,0.0-2.0-0.49-0.444-3.444,0,1,0,81,false,stim,false,0,904.0,1,1,1,19791,task3,1172434,false,false,1456,image-keyboard-response,9
true,22,1,1,1,true,z,false,true,0.0-2.0-0.49-0.445-3.445,0,1,0,90,false,stim,false,0,851.0000000002328,1,0,0,19791,task3,1174792,false,false,1459,image-keyboard-response,10
true,22,2,1,2,true,d,false,false,0.0-2.0-0.49-0.446-3.446,0,1,0,68,false,stim,false,1,703.0,1,0,2,19791,task3,1177003,false,true,1462,image-keyboard-response,11
true,22,0,1,0,true,q,false,true,0.0-2.0-0.49-0.447-3.447,0,1,0,81,false,stim,false,0,716.0000000002328,1,1,1,19791,task3,1179226,false,false,1465,image-keyboard-response,12
true,22,0,1,0,true,q,false,true,0.0-2.0-0.49-0.448-3.448,0,1,0,81,false,stim,false,0,720.0,1,1,1,19791,task3,1181453,false,false,1468,image-keyboard-response,13
true,22,2,1,2,true,d,false,true,0.0-2.0-0.49-0.449-3.449,0,1,0,68,false,stim,false,1,761.0,1,0,2,19791,task3,1183722,false,false,1471,image-keyboard-response,14
true,22,1,1,1,true,z,false,true,0.0-2.0-0.50-0.450-3.450,0,1,0,90,false,stim,false,0,643.0,1,0,0,19791,task3,1185873,false,false,1474,image-keyboard-response,15
true,22,1,1,1,true,z,false,true,0.0-2.0-0.50-0.451-3.451,0,1,0,90,false,stim,false,0,687.0,1,0,0,19791,task3,1188065,false,false,1477,image-keyboard-response,16
true,22,0,1,0,true,q,false,true,0.0-2.0-0.50-0.452-3.452,0,1,0,81,false,stim,false,0,670.0,1,1,1,19791,task3,1190243,false,false,1480,image-keyboard-response,17
true,22,0,1,0,true,q,false,true,0.0-2.0-0.50-0.453-3.453,0,1,0,81,false,stim,false,0,572.0,1,1,1,19791,task3,1192376,false,false,1483,image-keyboard-response,18
true,22,1,1,1,true,z,false,true,0.0-2.0-0.50-0.454-3.454,0,1,0,90,false,stim,false,0,921.0,1,0,0,19791,task3,1194806,false,false,1486,image-keyboard-response,19
true,22,1,1,0,false,q,true,false,0.0-2.0-0.50-0.455-3.455,0,1,0,90,false,stim,false,0,902.0,1,1,1,19791,task3,1197216,false,false,1489,image-keyboard-response,20
true,22,2,1,2,true,d,false,true,0.0-2.0-0.50-0.456-3.456,0,1,0,68,false,stim,false,1,941.0,1,0,2,19791,task3,1199665,false,false,1492,image-keyboard-response,21
true,22,2,1,2,true,d,false,false,0.0-2.0-0.50-0.457-3.457,0,1,0,68,false,stim,false,1,601.0,1,1,2,19791,task3,1201773,false,true,1495,image-keyboard-response,22
true,22,2,1,2,true,d,false,true,0.0-2.0-0.50-0.458-3.458,0,1,0,68,false,stim,false,1,730.0,1,1,2,19791,task3,1204010,false,false,1498,image-keyboard-response,23
true,22,0,1,0,true,q,false,true,0.0-2.0-0.51-0.459-3.459,0,1,0,81,false,stim,false,0,758.0,1,0,1,19791,task3,1206287,false,false,1501,image-keyboard-response,24
true,22,0,1,0,true,q,false,true,0.0-2.0-0.51-0.460-3.460,0,1,0,81,false,stim,false,0,739.0,1,0,1,19791,task3,1208534,false,false,1504,image-keyboard-response,25
true,22,2,1,2,true,d,false,true,0.0-2.0-0.51-0.461-3.461,0,1,0,68,false,stim,false,1,804.0,1,1,2,19791,task3,1210845,false,false,1507,image-keyboard-response,26
true,23,2,1,2,true,d,false,true,0.0-2.0-0.51-0.462-3.462,0,0,1,68,true,stim,false,2,734.9999999997672,1,1,2,19791,task3,1213087,false,false,1510,image-keyboard-response,1
true,23,0,1,1,false,z,false,false,0.0-2.0-0.51-0.463-3.463,0,0,1,81,false,stim,true,0,861.0,1,0,1,19791,task3,1215456,false,false,1513,image-keyboard-response,2
true,23,1,1,2,false,d,false,false,0.0-2.0-0.51-0.464-3.464,0,0,1,90,false,stim,true,1,646.0,1,0,0,19791,task3,1217611,false,false,1516,image-keyboard-response,3
true,23,1,1,2,false,d,false,false,0.0-2.0-0.51-0.465-3.465,0,0,1,90,false,stim,true,1,623.0,1,0,0,19791,task3,1219741,false,false,1519,image-keyboard-response,4
true,23,2,1,2,true,d,false,false,0.0-2.0-0.51-0.466-3.466,0,0,1,68,false,stim,false,2,919.0,1,1,2,19791,task3,1222167,false,true,1522,image-keyboard-response,5
true,23,0,1,2,false,d,true,false,0.0-2.0-0.51-0.467-3.467,0,0,1,81,false,stim,false,1,797.0,1,0,0,19791,task3,1224471,false,false,1525,image-keyboard-response,6
true,23,2,1,1,false,z,true,false,0.0-2.0-0.52-0.468-3.468,0,0,1,68,false,stim,false,0,697.0,1,0,1,19791,task3,1226676,false,false,1528,image-keyboard-response,7
true,23,2,1,1,false,z,true,false,0.0-2.0-0.52-0.469-3.469,0,0,1,68,false,stim,false,0,708.0,1,0,1,19791,task3,1228891,false,false,1531,image-keyboard-response,8
true,23,0,1,2,false,d,true,false,0.0-2.0-0.52-0.470-3.470,0,0,1,81,false,stim,false,1,695.0,1,0,0,19791,task3,1231094,false,false,1534,image-keyboard-response,9
true,23,2,1,2,true,d,false,true,0.0-2.0-0.52-0.471-3.471,0,0,1,68,false,stim,false,2,1115.0,1,1,2,19791,task3,1233717,false,false,1537,image-keyboard-response,10
true,23,0,1,1,false,z,false,false,0.0-2.0-0.52-0.472-3.472,0,0,1,81,false,stim,true,0,948.0,1,0,1,19791,task3,1236172,false,false,1540,image-keyboard-response,11
true,23,0,1,2,false,d,true,true,0.0-2.0-0.52-0.473-3.473,0,0,1,81,false,stim,false,1,1204.0,1,0,0,19791,task3,1238883,false,true,1543,image-keyboard-response,12
true,23,2,1,2,true,d,false,true,0.0-2.0-0.52-0.474-3.474,0,0,1,68,false,stim,false,2,969.0,1,1,2,19791,task3,1241358,false,false,1546,image-keyboard-response,13
true,23,2,1,2,true,d,false,true,0.0-2.0-0.52-0.475-3.475,0,0,1,68,false,stim,false,2,743.0,1,1,2,19791,task3,1243608,false,false,1549,image-keyboard-response,14
true,23,0,1,2,false,d,true,false,0.0-2.0-0.52-0.476-3.476,0,0,1,81,false,stim,false,1,863.0000000002328,1,0,0,19791,task3,1245978,false,false,1552,image-keyboard-response,15
true,23,0,1,2,false,d,true,false,0.0-2.0-0.53-0.477-3.477,0,0,1,81,false,stim,false,1,619.0,1,0,0,19791,task3,1248105,false,false,1555,image-keyboard-response,16
true,23,1,1,1,true,z,false,true,0.0-2.0-0.53-0.478-3.478,0,0,1,90,false,stim,false,0,1011.0,1,0,1,19791,task3,1250623,false,false,1558,image-keyboard-response,17
true,23,1,1,1,true,z,false,true,0.0-2.0-0.53-0.479-3.479,0,0,1,90,false,stim,false,0,684.0,1,0,1,19791,task3,1252814,false,false,1561,image-keyboard-response,18
true,23,1,1,2,false,d,false,true,0.0-2.0-0.53-0.480-3.480,0,0,1,90,false,stim,true,1,662.0,1,0,0,19791,task3,1254983,false,true,1564,image-keyboard-response,19
true,23,1,1,2,false,d,false,false,0.0-2.0-0.53-0.481-3.481,0,0,1,90,false,stim,true,1,637.0,1,0,0,19791,task3,1257127,false,false,1567,image-keyboard-response,20
true,23,2,1,2,true,d,false,true,0.0-2.0-0.53-0.482-3.482,0,0,1,68,false,stim,false,2,891.0,1,0,2,19791,task3,1259525,false,false,1570,image-keyboard-response,21
true,23,2,1,2,true,d,false,true,0.0-2.0-0.53-0.483-3.483,0,0,1,68,false,stim,false,2,747.0,1,0,2,19791,task3,1261780,false,false,1573,image-keyboard-response,22
true,23,1,1,1,true,z,false,true,0.0-2.0-0.53-0.484-3.484,0,0,1,90,false,stim,false,0,788.0,1,1,1,19791,task3,1264077,false,false,1576,image-keyboard-response,23
true,23,2,1,2,true,d,false,true,0.0-2.0-0.53-0.485-3.485,0,0,1,68,false,stim,false,2,756.0,1,0,2,19791,task3,1266343,false,false,1579,image-keyboard-response,24
true,23,2,1,2,true,d,false,true,0.0-2.0-0.54-0.486-3.486,0,0,1,68,false,stim,false,2,629.0,1,0,2,19791,task3,1268481,false,false,1582,image-keyboard-response,25
true,24,1,1,0,false,q,true,false,0.0-2.0-0.54-0.487-3.487,0,1,0,90,true,stim,false,2,759.0,1,0,0,19791,task3,1270748,false,false,1585,image-keyboard-response,1
true,24,1,1,1,true,z,false,true,0.0-2.0-0.54-0.488-3.488,0,1,0,90,false,stim,false,1,717.0,1,1,1,19791,task3,1272974,false,false,1588,image-keyboard-response,2
true,24,1,1,0,false,q,true,false,0.0-2.0-0.54-0.489-3.489,0,1,0,90,false,stim,false,2,627.0,1,0,0,19791,task3,1275108,false,false,1591,image-keyboard-response,3
true,24,0,1,1,false,z,true,false,0.0-2.0-0.54-0.490-3.490,0,1,0,81,false,stim,false,1,1092.0,1,1,1,19791,task3,1277712,false,false,1594,image-keyboard-response,4
true,24,0,1,0,true,q,false,true,0.0-2.0-0.54-0.491-3.491,0,1,0,81,false,stim,false,2,956.9999999997672,1,0,0,19791,task3,1280176,false,false,1597,image-keyboard-response,5
true,24,2,1,0,false,q,false,false,0.0-2.0-0.54-0.492-3.492,0,1,0,68,false,stim,true,2,728.0,1,0,2,19791,task3,1282411,false,false,1600,image-keyboard-response,6
true,24,1,1,1,true,z,false,true,0.0-2.0-0.54-0.493-3.493,0,1,0,90,false,stim,false,1,1500.0,1,1,1,19791,task3,1285429,false,false,1603,image-keyboard-response,7
true,24,2,1,0,false,q,false,true,0.0-2.0-0.54-0.494-3.494,0,1,0,68,false,stim,true,2,914.0,1,0,2,19791,task3,1287849,false,true,1606,image-keyboard-response,8
true,24,1,1,1,true,z,false,true,0.0-2.0-0.55-0.495-3.495,0,1,0,90,false,stim,false,1,876.0,1,1,1,19791,task3,1290234,false,false,1609,image-keyboard-response,9
true,24,0,1,0,true,q,false,true,0.0-2.0-0.55-0.496-3.496,0,1,0,81,false,stim,false,2,557.0,1,0,0,19791,task3,1292300,false,false,1612,image-keyboard-response,10
true,24,2,1,0,false,q,false,false,0.0-2.0-0.55-0.497-3.497,0,1,0,68,false,stim,true,2,550.0,1,0,2,19791,task3,1294357,false,false,1615,image-keyboard-response,11
true,24,1,1,1,true,z,false,true,0.0-2.0-0.55-0.498-3.498,0,1,0,90,false,stim,false,1,906.0,1,1,1,19791,task3,1296769,false,false,1618,image-keyboard-response,12
true,24,0,1,0,true,q,false,true,0.0-2.0-0.55-0.499-3.499,0,1,0,81,false,stim,false,2,676.0,1,0,0,19791,task3,1298953,false,false,1621,image-keyboard-response,13
true,24,2,1,0,false,q,false,false,0.0-2.0-0.55-0.500-3.500,0,1,0,68,false,stim,true,2,764.0,1,0,2,19791,task3,1301225,false,false,1624,image-keyboard-response,14
true,24,1,1,0,false,q,true,true,0.0-2.0-0.55-0.501-3.501,0,1,0,90,false,stim,false,2,1167.0,1,0,2,19791,task3,1303900,false,true,1627,image-keyboard-response,15
true,24,0,1,0,true,q,false,false,0.0-2.0-0.55-0.502-3.502,0,1,0,81,false,stim,false,2,704.0,1,0,0,19791,task3,1306111,false,true,1630,image-keyboard-response,16
true,24,1,1,1,true,z,false,true,0.0-2.0-0.55-0.503-3.503,0,1,0,90,false,stim,false,1,866.0,1,1,1,19791,task3,1308486,false,false,1633,image-keyboard-response,17
true,24,1,1,0,false,q,true,false,0.0-2.0-0.56-0.504-3.504,0,1,0,90,false,stim,false,2,867.0,1,0,2,19791,task3,1310863,false,false,1636,image-keyboard-response,18
true,24,1,1,0,false,q,true,false,0.0-2.0-0.56-0.505-3.505,0,1,0,90,false,stim,false,2,666.0,1,0,2,19791,task3,1313035,false,false,1639,image-keyboard-response,19
true,24,0,1,0,true,q,false,true,0.0-2.0-0.56-0.506-3.506,0,1,0,81,false,stim,false,2,805.0,1,0,0,19791,task3,1315348,false,false,1642,image-keyboard-response,20
true,24,0,1,0,true,q,false,true,0.0-2.0-0.56-0.507-3.507,0,1,0,81,false,stim,false,2,725.0,1,0,2,19791,task3,1317583,false,false,1645,image-keyboard-response,21
true,24,1,1,1,true,z,false,false,0.0-2.0-0.56-0.508-3.508,0,1,0,90,false,stim,false,1,1013.0,1,1,1,19791,task3,1320104,false,true,1648,image-keyboard-response,22
true,24,1,1,1,true,z,false,true,0.0-2.0-0.56-0.509-3.509,0,1,0,90,false,stim,false,1,1121.0,1,1,1,19791,task3,1322733,false,false,1651,image-keyboard-response,23
true,24,0,1,0,true,q,false,true,0.0-2.0-0.56-0.510-3.510,0,1,0,81,false,stim,false,2,771.0,1,0,0,19791,task3,1325013,false,false,1654,image-keyboard-response,24
true,24,0,1,0,true,q,false,true,0.0-2.0-0.56-0.511-3.511,0,1,0,81,false,stim,false,2,687.0,1,0,0,19791,task3,1327207,false,false,1657,image-keyboard-response,25
true,24,1,1,1,true,z,false,true,0.0-2.0-0.56-0.512-3.512,0,1,0,90,false,stim,false,1,1131.0000000002328,1,1,1,19791,task3,1329845,false,false,1660,image-keyboard-response,26
true,24,0,1,0,true,q,false,true,0.0-2.0-0.57-0.513-3.513,0,1,0,81,false,stim,false,2,676.0,1,0,0,19791,task3,1332032,false,false,1663,image-keyboard-response,27
true,24,0,1,0,true,q,false,true,0.0-2.0-0.57-0.514-3.514,0,1,0,81,false,stim,false,2,810.0,1,0,2,19791,task3,1334349,false,false,1666,image-keyboard-response,28
true,25,0,1,2,false,d,false,false,0.0-2.0-0.57-0.515-3.515,0,1,0,81,true,stim,true,0,1220.0000000002328,1,0,0,19791,task3,1337077,false,false,1669,image-keyboard-response,1
true,25,0,1,1,false,z,false,false,0.0-2.0-0.57-0.516-3.516,0,1,0,81,false,stim,true,0,795.0,1,0,2,19791,task3,1339380,false,false,1672,image-keyboard-response,2
true,25,1,1,1,true,z,false,true,0.0-2.0-0.57-0.517-3.517,0,1,0,90,false,stim,false,1,714.0,1,1,1,19791,task3,1341600,false,false,1675,image-keyboard-response,3
true,25,0,1,2,false,d,false,false,0.0-2.0-0.57-0.518-3.518,0,1,0,81,false,stim,true,0,680.0,1,0,0,19791,task3,1343791,false,false,1678,image-keyboard-response,4
true,25,1,1,1,true,z,false,true,0.0-2.0-0.57-0.519-3.519,0,1,0,90,false,stim,false,1,652.0,1,1,1,19791,task3,1345951,false,false,1681,image-keyboard-response,5
true,25,1,1,1,true,z,false,true,0.0-2.0-0.57-0.520-3.520,0,1,0,90,false,stim,false,1,696.0,1,1,1,19791,task3,1348155,false,false,1684,image-keyboard-response,6
true,25,1,1,1,true,z,false,true,0.0-2.0-0.57-0.521-3.521,0,1,0,90,false,stim,false,0,1038.0,1,0,2,19791,task3,1350702,false,false,1687,image-keyboard-response,7
true,25,1,1,1,true,z,false,true,0.0-2.0-0.58-0.522-3.522,0,1,0,90,false,stim,false,1,698.0,1,1,1,19791,task3,1352909,false,false,1690,image-keyboard-response,8
true,25,2,1,2,true,d,false,true,0.0-2.0-0.58-0.523-3.523,0,1,0,68,false,stim,false,0,1008.0,1,0,0,19791,task3,1355425,false,false,1693,image-keyboard-response,9
true,25,2,1,2,true,d,false,true,0.0-2.0-0.58-0.524-3.524,0,1,0,68,false,stim,false,0,604.0,1,0,0,19791,task3,1357535,false,false,1696,image-keyboard-response,10
true,25,1,1,1,true,z,false,true,0.0-2.0-0.58-0.525-3.525,0,1,0,90,false,stim,false,1,724.0000000002328,1,1,1,19791,task3,1359770,false,false,1699,image-keyboard-response,11
true,25,1,1,1,true,z,false,true,0.0-2.0-0.58-0.526-3.526,0,1,0,90,false,stim,false,0,2431.000000000233,1,1,2,19791,task3,1363722,false,false,1702,image-keyboard-response,12
true,25,2,1,2,true,d,false,true,0.0-2.0-0.58-0.527-3.527,0,1,0,68,false,stim,false,0,676.0000000002328,1,1,0,19791,task3,1365905,false,false,1705,image-keyboard-response,13
true,25,1,1,1,true,z,false,true,0.0-2.0-0.58-0.528-3.528,0,1,0,90,false,stim,false,0,740.0,1,1,2,19791,task3,1368153,false,false,1708,image-keyboard-response,14
true,25,1,1,1,true,z,false,true,0.0-2.0-0.58-0.529-3.529,0,1,0,90,false,stim,false,1,766.0,1,1,1,19791,task3,1370430,false,false,1711,image-keyboard-response,15
true,26,1,0,1,true,z,false,true,0.0-2.0-0.58-0.530-3.530,1,1,1,90,true,stim,false,1,1264.0,1,1,2,19791,task3,1493520,false,false,1834,image-keyboard-response,1
true,26,1,0,1,true,z,false,true,0.0-2.0-0.59-0.531-3.531,1,1,1,90,false,stim,false,1,575.0,1,1,2,19791,task3,1495605,false,false,1837,image-keyboard-response,2
true,26,1,0,1,true,z,false,true,0.0-2.0-0.59-0.532-3.532,1,1,1,90,false,stim,false,1,589.0,1,1,2,19791,task3,1497702,false,false,1840,image-keyboard-response,3
true,26,2,0,2,true,d,false,true,0.0-2.0-0.59-0.533-3.533,1,1,1,68,false,stim,false,2,711.0,1,1,0,19791,task3,1499923,false,false,1843,image-keyboard-response,4
true,26,0,0,1,false,z,true,false,0.0-2.0-0.59-0.534-3.534,1,1,1,81,false,stim,false,1,762.0,1,1,1,19791,task3,1502192,false,false,1846,image-keyboard-response,5
true,26,2,0,1,false,z,true,false,0.0-2.0-0.59-0.535-3.535,1,1,1,68,false,stim,false,1,557.0,1,1,1,19791,task3,1504255,false,false,1849,image-keyboard-response,6
true,26,1,0,1,true,z,false,true,0.0-2.0-0.59-0.536-3.536,1,1,1,90,false,stim,false,1,686.0,1,0,2,19791,task3,1506450,false,false,1852,image-keyboard-response,7
true,26,2,0,2,true,d,false,true,0.0-2.0-0.59-0.537-3.537,1,1,1,68,false,stim,false,2,766.0,1,0,0,19791,task3,1508724,false,false,1855,image-keyboard-response,8
true,26,1,0,1,true,z,false,true,0.0-2.0-0.59-0.538-3.538,1,1,1,90,false,stim,false,1,786.0,1,1,1,19791,task3,1511018,false,false,1858,image-keyboard-response,9
true,26,2,0,2,true,d,false,true,0.0-2.0-0.59-0.539-3.539,1,1,1,68,false,stim,false,2,659.0,1,0,0,19791,task3,1513186,false,false,1861,image-keyboard-response,10
true,26,2,0,2,true,d,false,true,0.0-2.0-0.60-0.540-3.540,1,1,1,68,false,stim,false,2,669.0,1,0,0,19791,task3,1515365,false,false,1864,image-keyboard-response,11
true,27,1,1,2,false,d,false,false,0.0-2.0-0.60-0.541-3.541,0,1,0,90,true,stim,true,1,732.0,1,0,2,19791,task3,1517606,false,false,1867,image-keyboard-response,1
true,27,1,1,1,true,z,false,true,0.0-2.0-0.60-0.542-3.542,0,1,0,90,false,stim,false,1,618.0,1,1,1,19791,task3,1519733,false,false,1870,image-keyboard-response,2
true,27,2,1,1,false,z,false,false,0.0-2.0-0.60-0.543-3.543,0,1,0,68,false,stim,true,2,653.0,1,0,0,19791,task3,1521896,false,false,1873,image-keyboard-response,3
true,27,1,1,2,false,d,false,true,0.0-2.0-0.60-0.544-3.544,0,1,0,90,false,stim,true,1,645.0,1,0,2,19791,task3,1524048,false,true,1876,image-keyboard-response,4
true,27,2,1,1,false,z,false,false,0.0-2.0-0.60-0.545-3.545,0,1,0,68,false,stim,true,2,576.0,1,0,0,19791,task3,1526134,false,false,1879,image-keyboard-response,5
true,27,1,1,2,false,d,false,false,0.0-2.0-0.60-0.546-3.546,0,1,0,90,false,stim,true,1,695.9999999997672,1,0,2,19791,task3,1528336,false,false,1882,image-keyboard-response,6
true,27,1,1,1,true,z,false,true,0.0-2.0-0.60-0.547-3.547,0,1,0,90,false,stim,false,1,835.0,1,1,1,19791,task3,1530679,false,false,1885,image-keyboard-response,7
true,27,1,1,1,true,z,false,true,0.0-2.0-0.60-0.548-3.548,0,1,0,90,false,stim,false,1,722.0000000002328,1,1,1,19791,task3,1532910,false,false,1888,image-keyboard-response,8
true,27,1,1,2,false,d,false,false,0.0-2.0-0.61-0.549-3.549,0,1,0,90,false,stim,true,1,905.9999999997672,1,0,2,19791,task3,1535325,false,false,1891,image-keyboard-response,9
true,27,1,1,1,true,z,false,true,0.0-2.0-0.61-0.550-3.550,0,1,0,90,false,stim,false,1,876.9999999997672,1,1,1,19791,task3,1537709,false,false,1894,image-keyboard-response,10
true,27,1,1,1,true,z,false,true,0.0-2.0-0.61-0.551-3.551,0,1,0,90,false,stim,false,1,612.9999999997672,1,1,1,19791,task3,1539831,false,false,1897,image-keyboard-response,11
true,27,1,1,1,true,z,false,false,0.0-2.0-0.61-0.552-3.552,0,1,0,90,false,stim,false,1,530.0000000002328,1,1,1,19791,task3,1541871,false,true,1900,image-keyboard-response,12
true,27,0,1,1,false,z,true,false,0.0-2.0-0.61-0.553-3.553,0,1,0,81,false,stim,false,2,1733.0,1,0,0,19791,task3,1545125,false,false,1903,image-keyboard-response,13
true,27,0,1,1,false,z,true,false,0.0-2.0-0.61-0.554-3.554,0,1,0,81,false,stim,false,2,748.0,1,0,0,19791,task3,1547380,false,false,1906,image-keyboard-response,14
true,27,1,1,2,false,d,false,false,0.0-2.0-0.61-0.555-3.555,0,1,0,90,false,stim,true,1,1133.0,1,0,2,19791,task3,1550022,false,false,1909,image-keyboard-response,15
true,27,2,1,1,false,z,false,true,0.0-2.0-0.61-0.556-3.556,0,1,0,68,false,stim,true,2,1317.0,1,0,0,19791,task3,1552848,false,true,1912,image-keyboard-response,16
true,27,0,1,2,false,d,true,false,0.0-2.0-0.61-0.557-3.557,0,1,0,81,false,stim,false,1,1496.0000000002328,1,0,2,19791,task3,1555852,false,false,1915,image-keyboard-response,17
true,27,1,1,2,false,d,false,false,0.0-2.0-0.62-0.558-3.558,0,1,0,90,false,stim,true,1,713.0,1,0,2,19791,task3,1558075,false,false,1918,image-keyboard-response,18
true,27,1,1,1,true,z,false,true,0.0-2.0-0.62-0.559-3.559,0,1,0,90,false,stim,false,1,897.9999999997672,1,1,1,19791,task3,1560481,false,false,1921,image-keyboard-response,19
true,27,2,1,2,true,d,false,true,0.0-2.0-0.62-0.560-3.560,0,1,0,68,false,stim,false,1,867.0,1,0,2,19791,task3,1562857,false,false,1924,image-keyboard-response,20
true,27,2,1,1,false,z,false,false,0.0-2.0-0.62-0.561-3.561,0,1,0,68,false,stim,true,2,718.0000000002328,1,0,0,19791,task3,1565083,false,false,1927,image-keyboard-response,21
true,27,2,1,2,true,d,false,true,0.0-2.0-0.62-0.562-3.562,0,1,0,68,false,stim,false,1,643.0,1,0,2,19791,task3,1567235,false,false,1930,image-keyboard-response,22
true,27,2,1,1,false,z,false,false,0.0-2.0-0.62-0.563-3.563,0,1,0,68,false,stim,true,2,616.0,1,0,0,19791,task3,1569359,false,false,1933,image-keyboard-response,23
true,27,1,1,1,true,z,false,true,0.0-2.0-0.62-0.564-3.564,0,1,0,90,false,stim,false,2,762.0,1,0,0,19791,task3,1571629,false,false,1936,image-keyboard-response,24
true,27,1,1,1,true,z,false,true,0.0-2.0-0.62-0.565-3.565,0,1,0,90,false,stim,false,1,554.0,1,0,1,19791,task3,1573693,false,false,1939,image-keyboard-response,25
true,27,1,1,1,true,z,false,true,0.0-2.0-0.62-0.566-3.566,0,1,0,90,false,stim,false,1,541.0,1,0,1,19791,task3,1575742,false,false,1942,image-keyboard-response,26
true,27,2,1,2,true,d,false,true,0.0-2.0-0.63-0.567-3.567,0,1,0,68,false,stim,false,1,627.0,1,1,2,19791,task3,1577880,false,false,1945,image-keyboard-response,27
true,28,1,1,2,false,d,false,false,0.0-2.0-0.63-0.568-3.568,0,0,1,90,true,stim,true,1,716.0,1,0,0,19791,task3,1580104,false,false,1948,image-keyboard-response,1
true,28,1,1,2,false,d,false,false,0.0-2.0-0.63-0.569-3.569,0,0,1,90,false,stim,true,1,698.0,1,0,0,19791,task3,1582310,false,false,1951,image-keyboard-response,2
true,28,0,1,2,false,d,true,true,0.0-2.0-0.63-0.570-3.570,0,0,1,81,false,stim,false,1,760.0,1,0,0,19791,task3,1584580,false,true,1954,image-keyboard-response,3
true,28,2,1,2,true,d,false,true,0.0-2.0-0.63-0.571-3.571,0,0,1,68,false,stim,false,2,629.0,1,1,2,19791,task3,1586716,false,false,1957,image-keyboard-response,4
true,28,1,1,0,false,q,false,false,0.0-2.0-0.63-0.572-3.572,0,0,1,90,false,stim,true,1,1008.0,1,0,1,19791,task3,1589232,false,false,1960,image-keyboard-response,5
true,28,2,1,2,true,d,false,true,0.0-2.0-0.63-0.573-3.573,0,0,1,68,false,stim,false,2,636.0,1,1,2,19791,task3,1591376,false,false,1963,image-keyboard-response,6
true,28,1,1,0,false,q,false,false,0.0-2.0-0.63-0.574-3.574,0,0,1,90,false,stim,true,1,1193.0,1,0,1,19791,task3,1594078,false,false,1966,image-keyboard-response,7
true,28,2,1,0,false,q,true,false,0.0-2.0-0.63-0.575-3.575,0,0,1,68,false,stim,false,1,568.0,1,0,1,19791,task3,1596154,false,false,1969,image-keyboard-response,8
true,28,0,1,2,false,d,true,false,0.0-2.0-0.64-0.576-3.576,0,0,1,81,false,stim,false,1,849.0,1,0,0,19791,task3,1598513,false,false,1972,image-keyboard-response,9
true,28,2,1,2,true,d,false,true,0.0-2.0-0.64-0.577-3.577,0,0,1,68,false,stim,false,2,815.0,1,1,2,19791,task3,1600837,false,false,1975,image-keyboard-response,10
true,28,0,1,2,false,d,true,false,0.0-2.0-0.64-0.578-3.578,0,0,1,81,false,stim,false,1,735.9999999997672,1,0,0,19791,task3,1603080,false,false,1978,image-keyboard-response,11
true,28,2,1,2,true,d,false,true,0.0-2.0-0.64-0.579-3.579,0,0,1,68,false,stim,false,2,845.0,1,1,2,19791,task3,1605432,false,false,1981,image-keyboard-response,12
true,28,2,1,2,true,d,false,true,0.0-2.0-0.64-0.580-3.580,0,0,1,68,false,stim,false,2,644.0,1,1,2,19791,task3,1607585,false,false,1984,image-keyboard-response,13
true,28,2,1,0,false,q,true,false,0.0-2.0-0.64-0.581-3.581,0,0,1,68,false,stim,false,1,736.0,1,0,1,19791,task3,1609829,false,false,1987,image-keyboard-response,14
true,28,0,1,0,true,q,false,true,0.0-2.0-0.64-0.582-3.582,0,0,1,81,false,stim,false,1,632.0000000002328,1,0,1,19791,task3,1611969,false,false,1990,image-keyboard-response,15
true,28,0,1,0,true,q,false,true,0.0-2.0-0.64-0.583-3.583,0,0,1,81,false,stim,false,1,625.0,1,0,1,19791,task3,1614101,false,false,1993,image-keyboard-response,16
true,28,1,1,2,false,d,false,false,0.0-2.0-0.64-0.584-3.584,0,0,1,90,false,stim,true,1,654.0,1,0,0,19791,task3,1616263,false,false,1996,image-keyboard-response,17
true,28,2,1,2,true,d,false,true,0.0-2.0-0.65-0.585-3.585,0,0,1,68,false,stim,false,2,866.0,1,1,2,19791,task3,1618639,false,false,1999,image-keyboard-response,18
true,28,2,1,2,true,d,false,false,0.0-2.0-0.65-0.586-3.586,0,0,1,68,false,stim,false,1,1850.0,1,0,0,19791,task3,1622011,false,true,2002,image-keyboard-response,19
true,28,0,1,0,true,q,false,true,0.0-2.0-0.65-0.587-3.587,0,0,1,81,false,stim,false,1,832.0,1,0,1,19791,task3,1624353,false,false,2005,image-keyboard-response,20
true,28,2,1,2,true,d,false,true,0.0-2.0-0.65-0.588-3.588,0,0,1,68,false,stim,false,1,841.0,1,0,0,19791,task3,1626702,false,false,2008,image-keyboard-response,21
true,28,2,1,2,true,d,false,true,0.0-2.0-0.65-0.589-3.589,0,0,1,68,false,stim,false,2,723.9999999997672,1,1,2,19791,task3,1628934,false,false,2011,image-keyboard-response,22
true,28,2,1,2,true,d,false,true,0.0-2.0-0.65-0.590-3.590,0,0,1,68,false,stim,false,1,734.0,1,0,0,19791,task3,1631177,false,false,2014,image-keyboard-response,23
true,28,0,1,0,true,q,false,false,0.0-2.0-0.65-0.591-3.591,0,0,1,81,false,stim,false,1,967.0000000002328,1,0,1,19791,task3,1633652,false,true,2017,image-keyboard-response,24
true,28,0,1,0,true,q,false,true,0.0-2.0-0.65-0.592-3.592,0,0,1,81,false,stim,false,1,608.0000000002328,1,0,1,19791,task3,1635768,false,false,2020,image-keyboard-response,25
true,28,2,1,2,true,d,false,true,0.0-2.0-0.65-0.593-3.593,0,0,1,68,false,stim,false,2,796.0,1,0,2,19791,task3,1638073,false,false,2023,image-keyboard-response,26
true,28,2,1,2,true,d,false,true,0.0-2.0-0.66-0.594-3.594,0,0,1,68,false,stim,false,2,552.0000000002328,1,0,2,19791,task3,1640134,false,false,2026,image-keyboard-response,27
true,28,2,1,2,true,d,false,true,0.0-2.0-0.66-0.595-3.595,0,0,1,68,false,stim,false,2,616.9999999997672,1,0,2,19791,task3,1642260,false,false,2029,image-keyboard-response,28
true,29,2,1,2,true,d,false,true,0.0-2.0-0.66-0.596-3.596,1,0,0,68,true,stim,false,2,745.9999999997672,1,1,0,19791,task3,1644515,false,false,2032,image-keyboard-response,1
true,29,2,1,2,true,d,false,true,0.0-2.0-0.66-0.597-3.597,1,0,0,68,false,stim,false,2,564.0,1,1,0,19791,task3,1646587,false,false,2035,image-keyboard-response,2
true,29,2,1,2,true,d,false,true,0.0-2.0-0.66-0.598-3.598,1,0,0,68,false,stim,false,2,563.9999999997672,1,1,0,19791,task3,1648660,false,false,2038,image-keyboard-response,3
true,29,0,1,2,false,d,false,false,0.0-2.0-0.66-0.599-3.599,1,0,0,81,false,stim,true,0,665.0,1,0,1,19791,task3,1650833,false,false,2041,image-keyboard-response,4
true,29,0,1,2,false,d,false,false,0.0-2.0-0.66-0.600-3.600,1,0,0,81,false,stim,true,0,623.0,1,0,1,19791,task3,1652965,false,false,2044,image-keyboard-response,5
true,29,2,1,0,false,q,false,false,0.0-2.0-0.66-0.601-3.601,1,0,0,68,false,stim,true,2,699.0000000002328,1,0,2,19791,task3,1655174,false,false,2047,image-keyboard-response,6
true,29,1,1,2,false,d,true,false,0.0-2.0-0.66-0.602-3.602,1,0,0,90,false,stim,false,0,688.0,1,0,1,19791,task3,1657370,false,false,2050,image-keyboard-response,7
true,29,1,1,2,false,d,true,false,0.0-2.0-0.67-0.603-3.603,1,0,0,90,false,stim,false,0,663.0,1,0,1,19791,task3,1659542,false,false,2053,image-keyboard-response,8
true,29,2,1,2,true,d,false,true,0.0-2.0-0.67-0.604-3.604,1,0,0,68,false,stim,false,0,601.0,1,1,1,19791,task3,1661651,false,false,2056,image-keyboard-response,9
true,29,2,1,0,false,q,false,false,0.0-2.0-0.67-0.605-3.605,1,0,0,68,false,stim,true,2,753.0,1,1,2,19791,task3,1663913,false,false,2059,image-keyboard-response,10
true,29,2,1,2,true,d,false,true,0.0-2.0-0.67-0.606-3.606,1,0,0,68,false,stim,false,2,825.0,1,0,0,19791,task3,1666246,false,false,2062,image-keyboard-response,11
true,29,2,1,2,true,d,false,true,0.0-2.0-0.67-0.607-3.607,1,0,0,68,false,stim,false,2,925.0,1,0,0,19791,task3,1668681,false,false,2065,image-keyboard-response,12
true,29,2,1,2,true,d,false,true,0.0-2.0-0.67-0.608-3.608,1,0,0,68,false,stim,false,2,563.0,1,0,0,19791,task3,1670752,false,false,2068,image-keyboard-response,13
true,30,0,2,0,true,q,false,true,0.0-2.0-0.67-0.609-3.609,0,1,1,81,true,stim,false,0,847.0,1,1,2,19791,task3,1673107,false,false,2071,image-keyboard-response,1
true,30,2,2,2,true,d,false,true,0.0-2.0-0.67-0.610-3.610,0,1,1,68,false,stim,false,2,603.0,1,1,1,19791,task3,1675220,false,false,2074,image-keyboard-response,2
true,30,2,2,0,false,q,true,false,0.0-2.0-0.67-0.611-3.611,0,1,1,68,false,stim,false,0,664.0,1,1,2,19791,task3,1677392,false,false,2077,image-keyboard-response,3
true,30,2,2,0,false,q,false,false,0.0-2.0-0.68-0.612-3.612,0,1,1,68,false,stim,true,2,675.0000000002328,1,0,0,19791,task3,1679577,false,false,2080,image-keyboard-response,4
true,30,2,2,0,false,q,false,false,0.0-2.0-0.68-0.613-3.613,0,1,1,68,false,stim,true,2,813.9999999997672,1,0,0,19791,task3,1681901,false,false,2083,image-keyboard-response,5
true,30,2,2,2,true,d,false,true,0.0-2.0-0.68-0.614-3.614,0,1,1,68,false,stim,false,2,778.0,1,1,1,19791,task3,1684186,false,false,2086,image-keyboard-response,6
true,30,2,2,2,true,d,false,true,0.0-2.0-0.68-0.615-3.615,0,1,1,68,false,stim,false,2,555.0,1,0,1,19791,task3,1686249,false,false,2089,image-keyboard-response,7
