answered,blockNum,choice,condition,corResp,correct,correct_response,explo,fb,internal_node_id,isStable_1,isStable_2,isStable_3,key_press,newBlock,part,persev,persevResp,rt,sessNum,stableAS,stimulus,subject,task,time_elapsed,training,trap,trial_index,trial_type,trialsInBlock
true,1,1,0,2,false,d,true,false,0.0-2.0-0.0-0.0-3.0,0,0,0,90,true,stim,false,-1,1483.5,0,0,2,23945,task3,147206,false,false,97,image-keyboard-response,1
true,1,0,0,1,false,z,true,true,0.0-2.0-0.0-0.1-3.1,0,0,0,81,false,stim,false,-1,1023.0,0,0,1,23945,task3,149742,false,true,100,image-keyboard-response,2
true,1,0,0,1,false,z,true,false,0.0-2.0-0.0-0.2-3.2,0,0,0,81,false,stim,false,-1,514.2999999999884,0,0,1,23945,task3,151781,false,false,103,image-keyboard-response,3
true,1,2,0,2,true,d,false,true,0.0-2.0-0.0-0.3-3.3,0,0,0,68,false,stim,false,-1,1147.0999999999767,0,0,0,23945,task3,154440,false,false,106,image-keyboard-response,4
true,1,2,0,2,true,d,false,true,0.0-2.0-0.0-0.4-3.4,0,0,0,68,false,stim,false,-1,666.1000000000349,0,0,0,23945,task3,156617,false,false,109,image-keyboard-response,5
true,1,1,0,2,false,d,true,false,0.0-2.0-0.0-0.5-3.5,0,0,0,90,false,stim,false,-1,848.9000000000233,0,0,2,23945,task3,158984,false,false,112,image-keyboard-response,6
true,1,0,0,2,false,d,true,false,0.0-2.0-0.0-0.6-3.6,0,0,0,81,false,stim,false,-1,1443.7000000000116,0,0,2,23945,task3,161953,false,false,115,image-keyboard-response,7
true,1,2,0,2,true,d,false,true,0.0-2.0-0.0-0.7-3.7,0,0,0,68,false,stim,false,-1,731.9000000000233,0,0,0,23945,task3,164204,false,false,118,image-keyboard-response,8
true,1,0,0,1,false,z,true,false,0.0-2.0-0.0-0.8-3.8,0,0,0,81,false,stim,false,-1,754.4000000000233,0,0,1,23945,task3,166473,false,false,121,image-keyboard-response,9
true,1,2,0,2,true,d,false,true,0.0-2.0-0.1-0.9-3.9,0,0,0,68,false,stim,false,-1,418.5,0,0,2,23945,task3,168415,false,false,124,image-keyboard-response,10
true,1,1,0,1,true,z,false,false,0.0-2.0-0.1-0.10-3.10,0,0,0,90,false,stim,false,-1,1420.0999999999767,0,0,1,23945,task3,171350,false,true,127,image-keyboard-response,11
true,1,2,0,1,false,z,true,false,0.0-2.0-0.1-0.11-3.11,0,0,0,68,false,stim,false,-1,229.20000000001164,0,0,1,23945,task3,173091,false,false,130,image-keyboard-response,12
true,1,2,0,2,true,d,false,true,0.0-2.0-0.1-0.12-3.12,0,0,0,68,false,stim,false,-1,591.7000000000116,0,0,2,23945,task3,175195,false,false,133,image-keyboard-response,13
true,1,2,0,2,true,d,false,false,0.0-2.0-0.1-0.13-3.13,0,0,0,68,false,stim,false,-1,803.9000000000233,0,0,0,23945,task3,177508,false,true,136,image-keyboard-response,14
true,1,2,0,2,true,d,false,true,0.0-2.0-0.1-0.14-3.14,0,0,0,68,false,stim,false,-1,371.3999999999651,0,0,0,23945,task3,179389,false,false,139,image-keyboard-response,15
true,1,0,0,1,false,z,true,false,0.0-2.0-0.1-0.15-3.15,0,0,0,81,false,stim,false,-1,761.7999999999884,0,0,1,23945,task3,181664,false,false,142,image-keyboard-response,16
true,1,0,0,2,false,d,true,false,0.0-2.0-0.1-0.16-3.16,0,0,0,81,false,stim,false,-1,167.5,0,0,0,23945,task3,183347,false,false,145,image-keyboard-response,17
true,1,2,0,2,true,d,false,true,0.0-2.0-0.1-0.17-3.17,0,0,0,68,false,stim,false,-1,408.0,0,0,2,23945,task3,185269,false,false,148,image-keyboard-response,18
true,1,2,0,1,false,z,true,true,0.0-2.0-0.2-0.18-3.18,0,0,0,68,false,stim,false,-1,433.3999999999651,0,0,1,23945,task3,187211,false,true,151,image-keyboard-response,19
true,1,1,0,2,false,d,true,false,0.0-2.0-0.2-0.19-3.19,0,0,0,90,false,stim,false,-1,793.7000000000116,0,0,0,23945,task3,189522,false,false,154,image-keyboard-response,20
true,1,2,0,2,true,d,false,true,0.0-2.0-0.2-0.20-3.20,0,0,0,68,false,stim,false,-1,351.70000000001164,0,0,2,23945,task3,191394,false,false,157,image-keyboard-response,21
true,1,2,0,2,true,d,false,true,0.0-2.0-0.2-0.21-3.21,0,0,0,68,false,stim,false,-1,451.8999999999651,0,1,2,23945,task3,193364,false,false,160,image-keyboard-response,22
true,1,2,0,2,true,d,false,true,0.0-2.0-0.2-0.22-3.22,0,0,0,68,false,stim,false,-1,278.5,0,0,0,23945,task3,195152,false,false,163,image-keyboard-response,23
true,1,2,0,1,false,z,true,false,0.0-2.0-0.2-0.23-3.23,0,0,0,68,false,stim,false,-1,313.79999999998836,0,1,1,23945,task3,196979,false,false,166,image-keyboard-response,24
true,1,2,0,2,true,d,false,true,0.0-2.0-0.2-0.24-3.24,0,0,0,68,false,stim,false,-1,695.0999999999767,0,1,2,23945,task3,199192,false,false,169,image-keyboard-response,25
true,1,2,0,1,false,z,true,false,0.0-2.0-0.2-0.25-3.25,0,0,0,68,false,stim,false,-1,594.6000000000349,0,1,1,23945,task3,201307,false,false,172,image-keyboard-response,26
true,2,2,2,1,false,z,false,false,0.0-2.0-0.2-0.26-3.26,0,1,1,68,true,stim,true,2,573.8999999999651,0,0,0,23945,task3,203394,false,false,175,image-keyboard-response,1
true,2,2,2,2,true,d,false,true,0.0-2.0-0.3-0.27-3.27,0,1,1,68,false,stim,false,2,821.5999999999767,0,1,2,23945,task3,205731,false,false,178,image-keyboard-response,2
true,2,1,2,1,true,z,false,true,0.0-2.0-0.3-0.28-3.28,0,1,1,90,false,stim,false,2,456.79999999998836,0,0,0,23945,task3,207711,false,false,181,image-keyboard-response,3
true,2,2,2,2,true,d,false,true,0.0-2.0-0.3-0.29-3.29,0,1,1,68,false,stim,false,2,624.7999999999884,0,1,2,23945,task3,209857,false,false,184,image-keyboard-response,4
true,2,1,2,1,true,z,false,true,0.0-2.0-0.3-0.30-3.30,0,1,1,90,false,stim,false,2,360.5999999999767,0,0,0,23945,task3,211734,false,false,187,image-keyboard-response,5
true,2,1,2,1,true,z,false,true,0.0-2.0-0.3-0.31-3.31,0,1,1,90,false,stim,false,1,628.8999999999651,0,1,1,23945,task3,213871,false,false,190,image-keyboard-response,6
true,2,1,2,1,true,z,false,true,0.0-2.0-0.3-0.32-3.32,0,1,1,90,false,stim,false,1,570.7999999999884,0,1,1,23945,task3,215954,false,false,193,image-keyboard-response,7
true,2,1,2,1,true,z,false,true,0.0-2.0-0.3-0.33-3.33,0,1,1,90,false,stim,false,2,634.2000000000116,0,0,0,23945,task3,218108,false,false,196,image-keyboard-response,8
true,2,2,2,2,true,d,false,true,0.0-2.0-0.3-0.34-3.34,0,1,1,68,false,stim,false,2,490.4000000000233,0,1,2,23945,task3,220121,false,false,199,image-keyboard-response,9
true,2,1,2,1,true,z,false,false,0.0-2.0-0.3-0.35-3.35,0,1,1,90,false,stim,false,1,674.5,0,1,1,23945,task3,222313,false,true,202,image-keyboard-response,10
true,2,2,2,2,true,d,false,true,0.0-2.0-0.4-0.36-3.36,0,1,1,68,false,stim,false,2,601.9000000000233,0,1,2,23945,task3,224428,false,false,205,image-keyboard-response,11
true,2,0,2,1,false,z,true,false,0.0-2.0-0.4-0.37-3.37,0,1,1,81,false,stim,false,1,1541.2999999999884,0,0,1,23945,task3,227490,false,false,208,image-keyboard-response,12
true,2,1,2,1,true,z,false,true,0.0-2.0-0.4-0.38-3.38,0,1,1,90,false,stim,false,2,1055.7000000000116,0,1,0,23945,task3,230061,false,false,211,image-keyboard-response,13
true,2,1,2,1,true,z,false,true,0.0-2.0-0.4-0.39-3.39,0,1,1,90,false,stim,false,1,391.29999999998836,0,0,1,23945,task3,231977,false,false,214,image-keyboard-response,14
true,2,1,2,1,true,z,false,true,0.0-2.0-0.4-0.40-3.40,0,1,1,90,false,stim,false,2,714.2000000000116,0,1,0,23945,task3,234205,false,false,217,image-keyboard-response,15
true,3,2,2,2,true,d,false,true,0.0-2.0-0.4-0.41-3.41,1,0,1,68,true,stim,false,2,867.9000000000233,0,1,2,23945,task3,236594,false,false,220,image-keyboard-response,1
true,3,2,2,2,true,d,false,true,0.0-2.0-0.4-0.42-3.42,1,0,1,68,false,stim,false,2,593.0,0,1,2,23945,task3,238694,false,false,223,image-keyboard-response,2
true,3,1,2,1,true,z,false,true,0.0-2.0-0.4-0.43-3.43,1,0,1,90,false,stim,false,1,870.2000000000116,0,1,0,23945,task3,241074,false,false,226,image-keyboard-response,3
true,3,1,2,2,false,d,false,false,0.0-2.0-0.4-0.44-3.44,1,0,1,90,false,stim,true,1,548.0,0,0,1,23945,task3,243139,false,false,229,image-keyboard-response,4
true,3,1,2,1,true,z,false,true,0.0-2.0-0.5-0.45-3.45,1,0,1,90,false,stim,false,1,853.7999999999884,0,1,0,23945,task3,245506,false,false,232,image-keyboard-response,5
true,3,1,2,1,true,z,false,true,0.0-2.0-0.5-0.46-3.46,1,0,1,90,false,stim,false,1,520.6000000000349,0,1,0,23945,task3,247549,false,false,235,image-keyboard-response,6
true,3,1,2,1,true,z,false,true,0.0-2.0-0.5-0.47-3.47,1,0,1,90,false,stim,false,1,525.7999999999884,0,1,0,23945,task3,249645,false,false,238,image-keyboard-response,7
true,3,1,2,2,false,d,false,false,0.0-2.0-0.5-0.48-3.48,1,0,1,90,false,stim,true,1,646.3999999999651,0,0,1,23945,task3,251808,false,false,241,image-keyboard-response,8
true,3,2,2,2,true,d,false,true,0.0-2.0-0.5-0.49-3.49,1,0,1,68,false,stim,false,2,501.80000000004657,0,1,2,23945,task3,253836,false,false,244,image-keyboard-response,9
true,3,2,2,2,true,d,false,true,0.0-2.0-0.5-0.50-3.50,1,0,1,68,false,stim,false,2,459.1000000000349,0,1,2,23945,task3,255803,false,false,247,image-keyboard-response,10
true,3,2,2,2,true,d,false,true,0.0-2.0-0.5-0.51-3.51,1,0,1,68,false,stim,false,2,416.5999999999767,0,1,2,23945,task3,257741,false,false,250,image-keyboard-response,11
true,3,0,2,2,false,d,true,false,0.0-2.0-0.5-0.52-3.52,1,0,1,81,false,stim,false,1,1379.5999999999767,0,0,1,23945,task3,260639,false,false,253,image-keyboard-response,12
true,3,2,2,2,true,d,false,false,0.0-2.0-0.5-0.53-3.53,1,0,1,68,false,stim,false,1,348.20000000001164,0,0,1,23945,task3,262510,false,true,256,image-keyboard-response,13
true,3,1,2,1,true,z,false,true,0.0-2.0-0.6-0.54-3.54,1,0,1,90,false,stim,false,1,569.4000000000233,0,1,0,23945,task3,264598,false,false,259,image-keyboard-response,14
true,3,2,2,2,true,d,false,false,0.0-2.0-0.6-0.55-3.55,1,0,1,68,false,stim,false,2,452.79999999998836,0,1,2,23945,task3,266572,false,true,262,image-keyboard-response,15
true,3,1,2,2,false,d,false,false,0.0-2.0-0.6-0.56-3.56,1,0,1,90,false,stim,true,1,1091.2000000000116,0,0,1,23945,task3,269169,false,false,265,image-keyboard-response,16
true,3,2,2,2,true,d,false,true,0.0-2.0-0.6-0.57-3.57,1,0,1,68,false,stim,false,2,536.5,0,1,2,23945,task3,271229,false,false,268,image-keyboard-response,17
true,3,2,2,2,true,d,false,true,0.0-2.0-0.6-0.58-3.58,1,0,1,68,false,stim,false,2,776.2000000000116,0,1,2,23945,task3,273523,false,false,271,image-keyboard-response,18
true,3,1,2,1,true,z,false,true,0.0-2.0-0.6-0.59-3.59,1,0,1,90,false,stim,false,1,892.3999999999651,0,1,0,23945,task3,275938,false,false,274,image-keyboard-response,19
true,3,1,2,1,true,z,false,false,0.0-2.0-0.6-0.60-3.60,1,0,1,90,false,stim,false,1,503.0999999999767,0,1,0,23945,task3,277957,false,true,277,image-keyboard-response,20
true,3,1,2,2,false,d,false,false,0.0-2.0-0.6-0.61-3.61,1,0,1,90,false,stim,true,1,778.3999999999651,0,0,1,23945,task3,280244,false,false,280,image-keyboard-response,21
true,3,2,2,2,true,d,false,true,0.0-2.0-0.6-0.62-3.62,1,0,1,68,false,stim,false,1,936.2999999999884,0,0,1,23945,task3,282697,false,false,283,image-keyboard-response,22
true,3,2,2,2,true,d,false,true,0.0-2.0-0.7-0.63-3.63,1,0,1,68,false,stim,false,1,466.79999999998836,0,0,1,23945,task3,284685,false,false,286,image-keyboard-response,23
true,3,2,2,2,true,d,false,true,0.0-2.0-0.7-0.64-3.64,1,0,1,68,false,stim,false,1,448.20000000001164,0,0,1,23945,task3,286647,false,false,289,image-keyboard-response,24
true,3,2,2,2,true,d,false,true,0.0-2.0-0.7-0.65-3.65,1,0,1,68,false,stim,false,2,760.0,0,1,2,23945,task3,288924,false,false,292,image-keyboard-response,25
true,3,0,2,1,false,z,true,false,0.0-2.0-0.7-0.66-3.66,1,0,1,81,false,stim,false,1,1168.5999999999767,0,1,0,23945,task3,291612,false,false,295,image-keyboard-response,26
true,3,2,2,2,true,d,false,true,0.0-2.0-0.7-0.67-3.67,1,0,1,68,false,stim,false,2,686.2000000000116,0,1,2,23945,task3,293816,false,false,298,image-keyboard-response,27
true,3,2,2,1,false,z,true,false,0.0-2.0-0.7-0.68-3.68,1,0,1,68,false,stim,false,1,1315.600000000035,0,0,0,23945,task3,296650,false,false,301,image-keyboard-response,28
true,3,2,2,2,true,d,false,true,0.0-2.0-0.7-0.69-3.69,1,0,1,68,false,stim,false,2,727.2000000000116,0,1,2,23945,task3,298900,false,false,304,image-keyboard-response,29
true,3,1,2,1,true,z,false,true,0.0-2.0-0.7-0.70-3.70,1,0,1,90,false,stim,false,1,559.5999999999767,0,0,0,23945,task3,300980,false,false,307,image-keyboard-response,30
true,3,2,2,2,true,d,false,true,0.0-2.0-0.7-0.71-3.71,1,0,1,68,false,stim,false,1,341.79999999998836,0,0,1,23945,task3,302840,false,false,310,image-keyboard-response,31
true,4,2,1,2,true,d,false,true,0.0-2.0-0.8-0.72-3.72,0,0,1,68,true,stim,false,2,386.3999999999651,0,1,2,23945,task3,304751,false,false,313,image-keyboard-response,1
true,4,2,1,2,true,d,false,true,0.0-2.0-0.8-0.73-3.73,0,0,1,68,false,stim,false,2,341.0,0,1,2,23945,task3,306607,false,false,316,image-keyboard-response,2
true,4,2,1,0,false,q,false,true,0.0-2.0-0.8-0.74-3.74,0,0,1,68,false,stim,true,2,661.0999999999767,0,0,1,23945,task3,308836,false,true,319,image-keyboard-response,3
true,4,2,1,0,false,q,false,false,0.0-2.0-0.8-0.75-3.75,0,0,1,68,false,stim,true,2,568.6000000000349,0,0,1,23945,task3,310914,false,false,322,image-keyboard-response,4
true,4,1,1,2,false,d,false,false,0.0-2.0-0.8-0.76-3.76,0,0,1,90,false,stim,true,1,1995.2999999999884,0,0,0,23945,task3,314417,false,false,325,image-keyboard-response,5
true,4,1,1,2,false,d,false,false,0.0-2.0-0.8-0.77-3.77,0,0,1,90,false,stim,true,1,683.7999999999884,0,0,0,23945,task3,316620,false,false,328,image-keyboard-response,6
true,4,0,1,2,false,d,true,false,0.0-2.0-0.8-0.78-3.78,0,0,1,81,false,stim,false,1,773.2000000000116,0,0,0,23945,task3,318918,false,false,331,image-keyboard-response,7
true,4,2,1,2,true,d,false,true,0.0-2.0-0.8-0.79-3.79,0,0,1,68,false,stim,false,2,601.0999999999767,0,1,2,23945,task3,321043,false,false,334,image-keyboard-response,8
true,4,1,1,0,false,q,true,false,0.0-2.0-0.8-0.80-3.80,0,0,1,90,false,stim,false,2,626.7999999999884,0,0,1,23945,task3,323190,false,false,337,image-keyboard-response,9
true,4,2,1,0,false,q,false,false,0.0-2.0-0.9-0.81-3.81,0,0,1,68,false,stim,true,2,668.5,0,0,1,23945,task3,325372,false,false,340,image-keyboard-response,10
true,4,0,1,2,false,d,true,false,0.0-2.0-0.9-0.82-3.82,0,0,1,81,false,stim,false,1,1392.7000000000116,0,0,0,23945,task3,328277,false,false,343,image-keyboard-response,11
true,4,0,1,0,true,q,false,true,0.0-2.0-0.9-0.83-3.83,0,0,1,81,false,stim,false,2,736.4000000000233,0,0,1,23945,task3,330538,false,false,346,image-keyboard-response,12
true,4,2,1,2,true,d,false,false,0.0-2.0-0.9-0.84-3.84,0,0,1,68,false,stim,false,1,423.19999999995343,0,0,0,23945,task3,332480,false,true,349,image-keyboard-response,13
true,4,2,1,2,true,d,false,true,0.0-2.0-0.9-0.85-3.85,0,0,1,68,false,stim,false,2,660.9000000000233,0,1,2,23945,task3,334667,false,false,352,image-keyboard-response,14
true,4,2,1,2,true,d,false,true,0.0-2.0-0.9-0.86-3.86,0,0,1,68,false,stim,false,2,741.5,0,1,2,23945,task3,336921,false,false,355,image-keyboard-response,15
true,4,2,1,2,true,d,false,true,0.0-2.0-0.9-0.87-3.87,0,0,1,68,false,stim,false,2,532.8999999999651,0,1,2,23945,task3,338969,false,false,358,image-keyboard-response,16
true,4,0,1,2,false,d,true,false,0.0-2.0-0.9-0.88-3.88,0,0,1,81,false,stim,false,1,804.7999999999884,0,0,0,23945,task3,341296,false,false,361,image-keyboard-response,17
true,4,0,1,0,true,q,false,true,0.0-2.0-0.9-0.89-3.89,0,0,1,81,false,stim,false,2,779.8999999999651,0,0,1,23945,task3,343590,false,false,364,image-keyboard-response,18
true,4,2,1,2,true,d,false,true,0.0-2.0-0.10-0.90-3.90,0,0,1,68,false,stim,false,1,617.2000000000116,0,0,0,23945,task3,345723,false,false,367,image-keyboard-response,19
true,4,0,1,0,true,q,false,true,0.0-2.0-0.10-0.91-3.91,0,0,1,81,false,stim,false,2,1691.2999999999884,0,0,1,23945,task3,348934,false,false,370,image-keyboard-response,20
true,4,2,1,2,true,d,false,true,0.0-2.0-0.10-0.92-3.92,0,0,1,68,false,stim,false,2,639.5,0,1,2,23945,task3,351099,false,false,373,image-keyboard-response,21
true,4,0,1,0,true,q,false,true,0.0-2.0-0.10-0.93-3.93,0,0,1,81,false,stim,false,2,958.0,0,0,1,23945,task3,353574,false,false,376,image-keyboard-response,22
true,4,2,1,2,true,d,false,true,0.0-2.0-0.10-0.94-3.94,0,0,1,68,false,stim,false,1,376.69999999995343,0,0,0,23945,task3,355467,false,false,379,image-keyboard-response,23
true,4,0,1,0,true,q,false,true,0.0-2.0-0.10-0.95-3.95,0,0,1,81,false,stim,false,2,628.3000000000466,0,1,1,23945,task3,357605,false,false,382,image-keyboard-response,24
true,4,2,1,2,true,d,false,true,0.0-2.0-0.10-0.96-3.96,0,0,1,68,false,stim,false,2,573.3999999999651,0,1,2,23945,task3,359690,false,false,385,image-keyboard-response,25
true,4,2,1,2,true,d,false,true,0.0-2.0-0.10-0.97-3.97,0,0,1,68,false,stim,false,2,661.7000000000116,0,1,2,23945,task3,361871,false,false,388,image-keyboard-response,26
true,4,2,1,2,true,d,false,true,0.0-2.0-0.10-0.98-3.98,0,0,1,68,false,stim,false,1,670.6000000000349,0,0,0,23945,task3,364051,false,false,391,image-keyboard-response,27
true,4,2,1,2,true,d,false,true,0.0-2.0-0.11-0.99-3.99,0,0,1,68,false,stim,false,1,624.0999999999767,0,0,0,23945,task3,366189,false,false,394,image-keyboard-response,28
true,5,2,2,2,true,d,false,true,0.0-2.0-0.11-0.100-3.100,0,1,1,68,true,stim,false,2,781.4000000000233,0,1,2,23945,task3,368485,false,false,397,image-keyboard-response,1
true,5,0,2,0,true,q,false,true,0.0-2.0-0.11-0.101-3.101,0,1,1,81,false,stim,false,0,463.70000000001164,0,1,1,23945,task3,370513,false,false,400,image-keyboard-response,2
true,5,0,2,0,true,q,false,true,0.0-2.0-0.11-0.102-3.102,0,1,1,81,false,stim,false,0,419.0999999999767,0,1,1,23945,task3,372447,false,false,403,image-keyboard-response,3
true,5,2,2,2,true,d,false,false,0.0-2.0-0.11-0.103-3.103,0,1,1,68,false,stim,false,2,617.0999999999767,0,1,2,23945,task3,374577,false,true,406,image-keyboard-response,4
true,5,0,2,0,true,q,false,true,0.0-2.0-0.11-0.104-3.104,0,1,1,81,false,stim,false,0,644.6999999999534,0,1,1,23945,task3,376741,false,false,409,image-keyboard-response,5
true,5,2,2,2,true,d,false,true,0.0-2.0-0.11-0.105-3.105,0,1,1,68,false,stim,false,2,355.19999999995343,0,1,2,23945,task3,378608,false,false,412,image-keyboard-response,6
true,5,2,2,1,false,z,false,false,0.0-2.0-0.11-0.106-3.106,0,1,1,68,false,stim,true,2,587.6999999999534,0,0,0,23945,task3,380709,false,false,415,image-keyboard-response,7
true,5,2,2,1,false,z,false,false,0.0-2.0-0.11-0.107-3.107,0,1,1,68,false,stim,true,2,395.5999999999767,0,0,0,23945,task3,382623,false,false,418,image-keyboard-response,8
true,5,0,2,0,true,q,false,true,0.0-2.0-0.12-0.108-3.108,0,1,1,81,false,stim,false,0,716.5999999999767,0,0,1,23945,task3,384860,false,false,421,image-keyboard-response,9
true,5,0,2,1,false,z,true,false,0.0-2.0-0.12-0.109-3.109,0,1,1,81,false,stim,false,2,862.1000000000931,0,1,0,23945,task3,387238,false,false,424,image-keyboard-response,10
true,5,2,2,2,true,d,false,true,0.0-2.0-0.12-0.110-3.110,0,1,1,68,false,stim,false,2,836.8000000000466,0,0,2,23945,task3,389591,false,false,427,image-keyboard-response,11
true,5,0,2,0,true,q,false,true,0.0-2.0-0.12-0.111-3.111,0,1,1,81,false,stim,false,0,590.1999999999534,0,0,1,23945,task3,391701,false,false,430,image-keyboard-response,12
true,5,2,2,2,true,d,false,true,0.0-2.0-0.12-0.112-3.112,0,1,1,68,false,stim,false,2,810.1000000000931,0,0,2,23945,task3,394025,false,false,433,image-keyboard-response,13
true,6,1,1,1,true,z,false,true,0.0-2.0-0.12-0.113-3.113,1,0,0,90,true,stim,false,1,404.30000000004657,0,1,0,23945,task3,395951,false,false,436,image-keyboard-response,1
true,6,1,1,1,true,z,false,true,0.0-2.0-0.12-0.114-3.114,1,0,0,90,false,stim,false,1,604.5999999999767,0,1,0,23945,task3,398066,false,false,439,image-keyboard-response,2
true,6,2,1,1,false,z,false,false,0.0-2.0-0.12-0.115-3.115,1,0,0,68,false,stim,true,2,531.1999999999534,0,0,2,23945,task3,400113,false,false,442,image-keyboard-response,3
true,6,0,1,2,false,d,false,false,0.0-2.0-0.12-0.116-3.116,1,0,0,81,false,stim,true,0,602.3000000000466,0,0,1,23945,task3,402231,false,false,445,image-keyboard-response,4
true,6,2,1,1,false,z,false,false,0.0-2.0-0.13-0.117-3.117,1,0,0,68,false,stim,true,2,719.1999999999534,0,0,2,23945,task3,404473,false,false,448,image-keyboard-response,5
true,6,1,1,2,false,d,true,true,0.0-2.0-0.13-0.118-3.118,1,0,0,90,false,stim,false,0,1303.5999999999767,0,0,1,23945,task3,407293,false,true,451,image-keyboard-response,6
true,6,0,1,1,false,z,true,false,0.0-2.0-0.13-0.119-3.119,1,0,0,81,false,stim,false,2,435.19999999995343,0,0,2,23945,task3,409247,false,false,454,image-keyboard-response,7
true,6,1,1,2,false,d,true,false,0.0-2.0-0.13-0.120-3.120,1,0,0,90,false,stim,false,0,519.0,0,0,1,23945,task3,411276,false,false,457,image-keyboard-response,8
true,6,1,1,1,true,z,false,true,0.0-2.0-0.13-0.121-3.121,1,0,0,90,false,stim,false,1,683.5,0,1,0,23945,task3,413468,false,false,460,image-keyboard-response,9
true,6,1,1,1,true,z,false,true,0.0-2.0-0.13-0.122-3.122,1,0,0,90,false,stim,false,2,857.4000000000233,0,0,2,23945,task3,415846,false,false,463,image-keyboard-response,10
true,6,1,1,1,true,z,false,true,0.0-2.0-0.13-0.123-3.123,1,0,0,90,false,stim,false,1,615.0999999999767,0,1,0,23945,task3,417980,false,false,466,image-keyboard-response,11
true,6,1,1,2,false,d,true,false,0.0-2.0-0.13-0.124-3.124,1,0,0,90,false,stim,false,0,424.19999999995343,0,0,1,23945,task3,419926,false,false,469,image-keyboard-response,12
true,6,1,1,1,true,z,false,true,0.0-2.0-0.13-0.125-3.125,1,0,0,90,false,stim,false,1,523.3000000000466,0,1,0,23945,task3,421961,false,false,472,image-keyboard-response,13
true,6,1,1,1,true,z,false,true,0.0-2.0-0.14-0.126-3.126,1,0,0,90,false,stim,false,2,707.6999999999534,0,0,2,23945,task3,424192,false,false,475,image-keyboard-response,14
true,6,2,1,2,true,d,false,true,0.0-2.0-0.14-0.127-3.127,1,0,0,68,false,stim,false,0,624.0999999999767,0,0,1,23945,task3,426342,false,false,478,image-keyboard-response,15
true,6,1,1,1,true,z,false,true,0.0-2.0-0.14-0.128-3.128,1,0,0,90,false,stim,false,2,373.0,0,0,2,23945,task3,428230,false,false,481,image-keyboard-response,16
true,6,2,1,2,true,d,false,true,0.0-2.0-0.14-0.129-3.129,1,0,0,68,false,stim,false,0,802.9000000000233,0,0,1,23945,task3,430589,false,false,484,image-keyboard-response,17
true,6,1,1,1,true,z,false,true,0.0-2.0-0.14-0.130-3.130,1,0,0,90,false,stim,false,1,1621.1999999999534,0,1,0,23945,task3,433720,false,false,487,image-keyboard-response,18
true,6,1,1,1,true,z,false,true,0.0-2.0-0.14-0.131-3.131,1,0,0,90,false,stim,false,1,819.6999999999534,0,1,0,23945,task3,436058,false,false,490,image-keyboard-response,19
true,6,1,1,1,true,z,false,false,0.0-2.0-0.14-0.132-3.132,1,0,0,90,false,stim,false,2,1359.3999999999069,0,0,2,23945,task3,438941,false,true,493,image-keyboard-response,20
true,6,1,1,1,true,z,false,true,0.0-2.0-0.14-0.133-3.133,1,0,0,90,false,stim,false,1,733.3999999999069,0,1,0,23945,task3,441202,false,false,496,image-keyboard-response,21
true,6,2,1,2,true,d,false,false,0.0-2.0-0.14-0.134-3.134,1,0,0,68,false,stim,false,0,574.2000000000698,0,0,1,23945,task3,443289,false,true,499,image-keyboard-response,22
true,6,0,1,2,false,d,false,false,0.0-2.0-0.15-0.135-3.135,1,0,0,81,false,stim,true,0,1467.3000000000466,0,0,1,23945,task3,446274,false,false,502,image-keyboard-response,23
true,6,1,1,1,true,z,false,true,0.0-2.0-0.15-0.136-3.136,1,0,0,90,false,stim,false,1,527.1999999999534,0,1,0,23945,task3,448313,false,false,505,image-keyboard-response,24
true,6,1,1,1,true,z,false,true,0.0-2.0-0.15-0.137-3.137,1,0,0,90,false,stim,false,1,472.70000000006985,0,1,0,23945,task3,450299,false,false,508,image-keyboard-response,25
true,6,2,1,1,false,z,false,false,0.0-2.0-0.15-0.138-3.138,1,0,0,68,false,stim,true,2,885.1000000000931,0,0,2,23945,task3,452705,false,false,511,image-keyboard-response,26
true,6,1,1,2,false,d,true,false,0.0-2.0-0.15-0.139-3.139,1,0,0,90,false,stim,false,0,1364.8000000000466,0,1,1,23945,task3,455593,false,false,514,image-keyboard-response,27
true,6,0,1,1,false,z,true,false,0.0-2.0-0.15-0.140-3.140,1,0,0,81,false,stim,false,2,838.2999999999302,0,0,2,23945,task3,457948,false,false,517,image-keyboard-response,28
true,6,1,1,1,true,z,false,false,0.0-2.0-0.15-0.141-3.141,1,0,0,90,false,stim,false,1,1454.1999999999534,0,0,0,23945,task3,460920,false,true,520,image-keyboard-response,29
true,6,2,1,2,true,d,false,true,0.0-2.0-0.15-0.142-3.142,1,0,0,68,false,stim,false,0,1398.5,0,1,1,23945,task3,463836,false,false,523,image-keyboard-response,30
true,7,1,1,0,false,q,false,true,0.0-2.0-0.15-0.143-3.143,0,1,0,90,true,stim,true,1,586.3000000000466,0,0,2,23945,task3,465936,false,true,526,image-keyboard-response,1
true,7,1,1,2,false,d,false,false,0.0-2.0-0.16-0.144-3.144,0,1,0,90,false,stim,true,1,412.10000000009313,0,0,0,23945,task3,467865,false,false,529,image-keyboard-response,2
true,7,2,1,2,true,d,false,true,0.0-2.0-0.16-0.145-3.145,0,1,0,68,false,stim,false,1,416.9000000000233,0,0,0,23945,task3,469803,false,false,532,image-keyboard-response,3
true,7,2,1,2,true,d,false,true,0.0-2.0-0.16-0.146-3.146,0,1,0,68,false,stim,false,2,659.5,0,1,1,23945,task3,471972,false,false,535,image-keyboard-response,4
true,7,2,1,2,true,d,false,true,0.0-2.0-0.16-0.147-3.147,0,1,0,68,false,stim,false,2,373.4000000000233,0,1,1,23945,task3,473866,false,false,538,image-keyboard-response,5
true,7,2,1,2,true,d,false,true,0.0-2.0-0.16-0.148-3.148,0,1,0,68,false,stim,false,1,952.1999999999534,0,0,0,23945,task3,476327,false,false,541,image-keyboard-response,6
true,7,1,1,0,false,q,false,false,0.0-2.0-0.16-0.149-3.149,0,1,0,90,false,stim,true,1,792.5,0,0,2,23945,task3,478638,false,false,544,image-keyboard-response,7
true,7,2,1,2,true,d,false,true,0.0-2.0-0.16-0.150-3.150,0,1,0,68,false,stim,false,2,511.80000000004657,0,1,1,23945,task3,480674,false,false,547,image-keyboard-response,8
true,7,1,1,0,false,q,false,false,0.0-2.0-0.16-0.151-3.151,0,1,0,90,false,stim,true,1,394.9000000000233,0,0,2,23945,task3,482587,false,false,550,image-keyboard-response,9
true,7,0,1,0,true,q,false,true,0.0-2.0-0.16-0.152-3.152,0,1,0,81,false,stim,false,1,414.0999999999767,0,0,2,23945,task3,484522,false,false,553,image-keyboard-response,10
true,7,2,1,2,true,d,false,true,0.0-2.0-0.17-0.153-3.153,0,1,0,68,false,stim,false,1,589.5,0,0,0,23945,task3,486631,false,false,556,image-keyboard-response,11
true,7,0,1,0,true,q,false,true,0.0-2.0-0.17-0.154-3.154,0,1,0,81,false,stim,false,1,442.70000000006985,0,0,2,23945,task3,488592,false,false,559,image-keyboard-response,12
true,7,0,1,0,true,q,false,true,0.0-2.0-0.17-0.155-3.155,0,1,0,81,false,stim,false,1,501.30000000004657,0,0,2,23945,task3,490657,false,false,562,image-keyboard-response,13
true,7,2,1,2,true,d,false,true,0.0-2.0-0.17-0.156-3.156,0,1,0,68,false,stim,false,2,547.9000000000233,0,1,1,23945,task3,492717,false,false,565,image-keyboard-response,14
true,7,0,1,0,true,q,false,true,0.0-2.0-0.17-0.157-3.157,0,1,0,81,false,stim,false,1,507.5,0,0,2,23945,task3,494739,false,false,568,image-keyboard-response,15
true,7,2,1,2,true,d,false,true,0.0-2.0-0.17-0.158-3.158,0,1,0,68,false,stim,false,2,642.6000000000931,0,1,1,23945,task3,496893,false,false,571,image-keyboard-response,16
true,7,2,1,2,true,d,false,false,0.0-2.0-0.17-0.159-3.159,0,1,0,68,false,stim,false,1,412.30000000004657,0,0,0,23945,task3,498820,false,true,574,image-keyboard-response,17
true,7,2,1,2,true,d,false,true,0.0-2.0-0.17-0.160-3.160,0,1,0,68,false,stim,false,1,362.80000000004657,0,0,0,23945,task3,500692,false,false,577,image-keyboard-response,18
true,7,2,1,2,true,d,false,true,0.0-2.0-0.17-0.161-3.161,0,1,0,68,false,stim,false,2,1147.3999999999069,0,1,1,23945,task3,503348,false,false,580,image-keyboard-response,19
true,7,0,1,0,true,q,false,true,0.0-2.0-0.18-0.162-3.162,0,1,0,81,false,stim,false,1,696.5999999999767,0,0,2,23945,task3,505561,false,false,583,image-keyboard-response,20
true,7,2,1,2,true,d,false,true,0.0-2.0-0.18-0.163-3.163,0,1,0,68,false,stim,false,1,600.5999999999767,0,0,0,23945,task3,507683,false,false,586,image-keyboard-response,21
true,7,2,1,2,true,d,false,true,0.0-2.0-0.18-0.164-3.164,0,1,0,68,false,stim,false,2,1289.0,0,1,1,23945,task3,510496,false,false,589,image-keyboard-response,22
true,7,2,1,2,true,d,false,true,0.0-2.0-0.18-0.165-3.165,0,1,0,68,false,stim,false,2,953.0,0,1,1,23945,task3,512966,false,false,592,image-keyboard-response,23
true,7,2,1,2,true,d,false,true,0.0-2.0-0.18-0.166-3.166,0,1,0,68,false,stim,false,1,604.5,0,0,0,23945,task3,515083,false,false,595,image-keyboard-response,24
true,7,2,1,2,true,d,false,true,0.0-2.0-0.18-0.167-3.167,0,1,0,68,false,stim,false,1,490.5,0,0,0,23945,task3,517091,false,false,598,image-keyboard-response,25
true,7,0,1,0,true,q,false,false,0.0-2.0-0.18-0.168-3.168,0,1,0,81,false,stim,false,1,430.0,0,0,2,23945,task3,519033,false,true,601,image-keyboard-response,26
true,8,2,1,2,true,d,false,true,0.0-2.0-0.18-0.169-3.169,0,1,0,68,true,stim,false,2,602.5999999999767,0,1,1,23945,task3,521156,false,false,604,image-keyboard-response,1
true,8,0,1,1,false,z,false,false,0.0-2.0-0.18-0.170-3.170,0,1,0,81,false,stim,true,0,344.5999999999185,0,0,2,23945,task3,523011,false,false,607,image-keyboard-response,2
true,8,2,1,2,true,d,false,true,0.0-2.0-0.19-0.171-3.171,0,1,0,68,false,stim,false,2,791.5999999998603,0,1,1,23945,task3,525326,false,false,610,image-keyboard-response,3
true,8,2,1,2,true,d,false,true,0.0-2.0-0.19-0.172-3.172,0,1,0,68,false,stim,false,2,578.9000000001397,0,1,1,23945,task3,527426,false,false,613,image-keyboard-response,4
true,8,1,1,1,true,z,false,true,0.0-2.0-0.19-0.173-3.173,0,1,0,90,false,stim,false,0,634.8000000000466,0,0,2,23945,task3,529571,false,false,616,image-keyboard-response,5
true,8,2,1,0,false,q,false,false,0.0-2.0-0.19-0.174-3.174,0,1,0,68,false,stim,true,2,767.1000000000931,0,0,0,23945,task3,531857,false,false,619,image-keyboard-response,6
true,8,2,1,0,false,q,false,false,0.0-2.0-0.19-0.175-3.175,0,1,0,68,false,stim,true,2,396.19999999995343,0,0,0,23945,task3,533768,false,false,622,image-keyboard-response,7
true,8,1,1,1,true,z,false,true,0.0-2.0-0.19-0.176-3.176,0,1,0,90,false,stim,false,0,1003.2000000001863,0,0,2,23945,task3,536297,false,false,625,image-keyboard-response,8
true,8,2,1,2,true,d,false,true,0.0-2.0-0.19-0.177-3.177,0,1,0,68,false,stim,false,2,395.0,0,1,1,23945,task3,538207,false,false,628,image-keyboard-response,9
true,8,1,1,1,true,z,false,true,0.0-2.0-0.19-0.178-3.178,0,1,0,90,false,stim,false,0,723.6999999999534,0,0,2,23945,task3,540452,false,false,631,image-keyboard-response,10
true,8,1,1,0,false,q,true,true,0.0-2.0-0.19-0.179-3.179,0,1,0,90,false,stim,false,2,316.60000000009313,0,0,0,23945,task3,542294,false,true,634,image-keyboard-response,11
true,8,1,1,1,true,z,false,true,0.0-2.0-0.20-0.180-3.180,0,1,0,90,false,stim,false,0,620.3999999999069,0,0,2,23945,task3,544435,false,false,637,image-keyboard-response,12
true,8,2,1,2,true,d,false,true,0.0-2.0-0.20-0.181-3.181,0,1,0,68,false,stim,false,2,564.4000000001397,0,1,1,23945,task3,546517,false,false,640,image-keyboard-response,13
true,8,1,1,1,true,z,false,true,0.0-2.0-0.20-0.182-3.182,0,1,0,90,false,stim,false,0,598.2999999998137,0,0,2,23945,task3,548627,false,false,643,image-keyboard-response,14
true,8,1,1,0,false,q,true,false,0.0-2.0-0.20-0.183-3.183,0,1,0,90,false,stim,false,2,704.8000000000466,0,0,0,23945,task3,550853,false,false,646,image-keyboard-response,15
true,8,1,1,1,true,z,false,true,0.0-2.0-0.20-0.184-3.184,0,1,0,90,false,stim,false,0,477.60000000009313,0,0,2,23945,task3,552845,false,false,649,image-keyboard-response,16
true,8,1,1,0,false,q,true,false,0.0-2.0-0.20-0.185-3.185,0,1,0,90,false,stim,false,2,365.89999999990687,0,0,0,23945,task3,554732,false,false,652,image-keyboard-response,17
true,8,2,1,2,true,d,false,false,0.0-2.0-0.20-0.186-3.186,0,1,0,68,false,stim,false,2,606.0,0,1,1,23945,task3,556859,false,true,655,image-keyboard-response,18
true,8,0,1,0,true,q,false,true,0.0-2.0-0.20-0.187-3.187,0,1,0,81,false,stim,false,2,523.3999999999069,0,0,0,23945,task3,558898,false,false,658,image-keyboard-response,19
true,8,1,1,2,false,d,true,true,0.0-2.0-0.20-0.188-3.188,0,1,0,90,false,stim,false,2,1133.3999999999069,0,1,1,23945,task3,561553,false,true,661,image-keyboard-response,20
true,8,1,1,1,true,z,false,true,0.0-2.0-0.21-0.189-3.189,0,1,0,90,false,stim,false,0,579.5999999998603,0,1,2,23945,task3,563649,false,false,664,image-keyboard-response,21
true,8,0,1,0,true,q,false,true,0.0-2.0-0.21-0.190-3.190,0,1,0,81,false,stim,false,2,352.20000000018626,0,0,0,23945,task3,565515,false,false,667,image-keyboard-response,22
true,8,1,1,2,false,d,true,false,0.0-2.0-0.21-0.191-3.191,0,1,0,90,false,stim,false,2,663.6000000000931,0,1,1,23945,task3,567697,false,false,670,image-keyboard-response,23
true,8,1,1,1,true,z,false,true,0.0-2.0-0.21-0.192-3.192,0,1,0,90,false,stim,false,0,771.8000000000466,0,1,2,23945,task3,569995,false,false,673,image-keyboard-response,24
true,9,0,2,2,false,d,false,false,0.0-2.0-0.21-0.193-3.193,0,1,1,81,true,stim,true,0,834.5999999998603,0,0,0,23945,task3,572350,false,false,676,image-keyboard-response,1
true,9,1,2,1,true,z,false,true,0.0-2.0-0.21-0.194-3.194,0,1,1,90,false,stim,false,1,737.8999999999069,0,1,2,23945,task3,574614,false,false,679,image-keyboard-response,2
true,9,1,2,2,false,d,true,false,0.0-2.0-0.21-0.195-3.195,0,1,1,90,false,stim,false,2,1202.0,0,1,1,23945,task3,577334,false,false,682,image-keyboard-response,3
true,9,0,2,2,false,d,false,false,0.0-2.0-0.21-0.196-3.196,0,1,1,81,false,stim,true,0,353.20000000018626,0,0,0,23945,task3,579213,false,false,685,image-keyboard-response,4
true,9,0,2,2,false,d,true,false,0.0-2.0-0.21-0.197-3.197,0,1,1,81,false,stim,false,2,1930.1999999999534,0,1,1,23945,task3,582659,false,false,688,image-keyboard-response,5
true,9,1,2,1,true,z,false,true,0.0-2.0-0.22-0.198-3.198,0,1,1,90,false,stim,false,1,598.1999999999534,0,1,2,23945,task3,584765,false,false,691,image-keyboard-response,6
true,9,2,2,2,true,d,false,true,0.0-2.0-0.22-0.199-3.199,0,1,1,68,false,stim,false,2,445.19999999995343,0,1,1,23945,task3,586734,false,false,694,image-keyboard-response,7
true,9,2,2,2,true,d,false,true,0.0-2.0-0.22-0.200-3.200,0,1,1,68,false,stim,false,2,819.8999999999069,0,1,1,23945,task3,589084,false,false,697,image-keyboard-response,8
true,9,1,2,1,true,z,false,true,0.0-2.0-0.22-0.201-3.201,0,1,1,90,false,stim,false,1,597.0,0,1,2,23945,task3,591191,false,false,700,image-keyboard-response,9
true,9,2,2,2,true,d,false,true,0.0-2.0-0.22-0.202-3.202,0,1,1,68,false,stim,false,0,398.0,0,1,0,23945,task3,593110,false,false,703,image-keyboard-response,10
true,9,2,2,2,true,d,false,true,0.0-2.0-0.22-0.203-3.203,0,1,1,68,false,stim,false,2,692.5,0,0,1,23945,task3,595324,false,false,706,image-keyboard-response,11
true,9,1,2,1,true,z,false,false,0.0-2.0-0.22-0.204-3.204,0,1,1,90,false,stim,false,1,669.0,0,1,2,23945,task3,597504,false,true,709,image-keyboard-response,12
true,9,2,2,2,true,d,false,true,0.0-2.0-0.22-0.205-3.205,0,1,1,68,false,stim,false,0,483.89999999990687,0,1,0,23945,task3,599509,false,false,712,image-keyboard-response,13
true,9,2,2,2,true,d,false,true,0.0-2.0-0.22-0.206-3.206,0,1,1,68,false,stim,false,0,576.8999999999069,0,1,0,23945,task3,601613,false,false,715,image-keyboard-response,14
true,10,1,2,1,true,z,false,true,0.0-2.0-0.23-0.207-3.207,1,0,1,90,true,stim,false,1,371.10000000009313,0,1,2,23945,task3,603513,false,false,718,image-keyboard-response,1
true,10,2,2,2,true,d,false,true,0.0-2.0-0.23-0.208-3.208,1,0,1,68,false,stim,false,2,610.5,0,1,0,23945,task3,605634,false,false,721,image-keyboard-response,2
true,10,2,2,2,true,d,false,true,0.0-2.0-0.23-0.209-3.209,1,0,1,68,false,stim,false,2,558.8000000000466,0,1,0,23945,task3,607701,false,false,724,image-keyboard-response,3
true,10,2,2,1,false,z,false,false,0.0-2.0-0.23-0.210-3.210,1,0,1,68,false,stim,true,2,432.60000000009313,0,0,1,23945,task3,609645,false,false,727,image-keyboard-response,4
true,10,2,2,2,true,d,false,true,0.0-2.0-0.23-0.211-3.211,1,0,1,68,false,stim,false,2,715.0999999998603,0,1,0,23945,task3,611873,false,false,730,image-keyboard-response,5
true,10,1,2,1,true,z,false,false,0.0-2.0-0.23-0.212-3.212,1,0,1,90,false,stim,false,2,372.10000000009313,0,0,1,23945,task3,613755,false,true,733,image-keyboard-response,6
true,10,1,2,1,true,z,false,true,0.0-2.0-0.23-0.213-3.213,1,0,1,90,false,stim,false,1,762.1999999999534,0,1,2,23945,task3,616041,false,false,736,image-keyboard-response,7
true,10,0,2,1,false,z,true,true,0.0-2.0-0.23-0.214-3.214,1,0,1,81,false,stim,false,2,489.39999999990687,0,0,1,23945,task3,618061,false,true,739,image-keyboard-response,8
true,10,1,2,1,true,z,false,true,0.0-2.0-0.23-0.215-3.215,1,0,1,90,false,stim,false,1,696.0999999998603,0,1,2,23945,task3,620281,false,false,742,image-keyboard-response,9
true,10,0,2,1,false,z,true,false,0.0-2.0-0.24-0.216-3.216,1,0,1,81,false,stim,false,2,537.5,0,1,1,23945,task3,622346,false,false,745,image-keyboard-response,10
true,10,1,2,1,true,z,false,true,0.0-2.0-0.24-0.217-3.217,1,0,1,90,false,stim,false,1,893.8999999999069,0,0,2,23945,task3,624772,false,false,748,image-keyboard-response,11
true,10,1,2,1,true,z,false,true,0.0-2.0-0.24-0.218-3.218,1,0,1,90,false,stim,false,1,526.8000000000466,0,0,2,23945,task3,626816,false,false,751,image-keyboard-response,12
true,10,1,2,1,true,z,false,true,0.0-2.0-0.24-0.219-3.219,1,0,1,90,false,stim,false,2,363.60000000009313,0,1,1,23945,task3,628703,false,false,754,image-keyboard-response,13
true,10,2,2,2,true,d,false,true,0.0-2.0-0.24-0.220-3.220,1,0,1,68,false,stim,false,2,720.5,0,1,0,23945,task3,630936,false,false,757,image-keyboard-response,14
true,11,1,2,1,true,z,false,true,0.0-2.0-0.24-0.221-3.221,1,1,0,90,true,stim,false,1,768.5,0,1,1,23945,task3,633223,false,false,760,image-keyboard-response,1
true,11,2,2,2,true,d,false,true,0.0-2.0-0.24-0.222-3.222,1,1,0,68,false,stim,false,2,542.9000000001397,0,1,0,23945,task3,635283,false,false,763,image-keyboard-response,2
true,11,2,2,2,true,d,false,false,0.0-2.0-0.24-0.223-3.223,1,1,0,68,false,stim,false,2,571.5,0,1,0,23945,task3,637376,false,true,766,image-keyboard-response,3
true,11,1,2,0,false,q,false,false,0.0-2.0-0.24-0.224-3.224,1,1,0,90,false,stim,true,1,801.8000000000466,0,0,2,23945,task3,639696,false,false,769,image-keyboard-response,4
true,11,1,2,0,false,q,false,false,0.0-2.0-0.25-0.225-3.225,1,1,0,90,false,stim,true,1,893.0,0,0,2,23945,task3,642097,false,false,772,image-keyboard-response,5
true,11,1,2,1,true,z,false,true,0.0-2.0-0.25-0.226-3.226,1,1,0,90,false,stim,false,1,796.8000000000466,0,1,1,23945,task3,644405,false,false,775,image-keyboard-response,6
true,11,2,2,0,false,q,true,false,0.0-2.0-0.25-0.227-3.227,1,1,0,68,false,stim,false,1,807.3999999999069,0,0,2,23945,task3,646726,false,false,778,image-keyboard-response,7
true,11,0,2,2,false,d,true,false,0.0-2.0-0.25-0.228-3.228,1,1,0,81,false,stim,false,2,1725.5,0,1,0,23945,task3,649965,false,false,781,image-keyboard-response,8
true,11,2,2,2,true,d,false,true,0.0-2.0-0.25-0.229-3.229,1,1,0,68,false,stim,false,2,1332.3000000000466,0,0,0,23945,task3,652821,false,false,784,image-keyboard-response,9
true,11,0,2,0,true,q,false,true,0.0-2.0-0.25-0.230-3.230,1,1,0,81,false,stim,false,1,427.10000000009313,0,1,2,23945,task3,654769,false,false,787,image-keyboard-response,10
true,11,1,2,1,true,z,false,true,0.0-2.0-0.25-0.231-3.231,1,1,0,90,false,stim,false,1,412.79999999981374,0,1,1,23945,task3,656703,false,false,790,image-keyboard-response,11
true,11,1,2,1,true,z,false,true,0.0-2.0-0.25-0.232-3.232,1,1,0,90,false,stim,false,1,732.1000000000931,0,1,1,23945,task3,658954,false,false,793,image-keyboard-response,12
true,11,2,2,2,true,d,false,true,0.0-2.0-0.25-0.233-3.233,1,1,0,68,false,stim,false,2,407.30000000004657,0,0,0,23945,task3,660876,false,false,796,image-keyboard-response,13
true,12,1,2,1,true,z,false,true,0.0-2.0-0.26-0.234-3.234,0,1,1,90,true,stim,false,1,668.9000000001397,0,1,1,23945,task3,663068,false,false,799,image-keyboard-response,1
true,12,2,2,0,false,q,false,false,0.0-2.0-0.26-0.235-3.235,0,1,1,68,false,stim,true,2,585.8999999999069,0,0,0,23945,task3,665183,false,false,802,image-keyboard-response,2
true,12,2,2,0,false,q,false,false,0.0-2.0-0.26-0.236-3.236,0,1,1,68,false,stim,true,2,414.0,0,0,0,23945,task3,667111,false,false,805,image-keyboard-response,3
true,12,0,2,0,true,q,false,false,0.0-2.0-0.26-0.237-3.237,0,1,1,81,false,stim,false,0,743.2999999998137,0,1,2,23945,task3,669382,false,true,808,image-keyboard-response,4
true,12,1,2,1,true,z,false,true,0.0-2.0-0.26-0.238-3.238,0,1,1,90,false,stim,false,1,1744.5,0,1,1,23945,task3,672647,false,false,811,image-keyboard-response,5
true,12,2,2,0,false,q,true,false,0.0-2.0-0.26-0.239-3.239,0,1,1,68,false,stim,false,0,1168.5999999998603,0,1,2,23945,task3,675333,false,false,814,image-keyboard-response,6
true,12,1,2,1,true,z,false,false,0.0-2.0-0.26-0.240-3.240,0,1,1,90,false,stim,false,1,664.1999999999534,0,1,1,23945,task3,677514,false,true,817,image-keyboard-response,7
true,12,1,2,0,false,q,true,false,0.0-2.0-0.26-0.241-3.241,0,1,1,90,false,stim,false,2,736.3000000000466,0,0,0,23945,task3,679776,false,false,820,image-keyboard-response,8
true,12,1,2,0,false,q,true,false,0.0-2.0-0.26-0.242-3.242,0,1,1,90,false,stim,false,0,1797.6999999999534,0,1,2,23945,task3,683084,false,false,823,image-keyboard-response,9
true,12,2,2,0,false,q,true,false,0.0-2.0-0.27-0.243-3.243,0,1,1,68,false,stim,false,0,452.69999999995343,0,1,2,23945,task3,685058,false,false,826,image-keyboard-response,10
true,12,0,2,1,false,z,true,false,0.0-2.0-0.27-0.244-3.244,0,1,1,81,false,stim,false,1,2683.399999999907,0,0,1,23945,task3,689252,false,false,829,image-keyboard-response,11
true,12,2,2,1,false,z,true,false,0.0-2.0-0.27-0.245-3.245,0,1,1,68,false,stim,false,1,663.6000000000931,0,0,1,23945,task3,691434,false,false,832,image-keyboard-response,12
true,12,0,2,0,true,q,false,true,0.0-2.0-0.27-0.246-3.246,0,1,1,81,false,stim,false,0,788.3999999999069,0,0,2,23945,task3,693740,false,false,835,image-keyboard-response,13
true,12,1,2,1,true,z,false,false,0.0-2.0-0.27-0.247-3.247,0,1,1,90,false,stim,false,1,379.39999999990687,0,0,1,23945,task3,695640,false,true,838,image-keyboard-response,14
true,12,0,2,0,true,q,false,true,0.0-2.0-0.27-0.248-3.248,0,1,1,81,false,stim,false,2,1841.0,0,1,0,23945,task3,699002,false,false,841,image-keyboard-response,15
true,13,0,1,2,false,d,false,false,0.0-2.0-0.27-0.249-3.249,1,0,0,81,true,stim,true,0,718.3999999999069,0,0,2,23945,task3,701252,false,false,844,image-keyboard-response,1
true,13,0,1,0,true,q,false,true,0.0-2.0-0.27-0.250-3.250,1,0,0,81,false,stim,false,0,553.3999999999069,0,1,0,23945,task3,703324,false,false,847,image-keyboard-response,2
true,13,0,1,0,true,q,false,false,0.0-2.0-0.27-0.251-3.251,1,0,0,81,false,stim,false,0,532.3000000000466,0,1,0,23945,task3,705380,false,true,850,image-keyboard-response,3
true,13,0,1,0,true,q,false,true,0.0-2.0-0.28-0.252-3.252,1,0,0,81,false,stim,false,1,1099.2999999998137,0,0,1,23945,task3,707994,false,false,853,image-keyboard-response,4
true,13,0,1,2,false,d,false,false,0.0-2.0-0.28-0.253-3.253,1,0,0,81,false,stim,true,0,424.19999999995343,0,0,2,23945,task3,709945,false,false,856,image-keyboard-response,5
true,13,1,1,0,false,q,true,false,0.0-2.0-0.28-0.254-3.254,1,0,0,90,false,stim,false,0,842.3000000000466,0,1,0,23945,task3,712314,false,false,859,image-keyboard-response,6
true,13,0,1,0,true,q,false,true,0.0-2.0-0.28-0.255-3.255,1,0,0,81,false,stim,false,1,572.3000000000466,0,0,1,23945,task3,714401,false,false,862,image-keyboard-response,7
true,13,0,1,0,true,q,false,true,0.0-2.0-0.28-0.256-3.256,1,0,0,81,false,stim,false,1,1429.0,0,0,1,23945,task3,717349,false,false,865,image-keyboard-response,8
true,13,1,1,2,false,d,true,true,0.0-2.0-0.28-0.257-3.257,1,0,0,90,false,stim,false,0,1240.3999999999069,0,0,2,23945,task3,720108,false,true,868,image-keyboard-response,9
true,13,2,1,0,false,q,true,false,0.0-2.0-0.28-0.258-3.258,1,0,0,68,false,stim,false,0,407.0,0,1,0,23945,task3,722027,false,false,871,image-keyboard-response,10
true,13,0,1,2,false,d,false,false,0.0-2.0-0.28-0.259-3.259,1,0,0,81,false,stim,true,0,514.3000000000466,0,0,2,23945,task3,724064,false,false,874,image-keyboard-response,11
true,13,2,1,0,false,q,true,false,0.0-2.0-0.28-0.260-3.260,1,0,0,68,false,stim,false,0,1047.5,0,1,0,23945,task3,726623,false,false,877,image-keyboard-response,12
true,13,0,1,0,true,q,false,false,0.0-2.0-0.29-0.261-3.261,1,0,0,81,false,stim,false,0,436.0,0,1,0,23945,task3,728579,false,true,880,image-keyboard-response,13
true,13,0,1,0,true,q,false,false,0.0-2.0-0.29-0.262-3.262,1,0,0,81,false,stim,false,0,471.5999999998603,0,1,0,23945,task3,730572,false,true,883,image-keyboard-response,14
true,13,1,1,0,false,q,true,false,0.0-2.0-0.29-0.263-3.263,1,0,0,90,false,stim,false,0,407.69999999995343,0,1,0,23945,task3,732499,false,false,886,image-keyboard-response,15
true,13,1,1,2,false,d,true,false,0.0-2.0-0.29-0.264-3.264,1,0,0,90,false,stim,false,0,855.4000000001397,0,0,2,23945,task3,734862,false,false,889,image-keyboard-response,16
true,13,0,1,0,true,q,false,true,0.0-2.0-0.29-0.265-3.265,1,0,0,81,false,stim,false,1,824.1999999999534,0,0,1,23945,task3,737209,false,false,892,image-keyboard-response,17
true,13,2,1,2,true,d,false,true,0.0-2.0-0.29-0.266-3.266,1,0,0,68,false,stim,false,0,440.0999999998603,0,0,2,23945,task3,739168,false,false,895,image-keyboard-response,18
true,13,0,1,0,true,q,false,true,0.0-2.0-0.29-0.267-3.267,1,0,0,81,false,stim,false,1,656.6000000000931,0,0,1,23945,task3,741351,false,false,898,image-keyboard-response,19
true,13,0,1,0,true,q,false,false,0.0-2.0-0.29-0.268-3.268,1,0,0,81,false,stim,false,1,462.4000000001397,0,0,1,23945,task3,743348,false,true,901,image-keyboard-response,20
true,13,2,1,2,true,d,false,true,0.0-2.0-0.29-0.269-3.269,1,0,0,68,false,stim,false,0,702.5,0,0,2,23945,task3,745568,false,false,904,image-keyboard-response,21
true,13,2,1,2,true,d,false,true,0.0-2.0-0.30-0.270-3.270,1,0,0,68,false,stim,false,0,655.5,0,0,2,23945,task3,747740,false,false,907,image-keyboard-response,22
true,13,1,1,0,false,q,false,true,0.0-2.0-0.30-0.271-3.271,1,0,0,90,false,stim,true,1,558.2999999998137,0,0,1,23945,task3,749825,false,true,910,image-keyboard-response,23
true,13,1,1,0,false,q,true,false,0.0-2.0-0.30-0.272-3.272,1,0,0,90,false,stim,false,0,807.3999999999069,0,1,0,23945,task3,752148,false,false,913,image-keyboard-response,24
true,13,1,1,0,false,q,false,false,0.0-2.0-0.30-0.273-3.273,1,0,0,90,false,stim,true,1,660.8000000000466,0,1,1,23945,task3,754323,false,false,916,image-keyboard-response,25
true,13,2,1,0,false,q,true,false,0.0-2.0-0.30-0.274-3.274,1,0,0,68,false,stim,false,0,989.0,0,1,0,23945,task3,756832,false,false,919,image-keyboard-response,26
true,13,2,1,2,true,d,false,true,0.0-2.0-0.30-0.275-3.275,1,0,0,68,false,stim,false,0,1088.1000000000931,0,0,2,23945,task3,759441,false,false,922,image-keyboard-response,27
true,13,2,1,2,true,d,false,true,0.0-2.0-0.30-0.276-3.276,1,0,0,68,false,stim,false,0,700.1000000000931,0,0,2,23945,task3,761654,false,false,925,image-keyboard-response,28
true,14,0,2,0,true,q,false,true,0.0-2.0-0.30-0.277-3.277,1,1,0,81,true,stim,false,0,1890.5,0,1,0,23945,task3,765068,false,false,928,image-keyboard-response,1
true,14,0,2,0,true,q,false,true,0.0-2.0-0.30-0.278-3.278,1,1,0,81,false,stim,false,0,371.19999999995343,0,1,1,23945,task3,766963,false,false,931,image-keyboard-response,2
true,14,0,2,0,true,q,false,true,0.0-2.0-0.31-0.279-3.279,1,1,0,81,false,stim,false,0,566.5999999998603,0,1,1,23945,task3,769044,false,false,934,image-keyboard-response,3
true,14,0,2,0,true,q,false,true,0.0-2.0-0.31-0.280-3.280,1,1,0,81,false,stim,false,0,647.5999999998603,0,1,1,23945,task3,771206,false,false,937,image-keyboard-response,4
true,14,0,2,0,true,q,false,true,0.0-2.0-0.31-0.281-3.281,1,1,0,81,false,stim,false,0,701.1000000000931,0,1,0,23945,task3,773419,false,false,940,image-keyboard-response,5
true,14,0,2,0,true,q,false,true,0.0-2.0-0.31-0.282-3.282,1,1,0,81,false,stim,false,0,563.6999999999534,0,1,1,23945,task3,775499,false,false,943,image-keyboard-response,6
true,14,2,2,1,false,z,false,false,0.0-2.0-0.31-0.283-3.283,1,1,0,68,false,stim,true,2,405.39999999990687,0,0,2,23945,task3,777421,false,false,946,image-keyboard-response,7
true,14,1,2,1,true,z,false,true,0.0-2.0-0.31-0.284-3.284,1,1,0,90,false,stim,false,2,369.0,0,0,2,23945,task3,779314,false,false,949,image-keyboard-response,8
true,14,1,2,1,true,z,false,true,0.0-2.0-0.31-0.285-3.285,1,1,0,90,false,stim,false,2,550.8000000000466,0,0,2,23945,task3,781382,false,false,952,image-keyboard-response,9
true,14,0,2,0,true,q,false,false,0.0-2.0-0.31-0.286-3.286,1,1,0,81,false,stim,false,0,561.3000000000466,0,1,0,23945,task3,783468,false,true,955,image-keyboard-response,10
true,14,0,2,0,true,q,false,true,0.0-2.0-0.31-0.287-3.287,1,1,0,81,false,stim,false,0,364.29999999981374,0,1,0,23945,task3,785355,false,false,958,image-keyboard-response,11
true,14,0,2,0,true,q,false,true,0.0-2.0-0.32-0.288-3.288,1,1,0,81,false,stim,false,0,563.1999999999534,0,1,0,23945,task3,787441,false,false,961,image-keyboard-response,12
true,14,1,2,1,true,z,false,true,0.0-2.0-0.32-0.289-3.289,1,1,0,90,false,stim,false,2,799.5,0,0,2,23945,task3,789764,false,false,964,image-keyboard-response,13
true,14,0,2,0,true,q,false,true,0.0-2.0-0.32-0.290-3.290,1,1,0,81,false,stim,false,0,669.8999999999069,0,1,1,23945,task3,791952,false,false,967,image-keyboard-response,14
true,14,0,2,0,true,q,false,false,0.0-2.0-0.32-0.291-3.291,1,1,0,81,false,stim,false,0,493.5999999998603,0,1,0,23945,task3,793970,false,true,970,image-keyboard-response,15
true,14,1,2,1,true,z,false,true,0.0-2.0-0.32-0.292-3.292,1,1,0,90,false,stim,false,2,882.4000000001397,0,0,2,23945,task3,796364,false,false,973,image-keyboard-response,16
true,14,0,2,0,true,q,false,true,0.0-2.0-0.32-0.293-3.293,1,1,0,81,false,stim,false,0,660.6000000000931,0,1,1,23945,task3,798538,false,false,976,image-keyboard-response,17
true,14,0,2,0,true,q,false,true,0.0-2.0-0.32-0.294-3.294,1,1,0,81,false,stim,false,0,699.8000000000466,0,1,0,23945,task3,800756,false,false,979,image-keyboard-response,18
true,14,0,2,0,true,q,false,true,0.0-2.0-0.32-0.295-3.295,1,1,0,81,false,stim,false,0,993.3999999999069,0,1,1,23945,task3,803267,false,false,982,image-keyboard-response,19
true,14,1,2,1,true,z,false,true,0.0-2.0-0.32-0.296-3.296,1,1,0,90,false,stim,false,2,1190.1000000000931,0,0,2,23945,task3,805973,false,false,985,image-keyboard-response,20
true,14,1,2,1,true,z,false,false,0.0-2.0-0.33-0.297-3.297,1,1,0,90,false,stim,false,2,533.0999999998603,0,0,2,23945,task3,808022,false,true,988,image-keyboard-response,21
true,14,0,2,0,true,q,false,false,0.0-2.0-0.33-0.298-3.298,1,1,0,81,false,stim,false,0,830.1999999999534,0,1,0,23945,task3,810375,false,true,991,image-keyboard-response,22
true,14,0,2,0,true,q,false,true,0.0-2.0-0.33-0.299-3.299,1,1,0,81,false,stim,false,0,677.8000000000466,0,0,1,23945,task3,812567,false,false,994,image-keyboard-response,23
true,14,1,2,1,true,z,false,false,0.0-2.0-0.33-0.300-3.300,1,1,0,90,false,stim,false,2,1368.3999999999069,0,0,2,23945,task3,815455,false,true,997,image-keyboard-response,24
true,14,0,2,0,true,q,false,true,0.0-2.0-0.33-0.301-3.301,1,1,0,81,false,stim,false,0,909.0,0,0,1,23945,task3,817876,false,false,1000,image-keyboard-response,25
true,15,2,1,0,false,q,true,false,0.0-2.0-0.33-0.302-3.302,1,0,0,68,true,stim,false,0,1347.8999999999069,0,1,0,23945,task3,820744,false,false,1003,image-keyboard-response,1
true,15,2,1,0,false,q,true,false,0.0-2.0-0.33-0.303-3.303,1,0,0,68,false,stim,false,1,980.5,0,0,2,23945,task3,823248,false,false,1006,image-keyboard-response,2
true,15,0,1,2,false,d,false,false,0.0-2.0-0.33-0.304-3.304,1,0,0,81,false,stim,true,0,685.3000000000466,0,0,1,23945,task3,825456,false,false,1009,image-keyboard-response,3
true,15,1,1,0,false,q,true,false,0.0-2.0-0.33-0.305-3.305,1,0,0,90,false,stim,false,0,1230.0,0,1,0,23945,task3,828199,false,false,1012,image-keyboard-response,4
true,15,0,1,0,true,q,false,true,0.0-2.0-0.34-0.306-3.306,1,0,0,81,false,stim,false,1,748.3000000000466,0,0,2,23945,task3,830460,false,false,1015,image-keyboard-response,5
true,15,0,1,0,true,q,false,true,0.0-2.0-0.34-0.307-3.307,1,0,0,81,false,stim,false,0,352.19999999995343,0,1,0,23945,task3,832327,false,false,1018,image-keyboard-response,6
true,15,0,1,0,true,q,false,true,0.0-2.0-0.34-0.308-3.308,1,0,0,81,false,stim,false,0,629.8999999999069,0,1,0,23945,task3,834469,false,false,1021,image-keyboard-response,7
true,15,0,1,0,true,q,false,true,0.0-2.0-0.34-0.309-3.309,1,0,0,81,false,stim,false,1,1111.0999999998603,0,0,2,23945,task3,837104,false,false,1024,image-keyboard-response,8
true,15,1,1,2,false,d,true,true,0.0-2.0-0.34-0.310-3.310,1,0,0,90,false,stim,false,0,539.0999999998603,0,1,1,23945,task3,839167,false,true,1027,image-keyboard-response,9
true,15,0,1,0,true,q,false,true,0.0-2.0-0.34-0.311-3.311,1,0,0,81,false,stim,false,0,451.0,0,0,0,23945,task3,841131,false,false,1030,image-keyboard-response,10
true,15,0,1,2,false,d,false,false,0.0-2.0-0.34-0.312-3.312,1,0,0,81,false,stim,true,0,291.30000000004657,0,1,1,23945,task3,842939,false,false,1033,image-keyboard-response,11
true,15,0,1,0,true,q,false,true,0.0-2.0-0.34-0.313-3.313,1,0,0,81,false,stim,false,1,430.5,0,1,2,23945,task3,844884,false,false,1036,image-keyboard-response,12
true,15,1,1,2,false,d,true,false,0.0-2.0-0.34-0.314-3.314,1,0,0,90,false,stim,false,0,908.5,0,1,1,23945,task3,847310,false,false,1039,image-keyboard-response,13
true,16,0,2,1,false,z,false,false,0.0-2.0-0.35-0.315-3.315,0,1,1,81,true,stim,true,0,546.2999999998137,0,0,0,23945,task3,849381,false,false,1042,image-keyboard-response,1
true,16,2,2,2,true,d,false,true,0.0-2.0-0.35-0.316-3.316,0,1,1,68,false,stim,false,2,1048.0,0,1,1,23945,task3,851942,false,false,1045,image-keyboard-response,2
true,16,1,2,1,true,z,false,true,0.0-2.0-0.35-0.317-3.317,0,1,1,90,false,stim,false,0,616.1000000000931,0,0,0,23945,task3,854077,false,false,1048,image-keyboard-response,3
true,16,0,2,0,true,q,false,true,0.0-2.0-0.35-0.318-3.318,0,1,1,81,false,stim,false,0,333.60000000009313,0,1,2,23945,task3,855934,false,false,1051,image-keyboard-response,4
true,16,0,2,0,true,q,false,true,0.0-2.0-0.35-0.319-3.319,0,1,1,81,false,stim,false,0,720.8000000000466,0,1,2,23945,task3,858178,false,false,1054,image-keyboard-response,5
true,16,1,2,1,true,z,false,true,0.0-2.0-0.35-0.320-3.320,0,1,1,90,false,stim,false,0,490.19999999995343,0,0,0,23945,task3,860181,false,false,1057,image-keyboard-response,6
true,16,2,2,2,true,d,false,true,0.0-2.0-0.35-0.321-3.321,0,1,1,68,false,stim,false,2,491.39999999990687,0,1,1,23945,task3,862189,false,false,1060,image-keyboard-response,7
true,16,0,2,0,true,q,false,true,0.0-2.0-0.35-0.322-3.322,0,1,1,81,false,stim,false,0,662.8000000000466,0,1,2,23945,task3,864376,false,false,1063,image-keyboard-response,8
true,16,2,2,2,true,d,false,true,0.0-2.0-0.35-0.323-3.323,0,1,1,68,false,stim,false,2,660.7999999998137,0,1,1,23945,task3,866560,false,false,1066,image-keyboard-response,9
true,16,1,2,1,true,z,false,true,0.0-2.0-0.36-0.324-3.324,0,1,1,90,false,stim,false,0,321.4000000001397,0,0,0,23945,task3,868389,false,false,1069,image-keyboard-response,10
true,16,1,2,1,true,z,false,true,0.0-2.0-0.36-0.325-3.325,0,1,1,90,false,stim,false,0,582.0999999998603,0,0,0,23945,task3,870486,false,false,1072,image-keyboard-response,11
true,16,0,2,0,true,q,false,true,0.0-2.0-0.36-0.326-3.326,0,1,1,81,false,stim,false,0,384.80000000004657,0,1,2,23945,task3,872385,false,false,1075,image-keyboard-response,12
true,16,2,2,2,true,d,false,true,0.0-2.0-0.36-0.327-3.327,0,1,1,68,false,stim,false,2,421.80000000004657,0,1,1,23945,task3,874316,false,false,1078,image-keyboard-response,13
true,16,2,2,2,true,d,false,true,0.0-2.0-0.36-0.328-3.328,0,1,1,68,false,stim,false,2,672.4000000001397,0,1,1,23945,task3,876500,false,false,1081,image-keyboard-response,14
true,16,1,2,1,true,z,false,false,0.0-2.0-0.36-0.329-3.329,0,1,1,90,false,stim,false,0,735.3000000000466,0,0,0,23945,task3,878750,false,true,1084,image-keyboard-response,15
true,16,0,2,0,true,q,false,false,0.0-2.0-0.36-0.330-3.330,0,1,1,81,false,stim,false,0,898.3000000000466,0,1,2,23945,task3,881176,false,true,1087,image-keyboard-response,16
true,16,1,2,0,false,q,true,false,0.0-2.0-0.36-0.331-3.331,0,1,1,90,false,stim,false,0,990.6000000000931,0,1,2,23945,task3,883688,false,false,1090,image-keyboard-response,17
true,16,2,2,2,true,d,false,true,0.0-2.0-0.36-0.332-3.332,0,1,1,68,false,stim,false,2,783.0999999998603,0,1,1,23945,task3,886008,false,false,1093,image-keyboard-response,18
true,16,1,2,1,true,z,false,false,0.0-2.0-0.37-0.333-3.333,0,1,1,90,false,stim,false,0,1528.6999999999534,0,0,0,23945,task3,889063,false,true,1096,image-keyboard-response,19
true,16,2,2,2,true,d,false,true,0.0-2.0-0.37-0.334-3.334,0,1,1,68,false,stim,false,2,697.1999999999534,0,1,1,23945,task3,891284,false,false,1099,image-keyboard-response,20
true,16,2,2,0,false,q,true,false,0.0-2.0-0.37-0.335-3.335,0,1,1,68,false,stim,false,0,381.5,0,1,2,23945,task3,893201,false,false,1102,image-keyboard-response,21
true,16,0,2,0,true,q,false,true,0.0-2.0-0.37-0.336-3.336,0,1,1,81,false,stim,false,0,415.80000000004657,0,0,2,23945,task3,895142,false,false,1105,image-keyboard-response,22
true,16,0,2,1,false,z,false,false,0.0-2.0-0.37-0.337-3.337,0,1,1,81,false,stim,true,0,356.0,0,0,0,23945,task3,897014,false,false,1108,image-keyboard-response,23
true,16,0,2,0,true,q,false,true,0.0-2.0-0.37-0.338-3.338,0,1,1,81,false,stim,false,0,1212.1999999999534,0,0,2,23945,task3,899740,false,false,1111,image-keyboard-response,24
true,16,2,2,2,true,d,false,true,0.0-2.0-0.37-0.339-3.339,0,1,1,68,false,stim,false,2,1029.5999999998603,0,1,1,23945,task3,902280,false,false,1114,image-keyboard-response,25
true,16,2,2,2,true,d,false,true,0.0-2.0-0.37-0.340-3.340,0,1,1,68,false,stim,false,2,557.0999999998603,0,1,1,23945,task3,904359,false,false,1117,image-keyboard-response,26
true,17,2,1,0,false,q,true,false,0.0-2.0-0.37-0.341-3.341,0,1,0,68,true,stim,false,1,443.19999999995343,0,0,0,23945,task3,906324,false,false,1120,image-keyboard-response,1
true,17,0,1,2,false,d,false,false,0.0-2.0-0.38-0.342-3.342,0,1,0,81,false,stim,true,0,762.6999999999534,0,0,2,23945,task3,908612,false,false,1123,image-keyboard-response,2
true,17,0,1,0,true,q,false,true,0.0-2.0-0.38-0.343-3.343,0,1,0,81,false,stim,false,1,902.7999999998137,0,0,0,23945,task3,911041,false,false,1126,image-keyboard-response,3
true,17,0,1,0,true,q,false,false,0.0-2.0-0.38-0.344-3.344,0,1,0,81,false,stim,false,1,581.4000000001397,0,0,0,23945,task3,913137,false,true,1129,image-keyboard-response,4
true,17,2,1,2,true,d,false,true,0.0-2.0-0.38-0.345-3.345,0,1,0,68,false,stim,false,2,963.0999999998603,0,1,1,23945,task3,915612,false,false,1132,image-keyboard-response,5
true,17,1,1,2,false,d,true,false,0.0-2.0-0.38-0.346-3.346,0,1,0,90,false,stim,false,0,1327.3999999999069,0,0,2,23945,task3,918460,false,false,1135,image-keyboard-response,6
true,17,0,1,0,true,q,false,true,0.0-2.0-0.38-0.347-3.347,0,1,0,81,false,stim,false,1,636.1000000000931,0,0,0,23945,task3,920610,false,false,1138,image-keyboard-response,7
true,17,2,1,2,true,d,false,true,0.0-2.0-0.38-0.348-3.348,0,1,0,68,false,stim,false,0,1200.6000000000931,0,0,2,23945,task3,923325,false,false,1141,image-keyboard-response,8
true,17,2,1,2,true,d,false,true,0.0-2.0-0.38-0.349-3.349,0,1,0,68,false,stim,false,2,806.0,0,1,1,23945,task3,925646,false,false,1144,image-keyboard-response,9
true,17,2,1,2,true,d,false,true,0.0-2.0-0.38-0.350-3.350,0,1,0,68,false,stim,false,2,802.6999999999534,0,1,1,23945,task3,927960,false,false,1147,image-keyboard-response,10
true,17,0,1,0,true,q,false,true,0.0-2.0-0.39-0.351-3.351,0,1,0,81,false,stim,false,1,658.8999999999069,0,1,0,23945,task3,930131,false,false,1150,image-keyboard-response,11
true,17,2,1,2,true,d,false,true,0.0-2.0-0.39-0.352-3.352,0,1,0,68,false,stim,false,2,1071.5,0,0,1,23945,task3,932712,false,false,1153,image-keyboard-response,12
true,17,2,1,2,true,d,false,true,0.0-2.0-0.39-0.353-3.353,0,1,0,68,false,stim,false,0,695.9000000001397,0,1,2,23945,task3,934935,false,false,1156,image-keyboard-response,13
true,17,2,1,2,true,d,false,true,0.0-2.0-0.39-0.354-3.354,0,1,0,68,false,stim,false,0,538.0,0,1,2,23945,task3,936988,false,false,1159,image-keyboard-response,14
true,17,2,1,2,true,d,false,true,0.0-2.0-0.39-0.355-3.355,0,1,0,68,false,stim,false,2,1483.1999999999534,0,0,1,23945,task3,939987,false,false,1162,image-keyboard-response,15
true,18,2,2,1,false,z,false,false,0.0-2.0-0.39-0.356-3.356,1,0,1,68,true,stim,true,2,491.19999999995343,0,0,1,23945,task3,941991,false,false,1165,image-keyboard-response,1
true,18,2,2,2,true,d,false,true,0.0-2.0-0.39-0.357-3.357,1,0,1,68,false,stim,false,2,673.0999999998603,0,1,2,23945,task3,944182,false,false,1168,image-keyboard-response,2
true,18,0,2,0,true,q,false,true,0.0-2.0-0.39-0.358-3.358,1,0,1,81,false,stim,false,0,1018.0,0,1,0,23945,task3,946714,false,false,1171,image-keyboard-response,3
true,18,0,2,0,true,q,false,true,0.0-2.0-0.39-0.359-3.359,1,0,1,81,false,stim,false,0,520.1999999999534,0,1,0,23945,task3,948758,false,false,1174,image-keyboard-response,4
true,18,0,2,0,true,q,false,true,0.0-2.0-0.40-0.360-3.360,1,0,1,81,false,stim,false,0,499.10000000009313,0,1,0,23945,task3,950777,false,false,1177,image-keyboard-response,5
true,18,0,2,0,true,q,false,true,0.0-2.0-0.40-0.361-3.361,1,0,1,81,false,stim,false,0,517.1999999999534,0,1,0,23945,task3,952808,false,false,1180,image-keyboard-response,6
true,18,2,2,2,true,d,false,true,0.0-2.0-0.40-0.362-3.362,1,0,1,68,false,stim,false,2,1063.0,0,0,2,23945,task3,955383,false,false,1183,image-keyboard-response,7
true,18,2,2,2,true,d,false,false,0.0-2.0-0.40-0.363-3.363,1,0,1,68,false,stim,false,2,570.9000000001397,0,0,2,23945,task3,957489,false,true,1186,image-keyboard-response,8
true,18,1,2,1,true,z,false,true,0.0-2.0-0.40-0.364-3.364,1,0,1,90,false,stim,false,2,417.19999999995343,0,1,1,23945,task3,959436,false,false,1189,image-keyboard-response,9
true,18,1,2,1,true,z,false,true,0.0-2.0-0.40-0.365-3.365,1,0,1,90,false,stim,false,2,566.6999999999534,0,1,1,23945,task3,961526,false,false,1192,image-keyboard-response,10
true,18,2,2,2,true,d,false,true,0.0-2.0-0.40-0.366-3.366,1,0,1,68,false,stim,false,2,510.80000000004657,0,0,2,23945,task3,963562,false,false,1195,image-keyboard-response,11
true,19,1,1,1,true,z,false,false,0.0-2.0-0.40-0.367-3.367,0,1,0,90,true,stim,false,1,652.1000000000931,0,1,1,23945,task3,965733,false,true,1198,image-keyboard-response,1
true,19,0,1,1,false,z,false,false,0.0-2.0-0.40-0.368-3.368,0,1,0,81,false,stim,true,0,636.3000000000466,0,0,0,23945,task3,967897,false,false,1201,image-keyboard-response,2
true,19,0,1,1,false,z,false,false,0.0-2.0-0.41-0.369-3.369,0,1,0,81,false,stim,true,0,569.1999999999534,0,0,0,23945,task3,969989,false,false,1204,image-keyboard-response,3
true,19,2,1,1,false,z,true,false,0.0-2.0-0.41-0.370-3.370,0,1,0,68,false,stim,false,0,444.69999999995343,0,0,0,23945,task3,971959,false,false,1207,image-keyboard-response,4
true,19,2,1,0,false,q,false,false,0.0-2.0-0.41-0.371-3.371,0,1,0,68,false,stim,true,2,662.0,0,0,2,23945,task3,974143,false,false,1210,image-keyboard-response,5
true,19,1,1,1,true,z,false,true,0.0-2.0-0.41-0.372-3.372,0,1,0,90,false,stim,false,1,395.60000000009313,0,1,1,23945,task3,976049,false,false,1213,image-keyboard-response,6
true,19,1,1,1,true,z,false,true,0.0-2.0-0.41-0.373-3.373,0,1,0,90,false,stim,false,1,528.0999999998603,0,1,1,23945,task3,978105,false,false,1216,image-keyboard-response,7
true,19,0,1,0,true,q,false,true,0.0-2.0-0.41-0.374-3.374,0,1,0,81,false,stim,false,2,984.0999999998603,0,0,2,23945,task3,980608,false,false,1219,image-keyboard-response,8
true,19,1,1,1,true,z,false,true,0.0-2.0-0.41-0.375-3.375,0,1,0,90,false,stim,false,0,395.19999999995343,0,0,0,23945,task3,982526,false,false,1222,image-keyboard-response,9
true,19,1,1,1,true,z,false,true,0.0-2.0-0.41-0.376-3.376,0,1,0,90,false,stim,false,1,668.5,0,1,1,23945,task3,984715,false,false,1225,image-keyboard-response,10
true,19,0,1,0,true,q,false,true,0.0-2.0-0.41-0.377-3.377,0,1,0,81,false,stim,false,2,959.8999999999069,0,0,2,23945,task3,987203,false,false,1228,image-keyboard-response,11
true,19,1,1,1,true,z,false,true,0.0-2.0-0.42-0.378-3.378,0,1,0,90,false,stim,false,0,629.9000000001397,0,0,0,23945,task3,989349,false,false,1231,image-keyboard-response,12
true,19,1,1,1,true,z,false,true,0.0-2.0-0.42-0.379-3.379,0,1,0,90,false,stim,false,1,1172.3999999999069,0,1,1,23945,task3,992033,false,false,1234,image-keyboard-response,13
true,19,1,1,1,true,z,false,true,0.0-2.0-0.42-0.380-3.380,0,1,0,90,false,stim,false,0,632.3000000000466,0,0,0,23945,task3,994180,false,false,1237,image-keyboard-response,14
true,19,0,1,0,true,q,false,false,0.0-2.0-0.42-0.381-3.381,0,1,0,81,false,stim,false,2,967.6000000000931,0,0,2,23945,task3,996665,false,true,1240,image-keyboard-response,15
true,19,0,1,0,true,q,false,true,0.0-2.0-0.42-0.382-3.382,0,1,0,81,false,stim,false,2,1253.9000000001397,0,0,2,23945,task3,999434,false,false,1243,image-keyboard-response,16
true,19,0,1,0,true,q,false,true,0.0-2.0-0.42-0.383-3.383,0,1,0,81,false,stim,false,2,740.0,0,0,2,23945,task3,1001689,false,false,1246,image-keyboard-response,17
true,19,1,1,1,true,z,false,true,0.0-2.0-0.42-0.384-3.384,0,1,0,90,false,stim,false,1,655.5999999998603,0,1,1,23945,task3,1003869,false,false,1249,image-keyboard-response,18
true,19,1,1,1,true,z,false,true,0.0-2.0-0.42-0.385-3.385,0,1,0,90,false,stim,false,0,691.6000000000931,0,0,0,23945,task3,1006089,false,false,1252,image-keyboard-response,19
true,19,1,1,1,true,z,false,false,0.0-2.0-0.42-0.386-3.386,0,1,0,90,false,stim,false,1,1050.7999999998137,0,1,1,23945,task3,1008668,false,true,1255,image-keyboard-response,20
true,19,2,1,1,false,z,true,false,0.0-2.0-0.43-0.387-3.387,0,1,0,68,false,stim,false,1,947.9000000001397,0,1,1,23945,task3,1011130,false,false,1258,image-keyboard-response,21
true,19,1,1,1,true,z,false,false,0.0-2.0-0.43-0.388-3.388,0,1,0,90,false,stim,false,0,744.3999999999069,0,0,0,23945,task3,1013395,false,true,1261,image-keyboard-response,22
true,19,0,1,0,true,q,false,true,0.0-2.0-0.43-0.389-3.389,0,1,0,81,false,stim,false,2,800.3000000000466,0,0,2,23945,task3,1015717,false,false,1264,image-keyboard-response,23
true,19,1,1,1,true,z,false,true,0.0-2.0-0.43-0.390-3.390,0,1,0,90,false,stim,false,0,765.6999999999534,0,0,0,23945,task3,1017998,false,false,1267,image-keyboard-response,24
true,19,0,1,0,true,q,false,true,0.0-2.0-0.43-0.391-3.391,0,1,0,81,false,stim,false,2,681.5,0,0,2,23945,task3,1020201,false,false,1270,image-keyboard-response,25
true,19,0,1,1,false,z,true,false,0.0-2.0-0.43-0.392-3.392,0,1,0,81,false,stim,false,1,358.60000000009313,0,1,1,23945,task3,1022080,false,false,1273,image-keyboard-response,26
true,19,0,1,0,true,q,false,true,0.0-2.0-0.43-0.393-3.393,0,1,0,81,false,stim,false,2,668.1000000000931,0,0,2,23945,task3,1024275,false,false,1276,image-keyboard-response,27
true,20,1,1,0,false,q,false,true,0.0-2.0-0.43-0.394-3.394,0,1,0,90,true,stim,true,1,491.19999999995343,0,0,0,23945,task3,1026283,false,true,1279,image-keyboard-response,1
true,20,1,1,1,true,z,false,true,0.0-2.0-0.43-0.395-3.395,0,1,0,90,false,stim,false,1,559.6000000000931,0,1,1,23945,task3,1028356,false,false,1282,image-keyboard-response,2
true,20,1,1,0,false,q,false,false,0.0-2.0-0.44-0.396-3.396,0,1,0,90,false,stim,true,1,598.3000000000466,0,0,0,23945,task3,1030471,false,false,1285,image-keyboard-response,3
true,20,1,1,0,false,q,false,false,0.0-2.0-0.44-0.397-3.397,0,1,0,90,false,stim,true,1,711.6000000000931,0,0,0,23945,task3,1032706,false,false,1288,image-keyboard-response,4
true,20,1,1,1,true,z,false,false,0.0-2.0-0.44-0.398-3.398,0,1,0,90,false,stim,false,1,947.3999999999069,0,1,1,23945,task3,1035183,false,true,1291,image-keyboard-response,5
true,20,0,1,1,false,z,false,false,0.0-2.0-0.44-0.399-3.399,0,1,0,81,false,stim,true,0,711.1999999999534,0,0,2,23945,task3,1037420,false,false,1294,image-keyboard-response,6
true,20,2,1,1,false,z,true,true,0.0-2.0-0.44-0.400-3.400,0,1,0,68,false,stim,false,0,951.0999999998603,0,0,2,23945,task3,1039890,false,true,1297,image-keyboard-response,7
true,20,0,1,1,false,z,true,true,0.0-2.0-0.44-0.401-3.401,0,1,0,81,false,stim,false,1,1501.5999999998603,0,1,1,23945,task3,1042907,false,true,1300,image-keyboard-response,8
true,20,0,1,1,false,z,true,false,0.0-2.0-0.44-0.402-3.402,0,1,0,81,false,stim,false,1,645.5,0,1,1,23945,task3,1045090,false,false,1303,image-keyboard-response,9
true,20,1,1,0,false,q,false,false,0.0-2.0-0.44-0.403-3.403,0,1,0,90,false,stim,true,1,801.0,0,0,0,23945,task3,1047398,false,false,1306,image-keyboard-response,10
true,20,2,1,1,false,z,true,false,0.0-2.0-0.44-0.404-3.404,0,1,0,68,false,stim,false,0,661.5,0,0,2,23945,task3,1049567,false,false,1309,image-keyboard-response,11
true,20,2,1,0,false,q,true,false,0.0-2.0-0.45-0.405-3.405,0,1,0,68,false,stim,false,1,599.8000000000466,0,0,0,23945,task3,1051687,false,false,1312,image-keyboard-response,12
true,20,0,1,1,false,z,true,false,0.0-2.0-0.45-0.406-3.406,0,1,0,81,false,stim,false,1,777.0,0,1,1,23945,task3,1053979,false,false,1315,image-keyboard-response,13
true,20,0,1,0,true,q,false,true,0.0-2.0-0.45-0.407-3.407,0,1,0,81,false,stim,false,1,2395.5999999998603,0,0,0,23945,task3,1057891,false,false,1318,image-keyboard-response,14
true,20,0,1,1,false,z,false,false,0.0-2.0-0.45-0.408-3.408,0,1,0,81,false,stim,true,0,657.4000000001397,0,0,2,23945,task3,1060081,false,false,1321,image-keyboard-response,15
true,20,0,1,0,true,q,false,true,0.0-2.0-0.45-0.409-3.409,0,1,0,81,false,stim,false,1,639.2999999998137,0,0,0,23945,task3,1062233,false,false,1324,image-keyboard-response,16
true,20,2,1,1,false,z,true,true,0.0-2.0-0.45-0.410-3.410,0,1,0,68,false,stim,false,0,362.60000000009313,0,0,2,23945,task3,1064114,false,true,1327,image-keyboard-response,17
true,20,1,1,1,true,z,false,true,0.0-2.0-0.45-0.411-3.411,0,1,0,90,false,stim,false,1,350.69999999995343,0,1,1,23945,task3,1065988,false,false,1330,image-keyboard-response,18
true,20,2,1,1,false,z,true,false,0.0-2.0-0.45-0.412-3.412,0,1,0,68,false,stim,false,0,654.3000000000466,0,0,2,23945,task3,1068165,false,false,1333,image-keyboard-response,19
true,20,0,1,1,false,z,true,false,0.0-2.0-0.45-0.413-3.413,0,1,0,81,false,stim,false,1,474.80000000004657,0,1,1,23945,task3,1070166,false,false,1336,image-keyboard-response,20
true,20,0,1,0,true,q,false,true,0.0-2.0-0.46-0.414-3.414,0,1,0,81,false,stim,false,1,568.6000000000931,0,0,0,23945,task3,1072251,false,false,1339,image-keyboard-response,21
true,20,0,1,0,true,q,false,true,0.0-2.0-0.46-0.415-3.415,0,1,0,81,false,stim,false,1,547.6999999999534,0,0,0,23945,task3,1074322,false,false,1342,image-keyboard-response,22
true,20,2,1,1,false,z,true,true,0.0-2.0-0.46-0.416-3.416,0,1,0,68,false,stim,false,0,838.1999999999534,0,0,2,23945,task3,1076675,false,true,1345,image-keyboard-response,23
true,20,1,1,1,true,z,false,true,0.0-2.0-0.46-0.417-3.417,0,1,0,90,false,stim,false,1,478.80000000004657,0,1,1,23945,task3,1078666,false,false,1348,image-keyboard-response,24
true,20,0,1,0,true,q,false,true,0.0-2.0-0.46-0.418-3.418,0,1,0,81,false,stim,false,1,614.1999999999534,0,0,0,23945,task3,1080807,false,false,1351,image-keyboard-response,25
true,20,1,1,1,true,z,false,true,0.0-2.0-0.46-0.419-3.419,0,1,0,90,false,stim,false,1,1013.1999999999534,0,0,1,23945,task3,1083331,false,false,1354,image-keyboard-response,26
true,20,1,1,1,true,z,false,false,0.0-2.0-0.46-0.420-3.420,0,1,0,90,false,stim,false,1,608.7000000001863,0,0,1,23945,task3,1085458,false,true,1357,image-keyboard-response,27
true,20,2,1,1,false,z,true,false,0.0-2.0-0.46-0.421-3.421,0,1,0,68,false,stim,false,0,714.3000000000466,0,1,2,23945,task3,1087692,false,false,1360,image-keyboard-response,28
true,20,2,1,1,false,z,true,false,0.0-2.0-0.46-0.422-3.422,0,1,0,68,false,stim,false,0,688.6999999999534,0,1,2,23945,task3,1089902,false,false,1363,image-keyboard-response,29
true,20,1,1,1,true,z,false,true,0.0-2.0-0.47-0.423-3.423,0,1,0,90,false,stim,false,0,409.0999999998603,0,1,2,23945,task3,1091825,false,false,1366,image-keyboard-response,30
true,21,1,1,0,false,q,false,false,0.0-2.0-0.47-0.424-3.424,0,0,1,90,true,stim,true,1,711.1000000000931,0,0,1,23945,task3,1094052,false,false,1369,image-keyboard-response,1
true,21,0,1,1,false,z,false,false,0.0-2.0-0.47-0.425-3.425,0,0,1,81,false,stim,true,0,282.60000000009313,0,0,0,23945,task3,1095862,false,false,1372,image-keyboard-response,2
true,21,2,1,1,false,z,true,false,0.0-2.0-0.47-0.426-3.426,0,0,1,68,false,stim,false,0,1000.6000000000931,0,0,0,23945,task3,1098379,false,false,1375,image-keyboard-response,3
true,21,1,1,1,true,z,false,true,0.0-2.0-0.47-0.427-3.427,0,0,1,90,false,stim,false,1,414.5,0,1,2,23945,task3,1100318,false,false,1378,image-keyboard-response,4
true,21,1,1,1,true,z,false,true,0.0-2.0-0.47-0.428-3.428,0,0,1,90,false,stim,false,1,558.2999999998137,0,1,2,23945,task3,1102387,false,false,1381,image-keyboard-response,5
true,21,1,1,1,true,z,false,true,0.0-2.0-0.47-0.429-3.429,0,0,1,90,false,stim,false,0,508.10000000009313,0,0,0,23945,task3,1104414,false,false,1384,image-keyboard-response,6
true,21,0,1,0,true,q,false,true,0.0-2.0-0.47-0.430-3.430,0,0,1,81,false,stim,false,1,710.8999999999069,0,0,1,23945,task3,1106645,false,false,1387,image-keyboard-response,7
true,21,0,1,0,true,q,false,true,0.0-2.0-0.47-0.431-3.431,0,0,1,81,false,stim,false,1,457.80000000004657,0,0,1,23945,task3,1108627,false,false,1390,image-keyboard-response,8
true,21,1,1,1,true,z,false,true,0.0-2.0-0.48-0.432-3.432,0,0,1,90,false,stim,false,1,1093.3000000000466,0,1,2,23945,task3,1111241,false,false,1393,image-keyboard-response,9
true,21,1,1,1,true,z,false,true,0.0-2.0-0.48-0.433-3.433,0,0,1,90,false,stim,false,0,621.2999999998137,0,1,0,23945,task3,1113385,false,false,1396,image-keyboard-response,10
true,21,1,1,1,true,z,false,true,0.0-2.0-0.48-0.434-3.434,0,0,1,90,false,stim,false,1,1268.3000000000466,0,0,2,23945,task3,1116179,false,false,1399,image-keyboard-response,11
true,21,0,1,0,true,q,false,true,0.0-2.0-0.48-0.435-3.435,0,0,1,81,false,stim,false,1,988.1999999999534,0,1,1,23945,task3,1118691,false,false,1402,image-keyboard-response,12
true,21,1,1,1,true,z,false,true,0.0-2.0-0.48-0.436-3.436,0,0,1,90,false,stim,false,0,1627.9000000001397,0,1,0,23945,task3,1121840,false,false,1405,image-keyboard-response,13
true,21,0,1,0,true,q,false,true,0.0-2.0-0.48-0.437-3.437,0,0,1,81,false,stim,false,1,870.0,0,1,1,23945,task3,1124226,false,false,1408,image-keyboard-response,14
true,22,0,2,0,true,q,false,true,0.0-2.0-0.48-0.438-3.438,1,1,0,81,true,stim,false,0,682.0,0,1,1,23945,task3,1126429,false,false,1411,image-keyboard-response,1
true,22,1,2,1,true,z,false,true,0.0-2.0-0.48-0.439-3.439,1,1,0,90,false,stim,false,1,1567.2999999998137,0,1,0,23945,task3,1129514,false,false,1414,image-keyboard-response,2
true,22,1,2,0,false,q,false,false,0.0-2.0-0.48-0.440-3.440,1,1,0,90,false,stim,true,1,767.6000000000931,0,0,2,23945,task3,1131802,false,false,1417,image-keyboard-response,3
true,22,1,2,1,true,z,false,true,0.0-2.0-0.49-0.441-3.441,1,1,0,90,false,stim,false,1,609.0,0,1,0,23945,task3,1133940,false,false,1420,image-keyboard-response,4
true,22,0,2,0,true,q,false,true,0.0-2.0-0.49-0.442-3.442,1,1,0,81,false,stim,false,0,1462.5,0,1,1,23945,task3,1136915,false,false,1423,image-keyboard-response,5
true,22,0,2,0,true,q,false,true,0.0-2.0-0.49-0.443-3.443,1,1,0,81,false,stim,false,0,580.8000000000466,0,1,1,23945,task3,1139031,false,false,1426,image-keyboard-response,6
true,22,1,2,1,true,z,false,true,0.0-2.0-0.49-0.444-3.444,1,1,0,90,false,stim,false,1,993.6999999999534,0,1,0,23945,task3,1141561,false,false,1429,image-keyboard-response,7
true,22,1,2,0,false,q,false,false,0.0-2.0-0.49-0.445-3.445,1,1,0,90,false,stim,true,1,897.5,0,0,2,23945,task3,1143980,false,false,1432,image-keyboard-response,8
true,22,2,2,0,false,q,true,false,0.0-2.0-0.49-0.446-3.446,1,1,0,68,false,stim,false,1,601.1999999999534,0,0,2,23945,task3,1146108,false,false,1435,image-keyboard-response,9
true,22,1,2,0,false,q,true,false,0.0-2.0-0.49-0.447-3.447,1,1,0,90,false,stim,false,0,1940.5,0,1,1,23945,task3,1149575,false,false,1438,image-keyboard-response,10
true,22,1,2,1,true,z,false,true,0.0-2.0-0.49-0.448-3.448,1,1,0,90,false,stim,false,1,1209.0,0,1,0,23945,task3,1152302,false,false,1441,image-keyboard-response,11
true,22,0,2,0,true,q,false,true,0.0-2.0-0.49-0.449-3.449,1,1,0,81,false,stim,false,1,908.0999999998603,0,0,2,23945,task3,1154726,false,false,1444,image-keyboard-response,12
true,22,0,2,0,true,q,false,true,0.0-2.0-0.50-0.450-3.450,1,1,0,81,false,stim,false,1,618.5,0,0,2,23945,task3,1156873,false,false,1447,image-keyboard-response,13
true,22,0,2,0,true,q,false,true,0.0-2.0-0.50-0.451-3.451,1,1,0,81,false,stim,false,0,1368.5,0,1,1,23945,task3,1159761,false,false,1450,image-keyboard-response,14
true,22,0,2,0,true,q,false,false,0.0-2.0-0.50-0.452-3.452,1,1,0,81,false,stim,false,0,580.1000000000931,0,1,1,23945,task3,1161862,false,true,1453,image-keyboard-response,15
true,22,1,2,1,true,z,false,true,0.0-2.0-0.50-0.453-3.453,1,1,0,90,false,stim,false,1,1274.3999999999069,0,1,0,23945,task3,1164649,false,false,1456,image-keyboard-response,16
true,22,1,2,1,true,z,false,true,0.0-2.0-0.50-0.454-3.454,1,1,0,90,false,stim,false,1,537.6000000000931,0,1,0,23945,task3,1166723,false,false,1459,image-keyboard-response,17
true,22,0,2,0,true,q,false,true,0.0-2.0-0.50-0.455-3.455,1,1,0,81,false,stim,false,0,980.5999999998603,0,1,1,23945,task3,1169219,false,false,1462,image-keyboard-response,18
true,22,1,2,1,true,z,false,true,0.0-2.0-0.50-0.456-3.456,1,1,0,90,false,stim,false,1,954.4000000001397,0,1,0,23945,task3,1171692,false,false,1465,image-keyboard-response,19
true,22,1,2,0,false,q,false,false,0.0-2.0-0.50-0.457-3.457,1,1,0,90,false,stim,true,1,422.80000000004657,0,0,2,23945,task3,1173629,false,false,1468,image-keyboard-response,20
true,22,0,2,0,true,q,false,true,0.0-2.0-0.50-0.458-3.458,1,1,0,81,false,stim,false,1,712.1000000000931,0,0,2,23945,task3,1175864,false,false,1471,image-keyboard-response,21
true,22,0,2,0,true,q,false,true,0.0-2.0-0.51-0.459-3.459,1,1,0,81,false,stim,false,0,560.1999999999534,0,1,1,23945,task3,1177938,false,false,1474,image-keyboard-response,22
true,22,1,2,1,true,z,false,false,0.0-2.0-0.51-0.460-3.460,1,1,0,90,false,stim,false,1,780.3000000000466,0,1,0,23945,task3,1180233,false,true,1477,image-keyboard-response,23
true,22,0,2,0,true,q,false,true,0.0-2.0-0.51-0.461-3.461,1,1,0,81,false,stim,false,1,705.5,0,0,2,23945,task3,1182464,false,false,1480,image-keyboard-response,24
true,22,0,2,0,true,q,false,true,0.0-2.0-0.51-0.462-3.462,1,1,0,81,false,stim,false,0,789.1000000000931,0,0,1,23945,task3,1184773,false,false,1483,image-keyboard-response,25
true,22,1,2,1,true,z,false,true,0.0-2.0-0.51-0.463-3.463,1,1,0,90,false,stim,false,1,626.6999999999534,0,1,0,23945,task3,1186919,false,false,1486,image-keyboard-response,26
true,22,0,2,0,true,q,false,true,0.0-2.0-0.51-0.464-3.464,1,1,0,81,false,stim,false,0,794.8000000000466,0,0,1,23945,task3,1189249,false,false,1489,image-keyboard-response,27
true,23,0,1,2,false,d,false,false,0.0-2.0-0.51-0.465-3.465,1,0,0,81,true,stim,true,0,2336.5,0,0,2,23945,task3,1193099,false,false,1492,image-keyboard-response,1
true,23,2,1,2,true,d,false,true,0.0-2.0-0.51-0.466-3.466,1,0,0,68,false,stim,false,0,1742.6000000000931,0,0,2,23945,task3,1196353,false,false,1495,image-keyboard-response,2
true,23,1,1,1,true,z,false,true,0.0-2.0-0.51-0.467-3.467,1,0,0,90,false,stim,false,1,672.6999999999534,0,1,0,23945,task3,1198554,false,false,1498,image-keyboard-response,3
true,23,1,1,1,true,z,false,true,0.0-2.0-0.52-0.468-3.468,1,0,0,90,false,stim,false,1,578.4000000001397,0,1,0,23945,task3,1200651,false,false,1501,image-keyboard-response,4
true,23,2,1,2,true,d,false,false,0.0-2.0-0.52-0.469-3.469,1,0,0,68,false,stim,false,0,746.1000000000931,0,0,2,23945,task3,1202930,false,true,1504,image-keyboard-response,5
true,23,2,1,2,true,d,false,true,0.0-2.0-0.52-0.470-3.470,1,0,0,68,false,stim,false,0,428.79999999981374,0,0,2,23945,task3,1204876,false,false,1507,image-keyboard-response,6
true,23,0,1,1,false,z,false,false,0.0-2.0-0.52-0.471-3.471,1,0,0,81,false,stim,true,0,984.6999999999534,0,0,1,23945,task3,1207379,false,false,1510,image-keyboard-response,7
true,23,1,1,1,true,z,false,true,0.0-2.0-0.52-0.472-3.472,1,0,0,90,false,stim,false,1,654.1999999999534,0,0,0,23945,task3,1209551,false,false,1513,image-keyboard-response,8
true,23,1,1,2,false,d,true,false,0.0-2.0-0.52-0.473-3.473,1,0,0,90,false,stim,false,0,542.3000000000466,0,1,2,23945,task3,1211609,false,false,1516,image-keyboard-response,9
true,23,1,1,1,true,z,false,true,0.0-2.0-0.52-0.474-3.474,1,0,0,90,false,stim,false,1,661.3999999999069,0,0,0,23945,task3,1213786,false,false,1519,image-keyboard-response,10
true,23,1,1,1,true,z,false,true,0.0-2.0-0.52-0.475-3.475,1,0,0,90,false,stim,false,0,1254.6999999999534,0,1,1,23945,task3,1216558,false,false,1522,image-keyboard-response,11
true,23,1,1,1,true,z,false,true,0.0-2.0-0.52-0.476-3.476,1,0,0,90,false,stim,false,0,572.3999999999069,0,1,1,23945,task3,1218657,false,false,1525,image-keyboard-response,12
true,24,1,2,1,true,z,false,true,0.0-2.0-0.53-0.477-3.477,0,1,1,90,true,stim,false,1,659.4000000001397,0,1,1,23945,task3,1220834,false,false,1528,image-keyboard-response,1
true,24,2,2,2,true,d,false,true,0.0-2.0-0.53-0.478-3.478,0,1,1,68,false,stim,false,1,1395.1999999999534,0,0,0,23945,task3,1223747,false,false,1531,image-keyboard-response,2
true,24,2,2,2,true,d,false,true,0.0-2.0-0.53-0.479-3.479,0,1,1,68,false,stim,false,1,736.8999999999069,0,0,0,23945,task3,1226001,false,false,1534,image-keyboard-response,3
true,24,1,2,2,false,d,true,false,0.0-2.0-0.53-0.480-3.480,0,1,1,90,false,stim,false,2,1316.3000000000466,0,1,2,23945,task3,1228835,false,false,1537,image-keyboard-response,4
true,24,1,2,1,true,z,false,true,0.0-2.0-0.53-0.481-3.481,0,1,1,90,false,stim,false,1,575.6000000000931,0,1,1,23945,task3,1230927,false,false,1540,image-keyboard-response,5
true,24,1,2,2,false,d,true,false,0.0-2.0-0.53-0.482-3.482,0,1,1,90,false,stim,false,2,601.9000000001397,0,1,2,23945,task3,1233055,false,false,1543,image-keyboard-response,6
true,24,2,2,2,true,d,false,true,0.0-2.0-0.53-0.483-3.483,0,1,1,68,false,stim,false,2,1034.3999999999069,0,0,2,23945,task3,1235611,false,false,1546,image-keyboard-response,7
true,24,2,2,2,true,d,false,true,0.0-2.0-0.53-0.484-3.484,0,1,1,68,false,stim,false,1,894.3999999999069,0,1,0,23945,task3,1238017,false,false,1549,image-keyboard-response,8
true,24,1,2,1,true,z,false,true,0.0-2.0-0.53-0.485-3.485,0,1,1,90,false,stim,false,1,647.8999999999069,0,0,1,23945,task3,1240177,false,false,1552,image-keyboard-response,9
true,24,2,2,2,true,d,false,true,0.0-2.0-0.54-0.486-3.486,0,1,1,68,false,stim,false,2,1227.1000000000931,0,0,2,23945,task3,1242930,false,false,1555,image-keyboard-response,10
true,24,1,2,2,false,d,false,false,0.0-2.0-0.54-0.487-3.487,0,1,1,90,false,stim,true,1,818.3000000000466,0,1,0,23945,task3,1245271,false,false,1558,image-keyboard-response,11
true,25,2,1,1,false,z,false,false,0.0-2.0-0.54-0.488-3.488,1,0,0,68,true,stim,true,2,687.0,0,0,2,23945,task3,1247473,false,false,1561,image-keyboard-response,1
true,25,1,1,0,false,q,false,false,0.0-2.0-0.54-0.489-3.489,1,0,0,90,false,stim,true,1,1242.6999999999534,0,0,1,23945,task3,1250225,false,false,1564,image-keyboard-response,2
true,25,0,1,1,false,z,true,true,0.0-2.0-0.54-0.490-3.490,1,0,0,81,false,stim,false,2,1715.4000000001397,0,0,2,23945,task3,1253465,false,true,1567,image-keyboard-response,3
true,25,2,1,0,false,q,true,false,0.0-2.0-0.54-0.491-3.491,1,0,0,68,false,stim,false,1,628.2000000001863,0,0,1,23945,task3,1255610,false,false,1570,image-keyboard-response,4
true,25,0,1,0,true,q,false,true,0.0-2.0-0.54-0.492-3.492,1,0,0,81,false,stim,false,1,1528.8999999999069,0,0,1,23945,task3,1258663,false,false,1573,image-keyboard-response,5
true,25,1,1,2,false,d,true,false,0.0-2.0-0.54-0.493-3.493,1,0,0,90,false,stim,false,2,814.5,0,1,0,23945,task3,1261007,false,false,1576,image-keyboard-response,6
true,25,2,1,2,true,d,false,true,0.0-2.0-0.54-0.494-3.494,1,0,0,68,false,stim,false,2,1375.5,0,1,0,23945,task3,1263909,false,false,1579,image-keyboard-response,7
true,25,0,1,0,true,q,false,true,0.0-2.0-0.55-0.495-3.495,1,0,0,81,false,stim,false,1,357.0,0,0,1,23945,task3,1265804,false,false,1582,image-keyboard-response,8
true,25,2,1,2,true,d,false,true,0.0-2.0-0.55-0.496-3.496,1,0,0,68,false,stim,false,2,658.8999999999069,0,1,0,23945,task3,1267983,false,false,1585,image-keyboard-response,9
true,25,0,1,1,false,z,true,false,0.0-2.0-0.55-0.497-3.497,1,0,0,81,false,stim,false,2,1372.5,0,0,2,23945,task3,1270882,false,false,1588,image-keyboard-response,10
true,25,0,1,1,false,z,true,true,0.0-2.0-0.55-0.498-3.498,1,0,0,81,false,stim,false,2,1390.5999999998603,0,0,2,23945,task3,1273794,false,true,1591,image-keyboard-response,11
true,25,0,1,1,false,z,true,false,0.0-2.0-0.55-0.499-3.499,1,0,0,81,false,stim,false,2,620.6999999999534,0,1,2,23945,task3,1275935,false,false,1594,image-keyboard-response,12
true,25,0,1,0,true,q,false,true,0.0-2.0-0.55-0.500-3.500,1,0,0,81,false,stim,false,1,354.29999999981374,0,1,1,23945,task3,1277818,false,false,1597,image-keyboard-response,13
true,25,0,1,0,true,q,false,true,0.0-2.0-0.55-0.501-3.501,1,0,0,81,false,stim,false,1,695.3000000000466,0,1,1,23945,task3,1280025,false,false,1600,image-keyboard-response,14
true,25,2,1,2,true,d,false,true,0.0-2.0-0.55-0.502-3.502,1,0,0,68,false,stim,false,2,686.9000000001397,0,1,0,23945,task3,1282249,false,false,1603,image-keyboard-response,15
true,25,2,1,2,true,d,false,true,0.0-2.0-0.55-0.503-3.503,1,0,0,68,false,stim,false,2,716.3000000000466,0,1,0,23945,task3,1284478,false,false,1606,image-keyboard-response,16
true,26,0,0,1,false,z,true,false,0.0-2.0-0.56-0.504-3.504,1,1,1,81,true,stim,false,1,984.2999999998137,0,1,2,23945,task3,1408485,false,false,1729,image-keyboard-response,1
true,26,1,0,0,false,q,true,false,0.0-2.0-0.56-0.505-3.505,1,1,1,90,false,stim,false,0,895.1000000000931,0,1,1,23945,task3,1410896,false,false,1732,image-keyboard-response,2
true,26,0,0,2,false,d,true,true,0.0-2.0-0.56-0.506-3.506,1,1,1,81,false,stim,false,2,963.6999999999534,0,1,0,23945,task3,1413385,false,true,1735,image-keyboard-response,3
true,26,1,0,1,true,z,false,true,0.0-2.0-0.56-0.507-3.507,1,1,1,90,false,stim,false,1,924.8999999999069,0,1,2,23945,task3,1415836,false,false,1738,image-keyboard-response,4
true,26,0,0,0,true,q,false,true,0.0-2.0-0.56-0.508-3.508,1,1,1,81,false,stim,false,0,371.39999999990687,0,1,1,23945,task3,1417721,false,false,1741,image-keyboard-response,5
true,26,0,0,0,true,q,false,true,0.0-2.0-0.56-0.509-3.509,1,1,1,81,false,stim,false,0,525.8000000000466,0,1,1,23945,task3,1419761,false,false,1744,image-keyboard-response,6
true,26,0,0,2,false,d,true,false,0.0-2.0-0.56-0.510-3.510,1,1,1,81,false,stim,false,2,494.60000000009313,0,1,0,23945,task3,1421776,false,false,1747,image-keyboard-response,7
true,26,1,0,1,true,z,false,true,0.0-2.0-0.56-0.511-3.511,1,1,1,90,false,stim,false,1,803.8000000000466,0,0,2,23945,task3,1424094,false,false,1750,image-keyboard-response,8
true,26,0,0,2,false,d,true,false,0.0-2.0-0.56-0.512-3.512,1,1,1,81,false,stim,false,2,434.19999999995343,0,1,0,23945,task3,1426049,false,false,1753,image-keyboard-response,9
true,26,1,0,2,false,d,true,false,0.0-2.0-0.57-0.513-3.513,1,1,1,90,false,stim,false,2,751.2999999998137,0,1,0,23945,task3,1428322,false,false,1756,image-keyboard-response,10
true,26,1,0,1,true,z,false,true,0.0-2.0-0.57-0.514-3.514,1,1,1,90,false,stim,false,1,843.8000000000466,0,0,2,23945,task3,1430682,false,false,1759,image-keyboard-response,11
true,26,1,0,1,true,z,false,false,0.0-2.0-0.57-0.515-3.515,1,1,1,90,false,stim,false,1,723.2999999998137,0,0,2,23945,task3,1432922,false,true,1762,image-keyboard-response,12
true,27,0,2,0,true,q,false,true,0.0-2.0-0.57-0.516-3.516,1,1,0,81,true,stim,false,0,662.3000000000466,0,1,1,23945,task3,1435111,false,false,1765,image-keyboard-response,1
true,27,0,2,0,true,q,false,true,0.0-2.0-0.57-0.517-3.517,1,1,0,81,false,stim,false,0,726.0999999998603,0,1,1,23945,task3,1437360,false,false,1768,image-keyboard-response,2
true,27,2,2,2,true,d,false,true,0.0-2.0-0.57-0.518-3.518,1,1,0,68,false,stim,false,2,621.5,0,1,0,23945,task3,1439497,false,false,1771,image-keyboard-response,3
true,27,1,2,2,false,d,false,false,0.0-2.0-0.57-0.519-3.519,1,1,0,90,false,stim,true,1,418.89999999990687,0,0,2,23945,task3,1441443,false,false,1774,image-keyboard-response,4
true,27,2,2,2,true,d,false,true,0.0-2.0-0.57-0.520-3.520,1,1,0,68,false,stim,false,2,705.0999999998603,0,1,0,23945,task3,1443669,false,false,1777,image-keyboard-response,5
true,27,0,2,0,true,q,false,true,0.0-2.0-0.57-0.521-3.521,1,1,0,81,false,stim,false,0,717.9000000001397,0,1,1,23945,task3,1445911,false,false,1780,image-keyboard-response,6
true,27,0,2,0,true,q,false,true,0.0-2.0-0.58-0.522-3.522,1,1,0,81,false,stim,false,0,671.3999999999069,0,1,1,23945,task3,1448094,false,false,1783,image-keyboard-response,7
true,27,2,2,2,true,d,false,true,0.0-2.0-0.58-0.523-3.523,1,1,0,68,false,stim,false,1,1286.7999999998137,0,0,2,23945,task3,1450902,false,false,1786,image-keyboard-response,8
true,27,2,2,0,false,q,true,false,0.0-2.0-0.58-0.524-3.524,1,1,0,68,false,stim,false,0,862.1999999999534,0,1,1,23945,task3,1453279,false,false,1789,image-keyboard-response,9
true,27,2,2,2,true,d,false,true,0.0-2.0-0.58-0.525-3.525,1,1,0,68,false,stim,false,2,1627.1999999999534,0,1,0,23945,task3,1456421,false,false,1792,image-keyboard-response,10
true,27,2,2,2,true,d,false,true,0.0-2.0-0.58-0.526-3.526,1,1,0,68,false,stim,false,1,453.39999999990687,0,0,2,23945,task3,1458388,false,false,1795,image-keyboard-response,11
true,27,0,2,0,true,q,false,false,0.0-2.0-0.58-0.527-3.527,1,1,0,81,false,stim,false,0,507.0999999998603,0,0,1,23945,task3,1460419,false,true,1798,image-keyboard-response,12
true,27,2,2,2,true,d,false,true,0.0-2.0-0.58-0.528-3.528,1,1,0,68,false,stim,false,2,758.6999999999534,0,0,0,23945,task3,1462710,false,false,1801,image-keyboard-response,13
true,27,2,2,2,true,d,false,true,0.0-2.0-0.58-0.529-3.529,1,1,0,68,false,stim,false,2,1698.5999999998603,0,0,0,23945,task3,1465928,false,false,1804,image-keyboard-response,14
true,27,2,2,2,true,d,false,true,0.0-2.0-0.58-0.530-3.530,1,1,0,68,false,stim,false,1,980.3000000000466,0,1,2,23945,task3,1468422,false,false,1807,image-keyboard-response,15
true,27,2,2,2,true,d,false,true,0.0-2.0-0.59-0.531-3.531,1,1,0,68,false,stim,false,1,1107.6999999999534,0,1,2,23945,task3,1471059,false,false,1810,image-keyboard-response,16
true,28,1,1,2,false,d,true,false,0.0-2.0-0.59-0.532-3.532,0,0,1,90,true,stim,false,0,1069.3000000000466,0,0,1,23945,task3,1473650,false,false,1813,image-keyboard-response,1
true,28,2,1,1,false,z,false,false,0.0-2.0-0.59-0.533-3.533,0,0,1,68,false,stim,true,2,799.1999999999534,0,0,0,23945,task3,1475962,false,false,1816,image-keyboard-response,2
true,28,2,1,1,false,z,false,true,0.0-2.0-0.59-0.534-3.534,0,0,1,68,false,stim,true,2,484.39999999990687,0,0,0,23945,task3,1477959,false,true,1819,image-keyboard-response,3
true,28,2,1,2,true,d,false,true,0.0-2.0-0.59-0.535-3.535,0,0,1,68,false,stim,false,2,632.8000000000466,0,1,2,23945,task3,1480109,false,false,1822,image-keyboard-response,4
true,28,2,1,1,false,z,false,true,0.0-2.0-0.59-0.536-3.536,0,0,1,68,false,stim,true,2,910.0,0,0,0,23945,task3,1482545,false,true,1825,image-keyboard-response,5
true,28,2,1,2,true,d,false,true,0.0-2.0-0.59-0.537-3.537,0,0,1,68,false,stim,false,2,1072.1999999999534,0,1,2,23945,task3,1485141,false,false,1828,image-keyboard-response,6
true,28,0,1,2,false,d,false,false,0.0-2.0-0.59-0.538-3.538,0,0,1,81,false,stim,true,0,1187.3000000000466,0,0,1,23945,task3,1487845,false,false,1831,image-keyboard-response,7
true,28,2,1,2,true,d,false,false,0.0-2.0-0.59-0.539-3.539,0,0,1,68,false,stim,false,0,516.1999999999534,0,0,1,23945,task3,1489878,false,true,1834,image-keyboard-response,8
true,28,1,1,2,false,d,true,false,0.0-2.0-0.60-0.540-3.540,0,0,1,90,false,stim,false,0,515.3999999999069,0,0,1,23945,task3,1491909,false,false,1837,image-keyboard-response,9
true,28,2,1,1,false,z,false,false,0.0-2.0-0.60-0.541-3.541,0,0,1,68,false,stim,true,2,614.3999999999069,0,0,0,23945,task3,1494037,false,false,1840,image-keyboard-response,10
true,28,0,1,2,false,d,false,false,0.0-2.0-0.60-0.542-3.542,0,0,1,81,false,stim,true,0,1449.6000000000931,0,0,1,23945,task3,1497003,false,false,1843,image-keyboard-response,11
true,28,2,1,1,false,z,false,true,0.0-2.0-0.60-0.543-3.543,0,0,1,68,false,stim,true,2,1032.1999999999534,0,0,0,23945,task3,1499556,false,true,1846,image-keyboard-response,12
true,28,1,1,2,false,d,true,false,0.0-2.0-0.60-0.544-3.544,0,0,1,90,false,stim,false,2,1467.5,0,1,2,23945,task3,1502548,false,false,1849,image-keyboard-response,13
true,28,1,1,2,false,d,true,false,0.0-2.0-0.60-0.545-3.545,0,0,1,90,false,stim,false,0,852.0,0,0,1,23945,task3,1504915,false,false,1852,image-keyboard-response,14
true,28,2,1,1,false,z,false,true,0.0-2.0-0.60-0.546-3.546,0,0,1,68,false,stim,true,2,506.30000000004657,0,0,0,23945,task3,1506941,false,true,1855,image-keyboard-response,15
true,28,2,1,2,true,d,false,true,0.0-2.0-0.60-0.547-3.547,0,0,1,68,false,stim,false,2,811.7000000001863,0,1,2,23945,task3,1509268,false,false,1858,image-keyboard-response,16
true,28,2,1,2,true,d,false,true,0.0-2.0-0.60-0.548-3.548,0,0,1,68,false,stim,false,2,549.6999999999534,0,1,2,23945,task3,1511331,false,false,1861,image-keyboard-response,17
true,28,2,1,2,true,d,false,true,0.0-2.0-0.61-0.549-3.549,0,0,1,68,false,stim,false,2,530.1999999999534,0,1,2,23945,task3,1513386,false,false,1864,image-keyboard-response,18
true,28,2,1,2,true,d,false,true,0.0-2.0-0.61-0.550-3.550,0,0,1,68,false,stim,false,2,1906.6000000000931,0,1,2,23945,task3,1516812,false,false,1867,image-keyboard-response,19
true,28,2,1,1,false,z,false,false,0.0-2.0-0.61-0.551-3.551,0,0,1,68,false,stim,true,2,486.19999999995343,0,0,0,23945,task3,1518818,false,false,1870,image-keyboard-response,20
true,28,2,1,2,true,d,false,true,0.0-2.0-0.61-0.552-3.552,0,0,1,68,false,stim,false,2,599.8000000000466,0,1,2,23945,task3,1520931,false,false,1873,image-keyboard-response,21
true,28,2,1,1,false,z,false,false,0.0-2.0-0.61-0.553-3.553,0,0,1,68,false,stim,true,2,441.5,0,0,0,23945,task3,1522892,false,false,1876,image-keyboard-response,22
true,28,2,1,2,true,d,false,true,0.0-2.0-0.61-0.554-3.554,0,0,1,68,false,stim,false,0,926.6999999999534,0,0,1,23945,task3,1525339,false,false,1879,image-keyboard-response,23
true,28,1,1,1,true,z,false,true,0.0-2.0-0.61-0.555-3.555,0,0,1,90,false,stim,false,2,995.0,0,1,0,23945,task3,1527849,false,false,1882,image-keyboard-response,24
true,28,2,1,2,true,d,false,true,0.0-2.0-0.61-0.556-3.556,0,0,1,68,false,stim,false,0,416.5,0,0,1,23945,task3,1529791,false,false,1885,image-keyboard-response,25
true,28,2,1,2,true,d,false,true,0.0-2.0-0.61-0.557-3.557,0,0,1,68,false,stim,false,0,988.8000000000466,0,0,1,23945,task3,1532299,false,false,1888,image-keyboard-response,26
true,28,2,1,2,true,d,false,true,0.0-2.0-0.62-0.558-3.558,0,0,1,68,false,stim,false,0,990.0,0,0,1,23945,task3,1534802,false,false,1891,image-keyboard-response,27
true,28,1,1,1,true,z,false,true,0.0-2.0-0.62-0.559-3.559,0,0,1,90,false,stim,false,2,540.1999999999534,0,1,0,23945,task3,1536854,false,false,1894,image-keyboard-response,28
true,29,2,2,0,false,q,false,false,0.0-2.0-0.62-0.560-3.560,1,0,1,68,true,stim,true,2,1069.5,0,0,1,23945,task3,1539447,false,false,1897,image-keyboard-response,1
true,29,2,2,2,true,d,false,true,0.0-2.0-0.62-0.561-3.561,1,0,1,68,false,stim,false,2,958.6999999999534,0,1,2,23945,task3,1541937,false,false,1900,image-keyboard-response,2
true,29,2,2,2,true,d,false,true,0.0-2.0-0.62-0.562-3.562,1,0,1,68,false,stim,false,2,567.3000000000466,0,1,2,23945,task3,1544047,false,false,1903,image-keyboard-response,3
true,29,2,2,2,true,d,false,true,0.0-2.0-0.62-0.563-3.563,1,0,1,68,false,stim,false,2,646.8000000000466,0,1,2,23945,task3,1546216,false,false,1906,image-keyboard-response,4
true,29,1,2,0,false,q,true,false,0.0-2.0-0.62-0.564-3.564,1,0,1,90,false,stim,false,2,670.6000000000931,0,0,1,23945,task3,1548411,false,false,1909,image-keyboard-response,5
true,29,1,2,1,true,z,false,true,0.0-2.0-0.62-0.565-3.565,1,0,1,90,false,stim,false,1,1054.6999999999534,0,1,0,23945,task3,1550998,false,false,1912,image-keyboard-response,6
true,29,1,2,1,true,z,false,false,0.0-2.0-0.62-0.566-3.566,1,0,1,90,false,stim,false,1,558.1999999999534,0,1,0,23945,task3,1553072,false,true,1915,image-keyboard-response,7
true,29,1,2,1,true,z,false,true,0.0-2.0-0.63-0.567-3.567,1,0,1,90,false,stim,false,1,678.1000000000931,0,1,0,23945,task3,1555277,false,false,1918,image-keyboard-response,8
true,29,1,2,1,true,z,false,true,0.0-2.0-0.63-0.568-3.568,1,0,1,90,false,stim,false,1,598.6000000000931,0,1,0,23945,task3,1557410,false,false,1921,image-keyboard-response,9
true,29,0,2,2,false,d,true,false,0.0-2.0-0.63-0.569-3.569,1,0,1,81,false,stim,false,2,435.60000000009313,0,0,2,23945,task3,1559372,false,false,1924,image-keyboard-response,10
true,29,2,2,2,true,d,false,true,0.0-2.0-0.63-0.570-3.570,1,0,1,68,false,stim,false,2,707.6999999999534,0,0,2,23945,task3,1561603,false,false,1927,image-keyboard-response,11
true,29,1,2,1,true,z,false,true,0.0-2.0-0.63-0.571-3.571,1,0,1,90,false,stim,false,1,649.5,0,0,0,23945,task3,1563793,false,false,1930,image-keyboard-response,12
true,29,0,2,0,true,q,false,true,0.0-2.0-0.63-0.572-3.572,1,0,1,81,false,stim,false,2,381.80000000004657,0,1,1,23945,task3,1565697,false,false,1933,image-keyboard-response,13
true,29,2,2,2,true,d,false,true,0.0-2.0-0.63-0.573-3.573,1,0,1,68,false,stim,false,2,552.3999999999069,0,0,2,23945,task3,1567767,false,false,1936,image-keyboard-response,14
true,30,0,1,0,true,q,false,true,0.0-2.0-0.63-0.574-3.574,0,1,0,81,true,stim,false,0,902.8000000000466,0,1,1,23945,task3,1570189,false,false,1939,image-keyboard-response,1
true,30,0,1,0,true,q,false,true,0.0-2.0-0.63-0.575-3.575,0,1,0,81,false,stim,false,0,549.7000000001863,0,1,1,23945,task3,1572264,false,false,1942,image-keyboard-response,2
true,30,0,1,0,true,q,false,true,0.0-2.0-0.64-0.576-3.576,0,1,0,81,false,stim,false,0,494.10000000009313,0,1,1,23945,task3,1574285,false,false,1945,image-keyboard-response,3
true,30,2,1,0,false,q,false,false,0.0-2.0-0.64-0.577-3.577,0,1,0,68,false,stim,true,2,951.1000000000931,0,0,2,23945,task3,1576763,false,false,1948,image-keyboard-response,4
true,30,1,1,2,false,d,false,false,0.0-2.0-0.64-0.578-3.578,0,1,0,90,false,stim,true,1,633.3000000000466,0,0,0,23945,task3,1578917,false,false,1951,image-keyboard-response,5
true,30,0,1,0,true,q,false,true,0.0-2.0-0.64-0.579-3.579,0,1,0,81,false,stim,false,0,822.6000000000931,0,1,1,23945,task3,1581257,false,false,1954,image-keyboard-response,6
true,30,1,1,0,false,q,true,false,0.0-2.0-0.64-0.580-3.580,0,1,0,90,false,stim,false,0,1763.0,0,1,1,23945,task3,1584547,false,false,1957,image-keyboard-response,7
true,30,1,1,0,false,q,true,false,0.0-2.0-0.64-0.581-3.581,0,1,0,90,false,stim,false,2,1073.5999999998603,0,0,2,23945,task3,1587145,false,false,1960,image-keyboard-response,8
true,30,0,1,2,false,d,true,false,0.0-2.0-0.64-0.582-3.582,0,1,0,81,false,stim,false,1,1561.1000000000931,0,0,0,23945,task3,1590219,false,false,1963,image-keyboard-response,9
true,30,0,1,0,true,q,false,true,0.0-2.0-0.64-0.583-3.583,0,1,0,81,false,stim,false,2,1375.6999999999534,0,0,2,23945,task3,1593111,false,false,1966,image-keyboard-response,10
true,30,2,1,2,true,d,false,true,0.0-2.0-0.64-0.584-3.584,0,1,0,68,false,stim,false,1,648.8000000000466,0,0,0,23945,task3,1595272,false,false,1969,image-keyboard-response,11
true,30,0,1,0,true,q,false,true,0.0-2.0-0.65-0.585-3.585,0,1,0,81,false,stim,false,2,1015.7000000001863,0,0,2,23945,task3,1597810,false,false,1972,image-keyboard-response,12
true,30,0,1,0,true,q,false,true,0.0-2.0-0.65-0.586-3.586,0,1,0,81,false,stim,false,2,700.9000000001397,0,0,2,23945,task3,1600033,false,false,1975,image-keyboard-response,13
true,30,0,1,0,true,q,false,true,0.0-2.0-0.65-0.587-3.587,0,1,0,81,false,stim,false,0,1356.6000000000931,0,1,1,23945,task3,1602909,false,false,1978,image-keyboard-response,14
true,30,2,1,2,true,d,false,true,0.0-2.0-0.65-0.588-3.588,0,1,0,68,false,stim,false,1,1200.2000000001863,0,0,0,23945,task3,1605631,false,false,1981,image-keyboard-response,15
true,30,0,1,0,true,q,false,true,0.0-2.0-0.65-0.589-3.589,0,1,0,81,false,stim,false,0,868.2000000001863,0,1,1,23945,task3,1608029,false,false,1984,image-keyboard-response,16
