answered,blockNum,choice,condition,corResp,correct,correct_response,explo,fb,internal_node_id,isStable_1,isStable_2,isStable_3,key_press,newBlock,part,persev,persevResp,rt,sessNum,stableAS,stimulus,subject,task,time_elapsed,training,trap,trial_index,trial_type,trialsInBlock
true,1,1,0,0,false,q,true,false,0.0-2.0-0.0-0.0-3.0,0,0,0,90,true,stim,false,-1,997.0,1,0,1,23945,task2,143474,false,false,106,image-keyboard-response,1
true,1,0,0,2,false,d,true,false,0.0-2.0-0.0-0.1-3.1,0,0,0,81,false,stim,false,-1,560.0999999999767,1,0,0,23945,task2,145555,false,false,109,image-keyboard-response,2
true,1,0,0,0,true,q,false,true,0.0-2.0-0.0-0.2-3.2,0,0,0,81,false,stim,false,-1,836.5999999999767,1,0,1,23945,task2,147903,false,false,112,image-keyboard-response,3
true,1,0,0,2,false,d,true,false,0.0-2.0-0.0-0.3-3.3,0,0,0,81,false,stim,false,-1,1245.399999999965,1,0,0,23945,task2,150669,false,false,115,image-keyboard-response,4
true,1,2,0,2,true,d,false,true,0.0-2.0-0.0-0.4-3.4,0,0,0,68,false,stim,false,-1,456.4000000000233,1,0,0,23945,task2,152637,false,false,118,image-keyboard-response,5
true,1,1,0,0,false,q,true,true,0.0-2.0-0.0-0.5-3.5,0,0,0,90,false,stim,false,-1,626.2999999999884,1,0,2,23945,task2,154785,false,true,121,image-keyboard-response,6
true,1,1,0,0,false,q,true,false,0.0-2.0-0.0-0.6-3.6,0,0,0,90,false,stim,false,-1,820.7000000000116,1,0,2,23945,task2,157119,false,false,124,image-keyboard-response,7
true,1,1,0,0,false,q,true,false,0.0-2.0-0.0-0.7-3.7,0,0,0,90,false,stim,false,-1,750.5,1,0,2,23945,task2,159394,false,false,127,image-keyboard-response,8
true,1,0,0,0,true,q,false,true,0.0-2.0-0.0-0.8-3.8,0,0,0,81,false,stim,false,-1,748.5,1,0,1,23945,task2,161659,false,false,130,image-keyboard-response,9
true,1,0,0,0,true,q,false,true,0.0-2.0-0.1-0.9-3.9,0,0,0,81,false,stim,false,-1,798.6000000000349,1,0,1,23945,task2,163974,false,false,133,image-keyboard-response,10
true,1,2,0,0,false,q,true,false,0.0-2.0-0.1-0.10-3.10,0,0,0,68,false,stim,false,-1,396.70000000001164,1,0,2,23945,task2,165886,false,false,136,image-keyboard-response,11
true,1,2,0,2,true,d,false,true,0.0-2.0-0.1-0.11-3.11,0,0,0,68,false,stim,false,-1,767.1000000000349,1,0,0,23945,task2,168171,false,false,139,image-keyboard-response,12
true,1,0,0,0,true,q,false,false,0.0-2.0-0.1-0.12-3.12,0,0,0,81,false,stim,false,-1,486.79999999998836,1,0,2,23945,task2,170183,false,true,142,image-keyboard-response,13
true,1,0,0,0,true,q,false,true,0.0-2.0-0.1-0.13-3.13,0,0,0,81,false,stim,false,-1,706.5999999999767,1,0,1,23945,task2,172403,false,false,145,image-keyboard-response,14
true,1,2,0,2,true,d,false,true,0.0-2.0-0.1-0.14-3.14,0,0,0,68,false,stim,false,-1,883.4000000000233,1,0,0,23945,task2,174801,false,false,148,image-keyboard-response,15
true,1,0,0,0,true,q,false,true,0.0-2.0-0.1-0.15-3.15,0,0,0,81,false,stim,false,-1,618.0999999999767,1,0,1,23945,task2,176934,false,false,151,image-keyboard-response,16
true,1,1,0,0,false,q,true,false,0.0-2.0-0.1-0.16-3.16,0,0,0,90,false,stim,false,-1,1407.4000000000233,1,0,2,23945,task2,179853,false,false,154,image-keyboard-response,17
true,1,2,0,2,true,d,false,true,0.0-2.0-0.1-0.17-3.17,0,0,0,68,false,stim,false,-1,786.5,1,0,0,23945,task2,182158,false,false,157,image-keyboard-response,18
true,1,2,0,0,false,q,true,false,0.0-2.0-0.2-0.18-3.18,0,0,0,68,false,stim,false,-1,2084.899999999965,1,0,2,23945,task2,185754,false,false,160,image-keyboard-response,19
true,1,0,0,0,true,q,false,true,0.0-2.0-0.2-0.19-3.19,0,0,0,81,false,stim,false,-1,713.1000000000349,1,0,1,23945,task2,187979,false,false,163,image-keyboard-response,20
true,1,1,0,0,false,q,true,false,0.0-2.0-0.2-0.20-3.20,0,0,0,90,false,stim,false,-1,1171.5,1,0,2,23945,task2,190668,false,false,166,image-keyboard-response,21
true,1,0,0,0,true,q,false,true,0.0-2.0-0.2-0.21-3.21,0,0,0,81,false,stim,false,-1,918.9000000000233,1,0,2,23945,task2,193106,false,false,169,image-keyboard-response,22
true,1,0,0,0,true,q,false,true,0.0-2.0-0.2-0.22-3.22,0,0,0,81,false,stim,false,-1,1180.9000000000233,1,1,1,23945,task2,195807,false,false,172,image-keyboard-response,23
true,1,2,0,2,true,d,false,false,0.0-2.0-0.2-0.23-3.23,0,0,0,68,false,stim,false,-1,532.0999999999767,1,0,0,23945,task2,197847,false,true,175,image-keyboard-response,24
true,1,2,0,2,true,d,false,true,0.0-2.0-0.2-0.24-3.24,0,0,0,68,false,stim,false,-1,2246.6999999999534,1,0,0,23945,task2,201608,false,false,178,image-keyboard-response,25
true,1,2,0,2,true,d,false,true,0.0-2.0-0.2-0.25-3.25,0,0,0,68,false,stim,false,-1,1202.7000000000116,1,0,0,23945,task2,204327,false,false,181,image-keyboard-response,26
true,2,0,2,0,true,q,false,true,0.0-2.0-0.2-0.26-3.26,0,1,0,81,true,stim,false,0,1076.2999999999884,1,1,1,23945,task2,206927,false,false,184,image-keyboard-response,1
true,2,2,2,0,false,q,false,true,0.0-2.0-0.3-0.27-3.27,0,1,0,68,false,stim,true,2,1111.5999999999767,1,0,0,23945,task2,209560,false,true,187,image-keyboard-response,2
true,2,0,2,0,true,q,false,true,0.0-2.0-0.3-0.28-3.28,0,1,0,81,false,stim,false,0,527.2000000000116,1,1,1,23945,task2,211602,false,false,190,image-keyboard-response,3
true,2,0,2,0,true,q,false,true,0.0-2.0-0.3-0.29-3.29,0,1,0,81,false,stim,false,0,593.4000000000233,1,1,1,23945,task2,213711,false,false,193,image-keyboard-response,4
true,2,1,2,1,true,z,false,true,0.0-2.0-0.3-0.30-3.30,0,1,0,90,false,stim,false,0,1989.5999999999767,1,0,2,23945,task2,217217,false,false,196,image-keyboard-response,5
true,2,1,2,0,false,q,true,false,0.0-2.0-0.3-0.31-3.31,0,1,0,90,false,stim,false,0,1095.0,1,1,1,23945,task2,219823,false,false,199,image-keyboard-response,6
true,2,1,2,1,true,z,false,true,0.0-2.0-0.3-0.32-3.32,0,1,0,90,false,stim,false,0,786.1999999999534,1,0,2,23945,task2,222124,false,false,202,image-keyboard-response,7
true,2,2,2,0,false,q,false,false,0.0-2.0-0.3-0.33-3.33,0,1,0,68,false,stim,true,2,2598.600000000035,1,0,0,23945,task2,226231,false,false,205,image-keyboard-response,8
true,2,2,2,0,false,q,false,false,0.0-2.0-0.3-0.34-3.34,0,1,0,68,false,stim,true,2,644.4000000000233,1,0,0,23945,task2,228396,false,false,208,image-keyboard-response,9
true,2,1,2,1,true,z,false,true,0.0-2.0-0.3-0.35-3.35,0,1,0,90,false,stim,false,0,795.6000000000349,1,0,2,23945,task2,230703,false,false,211,image-keyboard-response,10
true,2,1,2,1,true,z,false,true,0.0-2.0-0.4-0.36-3.36,0,1,0,90,false,stim,false,0,495.70000000001164,1,0,2,23945,task2,232713,false,false,214,image-keyboard-response,11
true,2,1,2,0,false,q,true,false,0.0-2.0-0.4-0.37-3.37,0,1,0,90,false,stim,false,2,1914.0999999999767,1,0,0,23945,task2,236151,false,false,217,image-keyboard-response,12
true,2,0,2,0,true,q,false,true,0.0-2.0-0.4-0.38-3.38,0,1,0,81,false,stim,false,2,933.7000000000116,1,0,0,23945,task2,238605,false,false,220,image-keyboard-response,13
true,2,1,2,1,true,z,false,true,0.0-2.0-0.4-0.39-3.39,0,1,0,90,false,stim,false,0,668.2000000000116,1,0,2,23945,task2,240793,false,false,223,image-keyboard-response,14
true,2,0,2,0,true,q,false,true,0.0-2.0-0.4-0.40-3.40,0,1,0,81,false,stim,false,2,1460.0999999999767,1,0,0,23945,task2,243770,false,false,226,image-keyboard-response,15
true,2,0,2,0,true,q,false,true,0.0-2.0-0.4-0.41-3.41,0,1,0,81,false,stim,false,0,835.5,1,1,1,23945,task2,246129,false,false,229,image-keyboard-response,16
true,2,1,2,1,true,z,false,true,0.0-2.0-0.4-0.42-3.42,0,1,0,90,false,stim,false,0,351.6000000000349,1,0,2,23945,task2,248006,false,false,232,image-keyboard-response,17
true,2,0,2,0,true,q,false,true,0.0-2.0-0.4-0.43-3.43,0,1,0,81,false,stim,false,0,794.0999999999767,1,1,1,23945,task2,250315,false,false,235,image-keyboard-response,18
true,2,0,2,0,true,q,false,true,0.0-2.0-0.4-0.44-3.44,0,1,0,81,false,stim,false,0,612.4000000000233,1,1,1,23945,task2,252448,false,false,238,image-keyboard-response,19
true,2,0,2,0,true,q,false,true,0.0-2.0-0.5-0.45-3.45,0,1,0,81,false,stim,false,2,1076.0999999999767,1,0,0,23945,task2,255036,false,false,241,image-keyboard-response,20
true,2,0,2,0,true,q,false,true,0.0-2.0-0.5-0.46-3.46,0,1,0,81,false,stim,false,2,921.5999999999767,1,0,0,23945,task2,257479,false,false,244,image-keyboard-response,21
true,2,1,2,1,true,z,false,true,0.0-2.0-0.5-0.47-3.47,0,1,0,90,false,stim,false,0,916.1999999999534,1,0,2,23945,task2,259918,false,false,247,image-keyboard-response,22
true,2,0,2,0,true,q,false,true,0.0-2.0-0.5-0.48-3.48,0,1,0,81,false,stim,false,2,1480.4000000000233,1,0,0,23945,task2,262906,false,false,250,image-keyboard-response,23
true,2,1,2,1,true,z,false,false,0.0-2.0-0.5-0.49-3.49,0,1,0,90,false,stim,false,0,632.7000000000698,1,0,2,23945,task2,265052,false,true,253,image-keyboard-response,24
true,2,0,2,0,true,q,false,true,0.0-2.0-0.5-0.50-3.50,0,1,0,81,false,stim,false,0,566.8000000000466,1,1,1,23945,task2,267128,false,false,256,image-keyboard-response,25
true,2,1,2,1,true,z,false,true,0.0-2.0-0.5-0.51-3.51,0,1,0,90,false,stim,false,0,920.8000000000466,1,0,2,23945,task2,269556,false,false,259,image-keyboard-response,26
true,2,0,2,0,true,q,false,true,0.0-2.0-0.5-0.52-3.52,0,1,0,81,false,stim,false,0,596.7999999999302,1,0,1,23945,task2,271670,false,false,262,image-keyboard-response,27
true,2,0,2,0,true,q,false,true,0.0-2.0-0.5-0.53-3.53,0,1,0,81,false,stim,false,0,585.0999999999767,1,0,1,23945,task2,273765,false,false,265,image-keyboard-response,28
true,2,0,2,0,true,q,false,true,0.0-2.0-0.6-0.54-3.54,0,1,0,81,false,stim,false,2,739.5,1,0,0,23945,task2,276021,false,false,268,image-keyboard-response,29
true,2,0,2,0,true,q,false,true,0.0-2.0-0.6-0.55-3.55,0,1,0,81,false,stim,false,0,1322.5,1,0,1,23945,task2,278868,false,false,271,image-keyboard-response,30
true,2,1,2,1,true,z,false,true,0.0-2.0-0.6-0.56-3.56,0,1,0,90,false,stim,false,0,975.4000000000233,1,0,2,23945,task2,281365,false,false,274,image-keyboard-response,31
true,3,1,1,2,false,d,false,true,0.0-2.0-0.6-0.57-3.57,0,0,0,90,true,stim,true,1,778.4000000000233,1,0,2,23945,task2,283666,false,true,277,image-keyboard-response,1
true,3,0,1,2,false,d,true,false,0.0-2.0-0.6-0.58-3.58,0,0,0,81,false,stim,false,1,1994.9000000000233,1,0,2,23945,task2,287181,false,false,280,image-keyboard-response,2
true,3,0,1,2,false,d,false,false,0.0-2.0-0.6-0.59-3.59,0,0,0,81,false,stim,true,0,1317.0,1,0,1,23945,task2,290020,false,false,283,image-keyboard-response,3
true,3,2,1,1,false,z,true,false,0.0-2.0-0.6-0.60-3.60,0,0,0,68,false,stim,false,0,2258.8000000000466,1,0,0,23945,task2,293795,false,false,286,image-keyboard-response,4
true,3,0,1,2,false,d,false,false,0.0-2.0-0.6-0.61-3.61,0,0,0,81,false,stim,true,0,1803.7999999999302,1,0,1,23945,task2,297108,false,false,289,image-keyboard-response,5
false,3,-1,1,1,false,z,true,false,0.0-2.0-0.6-0.62-3.62,0,0,0,,false,stim,false,0,,1,0,0,23945,task2,301641,false,false,292,image-keyboard-response,6
true,3,0,1,1,false,z,false,false,0.0-2.0-0.7-0.63-3.63,0,0,0,81,false,stim,true,0,619.1000000000931,1,0,0,23945,task2,303786,false,false,295,image-keyboard-response,7
true,3,0,1,2,false,d,false,false,0.0-2.0-0.7-0.64-3.64,0,0,0,81,false,stim,true,0,1178.2999999999302,1,0,1,23945,task2,306477,false,false,298,image-keyboard-response,8
true,3,2,1,1,false,z,true,false,0.0-2.0-0.7-0.65-3.65,0,0,0,68,false,stim,false,0,884.0,1,0,0,23945,task2,308873,false,false,301,image-keyboard-response,9
true,3,1,1,1,true,z,false,true,0.0-2.0-0.7-0.66-3.66,0,0,0,90,false,stim,false,0,700.6000000000931,1,0,0,23945,task2,311097,false,false,304,image-keyboard-response,10
true,3,1,1,2,false,d,false,false,0.0-2.0-0.7-0.67-3.67,0,0,0,90,false,stim,true,1,908.9000000000233,1,0,2,23945,task2,313524,false,false,307,image-keyboard-response,11
true,3,0,1,2,false,d,false,false,0.0-2.0-0.7-0.68-3.68,0,0,0,81,false,stim,true,0,687.0,1,0,1,23945,task2,315734,false,false,310,image-keyboard-response,12
true,3,2,1,2,true,d,false,true,0.0-2.0-0.7-0.69-3.69,0,0,0,68,false,stim,false,1,1134.5,1,0,2,23945,task2,318385,false,false,313,image-keyboard-response,13
true,3,2,1,2,true,d,false,true,0.0-2.0-0.7-0.70-3.70,0,0,0,68,false,stim,false,1,596.9000000000233,1,0,2,23945,task2,320491,false,false,316,image-keyboard-response,14
true,3,2,1,2,true,d,false,true,0.0-2.0-0.7-0.71-3.71,0,0,0,68,false,stim,false,0,367.0999999999767,1,0,1,23945,task2,322367,false,false,319,image-keyboard-response,15
true,3,2,1,2,true,d,false,true,0.0-2.0-0.8-0.72-3.72,0,0,0,68,false,stim,false,0,406.79999999993015,1,0,1,23945,task2,324296,false,false,322,image-keyboard-response,16
true,3,1,1,1,true,z,false,true,0.0-2.0-0.8-0.73-3.73,0,0,0,90,false,stim,false,0,486.19999999995343,1,0,0,23945,task2,326307,false,false,325,image-keyboard-response,17
true,3,2,1,2,true,d,false,true,0.0-2.0-0.8-0.74-3.74,0,0,0,68,false,stim,false,1,440.20000000006985,1,0,2,23945,task2,328259,false,false,328,image-keyboard-response,18
true,3,2,1,2,true,d,false,true,0.0-2.0-0.8-0.75-3.75,0,0,0,68,false,stim,false,1,417.4000000000233,1,0,2,23945,task2,330187,false,false,331,image-keyboard-response,19
true,3,2,1,2,true,d,false,true,0.0-2.0-0.8-0.76-3.76,0,0,0,68,false,stim,false,0,523.6999999999534,1,0,1,23945,task2,332224,false,false,334,image-keyboard-response,20
true,3,2,1,2,true,d,false,true,0.0-2.0-0.8-0.77-3.77,0,0,0,68,false,stim,false,1,634.0,1,0,2,23945,task2,334376,false,false,337,image-keyboard-response,21
true,3,2,1,2,true,d,false,true,0.0-2.0-0.8-0.78-3.78,0,0,0,68,false,stim,false,0,542.5,1,0,1,23945,task2,336437,false,false,340,image-keyboard-response,22
true,3,1,1,1,true,z,false,true,0.0-2.0-0.8-0.79-3.79,0,0,0,90,false,stim,false,0,951.5,1,0,0,23945,task2,338904,false,false,343,image-keyboard-response,23
true,3,1,1,1,true,z,false,true,0.0-2.0-0.8-0.80-3.80,0,0,0,90,false,stim,false,0,565.4000000000233,1,0,0,23945,task2,340994,false,false,346,image-keyboard-response,24
true,3,2,1,2,true,d,false,true,0.0-2.0-0.9-0.81-3.81,0,0,0,68,false,stim,false,0,534.6999999999534,1,0,1,23945,task2,343042,false,false,349,image-keyboard-response,25
true,3,2,1,2,true,d,false,true,0.0-2.0-0.9-0.82-3.82,0,0,0,68,false,stim,false,0,431.20000000006985,1,0,1,23945,task2,344985,false,false,352,image-keyboard-response,26
true,3,1,1,1,true,z,false,true,0.0-2.0-0.9-0.83-3.83,0,0,0,90,false,stim,false,0,1122.9000000000233,1,0,0,23945,task2,347627,false,false,355,image-keyboard-response,27
true,3,2,1,2,true,d,false,true,0.0-2.0-0.9-0.84-3.84,0,0,0,68,false,stim,false,1,562.5999999999767,1,0,2,23945,task2,349710,false,false,358,image-keyboard-response,28
true,3,2,1,2,true,d,false,false,0.0-2.0-0.9-0.85-3.85,0,0,0,68,false,stim,false,1,361.69999999995343,1,0,2,23945,task2,351586,false,true,361,image-keyboard-response,29
true,3,1,1,1,true,z,false,true,0.0-2.0-0.9-0.86-3.86,0,0,0,90,false,stim,false,0,669.7999999999302,1,0,0,23945,task2,353776,false,false,364,image-keyboard-response,30
true,3,2,1,2,true,d,false,true,0.0-2.0-0.9-0.87-3.87,0,0,0,68,false,stim,false,0,578.1999999999534,1,1,1,23945,task2,355862,false,false,367,image-keyboard-response,31
true,3,1,1,1,true,z,false,true,0.0-2.0-0.9-0.88-3.88,0,0,0,90,false,stim,false,0,593.5999999999767,1,0,0,23945,task2,357971,false,false,370,image-keyboard-response,32
true,3,2,1,2,true,d,false,true,0.0-2.0-0.9-0.89-3.89,0,0,0,68,false,stim,false,1,355.5999999999767,1,0,2,23945,task2,359842,false,false,373,image-keyboard-response,33
true,3,2,1,2,true,d,false,false,0.0-2.0-0.10-0.90-3.90,0,0,0,68,false,stim,false,1,551.0,1,0,2,23945,task2,361904,false,true,376,image-keyboard-response,34
true,3,1,1,1,true,z,false,false,0.0-2.0-0.10-0.91-3.91,0,0,0,90,false,stim,false,0,726.0999999999767,1,0,0,23945,task2,364150,false,true,379,image-keyboard-response,35
true,4,1,2,2,false,d,false,false,0.0-2.0-0.10-0.92-3.92,0,1,0,90,true,stim,true,1,516.0,1,0,0,23945,task2,366189,false,false,382,image-keyboard-response,1
true,4,2,2,0,false,q,false,false,0.0-2.0-0.10-0.93-3.93,0,1,0,68,false,stim,true,2,563.1999999999534,1,0,2,23945,task2,368264,false,false,385,image-keyboard-response,2
true,4,2,2,2,true,d,false,true,0.0-2.0-0.10-0.94-3.94,0,1,0,68,false,stim,false,2,1086.9000000000233,1,1,1,23945,task2,370862,false,false,388,image-keyboard-response,3
true,4,2,2,2,true,d,false,false,0.0-2.0-0.10-0.95-3.95,0,1,0,68,false,stim,false,2,733.9000000000233,1,1,1,23945,task2,373108,false,true,391,image-keyboard-response,4
true,4,0,2,2,false,d,true,false,0.0-2.0-0.10-0.96-3.96,0,1,0,81,false,stim,false,1,944.7999999999302,1,0,0,23945,task2,375569,false,false,394,image-keyboard-response,5
true,4,0,2,0,true,q,false,true,0.0-2.0-0.10-0.97-3.97,0,1,0,81,false,stim,false,2,989.2999999999302,1,0,2,23945,task2,378067,false,false,397,image-keyboard-response,6
true,4,0,2,2,false,d,true,false,0.0-2.0-0.10-0.98-3.98,0,1,0,81,false,stim,false,2,710.0999999999767,1,1,1,23945,task2,380294,false,false,400,image-keyboard-response,7
true,4,2,2,0,false,q,false,true,0.0-2.0-0.11-0.99-3.99,0,1,0,68,false,stim,true,2,1340.5,1,0,2,23945,task2,383153,false,true,403,image-keyboard-response,8
true,4,0,2,2,false,d,true,false,0.0-2.0-0.11-0.100-3.100,0,1,0,81,false,stim,false,1,714.2000000000698,1,0,0,23945,task2,385382,false,false,406,image-keyboard-response,9
true,4,2,2,2,true,d,false,true,0.0-2.0-0.11-0.101-3.101,0,1,0,68,false,stim,false,2,1087.4000000000233,1,1,1,23945,task2,387990,false,false,409,image-keyboard-response,10
true,4,0,2,2,false,d,true,false,0.0-2.0-0.11-0.102-3.102,0,1,0,81,false,stim,false,1,1052.7999999999302,1,0,0,23945,task2,390556,false,false,412,image-keyboard-response,11
true,4,0,2,2,false,d,true,false,0.0-2.0-0.11-0.103-3.103,0,1,0,81,false,stim,false,2,1638.9000000000233,1,1,1,23945,task2,393715,false,false,415,image-keyboard-response,12
true,4,1,2,2,false,d,false,false,0.0-2.0-0.11-0.104-3.104,0,1,0,90,false,stim,true,1,809.3000000000466,1,0,0,23945,task2,396048,false,false,418,image-keyboard-response,13
true,4,2,2,0,false,q,false,false,0.0-2.0-0.11-0.105-3.105,0,1,0,68,false,stim,true,2,1665.0999999999767,1,0,2,23945,task2,399233,false,false,421,image-keyboard-response,14
true,4,1,2,2,false,d,true,false,0.0-2.0-0.11-0.106-3.106,0,1,0,90,false,stim,false,2,2720.3000000000466,1,1,1,23945,task2,403474,false,false,424,image-keyboard-response,15
true,4,0,2,0,true,q,false,true,0.0-2.0-0.11-0.107-3.107,0,1,0,81,false,stim,false,2,447.69999999995343,1,0,2,23945,task2,405433,false,false,427,image-keyboard-response,16
true,4,0,2,0,true,q,false,false,0.0-2.0-0.12-0.108-3.108,0,1,0,81,false,stim,false,2,523.4000000000233,1,0,2,23945,task2,407475,false,true,430,image-keyboard-response,17
true,4,0,2,0,true,q,false,true,0.0-2.0-0.12-0.109-3.109,0,1,0,81,false,stim,false,2,679.5,1,0,2,23945,task2,409676,false,false,433,image-keyboard-response,18
true,4,2,2,2,true,d,false,false,0.0-2.0-0.12-0.110-3.110,0,1,0,68,false,stim,false,1,1193.8000000000466,1,0,0,23945,task2,412396,false,true,436,image-keyboard-response,19
true,4,2,2,2,true,d,false,true,0.0-2.0-0.12-0.111-3.111,0,1,0,68,false,stim,false,1,725.2000000000698,1,0,0,23945,task2,414639,false,false,439,image-keyboard-response,20
true,4,1,2,2,false,d,true,false,0.0-2.0-0.12-0.112-3.112,0,1,0,90,false,stim,false,2,610.9000000000233,1,1,1,23945,task2,416773,false,false,442,image-keyboard-response,21
true,4,2,2,2,true,d,false,true,0.0-2.0-0.12-0.113-3.113,0,1,0,68,false,stim,false,2,555.4000000000233,1,1,1,23945,task2,418853,false,false,445,image-keyboard-response,22
true,4,2,2,2,true,d,false,true,0.0-2.0-0.12-0.114-3.114,0,1,0,68,false,stim,false,2,439.29999999993015,1,1,1,23945,task2,420812,false,false,448,image-keyboard-response,23
true,4,2,2,2,true,d,false,true,0.0-2.0-0.12-0.115-3.115,0,1,0,68,false,stim,false,1,848.0999999999767,1,0,0,23945,task2,423183,false,false,451,image-keyboard-response,24
true,4,2,2,0,false,q,false,false,0.0-2.0-0.12-0.116-3.116,0,1,0,68,false,stim,true,2,663.5,1,0,2,23945,task2,425354,false,false,454,image-keyboard-response,25
true,4,0,2,0,true,q,false,true,0.0-2.0-0.13-0.117-3.117,0,1,0,81,false,stim,false,2,379.4000000000233,1,0,2,23945,task2,427254,false,false,457,image-keyboard-response,26
true,4,2,2,2,true,d,false,true,0.0-2.0-0.13-0.118-3.118,0,1,0,68,false,stim,false,2,783.7000000000698,1,1,1,23945,task2,429559,false,false,460,image-keyboard-response,27
true,4,0,2,0,true,q,false,true,0.0-2.0-0.13-0.119-3.119,0,1,0,81,false,stim,false,2,1008.0,1,0,2,23945,task2,432081,false,false,463,image-keyboard-response,28
true,4,0,2,0,true,q,false,true,0.0-2.0-0.13-0.120-3.120,0,1,0,81,false,stim,false,2,2053.4000000000233,1,0,2,23945,task2,435645,false,false,466,image-keyboard-response,29
true,4,2,2,2,true,d,false,true,0.0-2.0-0.13-0.121-3.121,0,1,0,68,false,stim,false,1,649.0,1,0,0,23945,task2,437805,false,false,469,image-keyboard-response,30
true,4,2,2,2,true,d,false,true,0.0-2.0-0.13-0.122-3.122,0,1,0,68,false,stim,false,2,1237.9000000000233,1,1,1,23945,task2,440564,false,false,472,image-keyboard-response,31
true,4,2,2,2,true,d,false,true,0.0-2.0-0.13-0.123-3.123,0,1,0,68,false,stim,false,2,494.9000000000233,1,1,1,23945,task2,442573,false,false,475,image-keyboard-response,32
true,4,2,2,2,true,d,false,true,0.0-2.0-0.13-0.124-3.124,0,1,0,68,false,stim,false,1,707.1999999999534,1,0,0,23945,task2,444803,false,false,478,image-keyboard-response,33
true,4,2,2,2,true,d,false,true,0.0-2.0-0.13-0.125-3.125,0,1,0,68,false,stim,false,1,362.0999999999767,1,0,0,23945,task2,446676,false,false,481,image-keyboard-response,34
true,4,0,2,0,true,q,false,true,0.0-2.0-0.14-0.126-3.126,0,1,0,81,false,stim,false,2,1519.5,1,0,2,23945,task2,449714,false,false,484,image-keyboard-response,35
true,5,2,2,1,false,z,false,false,0.0-2.0-0.14-0.127-3.127,0,1,0,68,true,stim,true,2,747.3999999999069,1,0,0,23945,task2,451984,false,false,487,image-keyboard-response,1
true,5,2,2,1,false,z,false,false,0.0-2.0-0.14-0.128-3.128,0,1,0,68,false,stim,true,2,534.5,1,0,0,23945,task2,454037,false,false,490,image-keyboard-response,2
true,5,2,2,1,false,z,true,true,0.0-2.0-0.14-0.129-3.129,0,1,0,68,false,stim,false,0,607.2999999999302,1,0,2,23945,task2,456163,false,true,493,image-keyboard-response,3
true,5,0,2,1,false,z,true,false,0.0-2.0-0.14-0.130-3.130,0,1,0,81,false,stim,false,2,1259.5,1,0,0,23945,task2,458934,false,false,496,image-keyboard-response,4
true,5,2,2,1,false,z,true,false,0.0-2.0-0.14-0.131-3.131,0,1,0,68,false,stim,false,0,740.5999999999767,1,0,2,23945,task2,461189,false,false,499,image-keyboard-response,5
true,5,2,2,2,true,d,false,true,0.0-2.0-0.14-0.132-3.132,0,1,0,68,false,stim,false,2,1134.8999999999069,1,1,1,23945,task2,463848,false,false,502,image-keyboard-response,6
true,5,2,2,2,true,d,false,false,0.0-2.0-0.14-0.133-3.133,0,1,0,68,false,stim,false,2,688.0,1,1,1,23945,task2,466051,false,true,505,image-keyboard-response,7
true,5,2,2,2,true,d,false,false,0.0-2.0-0.14-0.134-3.134,0,1,0,68,false,stim,false,2,865.5,1,1,1,23945,task2,468427,false,true,508,image-keyboard-response,8
true,5,1,2,1,true,z,false,true,0.0-2.0-0.15-0.135-3.135,0,1,0,90,false,stim,false,2,1350.0,1,0,0,23945,task2,471290,false,false,511,image-keyboard-response,9
true,5,2,2,1,false,z,true,false,0.0-2.0-0.15-0.136-3.136,0,1,0,68,false,stim,false,0,599.7000000000698,1,0,2,23945,task2,473408,false,false,514,image-keyboard-response,10
true,5,1,2,1,true,z,false,false,0.0-2.0-0.15-0.137-3.137,0,1,0,90,false,stim,false,2,2333.100000000093,1,0,0,23945,task2,477264,false,true,517,image-keyboard-response,11
true,5,0,2,1,false,z,true,false,0.0-2.0-0.15-0.138-3.138,0,1,0,81,false,stim,false,2,1381.3000000000466,1,0,0,23945,task2,480166,false,false,520,image-keyboard-response,12
true,5,2,2,2,true,d,false,true,0.0-2.0-0.15-0.139-3.139,0,1,0,68,false,stim,false,2,955.5,1,1,1,23945,task2,482636,false,false,523,image-keyboard-response,13
true,5,2,2,1,false,z,true,true,0.0-2.0-0.15-0.140-3.140,0,1,0,68,false,stim,false,0,1061.7999999999302,1,0,2,23945,task2,485214,false,true,526,image-keyboard-response,14
true,5,2,2,1,false,z,true,false,0.0-2.0-0.15-0.141-3.141,0,1,0,68,false,stim,false,0,1514.4000000000233,1,0,2,23945,task2,488248,false,false,529,image-keyboard-response,15
true,5,1,2,2,false,d,true,false,0.0-2.0-0.15-0.142-3.142,0,1,0,90,false,stim,false,2,487.19999999995343,1,1,1,23945,task2,490260,false,false,532,image-keyboard-response,16
true,5,0,2,2,false,d,true,false,0.0-2.0-0.15-0.143-3.143,0,1,0,81,false,stim,false,2,680.2000000000698,1,1,1,23945,task2,492460,false,false,535,image-keyboard-response,17
true,5,2,2,1,false,z,true,false,0.0-2.0-0.16-0.144-3.144,0,1,0,68,false,stim,false,0,696.6999999999534,1,0,2,23945,task2,494676,false,false,538,image-keyboard-response,18
true,5,1,2,1,true,z,false,true,0.0-2.0-0.16-0.145-3.145,0,1,0,90,false,stim,false,2,589.1000000000931,1,0,0,23945,task2,496786,false,false,541,image-keyboard-response,19
true,5,1,2,2,false,d,true,false,0.0-2.0-0.16-0.146-3.146,0,1,0,90,false,stim,false,2,1252.0999999999767,1,1,1,23945,task2,499553,false,false,544,image-keyboard-response,20
true,5,1,2,1,true,z,false,true,0.0-2.0-0.16-0.147-3.147,0,1,0,90,false,stim,false,2,797.1999999999534,1,0,0,23945,task2,501866,false,false,547,image-keyboard-response,21
true,5,1,2,2,false,d,true,false,0.0-2.0-0.16-0.148-3.148,0,1,0,90,false,stim,false,2,879.3000000000466,1,1,1,23945,task2,504258,false,false,550,image-keyboard-response,22
true,5,0,2,1,false,z,false,false,0.0-2.0-0.16-0.149-3.149,0,1,0,81,false,stim,true,0,762.0999999999767,1,0,2,23945,task2,506536,false,false,553,image-keyboard-response,23
true,5,2,2,1,false,z,true,false,0.0-2.0-0.16-0.150-3.150,0,1,0,68,false,stim,false,0,411.0999999999767,1,0,2,23945,task2,508464,false,false,556,image-keyboard-response,24
true,5,1,2,1,true,z,false,true,0.0-2.0-0.16-0.151-3.151,0,1,0,90,false,stim,false,2,731.6999999999534,1,0,0,23945,task2,510719,false,false,559,image-keyboard-response,25
true,5,2,2,2,true,d,false,true,0.0-2.0-0.16-0.152-3.152,0,1,0,68,false,stim,false,2,1196.8000000000466,1,1,1,23945,task2,513434,false,false,562,image-keyboard-response,26
true,5,2,2,2,true,d,false,true,0.0-2.0-0.17-0.153-3.153,0,1,0,68,false,stim,false,2,621.0,1,1,1,23945,task2,515569,false,false,565,image-keyboard-response,27
true,5,1,2,1,true,z,false,true,0.0-2.0-0.17-0.154-3.154,0,1,0,90,false,stim,false,0,1194.7000000000698,1,0,2,23945,task2,518281,false,false,568,image-keyboard-response,28
true,5,2,2,2,true,d,false,true,0.0-2.0-0.17-0.155-3.155,0,1,0,68,false,stim,false,2,1142.1999999999534,1,1,1,23945,task2,520938,false,false,571,image-keyboard-response,29
true,5,1,2,1,true,z,false,true,0.0-2.0-0.17-0.156-3.156,0,1,0,90,false,stim,false,2,306.4000000000233,1,0,0,23945,task2,522761,false,false,574,image-keyboard-response,30
true,5,1,2,1,true,z,false,true,0.0-2.0-0.17-0.157-3.157,0,1,0,90,false,stim,false,0,561.4000000000233,1,0,2,23945,task2,524847,false,false,577,image-keyboard-response,31
true,5,1,2,1,true,z,false,true,0.0-2.0-0.17-0.158-3.158,0,1,0,90,false,stim,false,2,532.3000000000466,1,1,0,23945,task2,526896,false,false,580,image-keyboard-response,32
true,5,1,2,1,true,z,false,true,0.0-2.0-0.17-0.159-3.159,0,1,0,90,false,stim,false,2,477.89999999990687,1,1,0,23945,task2,528895,false,false,583,image-keyboard-response,33
true,5,2,2,1,false,z,true,false,0.0-2.0-0.17-0.160-3.160,0,1,0,68,false,stim,false,0,796.3999999999069,1,0,2,23945,task2,531207,false,false,586,image-keyboard-response,34
true,5,2,2,2,true,d,false,true,0.0-2.0-0.17-0.161-3.161,0,1,0,68,false,stim,false,2,640.1999999999534,1,0,1,23945,task2,533363,false,false,589,image-keyboard-response,35
true,6,2,2,1,false,z,false,false,0.0-2.0-0.18-0.162-3.162,1,0,0,68,true,stim,true,2,630.7000000000698,1,0,1,23945,task2,535508,false,false,592,image-keyboard-response,1
true,6,1,2,2,false,d,false,false,0.0-2.0-0.18-0.163-3.163,1,0,0,90,false,stim,true,1,348.10000000009313,1,0,2,23945,task2,537380,false,false,595,image-keyboard-response,2
true,6,1,2,1,true,z,false,true,0.0-2.0-0.18-0.164-3.164,1,0,0,90,false,stim,false,2,589.0,1,0,1,23945,task2,539494,false,false,598,image-keyboard-response,3
true,6,1,2,1,true,z,false,true,0.0-2.0-0.18-0.165-3.165,1,0,0,90,false,stim,false,1,612.3000000000466,1,1,0,23945,task2,541622,false,false,601,image-keyboard-response,4
true,6,1,2,1,true,z,false,true,0.0-2.0-0.18-0.166-3.166,1,0,0,90,false,stim,false,1,862.2999999999302,1,1,0,23945,task2,544003,false,false,604,image-keyboard-response,5
true,6,1,2,1,true,z,false,true,0.0-2.0-0.18-0.167-3.167,1,0,0,90,false,stim,false,2,1642.5999999999767,1,0,1,23945,task2,547159,false,false,607,image-keyboard-response,6
true,6,1,2,1,true,z,false,true,0.0-2.0-0.18-0.168-3.168,1,0,0,90,false,stim,false,1,634.4000000000233,1,1,0,23945,task2,549316,false,false,610,image-keyboard-response,7
true,6,0,2,2,false,d,true,false,0.0-2.0-0.18-0.169-3.169,1,0,0,81,false,stim,false,1,1443.9000000000233,1,0,2,23945,task2,552277,false,false,613,image-keyboard-response,8
true,6,2,2,2,true,d,false,true,0.0-2.0-0.18-0.170-3.170,1,0,0,68,false,stim,false,1,551.6999999999534,1,0,2,23945,task2,554352,false,false,616,image-keyboard-response,9
true,6,2,2,2,true,d,false,true,0.0-2.0-0.19-0.171-3.171,1,0,0,68,false,stim,false,1,1254.7999999999302,1,0,2,23945,task2,557130,false,false,619,image-keyboard-response,10
true,6,1,2,1,true,z,false,true,0.0-2.0-0.19-0.172-3.172,1,0,0,90,false,stim,false,1,484.80000000004657,1,1,0,23945,task2,559136,false,false,622,image-keyboard-response,11
true,6,1,2,1,true,z,false,true,0.0-2.0-0.19-0.173-3.173,1,0,0,90,false,stim,false,2,492.0,1,0,1,23945,task2,561133,false,false,625,image-keyboard-response,12
true,6,1,2,2,false,d,false,false,0.0-2.0-0.19-0.174-3.174,1,0,0,90,false,stim,true,1,668.0999999999767,1,0,2,23945,task2,563322,false,false,628,image-keyboard-response,13
true,6,2,2,1,false,z,true,false,0.0-2.0-0.19-0.175-3.175,1,0,0,68,false,stim,false,1,1105.2000000000698,1,1,0,23945,task2,565947,false,false,631,image-keyboard-response,14
true,6,1,2,1,true,z,false,true,0.0-2.0-0.19-0.176-3.176,1,0,0,90,false,stim,false,2,700.2999999999302,1,0,1,23945,task2,568172,false,false,634,image-keyboard-response,15
true,6,1,2,2,false,d,false,false,0.0-2.0-0.19-0.177-3.177,1,0,0,90,false,stim,true,1,843.0999999999767,1,0,2,23945,task2,570533,false,false,637,image-keyboard-response,16
true,6,2,2,1,false,z,true,false,0.0-2.0-0.19-0.178-3.178,1,0,0,68,false,stim,false,1,722.6999999999534,1,1,0,23945,task2,572769,false,false,640,image-keyboard-response,17
true,6,1,2,1,true,z,false,true,0.0-2.0-0.19-0.179-3.179,1,0,0,90,false,stim,false,2,327.79999999993015,1,0,1,23945,task2,574612,false,false,643,image-keyboard-response,18
true,6,1,2,2,false,d,false,false,0.0-2.0-0.20-0.180-3.180,1,0,0,90,false,stim,true,1,1662.7999999999302,1,0,2,23945,task2,577799,false,false,646,image-keyboard-response,19
true,6,0,2,2,false,d,true,false,0.0-2.0-0.20-0.181-3.181,1,0,0,81,false,stim,false,1,340.29999999993015,1,0,2,23945,task2,579650,false,false,649,image-keyboard-response,20
true,6,0,2,1,false,z,true,false,0.0-2.0-0.20-0.182-3.182,1,0,0,81,false,stim,false,2,907.5999999999767,1,0,1,23945,task2,582073,false,false,652,image-keyboard-response,21
true,6,1,2,1,true,z,false,true,0.0-2.0-0.20-0.183-3.183,1,0,0,90,false,stim,false,1,720.2000000000698,1,1,0,23945,task2,584310,false,false,655,image-keyboard-response,22
true,6,1,2,2,false,d,false,false,0.0-2.0-0.20-0.184-3.184,1,0,0,90,false,stim,true,1,1054.3000000000466,1,0,2,23945,task2,586872,false,false,658,image-keyboard-response,23
true,6,2,2,1,false,z,true,false,0.0-2.0-0.20-0.185-3.185,1,0,0,68,false,stim,false,1,2157.70000000007,1,1,0,23945,task2,590546,false,false,661,image-keyboard-response,24
true,6,2,2,1,false,z,true,false,0.0-2.0-0.20-0.186-3.186,1,0,0,68,false,stim,false,1,2396.5,1,1,0,23945,task2,594453,false,false,664,image-keyboard-response,25
false,6,-1,2,1,false,z,true,false,0.0-2.0-0.20-0.187-3.187,1,0,0,,false,stim,false,2,,1,0,1,23945,task2,598985,false,false,667,image-keyboard-response,26
true,6,1,2,1,true,z,false,true,0.0-2.0-0.20-0.188-3.188,1,0,0,90,false,stim,false,2,610.3000000000466,1,0,1,23945,task2,601114,false,false,670,image-keyboard-response,27
true,6,2,2,1,false,z,true,false,0.0-2.0-0.21-0.189-3.189,1,0,0,68,false,stim,false,1,1017.7000000000698,1,1,0,23945,task2,603642,false,false,673,image-keyboard-response,28
true,6,0,2,1,false,z,true,false,0.0-2.0-0.21-0.190-3.190,1,0,0,81,false,stim,false,2,940.0999999999767,1,0,1,23945,task2,606105,false,false,676,image-keyboard-response,29
true,6,1,2,1,true,z,false,true,0.0-2.0-0.21-0.191-3.191,1,0,0,90,false,stim,false,1,1141.2000000000698,1,1,0,23945,task2,608759,false,false,679,image-keyboard-response,30
true,6,2,2,1,false,z,false,false,0.0-2.0-0.21-0.192-3.192,1,0,0,68,false,stim,true,2,2700.20000000007,1,0,1,23945,task2,612980,false,false,682,image-keyboard-response,31
true,6,2,2,2,true,d,false,true,0.0-2.0-0.21-0.193-3.193,1,0,0,68,false,stim,false,1,2432.0999999999767,1,0,2,23945,task2,616926,false,false,685,image-keyboard-response,32
false,6,-1,2,2,false,d,true,false,0.0-2.0-0.21-0.194-3.194,1,0,0,,false,stim,false,1,,1,0,2,23945,task2,621455,false,false,688,image-keyboard-response,33
true,6,0,2,1,false,z,true,false,0.0-2.0-0.21-0.195-3.195,1,0,0,81,false,stim,false,2,1242.4000000000233,1,0,1,23945,task2,624220,false,false,691,image-keyboard-response,34
true,6,1,2,2,false,d,false,false,0.0-2.0-0.21-0.196-3.196,1,0,0,90,false,stim,true,1,852.0,1,0,2,23945,task2,626592,false,false,694,image-keyboard-response,35
true,7,2,1,0,false,q,true,false,0.0-2.0-0.21-0.197-3.197,0,0,0,68,true,stim,false,1,815.9000000000233,1,0,0,23945,task2,628933,false,false,697,image-keyboard-response,1
true,7,1,1,2,false,d,false,false,0.0-2.0-0.22-0.198-3.198,0,0,0,90,false,stim,true,1,917.0,1,0,1,23945,task2,631360,false,false,700,image-keyboard-response,2
true,7,0,1,0,true,q,false,true,0.0-2.0-0.22-0.199-3.199,0,0,0,81,false,stim,false,1,668.0,1,0,0,23945,task2,633550,false,false,703,image-keyboard-response,3
true,7,1,1,1,true,z,false,true,0.0-2.0-0.22-0.200-3.200,0,0,0,90,false,stim,false,2,1733.9000000000233,1,0,2,23945,task2,636802,false,false,706,image-keyboard-response,4
true,7,1,1,2,false,d,false,true,0.0-2.0-0.22-0.201-3.201,0,0,0,90,false,stim,true,1,1530.1999999999534,1,0,1,23945,task2,639845,false,true,709,image-keyboard-response,5
true,7,1,1,2,false,d,false,false,0.0-2.0-0.22-0.202-3.202,0,0,0,90,false,stim,true,1,1003.0,1,0,1,23945,task2,642374,false,false,712,image-keyboard-response,6
true,7,1,1,1,true,z,false,true,0.0-2.0-0.22-0.203-3.203,0,0,0,90,false,stim,false,2,1110.5,1,0,2,23945,task2,645008,false,false,715,image-keyboard-response,7
true,7,0,1,0,true,q,false,true,0.0-2.0-0.22-0.204-3.204,0,0,0,81,false,stim,false,1,722.7000000000698,1,0,0,23945,task2,647261,false,false,718,image-keyboard-response,8
true,7,0,1,1,false,z,true,false,0.0-2.0-0.22-0.205-3.205,0,0,0,81,false,stim,false,2,1196.7999999999302,1,0,2,23945,task2,649975,false,false,721,image-keyboard-response,9
true,7,1,1,0,false,q,false,false,0.0-2.0-0.22-0.206-3.206,0,0,0,90,false,stim,true,1,844.5999999999767,1,0,0,23945,task2,652334,false,false,724,image-keyboard-response,10
true,7,0,1,1,false,z,true,false,0.0-2.0-0.23-0.207-3.207,0,0,0,81,false,stim,false,2,394.0999999999767,1,0,2,23945,task2,654235,false,false,727,image-keyboard-response,11
true,7,2,1,1,false,z,false,false,0.0-2.0-0.23-0.208-3.208,0,0,0,68,false,stim,true,2,428.70000000006985,1,0,2,23945,task2,656184,false,false,730,image-keyboard-response,12
true,7,0,1,0,true,q,false,true,0.0-2.0-0.23-0.209-3.209,0,0,0,81,false,stim,false,1,765.0999999999767,1,0,0,23945,task2,658473,false,false,733,image-keyboard-response,13
true,7,0,1,0,true,q,false,true,0.0-2.0-0.23-0.210-3.210,0,0,0,81,false,stim,false,1,645.9000000000233,1,0,0,23945,task2,660631,false,false,736,image-keyboard-response,14
true,7,1,1,2,false,d,false,false,0.0-2.0-0.23-0.211-3.211,0,0,0,90,false,stim,true,1,1803.0,1,0,1,23945,task2,663956,false,false,739,image-keyboard-response,15
true,7,0,1,2,false,d,true,false,0.0-2.0-0.23-0.212-3.212,0,0,0,81,false,stim,false,1,1065.7999999999302,1,0,1,23945,task2,666535,false,false,742,image-keyboard-response,16
true,7,2,1,2,true,d,false,true,0.0-2.0-0.23-0.213-3.213,0,0,0,68,false,stim,false,1,779.0,1,0,1,23945,task2,668834,false,false,745,image-keyboard-response,17
true,7,0,1,0,true,q,false,true,0.0-2.0-0.23-0.214-3.214,0,0,0,81,false,stim,false,1,2784.70000000007,1,0,0,23945,task2,673137,false,false,748,image-keyboard-response,18
true,7,1,1,1,true,z,false,true,0.0-2.0-0.23-0.215-3.215,0,0,0,90,false,stim,false,2,1812.2000000000698,1,0,2,23945,task2,676467,false,false,751,image-keyboard-response,19
true,7,0,1,0,true,q,false,true,0.0-2.0-0.24-0.216-3.216,0,0,0,81,false,stim,false,1,674.3999999999069,1,0,0,23945,task2,678656,false,false,754,image-keyboard-response,20
true,7,0,1,1,false,z,true,true,0.0-2.0-0.24-0.217-3.217,0,0,0,81,false,stim,false,2,1609.6999999999534,1,0,2,23945,task2,681775,false,true,757,image-keyboard-response,21
true,7,2,1,2,true,d,false,true,0.0-2.0-0.24-0.218-3.218,0,0,0,68,false,stim,false,1,1368.2000000000698,1,0,1,23945,task2,684665,false,false,760,image-keyboard-response,22
true,7,0,1,1,false,z,true,false,0.0-2.0-0.24-0.219-3.219,0,0,0,81,false,stim,false,2,2100.5999999999767,1,0,2,23945,task2,688285,false,false,763,image-keyboard-response,23
true,7,0,1,0,true,q,false,true,0.0-2.0-0.24-0.220-3.220,0,0,0,81,false,stim,false,1,605.5999999999767,1,0,0,23945,task2,690421,false,false,766,image-keyboard-response,24
true,7,1,1,1,true,z,false,false,0.0-2.0-0.24-0.221-3.221,0,0,0,90,false,stim,false,2,713.0999999999767,1,0,2,23945,task2,692660,false,true,769,image-keyboard-response,25
true,7,2,1,2,true,d,false,true,0.0-2.0-0.24-0.222-3.222,0,0,0,68,false,stim,false,1,930.7999999999302,1,0,1,23945,task2,695111,false,false,772,image-keyboard-response,26
true,7,2,1,2,true,d,false,true,0.0-2.0-0.24-0.223-3.223,0,0,0,68,false,stim,false,1,672.2999999999302,1,0,1,23945,task2,697304,false,false,775,image-keyboard-response,27
true,7,1,1,0,false,q,false,false,0.0-2.0-0.24-0.224-3.224,0,0,0,90,false,stim,true,1,2055.4000000000233,1,0,0,23945,task2,700893,false,false,778,image-keyboard-response,28
true,7,2,1,0,false,q,true,false,0.0-2.0-0.25-0.225-3.225,0,0,0,68,false,stim,false,1,1152.0,1,0,0,23945,task2,703560,false,false,781,image-keyboard-response,29
true,7,0,1,2,false,d,true,false,0.0-2.0-0.25-0.226-3.226,0,0,0,81,false,stim,false,1,492.0999999999767,1,0,1,23945,task2,705568,false,false,784,image-keyboard-response,30
true,7,1,1,1,true,z,false,false,0.0-2.0-0.25-0.227-3.227,0,0,0,90,false,stim,false,2,481.20000000006985,1,0,2,23945,task2,707563,false,true,787,image-keyboard-response,31
true,7,1,1,2,false,d,false,false,0.0-2.0-0.25-0.228-3.228,0,0,0,90,false,stim,true,1,639.3999999999069,1,0,1,23945,task2,709714,false,false,790,image-keyboard-response,32
true,7,2,1,0,false,q,true,false,0.0-2.0-0.25-0.229-3.229,0,0,0,68,false,stim,false,1,1502.1000000000931,1,0,0,23945,task2,712731,false,false,793,image-keyboard-response,33
true,7,0,1,1,false,z,true,false,0.0-2.0-0.25-0.230-3.230,0,0,0,81,false,stim,false,2,698.2000000000698,1,0,2,23945,task2,714951,false,false,796,image-keyboard-response,34
true,7,1,1,1,true,z,false,true,0.0-2.0-0.25-0.231-3.231,0,0,0,90,false,stim,false,2,390.69999999995343,1,0,2,23945,task2,716857,false,false,799,image-keyboard-response,35
true,7,0,1,2,false,d,true,false,0.0-2.0-0.25-0.232-3.232,0,0,0,81,false,stim,false,1,1039.3000000000466,1,0,1,23945,task2,719426,false,false,802,image-keyboard-response,36
true,7,2,1,0,false,q,true,false,0.0-2.0-0.25-0.233-3.233,0,0,0,68,false,stim,false,1,948.1999999999534,1,0,0,23945,task2,721895,false,false,805,image-keyboard-response,37
true,7,1,1,2,false,d,false,false,0.0-2.0-0.26-0.234-3.234,0,0,0,90,false,stim,true,1,2289.5,1,0,1,23945,task2,725696,false,false,808,image-keyboard-response,38
true,8,0,1,1,false,z,false,true,0.0-2.0-0.26-0.235-3.235,0,0,0,81,true,stim,true,0,610.5999999999767,1,0,0,23945,task2,727827,false,true,811,image-keyboard-response,1
true,8,0,1,0,true,q,false,true,0.0-2.0-0.26-0.236-3.236,0,0,0,81,false,stim,false,2,575.2999999999302,1,0,1,23945,task2,729917,false,false,814,image-keyboard-response,2
true,8,1,1,0,false,q,false,false,0.0-2.0-0.26-0.237-3.237,0,0,0,90,false,stim,true,1,836.0999999999767,1,0,2,23945,task2,732273,false,false,817,image-keyboard-response,3
true,8,0,1,1,false,z,false,false,0.0-2.0-0.26-0.238-3.238,0,0,0,81,false,stim,true,0,999.6999999999534,1,0,0,23945,task2,734790,false,false,820,image-keyboard-response,4
true,8,2,1,0,false,q,false,false,0.0-2.0-0.26-0.239-3.239,0,0,0,68,false,stim,true,2,238.59999999997672,1,0,1,23945,task2,736554,false,false,823,image-keyboard-response,5
true,8,0,1,0,true,q,false,true,0.0-2.0-0.26-0.240-3.240,0,0,0,81,false,stim,false,1,455.19999999995343,1,0,2,23945,task2,738525,false,false,826,image-keyboard-response,6
true,8,1,1,1,true,z,false,false,0.0-2.0-0.26-0.241-3.241,0,0,0,90,false,stim,false,0,569.2000000000698,1,0,0,23945,task2,740615,false,true,829,image-keyboard-response,7
true,8,2,1,0,false,q,true,false,0.0-2.0-0.26-0.242-3.242,0,0,0,68,false,stim,false,1,1015.0999999999767,1,0,2,23945,task2,743151,false,false,832,image-keyboard-response,8
true,8,2,1,0,false,q,true,true,0.0-2.0-0.27-0.243-3.243,0,0,0,68,false,stim,false,1,587.0,1,0,2,23945,task2,745274,false,true,835,image-keyboard-response,9
true,8,1,1,1,true,z,false,true,0.0-2.0-0.27-0.244-3.244,0,0,0,90,false,stim,false,0,734.1999999999534,1,0,0,23945,task2,747527,false,false,838,image-keyboard-response,10
true,8,2,1,0,false,q,true,false,0.0-2.0-0.27-0.245-3.245,0,0,0,68,false,stim,false,1,486.0,1,0,2,23945,task2,749523,false,false,841,image-keyboard-response,11
false,8,-1,1,0,false,q,true,false,0.0-2.0-0.27-0.246-3.246,0,0,0,,false,stim,false,2,,1,0,1,23945,task2,754036,false,false,844,image-keyboard-response,12
true,8,0,1,0,true,q,false,true,0.0-2.0-0.27-0.247-3.247,0,0,0,81,false,stim,false,2,758.9000000000233,1,0,1,23945,task2,756315,false,false,847,image-keyboard-response,13
true,8,1,1,0,false,q,false,false,0.0-2.0-0.27-0.248-3.248,0,0,0,90,false,stim,true,1,1026.9000000000233,1,0,2,23945,task2,758859,false,false,850,image-keyboard-response,14
true,8,1,1,1,true,z,false,true,0.0-2.0-0.27-0.249-3.249,0,0,0,90,false,stim,false,0,748.5999999999767,1,0,0,23945,task2,761126,false,false,853,image-keyboard-response,15
true,8,2,1,0,false,q,false,false,0.0-2.0-0.27-0.250-3.250,0,0,0,68,false,stim,true,2,1310.2000000000698,1,0,1,23945,task2,763948,false,false,856,image-keyboard-response,16
false,8,-1,1,1,false,z,true,false,0.0-2.0-0.27-0.251-3.251,0,0,0,,false,stim,false,0,,1,0,0,23945,task2,768475,false,false,859,image-keyboard-response,17
false,8,-1,1,0,false,q,true,true,0.0-2.0-0.28-0.252-3.252,0,0,0,,false,stim,false,2,,1,0,1,23945,task2,772998,false,true,862,image-keyboard-response,18
true,8,0,1,0,true,q,false,true,0.0-2.0-0.28-0.253-3.253,0,0,0,81,false,stim,false,2,576.7999999999302,1,0,1,23945,task2,775096,false,false,865,image-keyboard-response,19
true,8,0,1,1,false,z,false,true,0.0-2.0-0.28-0.254-3.254,0,0,0,81,false,stim,true,0,2295.4000000000233,1,0,0,23945,task2,778908,false,true,868,image-keyboard-response,20
true,8,2,1,0,false,q,true,false,0.0-2.0-0.28-0.255-3.255,0,0,0,68,false,stim,false,1,1832.8000000000466,1,0,2,23945,task2,782261,false,false,871,image-keyboard-response,21
true,8,0,1,0,true,q,false,true,0.0-2.0-0.28-0.256-3.256,0,0,0,81,false,stim,false,2,944.3000000000466,1,0,1,23945,task2,784724,false,false,874,image-keyboard-response,22
true,8,0,1,1,false,z,false,true,0.0-2.0-0.28-0.257-3.257,0,0,0,81,false,stim,true,0,2527.0,1,0,0,23945,task2,788774,false,true,877,image-keyboard-response,23
true,8,1,1,0,false,q,false,false,0.0-2.0-0.28-0.258-3.258,0,0,0,90,false,stim,true,1,1707.4000000000233,1,0,2,23945,task2,792004,false,false,880,image-keyboard-response,24
true,8,1,1,1,true,z,false,true,0.0-2.0-0.28-0.259-3.259,0,0,0,90,false,stim,false,0,552.6999999999534,1,0,0,23945,task2,794075,false,false,883,image-keyboard-response,25
true,8,0,1,0,true,q,false,true,0.0-2.0-0.28-0.260-3.260,0,0,0,81,false,stim,false,1,582.8000000000466,1,0,2,23945,task2,796178,false,false,886,image-keyboard-response,26
true,8,0,1,0,true,q,false,true,0.0-2.0-0.29-0.261-3.261,0,0,0,81,false,stim,false,1,337.19999999995343,1,0,2,23945,task2,798038,false,false,889,image-keyboard-response,27
true,8,0,1,0,true,q,false,true,0.0-2.0-0.29-0.262-3.262,0,0,0,81,false,stim,false,1,955.6999999999534,1,0,2,23945,task2,800512,false,false,892,image-keyboard-response,28
true,8,0,1,0,true,q,false,true,0.0-2.0-0.29-0.263-3.263,0,0,0,81,false,stim,false,2,1393.3000000000466,1,0,1,23945,task2,803426,false,false,895,image-keyboard-response,29
true,8,0,1,0,true,q,false,true,0.0-2.0-0.29-0.264-3.264,0,0,0,81,false,stim,false,1,2002.7999999999302,1,0,2,23945,task2,806955,false,false,898,image-keyboard-response,30
true,8,1,1,1,true,z,false,true,0.0-2.0-0.29-0.265-3.265,0,0,0,90,false,stim,false,0,814.8000000000466,1,0,0,23945,task2,809294,false,false,901,image-keyboard-response,31
true,8,1,1,1,true,z,false,true,0.0-2.0-0.29-0.266-3.266,0,0,0,90,false,stim,false,0,1457.1999999999534,1,0,0,23945,task2,812281,false,false,904,image-keyboard-response,32
true,8,1,1,1,true,z,false,true,0.0-2.0-0.29-0.267-3.267,0,0,0,90,false,stim,false,0,489.4000000000233,1,0,0,23945,task2,814290,false,false,907,image-keyboard-response,33
true,8,0,1,0,true,q,false,true,0.0-2.0-0.29-0.268-3.268,0,0,0,81,false,stim,false,2,1243.1999999999534,1,0,1,23945,task2,817052,false,false,910,image-keyboard-response,34
true,9,0,1,2,false,d,false,false,0.0-2.0-0.29-0.269-3.269,0,0,0,81,true,stim,true,0,1447.4000000000233,1,0,1,23945,task2,820020,false,false,913,image-keyboard-response,1
true,9,1,1,0,false,q,false,false,0.0-2.0-0.30-0.270-3.270,0,0,0,90,false,stim,true,1,803.8000000000466,1,0,0,23945,task2,822355,false,false,916,image-keyboard-response,2
true,9,0,1,2,false,d,false,true,0.0-2.0-0.30-0.271-3.271,0,0,0,81,false,stim,true,0,723.5999999999767,1,0,2,23945,task2,824601,false,true,919,image-keyboard-response,3
true,9,1,1,0,false,q,false,false,0.0-2.0-0.30-0.272-3.272,0,0,0,90,false,stim,true,1,1099.9000000000233,1,0,0,23945,task2,827219,false,false,922,image-keyboard-response,4
true,9,2,1,0,false,q,true,false,0.0-2.0-0.30-0.273-3.273,0,0,0,68,false,stim,false,1,899.5999999999767,1,0,0,23945,task2,829639,false,false,925,image-keyboard-response,5
true,9,0,1,2,false,d,false,false,0.0-2.0-0.30-0.274-3.274,0,0,0,81,false,stim,true,0,751.0999999999767,1,0,2,23945,task2,831911,false,false,928,image-keyboard-response,6
true,9,1,1,2,false,d,true,false,0.0-2.0-0.30-0.275-3.275,0,0,0,90,false,stim,false,0,1545.9000000000233,1,0,1,23945,task2,834973,false,false,931,image-keyboard-response,7
true,9,2,1,2,true,d,false,false,0.0-2.0-0.30-0.276-3.276,0,0,0,68,false,stim,false,0,756.4000000000233,1,0,1,23945,task2,837255,false,true,934,image-keyboard-response,8
true,9,0,1,2,false,d,false,false,0.0-2.0-0.30-0.277-3.277,0,0,0,81,false,stim,true,0,2590.0,1,0,2,23945,task2,841358,false,false,937,image-keyboard-response,9
true,9,0,1,2,false,d,false,false,0.0-2.0-0.30-0.278-3.278,0,0,0,81,false,stim,true,0,670.7000000000698,1,0,1,23945,task2,843562,false,false,940,image-keyboard-response,10
true,9,0,1,2,false,d,false,true,0.0-2.0-0.31-0.279-3.279,0,0,0,81,false,stim,true,0,551.5999999999767,1,0,2,23945,task2,845627,false,true,943,image-keyboard-response,11
true,9,0,1,0,true,q,false,true,0.0-2.0-0.31-0.280-3.280,0,0,0,81,false,stim,false,1,427.5,1,0,0,23945,task2,847575,false,false,946,image-keyboard-response,12
true,9,0,1,2,false,d,false,false,0.0-2.0-0.31-0.281-3.281,0,0,0,81,false,stim,true,0,448.5,1,0,1,23945,task2,849546,false,false,949,image-keyboard-response,13
true,9,1,1,2,false,d,true,false,0.0-2.0-0.31-0.282-3.282,0,0,0,90,false,stim,false,0,342.4000000000233,1,0,1,23945,task2,851402,false,false,952,image-keyboard-response,14
true,9,0,1,0,true,q,false,false,0.0-2.0-0.31-0.283-3.283,0,0,0,81,false,stim,false,1,670.4000000000233,1,0,0,23945,task2,853585,false,true,955,image-keyboard-response,15
true,9,0,1,2,false,d,false,false,0.0-2.0-0.31-0.284-3.284,0,0,0,81,false,stim,true,0,585.3000000000466,1,0,2,23945,task2,855687,false,false,958,image-keyboard-response,16
true,9,2,1,2,true,d,false,true,0.0-2.0-0.31-0.285-3.285,0,0,0,68,false,stim,false,0,689.1999999999534,1,0,1,23945,task2,857901,false,false,961,image-keyboard-response,17
true,9,0,1,0,true,q,false,true,0.0-2.0-0.31-0.286-3.286,0,0,0,81,false,stim,false,1,797.7000000000698,1,0,0,23945,task2,860214,false,false,964,image-keyboard-response,18
true,9,0,1,2,false,d,false,false,0.0-2.0-0.31-0.287-3.287,0,0,0,81,false,stim,true,0,661.6000000000931,1,0,2,23945,task2,862389,false,false,967,image-keyboard-response,19
false,9,-1,1,2,false,d,true,true,0.0-2.0-0.32-0.288-3.288,0,0,0,,false,stim,false,0,,1,0,2,23945,task2,866912,false,true,970,image-keyboard-response,20
false,9,-1,1,0,false,q,true,false,0.0-2.0-0.32-0.289-3.289,0,0,0,,false,stim,false,1,,1,0,0,23945,task2,871448,false,false,973,image-keyboard-response,21
true,9,0,1,2,false,d,false,false,0.0-2.0-0.32-0.290-3.290,0,0,0,81,false,stim,true,0,2442.8000000000466,1,0,1,23945,task2,875412,false,false,976,image-keyboard-response,22
true,9,0,1,2,false,d,false,false,0.0-2.0-0.32-0.291-3.291,0,0,0,81,false,stim,true,0,516.8000000000466,1,0,2,23945,task2,877452,false,false,979,image-keyboard-response,23
true,9,0,1,2,false,d,false,false,0.0-2.0-0.32-0.292-3.292,0,0,0,81,false,stim,true,0,617.6000000000931,1,0,1,23945,task2,879591,false,false,982,image-keyboard-response,24
true,9,0,1,0,true,q,false,false,0.0-2.0-0.32-0.293-3.293,0,0,0,81,false,stim,false,1,591.8999999999069,1,0,0,23945,task2,881699,false,true,985,image-keyboard-response,25
true,9,0,1,2,false,d,false,false,0.0-2.0-0.32-0.294-3.294,0,0,0,81,false,stim,true,0,2197.1999999999534,1,0,2,23945,task2,885409,false,false,988,image-keyboard-response,26
true,9,0,1,2,false,d,false,true,0.0-2.0-0.32-0.295-3.295,0,0,0,81,false,stim,true,0,814.3000000000466,1,0,1,23945,task2,887733,false,true,991,image-keyboard-response,27
true,9,0,1,0,true,q,false,true,0.0-2.0-0.32-0.296-3.296,0,0,0,81,false,stim,false,1,1033.9000000001397,1,0,0,23945,task2,890290,false,false,994,image-keyboard-response,28
true,9,0,1,0,true,q,false,true,0.0-2.0-0.33-0.297-3.297,0,0,0,81,false,stim,false,1,1824.6000000000931,1,0,0,23945,task2,893627,false,false,997,image-keyboard-response,29
true,9,0,1,2,false,d,false,false,0.0-2.0-0.33-0.298-3.298,0,0,0,81,false,stim,true,0,516.8000000000466,1,0,1,23945,task2,895665,false,false,1000,image-keyboard-response,30
true,9,1,1,2,false,d,true,false,0.0-2.0-0.33-0.299-3.299,0,0,0,90,false,stim,false,0,818.5999999998603,1,0,1,23945,task2,898011,false,false,1003,image-keyboard-response,31
true,9,0,1,2,false,d,false,true,0.0-2.0-0.33-0.300-3.300,0,0,0,81,false,stim,true,0,2614.0999999998603,1,0,2,23945,task2,902147,false,true,1006,image-keyboard-response,32
true,9,0,1,2,false,d,false,false,0.0-2.0-0.33-0.301-3.301,0,0,0,81,false,stim,true,0,1077.8999999999069,1,0,2,23945,task2,904753,false,false,1009,image-keyboard-response,33
true,9,2,1,2,true,d,false,false,0.0-2.0-0.33-0.302-3.302,0,0,0,68,false,stim,false,0,1896.0,1,0,1,23945,task2,908164,false,true,1012,image-keyboard-response,34
true,9,0,1,0,true,q,false,true,0.0-2.0-0.33-0.303-3.303,0,0,0,81,false,stim,false,1,2956.6999999999534,1,0,0,23945,task2,912644,false,false,1015,image-keyboard-response,35
true,9,0,1,0,true,q,false,true,0.0-2.0-0.33-0.304-3.304,0,0,0,81,false,stim,false,1,699.3000000000466,1,0,0,23945,task2,914879,false,false,1018,image-keyboard-response,36
true,9,0,1,2,false,d,false,true,0.0-2.0-0.33-0.305-3.305,0,0,0,81,false,stim,true,0,1297.7999999998137,1,1,2,23945,task2,917699,false,true,1021,image-keyboard-response,37
false,9,-1,1,0,false,q,true,false,0.0-2.0-0.34-0.306-3.306,0,0,0,,false,stim,false,1,,1,0,0,23945,task2,922231,false,false,1024,image-keyboard-response,38
true,10,2,2,1,false,z,false,false,0.0-2.0-0.34-0.307-3.307,0,0,1,68,true,stim,true,2,1999.8999999999069,1,0,1,23945,task2,925755,false,false,1027,image-keyboard-response,1
true,10,0,2,2,false,d,true,false,0.0-2.0-0.34-0.308-3.308,0,0,1,81,false,stim,false,2,1742.8000000000466,1,1,2,23945,task2,929011,false,false,1030,image-keyboard-response,2
true,10,0,2,2,false,d,true,false,0.0-2.0-0.34-0.309-3.309,0,0,1,81,false,stim,false,2,2089.399999999907,1,1,2,23945,task2,932622,false,false,1033,image-keyboard-response,3
true,10,0,2,2,false,d,false,true,0.0-2.0-0.34-0.310-3.310,0,0,1,81,false,stim,true,0,847.8999999999069,1,0,0,23945,task2,934998,false,true,1036,image-keyboard-response,4
true,10,1,2,2,false,d,true,true,0.0-2.0-0.34-0.311-3.311,0,0,1,90,false,stim,false,0,977.0,1,0,0,23945,task2,937503,false,true,1039,image-keyboard-response,5
true,10,0,2,1,false,z,true,false,0.0-2.0-0.34-0.312-3.312,0,0,1,81,false,stim,false,2,1795.5,1,0,1,23945,task2,940814,false,false,1042,image-keyboard-response,6
false,10,-1,2,1,false,z,true,false,0.0-2.0-0.34-0.313-3.313,0,0,1,,false,stim,false,2,,1,0,1,23945,task2,945345,false,false,1045,image-keyboard-response,7
true,10,0,2,2,false,d,true,false,0.0-2.0-0.34-0.314-3.314,0,0,1,81,false,stim,false,2,1988.3000000000466,1,1,2,23945,task2,948856,false,false,1048,image-keyboard-response,8
true,10,1,2,2,false,d,true,false,0.0-2.0-0.35-0.315-3.315,0,0,1,90,false,stim,false,2,1068.5,1,1,2,23945,task2,951446,false,false,1051,image-keyboard-response,9
true,10,2,2,2,true,d,false,true,0.0-2.0-0.35-0.316-3.316,0,0,1,68,false,stim,false,0,686.8000000000466,1,0,0,23945,task2,953658,false,false,1054,image-keyboard-response,10
true,10,2,2,1,false,z,false,false,0.0-2.0-0.35-0.317-3.317,0,0,1,68,false,stim,true,2,853.9000000001397,1,0,1,23945,task2,956036,false,false,1057,image-keyboard-response,11
true,10,0,2,2,false,d,false,false,0.0-2.0-0.35-0.318-3.318,0,0,1,81,false,stim,true,0,1332.1999999999534,1,0,0,23945,task2,958893,false,false,1060,image-keyboard-response,12
true,10,0,2,2,false,d,true,false,0.0-2.0-0.35-0.319-3.319,0,0,1,81,false,stim,false,2,2739.3000000000466,1,1,2,23945,task2,963144,false,false,1063,image-keyboard-response,13
true,10,0,2,1,false,z,true,false,0.0-2.0-0.35-0.320-3.320,0,0,1,81,false,stim,false,2,2420.8000000000466,1,0,1,23945,task2,967085,false,false,1066,image-keyboard-response,14
true,10,0,2,2,false,d,false,false,0.0-2.0-0.35-0.321-3.321,0,0,1,81,false,stim,true,0,1078.6000000000931,1,0,0,23945,task2,969682,false,false,1069,image-keyboard-response,15
false,10,-1,2,2,false,d,true,true,0.0-2.0-0.35-0.322-3.322,0,0,1,,false,stim,false,2,,1,1,2,23945,task2,974214,false,true,1072,image-keyboard-response,16
true,10,0,2,1,false,z,true,false,0.0-2.0-0.35-0.323-3.323,0,0,1,81,false,stim,false,2,828.3000000000466,1,0,1,23945,task2,976559,false,false,1075,image-keyboard-response,17
true,10,1,2,1,true,z,false,true,0.0-2.0-0.36-0.324-3.324,0,0,1,90,false,stim,false,2,295.19999999995343,1,0,1,23945,task2,978365,false,false,1078,image-keyboard-response,18
true,10,2,2,2,true,d,false,true,0.0-2.0-0.36-0.325-3.325,0,0,1,68,false,stim,false,0,1263.5,1,0,0,23945,task2,981145,false,false,1081,image-keyboard-response,19
true,10,2,2,2,true,d,false,true,0.0-2.0-0.36-0.326-3.326,0,0,1,68,false,stim,false,0,2583.7000000001863,1,0,0,23945,task2,985250,false,false,1084,image-keyboard-response,20
true,10,2,2,2,true,d,false,true,0.0-2.0-0.36-0.327-3.327,0,0,1,68,false,stim,false,2,1325.7000000001863,1,1,2,23945,task2,988103,false,false,1087,image-keyboard-response,21
true,10,1,2,2,false,d,true,false,0.0-2.0-0.36-0.328-3.328,0,0,1,90,false,stim,false,2,2581.0999999998603,1,1,2,23945,task2,992205,false,false,1090,image-keyboard-response,22
true,10,0,2,2,false,d,true,true,0.0-2.0-0.36-0.329-3.329,0,0,1,81,false,stim,false,2,1643.5,1,1,2,23945,task2,995368,false,true,1093,image-keyboard-response,23
true,10,2,2,2,true,d,false,true,0.0-2.0-0.36-0.330-3.330,0,0,1,68,false,stim,false,0,515.7000000001863,1,0,0,23945,task2,997401,false,false,1096,image-keyboard-response,24
true,10,2,2,1,false,z,false,false,0.0-2.0-0.36-0.331-3.331,0,0,1,68,false,stim,true,2,1010.5,1,0,1,23945,task2,999936,false,false,1099,image-keyboard-response,25
true,10,0,2,1,false,z,true,false,0.0-2.0-0.36-0.332-3.332,0,0,1,81,false,stim,false,2,1402.0,1,0,1,23945,task2,1002869,false,false,1102,image-keyboard-response,26
true,10,0,2,2,false,d,false,false,0.0-2.0-0.37-0.333-3.333,0,0,1,81,false,stim,true,0,1732.3999999999069,1,0,0,23945,task2,1006128,false,false,1105,image-keyboard-response,27
true,10,0,2,1,false,z,true,false,0.0-2.0-0.37-0.334-3.334,0,0,1,81,false,stim,false,2,800.3999999999069,1,0,1,23945,task2,1008444,false,false,1108,image-keyboard-response,28
true,10,1,2,2,false,d,true,false,0.0-2.0-0.37-0.335-3.335,0,0,1,90,false,stim,false,2,571.3000000000466,1,1,2,23945,task2,1010534,false,false,1111,image-keyboard-response,29
true,10,0,2,1,false,z,true,false,0.0-2.0-0.37-0.336-3.336,0,0,1,81,false,stim,false,2,236.5,1,0,1,23945,task2,1012284,false,false,1114,image-keyboard-response,30
true,10,2,2,1,false,z,false,false,0.0-2.0-0.37-0.337-3.337,0,0,1,68,false,stim,true,2,246.10000000009313,1,0,1,23945,task2,1014049,false,false,1117,image-keyboard-response,31
true,10,0,2,2,false,d,true,false,0.0-2.0-0.37-0.338-3.338,0,0,1,81,false,stim,false,2,1061.9000000001397,1,0,2,23945,task2,1016641,false,false,1120,image-keyboard-response,32
false,10,-1,2,2,false,d,true,false,0.0-2.0-0.37-0.339-3.339,0,0,1,,false,stim,false,2,,1,0,2,23945,task2,1021167,false,false,1123,image-keyboard-response,33
true,10,1,2,2,false,d,true,false,0.0-2.0-0.37-0.340-3.340,0,0,1,90,false,stim,false,0,1301.9000000001397,1,1,0,23945,task2,1023978,false,false,1126,image-keyboard-response,34
true,11,0,2,2,false,d,true,false,0.0-2.0-0.37-0.341-3.341,1,0,0,81,true,stim,false,2,2017.1999999999534,1,1,0,23945,task2,1027516,false,false,1129,image-keyboard-response,1
true,11,2,2,2,true,d,false,true,0.0-2.0-0.38-0.342-3.342,1,0,0,68,false,stim,false,2,1522.1000000000931,1,1,0,23945,task2,1030563,false,false,1132,image-keyboard-response,2
true,11,1,2,1,true,z,false,false,0.0-2.0-0.38-0.343-3.343,1,0,0,90,false,stim,false,2,1224.8000000000466,1,0,2,23945,task2,1033302,false,true,1135,image-keyboard-response,3
true,11,1,2,0,false,q,false,false,0.0-2.0-0.38-0.344-3.344,1,0,0,90,false,stim,true,1,1017.3999999999069,1,0,1,23945,task2,1035844,false,false,1138,image-keyboard-response,4
true,11,2,2,1,false,z,false,false,0.0-2.0-0.38-0.345-3.345,1,0,0,68,false,stim,true,2,1298.9000000001397,1,0,2,23945,task2,1038665,false,false,1141,image-keyboard-response,5
true,11,2,2,2,true,d,false,true,0.0-2.0-0.38-0.346-3.346,1,0,0,68,false,stim,false,2,375.10000000009313,1,1,0,23945,task2,1040551,false,false,1144,image-keyboard-response,6
true,11,2,2,0,false,q,true,false,0.0-2.0-0.38-0.347-3.347,1,0,0,68,false,stim,false,1,503.5999999998603,1,0,1,23945,task2,1042582,false,false,1147,image-keyboard-response,7
true,11,0,2,2,false,d,true,false,0.0-2.0-0.38-0.348-3.348,1,0,0,81,false,stim,false,2,1825.0,1,1,0,23945,task2,1045921,false,false,1150,image-keyboard-response,8
true,11,1,2,0,false,q,false,false,0.0-2.0-0.38-0.349-3.349,1,0,0,90,false,stim,true,1,1471.1999999999534,1,0,1,23945,task2,1048910,false,false,1153,image-keyboard-response,9
true,11,2,2,1,false,z,false,true,0.0-2.0-0.38-0.350-3.350,1,0,0,68,false,stim,true,2,1288.6000000000931,1,0,2,23945,task2,1051712,false,true,1156,image-keyboard-response,10
true,11,2,2,2,true,d,false,true,0.0-2.0-0.39-0.351-3.351,1,0,0,68,false,stim,false,2,799.7999999998137,1,1,0,23945,task2,1054028,false,false,1159,image-keyboard-response,11
true,11,2,2,1,false,z,false,false,0.0-2.0-0.39-0.352-3.352,1,0,0,68,false,stim,true,2,443.19999999995343,1,0,2,23945,task2,1055985,false,false,1162,image-keyboard-response,12
true,11,2,2,0,false,q,true,false,0.0-2.0-0.39-0.353-3.353,1,0,0,68,false,stim,false,1,519.5,1,0,1,23945,task2,1058028,false,false,1165,image-keyboard-response,13
true,11,2,2,2,true,d,false,true,0.0-2.0-0.39-0.354-3.354,1,0,0,68,false,stim,false,2,339.79999999981374,1,1,0,23945,task2,1059890,false,false,1168,image-keyboard-response,14
true,11,1,2,2,false,d,true,false,0.0-2.0-0.39-0.355-3.355,1,0,0,90,false,stim,false,2,964.2999999998137,1,1,0,23945,task2,1062369,false,false,1171,image-keyboard-response,15
true,11,0,2,1,false,z,true,false,0.0-2.0-0.39-0.356-3.356,1,0,0,81,false,stim,false,2,341.39999999990687,1,0,2,23945,task2,1064229,false,false,1174,image-keyboard-response,16
true,11,0,2,1,false,z,true,false,0.0-2.0-0.39-0.357-3.357,1,0,0,81,false,stim,false,2,525.4000000001397,1,0,2,23945,task2,1066266,false,false,1177,image-keyboard-response,17
true,11,1,2,0,false,q,false,false,0.0-2.0-0.39-0.358-3.358,1,0,0,90,false,stim,true,1,1078.1999999999534,1,0,1,23945,task2,1068861,false,false,1180,image-keyboard-response,18
true,11,2,2,0,false,q,true,false,0.0-2.0-0.39-0.359-3.359,1,0,0,68,false,stim,false,1,782.6999999999534,1,0,1,23945,task2,1071163,false,false,1183,image-keyboard-response,19
true,11,1,2,0,false,q,false,false,0.0-2.0-0.40-0.360-3.360,1,0,0,90,false,stim,true,1,396.0,1,0,1,23945,task2,1073082,false,false,1186,image-keyboard-response,20
true,11,0,2,0,true,q,false,true,0.0-2.0-0.40-0.361-3.361,1,0,0,81,false,stim,false,1,416.4000000001397,1,0,1,23945,task2,1075020,false,false,1189,image-keyboard-response,21
true,11,2,2,0,false,q,true,false,0.0-2.0-0.40-0.362-3.362,1,0,0,68,false,stim,false,1,388.69999999995343,1,0,1,23945,task2,1076927,false,false,1192,image-keyboard-response,22
true,11,1,2,2,false,d,true,false,0.0-2.0-0.40-0.363-3.363,1,0,0,90,false,stim,false,2,351.0999999998603,1,1,0,23945,task2,1078801,false,false,1195,image-keyboard-response,23
true,11,0,2,1,false,z,true,false,0.0-2.0-0.40-0.364-3.364,1,0,0,81,false,stim,false,2,680.3000000000466,1,0,2,23945,task2,1080994,false,false,1198,image-keyboard-response,24
false,11,-1,2,2,false,d,true,false,0.0-2.0-0.40-0.365-3.365,1,0,0,,false,stim,false,2,,1,1,0,23945,task2,1085520,false,false,1201,image-keyboard-response,25
true,11,1,2,1,true,z,false,false,0.0-2.0-0.40-0.366-3.366,1,0,0,90,false,stim,false,2,1238.8000000000466,1,0,2,23945,task2,1088278,false,true,1204,image-keyboard-response,26
true,11,0,2,1,false,z,true,false,0.0-2.0-0.40-0.367-3.367,1,0,0,81,false,stim,false,2,839.3000000000466,1,0,2,23945,task2,1090635,false,false,1207,image-keyboard-response,27
true,11,2,2,2,true,d,false,true,0.0-2.0-0.40-0.368-3.368,1,0,0,68,false,stim,false,2,490.30000000004657,1,1,0,23945,task2,1092647,false,false,1210,image-keyboard-response,28
true,11,2,2,1,false,z,false,false,0.0-2.0-0.41-0.369-3.369,1,0,0,68,false,stim,true,2,1644.4000000001397,1,0,2,23945,task2,1095813,false,false,1213,image-keyboard-response,29
true,11,1,2,0,false,q,false,false,0.0-2.0-0.41-0.370-3.370,1,0,0,90,false,stim,true,1,1426.1000000000931,1,0,1,23945,task2,1098761,false,false,1216,image-keyboard-response,30
true,11,1,2,0,false,q,false,false,0.0-2.0-0.41-0.371-3.371,1,0,0,90,false,stim,true,1,870.5999999998603,1,0,1,23945,task2,1101161,false,false,1219,image-keyboard-response,31
true,11,2,2,2,true,d,false,true,0.0-2.0-0.41-0.372-3.372,1,0,0,68,false,stim,false,2,1196.0,1,0,0,23945,task2,1103878,false,false,1222,image-keyboard-response,32
true,11,0,2,1,false,z,true,false,0.0-2.0-0.41-0.373-3.373,1,0,0,81,false,stim,false,2,927.4000000001397,1,1,2,23945,task2,1106333,false,false,1225,image-keyboard-response,33
true,11,2,2,2,true,d,false,true,0.0-2.0-0.41-0.374-3.374,1,0,0,68,false,stim,false,2,1206.6000000000931,1,0,0,23945,task2,1109059,false,false,1228,image-keyboard-response,34
true,12,2,2,1,false,z,true,false,0.0-2.0-0.41-0.375-3.375,0,0,1,68,true,stim,false,1,766.9000000001397,1,1,2,23945,task2,1111338,false,false,1231,image-keyboard-response,1
true,12,2,2,0,false,q,false,false,0.0-2.0-0.41-0.376-3.376,0,0,1,68,false,stim,true,2,904.0,1,0,0,23945,task2,1113765,false,false,1234,image-keyboard-response,2
true,12,2,2,1,false,z,true,false,0.0-2.0-0.41-0.377-3.377,0,0,1,68,false,stim,false,0,1304.1999999999534,1,0,1,23945,task2,1116590,false,false,1237,image-keyboard-response,3
true,12,2,2,0,false,q,false,true,0.0-2.0-0.42-0.378-3.378,0,0,1,68,false,stim,true,2,2954.0,1,0,0,23945,task2,1121055,false,true,1240,image-keyboard-response,4
true,12,0,2,1,false,z,false,false,0.0-2.0-0.42-0.379-3.379,0,0,1,81,false,stim,true,0,964.3000000000466,1,0,1,23945,task2,1123540,false,false,1243,image-keyboard-response,5
true,12,1,2,1,true,z,false,true,0.0-2.0-0.42-0.380-3.380,0,0,1,90,false,stim,false,0,1096.0,1,0,1,23945,task2,1126149,false,false,1246,image-keyboard-response,6
true,12,0,2,1,false,z,true,false,0.0-2.0-0.42-0.381-3.381,0,0,1,81,false,stim,false,1,1056.8000000000466,1,1,2,23945,task2,1128730,false,false,1249,image-keyboard-response,7
true,12,2,2,0,false,q,false,false,0.0-2.0-0.42-0.382-3.382,0,0,1,68,false,stim,true,2,1799.6000000000931,1,0,0,23945,task2,1132049,false,false,1252,image-keyboard-response,8
true,12,1,2,1,true,z,false,true,0.0-2.0-0.42-0.383-3.383,0,0,1,90,false,stim,false,1,1817.1000000000931,1,1,2,23945,task2,1135389,false,false,1255,image-keyboard-response,9
true,12,2,2,0,false,q,false,false,0.0-2.0-0.42-0.384-3.384,0,0,1,68,false,stim,true,2,1488.8000000000466,1,0,0,23945,task2,1138387,false,false,1258,image-keyboard-response,10
true,12,0,2,1,false,z,true,true,0.0-2.0-0.42-0.385-3.385,0,0,1,81,false,stim,false,1,1531.5,1,1,2,23945,task2,1141438,false,true,1261,image-keyboard-response,11
true,12,2,2,1,false,z,true,true,0.0-2.0-0.42-0.386-3.386,0,0,1,68,false,stim,false,0,2244.100000000093,1,0,1,23945,task2,1145193,false,true,1264,image-keyboard-response,12
true,12,2,2,1,false,z,true,false,0.0-2.0-0.43-0.387-3.387,0,0,1,68,false,stim,false,0,858.4000000001397,1,0,1,23945,task2,1147564,false,false,1267,image-keyboard-response,13
true,12,2,2,0,false,q,false,false,0.0-2.0-0.43-0.388-3.388,0,0,1,68,false,stim,true,2,683.1000000000931,1,0,0,23945,task2,1149768,false,false,1270,image-keyboard-response,14
true,12,1,2,1,true,z,false,true,0.0-2.0-0.43-0.389-3.389,0,0,1,90,false,stim,false,1,1058.3999999999069,1,1,2,23945,task2,1152337,false,false,1273,image-keyboard-response,15
true,12,0,2,1,false,z,true,true,0.0-2.0-0.43-0.390-3.390,0,0,1,81,false,stim,false,1,1004.5,1,1,2,23945,task2,1154869,false,true,1276,image-keyboard-response,16
true,12,2,2,1,false,z,true,false,0.0-2.0-0.43-0.391-3.391,0,0,1,68,false,stim,false,0,737.6000000000931,1,0,1,23945,task2,1157130,false,false,1279,image-keyboard-response,17
true,12,2,2,0,false,q,false,false,0.0-2.0-0.43-0.392-3.392,0,0,1,68,false,stim,true,2,827.8000000000466,1,0,0,23945,task2,1159482,false,false,1282,image-keyboard-response,18
false,12,-1,2,0,false,q,true,false,0.0-2.0-0.43-0.393-3.393,0,0,1,,false,stim,false,2,,1,0,0,23945,task2,1164011,false,false,1285,image-keyboard-response,19
true,12,0,2,1,false,z,false,false,0.0-2.0-0.43-0.394-3.394,0,0,1,81,false,stim,true,0,365.70000000018626,1,0,1,23945,task2,1165897,false,false,1288,image-keyboard-response,20
true,12,2,2,1,false,z,true,false,0.0-2.0-0.43-0.395-3.395,0,0,1,68,false,stim,false,1,2794.1999999999534,1,1,2,23945,task2,1170206,false,false,1291,image-keyboard-response,21
true,12,2,2,1,false,z,true,false,0.0-2.0-0.44-0.396-3.396,0,0,1,68,false,stim,false,0,1100.1000000000931,1,0,1,23945,task2,1172823,false,false,1294,image-keyboard-response,22
true,12,0,2,1,false,z,true,false,0.0-2.0-0.44-0.397-3.397,0,0,1,81,false,stim,false,1,1143.5,1,1,2,23945,task2,1175480,false,false,1297,image-keyboard-response,23
true,12,1,2,1,true,z,false,true,0.0-2.0-0.44-0.398-3.398,0,0,1,90,false,stim,false,0,975.0999999998603,1,0,1,23945,task2,1177969,false,false,1300,image-keyboard-response,24
true,12,0,2,0,true,q,false,true,0.0-2.0-0.44-0.399-3.399,0,0,1,81,false,stim,false,2,981.9000000001397,1,0,0,23945,task2,1180492,false,false,1303,image-keyboard-response,25
true,12,0,2,1,false,z,true,false,0.0-2.0-0.44-0.400-3.400,0,0,1,81,false,stim,false,1,2338.4000000001397,1,1,2,23945,task2,1184347,false,false,1306,image-keyboard-response,26
true,12,0,2,0,true,q,false,true,0.0-2.0-0.44-0.401-3.401,0,0,1,81,false,stim,false,2,2445.8000000000466,1,0,0,23945,task2,1188308,false,false,1309,image-keyboard-response,27
true,12,0,2,0,true,q,false,true,0.0-2.0-0.44-0.402-3.402,0,0,1,81,false,stim,false,2,603.1999999999534,1,0,0,23945,task2,1190439,false,false,1312,image-keyboard-response,28
false,12,-1,2,1,false,z,true,false,0.0-2.0-0.44-0.403-3.403,0,0,1,,false,stim,false,0,,1,0,1,23945,task2,1194973,false,false,1315,image-keyboard-response,29
true,12,2,2,1,false,z,true,false,0.0-2.0-0.44-0.404-3.404,0,0,1,68,false,stim,false,1,2024.1999999999534,1,1,2,23945,task2,1198523,false,false,1318,image-keyboard-response,30
true,12,1,2,1,true,z,false,true,0.0-2.0-0.45-0.405-3.405,0,0,1,90,false,stim,false,0,390.69999999995343,1,1,1,23945,task2,1200436,false,false,1321,image-keyboard-response,31
true,12,0,2,1,false,z,true,false,0.0-2.0-0.45-0.406-3.406,0,0,1,81,false,stim,false,1,722.5999999998603,1,0,2,23945,task2,1202679,false,false,1324,image-keyboard-response,32
true,12,0,2,1,false,z,true,false,0.0-2.0-0.45-0.407-3.407,0,0,1,81,false,stim,false,1,2240.0,1,0,2,23945,task2,1206438,false,false,1327,image-keyboard-response,33
true,12,2,2,0,false,q,false,false,0.0-2.0-0.45-0.408-3.408,0,0,1,68,false,stim,true,2,2670.1999999999534,1,0,0,23945,task2,1210634,false,false,1330,image-keyboard-response,34
true,12,0,2,0,true,q,false,true,0.0-2.0-0.45-0.409-3.409,0,0,1,81,false,stim,false,2,337.39999999990687,1,0,0,23945,task2,1212494,false,false,1333,image-keyboard-response,35
true,13,1,2,1,true,z,false,true,0.0-2.0-0.45-0.410-3.410,0,1,0,90,true,stim,false,0,876.0,1,0,0,23945,task2,1214880,false,false,1336,image-keyboard-response,1
true,13,0,2,0,true,q,false,true,0.0-2.0-0.45-0.411-3.411,0,1,0,81,false,stim,false,1,766.3000000000466,1,0,2,23945,task2,1217182,false,false,1339,image-keyboard-response,2
true,13,2,2,1,false,z,true,true,0.0-2.0-0.45-0.412-3.412,0,1,0,68,false,stim,false,1,587.2999999998137,1,1,1,23945,task2,1219286,false,true,1342,image-keyboard-response,3
true,13,2,2,1,false,z,true,true,0.0-2.0-0.45-0.413-3.413,0,1,0,68,false,stim,false,1,695.0,1,1,1,23945,task2,1221503,false,true,1345,image-keyboard-response,4
true,13,2,2,1,false,z,true,false,0.0-2.0-0.46-0.414-3.414,0,1,0,68,false,stim,false,1,401.69999999995343,1,1,1,23945,task2,1223428,false,false,1348,image-keyboard-response,5
true,13,0,2,0,true,q,false,false,0.0-2.0-0.46-0.415-3.415,0,1,0,81,false,stim,false,1,554.0999999998603,1,0,2,23945,task2,1225494,false,true,1351,image-keyboard-response,6
true,13,1,2,0,false,q,false,false,0.0-2.0-0.46-0.416-3.416,0,1,0,90,false,stim,true,1,898.3000000000466,1,0,2,23945,task2,1227915,false,false,1354,image-keyboard-response,7
true,13,0,2,1,false,z,false,false,0.0-2.0-0.46-0.417-3.417,0,1,0,81,false,stim,true,0,546.0,1,0,0,23945,task2,1229977,false,false,1357,image-keyboard-response,8
true,13,0,2,1,false,z,true,false,0.0-2.0-0.46-0.418-3.418,0,1,0,81,false,stim,false,1,1054.1999999999534,1,1,1,23945,task2,1232557,false,false,1360,image-keyboard-response,9
true,13,0,2,0,true,q,false,true,0.0-2.0-0.46-0.419-3.419,0,1,0,81,false,stim,false,1,2437.600000000093,1,0,2,23945,task2,1236518,false,false,1363,image-keyboard-response,10
true,13,2,2,1,false,z,true,false,0.0-2.0-0.46-0.420-3.420,0,1,0,68,false,stim,false,0,1361.6999999999534,1,0,0,23945,task2,1239401,false,false,1366,image-keyboard-response,11
false,13,-1,2,1,false,z,true,true,0.0-2.0-0.46-0.421-3.421,0,1,0,,false,stim,false,1,,1,1,1,23945,task2,1243933,false,true,1369,image-keyboard-response,12
true,13,2,2,1,false,z,true,false,0.0-2.0-0.46-0.422-3.422,0,1,0,68,false,stim,false,0,226.79999999981374,1,0,0,23945,task2,1245674,false,false,1372,image-keyboard-response,13
true,13,1,2,0,false,q,false,false,0.0-2.0-0.47-0.423-3.423,0,1,0,90,false,stim,true,1,2438.5,1,0,2,23945,task2,1249625,false,false,1375,image-keyboard-response,14
true,13,0,2,1,false,z,false,false,0.0-2.0-0.47-0.424-3.424,0,1,0,81,false,stim,true,0,469.0,1,0,0,23945,task2,1251615,false,false,1378,image-keyboard-response,15
true,13,0,2,0,true,q,false,true,0.0-2.0-0.47-0.425-3.425,0,1,0,81,false,stim,false,1,1262.0999999998603,1,0,2,23945,task2,1254403,false,false,1381,image-keyboard-response,16
true,13,2,2,1,false,z,true,false,0.0-2.0-0.47-0.426-3.426,0,1,0,68,false,stim,false,0,1858.6999999999534,1,0,0,23945,task2,1257789,false,false,1384,image-keyboard-response,17
true,13,2,2,0,false,q,true,false,0.0-2.0-0.47-0.427-3.427,0,1,0,68,false,stim,false,1,676.3999999999069,1,0,2,23945,task2,1259990,false,false,1387,image-keyboard-response,18
true,13,0,2,1,false,z,false,false,0.0-2.0-0.47-0.428-3.428,0,1,0,81,false,stim,true,0,726.3999999999069,1,0,0,23945,task2,1262239,false,false,1390,image-keyboard-response,19
true,13,1,2,1,true,z,false,true,0.0-2.0-0.47-0.429-3.429,0,1,0,90,false,stim,false,1,2178.899999999907,1,1,1,23945,task2,1265935,false,false,1393,image-keyboard-response,20
true,13,0,2,1,false,z,true,false,0.0-2.0-0.47-0.430-3.430,0,1,0,81,false,stim,false,1,1999.6000000000931,1,1,1,23945,task2,1269451,false,false,1396,image-keyboard-response,21
true,13,2,2,1,false,z,true,false,0.0-2.0-0.47-0.431-3.431,0,1,0,68,false,stim,false,1,514.6999999999534,1,1,1,23945,task2,1271488,false,false,1399,image-keyboard-response,22
true,13,1,2,1,true,z,false,true,0.0-2.0-0.48-0.432-3.432,0,1,0,90,false,stim,false,1,334.89999999990687,1,1,1,23945,task2,1273346,false,false,1402,image-keyboard-response,23
true,13,0,2,0,true,q,false,true,0.0-2.0-0.48-0.433-3.433,0,1,0,81,false,stim,false,1,815.8999999999069,1,0,2,23945,task2,1275683,false,false,1405,image-keyboard-response,24
true,13,1,2,1,true,z,false,true,0.0-2.0-0.48-0.434-3.434,0,1,0,90,false,stim,false,1,404.60000000009313,1,1,1,23945,task2,1277602,false,false,1408,image-keyboard-response,25
true,13,0,2,0,true,q,false,true,0.0-2.0-0.48-0.435-3.435,0,1,0,81,false,stim,false,1,887.8000000000466,1,0,2,23945,task2,1280010,false,false,1411,image-keyboard-response,26
true,13,0,2,1,false,z,false,true,0.0-2.0-0.48-0.436-3.436,0,1,0,81,false,stim,true,0,593.6000000000931,1,0,0,23945,task2,1282120,false,true,1414,image-keyboard-response,27
true,13,0,2,1,false,z,true,false,0.0-2.0-0.48-0.437-3.437,0,1,0,81,false,stim,false,1,807.5,1,1,1,23945,task2,1284451,false,false,1417,image-keyboard-response,28
true,13,1,2,1,true,z,false,true,0.0-2.0-0.48-0.438-3.438,0,1,0,90,false,stim,false,0,627.0999999998603,1,0,0,23945,task2,1286596,false,false,1420,image-keyboard-response,29
true,13,0,2,0,true,q,false,false,0.0-2.0-0.48-0.439-3.439,0,1,0,81,false,stim,false,1,1858.0,1,0,2,23945,task2,1289979,false,true,1423,image-keyboard-response,30
true,13,1,2,1,true,z,false,false,0.0-2.0-0.48-0.440-3.440,0,1,0,90,false,stim,false,0,466.89999999990687,1,0,0,23945,task2,1291956,false,true,1426,image-keyboard-response,31
true,13,2,2,1,false,z,true,true,0.0-2.0-0.49-0.441-3.441,0,1,0,68,false,stim,false,1,1149.3000000000466,1,0,1,23945,task2,1294618,false,true,1429,image-keyboard-response,32
true,13,0,2,1,false,z,false,false,0.0-2.0-0.49-0.442-3.442,0,1,0,81,false,stim,true,0,847.0,1,0,0,23945,task2,1296979,false,false,1432,image-keyboard-response,33
true,13,1,2,1,true,z,false,true,0.0-2.0-0.49-0.443-3.443,0,1,0,90,false,stim,false,0,570.8000000000466,1,0,0,23945,task2,1299061,false,false,1435,image-keyboard-response,34
true,13,2,2,0,false,q,true,false,0.0-2.0-0.49-0.444-3.444,0,1,0,68,false,stim,false,1,467.0,1,0,2,23945,task2,1301048,false,false,1438,image-keyboard-response,35
true,14,0,1,0,true,q,false,true,0.0-2.0-0.49-0.445-3.445,0,0,0,81,true,stim,false,1,67.0999999998603,1,0,1,23945,task2,1302629,false,false,1441,image-keyboard-response,1
true,14,0,1,0,true,q,false,true,0.0-2.0-0.49-0.446-3.446,0,0,0,81,false,stim,false,1,466.5,1,0,1,23945,task2,1304610,false,false,1444,image-keyboard-response,2
true,14,0,1,2,false,d,false,false,0.0-2.0-0.49-0.447-3.447,0,0,0,81,false,stim,true,0,2171.4000000001397,1,0,2,23945,task2,1308305,false,false,1447,image-keyboard-response,3
true,14,2,1,2,true,d,false,true,0.0-2.0-0.49-0.448-3.448,0,0,0,68,false,stim,false,1,290.30000000004657,1,0,0,23945,task2,1310116,false,false,1450,image-keyboard-response,4
true,14,0,1,2,false,d,false,false,0.0-2.0-0.49-0.449-3.449,0,0,0,81,false,stim,true,0,2765.100000000093,1,0,2,23945,task2,1314408,false,false,1453,image-keyboard-response,5
true,14,0,1,2,false,d,true,false,0.0-2.0-0.50-0.450-3.450,0,0,0,81,false,stim,false,1,1839.3999999999069,1,0,0,23945,task2,1317769,false,false,1456,image-keyboard-response,6
true,14,0,1,2,false,d,true,false,0.0-2.0-0.50-0.451-3.451,0,0,0,81,false,stim,false,1,1053.0,1,0,0,23945,task2,1320335,false,false,1459,image-keyboard-response,7
true,14,0,1,2,false,d,true,false,0.0-2.0-0.50-0.452-3.452,0,0,0,81,false,stim,false,1,1143.3000000000466,1,0,0,23945,task2,1323002,false,false,1462,image-keyboard-response,8
true,14,2,1,0,false,q,true,false,0.0-2.0-0.50-0.453-3.453,0,0,0,68,false,stim,false,1,691.8999999999069,1,0,1,23945,task2,1325219,false,false,1465,image-keyboard-response,9
true,14,1,1,2,false,d,true,false,0.0-2.0-0.50-0.454-3.454,0,0,0,90,false,stim,false,0,289.89999999990687,1,0,2,23945,task2,1327033,false,false,1468,image-keyboard-response,10
true,14,0,1,0,true,q,false,true,0.0-2.0-0.50-0.455-3.455,0,0,0,81,false,stim,false,1,238.89999999990687,1,0,1,23945,task2,1328787,false,false,1471,image-keyboard-response,11
true,14,2,1,2,true,d,false,true,0.0-2.0-0.50-0.456-3.456,0,0,0,68,false,stim,false,0,849.5,1,0,2,23945,task2,1331155,false,false,1474,image-keyboard-response,12
true,14,0,1,0,true,q,false,true,0.0-2.0-0.50-0.457-3.457,0,0,0,81,false,stim,false,1,1312.6000000000931,1,0,1,23945,task2,1333983,false,false,1477,image-keyboard-response,13
true,14,2,1,2,true,d,false,true,0.0-2.0-0.50-0.458-3.458,0,0,0,68,false,stim,false,0,505.5999999998603,1,0,2,23945,task2,1336006,false,false,1480,image-keyboard-response,14
true,14,2,1,2,true,d,false,true,0.0-2.0-0.51-0.459-3.459,0,0,0,68,false,stim,false,0,1273.5,1,0,2,23945,task2,1338797,false,false,1483,image-keyboard-response,15
true,14,2,1,2,true,d,false,true,0.0-2.0-0.51-0.460-3.460,0,0,0,68,false,stim,false,0,1014.1000000000931,1,0,2,23945,task2,1341320,false,false,1486,image-keyboard-response,16
true,14,2,1,2,true,d,false,false,0.0-2.0-0.51-0.461-3.461,0,0,0,68,false,stim,false,0,508.89999999990687,1,0,2,23945,task2,1343350,false,true,1489,image-keyboard-response,17
true,14,0,1,0,true,q,false,true,0.0-2.0-0.51-0.462-3.462,0,0,0,81,false,stim,false,1,768.5999999998603,1,0,1,23945,task2,1345636,false,false,1492,image-keyboard-response,18
true,14,0,1,0,true,q,false,true,0.0-2.0-0.51-0.463-3.463,0,0,0,81,false,stim,false,1,553.1000000000931,1,0,1,23945,task2,1347710,false,false,1495,image-keyboard-response,19
true,14,1,1,2,false,d,false,false,0.0-2.0-0.51-0.464-3.464,0,0,0,90,false,stim,true,1,1318.3999999999069,1,0,0,23945,task2,1350556,false,false,1498,image-keyboard-response,20
true,14,1,1,2,false,d,false,false,0.0-2.0-0.51-0.465-3.465,0,0,0,90,false,stim,true,1,634.5,1,0,0,23945,task2,1352721,false,false,1501,image-keyboard-response,21
true,14,0,1,0,true,q,false,true,0.0-2.0-0.51-0.466-3.466,0,0,0,81,false,stim,false,1,1085.5999999998603,1,0,1,23945,task2,1355321,false,false,1504,image-keyboard-response,22
false,14,-1,1,2,false,d,true,false,0.0-2.0-0.51-0.467-3.467,0,0,0,,false,stim,false,1,,1,0,0,23945,task2,1359851,false,false,1507,image-keyboard-response,23
true,14,0,1,0,true,q,false,true,0.0-2.0-0.52-0.468-3.468,0,0,0,81,false,stim,false,1,563.0,1,0,1,23945,task2,1361938,false,false,1510,image-keyboard-response,24
true,14,2,1,2,true,d,false,true,0.0-2.0-0.52-0.469-3.469,0,0,0,68,false,stim,false,0,821.0,1,0,2,23945,task2,1364287,false,false,1513,image-keyboard-response,25
true,14,2,1,2,true,d,false,true,0.0-2.0-0.52-0.470-3.470,0,0,0,68,false,stim,false,1,1690.8999999999069,1,0,0,23945,task2,1367502,false,false,1516,image-keyboard-response,26
true,14,2,1,2,true,d,false,true,0.0-2.0-0.52-0.471-3.471,0,0,0,68,false,stim,false,1,705.1000000000931,1,0,0,23945,task2,1369726,false,false,1519,image-keyboard-response,27
true,14,0,1,0,true,q,false,false,0.0-2.0-0.52-0.472-3.472,0,0,0,81,false,stim,false,1,1122.6999999999534,1,0,1,23945,task2,1372371,false,true,1522,image-keyboard-response,28
true,14,2,1,2,true,d,false,true,0.0-2.0-0.52-0.473-3.473,0,0,0,68,false,stim,false,0,1839.1999999999534,1,0,2,23945,task2,1375727,false,false,1525,image-keyboard-response,29
true,14,1,1,2,false,d,false,false,0.0-2.0-0.52-0.474-3.474,0,0,0,90,false,stim,true,1,948.5,1,0,0,23945,task2,1378195,false,false,1528,image-keyboard-response,30
true,14,2,1,2,true,d,false,false,0.0-2.0-0.52-0.475-3.475,0,0,0,68,false,stim,false,0,512.3999999999069,1,0,2,23945,task2,1380235,false,true,1531,image-keyboard-response,31
true,14,2,1,0,false,q,true,false,0.0-2.0-0.52-0.476-3.476,0,0,0,68,false,stim,false,1,534.3999999999069,1,0,1,23945,task2,1382283,false,false,1534,image-keyboard-response,32
true,14,2,1,2,true,d,false,false,0.0-2.0-0.53-0.477-3.477,0,0,0,68,false,stim,false,1,616.0,1,0,0,23945,task2,1384417,false,true,1537,image-keyboard-response,33
true,14,1,1,2,false,d,false,false,0.0-2.0-0.53-0.478-3.478,0,0,0,90,false,stim,true,1,715.3000000000466,1,0,0,23945,task2,1386671,false,false,1540,image-keyboard-response,34
true,14,0,1,2,false,d,false,false,0.0-2.0-0.53-0.479-3.479,0,0,0,81,false,stim,true,0,930.6999999999534,1,0,2,23945,task2,1389131,false,false,1543,image-keyboard-response,35
true,15,0,1,0,true,q,false,true,0.0-2.0-0.53-0.480-3.480,0,0,0,81,true,stim,false,2,705.6000000000931,1,0,2,23945,task2,1391357,false,false,1546,image-keyboard-response,1
true,15,1,1,2,false,d,true,false,0.0-2.0-0.53-0.481-3.481,0,0,0,90,false,stim,false,0,1202.7000000001863,1,0,1,23945,task2,1394077,false,false,1549,image-keyboard-response,2
true,15,0,1,1,false,z,true,false,0.0-2.0-0.53-0.482-3.482,0,0,0,81,false,stim,false,2,609.6999999999534,1,0,0,23945,task2,1396202,false,false,1552,image-keyboard-response,3
true,15,2,1,2,true,d,false,true,0.0-2.0-0.53-0.483-3.483,0,0,0,68,false,stim,false,0,500.9000000001397,1,0,1,23945,task2,1398213,false,false,1555,image-keyboard-response,4
true,15,0,1,2,false,d,false,false,0.0-2.0-0.53-0.484-3.484,0,0,0,81,false,stim,true,0,637.8999999999069,1,0,1,23945,task2,1400377,false,false,1558,image-keyboard-response,5
true,15,1,1,0,false,q,true,false,0.0-2.0-0.53-0.485-3.485,0,0,0,90,false,stim,false,2,1572.0,1,0,2,23945,task2,1403472,false,false,1561,image-keyboard-response,6
true,15,2,1,0,false,q,false,false,0.0-2.0-0.54-0.486-3.486,0,0,0,68,false,stim,true,2,597.0999999998603,1,0,2,23945,task2,1405577,false,false,1564,image-keyboard-response,7
true,15,0,1,2,false,d,false,false,0.0-2.0-0.54-0.487-3.487,0,0,0,81,false,stim,true,0,1442.8000000000466,1,0,1,23945,task2,1408533,false,false,1567,image-keyboard-response,8
true,15,1,1,2,false,d,true,false,0.0-2.0-0.54-0.488-3.488,0,0,0,90,false,stim,false,0,1086.5,1,0,1,23945,task2,1411140,false,false,1570,image-keyboard-response,9
true,15,0,1,1,false,z,true,false,0.0-2.0-0.54-0.489-3.489,0,0,0,81,false,stim,false,2,1288.3999999999069,1,0,0,23945,task2,1413940,false,false,1573,image-keyboard-response,10
true,15,2,1,2,true,d,false,true,0.0-2.0-0.54-0.490-3.490,0,0,0,68,false,stim,false,0,787.9000000001397,1,0,1,23945,task2,1416246,false,false,1576,image-keyboard-response,11
true,15,2,1,0,false,q,false,false,0.0-2.0-0.54-0.491-3.491,0,0,0,68,false,stim,true,2,915.1000000000931,1,0,2,23945,task2,1418674,false,false,1579,image-keyboard-response,12
true,15,1,1,0,false,q,true,false,0.0-2.0-0.54-0.492-3.492,0,0,0,90,false,stim,false,2,626.0,1,0,2,23945,task2,1420827,false,false,1582,image-keyboard-response,13
true,15,0,1,1,false,z,true,false,0.0-2.0-0.54-0.493-3.493,0,0,0,81,false,stim,false,2,1810.3999999999069,1,0,0,23945,task2,1424151,false,false,1585,image-keyboard-response,14
true,15,0,1,1,false,z,true,false,0.0-2.0-0.54-0.494-3.494,0,0,0,81,false,stim,false,2,1428.0,1,0,0,23945,task2,1427095,false,false,1588,image-keyboard-response,15
true,15,2,1,0,false,q,false,false,0.0-2.0-0.55-0.495-3.495,0,0,0,68,false,stim,true,2,1606.0,1,0,2,23945,task2,1430231,false,false,1591,image-keyboard-response,16
true,15,0,1,0,true,q,false,true,0.0-2.0-0.55-0.496-3.496,0,0,0,81,false,stim,false,2,821.0,1,0,2,23945,task2,1432579,false,false,1594,image-keyboard-response,17
true,15,1,1,2,false,d,true,false,0.0-2.0-0.55-0.497-3.497,0,0,0,90,false,stim,false,0,721.3999999999069,1,0,1,23945,task2,1434818,false,false,1597,image-keyboard-response,18
true,15,0,1,2,false,d,false,true,0.0-2.0-0.55-0.498-3.498,0,0,0,81,false,stim,true,0,579.3000000000466,1,0,1,23945,task2,1436912,false,true,1600,image-keyboard-response,19
true,15,2,1,0,false,q,false,false,0.0-2.0-0.55-0.499-3.499,0,0,0,68,false,stim,true,2,541.1000000000931,1,0,2,23945,task2,1438985,false,false,1603,image-keyboard-response,20
true,15,1,1,1,true,z,false,true,0.0-2.0-0.55-0.500-3.500,0,0,0,90,false,stim,false,2,705.3000000000466,1,0,0,23945,task2,1441212,false,false,1606,image-keyboard-response,21
true,15,1,1,1,true,z,false,true,0.0-2.0-0.55-0.501-3.501,0,0,0,90,false,stim,false,2,584.4000000001397,1,0,0,23945,task2,1443318,false,false,1609,image-keyboard-response,22
true,15,0,1,1,false,z,true,false,0.0-2.0-0.55-0.502-3.502,0,0,0,81,false,stim,false,2,416.70000000018626,1,0,0,23945,task2,1445248,false,false,1612,image-keyboard-response,23
true,15,0,1,2,false,d,false,false,0.0-2.0-0.55-0.503-3.503,0,0,0,81,false,stim,true,0,548.1999999999534,1,0,1,23945,task2,1447325,false,false,1615,image-keyboard-response,24
true,15,0,1,2,false,d,false,false,0.0-2.0-0.56-0.504-3.504,0,0,0,81,false,stim,true,0,707.6999999999534,1,0,1,23945,task2,1449553,false,false,1618,image-keyboard-response,25
true,15,1,1,0,false,q,true,false,0.0-2.0-0.56-0.505-3.505,0,0,0,90,false,stim,false,2,1362.0999999998603,1,0,2,23945,task2,1452433,false,false,1621,image-keyboard-response,26
true,15,1,1,1,true,z,false,false,0.0-2.0-0.56-0.506-3.506,0,0,0,90,false,stim,false,2,672.2000000001863,1,0,0,23945,task2,1454623,false,true,1624,image-keyboard-response,27
true,15,1,1,1,true,z,false,true,0.0-2.0-0.56-0.507-3.507,0,0,0,90,false,stim,false,2,375.80000000004657,1,0,0,23945,task2,1456523,false,false,1627,image-keyboard-response,28
true,15,0,1,0,true,q,false,true,0.0-2.0-0.56-0.508-3.508,0,0,0,81,false,stim,false,2,1067.9000000001397,1,0,2,23945,task2,1459114,false,false,1630,image-keyboard-response,29
true,15,0,1,0,true,q,false,true,0.0-2.0-0.56-0.509-3.509,0,0,0,81,false,stim,false,2,600.9000000001397,1,0,2,23945,task2,1461237,false,false,1633,image-keyboard-response,30
true,15,2,1,2,true,d,false,true,0.0-2.0-0.56-0.510-3.510,0,0,0,68,false,stim,false,0,709.6999999999534,1,0,1,23945,task2,1463466,false,false,1636,image-keyboard-response,31
true,15,1,1,1,true,z,false,true,0.0-2.0-0.56-0.511-3.511,0,0,0,90,false,stim,false,2,727.8999999999069,1,0,0,23945,task2,1465716,false,false,1639,image-keyboard-response,32
true,15,2,1,2,true,d,false,true,0.0-2.0-0.56-0.512-3.512,0,0,0,68,false,stim,false,0,1014.6999999999534,1,0,1,23945,task2,1468255,false,false,1642,image-keyboard-response,33
true,15,1,1,1,true,z,false,true,0.0-2.0-0.57-0.513-3.513,0,0,0,90,false,stim,false,2,541.6000000000931,1,1,0,23945,task2,1470324,false,false,1645,image-keyboard-response,34
true,15,2,1,2,true,d,false,true,0.0-2.0-0.57-0.514-3.514,0,0,0,68,false,stim,false,0,553.1999999999534,1,1,1,23945,task2,1472402,false,false,1648,image-keyboard-response,35
true,15,0,1,0,true,q,false,true,0.0-2.0-0.57-0.515-3.515,0,0,0,81,false,stim,false,2,1700.8999999999069,1,1,2,23945,task2,1475631,false,false,1651,image-keyboard-response,36
true,15,0,1,0,true,q,false,true,0.0-2.0-0.57-0.516-3.516,0,0,0,81,false,stim,false,2,635.7999999998137,1,1,2,23945,task2,1477778,false,false,1654,image-keyboard-response,37
true,15,1,1,1,true,z,false,true,0.0-2.0-0.57-0.517-3.517,0,0,0,90,false,stim,false,2,804.5,1,1,0,23945,task2,1480109,false,false,1657,image-keyboard-response,38
true,16,0,0,0,true,q,false,true,0.0-2.0-0.57-0.518-3.518,1,1,1,81,true,stim,false,0,1859.1000000000931,1,1,2,23945,task2,1604844,false,false,1780,image-keyboard-response,1
true,16,1,0,2,false,d,true,false,0.0-2.0-0.57-0.519-3.519,1,1,1,90,false,stim,false,2,1313.5,1,1,1,23945,task2,1607666,false,false,1783,image-keyboard-response,2
true,16,2,0,1,false,z,true,false,0.0-2.0-0.57-0.520-3.520,1,1,1,68,false,stim,false,1,1051.0,1,1,0,23945,task2,1610245,false,false,1786,image-keyboard-response,3
true,16,0,0,2,false,d,true,false,0.0-2.0-0.57-0.521-3.521,1,1,1,81,false,stim,false,2,587.1999999999534,1,1,1,23945,task2,1612356,false,false,1789,image-keyboard-response,4
true,16,2,0,2,true,d,false,true,0.0-2.0-0.58-0.522-3.522,1,1,1,68,false,stim,false,2,1424.0,1,1,1,23945,task2,1615297,false,false,1792,image-keyboard-response,5
true,16,0,0,0,true,q,false,true,0.0-2.0-0.58-0.523-3.523,1,1,1,81,false,stim,false,0,536.1999999999534,1,1,2,23945,task2,1617359,false,false,1795,image-keyboard-response,6
true,16,2,0,0,false,q,true,false,0.0-2.0-0.58-0.524-3.524,1,1,1,68,false,stim,false,0,1391.6999999999534,1,1,2,23945,task2,1620287,false,false,1798,image-keyboard-response,7
true,16,1,0,0,false,q,true,false,0.0-2.0-0.58-0.525-3.525,1,1,1,90,false,stim,false,0,592.6999999999534,1,1,2,23945,task2,1622419,false,false,1801,image-keyboard-response,8
true,16,2,0,1,false,z,true,false,0.0-2.0-0.58-0.526-3.526,1,1,1,68,false,stim,false,1,1830.6000000000931,1,0,0,23945,task2,1625779,false,false,1804,image-keyboard-response,9
true,16,0,0,2,false,d,true,false,0.0-2.0-0.58-0.527-3.527,1,1,1,81,false,stim,false,2,727.1999999999534,1,0,1,23945,task2,1628028,false,false,1807,image-keyboard-response,10
true,16,0,0,1,false,z,true,false,0.0-2.0-0.58-0.528-3.528,1,1,1,81,false,stim,false,1,658.8999999999069,1,0,0,23945,task2,1630213,false,false,1810,image-keyboard-response,11
true,16,1,0,2,false,d,true,true,0.0-2.0-0.58-0.529-3.529,1,1,1,90,false,stim,false,2,538.4000000001397,1,0,1,23945,task2,1632281,false,true,1813,image-keyboard-response,12
true,16,0,0,1,false,z,true,false,0.0-2.0-0.58-0.530-3.530,1,1,1,81,false,stim,false,1,979.3000000000466,1,0,0,23945,task2,1634782,false,false,1816,image-keyboard-response,13
true,17,2,1,2,true,d,false,true,0.0-2.0-0.59-0.531-3.531,0,0,0,68,true,stim,false,0,750.9000000001397,1,0,2,23945,task2,1637054,false,false,1819,image-keyboard-response,1
true,17,2,1,2,true,d,false,true,0.0-2.0-0.59-0.532-3.532,0,0,0,68,false,stim,false,0,1201.3999999999069,1,0,2,23945,task2,1639775,false,false,1822,image-keyboard-response,2
true,17,1,1,0,false,q,false,false,0.0-2.0-0.59-0.533-3.533,0,0,0,90,false,stim,true,1,590.5,1,0,0,23945,task2,1641902,false,false,1825,image-keyboard-response,3
true,17,1,1,1,true,z,false,false,0.0-2.0-0.59-0.534-3.534,0,0,0,90,false,stim,false,2,661.3000000000466,1,0,1,23945,task2,1644086,false,true,1828,image-keyboard-response,4
true,17,2,1,2,true,d,false,true,0.0-2.0-0.59-0.535-3.535,0,0,0,68,false,stim,false,0,728.6000000000931,1,0,2,23945,task2,1646333,false,false,1831,image-keyboard-response,5
true,17,2,1,0,false,q,true,true,0.0-2.0-0.59-0.536-3.536,0,0,0,68,false,stim,false,1,487.29999999981374,1,0,0,23945,task2,1648337,false,true,1834,image-keyboard-response,6
true,17,0,1,1,false,z,true,false,0.0-2.0-0.59-0.537-3.537,0,0,0,81,false,stim,false,2,635.3999999999069,1,0,1,23945,task2,1650491,false,false,1837,image-keyboard-response,7
true,17,2,1,0,false,q,true,false,0.0-2.0-0.59-0.538-3.538,0,0,0,68,false,stim,false,1,793.3999999999069,1,0,0,23945,task2,1652806,false,false,1840,image-keyboard-response,8
true,17,2,1,1,false,z,false,false,0.0-2.0-0.59-0.539-3.539,0,0,0,68,false,stim,true,2,626.8000000000466,1,0,1,23945,task2,1654952,false,false,1843,image-keyboard-response,9
true,17,1,1,1,true,z,false,true,0.0-2.0-0.60-0.540-3.540,0,0,0,90,false,stim,false,2,602.1000000000931,1,0,1,23945,task2,1657067,false,false,1846,image-keyboard-response,10
true,17,2,1,2,true,d,false,true,0.0-2.0-0.60-0.541-3.541,0,0,0,68,false,stim,false,0,1521.0999999998603,1,0,2,23945,task2,1660102,false,false,1849,image-keyboard-response,11
true,17,1,1,0,false,q,false,false,0.0-2.0-0.60-0.542-3.542,0,0,0,90,false,stim,true,1,952.7999999998137,1,0,0,23945,task2,1662570,false,false,1852,image-keyboard-response,12
true,17,2,1,2,true,d,false,true,0.0-2.0-0.60-0.543-3.543,0,0,0,68,false,stim,false,0,784.1999999999534,1,0,2,23945,task2,1664878,false,false,1855,image-keyboard-response,13
true,17,2,1,0,false,q,true,false,0.0-2.0-0.60-0.544-3.544,0,0,0,68,false,stim,false,1,1776.6999999999534,1,0,0,23945,task2,1668169,false,false,1858,image-keyboard-response,14
true,17,2,1,0,false,q,true,false,0.0-2.0-0.60-0.545-3.545,0,0,0,68,false,stim,false,1,1756.6000000000931,1,0,0,23945,task2,1671445,false,false,1861,image-keyboard-response,15
true,17,1,1,1,true,z,false,true,0.0-2.0-0.60-0.546-3.546,0,0,0,90,false,stim,false,2,2106.3000000000466,1,0,1,23945,task2,1675064,false,false,1864,image-keyboard-response,16
true,17,1,1,1,true,z,false,true,0.0-2.0-0.60-0.547-3.547,0,0,0,90,false,stim,false,2,1462.6000000000931,1,0,1,23945,task2,1678047,false,false,1867,image-keyboard-response,17
true,17,2,1,2,true,d,false,true,0.0-2.0-0.60-0.548-3.548,0,0,0,68,false,stim,false,0,1953.1999999999534,1,0,2,23945,task2,1681520,false,false,1870,image-keyboard-response,18
true,17,2,1,2,true,d,false,true,0.0-2.0-0.61-0.549-3.549,0,0,0,68,false,stim,false,0,2444.5,1,0,2,23945,task2,1685494,false,false,1873,image-keyboard-response,19
true,17,1,1,1,true,z,false,true,0.0-2.0-0.61-0.550-3.550,0,0,0,90,false,stim,false,2,1692.0,1,0,1,23945,task2,1688698,false,false,1876,image-keyboard-response,20
true,17,0,1,0,true,q,false,true,0.0-2.0-0.61-0.551-3.551,0,0,0,81,false,stim,false,1,1508.0999999998603,1,0,0,23945,task2,1691722,false,false,1879,image-keyboard-response,21
true,17,2,1,2,true,d,false,true,0.0-2.0-0.61-0.552-3.552,0,0,0,68,false,stim,false,0,370.5,1,0,2,23945,task2,1693616,false,false,1882,image-keyboard-response,22
true,17,1,1,1,true,z,false,true,0.0-2.0-0.61-0.553-3.553,0,0,0,90,false,stim,false,2,2411.8000000000466,1,0,1,23945,task2,1697552,false,false,1885,image-keyboard-response,23
true,17,0,1,0,true,q,false,true,0.0-2.0-0.61-0.554-3.554,0,0,0,81,false,stim,false,1,2546.9000000001397,1,0,0,23945,task2,1701624,false,false,1888,image-keyboard-response,24
true,17,1,1,1,true,z,false,true,0.0-2.0-0.61-0.555-3.555,0,0,0,90,false,stim,false,2,832.3999999999069,1,0,1,23945,task2,1703980,false,false,1891,image-keyboard-response,25
true,17,2,1,2,true,d,false,true,0.0-2.0-0.61-0.556-3.556,0,0,0,68,false,stim,false,0,532.3000000000466,1,0,2,23945,task2,1706025,false,false,1894,image-keyboard-response,26
true,17,0,1,0,true,q,false,true,0.0-2.0-0.61-0.557-3.557,0,0,0,81,false,stim,false,1,1079.3000000000466,1,0,0,23945,task2,1708612,false,false,1897,image-keyboard-response,27
true,17,1,1,1,true,z,false,true,0.0-2.0-0.62-0.558-3.558,0,0,0,90,false,stim,false,2,639.2000000001863,1,0,1,23945,task2,1710775,false,false,1900,image-keyboard-response,28
true,17,2,1,2,true,d,false,true,0.0-2.0-0.62-0.559-3.559,0,0,0,68,false,stim,false,0,1719.5,1,0,2,23945,task2,1714022,false,false,1903,image-keyboard-response,29
true,17,1,1,0,false,q,false,false,0.0-2.0-0.62-0.560-3.560,0,0,0,90,false,stim,true,1,1636.2999999998137,1,0,0,23945,task2,1717195,false,false,1906,image-keyboard-response,30
true,17,1,1,2,false,d,true,false,0.0-2.0-0.62-0.561-3.561,0,0,0,90,false,stim,false,0,728.5,1,1,2,23945,task2,1719446,false,false,1909,image-keyboard-response,31
true,17,2,1,1,false,z,false,true,0.0-2.0-0.62-0.562-3.562,0,0,0,68,false,stim,true,2,498.19999999995343,1,0,1,23945,task2,1721459,false,true,1912,image-keyboard-response,32
true,17,0,1,2,false,d,false,false,0.0-2.0-0.62-0.563-3.563,0,0,0,81,false,stim,true,0,708.6999999999534,1,1,2,23945,task2,1723682,false,false,1915,image-keyboard-response,33
true,17,0,1,0,true,q,false,true,0.0-2.0-0.62-0.564-3.564,0,0,0,81,false,stim,false,1,818.8000000000466,1,0,0,23945,task2,1726036,false,false,1918,image-keyboard-response,34
true,17,1,1,0,false,q,false,false,0.0-2.0-0.62-0.565-3.565,0,0,0,90,false,stim,true,1,1699.5999999998603,1,0,0,23945,task2,1729249,false,false,1921,image-keyboard-response,35
true,18,0,2,0,true,q,false,true,0.0-2.0-0.62-0.566-3.566,0,0,1,81,true,stim,false,1,1074.6999999999534,1,0,1,23945,task2,1731843,false,false,1924,image-keyboard-response,1
true,18,2,2,2,true,d,false,true,0.0-2.0-0.63-0.567-3.567,0,0,1,68,false,stim,false,2,745.3000000000466,1,1,2,23945,task2,1734119,false,false,1927,image-keyboard-response,2
true,18,0,2,1,false,z,false,true,0.0-2.0-0.63-0.568-3.568,0,0,1,81,false,stim,true,0,856.8000000000466,1,0,0,23945,task2,1736495,false,true,1930,image-keyboard-response,3
true,18,0,2,1,false,z,false,false,0.0-2.0-0.63-0.569-3.569,0,0,1,81,false,stim,true,0,685.0,1,0,0,23945,task2,1738715,false,false,1933,image-keyboard-response,4
true,18,2,2,2,true,d,false,true,0.0-2.0-0.63-0.570-3.570,0,0,1,68,false,stim,false,2,746.6000000000931,1,1,2,23945,task2,1740980,false,false,1936,image-keyboard-response,5
true,18,2,2,2,true,d,false,false,0.0-2.0-0.63-0.571-3.571,0,0,1,68,false,stim,false,2,1971.5,1,1,2,23945,task2,1744487,false,true,1939,image-keyboard-response,6
true,18,0,2,0,true,q,false,true,0.0-2.0-0.63-0.572-3.572,0,0,1,81,false,stim,false,1,857.3000000000466,1,0,1,23945,task2,1746861,false,false,1942,image-keyboard-response,7
true,18,2,2,1,false,z,true,true,0.0-2.0-0.63-0.573-3.573,0,0,1,68,false,stim,false,0,958.1000000000931,1,0,0,23945,task2,1749335,false,true,1945,image-keyboard-response,8
true,18,0,2,0,true,q,false,true,0.0-2.0-0.63-0.574-3.574,0,0,1,81,false,stim,false,1,502.60000000009313,1,0,1,23945,task2,1751350,false,false,1948,image-keyboard-response,9
true,18,0,2,0,true,q,false,true,0.0-2.0-0.63-0.575-3.575,0,0,1,81,false,stim,false,1,610.1999999999534,1,0,1,23945,task2,1753484,false,false,1951,image-keyboard-response,10
true,18,0,2,1,false,z,false,false,0.0-2.0-0.64-0.576-3.576,0,0,1,81,false,stim,true,0,697.9000000001397,1,0,0,23945,task2,1755703,false,false,1954,image-keyboard-response,11
true,18,0,2,0,true,q,false,true,0.0-2.0-0.64-0.577-3.577,0,0,1,81,false,stim,false,1,494.70000000018626,1,0,1,23945,task2,1757715,false,false,1957,image-keyboard-response,12
true,18,0,2,2,false,d,true,false,0.0-2.0-0.64-0.578-3.578,0,0,1,81,false,stim,false,2,719.1999999999534,1,1,2,23945,task2,1759959,false,false,1960,image-keyboard-response,13
true,18,0,2,1,false,z,false,false,0.0-2.0-0.64-0.579-3.579,0,0,1,81,false,stim,true,0,1050.8999999999069,1,0,0,23945,task2,1762536,false,false,1963,image-keyboard-response,14
true,18,2,2,1,false,z,true,false,0.0-2.0-0.64-0.580-3.580,0,0,1,68,false,stim,false,0,546.7000000001863,1,0,0,23945,task2,1764604,false,false,1966,image-keyboard-response,15
true,18,1,2,2,false,d,true,false,0.0-2.0-0.64-0.581-3.581,0,0,1,90,false,stim,false,2,757.1999999999534,1,1,2,23945,task2,1766873,false,false,1969,image-keyboard-response,16
true,18,0,2,0,true,q,false,true,0.0-2.0-0.64-0.582-3.582,0,0,1,81,false,stim,false,1,464.19999999995343,1,0,1,23945,task2,1768863,false,false,1972,image-keyboard-response,17
true,18,0,2,2,false,d,true,true,0.0-2.0-0.64-0.583-3.583,0,0,1,81,false,stim,false,2,831.6999999999534,1,1,2,23945,task2,1771214,false,true,1975,image-keyboard-response,18
true,18,2,2,0,false,q,true,false,0.0-2.0-0.64-0.584-3.584,0,0,1,68,false,stim,false,1,765.6000000000931,1,0,1,23945,task2,1773517,false,false,1978,image-keyboard-response,19
true,18,0,2,1,false,z,false,false,0.0-2.0-0.65-0.585-3.585,0,0,1,81,false,stim,true,0,811.9000000001397,1,0,0,23945,task2,1775857,false,false,1981,image-keyboard-response,20
true,18,1,2,2,false,d,true,false,0.0-2.0-0.65-0.586-3.586,0,0,1,90,false,stim,false,2,859.0,1,1,2,23945,task2,1778234,false,false,1984,image-keyboard-response,21
true,18,0,2,0,true,q,false,true,0.0-2.0-0.65-0.587-3.587,0,0,1,81,false,stim,false,1,554.1999999999534,1,0,1,23945,task2,1780308,false,false,1987,image-keyboard-response,22
true,18,2,2,2,true,d,false,true,0.0-2.0-0.65-0.588-3.588,0,0,1,68,false,stim,false,2,631.6000000000931,1,1,2,23945,task2,1782462,false,false,1990,image-keyboard-response,23
true,18,0,2,0,true,q,false,true,0.0-2.0-0.65-0.589-3.589,0,0,1,81,false,stim,false,1,1034.2000000001863,1,0,1,23945,task2,1785020,false,false,1993,image-keyboard-response,24
