answered,blockNum,choice,condition,corResp,correct,correct_response,explo,fb,internal_node_id,isStable_1,isStable_2,isStable_3,key_press,newBlock,part,persev,persevResp,rt,sessNum,stableAS,stimulus,subject,task,time_elapsed,training,trap,trial_index,trial_type,trialsInBlock
true,1,0,0,2,false,d,true,true,0.0-2.0-0.0-0.0-3.0,0,0,0,81,true,stim,false,-1,1420.5,2,0,2,23945,task1,81205,false,true,85,image-keyboard-response,1
true,1,1,0,0,false,q,true,false,0.0-2.0-0.0-0.1-3.1,0,0,0,90,false,stim,false,-1,1098.1000000000058,2,0,1,23945,task1,83817,false,false,88,image-keyboard-response,2
true,1,0,0,2,false,d,true,false,0.0-2.0-0.0-0.2-3.2,0,0,0,81,false,stim,false,-1,606.6999999999825,2,0,2,23945,task1,85937,false,false,91,image-keyboard-response,3
true,1,2,0,0,false,q,true,false,0.0-2.0-0.0-0.3-3.3,0,0,0,68,false,stim,false,-1,757.8000000000175,2,0,0,23945,task1,88209,false,false,94,image-keyboard-response,4
true,1,2,0,0,false,q,true,false,0.0-2.0-0.0-0.4-3.4,0,0,0,68,false,stim,false,-1,1019.2000000000116,2,0,1,23945,task1,90738,false,false,97,image-keyboard-response,5
true,1,1,0,0,false,q,true,false,0.0-2.0-0.0-0.5-3.5,0,0,0,90,false,stim,false,-1,474.8999999999942,2,0,0,23945,task1,92729,false,false,100,image-keyboard-response,6
true,1,0,0,2,false,d,true,true,0.0-2.0-0.0-0.6-3.6,0,0,0,81,false,stim,false,-1,833.3000000000175,2,0,2,23945,task1,95083,false,true,103,image-keyboard-response,7
true,1,0,0,0,true,q,false,true,0.0-2.0-0.0-0.7-3.7,0,0,0,81,false,stim,false,-1,964.5,2,0,0,23945,task1,97560,false,false,106,image-keyboard-response,8
true,1,0,0,0,true,q,false,true,0.0-2.0-0.0-0.8-3.8,0,0,0,81,false,stim,false,-1,389.29999999998836,2,0,1,23945,task1,99468,false,false,109,image-keyboard-response,9
true,1,0,0,0,true,q,false,true,0.0-2.0-0.1-0.9-3.9,0,0,0,81,false,stim,false,-1,453.1000000000058,2,0,1,23945,task1,101431,false,false,112,image-keyboard-response,10
true,1,0,0,0,true,q,false,true,0.0-2.0-0.1-0.10-3.10,0,0,0,81,false,stim,false,-1,947.1000000000058,2,0,0,23945,task1,103901,false,false,115,image-keyboard-response,11
true,1,0,0,0,true,q,false,true,0.0-2.0-0.1-0.11-3.11,0,0,0,81,false,stim,false,-1,463.8999999999942,2,0,0,23945,task1,105888,false,false,118,image-keyboard-response,12
true,1,0,0,2,false,d,true,false,0.0-2.0-0.1-0.12-3.12,0,0,0,81,false,stim,false,-1,460.0,2,0,2,23945,task1,107861,false,false,121,image-keyboard-response,13
true,1,0,0,0,true,q,false,true,0.0-2.0-0.1-0.13-3.13,0,0,0,81,false,stim,false,-1,513.2999999999884,2,0,1,23945,task1,109890,false,false,124,image-keyboard-response,14
true,1,0,0,2,false,d,true,false,0.0-2.0-0.1-0.14-3.14,0,0,0,81,false,stim,false,-1,392.70000000001164,2,0,2,23945,task1,111796,false,false,127,image-keyboard-response,15
true,1,1,0,2,false,d,true,false,0.0-2.0-0.1-0.15-3.15,0,0,0,90,false,stim,false,-1,897.5,2,0,2,23945,task1,114212,false,false,130,image-keyboard-response,16
true,1,0,0,0,true,q,false,true,0.0-2.0-0.1-0.16-3.16,0,0,0,81,false,stim,false,-1,580.4000000000233,2,0,1,23945,task1,116314,false,false,133,image-keyboard-response,17
true,1,0,0,0,true,q,false,true,0.0-2.0-0.1-0.17-3.17,0,0,0,81,false,stim,false,-1,1144.7000000000116,2,0,0,23945,task1,118971,false,false,136,image-keyboard-response,18
true,1,0,0,0,true,q,false,false,0.0-2.0-0.2-0.18-3.18,0,0,0,81,false,stim,false,-1,472.30000000001746,2,0,0,23945,task1,120962,false,true,139,image-keyboard-response,19
true,1,0,0,0,true,q,false,true,0.0-2.0-0.2-0.19-3.19,0,0,0,81,false,stim,false,-1,308.29999999998836,2,0,0,23945,task1,122793,false,false,142,image-keyboard-response,20
true,1,0,0,0,true,q,false,true,0.0-2.0-0.2-0.20-3.20,0,0,0,81,false,stim,false,-1,855.6999999999825,2,0,1,23945,task1,125161,false,false,145,image-keyboard-response,21
true,1,2,0,2,true,d,false,true,0.0-2.0-0.2-0.21-3.21,0,0,0,68,false,stim,false,-1,448.3999999999942,2,0,2,23945,task1,127126,false,false,148,image-keyboard-response,22
true,1,0,0,0,true,q,false,true,0.0-2.0-0.2-0.22-3.22,0,0,0,81,false,stim,false,-1,703.5,2,0,1,23945,task1,129349,false,false,151,image-keyboard-response,23
true,1,0,0,0,true,q,false,true,0.0-2.0-0.2-0.23-3.23,0,0,0,81,false,stim,false,-1,322.30000000004657,2,0,0,23945,task1,131184,false,false,154,image-keyboard-response,24
true,1,2,0,2,true,d,false,true,0.0-2.0-0.2-0.24-3.24,0,0,0,68,false,stim,false,-1,970.0999999999767,2,0,2,23945,task1,133669,false,false,157,image-keyboard-response,25
true,1,0,0,0,true,q,false,true,0.0-2.0-0.2-0.25-3.25,0,0,0,81,false,stim,false,-1,535.8999999999651,2,0,1,23945,task1,135723,false,false,160,image-keyboard-response,26
true,2,2,1,1,false,z,false,false,0.0-2.0-0.2-0.26-3.26,0,0,0,68,true,stim,true,2,839.8999999999651,2,0,2,23945,task1,138086,false,false,163,image-keyboard-response,1
true,2,0,1,2,false,d,false,true,0.0-2.0-0.3-0.27-3.27,0,0,0,81,false,stim,true,0,710.4000000000233,2,0,0,23945,task1,140317,false,true,166,image-keyboard-response,2
true,2,0,1,2,false,d,false,true,0.0-2.0-0.3-0.28-3.28,0,0,0,81,false,stim,true,0,543.1000000000349,2,0,0,23945,task1,142369,false,true,169,image-keyboard-response,3
true,2,2,1,1,false,z,false,false,0.0-2.0-0.3-0.29-3.29,0,0,0,68,false,stim,true,2,556.1999999999534,2,0,2,23945,task1,144440,false,false,172,image-keyboard-response,4
true,2,1,1,1,true,z,false,true,0.0-2.0-0.3-0.30-3.30,0,0,0,90,false,stim,false,2,738.5,2,0,2,23945,task1,146699,false,false,175,image-keyboard-response,5
true,2,0,1,2,false,d,false,true,0.0-2.0-0.3-0.31-3.31,0,0,0,81,false,stim,true,0,1330.7999999999884,2,0,0,23945,task1,149556,false,true,178,image-keyboard-response,6
true,2,1,1,1,true,z,false,true,0.0-2.0-0.3-0.32-3.32,0,0,0,90,false,stim,false,2,575.5,2,0,2,23945,task1,151651,false,false,181,image-keyboard-response,7
true,2,0,1,1,false,z,false,false,0.0-2.0-0.3-0.33-3.33,0,0,0,81,false,stim,true,0,518.0,2,0,1,23945,task1,153682,false,false,184,image-keyboard-response,8
true,2,0,1,1,false,z,false,true,0.0-2.0-0.3-0.34-3.34,0,0,0,81,false,stim,true,0,764.7000000000116,2,0,1,23945,task1,155959,false,true,187,image-keyboard-response,9
true,2,0,1,1,false,z,false,false,0.0-2.0-0.3-0.35-3.35,0,0,0,81,false,stim,true,0,506.9000000000233,2,0,1,23945,task1,157982,false,false,190,image-keyboard-response,10
true,2,0,1,1,false,z,false,false,0.0-2.0-0.4-0.36-3.36,0,0,0,81,false,stim,true,0,806.9000000000233,2,0,1,23945,task1,160304,false,false,193,image-keyboard-response,11
true,2,2,1,1,false,z,true,false,0.0-2.0-0.4-0.37-3.37,0,0,0,68,false,stim,false,0,601.2999999999884,2,0,1,23945,task1,162429,false,false,196,image-keyboard-response,12
true,2,1,1,1,true,z,false,true,0.0-2.0-0.4-0.38-3.38,0,0,0,90,false,stim,false,2,880.7999999999884,2,0,2,23945,task1,164829,false,false,199,image-keyboard-response,13
true,2,0,1,2,false,d,false,false,0.0-2.0-0.4-0.39-3.39,0,0,0,81,false,stim,true,0,574.2999999999884,2,0,0,23945,task1,166912,false,false,202,image-keyboard-response,14
true,2,1,1,1,true,z,false,true,0.0-2.0-0.4-0.40-3.40,0,0,0,90,false,stim,false,2,748.4000000000233,2,0,2,23945,task1,169173,false,false,205,image-keyboard-response,15
true,2,1,1,1,true,z,false,true,0.0-2.0-0.4-0.41-3.41,0,0,0,90,false,stim,false,2,867.0,2,0,2,23945,task1,171555,false,false,208,image-keyboard-response,16
true,2,2,1,2,true,d,false,true,0.0-2.0-0.4-0.42-3.42,0,0,0,68,false,stim,false,0,885.0999999999767,2,0,0,23945,task1,173961,false,false,211,image-keyboard-response,17
true,2,2,1,2,true,d,false,true,0.0-2.0-0.4-0.43-3.43,0,0,0,68,false,stim,false,0,567.8000000000466,2,0,0,23945,task1,176035,false,false,214,image-keyboard-response,18
true,2,1,1,1,true,z,false,false,0.0-2.0-0.4-0.44-3.44,0,0,0,90,false,stim,false,0,984.1000000000349,2,0,1,23945,task1,178544,false,true,217,image-keyboard-response,19
true,2,0,1,1,false,z,false,false,0.0-2.0-0.5-0.45-3.45,0,0,0,81,false,stim,true,0,489.30000000004657,2,0,1,23945,task1,180548,false,false,220,image-keyboard-response,20
true,2,2,1,1,false,z,true,false,0.0-2.0-0.5-0.46-3.46,0,0,0,68,false,stim,false,0,382.70000000001164,2,0,1,23945,task1,182450,false,false,223,image-keyboard-response,21
true,2,1,1,1,true,z,false,true,0.0-2.0-0.5-0.47-3.47,0,0,0,90,false,stim,false,0,472.4000000000233,2,0,1,23945,task1,184439,false,false,226,image-keyboard-response,22
true,2,2,1,2,true,d,false,false,0.0-2.0-0.5-0.48-3.48,0,0,0,68,false,stim,false,0,816.2000000000116,2,0,0,23945,task1,186779,false,true,229,image-keyboard-response,23
true,2,1,1,1,true,z,false,true,0.0-2.0-0.5-0.49-3.49,0,0,0,90,false,stim,false,2,627.1999999999534,2,0,2,23945,task1,188921,false,false,232,image-keyboard-response,24
true,2,2,1,2,true,d,false,false,0.0-2.0-0.5-0.50-3.50,0,0,0,68,false,stim,false,0,471.5999999999767,2,0,0,23945,task1,190917,false,true,235,image-keyboard-response,25
true,2,1,1,1,true,z,false,true,0.0-2.0-0.5-0.51-3.51,0,0,0,90,false,stim,false,2,1021.7999999999884,2,0,2,23945,task1,193463,false,false,238,image-keyboard-response,26
true,2,1,1,1,true,z,false,false,0.0-2.0-0.5-0.52-3.52,0,0,0,90,false,stim,false,2,509.80000000004657,2,0,2,23945,task1,195480,false,true,241,image-keyboard-response,27
true,2,1,1,2,false,d,true,false,0.0-2.0-0.5-0.53-3.53,0,0,0,90,false,stim,false,0,1198.1999999999534,2,0,0,23945,task1,198195,false,false,244,image-keyboard-response,28
true,2,1,1,1,true,z,false,true,0.0-2.0-0.6-0.54-3.54,0,0,0,90,false,stim,false,0,752.2000000000116,2,0,1,23945,task1,200458,false,false,247,image-keyboard-response,29
true,2,0,1,1,false,z,true,false,0.0-2.0-0.6-0.55-3.55,0,0,0,81,false,stim,false,2,568.7999999999884,2,0,2,23945,task1,202542,false,false,250,image-keyboard-response,30
true,2,0,1,1,false,z,false,false,0.0-2.0-0.6-0.56-3.56,0,0,0,81,false,stim,true,0,627.0999999999767,2,0,1,23945,task1,204688,false,false,253,image-keyboard-response,31
true,2,1,1,1,true,z,false,true,0.0-2.0-0.6-0.57-3.57,0,0,0,90,false,stim,false,0,745.2999999999884,2,0,1,23945,task1,206948,false,false,256,image-keyboard-response,32
true,2,2,1,1,false,z,false,false,0.0-2.0-0.6-0.58-3.58,0,0,0,68,false,stim,true,2,341.1000000000349,2,0,2,23945,task1,208805,false,false,259,image-keyboard-response,33
true,2,1,1,2,false,d,true,false,0.0-2.0-0.6-0.59-3.59,0,0,0,90,false,stim,false,0,1176.399999999965,2,0,0,23945,task1,211504,false,false,262,image-keyboard-response,34
true,2,0,1,2,false,d,false,false,0.0-2.0-0.6-0.60-3.60,0,0,0,81,false,stim,true,0,398.3999999999651,2,0,0,23945,task1,213416,false,false,265,image-keyboard-response,35
true,2,0,1,1,false,z,true,false,0.0-2.0-0.6-0.61-3.61,0,0,0,81,false,stim,false,2,935.5,2,0,2,23945,task1,215862,false,false,268,image-keyboard-response,36
true,2,2,1,2,true,d,false,true,0.0-2.0-0.6-0.62-3.62,0,0,0,68,false,stim,false,0,1073.899999999965,2,0,0,23945,task1,218455,false,false,271,image-keyboard-response,37
true,2,2,1,2,true,d,false,true,0.0-2.0-0.7-0.63-3.63,0,0,0,68,false,stim,false,0,597.0,2,0,0,23945,task1,220576,false,false,274,image-keyboard-response,38
true,2,2,1,1,false,z,false,true,0.0-2.0-0.7-0.64-3.64,0,0,0,68,false,stim,true,2,578.5999999999767,2,0,2,23945,task1,222675,false,true,277,image-keyboard-response,39
true,2,1,1,1,true,z,false,true,0.0-2.0-0.7-0.65-3.65,0,0,0,90,false,stim,false,0,1288.0,2,0,1,23945,task1,225474,false,false,280,image-keyboard-response,40
true,2,2,1,1,false,z,false,false,0.0-2.0-0.7-0.66-3.66,0,0,0,68,false,stim,true,2,376.70000000001164,2,0,2,23945,task1,227360,false,false,283,image-keyboard-response,41
true,2,1,1,1,true,z,false,true,0.0-2.0-0.7-0.67-3.67,0,0,0,90,false,stim,false,0,535.4000000000233,2,0,1,23945,task1,229421,false,false,286,image-keyboard-response,42
true,2,1,1,1,true,z,false,true,0.0-2.0-0.7-0.68-3.68,0,0,0,90,false,stim,false,0,515.3999999999651,2,0,1,23945,task1,231455,false,false,289,image-keyboard-response,43
true,3,2,1,1,false,z,false,false,0.0-2.0-0.7-0.69-3.69,0,0,0,68,true,stim,true,2,541.6999999999534,2,0,0,23945,task1,233508,false,false,292,image-keyboard-response,1
true,3,2,1,1,false,z,false,false,0.0-2.0-0.7-0.70-3.70,0,0,0,68,false,stim,true,2,385.29999999998836,2,0,0,23945,task1,235413,false,false,295,image-keyboard-response,2
true,3,0,1,2,false,d,true,true,0.0-2.0-0.7-0.71-3.71,0,0,0,81,false,stim,false,1,677.0,2,0,2,23945,task1,237606,false,true,298,image-keyboard-response,3
true,3,0,1,2,false,d,true,false,0.0-2.0-0.8-0.72-3.72,0,0,0,81,false,stim,false,1,398.69999999995343,2,0,2,23945,task1,239516,false,false,301,image-keyboard-response,4
true,3,1,1,2,false,d,false,false,0.0-2.0-0.8-0.73-3.73,0,0,0,90,false,stim,true,1,888.5,2,0,1,23945,task1,241915,false,false,304,image-keyboard-response,5
true,3,0,1,2,false,d,true,true,0.0-2.0-0.8-0.74-3.74,0,0,0,81,false,stim,false,1,517.7000000000116,2,0,2,23945,task1,243954,false,true,307,image-keyboard-response,6
true,3,0,1,1,false,z,true,false,0.0-2.0-0.8-0.75-3.75,0,0,0,81,false,stim,false,2,355.70000000001164,2,0,0,23945,task1,245822,false,false,310,image-keyboard-response,7
true,3,0,1,2,false,d,true,false,0.0-2.0-0.8-0.76-3.76,0,0,0,81,false,stim,false,1,893.3000000000466,2,0,1,23945,task1,248229,false,false,313,image-keyboard-response,8
true,3,1,1,2,false,d,false,false,0.0-2.0-0.8-0.77-3.77,0,0,0,90,false,stim,true,1,558.7000000000116,2,0,1,23945,task1,250303,false,false,316,image-keyboard-response,9
true,3,1,1,1,true,z,false,false,0.0-2.0-0.8-0.78-3.78,0,0,0,90,false,stim,false,2,1163.100000000035,2,0,0,23945,task1,252987,false,true,319,image-keyboard-response,10
true,3,0,1,1,false,z,true,false,0.0-2.0-0.8-0.79-3.79,0,0,0,81,false,stim,false,2,415.8999999999651,2,0,0,23945,task1,254922,false,false,322,image-keyboard-response,11
true,3,2,1,2,true,d,false,true,0.0-2.0-0.8-0.80-3.80,0,0,0,68,false,stim,false,1,671.5,2,0,2,23945,task1,257112,false,false,325,image-keyboard-response,12
true,3,2,1,1,false,z,false,false,0.0-2.0-0.9-0.81-3.81,0,0,0,68,false,stim,true,2,1398.9000000000233,2,0,0,23945,task1,260023,false,false,328,image-keyboard-response,13
true,3,2,1,2,true,d,false,true,0.0-2.0-0.9-0.82-3.82,0,0,0,68,false,stim,false,1,663.4000000000233,2,0,2,23945,task1,262199,false,false,331,image-keyboard-response,14
true,3,2,1,2,true,d,false,false,0.0-2.0-0.9-0.83-3.83,0,0,0,68,false,stim,false,1,1693.5,2,0,1,23945,task1,265416,false,true,334,image-keyboard-response,15
true,3,2,1,2,true,d,false,true,0.0-2.0-0.9-0.84-3.84,0,0,0,68,false,stim,false,1,908.0999999999767,2,0,2,23945,task1,267837,false,false,337,image-keyboard-response,16
true,3,2,1,2,true,d,false,true,0.0-2.0-0.9-0.85-3.85,0,0,0,68,false,stim,false,1,730.4000000000233,2,0,2,23945,task1,270081,false,false,340,image-keyboard-response,17
true,3,1,1,2,false,d,false,false,0.0-2.0-0.9-0.86-3.86,0,0,0,90,false,stim,true,1,393.79999999998836,2,0,1,23945,task1,271993,false,false,343,image-keyboard-response,18
true,3,0,1,1,false,z,true,true,0.0-2.0-0.9-0.87-3.87,0,0,0,81,false,stim,false,2,876.4000000000233,2,0,0,23945,task1,274388,false,true,346,image-keyboard-response,19
true,3,0,1,2,false,d,true,true,0.0-2.0-0.9-0.88-3.88,0,0,0,81,false,stim,false,1,371.29999999998836,2,0,1,23945,task1,276272,false,true,349,image-keyboard-response,20
true,3,0,1,1,false,z,true,false,0.0-2.0-0.9-0.89-3.89,0,0,0,81,false,stim,false,2,387.79999999998836,2,0,0,23945,task1,278168,false,false,352,image-keyboard-response,21
true,3,0,1,2,false,d,true,true,0.0-2.0-0.10-0.90-3.90,0,0,0,81,false,stim,false,1,400.1000000000349,2,0,2,23945,task1,280268,false,true,355,image-keyboard-response,22
true,3,0,1,2,false,d,true,false,0.0-2.0-0.10-0.91-3.91,0,0,0,81,false,stim,false,1,1682.0,2,0,2,23945,task1,283468,false,false,358,image-keyboard-response,23
true,3,0,1,2,false,d,true,false,0.0-2.0-0.10-0.92-3.92,0,0,0,81,false,stim,false,1,937.1000000000349,2,0,1,23945,task1,285927,false,false,361,image-keyboard-response,24
true,3,2,1,2,true,d,false,true,0.0-2.0-0.10-0.93-3.93,0,0,0,68,false,stim,false,1,1252.6999999999534,2,0,2,23945,task1,288698,false,false,364,image-keyboard-response,25
true,3,0,1,1,false,z,true,false,0.0-2.0-0.10-0.94-3.94,0,0,0,81,false,stim,false,2,494.8999999999651,2,0,0,23945,task1,290715,false,false,367,image-keyboard-response,26
true,3,1,1,1,true,z,false,true,0.0-2.0-0.10-0.95-3.95,0,0,0,90,false,stim,false,2,794.5,2,0,0,23945,task1,293027,false,false,370,image-keyboard-response,27
true,3,1,1,2,false,d,false,false,0.0-2.0-0.10-0.96-3.96,0,0,0,90,false,stim,true,1,486.70000000001164,2,0,1,23945,task1,295034,false,false,373,image-keyboard-response,28
true,3,1,1,1,true,z,false,true,0.0-2.0-0.10-0.97-3.97,0,0,0,90,false,stim,false,2,988.9000000000233,2,0,0,23945,task1,297548,false,false,376,image-keyboard-response,29
true,3,0,1,2,false,d,true,false,0.0-2.0-0.10-0.98-3.98,0,0,0,81,false,stim,false,1,1041.5999999999767,2,0,1,23945,task1,300100,false,false,379,image-keyboard-response,30
true,3,1,1,1,true,z,false,true,0.0-2.0-0.11-0.99-3.99,0,0,0,90,false,stim,false,2,640.6000000000349,2,0,0,23945,task1,302264,false,false,382,image-keyboard-response,31
true,3,1,1,1,true,z,false,true,0.0-2.0-0.11-0.100-3.100,0,0,0,90,false,stim,false,2,923.2999999999884,2,0,0,23945,task1,304700,false,false,385,image-keyboard-response,32
true,3,2,1,2,true,d,false,true,0.0-2.0-0.11-0.101-3.101,0,0,0,68,false,stim,false,1,889.2000000000116,2,0,2,23945,task1,307104,false,false,388,image-keyboard-response,33
true,3,2,1,2,true,d,false,true,0.0-2.0-0.11-0.102-3.102,0,0,0,68,false,stim,false,1,572.5,2,0,2,23945,task1,309197,false,false,391,image-keyboard-response,34
true,3,2,1,2,true,d,false,true,0.0-2.0-0.11-0.103-3.103,0,0,0,68,false,stim,false,1,451.29999999998836,2,0,1,23945,task1,311169,false,false,394,image-keyboard-response,35
true,3,2,1,2,true,d,false,true,0.0-2.0-0.11-0.104-3.104,0,0,0,68,false,stim,false,1,457.0,2,0,1,23945,task1,313151,false,false,397,image-keyboard-response,36
true,3,1,1,1,true,z,false,true,0.0-2.0-0.11-0.105-3.105,0,0,0,90,false,stim,false,2,885.0999999999767,2,0,0,23945,task1,315559,false,false,400,image-keyboard-response,37
true,3,2,1,2,true,d,false,true,0.0-2.0-0.11-0.106-3.106,0,0,0,68,false,stim,false,1,389.70000000001164,2,0,2,23945,task1,317468,false,false,403,image-keyboard-response,38
true,3,2,1,2,true,d,false,true,0.0-2.0-0.11-0.107-3.107,0,0,0,68,false,stim,false,1,750.7000000000116,2,0,1,23945,task1,319735,false,false,406,image-keyboard-response,39
true,3,2,1,2,true,d,false,true,0.0-2.0-0.12-0.108-3.108,0,0,0,68,false,stim,false,1,502.70000000001164,2,0,1,23945,task1,321748,false,false,409,image-keyboard-response,40
true,3,2,1,2,true,d,false,true,0.0-2.0-0.12-0.109-3.109,0,0,0,68,false,stim,false,1,1036.3000000000466,2,0,2,23945,task1,324297,false,false,412,image-keyboard-response,41
true,3,2,1,2,true,d,false,true,0.0-2.0-0.12-0.110-3.110,0,0,0,68,false,stim,false,1,557.4000000000233,2,0,1,23945,task1,326368,false,false,415,image-keyboard-response,42
true,3,1,1,1,true,z,false,true,0.0-2.0-0.12-0.111-3.111,0,0,0,90,false,stim,false,2,812.4000000000233,2,0,0,23945,task1,328700,false,false,418,image-keyboard-response,43
true,3,2,1,2,true,d,false,true,0.0-2.0-0.12-0.112-3.112,0,0,0,68,false,stim,false,1,621.8000000000466,2,0,2,23945,task1,330839,false,false,421,image-keyboard-response,44
true,3,2,1,2,true,d,false,true,0.0-2.0-0.12-0.113-3.113,0,0,0,68,false,stim,false,1,517.0999999999767,2,0,1,23945,task1,332868,false,false,424,image-keyboard-response,45
true,4,2,1,0,false,q,false,false,0.0-2.0-0.12-0.114-3.114,0,0,0,68,true,stim,true,2,1158.0999999999767,2,0,2,23945,task1,335540,false,false,427,image-keyboard-response,1
true,4,1,1,2,false,d,false,false,0.0-2.0-0.12-0.115-3.115,0,0,0,90,false,stim,true,1,651.2999999999884,2,0,0,23945,task1,337710,false,false,430,image-keyboard-response,2
true,4,1,1,2,false,d,false,true,0.0-2.0-0.12-0.116-3.116,0,0,0,90,false,stim,true,1,695.2999999999884,2,0,0,23945,task1,339930,false,true,433,image-keyboard-response,3
true,4,2,1,0,false,q,false,false,0.0-2.0-0.13-0.117-3.117,0,0,0,68,false,stim,true,2,590.9000000000233,2,0,1,23945,task1,342221,false,false,436,image-keyboard-response,4
true,4,1,1,0,false,q,true,false,0.0-2.0-0.13-0.118-3.118,0,0,0,90,false,stim,false,2,1442.2999999999884,2,0,2,23945,task1,345178,false,false,439,image-keyboard-response,5
true,4,1,1,2,false,d,false,false,0.0-2.0-0.13-0.119-3.119,0,0,0,90,false,stim,true,1,769.0,2,0,0,23945,task1,347471,false,false,442,image-keyboard-response,6
true,4,2,1,0,false,q,false,false,0.0-2.0-0.13-0.120-3.120,0,0,0,68,false,stim,true,2,1047.7000000000116,2,0,2,23945,task1,350033,false,false,445,image-keyboard-response,7
true,4,2,1,0,false,q,false,false,0.0-2.0-0.13-0.121-3.121,0,0,0,68,false,stim,true,2,814.1999999999534,2,0,1,23945,task1,352370,false,false,448,image-keyboard-response,8
true,4,0,1,2,false,d,true,false,0.0-2.0-0.13-0.122-3.122,0,0,0,81,false,stim,false,1,725.2999999999884,2,0,0,23945,task1,354608,false,false,451,image-keyboard-response,9
true,4,2,1,2,true,d,false,true,0.0-2.0-0.13-0.123-3.123,0,0,0,68,false,stim,false,1,443.20000000001164,2,0,0,23945,task1,356574,false,false,454,image-keyboard-response,10
true,4,0,1,0,true,q,false,true,0.0-2.0-0.13-0.124-3.124,0,0,0,81,false,stim,false,2,434.5999999999767,2,0,1,23945,task1,358528,false,false,457,image-keyboard-response,11
true,4,0,1,0,true,q,false,true,0.0-2.0-0.13-0.125-3.125,0,0,0,81,false,stim,false,2,329.6000000000349,2,0,2,23945,task1,360375,false,false,460,image-keyboard-response,12
true,4,0,1,0,true,q,false,true,0.0-2.0-0.14-0.126-3.126,0,0,0,81,false,stim,false,2,575.1000000000349,2,0,1,23945,task1,362475,false,false,463,image-keyboard-response,13
true,4,0,1,0,true,q,false,true,0.0-2.0-0.14-0.127-3.127,0,0,0,81,false,stim,false,2,317.69999999995343,2,0,1,23945,task1,364306,false,false,466,image-keyboard-response,14
true,4,0,1,0,true,q,false,true,0.0-2.0-0.14-0.128-3.128,0,0,0,81,false,stim,false,2,508.29999999998836,2,0,2,23945,task1,366337,false,false,469,image-keyboard-response,15
true,4,0,1,0,true,q,false,true,0.0-2.0-0.14-0.129-3.129,0,0,0,81,false,stim,false,2,915.5,2,0,2,23945,task1,368773,false,false,472,image-keyboard-response,16
true,4,2,1,2,true,d,false,true,0.0-2.0-0.14-0.130-3.130,0,0,0,68,false,stim,false,1,373.0999999999767,2,0,0,23945,task1,370669,false,false,475,image-keyboard-response,17
true,4,0,1,2,false,d,true,false,0.0-2.0-0.14-0.131-3.131,0,0,0,81,false,stim,false,1,378.30000000004657,2,0,0,23945,task1,372558,false,false,478,image-keyboard-response,18
true,4,0,1,0,true,q,false,true,0.0-2.0-0.14-0.132-3.132,0,0,0,81,false,stim,false,2,542.6999999999534,2,0,1,23945,task1,374625,false,false,481,image-keyboard-response,19
true,4,2,1,2,true,d,false,true,0.0-2.0-0.14-0.133-3.133,0,0,0,68,false,stim,false,1,600.0999999999767,2,0,0,23945,task1,376742,false,false,484,image-keyboard-response,20
true,4,0,1,0,true,q,false,true,0.0-2.0-0.14-0.134-3.134,0,0,0,81,false,stim,false,2,580.2000000000116,2,0,2,23945,task1,378846,false,false,487,image-keyboard-response,21
true,4,0,1,0,true,q,false,true,0.0-2.0-0.15-0.135-3.135,0,0,0,81,false,stim,false,2,750.0999999999767,2,0,1,23945,task1,381118,false,false,490,image-keyboard-response,22
true,4,0,1,0,true,q,false,true,0.0-2.0-0.15-0.136-3.136,0,0,0,81,false,stim,false,2,728.2000000000116,2,0,2,23945,task1,383361,false,false,493,image-keyboard-response,23
true,4,0,1,0,true,q,false,true,0.0-2.0-0.15-0.137-3.137,0,0,0,81,false,stim,false,2,605.0,2,0,2,23945,task1,385484,false,false,496,image-keyboard-response,24
true,4,2,1,2,true,d,false,true,0.0-2.0-0.15-0.138-3.138,0,0,0,68,false,stim,false,1,1148.2999999999884,2,0,0,23945,task1,388146,false,false,499,image-keyboard-response,25
true,4,2,1,2,true,d,false,false,0.0-2.0-0.15-0.139-3.139,0,0,0,68,false,stim,false,1,549.6000000000349,2,0,0,23945,task1,390226,false,true,502,image-keyboard-response,26
true,4,2,1,2,true,d,false,false,0.0-2.0-0.15-0.140-3.140,0,0,0,68,false,stim,false,1,1165.2999999999884,2,0,0,23945,task1,392917,false,true,505,image-keyboard-response,27
true,4,0,1,0,true,q,false,true,0.0-2.0-0.15-0.141-3.141,0,0,0,81,false,stim,false,2,768.3999999999651,2,0,2,23945,task1,395197,false,false,508,image-keyboard-response,28
true,4,0,1,0,true,q,false,true,0.0-2.0-0.15-0.142-3.142,0,0,0,81,false,stim,false,2,643.6000000000349,2,0,1,23945,task1,397361,false,false,511,image-keyboard-response,29
true,4,0,1,0,true,q,false,true,0.0-2.0-0.15-0.143-3.143,0,0,0,81,false,stim,false,2,482.20000000001164,2,0,1,23945,task1,399355,false,false,514,image-keyboard-response,30
true,4,0,1,0,true,q,false,true,0.0-2.0-0.16-0.144-3.144,0,0,0,81,false,stim,false,2,421.69999999995343,2,0,1,23945,task1,401477,false,false,517,image-keyboard-response,31
true,4,1,1,2,false,d,false,false,0.0-2.0-0.16-0.145-3.145,0,0,0,90,false,stim,true,1,1398.3000000000466,2,0,0,23945,task1,404386,false,false,520,image-keyboard-response,32
true,4,0,1,0,true,q,false,true,0.0-2.0-0.16-0.146-3.146,0,0,0,81,false,stim,false,2,639.7000000000116,2,0,1,23945,task1,406545,false,false,523,image-keyboard-response,33
true,4,0,1,0,true,q,false,true,0.0-2.0-0.16-0.147-3.147,0,0,0,81,false,stim,false,2,312.80000000004657,2,0,2,23945,task1,408374,false,false,526,image-keyboard-response,34
true,4,0,1,2,false,d,true,true,0.0-2.0-0.16-0.148-3.148,0,0,0,81,false,stim,false,1,336.19999999995343,2,0,0,23945,task1,410223,false,true,529,image-keyboard-response,35
true,4,0,1,0,true,q,false,true,0.0-2.0-0.16-0.149-3.149,0,0,0,81,false,stim,false,2,324.79999999993015,2,0,1,23945,task1,412065,false,false,532,image-keyboard-response,36
true,4,0,1,0,true,q,false,true,0.0-2.0-0.16-0.150-3.150,0,0,0,81,false,stim,false,2,356.0,2,0,2,23945,task1,413943,false,false,535,image-keyboard-response,37
true,4,0,1,0,true,q,false,true,0.0-2.0-0.16-0.151-3.151,0,0,0,81,false,stim,false,2,534.8000000000466,2,0,2,23945,task1,415991,false,false,538,image-keyboard-response,38
true,4,0,1,2,false,d,true,false,0.0-2.0-0.16-0.152-3.152,0,0,0,81,false,stim,false,1,673.5,2,0,0,23945,task1,418189,false,false,541,image-keyboard-response,39
true,5,0,1,2,false,d,false,false,0.0-2.0-0.17-0.153-3.153,0,0,0,81,true,stim,true,0,575.7000000000698,2,0,2,23945,task1,420277,false,false,544,image-keyboard-response,1
true,5,0,1,2,false,d,false,false,0.0-2.0-0.17-0.154-3.154,0,0,0,81,false,stim,true,0,455.89999999990687,2,0,2,23945,task1,422259,false,false,547,image-keyboard-response,2
true,5,0,1,2,false,d,false,false,0.0-2.0-0.17-0.155-3.155,0,0,0,81,false,stim,true,0,947.9000000000233,2,0,1,23945,task1,424727,false,false,550,image-keyboard-response,3
true,5,1,1,2,false,d,true,false,0.0-2.0-0.17-0.156-3.156,0,0,0,90,false,stim,false,0,586.6999999999534,2,0,2,23945,task1,426838,false,false,553,image-keyboard-response,4
true,5,2,1,2,true,d,false,true,0.0-2.0-0.17-0.157-3.157,0,0,0,68,false,stim,false,0,763.2000000000698,2,0,1,23945,task1,429121,false,false,556,image-keyboard-response,5
true,5,2,1,0,false,q,false,false,0.0-2.0-0.17-0.158-3.158,0,0,0,68,false,stim,true,2,560.5,2,0,0,23945,task1,431204,false,false,559,image-keyboard-response,6
true,5,1,1,0,false,q,true,false,0.0-2.0-0.17-0.159-3.159,0,0,0,90,false,stim,false,2,758.7999999999302,2,0,0,23945,task1,433478,false,false,562,image-keyboard-response,7
true,5,0,1,0,true,q,false,true,0.0-2.0-0.17-0.160-3.160,0,0,0,81,false,stim,false,2,454.69999999995343,2,0,0,23945,task1,435457,false,false,565,image-keyboard-response,8
true,5,2,1,2,true,d,false,true,0.0-2.0-0.17-0.161-3.161,0,0,0,68,false,stim,false,0,577.2999999999302,2,0,1,23945,task1,437558,false,false,568,image-keyboard-response,9
true,5,2,1,2,true,d,false,true,0.0-2.0-0.18-0.162-3.162,0,0,0,68,false,stim,false,0,499.0,2,0,1,23945,task1,439571,false,false,571,image-keyboard-response,10
true,5,0,1,0,true,q,false,true,0.0-2.0-0.18-0.163-3.163,0,0,0,81,false,stim,false,2,633.5999999999767,2,0,0,23945,task1,441717,false,false,574,image-keyboard-response,11
true,5,2,1,2,true,d,false,true,0.0-2.0-0.18-0.164-3.164,0,0,0,68,false,stim,false,0,649.7000000000698,2,0,1,23945,task1,443894,false,false,577,image-keyboard-response,12
true,5,0,1,0,true,q,false,true,0.0-2.0-0.18-0.165-3.165,0,0,0,81,false,stim,false,2,594.5,2,0,0,23945,task1,446006,false,false,580,image-keyboard-response,13
true,5,2,1,2,true,d,false,true,0.0-2.0-0.18-0.166-3.166,0,0,0,68,false,stim,false,0,487.4000000000233,2,0,2,23945,task1,448006,false,false,583,image-keyboard-response,14
true,5,0,1,0,true,q,false,true,0.0-2.0-0.18-0.167-3.167,0,0,0,81,false,stim,false,2,393.0999999999767,2,0,0,23945,task1,449909,false,false,586,image-keyboard-response,15
true,5,2,1,2,true,d,false,true,0.0-2.0-0.18-0.168-3.168,0,0,0,68,false,stim,false,0,632.5,2,0,2,23945,task1,452066,false,false,589,image-keyboard-response,16
true,5,2,1,2,true,d,false,true,0.0-2.0-0.18-0.169-3.169,0,0,0,68,false,stim,false,0,486.10000000009313,2,0,2,23945,task1,454076,false,false,592,image-keyboard-response,17
true,5,2,1,2,true,d,false,false,0.0-2.0-0.18-0.170-3.170,0,0,0,68,false,stim,false,0,726.8000000000466,2,0,1,23945,task1,456323,false,true,595,image-keyboard-response,18
true,5,1,1,2,false,d,true,false,0.0-2.0-0.19-0.171-3.171,0,0,0,90,false,stim,false,0,1070.0,2,0,1,23945,task1,458912,false,false,598,image-keyboard-response,19
true,5,0,1,0,true,q,false,true,0.0-2.0-0.19-0.172-3.172,0,0,0,81,false,stim,false,2,601.7999999999302,2,0,0,23945,task1,461035,false,false,601,image-keyboard-response,20
true,5,2,1,2,true,d,false,true,0.0-2.0-0.19-0.173-3.173,0,0,0,68,false,stim,false,0,706.5999999999767,2,0,2,23945,task1,463448,false,false,604,image-keyboard-response,21
true,5,0,1,2,false,d,false,false,0.0-2.0-0.19-0.174-3.174,0,0,0,81,false,stim,true,0,522.8999999999069,2,0,1,23945,task1,465493,false,false,607,image-keyboard-response,22
true,5,2,1,2,true,d,false,true,0.0-2.0-0.19-0.175-3.175,0,0,0,68,false,stim,false,0,383.9000000000233,2,0,1,23945,task1,467396,false,false,610,image-keyboard-response,23
true,5,2,1,2,true,d,false,false,0.0-2.0-0.19-0.176-3.176,0,0,0,68,false,stim,false,0,792.9000000000233,2,0,2,23945,task1,469704,false,true,613,image-keyboard-response,24
true,5,0,1,0,true,q,false,true,0.0-2.0-0.19-0.177-3.177,0,0,0,81,false,stim,false,2,650.2999999999302,2,0,0,23945,task1,471876,false,false,616,image-keyboard-response,25
true,5,0,1,2,false,d,false,false,0.0-2.0-0.19-0.178-3.178,0,0,0,81,false,stim,true,0,442.5,2,0,2,23945,task1,473836,false,false,619,image-keyboard-response,26
true,5,0,1,0,true,q,false,true,0.0-2.0-0.19-0.179-3.179,0,0,0,81,false,stim,false,2,646.4000000000233,2,0,0,23945,task1,476002,false,false,622,image-keyboard-response,27
true,5,2,1,2,true,d,false,true,0.0-2.0-0.20-0.180-3.180,0,0,0,68,false,stim,false,0,574.0,2,0,2,23945,task1,478095,false,false,625,image-keyboard-response,28
true,5,0,1,0,true,q,false,true,0.0-2.0-0.20-0.181-3.181,0,0,0,81,false,stim,false,2,543.0,2,0,0,23945,task1,480154,false,false,628,image-keyboard-response,29
true,5,2,1,2,true,d,false,true,0.0-2.0-0.20-0.182-3.182,0,0,0,68,false,stim,false,0,567.7999999999302,2,0,2,23945,task1,482236,false,false,631,image-keyboard-response,30
true,5,2,1,2,true,d,false,true,0.0-2.0-0.20-0.183-3.183,0,0,0,68,false,stim,false,0,605.5999999999767,2,0,1,23945,task1,484363,false,false,634,image-keyboard-response,31
true,5,2,1,2,true,d,false,true,0.0-2.0-0.20-0.184-3.184,0,0,0,68,false,stim,false,0,497.0,2,0,1,23945,task1,486377,false,false,637,image-keyboard-response,32
true,5,2,1,2,true,d,false,true,0.0-2.0-0.20-0.185-3.185,0,0,0,68,false,stim,false,0,559.0999999999767,2,0,1,23945,task1,488453,false,false,640,image-keyboard-response,33
true,5,0,1,0,true,q,false,true,0.0-2.0-0.20-0.186-3.186,0,0,0,81,false,stim,false,2,893.4000000000233,2,0,0,23945,task1,490872,false,false,643,image-keyboard-response,34
true,5,0,1,0,true,q,false,true,0.0-2.0-0.20-0.187-3.187,0,0,0,81,false,stim,false,2,512.4000000000233,2,0,0,23945,task1,492895,false,false,646,image-keyboard-response,35
true,5,2,1,2,true,d,false,true,0.0-2.0-0.20-0.188-3.188,0,0,0,68,false,stim,false,0,724.1999999999534,2,0,2,23945,task1,495137,false,false,649,image-keyboard-response,36
true,5,2,1,2,true,d,false,true,0.0-2.0-0.21-0.189-3.189,0,0,0,68,false,stim,false,0,774.6999999999534,2,0,2,23945,task1,497439,false,false,652,image-keyboard-response,37
true,5,0,1,0,true,q,false,true,0.0-2.0-0.21-0.190-3.190,0,0,0,81,false,stim,false,2,907.6999999999534,2,0,0,23945,task1,499870,false,false,655,image-keyboard-response,38
true,5,0,1,0,true,q,false,true,0.0-2.0-0.21-0.191-3.191,0,0,0,81,false,stim,false,2,578.7000000000698,2,0,0,23945,task1,501974,false,false,658,image-keyboard-response,39
true,5,2,1,2,true,d,false,true,0.0-2.0-0.21-0.192-3.192,0,0,0,68,false,stim,false,0,1628.0,2,0,1,23945,task1,505115,false,false,661,image-keyboard-response,40
true,5,2,1,2,true,d,false,true,0.0-2.0-0.21-0.193-3.193,0,0,0,68,false,stim,false,0,366.79999999993015,2,0,2,23945,task1,507005,false,false,664,image-keyboard-response,41
true,6,2,1,0,false,q,false,false,0.0-2.0-0.21-0.194-3.194,0,0,0,68,true,stim,true,2,429.0999999999767,2,0,2,23945,task1,508952,false,false,667,image-keyboard-response,1
true,6,2,1,0,false,q,false,true,0.0-2.0-0.21-0.195-3.195,0,0,0,68,false,stim,true,2,648.4000000000233,2,0,1,23945,task1,511118,false,true,670,image-keyboard-response,2
true,6,2,1,0,false,q,false,false,0.0-2.0-0.21-0.196-3.196,0,0,0,68,false,stim,true,2,515.9000000000233,2,0,1,23945,task1,513155,false,false,673,image-keyboard-response,3
true,6,0,1,1,false,z,false,true,0.0-2.0-0.21-0.197-3.197,0,0,0,81,false,stim,true,0,709.1000000000931,2,0,0,23945,task1,515374,false,true,676,image-keyboard-response,4
true,6,2,1,0,false,q,false,false,0.0-2.0-0.22-0.198-3.198,0,0,0,68,false,stim,true,2,662.3000000000466,2,0,1,23945,task1,517546,false,false,679,image-keyboard-response,5
true,6,0,1,1,false,z,false,false,0.0-2.0-0.22-0.199-3.199,0,0,0,81,false,stim,true,0,805.4000000000233,2,0,0,23945,task1,519869,false,false,682,image-keyboard-response,6
true,6,0,1,0,true,q,false,true,0.0-2.0-0.22-0.200-3.200,0,0,0,81,false,stim,false,2,412.5,2,0,2,23945,task1,521988,false,false,685,image-keyboard-response,7
true,6,0,1,0,true,q,false,true,0.0-2.0-0.22-0.201-3.201,0,0,0,81,false,stim,false,2,464.1999999998952,2,0,2,23945,task1,523967,false,false,688,image-keyboard-response,8
true,6,0,1,0,true,q,false,true,0.0-2.0-0.22-0.202-3.202,0,0,0,81,false,stim,false,2,447.29999999993015,2,0,1,23945,task1,525929,false,false,691,image-keyboard-response,9
true,6,0,1,1,false,z,false,false,0.0-2.0-0.22-0.203-3.203,0,0,0,81,false,stim,true,0,407.29999999993015,2,0,0,23945,task1,527855,false,false,694,image-keyboard-response,10
true,6,1,1,1,true,z,false,true,0.0-2.0-0.22-0.204-3.204,0,0,0,90,false,stim,false,0,613.6999999999534,2,0,0,23945,task1,529979,false,false,697,image-keyboard-response,11
true,6,0,1,0,true,q,false,true,0.0-2.0-0.22-0.205-3.205,0,0,0,81,false,stim,false,2,391.20000000006985,2,0,1,23945,task1,531898,false,false,700,image-keyboard-response,12
true,6,0,1,0,true,q,false,true,0.0-2.0-0.22-0.206-3.206,0,0,0,81,false,stim,false,2,382.9000000000233,2,0,2,23945,task1,533804,false,false,703,image-keyboard-response,13
true,6,0,1,0,true,q,false,true,0.0-2.0-0.23-0.207-3.207,0,0,0,81,false,stim,false,2,819.3000000000466,2,0,1,23945,task1,536144,false,false,706,image-keyboard-response,14
true,6,0,1,0,true,q,false,true,0.0-2.0-0.23-0.208-3.208,0,0,0,81,false,stim,false,2,617.9000000000233,2,0,2,23945,task1,538282,false,false,709,image-keyboard-response,15
true,6,0,1,0,true,q,false,true,0.0-2.0-0.23-0.209-3.209,0,0,0,81,false,stim,false,2,458.19999999995343,2,0,1,23945,task1,540260,false,false,712,image-keyboard-response,16
true,6,0,1,0,true,q,false,true,0.0-2.0-0.23-0.210-3.210,0,0,0,81,false,stim,false,2,625.0999999999767,2,0,2,23945,task1,542410,false,false,715,image-keyboard-response,17
true,6,0,1,0,true,q,false,false,0.0-2.0-0.23-0.211-3.211,0,0,0,81,false,stim,false,2,509.0999999999767,2,0,1,23945,task1,544439,false,true,718,image-keyboard-response,18
true,6,1,1,1,true,z,false,true,0.0-2.0-0.23-0.212-3.212,0,0,0,90,false,stim,false,0,1034.5999999999767,2,0,0,23945,task1,546992,false,false,721,image-keyboard-response,19
true,6,1,1,1,true,z,false,true,0.0-2.0-0.23-0.213-3.213,0,0,0,90,false,stim,false,0,772.5999999999767,2,0,0,23945,task1,549276,false,false,724,image-keyboard-response,20
true,6,1,1,1,true,z,false,true,0.0-2.0-0.23-0.214-3.214,0,0,0,90,false,stim,false,0,713.2999999999302,2,0,0,23945,task1,551515,false,false,727,image-keyboard-response,21
true,6,0,1,0,true,q,false,true,0.0-2.0-0.23-0.215-3.215,0,0,0,81,false,stim,false,2,538.6999999999534,2,0,2,23945,task1,553571,false,false,730,image-keyboard-response,22
true,6,0,1,0,true,q,false,true,0.0-2.0-0.24-0.216-3.216,0,0,0,81,false,stim,false,2,347.5,2,0,2,23945,task1,555435,false,false,733,image-keyboard-response,23
true,6,0,1,0,true,q,false,false,0.0-2.0-0.24-0.217-3.217,0,0,0,81,false,stim,false,2,461.69999999995343,2,0,2,23945,task1,557423,false,true,736,image-keyboard-response,24
true,6,1,1,1,true,z,false,true,0.0-2.0-0.24-0.218-3.218,0,0,0,90,false,stim,false,0,831.0999999999767,2,0,0,23945,task1,559769,false,false,739,image-keyboard-response,25
true,6,1,1,1,true,z,false,true,0.0-2.0-0.24-0.219-3.219,0,0,0,90,false,stim,false,0,655.5999999999767,2,0,0,23945,task1,561938,false,false,742,image-keyboard-response,26
true,6,2,1,0,false,q,false,false,0.0-2.0-0.24-0.220-3.220,0,0,0,68,false,stim,true,2,1243.2000000000698,2,0,2,23945,task1,564696,false,false,745,image-keyboard-response,27
true,6,0,1,0,true,q,false,false,0.0-2.0-0.24-0.221-3.221,0,0,0,81,false,stim,false,2,644.3999999999069,2,0,1,23945,task1,566851,false,true,748,image-keyboard-response,28
true,6,1,1,0,false,q,true,false,0.0-2.0-0.24-0.222-3.222,0,0,0,90,false,stim,false,2,1011.9000000000233,2,0,1,23945,task1,569387,false,false,751,image-keyboard-response,29
true,6,2,1,0,false,q,false,false,0.0-2.0-0.24-0.223-3.223,0,0,0,68,false,stim,true,2,505.19999999995343,2,0,1,23945,task1,571411,false,false,754,image-keyboard-response,30
true,6,1,1,1,true,z,false,true,0.0-2.0-0.24-0.224-3.224,0,0,0,90,false,stim,false,0,824.3999999999069,2,0,0,23945,task1,573746,false,false,757,image-keyboard-response,31
true,6,1,1,1,true,z,false,true,0.0-2.0-0.25-0.225-3.225,0,0,0,90,false,stim,false,0,618.4000000000233,2,0,0,23945,task1,575888,false,false,760,image-keyboard-response,32
true,6,0,1,0,true,q,false,true,0.0-2.0-0.25-0.226-3.226,0,0,0,81,false,stim,false,2,764.5,2,0,2,23945,task1,578173,false,false,763,image-keyboard-response,33
true,6,0,1,0,true,q,false,true,0.0-2.0-0.25-0.227-3.227,0,0,0,81,false,stim,false,2,920.1999999999534,2,0,1,23945,task1,580609,false,false,766,image-keyboard-response,34
true,6,0,1,0,true,q,false,true,0.0-2.0-0.25-0.228-3.228,0,0,0,81,false,stim,false,2,901.7999999999302,2,0,1,23945,task1,583031,false,false,769,image-keyboard-response,35
true,6,1,1,1,true,z,false,true,0.0-2.0-0.25-0.229-3.229,0,0,0,90,false,stim,false,0,1533.9000000000233,2,0,0,23945,task1,586088,false,false,772,image-keyboard-response,36
true,6,0,1,0,true,q,false,true,0.0-2.0-0.25-0.230-3.230,0,0,0,81,false,stim,false,2,610.5999999999767,2,0,2,23945,task1,588205,false,false,775,image-keyboard-response,37
true,6,0,1,0,true,q,false,true,0.0-2.0-0.25-0.231-3.231,0,0,0,81,false,stim,false,2,1627.7000000000698,2,0,2,23945,task1,591341,false,false,778,image-keyboard-response,38
true,6,0,1,0,true,q,false,true,0.0-2.0-0.25-0.232-3.232,0,0,0,81,false,stim,false,2,1848.2999999999302,2,0,1,23945,task1,594701,false,false,781,image-keyboard-response,39
true,6,1,1,1,true,z,false,true,0.0-2.0-0.25-0.233-3.233,0,0,0,90,false,stim,false,0,1409.1999999999534,2,0,0,23945,task1,597622,false,false,784,image-keyboard-response,40
true,6,0,1,0,true,q,false,true,0.0-2.0-0.26-0.234-3.234,0,0,0,81,false,stim,false,2,982.5,2,0,1,23945,task1,600127,false,false,787,image-keyboard-response,41
true,6,1,1,1,true,z,false,true,0.0-2.0-0.26-0.235-3.235,0,0,0,90,false,stim,false,0,881.7000000000698,2,0,0,23945,task1,602525,false,false,790,image-keyboard-response,42
true,6,0,1,0,true,q,false,false,0.0-2.0-0.26-0.236-3.236,0,0,0,81,false,stim,false,2,407.5999999999767,2,0,1,23945,task1,604452,false,true,793,image-keyboard-response,43
true,6,0,1,0,true,q,false,true,0.0-2.0-0.26-0.237-3.237,0,0,0,81,false,stim,false,2,952.8000000000466,2,0,2,23945,task1,606914,false,false,796,image-keyboard-response,44
true,7,1,2,0,false,q,false,false,0.0-2.0-0.26-0.238-3.238,0,0,0,90,true,stim,true,1,629.7000000000698,2,0,0,23945,task1,609059,false,false,799,image-keyboard-response,1
true,7,0,2,2,false,d,false,false,0.0-2.0-0.26-0.239-3.239,0,0,0,81,false,stim,true,0,613.3000000000466,2,0,2,23945,task1,611191,false,false,802,image-keyboard-response,2
true,7,0,2,2,false,d,false,false,0.0-2.0-0.26-0.240-3.240,0,0,0,81,false,stim,true,0,2158.899999999907,2,0,2,23945,task1,614867,false,false,805,image-keyboard-response,3
true,7,1,2,0,false,q,false,false,0.0-2.0-0.26-0.241-3.241,0,0,0,90,false,stim,true,1,739.0,2,0,0,23945,task1,617128,false,false,808,image-keyboard-response,4
true,7,1,2,2,false,d,true,false,0.0-2.0-0.26-0.242-3.242,0,0,0,90,false,stim,false,0,966.7000000000698,2,0,1,23945,task1,619623,false,false,811,image-keyboard-response,5
true,7,0,2,0,true,q,false,true,0.0-2.0-0.27-0.243-3.243,0,0,0,81,false,stim,false,1,1692.2999999999302,2,0,0,23945,task1,622852,false,false,814,image-keyboard-response,6
true,7,2,2,2,true,d,false,true,0.0-2.0-0.27-0.244-3.244,0,0,0,68,false,stim,false,0,709.9000000000233,2,0,1,23945,task1,625090,false,false,817,image-keyboard-response,7
true,7,1,2,2,false,d,true,false,0.0-2.0-0.27-0.245-3.245,0,0,0,90,false,stim,false,0,408.70000000006985,2,0,2,23945,task1,627018,false,false,820,image-keyboard-response,8
true,7,2,2,2,true,d,false,true,0.0-2.0-0.27-0.246-3.246,0,0,0,68,false,stim,false,0,528.8000000000466,2,0,2,23945,task1,629058,false,false,823,image-keyboard-response,9
true,7,2,2,2,true,d,false,true,0.0-2.0-0.27-0.247-3.247,0,0,0,68,false,stim,false,0,528.4000000000233,2,0,2,23945,task1,631107,false,false,826,image-keyboard-response,10
true,7,2,2,2,true,d,false,true,0.0-2.0-0.27-0.248-3.248,0,0,0,68,false,stim,false,0,725.1000000000931,2,0,1,23945,task1,633361,false,false,829,image-keyboard-response,11
true,7,2,2,2,true,d,false,true,0.0-2.0-0.27-0.249-3.249,0,0,0,68,false,stim,false,0,585.7000000000698,2,0,1,23945,task1,635482,false,false,832,image-keyboard-response,12
true,7,0,2,0,true,q,false,false,0.0-2.0-0.27-0.250-3.250,0,0,0,81,false,stim,false,1,1314.0,2,0,0,23945,task1,638318,false,true,835,image-keyboard-response,13
true,7,0,2,0,true,q,false,true,0.0-2.0-0.27-0.251-3.251,0,0,0,81,false,stim,false,1,402.4000000000233,2,0,0,23945,task1,640238,false,false,838,image-keyboard-response,14
true,7,2,2,2,true,d,false,true,0.0-2.0-0.28-0.252-3.252,0,0,0,68,false,stim,false,0,698.3000000000466,2,0,2,23945,task1,642457,false,false,841,image-keyboard-response,15
true,7,2,2,2,true,d,false,true,0.0-2.0-0.28-0.253-3.253,0,0,0,68,false,stim,false,0,590.5999999999767,2,0,1,23945,task1,644566,false,false,844,image-keyboard-response,16
true,7,2,2,2,true,d,false,true,0.0-2.0-0.28-0.254-3.254,0,0,0,68,false,stim,false,0,566.6000000000931,2,0,1,23945,task1,646648,false,false,847,image-keyboard-response,17
true,7,2,2,2,true,d,false,true,0.0-2.0-0.28-0.255-3.255,0,0,0,68,false,stim,false,0,709.0999999999767,2,0,2,23945,task1,648872,false,false,850,image-keyboard-response,18
true,7,2,2,2,true,d,false,true,0.0-2.0-0.28-0.256-3.256,0,0,0,68,false,stim,false,0,557.9000000000233,2,0,2,23945,task1,650946,false,false,853,image-keyboard-response,19
true,7,2,2,2,true,d,false,true,0.0-2.0-0.28-0.257-3.257,0,0,0,68,false,stim,false,0,903.1999999999534,2,0,1,23945,task1,653371,false,false,856,image-keyboard-response,20
true,7,0,2,0,true,q,false,false,0.0-2.0-0.28-0.258-3.258,0,0,0,81,false,stim,false,1,1210.1999999999534,2,0,0,23945,task1,656098,false,true,859,image-keyboard-response,21
true,7,0,2,0,true,q,false,true,0.0-2.0-0.28-0.259-3.259,0,0,0,81,false,stim,false,1,478.10000000009313,2,0,0,23945,task1,658095,false,false,862,image-keyboard-response,22
true,7,0,2,0,true,q,false,false,0.0-2.0-0.28-0.260-3.260,0,0,0,81,false,stim,false,1,481.30000000004657,2,0,0,23945,task1,660095,false,true,865,image-keyboard-response,23
true,7,2,2,2,true,d,false,true,0.0-2.0-0.29-0.261-3.261,0,0,0,68,false,stim,false,0,786.5999999999767,2,0,2,23945,task1,662407,false,false,868,image-keyboard-response,24
true,7,2,2,2,true,d,false,true,0.0-2.0-0.29-0.262-3.262,0,0,0,68,false,stim,false,0,619.5,2,0,2,23945,task1,664542,false,false,871,image-keyboard-response,25
true,7,1,2,0,false,q,false,false,0.0-2.0-0.29-0.263-3.263,0,0,0,90,false,stim,true,1,385.30000000004657,2,0,0,23945,task1,666437,false,false,874,image-keyboard-response,26
true,7,0,2,0,true,q,false,true,0.0-2.0-0.29-0.264-3.264,0,0,0,81,false,stim,false,1,375.20000000006985,2,0,0,23945,task1,668321,false,false,877,image-keyboard-response,27
true,7,2,2,2,true,d,false,true,0.0-2.0-0.29-0.265-3.265,0,0,0,68,false,stim,false,0,743.6999999999534,2,0,1,23945,task1,670585,false,false,880,image-keyboard-response,28
true,7,2,2,2,true,d,false,false,0.0-2.0-0.29-0.266-3.266,0,0,0,68,false,stim,false,0,633.5999999999767,2,0,1,23945,task1,672732,false,true,883,image-keyboard-response,29
true,7,2,2,2,true,d,false,true,0.0-2.0-0.29-0.267-3.267,0,0,0,68,false,stim,false,0,562.9000000000233,2,0,2,23945,task1,674810,false,false,886,image-keyboard-response,30
true,7,0,2,0,true,q,false,true,0.0-2.0-0.29-0.268-3.268,0,0,0,81,false,stim,false,1,1150.9000000000233,2,0,0,23945,task1,677483,false,false,889,image-keyboard-response,31
true,7,2,2,2,true,d,false,true,0.0-2.0-0.29-0.269-3.269,0,0,0,68,false,stim,false,0,1731.4000000000233,2,0,1,23945,task1,680739,false,false,892,image-keyboard-response,32
true,7,0,2,0,true,q,false,false,0.0-2.0-0.30-0.270-3.270,0,0,0,81,false,stim,false,1,874.8000000000466,2,0,0,23945,task1,683134,false,true,895,image-keyboard-response,33
true,7,2,2,2,true,d,false,true,0.0-2.0-0.30-0.271-3.271,0,0,0,68,false,stim,false,0,1063.8000000000466,2,0,1,23945,task1,685710,false,false,898,image-keyboard-response,34
true,7,0,2,2,false,d,false,false,0.0-2.0-0.30-0.272-3.272,0,0,0,81,false,stim,true,0,723.6999999999534,2,0,2,23945,task1,687952,false,false,901,image-keyboard-response,35
true,7,2,2,0,false,q,true,false,0.0-2.0-0.30-0.273-3.273,0,0,0,68,false,stim,false,1,2080.3000000000466,2,0,0,23945,task1,691556,false,false,904,image-keyboard-response,36
true,7,2,2,2,true,d,false,true,0.0-2.0-0.30-0.274-3.274,0,0,0,68,false,stim,false,0,981.6999999999534,2,0,1,23945,task1,694056,false,false,907,image-keyboard-response,37
true,7,2,2,2,true,d,false,true,0.0-2.0-0.30-0.275-3.275,0,0,0,68,false,stim,false,0,2124.9000000000233,2,0,2,23945,task1,697700,false,false,910,image-keyboard-response,38
true,7,2,2,2,true,d,false,true,0.0-2.0-0.30-0.276-3.276,0,0,0,68,false,stim,false,0,835.4000000000233,2,0,2,23945,task1,700069,false,false,913,image-keyboard-response,39
true,7,2,2,2,true,d,false,true,0.0-2.0-0.30-0.277-3.277,0,0,0,68,false,stim,false,0,1919.0,2,0,1,23945,task1,703509,false,false,916,image-keyboard-response,40
true,7,0,2,0,true,q,false,true,0.0-2.0-0.30-0.278-3.278,0,0,0,81,false,stim,false,1,1615.9000000000233,2,0,0,23945,task1,706644,false,false,919,image-keyboard-response,41
true,7,2,2,2,true,d,false,true,0.0-2.0-0.31-0.279-3.279,0,0,0,68,false,stim,false,0,1094.8000000000466,2,0,1,23945,task1,709251,false,false,922,image-keyboard-response,42
true,7,0,2,0,true,q,false,false,0.0-2.0-0.31-0.280-3.280,0,0,0,81,false,stim,false,1,876.8000000000466,2,0,0,23945,task1,711643,false,true,925,image-keyboard-response,43
true,8,2,2,0,false,q,false,false,0.0-2.0-0.31-0.281-3.281,0,0,0,68,true,stim,true,2,1080.5,2,0,1,23945,task1,714240,false,false,928,image-keyboard-response,1
true,8,0,2,2,false,d,false,false,0.0-2.0-0.31-0.282-3.282,0,0,0,81,false,stim,true,0,1976.5999999999767,2,0,0,23945,task1,717731,false,false,931,image-keyboard-response,2
true,8,2,2,0,false,q,false,false,0.0-2.0-0.31-0.283-3.283,0,0,0,68,false,stim,true,2,1215.7999999999302,2,0,2,23945,task1,720460,false,false,934,image-keyboard-response,3
true,8,1,2,0,false,q,true,true,0.0-2.0-0.31-0.284-3.284,0,0,0,90,false,stim,false,2,537.7000000000698,2,0,2,23945,task1,722529,false,true,937,image-keyboard-response,4
true,8,1,2,0,false,q,true,false,0.0-2.0-0.31-0.285-3.285,0,0,0,90,false,stim,false,2,416.0,2,0,2,23945,task1,724468,false,false,940,image-keyboard-response,5
true,8,1,2,0,false,q,true,false,0.0-2.0-0.31-0.286-3.286,0,0,0,90,false,stim,false,2,752.0,2,0,1,23945,task1,726747,false,false,943,image-keyboard-response,6
true,8,0,2,2,false,d,false,false,0.0-2.0-0.31-0.287-3.287,0,0,0,81,false,stim,true,0,589.9000000000233,2,0,0,23945,task1,728869,false,false,946,image-keyboard-response,7
true,8,2,2,2,true,d,false,false,0.0-2.0-0.32-0.288-3.288,0,0,0,68,false,stim,false,0,438.0,2,0,0,23945,task1,730823,false,true,949,image-keyboard-response,8
true,8,1,2,0,false,q,true,false,0.0-2.0-0.32-0.289-3.289,0,0,0,90,false,stim,false,2,870.9000000000233,2,0,2,23945,task1,733220,false,false,952,image-keyboard-response,9
true,8,1,2,2,false,d,true,true,0.0-2.0-0.32-0.290-3.290,0,0,0,90,false,stim,false,0,306.19999999995343,2,0,0,23945,task1,735050,false,true,955,image-keyboard-response,10
true,8,0,2,0,true,q,false,true,0.0-2.0-0.32-0.291-3.291,0,0,0,81,false,stim,false,2,558.6999999999534,2,0,2,23945,task1,737120,false,false,958,image-keyboard-response,11
true,8,2,2,0,false,q,false,false,0.0-2.0-0.32-0.292-3.292,0,0,0,68,false,stim,true,2,332.5999999999767,2,0,1,23945,task1,738967,false,false,961,image-keyboard-response,12
true,8,1,2,0,false,q,true,false,0.0-2.0-0.32-0.293-3.293,0,0,0,90,false,stim,false,2,451.5999999999767,2,0,2,23945,task1,740938,false,false,964,image-keyboard-response,13
true,8,0,2,0,true,q,false,false,0.0-2.0-0.32-0.294-3.294,0,0,0,81,false,stim,false,2,301.20000000006985,2,0,1,23945,task1,742751,false,true,967,image-keyboard-response,14
true,8,1,2,0,false,q,true,false,0.0-2.0-0.32-0.295-3.295,0,0,0,90,false,stim,false,2,354.4000000000233,2,0,1,23945,task1,744624,false,false,970,image-keyboard-response,15
true,8,0,2,2,false,d,false,false,0.0-2.0-0.32-0.296-3.296,0,0,0,81,false,stim,true,0,1116.1999999999534,2,0,0,23945,task1,747251,false,false,973,image-keyboard-response,16
true,8,2,2,0,false,q,false,false,0.0-2.0-0.33-0.297-3.297,0,0,0,68,false,stim,true,2,1454.1999999999534,2,0,1,23945,task1,750228,false,false,976,image-keyboard-response,17
true,8,1,2,2,false,d,true,false,0.0-2.0-0.33-0.298-3.298,0,0,0,90,false,stim,false,0,2736.8000000000466,2,0,0,23945,task1,754481,false,false,979,image-keyboard-response,18
true,8,2,2,2,true,d,false,true,0.0-2.0-0.33-0.299-3.299,0,0,0,68,false,stim,false,0,396.69999999995343,2,0,0,23945,task1,756412,false,false,982,image-keyboard-response,19
true,8,0,2,0,true,q,false,true,0.0-2.0-0.33-0.300-3.300,0,0,0,81,false,stim,false,2,964.5999999999767,2,0,1,23945,task1,758892,false,false,985,image-keyboard-response,20
true,8,0,2,0,true,q,false,true,0.0-2.0-0.33-0.301-3.301,0,0,0,81,false,stim,false,2,474.5,2,0,1,23945,task1,760888,false,false,988,image-keyboard-response,21
true,8,2,2,2,true,d,false,true,0.0-2.0-0.33-0.302-3.302,0,0,0,68,false,stim,false,0,568.5,2,0,0,23945,task1,762974,false,false,991,image-keyboard-response,22
true,8,1,2,0,false,q,true,true,0.0-2.0-0.33-0.303-3.303,0,0,0,90,false,stim,false,2,399.5,2,0,2,23945,task1,764887,false,true,994,image-keyboard-response,23
true,8,0,2,0,true,q,false,true,0.0-2.0-0.33-0.304-3.304,0,0,0,81,false,stim,false,2,2331.0999999999767,2,0,2,23945,task1,768736,false,false,997,image-keyboard-response,24
true,8,0,2,0,true,q,false,true,0.0-2.0-0.33-0.305-3.305,0,0,0,81,false,stim,false,2,463.5999999999767,2,0,2,23945,task1,770714,false,false,1000,image-keyboard-response,25
true,8,2,2,2,true,d,false,true,0.0-2.0-0.34-0.306-3.306,0,0,0,68,false,stim,false,0,523.1000000000931,2,0,0,23945,task1,772762,false,false,1003,image-keyboard-response,26
true,8,2,2,2,true,d,false,true,0.0-2.0-0.34-0.307-3.307,0,0,0,68,false,stim,false,0,442.5,2,0,0,23945,task1,774726,false,false,1006,image-keyboard-response,27
true,8,1,2,0,false,q,true,false,0.0-2.0-0.34-0.308-3.308,0,0,0,90,false,stim,false,2,550.0999999999767,2,0,1,23945,task1,776790,false,false,1009,image-keyboard-response,28
true,8,2,2,2,true,d,false,true,0.0-2.0-0.34-0.309-3.309,0,0,0,68,false,stim,false,0,608.7999999999302,2,0,0,23945,task1,778923,false,false,1012,image-keyboard-response,29
true,8,1,2,0,false,q,true,false,0.0-2.0-0.34-0.310-3.310,0,0,0,90,false,stim,false,2,405.19999999995343,2,0,2,23945,task1,780839,false,false,1015,image-keyboard-response,30
true,8,0,2,0,true,q,false,true,0.0-2.0-0.34-0.311-3.311,0,0,0,81,false,stim,false,2,525.6999999999534,2,0,1,23945,task1,782877,false,false,1018,image-keyboard-response,31
true,8,0,2,0,true,q,false,true,0.0-2.0-0.34-0.312-3.312,0,0,0,81,false,stim,false,2,349.19999999995343,2,0,2,23945,task1,784740,false,false,1021,image-keyboard-response,32
true,8,0,2,0,true,q,false,true,0.0-2.0-0.34-0.313-3.313,0,0,0,81,false,stim,false,2,773.5,2,0,1,23945,task1,787035,false,false,1024,image-keyboard-response,33
true,8,0,2,0,true,q,false,true,0.0-2.0-0.34-0.314-3.314,0,0,0,81,false,stim,false,2,618.0,2,0,2,23945,task1,789170,false,false,1027,image-keyboard-response,34
true,8,2,2,2,true,d,false,true,0.0-2.0-0.35-0.315-3.315,0,0,0,68,false,stim,false,0,523.3999999999069,2,0,0,23945,task1,791216,false,false,1030,image-keyboard-response,35
true,8,2,2,2,true,d,false,true,0.0-2.0-0.35-0.316-3.316,0,0,0,68,false,stim,false,0,564.0,2,0,0,23945,task1,793299,false,false,1033,image-keyboard-response,36
true,8,0,2,0,true,q,false,true,0.0-2.0-0.35-0.317-3.317,0,0,0,81,false,stim,false,2,435.89999999990687,2,0,1,23945,task1,795254,false,false,1036,image-keyboard-response,37
true,8,1,2,0,false,q,true,false,0.0-2.0-0.35-0.318-3.318,0,0,0,90,false,stim,false,2,581.1999999999534,2,0,2,23945,task1,797347,false,false,1039,image-keyboard-response,38
true,8,0,2,0,true,q,false,true,0.0-2.0-0.35-0.319-3.319,0,0,0,81,false,stim,false,2,478.4000000000233,2,0,1,23945,task1,799351,false,false,1042,image-keyboard-response,39
true,8,2,2,2,true,d,false,true,0.0-2.0-0.35-0.320-3.320,0,0,0,68,false,stim,false,0,596.1999999999534,2,0,0,23945,task1,801471,false,false,1045,image-keyboard-response,40
true,8,0,2,0,true,q,false,true,0.0-2.0-0.35-0.321-3.321,0,0,0,81,false,stim,false,2,649.0,2,0,1,23945,task1,803632,false,false,1048,image-keyboard-response,41
true,9,0,1,1,false,z,false,false,0.0-2.0-0.35-0.322-3.322,0,0,0,81,true,stim,true,0,420.5,2,0,2,23945,task1,805569,false,false,1051,image-keyboard-response,1
true,9,0,1,1,false,z,false,false,0.0-2.0-0.35-0.323-3.323,0,0,0,81,false,stim,true,0,326.0999999999767,2,0,2,23945,task1,807419,false,false,1054,image-keyboard-response,2
true,9,0,1,1,false,z,false,false,0.0-2.0-0.36-0.324-3.324,0,0,0,81,false,stim,true,0,760.0999999999767,2,0,1,23945,task1,809692,false,false,1057,image-keyboard-response,3
true,9,2,1,1,false,z,true,false,0.0-2.0-0.36-0.325-3.325,0,0,0,68,false,stim,false,0,1177.1999999999534,2,0,1,23945,task1,812393,false,false,1060,image-keyboard-response,4
true,9,1,1,1,true,z,false,true,0.0-2.0-0.36-0.326-3.326,0,0,0,90,false,stim,false,0,731.7999999999302,2,0,2,23945,task1,814643,false,false,1063,image-keyboard-response,5
true,9,1,1,1,true,z,false,false,0.0-2.0-0.36-0.327-3.327,0,0,0,90,false,stim,false,0,419.70000000006985,2,0,2,23945,task1,816595,false,true,1066,image-keyboard-response,6
true,9,1,1,1,true,z,false,true,0.0-2.0-0.36-0.328-3.328,0,0,0,90,false,stim,false,0,981.9000000000233,2,0,1,23945,task1,819090,false,false,1069,image-keyboard-response,7
true,9,1,1,1,true,z,false,true,0.0-2.0-0.36-0.329-3.329,0,0,0,90,false,stim,false,0,452.9000000000233,2,0,2,23945,task1,821065,false,false,1072,image-keyboard-response,8
true,9,2,1,0,false,q,false,false,0.0-2.0-0.36-0.330-3.330,0,0,0,68,false,stim,true,2,414.0,2,0,0,23945,task1,822992,false,false,1075,image-keyboard-response,9
true,9,1,1,0,false,q,true,false,0.0-2.0-0.36-0.331-3.331,0,0,0,90,false,stim,false,2,684.0,2,0,0,23945,task1,825195,false,false,1078,image-keyboard-response,10
true,9,0,1,0,true,q,false,true,0.0-2.0-0.36-0.332-3.332,0,0,0,81,false,stim,false,2,520.2999999999302,2,0,0,23945,task1,827229,false,false,1081,image-keyboard-response,11
true,9,1,1,1,true,z,false,true,0.0-2.0-0.37-0.333-3.333,0,0,0,90,false,stim,false,0,481.5999999999767,2,0,1,23945,task1,829228,false,false,1084,image-keyboard-response,12
true,9,1,1,1,true,z,false,true,0.0-2.0-0.37-0.334-3.334,0,0,0,90,false,stim,false,0,365.79999999993015,2,0,1,23945,task1,831108,false,false,1087,image-keyboard-response,13
true,9,0,1,0,true,q,false,true,0.0-2.0-0.37-0.335-3.335,0,0,0,81,false,stim,false,2,803.3999999999069,2,0,0,23945,task1,833427,false,false,1090,image-keyboard-response,14
true,9,1,1,1,true,z,false,true,0.0-2.0-0.37-0.336-3.336,0,0,0,90,false,stim,false,0,905.4000000000233,2,0,1,23945,task1,835843,false,false,1093,image-keyboard-response,15
true,9,1,1,1,true,z,false,true,0.0-2.0-0.37-0.337-3.337,0,0,0,90,false,stim,false,0,669.7999999999302,2,0,2,23945,task1,838029,false,false,1096,image-keyboard-response,16
true,9,0,1,0,true,q,false,true,0.0-2.0-0.37-0.338-3.338,0,0,0,81,false,stim,false,2,684.8000000000466,2,0,0,23945,task1,840232,false,false,1099,image-keyboard-response,17
true,9,1,1,1,true,z,false,false,0.0-2.0-0.37-0.339-3.339,0,0,0,90,false,stim,false,0,495.69999999995343,2,0,2,23945,task1,842253,false,true,1102,image-keyboard-response,18
true,9,0,1,0,true,q,false,true,0.0-2.0-0.37-0.340-3.340,0,0,0,81,false,stim,false,2,908.5,2,0,0,23945,task1,844674,false,false,1105,image-keyboard-response,19
true,9,1,1,1,true,z,false,true,0.0-2.0-0.37-0.341-3.341,0,0,0,90,false,stim,false,0,686.8000000000466,2,0,2,23945,task1,846874,false,false,1108,image-keyboard-response,20
true,9,1,1,1,true,z,false,false,0.0-2.0-0.38-0.342-3.342,0,0,0,90,false,stim,false,0,1022.0,2,0,1,23945,task1,849410,false,true,1111,image-keyboard-response,21
true,9,1,1,1,true,z,false,true,0.0-2.0-0.38-0.343-3.343,0,0,0,90,false,stim,false,0,508.60000000009313,2,0,1,23945,task1,851429,false,false,1114,image-keyboard-response,22
true,9,1,1,1,true,z,false,true,0.0-2.0-0.38-0.344-3.344,0,0,0,90,false,stim,false,0,833.4000000000233,2,0,2,23945,task1,853780,false,false,1117,image-keyboard-response,23
true,9,0,1,0,true,q,false,true,0.0-2.0-0.38-0.345-3.345,0,0,0,81,false,stim,false,2,1651.8000000000466,2,0,0,23945,task1,856945,false,false,1120,image-keyboard-response,24
true,9,0,1,0,true,q,false,true,0.0-2.0-0.38-0.346-3.346,0,0,0,81,false,stim,false,2,582.8000000000466,2,0,0,23945,task1,859047,false,false,1123,image-keyboard-response,25
true,9,1,1,1,true,z,false,false,0.0-2.0-0.38-0.347-3.347,0,0,0,90,false,stim,false,0,755.5999999999767,2,0,2,23945,task1,861325,false,true,1126,image-keyboard-response,26
true,9,1,1,1,true,z,false,true,0.0-2.0-0.38-0.348-3.348,0,0,0,90,false,stim,false,0,659.0999999999767,2,0,2,23945,task1,863495,false,false,1129,image-keyboard-response,27
true,9,1,1,1,true,z,false,true,0.0-2.0-0.38-0.349-3.349,0,0,0,90,false,stim,false,0,642.5999999999767,2,0,1,23945,task1,865649,false,false,1132,image-keyboard-response,28
true,9,0,1,0,true,q,false,true,0.0-2.0-0.38-0.350-3.350,0,0,0,81,false,stim,false,2,382.60000000009313,2,0,0,23945,task1,867542,false,false,1135,image-keyboard-response,29
true,9,1,1,1,true,z,false,true,0.0-2.0-0.39-0.351-3.351,0,0,0,90,false,stim,false,0,1395.8000000000466,2,0,2,23945,task1,870455,false,false,1138,image-keyboard-response,30
true,9,1,1,1,true,z,false,true,0.0-2.0-0.39-0.352-3.352,0,0,0,90,false,stim,false,0,2493.100000000093,2,0,2,23945,task1,874471,false,false,1141,image-keyboard-response,31
true,9,0,1,0,true,q,false,false,0.0-2.0-0.39-0.353-3.353,0,0,0,81,false,stim,false,2,1268.4000000000233,2,0,0,23945,task1,877251,false,true,1144,image-keyboard-response,32
true,9,1,1,1,true,z,false,false,0.0-2.0-0.39-0.354-3.354,0,0,0,90,false,stim,false,0,2477.0,2,0,1,23945,task1,881247,false,true,1147,image-keyboard-response,33
true,9,1,1,1,true,z,false,true,0.0-2.0-0.39-0.355-3.355,0,0,0,90,false,stim,false,0,687.6999999999534,2,0,2,23945,task1,883451,false,false,1150,image-keyboard-response,34
true,9,2,1,1,false,z,true,false,0.0-2.0-0.39-0.356-3.356,0,0,0,68,false,stim,false,0,1432.0,2,0,1,23945,task1,886395,false,false,1153,image-keyboard-response,35
true,9,0,1,0,true,q,false,true,0.0-2.0-0.39-0.357-3.357,0,0,0,81,false,stim,false,2,1666.6999999999534,2,0,0,23945,task1,889574,false,false,1156,image-keyboard-response,36
true,9,0,1,0,true,q,false,false,0.0-2.0-0.39-0.358-3.358,0,0,0,81,false,stim,false,2,554.0,2,0,0,23945,task1,891647,false,true,1159,image-keyboard-response,37
true,9,0,1,1,false,z,false,false,0.0-2.0-0.39-0.359-3.359,0,0,0,81,false,stim,true,0,994.1999999999534,2,0,1,23945,task1,894162,false,false,1162,image-keyboard-response,38
true,9,2,1,1,false,z,true,false,0.0-2.0-0.40-0.360-3.360,0,0,0,68,false,stim,false,0,752.7999999999302,2,0,1,23945,task1,896438,false,false,1165,image-keyboard-response,39
true,9,1,1,1,true,z,false,true,0.0-2.0-0.40-0.361-3.361,0,0,0,90,false,stim,false,0,1762.6999999999534,2,0,2,23945,task1,899710,false,false,1168,image-keyboard-response,40
true,9,0,1,1,false,z,false,false,0.0-2.0-0.40-0.362-3.362,0,0,0,81,false,stim,true,0,1387.9000000000233,2,0,1,23945,task1,902619,false,false,1171,image-keyboard-response,41
true,9,2,1,0,false,q,false,false,0.0-2.0-0.40-0.363-3.363,0,0,0,68,false,stim,true,2,1537.1999999999534,2,0,0,23945,task1,905681,false,false,1174,image-keyboard-response,42
true,9,1,1,1,true,z,false,true,0.0-2.0-0.40-0.364-3.364,0,0,0,90,false,stim,false,0,2248.0999999999767,2,0,1,23945,task1,909444,false,false,1177,image-keyboard-response,43
true,9,1,1,1,true,z,false,true,0.0-2.0-0.40-0.365-3.365,0,0,0,90,false,stim,false,0,545.5999999999767,2,0,2,23945,task1,911514,false,false,1180,image-keyboard-response,44
true,10,0,2,2,false,d,false,false,0.0-2.0-0.40-0.366-3.366,0,0,0,81,true,stim,true,0,399.9000000000233,2,0,0,23945,task1,913435,false,false,1183,image-keyboard-response,1
true,10,1,2,0,false,q,false,false,0.0-2.0-0.40-0.367-3.367,0,0,0,90,false,stim,true,1,608.3000000000466,2,0,2,23945,task1,915555,false,false,1186,image-keyboard-response,2
true,10,1,2,2,false,d,true,false,0.0-2.0-0.40-0.368-3.368,0,0,0,90,false,stim,false,0,352.5,2,0,0,23945,task1,917433,false,false,1189,image-keyboard-response,3
true,10,1,2,0,false,q,false,false,0.0-2.0-0.41-0.369-3.369,0,0,0,90,false,stim,true,1,563.7000000000698,2,0,2,23945,task1,919512,false,false,1192,image-keyboard-response,4
true,10,2,2,0,false,q,true,false,0.0-2.0-0.41-0.370-3.370,0,0,0,68,false,stim,false,1,419.89999999990687,2,0,1,23945,task1,921452,false,false,1195,image-keyboard-response,5
true,10,2,2,2,true,d,false,false,0.0-2.0-0.41-0.371-3.371,0,0,0,68,false,stim,false,0,612.7000000000698,2,0,0,23945,task1,923575,false,true,1198,image-keyboard-response,6
true,10,0,2,0,true,q,false,false,0.0-2.0-0.41-0.372-3.372,0,0,0,81,false,stim,false,1,1527.2000000000698,2,0,2,23945,task1,926632,false,true,1201,image-keyboard-response,7
true,10,2,2,2,true,d,false,true,0.0-2.0-0.41-0.373-3.373,0,0,0,68,false,stim,false,0,880.3000000000466,2,0,0,23945,task1,929026,false,false,1204,image-keyboard-response,8
true,10,1,2,0,false,q,false,false,0.0-2.0-0.41-0.374-3.374,0,0,0,90,false,stim,true,1,605.0,2,0,1,23945,task1,931152,false,false,1207,image-keyboard-response,9
true,10,1,2,0,false,q,false,false,0.0-2.0-0.41-0.375-3.375,0,0,0,90,false,stim,true,1,416.10000000009313,2,0,2,23945,task1,933085,false,false,1210,image-keyboard-response,10
true,10,2,2,2,true,d,false,false,0.0-2.0-0.41-0.376-3.376,0,0,0,68,false,stim,false,0,402.19999999995343,2,0,0,23945,task1,935004,false,true,1213,image-keyboard-response,11
true,10,0,2,0,true,q,false,true,0.0-2.0-0.41-0.377-3.377,0,0,0,81,false,stim,false,1,1347.5,2,0,1,23945,task1,937868,false,false,1216,image-keyboard-response,12
true,10,0,2,0,true,q,false,true,0.0-2.0-0.42-0.378-3.378,0,0,0,81,false,stim,false,1,384.60000000009313,2,0,2,23945,task1,939767,false,false,1219,image-keyboard-response,13
true,10,0,2,0,true,q,false,true,0.0-2.0-0.42-0.379-3.379,0,0,0,81,false,stim,false,1,671.1999999999534,2,0,1,23945,task1,941959,false,false,1222,image-keyboard-response,14
true,10,1,2,2,false,d,true,false,0.0-2.0-0.42-0.380-3.380,0,0,0,90,false,stim,false,0,752.1999999999534,2,0,0,23945,task1,944224,false,false,1225,image-keyboard-response,15
true,10,0,2,0,true,q,false,false,0.0-2.0-0.42-0.381-3.381,0,0,0,81,false,stim,false,1,657.0,2,0,1,23945,task1,946396,false,true,1228,image-keyboard-response,16
true,10,0,2,0,true,q,false,true,0.0-2.0-0.42-0.382-3.382,0,0,0,81,false,stim,false,1,468.19999999995343,2,0,2,23945,task1,948376,false,false,1231,image-keyboard-response,17
true,10,0,2,0,true,q,false,true,0.0-2.0-0.42-0.383-3.383,0,0,0,81,false,stim,false,1,414.0,2,0,1,23945,task1,950313,false,false,1234,image-keyboard-response,18
true,10,0,2,0,true,q,false,true,0.0-2.0-0.42-0.384-3.384,0,0,0,81,false,stim,false,1,1179.1000000000931,2,0,2,23945,task1,953012,false,false,1237,image-keyboard-response,19
true,10,1,2,2,false,d,true,false,0.0-2.0-0.42-0.385-3.385,0,0,0,90,false,stim,false,0,1670.0,2,0,0,23945,task1,956200,false,false,1240,image-keyboard-response,20
true,10,2,2,2,true,d,false,true,0.0-2.0-0.42-0.386-3.386,0,0,0,68,false,stim,false,0,362.80000000004657,2,0,0,23945,task1,958075,false,false,1243,image-keyboard-response,21
true,10,2,2,2,true,d,false,false,0.0-2.0-0.43-0.387-3.387,0,0,0,68,false,stim,false,0,637.0,2,0,0,23945,task1,960232,false,true,1246,image-keyboard-response,22
true,10,2,2,2,true,d,false,true,0.0-2.0-0.43-0.388-3.388,0,0,0,68,false,stim,false,0,479.69999999995343,2,0,0,23945,task1,962234,false,false,1249,image-keyboard-response,23
true,10,0,2,0,true,q,false,true,0.0-2.0-0.43-0.389-3.389,0,0,0,81,false,stim,false,1,648.8999999999069,2,0,2,23945,task1,964412,false,false,1252,image-keyboard-response,24
true,10,0,2,0,true,q,false,true,0.0-2.0-0.43-0.390-3.390,0,0,0,81,false,stim,false,1,453.5,2,0,1,23945,task1,966385,false,false,1255,image-keyboard-response,25
true,10,0,2,0,true,q,false,true,0.0-2.0-0.43-0.391-3.391,0,0,0,81,false,stim,false,1,981.5,2,0,2,23945,task1,968880,false,false,1258,image-keyboard-response,26
true,10,0,2,0,true,q,false,true,0.0-2.0-0.43-0.392-3.392,0,0,0,81,false,stim,false,1,740.3000000000466,2,0,1,23945,task1,971145,false,false,1261,image-keyboard-response,27
true,10,0,2,2,false,d,false,false,0.0-2.0-0.43-0.393-3.393,0,0,0,81,false,stim,true,0,1447.0,2,0,0,23945,task1,974107,false,false,1264,image-keyboard-response,28
true,10,0,2,0,true,q,false,false,0.0-2.0-0.43-0.394-3.394,0,0,0,81,false,stim,false,1,611.5999999998603,2,0,2,23945,task1,976244,false,true,1267,image-keyboard-response,29
true,10,0,2,0,true,q,false,true,0.0-2.0-0.43-0.395-3.395,0,0,0,81,false,stim,false,1,527.3999999999069,2,0,1,23945,task1,978297,false,false,1270,image-keyboard-response,30
true,10,2,2,2,true,d,false,true,0.0-2.0-0.44-0.396-3.396,0,0,0,68,false,stim,false,0,807.0,2,0,0,23945,task1,980615,false,false,1273,image-keyboard-response,31
true,10,0,2,0,true,q,false,true,0.0-2.0-0.44-0.397-3.397,0,0,0,81,false,stim,false,1,765.3000000000466,2,0,1,23945,task1,982903,false,false,1276,image-keyboard-response,32
true,10,0,2,0,true,q,false,true,0.0-2.0-0.44-0.398-3.398,0,0,0,81,false,stim,false,1,441.19999999995343,2,0,2,23945,task1,984863,false,false,1279,image-keyboard-response,33
true,10,0,2,0,true,q,false,true,0.0-2.0-0.44-0.399-3.399,0,0,0,81,false,stim,false,1,526.5,2,0,1,23945,task1,986908,false,false,1282,image-keyboard-response,34
true,10,0,2,0,true,q,false,true,0.0-2.0-0.44-0.400-3.400,0,0,0,81,false,stim,false,1,554.8000000000466,2,0,2,23945,task1,988977,false,false,1285,image-keyboard-response,35
true,10,0,2,0,true,q,false,false,0.0-2.0-0.44-0.401-3.401,0,0,0,81,false,stim,false,1,567.8000000000466,2,0,2,23945,task1,991061,false,true,1288,image-keyboard-response,36
true,10,2,2,2,true,d,false,true,0.0-2.0-0.44-0.402-3.402,0,0,0,68,false,stim,false,0,649.1999999999534,2,0,0,23945,task1,993236,false,false,1291,image-keyboard-response,37
true,10,2,2,2,true,d,false,true,0.0-2.0-0.44-0.403-3.403,0,0,0,68,false,stim,false,0,1991.3999999999069,2,0,0,23945,task1,996756,false,false,1294,image-keyboard-response,38
true,10,0,2,0,true,q,false,true,0.0-2.0-0.44-0.404-3.404,0,0,0,81,false,stim,false,1,736.3000000000466,2,0,1,23945,task1,999015,false,false,1297,image-keyboard-response,39
true,10,0,2,0,true,q,false,true,0.0-2.0-0.45-0.405-3.405,0,0,0,81,false,stim,false,1,625.1999999999534,2,0,1,23945,task1,1001166,false,false,1300,image-keyboard-response,40
true,10,0,2,0,true,q,false,true,0.0-2.0-0.45-0.406-3.406,0,0,0,81,false,stim,false,1,1248.0,2,0,2,23945,task1,1003945,false,false,1303,image-keyboard-response,41
true,10,0,2,0,true,q,false,true,0.0-2.0-0.45-0.407-3.407,0,0,0,81,false,stim,false,1,458.30000000004657,2,0,1,23945,task1,1005920,false,false,1306,image-keyboard-response,42
true,10,2,2,2,true,d,false,true,0.0-2.0-0.45-0.408-3.408,0,0,0,68,false,stim,false,0,727.1999999999534,2,0,0,23945,task1,1008170,false,false,1309,image-keyboard-response,43
true,10,2,2,2,true,d,false,true,0.0-2.0-0.45-0.409-3.409,0,0,0,68,false,stim,false,0,597.3999999999069,2,0,0,23945,task1,1010280,false,false,1312,image-keyboard-response,44
true,10,0,2,0,true,q,false,true,0.0-2.0-0.45-0.410-3.410,0,0,0,81,false,stim,false,1,557.3999999999069,2,0,2,23945,task1,1012361,false,false,1315,image-keyboard-response,45
true,11,0,2,2,false,d,false,false,0.0-2.0-0.45-0.411-3.411,0,0,0,81,true,stim,true,0,625.2000000001863,2,0,2,23945,task1,1014502,false,false,1318,image-keyboard-response,1
true,11,0,2,2,false,d,false,false,0.0-2.0-0.45-0.412-3.412,0,0,0,81,false,stim,true,0,630.4000000001397,2,0,1,23945,task1,1016649,false,false,1321,image-keyboard-response,2
true,11,2,2,0,false,q,false,false,0.0-2.0-0.45-0.413-3.413,0,0,0,68,false,stim,true,2,955.6999999999534,2,0,0,23945,task1,1019128,false,false,1324,image-keyboard-response,3
true,11,1,2,2,false,d,true,false,0.0-2.0-0.46-0.414-3.414,0,0,0,90,false,stim,false,0,757.3000000000466,2,0,1,23945,task1,1021405,false,false,1327,image-keyboard-response,4
true,11,0,2,0,true,q,false,true,0.0-2.0-0.46-0.415-3.415,0,0,0,81,false,stim,false,2,757.7000000001863,2,0,0,23945,task1,1023687,false,false,1330,image-keyboard-response,5
true,11,2,2,2,true,d,false,true,0.0-2.0-0.46-0.416-3.416,0,0,0,68,false,stim,false,0,576.7000000001863,2,0,2,23945,task1,1025774,false,false,1333,image-keyboard-response,6
true,11,2,2,2,true,d,false,true,0.0-2.0-0.46-0.417-3.417,0,0,0,68,false,stim,false,0,383.0,2,0,1,23945,task1,1027678,false,false,1336,image-keyboard-response,7
true,11,2,2,2,true,d,false,true,0.0-2.0-0.46-0.418-3.418,0,0,0,68,false,stim,false,0,677.8000000000466,2,0,2,23945,task1,1029875,false,false,1339,image-keyboard-response,8
true,11,0,2,0,true,q,false,true,0.0-2.0-0.46-0.419-3.419,0,0,0,81,false,stim,false,2,962.8000000000466,2,0,0,23945,task1,1032354,false,false,1342,image-keyboard-response,9
true,11,2,2,2,true,d,false,false,0.0-2.0-0.46-0.420-3.420,0,0,0,68,false,stim,false,0,500.5,2,0,2,23945,task1,1034379,false,true,1345,image-keyboard-response,10
true,11,0,2,0,true,q,false,false,0.0-2.0-0.46-0.421-3.421,0,0,0,81,false,stim,false,2,827.7999999998137,2,0,0,23945,task1,1036723,false,true,1348,image-keyboard-response,11
true,11,0,2,2,false,d,false,false,0.0-2.0-0.46-0.422-3.422,0,0,0,81,false,stim,true,0,655.5,2,0,1,23945,task1,1038901,false,false,1351,image-keyboard-response,12
true,11,0,2,0,true,q,false,true,0.0-2.0-0.47-0.423-3.423,0,0,0,81,false,stim,false,2,672.8999999999069,2,0,0,23945,task1,1041088,false,false,1354,image-keyboard-response,13
true,11,0,2,0,true,q,false,true,0.0-2.0-0.47-0.424-3.424,0,0,0,81,false,stim,false,2,612.3999999999069,2,0,0,23945,task1,1043221,false,false,1357,image-keyboard-response,14
true,11,1,2,2,false,d,true,false,0.0-2.0-0.47-0.425-3.425,0,0,0,90,false,stim,false,0,467.19999999995343,2,0,2,23945,task1,1045205,false,false,1360,image-keyboard-response,15
true,11,2,2,2,true,d,false,true,0.0-2.0-0.47-0.426-3.426,0,0,0,68,false,stim,false,0,641.3999999999069,2,0,1,23945,task1,1047357,false,false,1363,image-keyboard-response,16
true,11,0,2,2,false,d,false,false,0.0-2.0-0.47-0.427-3.427,0,0,0,81,false,stim,true,0,377.5,2,0,2,23945,task1,1049249,false,false,1366,image-keyboard-response,17
true,11,0,2,0,true,q,false,true,0.0-2.0-0.47-0.428-3.428,0,0,0,81,false,stim,false,2,580.0999999998603,2,0,0,23945,task1,1051354,false,false,1369,image-keyboard-response,18
true,11,2,2,2,true,d,false,true,0.0-2.0-0.47-0.429-3.429,0,0,0,68,false,stim,false,0,365.39999999990687,2,0,2,23945,task1,1053243,false,false,1372,image-keyboard-response,19
true,11,2,2,2,true,d,false,true,0.0-2.0-0.47-0.430-3.430,0,0,0,68,false,stim,false,0,590.4000000001397,2,0,1,23945,task1,1055353,false,false,1375,image-keyboard-response,20
true,11,2,2,2,true,d,false,false,0.0-2.0-0.47-0.431-3.431,0,0,0,68,false,stim,false,0,431.4000000001397,2,0,1,23945,task1,1057302,false,true,1378,image-keyboard-response,21
true,11,2,2,2,true,d,false,true,0.0-2.0-0.48-0.432-3.432,0,0,0,68,false,stim,false,0,1215.3000000000466,2,0,2,23945,task1,1060031,false,false,1381,image-keyboard-response,22
true,11,2,2,2,true,d,false,true,0.0-2.0-0.48-0.433-3.433,0,0,0,68,false,stim,false,0,417.69999999995343,2,0,1,23945,task1,1061972,false,false,1384,image-keyboard-response,23
true,11,2,2,2,true,d,false,true,0.0-2.0-0.48-0.434-3.434,0,0,0,68,false,stim,false,0,541.5,2,0,2,23945,task1,1064040,false,false,1387,image-keyboard-response,24
true,11,0,2,0,true,q,false,true,0.0-2.0-0.48-0.435-3.435,0,0,0,81,false,stim,false,2,580.1999999999534,2,0,0,23945,task1,1066140,false,false,1390,image-keyboard-response,25
true,11,0,2,0,true,q,false,true,0.0-2.0-0.48-0.436-3.436,0,0,0,81,false,stim,false,2,556.0,2,0,0,23945,task1,1068232,false,false,1393,image-keyboard-response,26
true,11,0,2,0,true,q,false,true,0.0-2.0-0.48-0.437-3.437,0,0,0,81,false,stim,false,2,488.69999999995343,2,0,0,23945,task1,1070232,false,false,1396,image-keyboard-response,27
true,11,2,2,2,true,d,false,false,0.0-2.0-0.48-0.438-3.438,0,0,0,68,false,stim,false,0,779.2000000001863,2,0,1,23945,task1,1072525,false,true,1399,image-keyboard-response,28
true,11,2,2,2,true,d,false,false,0.0-2.0-0.48-0.439-3.439,0,0,0,68,false,stim,false,0,735.9000000001397,2,0,2,23945,task1,1074787,false,true,1402,image-keyboard-response,29
true,11,1,2,2,false,d,true,false,0.0-2.0-0.48-0.440-3.440,0,0,0,90,false,stim,false,0,967.1999999999534,2,0,1,23945,task1,1077273,false,false,1405,image-keyboard-response,30
true,11,0,2,2,false,d,false,false,0.0-2.0-0.49-0.441-3.441,0,0,0,81,false,stim,true,0,596.0,2,0,1,23945,task1,1079397,false,false,1408,image-keyboard-response,31
true,11,0,2,0,true,q,false,true,0.0-2.0-0.49-0.442-3.442,0,0,0,81,false,stim,false,2,621.5999999998603,2,0,0,23945,task1,1081541,false,false,1411,image-keyboard-response,32
true,11,2,2,2,true,d,false,true,0.0-2.0-0.49-0.443-3.443,0,0,0,68,false,stim,false,0,1432.3999999999069,2,0,2,23945,task1,1084495,false,false,1414,image-keyboard-response,33
true,11,2,2,2,true,d,false,true,0.0-2.0-0.49-0.444-3.444,0,0,0,68,false,stim,false,0,514.1999999999534,2,0,2,23945,task1,1086521,false,false,1417,image-keyboard-response,34
true,11,0,2,0,true,q,false,true,0.0-2.0-0.49-0.445-3.445,0,0,0,81,false,stim,false,2,1903.8000000000466,2,0,0,23945,task1,1089949,false,false,1420,image-keyboard-response,35
true,11,2,2,2,true,d,false,true,0.0-2.0-0.49-0.446-3.446,0,0,0,68,false,stim,false,0,526.8000000000466,2,0,1,23945,task1,1092004,false,false,1423,image-keyboard-response,36
true,11,2,2,2,true,d,false,false,0.0-2.0-0.49-0.447-3.447,0,0,0,68,false,stim,false,0,772.2999999998137,2,0,2,23945,task1,1094298,false,true,1426,image-keyboard-response,37
true,11,2,2,2,true,d,false,true,0.0-2.0-0.49-0.448-3.448,0,0,0,68,false,stim,false,0,579.9000000001397,2,0,1,23945,task1,1096413,false,false,1429,image-keyboard-response,38
true,11,0,2,0,true,q,false,false,0.0-2.0-0.49-0.449-3.449,0,0,0,81,false,stim,false,2,965.9000000001397,2,0,0,23945,task1,1098897,false,true,1432,image-keyboard-response,39
true,11,2,2,2,true,d,false,true,0.0-2.0-0.50-0.450-3.450,0,0,0,68,false,stim,false,0,1056.6999999999534,2,0,1,23945,task1,1101471,false,false,1435,image-keyboard-response,40
true,11,1,2,2,false,d,true,false,0.0-2.0-0.50-0.451-3.451,0,0,0,90,false,stim,false,0,1395.5,2,0,2,23945,task1,1104392,false,false,1438,image-keyboard-response,41
true,11,0,2,2,false,d,false,false,0.0-2.0-0.50-0.452-3.452,0,0,0,81,false,stim,true,0,420.5,2,0,2,23945,task1,1106327,false,false,1441,image-keyboard-response,42
true,11,2,2,0,false,q,false,false,0.0-2.0-0.50-0.453-3.453,0,0,0,68,false,stim,true,2,269.80000000004657,2,0,0,23945,task1,1108119,false,false,1444,image-keyboard-response,43
true,11,0,2,0,true,q,false,true,0.0-2.0-0.50-0.454-3.454,0,0,0,81,false,stim,false,2,620.8999999999069,2,0,0,23945,task1,1110257,false,false,1447,image-keyboard-response,44
true,11,2,2,2,true,d,false,true,0.0-2.0-0.50-0.455-3.455,0,0,0,68,false,stim,false,0,787.0999999998603,2,0,1,23945,task1,1112563,false,false,1450,image-keyboard-response,45
true,12,2,2,0,false,q,false,false,0.0-2.0-0.50-0.456-3.456,0,0,0,68,true,stim,true,2,534.6999999999534,2,0,1,23945,task1,1114617,false,false,1453,image-keyboard-response,1
true,12,0,2,2,false,d,false,false,0.0-2.0-0.50-0.457-3.457,0,0,0,81,false,stim,true,0,671.1999999999534,2,0,0,23945,task1,1116802,false,false,1456,image-keyboard-response,2
true,12,2,2,0,false,q,false,false,0.0-2.0-0.50-0.458-3.458,0,0,0,68,false,stim,true,2,1023.6000000000931,2,0,2,23945,task1,1119347,false,false,1459,image-keyboard-response,3
true,12,2,2,0,false,q,false,false,0.0-2.0-0.51-0.459-3.459,0,0,0,68,false,stim,true,2,1058.6000000000931,2,0,1,23945,task1,1121930,false,false,1462,image-keyboard-response,4
true,12,2,2,0,false,q,false,false,0.0-2.0-0.51-0.460-3.460,0,0,0,68,false,stim,true,2,1543.0999999998603,2,0,2,23945,task1,1124987,false,false,1465,image-keyboard-response,5
true,12,0,2,0,true,q,false,true,0.0-2.0-0.51-0.461-3.461,0,0,0,81,false,stim,false,2,499.79999999981374,2,0,2,23945,task1,1126999,false,false,1468,image-keyboard-response,6
true,12,2,2,2,true,d,false,true,0.0-2.0-0.51-0.462-3.462,0,0,0,68,false,stim,false,0,630.2999999998137,2,0,0,23945,task1,1129137,false,false,1471,image-keyboard-response,7
true,12,2,2,2,true,d,false,true,0.0-2.0-0.51-0.463-3.463,0,0,0,68,false,stim,false,0,765.8000000000466,2,0,0,23945,task1,1131416,false,false,1474,image-keyboard-response,8
true,12,0,2,0,true,q,false,true,0.0-2.0-0.51-0.464-3.464,0,0,0,81,false,stim,false,2,627.9000000001397,2,0,1,23945,task1,1133562,false,false,1477,image-keyboard-response,9
true,12,2,2,2,true,d,false,true,0.0-2.0-0.51-0.465-3.465,0,0,0,68,false,stim,false,0,615.0,2,0,0,23945,task1,1135688,false,false,1480,image-keyboard-response,10
true,12,0,2,0,true,q,false,true,0.0-2.0-0.51-0.466-3.466,0,0,0,81,false,stim,false,2,442.89999999990687,2,0,1,23945,task1,1137652,false,false,1483,image-keyboard-response,11
true,12,0,2,0,true,q,false,true,0.0-2.0-0.51-0.467-3.467,0,0,0,81,false,stim,false,2,652.2000000001863,2,0,2,23945,task1,1139817,false,false,1486,image-keyboard-response,12
true,12,2,2,2,true,d,false,true,0.0-2.0-0.52-0.468-3.468,0,0,0,68,false,stim,false,0,413.9000000001397,2,0,0,23945,task1,1141756,false,false,1489,image-keyboard-response,13
true,12,0,2,0,true,q,false,true,0.0-2.0-0.52-0.469-3.469,0,0,0,81,false,stim,false,2,549.8000000000466,2,0,1,23945,task1,1143823,false,false,1492,image-keyboard-response,14
true,12,2,2,2,true,d,false,true,0.0-2.0-0.52-0.470-3.470,0,0,0,68,false,stim,false,0,710.6000000000931,2,0,0,23945,task1,1146055,false,false,1495,image-keyboard-response,15
true,12,0,2,0,true,q,false,true,0.0-2.0-0.52-0.471-3.471,0,0,0,81,false,stim,false,2,741.2000000001863,2,0,1,23945,task1,1148317,false,false,1498,image-keyboard-response,16
true,12,0,2,0,true,q,false,true,0.0-2.0-0.52-0.472-3.472,0,0,0,81,false,stim,false,2,1023.6999999999534,2,0,1,23945,task1,1150888,false,false,1501,image-keyboard-response,17
true,12,0,2,0,true,q,false,true,0.0-2.0-0.52-0.473-3.473,0,0,0,81,false,stim,false,2,685.1999999999534,2,0,2,23945,task1,1153091,false,false,1504,image-keyboard-response,18
true,12,0,2,0,true,q,false,true,0.0-2.0-0.52-0.474-3.474,0,0,0,81,false,stim,false,2,672.8000000000466,2,0,2,23945,task1,1155281,false,false,1507,image-keyboard-response,19
true,12,0,2,0,true,q,false,true,0.0-2.0-0.52-0.475-3.475,0,0,0,81,false,stim,false,2,869.0,2,0,2,23945,task1,1157664,false,false,1510,image-keyboard-response,20
true,12,2,2,2,true,d,false,true,0.0-2.0-0.52-0.476-3.476,0,0,0,68,false,stim,false,0,1285.0,2,0,0,23945,task1,1160472,false,false,1513,image-keyboard-response,21
true,12,0,2,0,true,q,false,true,0.0-2.0-0.53-0.477-3.477,0,0,0,81,false,stim,false,2,662.3999999999069,2,0,1,23945,task1,1162653,false,false,1516,image-keyboard-response,22
true,12,0,2,0,true,q,false,true,0.0-2.0-0.53-0.478-3.478,0,0,0,81,false,stim,false,2,1219.0,2,0,2,23945,task1,1165401,false,false,1519,image-keyboard-response,23
true,12,2,2,2,true,d,false,true,0.0-2.0-0.53-0.479-3.479,0,0,0,68,false,stim,false,0,1065.3000000000466,2,0,0,23945,task1,1167984,false,false,1522,image-keyboard-response,24
true,12,0,2,0,true,q,false,true,0.0-2.0-0.53-0.480-3.480,0,0,0,81,false,stim,false,2,723.6999999999534,2,0,2,23945,task1,1170216,false,false,1525,image-keyboard-response,25
true,12,2,2,2,true,d,false,true,0.0-2.0-0.53-0.481-3.481,0,0,0,68,false,stim,false,0,1545.0,2,0,0,23945,task1,1173287,false,false,1528,image-keyboard-response,26
true,12,0,2,0,true,q,false,false,0.0-2.0-0.53-0.482-3.482,0,0,0,81,false,stim,false,2,625.8000000000466,2,0,1,23945,task1,1175436,false,true,1531,image-keyboard-response,27
true,12,2,2,2,true,d,false,true,0.0-2.0-0.53-0.483-3.483,0,0,0,68,false,stim,false,0,1272.1000000000931,2,0,0,23945,task1,1178244,false,false,1534,image-keyboard-response,28
true,12,0,2,0,true,q,false,true,0.0-2.0-0.53-0.484-3.484,0,0,0,81,false,stim,false,2,448.60000000009313,2,0,1,23945,task1,1180221,false,false,1537,image-keyboard-response,29
true,12,0,2,0,true,q,false,true,0.0-2.0-0.53-0.485-3.485,0,0,0,81,false,stim,false,2,632.6999999999534,2,0,2,23945,task1,1182384,false,false,1540,image-keyboard-response,30
true,12,0,2,0,true,q,false,true,0.0-2.0-0.54-0.486-3.486,0,0,0,81,false,stim,false,2,1032.7999999998137,2,0,1,23945,task1,1184932,false,false,1543,image-keyboard-response,31
true,12,2,2,2,true,d,false,true,0.0-2.0-0.54-0.487-3.487,0,0,0,68,false,stim,false,0,812.8000000000466,2,0,0,23945,task1,1187256,false,false,1546,image-keyboard-response,32
true,12,2,2,2,true,d,false,true,0.0-2.0-0.54-0.488-3.488,0,0,0,68,false,stim,false,0,483.5999999998603,2,0,0,23945,task1,1189261,false,false,1549,image-keyboard-response,33
true,12,0,2,0,true,q,false,true,0.0-2.0-0.54-0.489-3.489,0,0,0,81,false,stim,false,2,1059.3000000000466,2,0,2,23945,task1,1191835,false,false,1552,image-keyboard-response,34
true,12,0,2,0,true,q,false,true,0.0-2.0-0.54-0.490-3.490,0,0,0,81,false,stim,false,2,610.5,2,0,2,23945,task1,1193983,false,false,1555,image-keyboard-response,35
true,12,0,2,0,true,q,false,true,0.0-2.0-0.54-0.491-3.491,0,0,0,81,false,stim,false,2,954.0,2,0,2,23945,task1,1196465,false,false,1558,image-keyboard-response,36
true,12,2,2,0,false,q,false,false,0.0-2.0-0.54-0.492-3.492,0,0,0,68,false,stim,true,2,658.1999999999534,2,0,1,23945,task1,1198638,false,false,1561,image-keyboard-response,37
true,12,0,2,0,true,q,false,true,0.0-2.0-0.54-0.493-3.493,0,0,0,81,false,stim,false,2,1251.2000000001863,2,0,1,23945,task1,1201408,false,false,1564,image-keyboard-response,38
true,12,2,2,2,true,d,false,true,0.0-2.0-0.54-0.494-3.494,0,0,0,68,false,stim,false,0,2299.899999999907,2,0,0,23945,task1,1205221,false,false,1567,image-keyboard-response,39
true,12,0,2,0,true,q,false,true,0.0-2.0-0.55-0.495-3.495,0,0,0,81,false,stim,false,2,475.20000000018626,2,0,2,23945,task1,1207229,false,false,1570,image-keyboard-response,40
true,12,2,2,2,true,d,false,true,0.0-2.0-0.55-0.496-3.496,0,0,0,68,false,stim,false,0,535.1999999999534,2,0,0,23945,task1,1209275,false,false,1573,image-keyboard-response,41
true,12,0,2,0,true,q,false,true,0.0-2.0-0.55-0.497-3.497,0,0,0,81,false,stim,false,2,620.0999999998603,2,0,2,23945,task1,1211414,false,false,1576,image-keyboard-response,42
true,12,0,2,0,true,q,false,true,0.0-2.0-0.55-0.498-3.498,0,0,0,81,false,stim,false,2,782.6000000000931,2,0,1,23945,task1,1213721,false,false,1579,image-keyboard-response,43
true,12,0,2,0,true,q,false,true,0.0-2.0-0.55-0.499-3.499,0,0,0,81,false,stim,false,2,1048.6000000000931,2,0,1,23945,task1,1216295,false,false,1582,image-keyboard-response,44
true,13,0,2,2,false,d,false,false,0.0-2.0-0.55-0.500-3.500,0,0,0,81,true,stim,true,0,635.0,2,0,1,23945,task1,1218443,false,false,1585,image-keyboard-response,1
true,13,2,2,0,false,q,false,false,0.0-2.0-0.55-0.501-3.501,0,0,0,68,false,stim,true,2,785.5,2,0,0,23945,task1,1220763,false,false,1588,image-keyboard-response,2
true,13,2,2,0,false,q,false,false,0.0-2.0-0.55-0.502-3.502,0,0,0,68,false,stim,true,2,977.1000000000931,2,0,0,23945,task1,1223256,false,false,1591,image-keyboard-response,3
true,13,0,2,2,false,d,false,false,0.0-2.0-0.55-0.503-3.503,0,0,0,81,false,stim,true,0,1825.6999999999534,2,0,2,23945,task1,1226601,false,false,1594,image-keyboard-response,4
true,13,2,2,0,false,q,false,false,0.0-2.0-0.56-0.504-3.504,0,0,0,68,false,stim,true,2,429.39999999990687,2,0,0,23945,task1,1228549,false,false,1597,image-keyboard-response,5
true,13,2,2,2,true,d,false,true,0.0-2.0-0.56-0.505-3.505,0,0,0,68,false,stim,false,0,725.6999999999534,2,0,2,23945,task1,1230796,false,false,1600,image-keyboard-response,6
true,13,0,2,2,false,d,false,false,0.0-2.0-0.56-0.506-3.506,0,0,0,81,false,stim,true,0,1255.0,2,0,1,23945,task1,1233578,false,false,1603,image-keyboard-response,7
true,13,2,2,2,true,d,false,true,0.0-2.0-0.56-0.507-3.507,0,0,0,68,false,stim,false,0,1246.5999999998603,2,0,2,23945,task1,1236349,false,false,1606,image-keyboard-response,8
true,13,0,2,0,true,q,false,true,0.0-2.0-0.56-0.508-3.508,0,0,0,81,false,stim,false,2,1452.8000000000466,2,0,0,23945,task1,1239316,false,false,1609,image-keyboard-response,9
true,13,2,2,2,true,d,false,true,0.0-2.0-0.56-0.509-3.509,0,0,0,68,false,stim,false,0,2975.8000000000466,2,0,2,23945,task1,1243816,false,false,1612,image-keyboard-response,10
true,13,0,2,2,false,d,false,false,0.0-2.0-0.56-0.510-3.510,0,0,0,81,false,stim,true,0,2520.0,2,0,1,23945,task1,1247859,false,false,1615,image-keyboard-response,11
true,13,0,2,0,true,q,false,true,0.0-2.0-0.56-0.511-3.511,0,0,0,81,false,stim,false,2,746.0,2,0,0,23945,task1,1250121,false,false,1618,image-keyboard-response,12
true,13,2,2,2,true,d,false,true,0.0-2.0-0.56-0.512-3.512,0,0,0,68,false,stim,false,0,1525.2999999998137,2,0,1,23945,task1,1253169,false,false,1621,image-keyboard-response,13
true,13,2,2,2,true,d,false,true,0.0-2.0-0.57-0.513-3.513,0,0,0,68,false,stim,false,0,2013.5999999998603,2,0,1,23945,task1,1256695,false,false,1624,image-keyboard-response,14
true,13,0,2,0,true,q,false,true,0.0-2.0-0.57-0.514-3.514,0,0,0,81,false,stim,false,2,693.5,2,0,0,23945,task1,1258909,false,false,1627,image-keyboard-response,15
true,13,2,2,2,true,d,false,true,0.0-2.0-0.57-0.515-3.515,0,0,0,68,false,stim,false,0,924.4000000001397,2,0,1,23945,task1,1261362,false,false,1630,image-keyboard-response,16
true,13,2,2,2,true,d,false,true,0.0-2.0-0.57-0.516-3.516,0,0,0,68,false,stim,false,0,517.6999999999534,2,0,1,23945,task1,1263391,false,false,1633,image-keyboard-response,17
true,13,2,2,2,true,d,false,true,0.0-2.0-0.57-0.517-3.517,0,0,0,68,false,stim,false,0,1516.0,2,0,2,23945,task1,1266426,false,false,1636,image-keyboard-response,18
true,13,2,2,2,true,d,false,true,0.0-2.0-0.57-0.518-3.518,0,0,0,68,false,stim,false,0,401.30000000004657,2,0,2,23945,task1,1268351,false,false,1639,image-keyboard-response,19
true,13,0,2,0,true,q,false,true,0.0-2.0-0.57-0.519-3.519,0,0,0,81,false,stim,false,2,1489.3000000000466,2,0,0,23945,task1,1271365,false,false,1642,image-keyboard-response,20
true,13,2,2,2,true,d,false,true,0.0-2.0-0.57-0.520-3.520,0,0,0,68,false,stim,false,0,748.6999999999534,2,0,2,23945,task1,1273633,false,false,1645,image-keyboard-response,21
true,13,0,2,0,true,q,false,true,0.0-2.0-0.57-0.521-3.521,0,0,0,81,false,stim,false,2,1923.6999999999534,2,0,0,23945,task1,1277085,false,false,1648,image-keyboard-response,22
true,13,2,2,2,true,d,false,false,0.0-2.0-0.58-0.522-3.522,0,0,0,68,false,stim,false,0,1029.3999999999069,2,0,1,23945,task1,1279639,false,true,1651,image-keyboard-response,23
true,13,0,2,2,false,d,false,false,0.0-2.0-0.58-0.523-3.523,0,0,0,81,false,stim,true,0,2038.5999999998603,2,0,2,23945,task1,1283196,false,false,1654,image-keyboard-response,24
true,13,2,2,0,false,q,false,false,0.0-2.0-0.58-0.524-3.524,0,0,0,68,false,stim,true,2,1204.2999999998137,2,0,0,23945,task1,1285926,false,false,1657,image-keyboard-response,25
true,13,1,2,2,false,d,true,false,0.0-2.0-0.58-0.525-3.525,0,0,0,90,false,stim,false,0,2081.2000000001863,2,0,1,23945,task1,1289527,false,false,1660,image-keyboard-response,26
true,13,1,2,2,false,d,true,false,0.0-2.0-0.58-0.526-3.526,0,0,0,90,false,stim,false,0,1891.3999999999069,2,0,2,23945,task1,1292932,false,false,1663,image-keyboard-response,27
true,13,0,2,0,true,q,false,true,0.0-2.0-0.58-0.527-3.527,0,0,0,81,false,stim,false,2,2542.9000000001397,2,0,0,23945,task1,1296985,false,false,1666,image-keyboard-response,28
true,13,0,2,0,true,q,false,true,0.0-2.0-0.58-0.528-3.528,0,0,0,81,false,stim,false,2,513.1000000000931,2,0,0,23945,task1,1299019,false,false,1669,image-keyboard-response,29
true,13,0,2,2,false,d,false,false,0.0-2.0-0.58-0.529-3.529,0,0,0,81,false,stim,true,0,486.5,2,0,1,23945,task1,1301022,false,false,1672,image-keyboard-response,30
true,13,2,2,2,true,d,false,true,0.0-2.0-0.58-0.530-3.530,0,0,0,68,false,stim,false,0,602.5999999998603,2,0,2,23945,task1,1303145,false,false,1675,image-keyboard-response,31
true,13,2,2,2,true,d,false,true,0.0-2.0-0.59-0.531-3.531,0,0,0,68,false,stim,false,0,1180.7999999998137,2,0,1,23945,task1,1305845,false,false,1678,image-keyboard-response,32
true,13,2,2,2,true,d,false,true,0.0-2.0-0.59-0.532-3.532,0,0,0,68,false,stim,false,0,1079.3999999999069,2,0,2,23945,task1,1308445,false,false,1681,image-keyboard-response,33
true,13,2,2,2,true,d,false,false,0.0-2.0-0.59-0.533-3.533,0,0,0,68,false,stim,false,0,1707.5,2,0,1,23945,task1,1311668,false,true,1684,image-keyboard-response,34
true,13,2,2,2,true,d,false,true,0.0-2.0-0.59-0.534-3.534,0,0,0,68,false,stim,false,0,716.8000000000466,2,0,2,23945,task1,1313907,false,false,1687,image-keyboard-response,35
false,13,-1,2,0,false,q,true,false,0.0-2.0-0.59-0.535-3.535,0,0,0,,false,stim,false,2,,2,0,0,23945,task1,1318442,false,false,1690,image-keyboard-response,36
true,13,2,2,2,true,d,false,true,0.0-2.0-0.59-0.536-3.536,0,0,0,68,false,stim,false,0,906.3999999999069,2,0,1,23945,task1,1320863,false,false,1693,image-keyboard-response,37
true,13,2,2,0,false,q,false,false,0.0-2.0-0.59-0.537-3.537,0,0,0,68,false,stim,true,2,778.3999999999069,2,0,0,23945,task1,1323170,false,false,1696,image-keyboard-response,38
true,13,2,2,2,true,d,false,true,0.0-2.0-0.59-0.538-3.538,0,0,0,68,false,stim,false,0,1189.6000000000931,2,0,2,23945,task1,1325887,false,false,1699,image-keyboard-response,39
true,13,0,2,0,true,q,false,true,0.0-2.0-0.59-0.539-3.539,0,0,0,81,false,stim,false,2,1743.3999999999069,2,1,0,23945,task1,1329178,false,false,1702,image-keyboard-response,40
true,13,2,2,2,true,d,false,false,0.0-2.0-0.60-0.540-3.540,0,0,0,68,false,stim,false,0,1006.8999999999069,2,1,2,23945,task1,1331700,false,true,1705,image-keyboard-response,41
true,13,2,2,2,true,d,false,true,0.0-2.0-0.60-0.541-3.541,0,0,0,68,false,stim,false,0,806.1000000000931,2,1,1,23945,task1,1334030,false,false,1708,image-keyboard-response,42
true,13,0,2,2,false,d,false,false,0.0-2.0-0.60-0.542-3.542,0,0,0,81,false,stim,true,0,346.5,2,1,2,23945,task1,1335898,false,false,1711,image-keyboard-response,43
true,13,2,2,2,true,d,false,true,0.0-2.0-0.60-0.543-3.543,0,0,0,68,false,stim,false,0,1099.3000000000466,2,1,1,23945,task1,1338516,false,false,1714,image-keyboard-response,44
true,14,0,0,0,true,q,false,true,0.0-2.0-0.60-0.544-3.544,1,1,1,81,true,stim,false,0,2935.3000000000466,2,1,0,23945,task1,1464429,false,false,1837,image-keyboard-response,1
true,14,1,0,2,false,d,true,true,0.0-2.0-0.60-0.545-3.545,1,1,1,90,false,stim,false,2,1229.0,2,1,2,23945,task1,1467172,false,true,1840,image-keyboard-response,2
true,14,0,0,2,false,d,true,false,0.0-2.0-0.60-0.546-3.546,1,1,1,81,false,stim,false,2,577.8000000000466,2,1,1,23945,task1,1469268,false,false,1843,image-keyboard-response,3
true,14,0,0,0,true,q,false,true,0.0-2.0-0.60-0.547-3.547,1,1,1,81,false,stim,false,0,648.9000000001397,2,1,0,23945,task1,1471442,false,false,1846,image-keyboard-response,4
true,14,0,0,0,true,q,false,true,0.0-2.0-0.60-0.548-3.548,1,1,1,81,false,stim,false,0,650.6999999999534,2,1,0,23945,task1,1473618,false,false,1849,image-keyboard-response,5
true,14,0,0,0,true,q,false,true,0.0-2.0-0.61-0.549-3.549,1,1,1,81,false,stim,false,0,1413.6000000000931,2,1,0,23945,task1,1476566,false,false,1852,image-keyboard-response,6
true,14,1,0,2,false,d,true,false,0.0-2.0-0.61-0.550-3.550,1,1,1,90,false,stim,false,2,470.30000000004657,2,1,1,23945,task1,1478553,false,false,1855,image-keyboard-response,7
true,14,2,0,2,true,d,false,true,0.0-2.0-0.61-0.551-3.551,1,1,1,68,false,stim,false,2,416.19999999995343,2,1,2,23945,task1,1480492,false,false,1858,image-keyboard-response,8
true,14,2,0,2,true,d,false,true,0.0-2.0-0.61-0.552-3.552,1,1,1,68,false,stim,false,2,1351.1000000000931,2,0,2,23945,task1,1483357,false,false,1861,image-keyboard-response,9
true,14,0,0,0,true,q,false,true,0.0-2.0-0.61-0.553-3.553,1,1,1,81,false,stim,false,0,691.5,2,0,0,23945,task1,1485563,false,false,1864,image-keyboard-response,10
true,14,2,0,2,true,d,false,true,0.0-2.0-0.61-0.554-3.554,1,1,1,68,false,stim,false,2,762.5,2,0,1,23945,task1,1487848,false,false,1867,image-keyboard-response,11
true,14,2,0,2,true,d,false,true,0.0-2.0-0.61-0.555-3.555,1,1,1,68,false,stim,false,2,760.0,2,0,2,23945,task1,1490129,false,false,1870,image-keyboard-response,12
true,14,2,0,2,true,d,false,true,0.0-2.0-0.61-0.556-3.556,1,1,1,68,false,stim,false,2,579.5999999998603,2,0,1,23945,task1,1492244,false,false,1873,image-keyboard-response,13
true,15,0,2,2,false,d,false,false,0.0-2.0-0.61-0.557-3.557,0,0,0,81,true,stim,true,0,617.7999999998137,2,0,0,23945,task1,1494389,false,false,1876,image-keyboard-response,1
true,15,2,2,0,false,q,false,true,0.0-2.0-0.62-0.558-3.558,0,0,0,68,false,stim,true,2,1060.0999999998603,2,0,2,23945,task1,1496964,false,true,1879,image-keyboard-response,2
true,15,0,2,2,false,d,false,false,0.0-2.0-0.62-0.559-3.559,0,0,0,81,false,stim,true,0,433.39999999990687,2,0,0,23945,task1,1498927,false,false,1882,image-keyboard-response,3
true,15,2,2,0,false,q,false,false,0.0-2.0-0.62-0.560-3.560,0,0,0,68,false,stim,true,2,702.1999999999534,2,0,2,23945,task1,1501140,false,false,1885,image-keyboard-response,4
true,15,2,2,0,false,q,false,false,0.0-2.0-0.62-0.561-3.561,0,0,0,68,false,stim,true,2,714.8999999999069,2,0,1,23945,task1,1503371,false,false,1888,image-keyboard-response,5
true,15,1,2,2,false,d,true,false,0.0-2.0-0.62-0.562-3.562,0,0,0,90,false,stim,false,0,590.6000000000931,2,0,0,23945,task1,1505477,false,false,1891,image-keyboard-response,6
true,15,0,2,0,true,q,false,true,0.0-2.0-0.62-0.563-3.563,0,0,0,81,false,stim,false,2,578.1999999999534,2,0,2,23945,task1,1507584,false,false,1894,image-keyboard-response,7
true,15,0,2,0,true,q,false,true,0.0-2.0-0.62-0.564-3.564,0,0,0,81,false,stim,false,2,380.0999999998603,2,0,1,23945,task1,1509486,false,false,1897,image-keyboard-response,8
true,15,2,2,2,true,d,false,true,0.0-2.0-0.62-0.565-3.565,0,0,0,68,false,stim,false,0,388.5,2,0,0,23945,task1,1511394,false,false,1900,image-keyboard-response,9
true,15,0,2,0,true,q,false,true,0.0-2.0-0.62-0.566-3.566,0,0,0,81,false,stim,false,2,697.5,2,0,1,23945,task1,1513635,false,false,1903,image-keyboard-response,10
true,15,0,2,0,true,q,false,true,0.0-2.0-0.63-0.567-3.567,0,0,0,81,false,stim,false,2,430.39999999990687,2,0,1,23945,task1,1515597,false,false,1906,image-keyboard-response,11
true,15,2,2,2,true,d,false,true,0.0-2.0-0.63-0.568-3.568,0,0,0,68,false,stim,false,0,612.3999999999069,2,0,0,23945,task1,1517741,false,false,1909,image-keyboard-response,12
true,15,0,2,0,true,q,false,true,0.0-2.0-0.63-0.569-3.569,0,0,0,81,false,stim,false,2,850.4000000001397,2,0,2,23945,task1,1520124,false,false,1912,image-keyboard-response,13
true,15,2,2,0,false,q,false,false,0.0-2.0-0.63-0.570-3.570,0,0,0,68,false,stim,true,2,1510.6999999999534,2,0,1,23945,task1,1523161,false,false,1915,image-keyboard-response,14
true,15,2,2,0,false,q,false,false,0.0-2.0-0.63-0.571-3.571,0,0,0,68,false,stim,true,2,950.1000000000931,2,0,1,23945,task1,1525635,false,false,1918,image-keyboard-response,15
true,15,2,2,2,true,d,false,true,0.0-2.0-0.63-0.572-3.572,0,0,0,68,false,stim,false,0,820.5,2,0,0,23945,task1,1527976,false,false,1921,image-keyboard-response,16
true,15,0,2,0,true,q,false,true,0.0-2.0-0.63-0.573-3.573,0,0,0,81,false,stim,false,2,648.1999999999534,2,0,2,23945,task1,1530145,false,false,1924,image-keyboard-response,17
true,15,0,2,0,true,q,false,true,0.0-2.0-0.63-0.574-3.574,0,0,0,81,false,stim,false,2,2533.1999999999534,2,0,2,23945,task1,1534190,false,false,1927,image-keyboard-response,18
true,15,2,2,2,true,d,false,true,0.0-2.0-0.63-0.575-3.575,0,0,0,68,false,stim,false,0,1056.0,2,0,0,23945,task1,1536772,false,false,1930,image-keyboard-response,19
true,15,2,2,2,true,d,false,true,0.0-2.0-0.64-0.576-3.576,0,0,0,68,false,stim,false,0,1335.0,2,0,0,23945,task1,1539640,false,false,1933,image-keyboard-response,20
true,15,0,2,0,true,q,false,true,0.0-2.0-0.64-0.577-3.577,0,0,0,81,false,stim,false,2,1739.5,2,0,1,23945,task1,1542899,false,false,1936,image-keyboard-response,21
true,15,2,2,2,true,d,false,true,0.0-2.0-0.64-0.578-3.578,0,0,0,68,false,stim,false,0,1485.8999999999069,2,0,0,23945,task1,1545899,false,false,1939,image-keyboard-response,22
true,15,0,2,2,false,d,false,false,0.0-2.0-0.64-0.579-3.579,0,0,0,81,false,stim,true,0,1549.5,2,0,0,23945,task1,1548967,false,false,1942,image-keyboard-response,23
true,15,0,2,0,true,q,false,true,0.0-2.0-0.64-0.580-3.580,0,0,0,81,false,stim,false,2,711.7000000001863,2,0,1,23945,task1,1551204,false,false,1945,image-keyboard-response,24
true,15,0,2,0,true,q,false,true,0.0-2.0-0.64-0.581-3.581,0,0,0,81,false,stim,false,2,2034.9000000001397,2,0,2,23945,task1,1554762,false,false,1948,image-keyboard-response,25
true,15,0,2,0,true,q,false,true,0.0-2.0-0.64-0.582-3.582,0,0,0,81,false,stim,false,2,1198.1000000000931,2,0,2,23945,task1,1557474,false,false,1951,image-keyboard-response,26
true,15,0,2,0,true,q,false,true,0.0-2.0-0.64-0.583-3.583,0,0,0,81,false,stim,false,2,1273.5,2,0,1,23945,task1,1560274,false,false,1954,image-keyboard-response,27
true,15,0,2,0,true,q,false,true,0.0-2.0-0.64-0.584-3.584,0,0,0,81,false,stim,false,2,1371.5,2,0,2,23945,task1,1563161,false,false,1957,image-keyboard-response,28
true,15,0,2,0,true,q,false,true,0.0-2.0-0.65-0.585-3.585,0,0,0,81,false,stim,false,2,1144.6999999999534,2,0,2,23945,task1,1565827,false,false,1960,image-keyboard-response,29
true,15,0,2,0,true,q,false,true,0.0-2.0-0.65-0.586-3.586,0,0,0,81,false,stim,false,2,885.4000000001397,2,0,1,23945,task1,1568227,false,false,1963,image-keyboard-response,30
true,15,2,2,2,true,d,false,true,0.0-2.0-0.65-0.587-3.587,0,0,0,68,false,stim,false,0,1050.1999999999534,2,0,0,23945,task1,1570797,false,false,1966,image-keyboard-response,31
true,15,0,2,0,true,q,false,true,0.0-2.0-0.65-0.588-3.588,0,0,0,81,false,stim,false,2,1109.0,2,0,2,23945,task1,1573436,false,false,1969,image-keyboard-response,32
true,15,2,2,2,true,d,false,true,0.0-2.0-0.65-0.589-3.589,0,0,0,68,false,stim,false,0,1049.5,2,0,0,23945,task1,1576002,false,false,1972,image-keyboard-response,33
true,15,0,2,0,true,q,false,true,0.0-2.0-0.65-0.590-3.590,0,0,0,81,false,stim,false,2,1874.5,2,0,2,23945,task1,1579402,false,false,1975,image-keyboard-response,34
