answered,blockNum,choice,condition,corResp,correct,correct_response,explo,fb,internal_node_id,isStable_1,isStable_2,isStable_3,key_press,newBlock,part,persev,persevResp,rt,sessNum,stableAS,stimulus,subject,task,time_elapsed,training,trap,trial_index,trial_type,trialsInBlock
true,1,0,0,2,false,d,true,false,0.0-2.0-0.0-0.0-3.0,0,0,0,81,true,stim,false,-1,1260,1,0,2,24203,task2,207329,false,false,79,image-keyboard-response,1
true,1,0,0,1,false,z,true,false,0.0-2.0-0.0-0.1-3.1,0,0,0,81,false,stim,false,-1,1084,1,0,0,24203,task2,209943,false,false,82,image-keyboard-response,2
true,1,1,0,1,true,z,false,true,0.0-2.0-0.0-0.2-3.2,0,0,0,90,false,stim,false,-1,1322,1,0,0,24203,task2,212792,false,false,85,image-keyboard-response,3
true,1,2,0,2,true,d,false,true,0.0-2.0-0.0-0.3-3.3,0,0,0,68,false,stim,false,-1,774,1,0,2,24203,task2,215102,false,false,88,image-keyboard-response,4
true,1,0,0,1,false,z,true,false,0.0-2.0-0.0-0.4-3.4,0,0,0,81,false,stim,false,-1,1034,1,0,1,24203,task2,217673,false,false,91,image-keyboard-response,5
true,1,1,0,1,true,z,false,true,0.0-2.0-0.0-0.5-3.5,0,0,0,90,false,stim,false,-1,771,1,0,1,24203,task2,219969,false,false,94,image-keyboard-response,6
true,1,1,0,1,true,z,false,true,0.0-2.0-0.0-0.6-3.6,0,0,0,90,false,stim,false,-1,552,1,0,0,24203,task2,222061,false,false,97,image-keyboard-response,7
true,1,1,0,1,true,z,false,true,0.0-2.0-0.0-0.7-3.7,0,0,0,90,false,stim,false,-1,623,1,0,1,24203,task2,224212,false,false,100,image-keyboard-response,8
true,1,2,0,2,true,d,false,true,0.0-2.0-0.0-0.8-3.8,0,0,0,68,false,stim,false,-1,613,1,0,2,24203,task2,226363,false,false,103,image-keyboard-response,9
true,1,1,0,1,true,z,false,true,0.0-2.0-0.1-0.9-3.9,0,0,0,90,false,stim,false,-1,560,1,0,1,24203,task2,228450,false,false,106,image-keyboard-response,10
true,1,2,0,2,true,d,false,true,0.0-2.0-0.1-0.10-3.10,0,0,0,68,false,stim,false,-1,689,1,0,2,24203,task2,230670,false,false,109,image-keyboard-response,11
true,1,2,0,2,true,d,false,true,0.0-2.0-0.1-0.11-3.11,0,0,0,68,false,stim,false,-1,565,1,0,2,24203,task2,232774,false,false,112,image-keyboard-response,12
true,1,1,0,1,true,z,false,false,0.0-2.0-0.1-0.12-3.12,0,0,0,90,false,stim,false,-1,582,1,0,0,24203,task2,234891,false,true,115,image-keyboard-response,13
true,1,2,0,2,true,d,false,true,0.0-2.0-0.1-0.13-3.13,0,0,0,68,false,stim,false,-1,763,1,0,2,24203,task2,237188,false,false,118,image-keyboard-response,14
true,1,1,0,1,true,z,false,true,0.0-2.0-0.1-0.14-3.14,0,0,0,90,false,stim,false,-1,796,1,0,1,24203,task2,239527,false,false,121,image-keyboard-response,15
true,1,2,0,1,false,z,true,false,0.0-2.0-0.1-0.15-3.15,0,0,0,68,false,stim,false,-1,553,1,0,0,24203,task2,241612,false,false,124,image-keyboard-response,16
true,1,1,0,1,true,z,false,true,0.0-2.0-0.1-0.16-3.16,0,0,0,90,false,stim,false,-1,951,1,0,1,24203,task2,244100,false,false,127,image-keyboard-response,17
true,1,1,0,1,true,z,false,true,0.0-2.0-0.1-0.17-3.17,0,0,0,90,false,stim,false,-1,1050,1,0,0,24203,task2,246689,false,false,130,image-keyboard-response,18
true,1,2,0,2,true,d,false,true,0.0-2.0-0.2-0.18-3.18,0,0,0,68,false,stim,false,-1,404,1,0,2,24203,task2,248621,false,false,133,image-keyboard-response,19
true,1,1,0,1,true,z,false,true,0.0-2.0-0.2-0.19-3.19,0,0,0,90,false,stim,false,-1,398,1,0,1,24203,task2,250547,false,false,136,image-keyboard-response,20
true,1,1,0,1,true,z,false,true,0.0-2.0-0.2-0.20-3.20,0,0,0,90,false,stim,false,-1,741,1,0,1,24203,task2,252830,false,false,139,image-keyboard-response,21
true,1,2,0,2,true,d,false,true,0.0-2.0-0.2-0.21-3.21,0,0,0,68,false,stim,false,-1,661,1,0,2,24203,task2,255029,false,false,142,image-keyboard-response,22
true,1,1,0,1,true,z,false,true,0.0-2.0-0.2-0.22-3.22,0,0,0,90,false,stim,false,-1,647,1,1,0,24203,task2,257204,false,false,145,image-keyboard-response,23
true,1,1,0,1,true,z,false,false,0.0-2.0-0.2-0.23-3.23,0,0,0,90,false,stim,false,-1,629,1,1,0,24203,task2,259367,false,true,148,image-keyboard-response,24
true,1,2,0,2,true,d,false,false,0.0-2.0-0.2-0.24-3.24,0,0,0,68,false,stim,false,-1,792,1,0,2,24203,task2,261700,false,true,151,image-keyboard-response,25
true,1,1,0,1,true,z,false,true,0.0-2.0-0.2-0.25-3.25,0,0,0,90,false,stim,false,-1,638,1,0,1,24203,task2,263846,false,false,154,image-keyboard-response,26
true,2,0,2,1,false,z,true,false,0.0-2.0-0.2-0.26-3.26,1,0,0,81,true,stim,false,1,1340,1,1,0,24203,task2,266699,false,false,157,image-keyboard-response,1
true,2,1,2,2,false,d,false,false,0.0-2.0-0.3-0.27-3.27,1,0,0,90,false,stim,true,1,712,1,0,1,24203,task2,268953,false,false,160,image-keyboard-response,2
true,2,2,2,1,false,z,true,true,0.0-2.0-0.3-0.28-3.28,1,0,0,68,false,stim,false,1,1107,1,1,0,24203,task2,271575,false,true,163,image-keyboard-response,3
true,2,1,2,2,false,d,false,true,0.0-2.0-0.3-0.29-3.29,1,0,0,90,false,stim,true,1,1116,1,0,1,24203,task2,274221,false,true,166,image-keyboard-response,4
true,2,0,2,0,true,q,false,true,0.0-2.0-0.3-0.30-3.30,1,0,0,81,false,stim,false,2,632,1,0,2,24203,task2,276391,false,false,169,image-keyboard-response,5
true,2,2,2,1,false,z,true,false,0.0-2.0-0.3-0.31-3.31,1,0,0,68,false,stim,false,1,684,1,1,0,24203,task2,278592,false,false,172,image-keyboard-response,6
true,2,1,2,2,false,d,false,false,0.0-2.0-0.3-0.32-3.32,1,0,0,90,false,stim,true,1,795,1,0,1,24203,task2,280915,false,false,175,image-keyboard-response,7
true,2,0,2,0,true,q,false,true,0.0-2.0-0.3-0.33-3.33,1,0,0,81,false,stim,false,2,913,1,0,2,24203,task2,283352,false,false,178,image-keyboard-response,8
true,2,1,2,1,true,z,false,true,0.0-2.0-0.3-0.34-3.34,1,0,0,90,false,stim,false,1,1061,1,1,0,24203,task2,285934,false,false,181,image-keyboard-response,9
true,2,0,2,0,true,q,false,true,0.0-2.0-0.3-0.35-3.35,1,0,0,81,false,stim,false,2,771,1,0,2,24203,task2,288240,false,false,184,image-keyboard-response,10
true,2,0,2,0,true,q,false,true,0.0-2.0-0.4-0.36-3.36,1,0,0,81,false,stim,false,2,602,1,0,2,24203,task2,290373,false,false,187,image-keyboard-response,11
true,2,1,2,1,true,z,false,true,0.0-2.0-0.4-0.37-3.37,1,0,0,90,false,stim,false,1,783,1,1,0,24203,task2,292682,false,false,190,image-keyboard-response,12
true,2,0,2,0,true,q,false,true,0.0-2.0-0.4-0.38-3.38,1,0,0,81,false,stim,false,2,558,1,0,2,24203,task2,294777,false,false,193,image-keyboard-response,13
true,2,0,2,0,true,q,false,true,0.0-2.0-0.4-0.39-3.39,1,0,0,81,false,stim,false,2,598,1,0,2,24203,task2,296917,false,false,196,image-keyboard-response,14
true,2,1,2,2,false,d,false,false,0.0-2.0-0.4-0.40-3.40,1,0,0,90,false,stim,true,1,1189,1,0,1,24203,task2,299647,false,false,199,image-keyboard-response,15
true,2,2,2,2,true,d,false,true,0.0-2.0-0.4-0.41-3.41,1,0,0,68,false,stim,false,1,620,1,0,1,24203,task2,301811,false,false,202,image-keyboard-response,16
true,2,1,2,1,true,z,false,true,0.0-2.0-0.4-0.42-3.42,1,0,0,90,false,stim,false,1,757,1,1,0,24203,task2,304106,false,false,205,image-keyboard-response,17
true,2,1,2,1,true,z,false,true,0.0-2.0-0.4-0.43-3.43,1,0,0,90,false,stim,false,1,1054,1,1,0,24203,task2,306674,false,false,208,image-keyboard-response,18
true,2,2,2,2,true,d,false,true,0.0-2.0-0.4-0.44-3.44,1,0,0,68,false,stim,false,1,496,1,0,1,24203,task2,308696,false,false,211,image-keyboard-response,19
true,2,0,2,0,true,q,false,true,0.0-2.0-0.5-0.45-3.45,1,0,0,81,false,stim,false,2,471,1,0,2,24203,task2,310691,false,false,214,image-keyboard-response,20
true,2,0,2,0,true,q,false,true,0.0-2.0-0.5-0.46-3.46,1,0,0,81,false,stim,false,2,469,1,0,2,24203,task2,312688,false,false,217,image-keyboard-response,21
true,2,1,2,1,true,z,false,true,0.0-2.0-0.5-0.47-3.47,1,0,0,90,false,stim,false,1,653,1,1,0,24203,task2,314872,false,false,220,image-keyboard-response,22
true,2,2,2,2,true,d,false,true,0.0-2.0-0.5-0.48-3.48,1,0,0,68,false,stim,false,1,642,1,0,1,24203,task2,317050,false,false,223,image-keyboard-response,23
true,2,1,2,1,true,z,false,false,0.0-2.0-0.5-0.49-3.49,1,0,0,90,false,stim,false,1,655,1,1,0,24203,task2,319245,false,true,226,image-keyboard-response,24
true,2,1,2,1,true,z,false,true,0.0-2.0-0.5-0.50-3.50,1,0,0,90,false,stim,false,1,443,1,1,0,24203,task2,321220,false,false,229,image-keyboard-response,25
true,2,2,2,2,true,d,false,true,0.0-2.0-0.5-0.51-3.51,1,0,0,68,false,stim,false,1,732,1,0,1,24203,task2,323490,false,false,232,image-keyboard-response,26
true,2,2,2,2,true,d,false,true,0.0-2.0-0.5-0.52-3.52,1,0,0,68,false,stim,false,1,1300,1,0,1,24203,task2,326314,false,false,235,image-keyboard-response,27
true,2,0,2,0,true,q,false,true,0.0-2.0-0.5-0.53-3.53,1,0,0,81,false,stim,false,2,709,1,0,2,24203,task2,328557,false,false,238,image-keyboard-response,28
true,2,1,2,1,true,z,false,true,0.0-2.0-0.6-0.54-3.54,1,0,0,90,false,stim,false,1,615,1,1,0,24203,task2,330695,false,false,241,image-keyboard-response,29
true,2,1,2,1,true,z,false,true,0.0-2.0-0.6-0.55-3.55,1,0,0,90,false,stim,false,1,768,1,1,0,24203,task2,332987,false,false,244,image-keyboard-response,30
true,2,1,2,1,true,z,false,true,0.0-2.0-0.6-0.56-3.56,1,0,0,90,false,stim,false,1,852,1,0,0,24203,task2,335370,false,false,247,image-keyboard-response,31
true,2,0,2,0,true,q,false,true,0.0-2.0-0.6-0.57-3.57,1,0,0,81,false,stim,false,2,1339,1,1,2,24203,task2,338238,false,false,250,image-keyboard-response,32
true,2,2,2,2,true,d,false,true,0.0-2.0-0.6-0.58-3.58,1,0,0,68,false,stim,false,1,772,1,0,1,24203,task2,340550,false,false,253,image-keyboard-response,33
true,2,0,2,0,true,q,false,false,0.0-2.0-0.6-0.59-3.59,1,0,0,81,false,stim,false,2,1092,1,1,2,24203,task2,343179,false,true,256,image-keyboard-response,34
true,2,0,2,0,true,q,false,true,0.0-2.0-0.6-0.60-3.60,1,0,0,81,false,stim,false,2,441,1,1,2,24203,task2,345130,false,false,259,image-keyboard-response,35
true,3,2,2,1,false,z,false,true,0.0-2.0-0.6-0.61-3.61,0,0,1,68,true,stim,true,2,1030,1,0,1,24203,task2,347690,false,true,262,image-keyboard-response,1
true,3,2,2,1,false,z,false,false,0.0-2.0-0.6-0.62-3.62,0,0,1,68,false,stim,true,2,616,1,0,1,24203,task2,349834,false,false,265,image-keyboard-response,2
true,3,2,2,1,false,z,false,false,0.0-2.0-0.7-0.63-3.63,0,0,1,68,false,stim,true,2,470,1,0,1,24203,task2,351840,false,false,268,image-keyboard-response,3
true,3,1,2,2,false,d,false,false,0.0-2.0-0.7-0.64-3.64,0,0,1,90,false,stim,true,1,1043,1,0,0,24203,task2,354412,false,false,271,image-keyboard-response,4
true,3,0,2,0,true,q,false,true,0.0-2.0-0.7-0.65-3.65,0,0,1,81,false,stim,false,0,674,1,1,2,24203,task2,356613,false,false,274,image-keyboard-response,5
true,3,1,2,1,true,z,false,true,0.0-2.0-0.7-0.66-3.66,0,0,1,90,false,stim,false,2,588,1,0,1,24203,task2,358726,false,false,277,image-keyboard-response,6
true,3,1,2,2,false,d,false,false,0.0-2.0-0.7-0.67-3.67,0,0,1,90,false,stim,true,1,1288,1,0,0,24203,task2,361539,false,false,280,image-keyboard-response,7
true,3,1,2,1,true,z,false,true,0.0-2.0-0.7-0.68-3.68,0,0,1,90,false,stim,false,2,1034,1,0,1,24203,task2,364105,false,false,283,image-keyboard-response,8
true,3,0,2,0,true,q,false,true,0.0-2.0-0.7-0.69-3.69,0,0,1,81,false,stim,false,0,649,1,1,2,24203,task2,366267,false,false,286,image-keyboard-response,9
true,3,0,2,0,true,q,false,true,0.0-2.0-0.7-0.70-3.70,0,0,1,81,false,stim,false,0,1733,1,1,2,24203,task2,369532,false,false,289,image-keyboard-response,10
true,3,2,2,2,true,d,false,true,0.0-2.0-0.7-0.71-3.71,0,0,1,68,false,stim,false,1,2005,1,0,0,24203,task2,373075,false,false,292,image-keyboard-response,11
true,3,2,2,2,true,d,false,true,0.0-2.0-0.8-0.72-3.72,0,0,1,68,false,stim,false,1,532,1,0,0,24203,task2,375141,false,false,295,image-keyboard-response,12
true,3,0,2,0,true,q,false,true,0.0-2.0-0.8-0.73-3.73,0,0,1,81,false,stim,false,0,908,1,1,2,24203,task2,377577,false,false,298,image-keyboard-response,13
true,3,1,2,1,true,z,false,true,0.0-2.0-0.8-0.74-3.74,0,0,1,90,false,stim,false,2,714,1,0,1,24203,task2,379832,false,false,301,image-keyboard-response,14
true,3,1,2,1,true,z,false,true,0.0-2.0-0.8-0.75-3.75,0,0,1,90,false,stim,false,2,529,1,0,1,24203,task2,381890,false,false,304,image-keyboard-response,15
true,3,2,2,2,true,d,false,true,0.0-2.0-0.8-0.76-3.76,0,0,1,68,false,stim,false,1,606,1,0,0,24203,task2,384025,false,false,307,image-keyboard-response,16
true,3,2,2,2,true,d,false,true,0.0-2.0-0.8-0.77-3.77,0,0,1,68,false,stim,false,1,637,1,0,0,24203,task2,386189,false,false,310,image-keyboard-response,17
true,3,0,2,0,true,q,false,true,0.0-2.0-0.8-0.78-3.78,0,0,1,81,false,stim,false,0,813,1,1,2,24203,task2,388543,false,false,313,image-keyboard-response,18
true,3,1,2,1,true,z,false,true,0.0-2.0-0.8-0.79-3.79,0,0,1,90,false,stim,false,2,614,1,0,1,24203,task2,390691,false,false,316,image-keyboard-response,19
true,3,2,2,0,false,q,true,false,0.0-2.0-0.8-0.80-3.80,0,0,1,68,false,stim,false,0,579,1,1,2,24203,task2,392800,false,false,319,image-keyboard-response,20
true,3,1,2,2,false,d,false,false,0.0-2.0-0.9-0.81-3.81,0,0,1,90,false,stim,true,1,1971,1,0,0,24203,task2,396310,false,false,322,image-keyboard-response,21
true,3,1,2,0,false,q,true,false,0.0-2.0-0.9-0.82-3.82,0,0,1,90,false,stim,false,0,555,1,1,2,24203,task2,398402,false,false,325,image-keyboard-response,22
true,3,2,2,2,true,d,false,true,0.0-2.0-0.9-0.83-3.83,0,0,1,68,false,stim,false,1,740,1,0,0,24203,task2,400668,false,false,328,image-keyboard-response,23
true,3,1,2,0,false,q,true,false,0.0-2.0-0.9-0.84-3.84,0,0,1,90,false,stim,false,0,1098,1,1,2,24203,task2,403306,false,false,331,image-keyboard-response,24
true,3,0,2,1,false,z,true,true,0.0-2.0-0.9-0.85-3.85,0,0,1,81,false,stim,false,2,889,1,0,1,24203,task2,405718,false,true,334,image-keyboard-response,25
true,3,0,2,1,false,z,true,false,0.0-2.0-0.9-0.86-3.86,0,0,1,81,false,stim,false,2,548,1,0,1,24203,task2,407796,false,false,337,image-keyboard-response,26
true,3,0,2,0,true,q,false,true,0.0-2.0-0.9-0.87-3.87,0,0,1,81,false,stim,false,0,1176,1,1,2,24203,task2,410506,false,false,340,image-keyboard-response,27
true,3,1,2,1,true,z,false,true,0.0-2.0-0.9-0.88-3.88,0,0,1,90,false,stim,false,2,1161,1,0,1,24203,task2,413201,false,false,343,image-keyboard-response,28
true,3,2,2,2,true,d,false,true,0.0-2.0-0.9-0.89-3.89,0,0,1,68,false,stim,false,1,693,1,1,0,24203,task2,415432,false,false,346,image-keyboard-response,29
true,3,0,2,0,true,q,false,true,0.0-2.0-0.10-0.90-3.90,0,0,1,81,false,stim,false,0,683,1,0,2,24203,task2,417653,false,false,349,image-keyboard-response,30
true,3,1,2,1,true,z,false,true,0.0-2.0-0.10-0.91-3.91,0,0,1,90,false,stim,false,2,437,1,0,1,24203,task2,419625,false,false,352,image-keyboard-response,31
true,3,1,2,1,true,z,false,true,0.0-2.0-0.10-0.92-3.92,0,0,1,90,false,stim,false,2,841,1,0,1,24203,task2,422000,false,false,355,image-keyboard-response,32
true,3,2,2,2,true,d,false,true,0.0-2.0-0.10-0.93-3.93,0,0,1,68,false,stim,false,1,887,1,1,0,24203,task2,424425,false,false,358,image-keyboard-response,33
true,4,2,2,2,true,d,false,true,0.0-2.0-0.10-0.94-3.94,1,0,0,68,true,stim,false,2,433,1,1,0,24203,task2,426383,false,false,361,image-keyboard-response,1
true,4,2,2,2,true,d,false,true,0.0-2.0-0.10-0.95-3.95,1,0,0,68,false,stim,false,2,453,1,1,0,24203,task2,428363,false,false,364,image-keyboard-response,2
true,4,0,2,1,false,z,false,false,0.0-2.0-0.10-0.96-3.96,1,0,0,81,false,stim,true,0,624,1,0,2,24203,task2,430511,false,false,367,image-keyboard-response,3
true,4,0,2,1,false,z,false,false,0.0-2.0-0.10-0.97-3.97,1,0,0,81,false,stim,true,0,515,1,0,2,24203,task2,432553,false,false,370,image-keyboard-response,4
true,4,1,2,0,false,q,false,false,0.0-2.0-0.10-0.98-3.98,1,0,0,90,false,stim,true,1,856,1,0,1,24203,task2,434936,false,false,373,image-keyboard-response,5
true,4,2,2,2,true,d,false,true,0.0-2.0-0.11-0.99-3.99,1,0,0,68,false,stim,false,2,932,1,1,0,24203,task2,437400,false,false,376,image-keyboard-response,6
true,4,0,2,0,true,q,false,true,0.0-2.0-0.11-0.100-3.100,1,0,0,81,false,stim,false,1,486,1,0,1,24203,task2,439414,false,false,379,image-keyboard-response,7
true,4,0,2,0,true,q,false,false,0.0-2.0-0.11-0.101-3.101,1,0,0,81,false,stim,false,1,459,1,0,1,24203,task2,441388,false,true,382,image-keyboard-response,8
true,4,2,2,2,true,d,false,true,0.0-2.0-0.11-0.102-3.102,1,0,0,68,false,stim,false,2,844,1,1,0,24203,task2,443771,false,false,385,image-keyboard-response,9
true,4,1,2,1,true,z,false,true,0.0-2.0-0.11-0.103-3.103,1,0,0,90,false,stim,false,0,1079,1,0,2,24203,task2,446373,false,false,388,image-keyboard-response,10
true,4,2,2,2,true,d,false,true,0.0-2.0-0.11-0.104-3.104,1,0,0,68,false,stim,false,2,673,1,1,0,24203,task2,448572,false,false,391,image-keyboard-response,11
true,4,1,2,1,true,z,false,true,0.0-2.0-0.11-0.105-3.105,1,0,0,90,false,stim,false,0,1161,1,0,2,24203,task2,451269,false,false,394,image-keyboard-response,12
true,4,0,2,0,true,q,false,true,0.0-2.0-0.11-0.106-3.106,1,0,0,81,false,stim,false,1,961,1,0,1,24203,task2,453759,false,false,397,image-keyboard-response,13
true,4,1,2,1,true,z,false,true,0.0-2.0-0.11-0.107-3.107,1,0,0,90,false,stim,false,0,690,1,0,2,24203,task2,455985,false,false,400,image-keyboard-response,14
true,4,0,2,0,true,q,false,false,0.0-2.0-0.12-0.108-3.108,1,0,0,81,false,stim,false,1,910,1,0,1,24203,task2,458438,false,true,403,image-keyboard-response,15
true,4,2,2,2,true,d,false,true,0.0-2.0-0.12-0.109-3.109,1,0,0,68,false,stim,false,2,630,1,1,0,24203,task2,460599,false,false,406,image-keyboard-response,16
true,4,0,2,0,true,q,false,true,0.0-2.0-0.12-0.110-3.110,1,0,0,81,false,stim,false,1,871,1,0,1,24203,task2,463001,false,false,409,image-keyboard-response,17
true,4,1,2,1,true,z,false,true,0.0-2.0-0.12-0.111-3.111,1,0,0,90,false,stim,false,0,794,1,0,2,24203,task2,465315,false,false,412,image-keyboard-response,18
true,4,0,2,0,true,q,false,true,0.0-2.0-0.12-0.112-3.112,1,0,0,81,false,stim,false,1,1078,1,0,1,24203,task2,467928,false,false,415,image-keyboard-response,19
true,4,1,2,1,true,z,false,true,0.0-2.0-0.12-0.113-3.113,1,0,0,90,false,stim,false,0,667,1,0,2,24203,task2,470136,false,false,418,image-keyboard-response,20
true,4,2,2,2,true,d,false,true,0.0-2.0-0.12-0.114-3.114,1,0,0,68,false,stim,false,2,440,1,1,0,24203,task2,472118,false,false,421,image-keyboard-response,21
true,4,2,2,2,true,d,false,false,0.0-2.0-0.12-0.115-3.115,1,0,0,68,false,stim,false,2,557,1,1,0,24203,task2,474215,false,true,424,image-keyboard-response,22
true,4,1,2,1,true,z,false,true,0.0-2.0-0.12-0.116-3.116,1,0,0,90,false,stim,false,0,1177,1,0,2,24203,task2,476906,false,false,427,image-keyboard-response,23
true,4,1,2,2,false,d,true,true,0.0-2.0-0.13-0.117-3.117,1,0,0,90,false,stim,false,2,1507,1,1,0,24203,task2,479955,false,true,430,image-keyboard-response,24
true,4,1,2,2,false,d,true,true,0.0-2.0-0.13-0.118-3.118,1,0,0,90,false,stim,false,2,727,1,1,0,24203,task2,482215,false,true,433,image-keyboard-response,25
true,4,0,2,0,true,q,false,true,0.0-2.0-0.13-0.119-3.119,1,0,0,81,false,stim,false,1,676,1,0,1,24203,task2,484426,false,false,436,image-keyboard-response,26
true,4,1,2,1,true,z,false,true,0.0-2.0-0.13-0.120-3.120,1,0,0,90,false,stim,false,0,874,1,0,2,24203,task2,486824,false,false,439,image-keyboard-response,27
true,4,1,2,1,true,z,false,true,0.0-2.0-0.13-0.121-3.121,1,0,0,90,false,stim,false,0,705,1,0,2,24203,task2,489054,false,false,442,image-keyboard-response,28
true,4,0,2,0,true,q,false,true,0.0-2.0-0.13-0.122-3.122,1,0,0,81,false,stim,false,1,2190,1,1,1,24203,task2,492769,false,false,445,image-keyboard-response,29
true,4,2,2,2,true,d,false,true,0.0-2.0-0.13-0.123-3.123,1,0,0,68,false,stim,false,2,1290,1,0,0,24203,task2,495589,false,false,448,image-keyboard-response,30
true,4,0,2,0,true,q,false,false,0.0-2.0-0.13-0.124-3.124,1,0,0,81,false,stim,false,1,603,1,1,1,24203,task2,497732,false,true,451,image-keyboard-response,31
true,4,1,2,1,true,z,false,true,0.0-2.0-0.13-0.125-3.125,1,0,0,90,false,stim,false,0,681,1,0,2,24203,task2,499950,false,false,454,image-keyboard-response,32
true,4,1,2,0,false,q,false,false,0.0-2.0-0.14-0.126-3.126,1,0,0,90,false,stim,true,1,526,1,1,1,24203,task2,502005,false,false,457,image-keyboard-response,33
true,5,2,2,1,false,z,false,false,0.0-2.0-0.14-0.127-3.127,0,1,0,68,true,stim,true,2,583,1,0,0,24203,task2,504123,false,false,460,image-keyboard-response,1
true,5,0,2,2,false,d,true,false,0.0-2.0-0.14-0.128-3.128,0,1,0,81,false,stim,false,1,2127,1,0,2,24203,task2,507764,false,false,463,image-keyboard-response,2
true,5,2,2,2,true,d,false,true,0.0-2.0-0.14-0.129-3.129,0,1,0,68,false,stim,false,1,546,1,0,2,24203,task2,509845,false,false,466,image-keyboard-response,3
true,5,1,2,1,true,z,false,true,0.0-2.0-0.14-0.130-3.130,0,1,0,90,false,stim,false,2,1550,1,0,0,24203,task2,512930,false,false,469,image-keyboard-response,4
true,5,1,2,0,false,q,true,false,0.0-2.0-0.14-0.131-3.131,0,1,0,90,false,stim,false,0,1435,1,1,1,24203,task2,515894,false,false,472,image-keyboard-response,5
true,5,2,2,0,false,q,true,false,0.0-2.0-0.14-0.132-3.132,0,1,0,68,false,stim,false,0,490,1,1,1,24203,task2,517909,false,false,475,image-keyboard-response,6
true,5,1,2,1,true,z,false,true,0.0-2.0-0.14-0.133-3.133,0,1,0,90,false,stim,false,2,1218,1,0,0,24203,task2,520658,false,false,478,image-keyboard-response,7
true,5,2,2,2,true,d,false,true,0.0-2.0-0.14-0.134-3.134,0,1,0,68,false,stim,false,1,441,1,0,2,24203,task2,522639,false,false,481,image-keyboard-response,8
true,5,2,2,2,true,d,false,true,0.0-2.0-0.15-0.135-3.135,0,1,0,68,false,stim,false,1,2834,1,0,2,24203,task2,527014,false,false,484,image-keyboard-response,9
true,5,1,2,1,true,z,false,true,0.0-2.0-0.15-0.136-3.136,0,1,0,90,false,stim,false,2,502,1,0,0,24203,task2,529051,false,false,487,image-keyboard-response,10
true,5,1,2,1,true,z,false,true,0.0-2.0-0.15-0.137-3.137,0,1,0,90,false,stim,false,2,611,1,0,0,24203,task2,531190,false,false,490,image-keyboard-response,11
true,5,2,2,2,true,d,false,true,0.0-2.0-0.15-0.138-3.138,0,1,0,68,false,stim,false,1,453,1,0,2,24203,task2,533173,false,false,493,image-keyboard-response,12
true,5,0,2,0,true,q,false,true,0.0-2.0-0.15-0.139-3.139,0,1,0,81,false,stim,false,0,659,1,1,1,24203,task2,535357,false,false,496,image-keyboard-response,13
true,5,1,2,1,true,z,false,true,0.0-2.0-0.15-0.140-3.140,0,1,0,90,false,stim,false,2,757,1,0,0,24203,task2,537645,false,false,499,image-keyboard-response,14
true,5,0,2,0,true,q,false,true,0.0-2.0-0.15-0.141-3.141,0,1,0,81,false,stim,false,0,614,1,1,1,24203,task2,539783,false,false,502,image-keyboard-response,15
true,5,2,2,2,true,d,false,false,0.0-2.0-0.15-0.142-3.142,0,1,0,68,false,stim,false,1,946,1,0,2,24203,task2,542265,false,true,505,image-keyboard-response,16
true,5,0,2,0,true,q,false,true,0.0-2.0-0.15-0.143-3.143,0,1,0,81,false,stim,false,0,711,1,1,1,24203,task2,544501,false,false,508,image-keyboard-response,17
true,5,1,2,1,true,z,false,true,0.0-2.0-0.16-0.144-3.144,0,1,0,90,false,stim,false,2,447,1,0,0,24203,task2,546467,false,false,511,image-keyboard-response,18
true,5,1,2,1,true,z,false,true,0.0-2.0-0.16-0.145-3.145,0,1,0,90,false,stim,false,2,687,1,0,0,24203,task2,548675,false,false,514,image-keyboard-response,19
true,5,0,2,0,true,q,false,true,0.0-2.0-0.16-0.146-3.146,0,1,0,81,false,stim,false,0,698,1,1,1,24203,task2,550905,false,false,517,image-keyboard-response,20
true,5,1,2,1,true,z,false,true,0.0-2.0-0.16-0.147-3.147,0,1,0,90,false,stim,false,2,532,1,0,0,24203,task2,552971,false,false,520,image-keyboard-response,21
true,5,0,2,0,true,q,false,true,0.0-2.0-0.16-0.148-3.148,0,1,0,81,false,stim,false,0,839,1,1,1,24203,task2,555336,false,false,523,image-keyboard-response,22
true,5,0,2,0,true,q,false,true,0.0-2.0-0.16-0.149-3.149,0,1,0,81,false,stim,false,0,548,1,1,1,24203,task2,557416,false,false,526,image-keyboard-response,23
true,5,2,2,2,true,d,false,false,0.0-2.0-0.16-0.150-3.150,0,1,0,68,false,stim,false,1,781,1,0,2,24203,task2,559730,false,true,529,image-keyboard-response,24
true,5,1,2,2,false,d,false,false,0.0-2.0-0.16-0.151-3.151,0,1,0,90,false,stim,true,1,622,1,0,2,24203,task2,561891,false,false,532,image-keyboard-response,25
true,5,0,2,2,false,d,true,false,0.0-2.0-0.16-0.152-3.152,0,1,0,81,false,stim,false,1,486,1,0,2,24203,task2,563915,false,false,535,image-keyboard-response,26
true,5,1,2,1,true,z,false,true,0.0-2.0-0.17-0.153-3.153,0,1,0,90,false,stim,false,2,1048,1,0,0,24203,task2,566477,false,false,538,image-keyboard-response,27
true,5,0,2,0,true,q,false,true,0.0-2.0-0.17-0.154-3.154,0,1,0,81,false,stim,false,0,671,1,1,1,24203,task2,568689,false,false,541,image-keyboard-response,28
true,5,1,2,2,false,d,false,false,0.0-2.0-0.17-0.155-3.155,0,1,0,90,false,stim,true,1,998,1,0,2,24203,task2,571207,false,false,544,image-keyboard-response,29
true,5,2,2,2,true,d,false,true,0.0-2.0-0.17-0.156-3.156,0,1,0,68,false,stim,false,1,941,1,0,2,24203,task2,573679,false,false,547,image-keyboard-response,30
true,5,0,2,0,true,q,false,true,0.0-2.0-0.17-0.157-3.157,0,1,0,81,false,stim,false,0,519,1,0,1,24203,task2,575735,false,false,550,image-keyboard-response,31
true,5,0,2,0,true,q,false,true,0.0-2.0-0.17-0.158-3.158,0,1,0,81,false,stim,false,0,631,1,0,1,24203,task2,577909,false,false,553,image-keyboard-response,32
true,5,2,2,2,true,d,false,true,0.0-2.0-0.17-0.159-3.159,0,1,0,68,false,stim,false,1,766,1,0,2,24203,task2,580204,false,false,556,image-keyboard-response,33
true,5,1,2,1,true,z,false,false,0.0-2.0-0.17-0.160-3.160,0,1,0,90,false,stim,false,2,881,1,0,0,24203,task2,582609,false,true,559,image-keyboard-response,34
true,6,0,1,0,true,q,false,true,0.0-2.0-0.17-0.161-3.161,0,0,0,81,true,stim,false,1,1082,1,0,0,24203,task2,585222,false,false,562,image-keyboard-response,1
true,6,0,1,1,false,z,false,false,0.0-2.0-0.18-0.162-3.162,0,0,0,81,false,stim,true,0,702,1,0,1,24203,task2,587460,false,false,565,image-keyboard-response,2
true,6,0,1,0,true,q,false,true,0.0-2.0-0.18-0.163-3.163,0,0,0,81,false,stim,false,1,627,1,0,0,24203,task2,589625,false,false,568,image-keyboard-response,3
true,6,2,1,1,false,z,false,false,0.0-2.0-0.18-0.164-3.164,0,0,0,68,false,stim,true,2,1022,1,0,2,24203,task2,592169,false,false,571,image-keyboard-response,4
true,6,1,1,1,true,z,false,true,0.0-2.0-0.18-0.165-3.165,0,0,0,90,false,stim,false,0,1400,1,0,1,24203,task2,595108,false,false,574,image-keyboard-response,5
true,6,1,1,1,true,z,false,true,0.0-2.0-0.18-0.166-3.166,0,0,0,90,false,stim,false,2,622,1,0,2,24203,task2,597258,false,false,577,image-keyboard-response,6
true,6,0,1,0,true,q,false,false,0.0-2.0-0.18-0.167-3.167,0,0,0,81,false,stim,false,1,573,1,0,0,24203,task2,599370,false,true,580,image-keyboard-response,7
true,6,1,1,1,true,z,false,true,0.0-2.0-0.18-0.168-3.168,0,0,0,90,false,stim,false,0,666,1,0,1,24203,task2,601556,false,false,583,image-keyboard-response,8
true,6,1,1,0,false,q,false,false,0.0-2.0-0.18-0.169-3.169,0,0,0,90,false,stim,true,1,1162,1,0,0,24203,task2,604260,false,false,586,image-keyboard-response,9
true,6,1,1,1,true,z,false,true,0.0-2.0-0.18-0.170-3.170,0,0,0,90,false,stim,false,2,749,1,0,2,24203,task2,606537,false,false,589,image-keyboard-response,10
true,6,1,1,1,true,z,false,true,0.0-2.0-0.19-0.171-3.171,0,0,0,90,false,stim,false,2,591,1,0,2,24203,task2,608658,false,false,592,image-keyboard-response,11
true,6,2,1,0,false,q,true,false,0.0-2.0-0.19-0.172-3.172,0,0,0,68,false,stim,false,1,1265,1,0,0,24203,task2,611454,false,false,595,image-keyboard-response,12
true,6,1,1,1,true,z,false,true,0.0-2.0-0.19-0.173-3.173,0,0,0,90,false,stim,false,2,628,1,0,2,24203,task2,613606,false,false,598,image-keyboard-response,13
true,6,1,1,1,true,z,false,true,0.0-2.0-0.19-0.174-3.174,0,0,0,90,false,stim,false,0,487,1,0,1,24203,task2,615631,false,false,601,image-keyboard-response,14
true,6,1,1,1,true,z,false,false,0.0-2.0-0.19-0.175-3.175,0,0,0,90,false,stim,false,0,736,1,0,1,24203,task2,617904,false,true,604,image-keyboard-response,15
true,6,0,1,0,true,q,false,true,0.0-2.0-0.19-0.176-3.176,0,0,0,81,false,stim,false,1,1052,1,0,0,24203,task2,620482,false,false,607,image-keyboard-response,16
true,6,0,1,0,true,q,false,true,0.0-2.0-0.19-0.177-3.177,0,0,0,81,false,stim,false,1,513,1,0,0,24203,task2,622532,false,false,610,image-keyboard-response,17
true,6,1,1,1,true,z,false,true,0.0-2.0-0.19-0.178-3.178,0,0,0,90,false,stim,false,2,1112,1,0,2,24203,task2,625169,false,false,613,image-keyboard-response,18
true,6,2,1,1,false,z,true,false,0.0-2.0-0.19-0.179-3.179,0,0,0,68,false,stim,false,0,919,1,0,1,24203,task2,627619,false,false,616,image-keyboard-response,19
true,6,0,1,0,true,q,false,true,0.0-2.0-0.20-0.180-3.180,0,0,0,81,false,stim,false,1,857,1,0,0,24203,task2,630003,false,false,619,image-keyboard-response,20
true,6,1,1,1,true,z,false,true,0.0-2.0-0.20-0.181-3.181,0,0,0,90,false,stim,false,2,437,1,0,2,24203,task2,631963,false,false,622,image-keyboard-response,21
true,6,0,1,0,true,q,false,true,0.0-2.0-0.20-0.182-3.182,0,0,0,81,false,stim,false,1,627,1,0,0,24203,task2,634115,false,false,625,image-keyboard-response,22
true,6,1,1,1,true,z,false,true,0.0-2.0-0.20-0.183-3.183,0,0,0,90,false,stim,false,0,617,1,0,1,24203,task2,636256,false,false,628,image-keyboard-response,23
true,6,1,1,1,true,z,false,true,0.0-2.0-0.20-0.184-3.184,0,0,0,90,false,stim,false,2,680,1,0,2,24203,task2,638478,false,false,631,image-keyboard-response,24
true,6,1,1,1,true,z,false,true,0.0-2.0-0.20-0.185-3.185,0,0,0,90,false,stim,false,0,883,1,0,1,24203,task2,640900,false,false,634,image-keyboard-response,25
true,6,1,1,1,true,z,false,true,0.0-2.0-0.20-0.186-3.186,0,0,0,90,false,stim,false,0,640,1,0,1,24203,task2,643069,false,false,637,image-keyboard-response,26
true,6,1,1,1,true,z,false,true,0.0-2.0-0.20-0.187-3.187,0,0,0,90,false,stim,false,2,781,1,0,2,24203,task2,645381,false,false,640,image-keyboard-response,27
true,6,0,1,0,true,q,false,true,0.0-2.0-0.20-0.188-3.188,0,0,0,81,false,stim,false,1,444,1,0,0,24203,task2,647353,false,false,643,image-keyboard-response,28
true,6,1,1,1,true,z,false,true,0.0-2.0-0.21-0.189-3.189,0,0,0,90,false,stim,false,0,505,1,0,1,24203,task2,649369,false,false,646,image-keyboard-response,29
true,6,1,1,1,true,z,false,true,0.0-2.0-0.21-0.190-3.190,0,0,0,90,false,stim,false,2,1187,1,0,2,24203,task2,652086,false,false,649,image-keyboard-response,30
true,6,1,1,1,true,z,false,true,0.0-2.0-0.21-0.191-3.191,0,0,0,90,false,stim,false,2,550,1,0,2,24203,task2,654169,false,false,652,image-keyboard-response,31
true,6,1,1,1,true,z,false,false,0.0-2.0-0.21-0.192-3.192,0,0,0,90,false,stim,false,0,524,1,0,1,24203,task2,656212,false,true,655,image-keyboard-response,32
true,6,0,1,0,true,q,false,true,0.0-2.0-0.21-0.193-3.193,0,0,0,81,false,stim,false,1,884,1,0,0,24203,task2,658623,false,false,658,image-keyboard-response,33
true,6,0,1,0,true,q,false,true,0.0-2.0-0.21-0.194-3.194,0,0,0,81,false,stim,false,1,659,1,0,0,24203,task2,660818,false,false,661,image-keyboard-response,34
true,6,0,1,0,true,q,false,true,0.0-2.0-0.21-0.195-3.195,0,0,0,81,false,stim,false,1,494,1,0,0,24203,task2,662842,false,false,664,image-keyboard-response,35
true,6,2,1,1,false,z,true,false,0.0-2.0-0.21-0.196-3.196,0,0,0,68,false,stim,false,0,760,1,0,1,24203,task2,665128,false,false,667,image-keyboard-response,36
true,6,1,1,1,true,z,false,true,0.0-2.0-0.21-0.197-3.197,0,0,0,90,false,stim,false,2,937,1,0,2,24203,task2,667595,false,false,670,image-keyboard-response,37
true,6,0,1,0,true,q,false,true,0.0-2.0-0.22-0.198-3.198,0,0,0,81,false,stim,false,1,534,1,0,0,24203,task2,669652,false,false,673,image-keyboard-response,38
true,7,1,1,0,false,q,false,false,0.0-2.0-0.22-0.199-3.199,0,0,0,90,true,stim,true,1,813,1,0,1,24203,task2,671980,false,false,676,image-keyboard-response,1
true,7,0,1,0,true,q,false,true,0.0-2.0-0.22-0.200-3.200,0,0,0,81,false,stim,false,1,715,1,0,1,24203,task2,674224,false,false,679,image-keyboard-response,2
true,7,0,1,2,false,d,false,false,0.0-2.0-0.22-0.201-3.201,0,0,0,81,false,stim,true,0,506,1,0,0,24203,task2,676247,false,false,682,image-keyboard-response,3
true,7,1,1,0,false,q,false,false,0.0-2.0-0.22-0.202-3.202,0,0,0,90,false,stim,true,1,870,1,0,2,24203,task2,678650,false,false,685,image-keyboard-response,4
true,7,2,1,0,false,q,true,false,0.0-2.0-0.22-0.203-3.203,0,0,0,68,false,stim,false,1,449,1,0,2,24203,task2,680627,false,false,688,image-keyboard-response,5
true,7,0,1,0,true,q,false,true,0.0-2.0-0.22-0.204-3.204,0,0,0,81,false,stim,false,1,497,1,0,2,24203,task2,682666,false,false,691,image-keyboard-response,6
true,7,0,1,2,false,d,false,false,0.0-2.0-0.22-0.205-3.205,0,0,0,81,false,stim,true,0,555,1,0,0,24203,task2,684743,false,false,694,image-keyboard-response,7
true,7,0,1,0,true,q,false,true,0.0-2.0-0.22-0.206-3.206,0,0,0,81,false,stim,false,1,491,1,0,1,24203,task2,686770,false,false,697,image-keyboard-response,8
true,7,0,1,0,true,q,false,true,0.0-2.0-0.23-0.207-3.207,0,0,0,81,false,stim,false,1,1315,1,0,2,24203,task2,689615,false,false,700,image-keyboard-response,9
true,7,2,1,2,true,d,false,true,0.0-2.0-0.23-0.208-3.208,0,0,0,68,false,stim,false,0,1044,1,0,0,24203,task2,692195,false,false,703,image-keyboard-response,10
true,7,0,1,0,true,q,false,true,0.0-2.0-0.23-0.209-3.209,0,0,0,81,false,stim,false,1,465,1,0,1,24203,task2,694204,false,false,706,image-keyboard-response,11
true,7,0,1,0,true,q,false,true,0.0-2.0-0.23-0.210-3.210,0,0,0,81,false,stim,false,1,590,1,0,2,24203,task2,696313,false,false,709,image-keyboard-response,12
true,7,0,1,0,true,q,false,true,0.0-2.0-0.23-0.211-3.211,0,0,0,81,false,stim,false,1,635,1,0,1,24203,task2,698475,false,false,712,image-keyboard-response,13
true,7,0,1,0,true,q,false,true,0.0-2.0-0.23-0.212-3.212,0,0,0,81,false,stim,false,1,429,1,0,1,24203,task2,700428,false,false,715,image-keyboard-response,14
true,7,2,1,2,true,d,false,true,0.0-2.0-0.23-0.213-3.213,0,0,0,68,false,stim,false,0,599,1,0,0,24203,task2,702556,false,false,718,image-keyboard-response,15
true,7,2,1,2,true,d,false,true,0.0-2.0-0.23-0.214-3.214,0,0,0,68,false,stim,false,0,709,1,0,0,24203,task2,704797,false,false,721,image-keyboard-response,16
true,7,0,1,0,true,q,false,true,0.0-2.0-0.23-0.215-3.215,0,0,0,81,false,stim,false,1,415,1,0,2,24203,task2,706733,false,false,724,image-keyboard-response,17
true,7,0,1,2,false,d,false,false,0.0-2.0-0.24-0.216-3.216,0,0,0,81,false,stim,true,0,431,1,0,0,24203,task2,708688,false,false,727,image-keyboard-response,18
true,7,2,1,2,true,d,false,true,0.0-2.0-0.24-0.217-3.217,0,0,0,68,false,stim,false,0,355,1,0,0,24203,task2,710572,false,false,730,image-keyboard-response,19
true,7,0,1,0,true,q,false,false,0.0-2.0-0.24-0.218-3.218,0,0,0,81,false,stim,false,1,873,1,0,1,24203,task2,712981,false,true,733,image-keyboard-response,20
true,7,0,1,0,true,q,false,true,0.0-2.0-0.24-0.219-3.219,0,0,0,81,false,stim,false,1,1089,1,0,2,24203,task2,715605,false,false,736,image-keyboard-response,21
true,7,0,1,0,true,q,false,true,0.0-2.0-0.24-0.220-3.220,0,0,0,81,false,stim,false,1,597,1,0,2,24203,task2,717745,false,false,739,image-keyboard-response,22
true,7,0,1,0,true,q,false,true,0.0-2.0-0.24-0.221-3.221,0,0,0,81,false,stim,false,1,561,1,0,2,24203,task2,719848,false,false,742,image-keyboard-response,23
true,7,1,1,0,false,q,false,false,0.0-2.0-0.24-0.222-3.222,0,0,0,90,false,stim,true,1,1224,1,0,1,24203,task2,722602,false,false,745,image-keyboard-response,24
true,7,2,1,2,true,d,false,true,0.0-2.0-0.24-0.223-3.223,0,0,0,68,false,stim,false,0,774,1,0,0,24203,task2,724913,false,false,748,image-keyboard-response,25
true,7,2,1,0,false,q,true,false,0.0-2.0-0.24-0.224-3.224,0,0,0,68,false,stim,false,1,841,1,0,1,24203,task2,727277,false,false,751,image-keyboard-response,26
true,7,2,1,2,true,d,false,true,0.0-2.0-0.25-0.225-3.225,0,0,0,68,false,stim,false,0,1115,1,0,0,24203,task2,729934,false,false,754,image-keyboard-response,27
true,7,0,1,0,true,q,false,true,0.0-2.0-0.25-0.226-3.226,0,0,0,81,false,stim,false,1,467,1,0,1,24203,task2,731915,false,false,757,image-keyboard-response,28
true,7,0,1,0,true,q,false,true,0.0-2.0-0.25-0.227-3.227,0,0,0,81,false,stim,false,1,503,1,0,2,24203,task2,733949,false,false,760,image-keyboard-response,29
true,7,0,1,0,true,q,false,true,0.0-2.0-0.25-0.228-3.228,0,0,0,81,false,stim,false,1,421,1,0,1,24203,task2,735909,false,false,763,image-keyboard-response,30
true,7,0,1,0,true,q,false,true,0.0-2.0-0.25-0.229-3.229,0,0,0,81,false,stim,false,1,375,1,0,1,24203,task2,737823,false,false,766,image-keyboard-response,31
true,7,2,1,2,true,d,false,true,0.0-2.0-0.25-0.230-3.230,0,0,0,68,false,stim,false,0,888,1,1,0,24203,task2,740236,false,false,769,image-keyboard-response,32
true,7,0,1,0,true,q,false,true,0.0-2.0-0.25-0.231-3.231,0,0,0,81,false,stim,false,1,631,1,0,2,24203,task2,742392,false,false,772,image-keyboard-response,33
true,7,2,1,2,true,d,false,true,0.0-2.0-0.25-0.232-3.232,0,0,0,68,false,stim,false,0,1249,1,1,0,24203,task2,745145,false,false,775,image-keyboard-response,34
true,8,0,2,1,false,z,false,false,0.0-2.0-0.25-0.233-3.233,1,0,0,81,true,stim,true,0,631,1,0,2,24203,task2,747297,false,false,778,image-keyboard-response,1
true,8,2,2,2,true,d,false,true,0.0-2.0-0.26-0.234-3.234,1,0,0,68,false,stim,false,2,590,1,1,0,24203,task2,749416,false,false,781,image-keyboard-response,2
true,8,1,2,1,true,z,false,true,0.0-2.0-0.26-0.235-3.235,1,0,0,90,false,stim,false,0,1341,1,0,2,24203,task2,752270,false,false,784,image-keyboard-response,3
true,8,2,2,2,true,d,false,true,0.0-2.0-0.26-0.236-3.236,1,0,0,68,false,stim,false,2,565,1,1,0,24203,task2,754356,false,false,787,image-keyboard-response,4
true,8,2,2,2,true,d,false,true,0.0-2.0-0.26-0.237-3.237,1,0,0,68,false,stim,false,2,596,1,1,0,24203,task2,756463,false,false,790,image-keyboard-response,5
true,8,0,2,1,false,z,false,false,0.0-2.0-0.26-0.238-3.238,1,0,0,81,false,stim,true,0,751,1,0,1,24203,task2,758728,false,false,793,image-keyboard-response,6
true,8,1,2,1,true,z,false,true,0.0-2.0-0.26-0.239-3.239,1,0,0,90,false,stim,false,0,455,1,0,2,24203,task2,760723,false,false,796,image-keyboard-response,7
true,8,1,2,1,true,z,false,true,0.0-2.0-0.26-0.240-3.240,1,0,0,90,false,stim,false,0,511,1,0,1,24203,task2,762768,false,false,799,image-keyboard-response,8
true,8,1,2,1,true,z,false,true,0.0-2.0-0.26-0.241-3.241,1,0,0,90,false,stim,false,0,840,1,0,2,24203,task2,765138,false,false,802,image-keyboard-response,9
true,8,1,2,1,true,z,false,true,0.0-2.0-0.26-0.242-3.242,1,0,0,90,false,stim,false,0,472,1,0,1,24203,task2,767141,false,false,805,image-keyboard-response,10
true,8,1,2,1,true,z,false,false,0.0-2.0-0.27-0.243-3.243,1,0,0,90,false,stim,false,0,673,1,0,1,24203,task2,769343,false,true,808,image-keyboard-response,11
true,8,2,2,2,true,d,false,true,0.0-2.0-0.27-0.244-3.244,1,0,0,68,false,stim,false,2,501,1,1,0,24203,task2,771379,false,false,811,image-keyboard-response,12
true,8,1,2,1,true,z,false,true,0.0-2.0-0.27-0.245-3.245,1,0,0,90,false,stim,false,0,742,1,0,2,24203,task2,773651,false,false,814,image-keyboard-response,13
true,8,2,2,2,true,d,false,true,0.0-2.0-0.27-0.246-3.246,1,0,0,68,false,stim,false,2,759,1,1,0,24203,task2,775949,false,false,817,image-keyboard-response,14
true,8,2,2,2,true,d,false,true,0.0-2.0-0.27-0.247-3.247,1,0,0,68,false,stim,false,2,612,1,1,0,24203,task2,778099,false,false,820,image-keyboard-response,15
true,8,0,2,1,false,z,false,false,0.0-2.0-0.27-0.248-3.248,1,0,0,81,false,stim,true,0,430,1,0,1,24203,task2,780058,false,false,823,image-keyboard-response,16
true,8,2,2,1,false,z,true,false,0.0-2.0-0.27-0.249-3.249,1,0,0,68,false,stim,false,0,795,1,0,1,24203,task2,782373,false,false,826,image-keyboard-response,17
true,8,1,2,1,true,z,false,true,0.0-2.0-0.27-0.250-3.250,1,0,0,90,false,stim,false,0,683,1,0,2,24203,task2,784582,false,false,829,image-keyboard-response,18
true,8,1,2,1,true,z,false,true,0.0-2.0-0.27-0.251-3.251,1,0,0,90,false,stim,false,0,465,1,0,2,24203,task2,786575,false,false,832,image-keyboard-response,19
true,8,2,2,2,true,d,false,true,0.0-2.0-0.28-0.252-3.252,1,0,0,68,false,stim,false,2,604,1,1,0,24203,task2,788712,false,false,835,image-keyboard-response,20
true,8,1,2,1,true,z,false,true,0.0-2.0-0.28-0.253-3.253,1,0,0,90,false,stim,false,0,1034,1,0,2,24203,task2,791283,false,false,838,image-keyboard-response,21
true,8,1,2,1,true,z,false,true,0.0-2.0-0.28-0.254-3.254,1,0,0,90,false,stim,false,0,939,1,0,1,24203,task2,793757,false,false,841,image-keyboard-response,22
true,8,2,2,2,true,d,false,true,0.0-2.0-0.28-0.255-3.255,1,0,0,68,false,stim,false,2,599,1,1,0,24203,task2,795898,false,false,844,image-keyboard-response,23
true,8,1,2,1,true,z,false,true,0.0-2.0-0.28-0.256-3.256,1,0,0,90,false,stim,false,0,489,1,0,2,24203,task2,797926,false,false,847,image-keyboard-response,24
true,8,2,2,2,true,d,false,true,0.0-2.0-0.28-0.257-3.257,1,0,0,68,false,stim,false,2,951,1,1,0,24203,task2,800411,false,false,850,image-keyboard-response,25
true,8,1,2,1,true,z,false,true,0.0-2.0-0.28-0.258-3.258,1,0,0,90,false,stim,false,0,1301,1,0,1,24203,task2,803250,false,false,853,image-keyboard-response,26
true,8,1,2,1,true,z,false,true,0.0-2.0-0.28-0.259-3.259,1,0,0,90,false,stim,false,0,563,1,0,2,24203,task2,805351,false,false,856,image-keyboard-response,27
true,8,1,2,1,true,z,false,false,0.0-2.0-0.28-0.260-3.260,1,0,0,90,false,stim,false,0,771,1,0,1,24203,task2,807637,false,true,859,image-keyboard-response,28
true,8,2,2,2,true,d,false,true,0.0-2.0-0.29-0.261-3.261,1,0,0,68,false,stim,false,2,700,1,0,0,24203,task2,809869,false,false,862,image-keyboard-response,29
true,8,1,2,1,true,z,false,true,0.0-2.0-0.29-0.262-3.262,1,0,0,90,false,stim,false,0,653,1,0,1,24203,task2,812040,false,false,865,image-keyboard-response,30
true,8,1,2,1,true,z,false,true,0.0-2.0-0.29-0.263-3.263,1,0,0,90,false,stim,false,0,977,1,0,2,24203,task2,814545,false,false,868,image-keyboard-response,31
true,9,1,1,0,false,q,false,false,0.0-2.0-0.29-0.264-3.264,0,0,0,90,true,stim,true,1,548,1,0,2,24203,task2,816626,false,false,871,image-keyboard-response,1
true,9,0,1,0,true,q,false,false,0.0-2.0-0.29-0.265-3.265,0,0,0,81,false,stim,false,1,582,1,0,2,24203,task2,818750,false,true,874,image-keyboard-response,2
true,9,2,1,1,false,z,false,false,0.0-2.0-0.29-0.266-3.266,0,0,0,68,false,stim,true,2,567,1,0,0,24203,task2,820855,false,false,877,image-keyboard-response,3
true,9,2,1,1,false,z,false,false,0.0-2.0-0.29-0.267-3.267,0,0,0,68,false,stim,true,2,424,1,0,0,24203,task2,822801,false,false,880,image-keyboard-response,4
true,9,1,1,0,false,q,false,false,0.0-2.0-0.29-0.268-3.268,0,0,0,90,false,stim,true,1,911,1,0,1,24203,task2,825240,false,false,883,image-keyboard-response,5
true,9,0,1,0,true,q,false,true,0.0-2.0-0.29-0.269-3.269,0,0,0,81,false,stim,false,1,565,1,0,1,24203,task2,827344,false,false,886,image-keyboard-response,6
true,9,0,1,0,true,q,false,true,0.0-2.0-0.30-0.270-3.270,0,0,0,81,false,stim,false,1,450,1,0,1,24203,task2,829329,false,false,889,image-keyboard-response,7
true,9,0,1,0,true,q,false,true,0.0-2.0-0.30-0.271-3.271,0,0,0,81,false,stim,false,1,930,1,0,2,24203,task2,831787,false,false,892,image-keyboard-response,8
true,9,0,1,1,false,z,true,true,0.0-2.0-0.30-0.272-3.272,0,0,0,81,false,stim,false,2,930,1,0,0,24203,task2,834257,false,true,895,image-keyboard-response,9
true,9,0,1,0,true,q,false,true,0.0-2.0-0.30-0.273-3.273,0,0,0,81,false,stim,false,1,706,1,0,1,24203,task2,836496,false,false,898,image-keyboard-response,10
true,9,0,1,0,true,q,false,true,0.0-2.0-0.30-0.274-3.274,0,0,0,81,false,stim,false,1,440,1,0,2,24203,task2,838493,false,false,901,image-keyboard-response,11
true,9,0,1,1,false,z,true,false,0.0-2.0-0.30-0.275-3.275,0,0,0,81,false,stim,false,2,409,1,0,0,24203,task2,840426,false,false,904,image-keyboard-response,12
true,9,0,1,0,true,q,false,true,0.0-2.0-0.30-0.276-3.276,0,0,0,81,false,stim,false,1,513,1,0,2,24203,task2,842480,false,false,907,image-keyboard-response,13
true,9,0,1,0,true,q,false,true,0.0-2.0-0.30-0.277-3.277,0,0,0,81,false,stim,false,1,583,1,0,1,24203,task2,844593,false,false,910,image-keyboard-response,14
true,9,2,1,1,false,z,false,false,0.0-2.0-0.30-0.278-3.278,0,0,0,68,false,stim,true,2,418,1,0,0,24203,task2,846541,false,false,913,image-keyboard-response,15
true,9,0,1,0,true,q,false,true,0.0-2.0-0.31-0.279-3.279,0,0,0,81,false,stim,false,1,522,1,0,2,24203,task2,848599,false,false,916,image-keyboard-response,16
true,9,0,1,0,true,q,false,false,0.0-2.0-0.31-0.280-3.280,0,0,0,81,false,stim,false,1,575,1,0,1,24203,task2,850704,false,true,919,image-keyboard-response,17
true,9,1,1,0,false,q,false,false,0.0-2.0-0.31-0.281-3.281,0,0,0,90,false,stim,true,1,829,1,0,1,24203,task2,853068,false,false,922,image-keyboard-response,18
true,9,0,1,0,true,q,false,true,0.0-2.0-0.31-0.282-3.282,0,0,0,81,false,stim,false,1,680,1,0,2,24203,task2,855279,false,false,925,image-keyboard-response,19
true,9,2,1,1,false,z,false,false,0.0-2.0-0.31-0.283-3.283,0,0,0,68,false,stim,true,2,1043,1,0,0,24203,task2,857845,false,false,928,image-keyboard-response,20
true,9,1,1,1,true,z,false,true,0.0-2.0-0.31-0.284-3.284,0,0,0,90,false,stim,false,2,715,1,0,0,24203,task2,860094,false,false,931,image-keyboard-response,21
true,9,0,1,0,true,q,false,true,0.0-2.0-0.31-0.285-3.285,0,0,0,81,false,stim,false,1,726,1,0,2,24203,task2,862354,false,false,934,image-keyboard-response,22
true,9,1,1,0,false,q,false,false,0.0-2.0-0.31-0.286-3.286,0,0,0,90,false,stim,true,1,1015,1,0,1,24203,task2,864901,false,false,937,image-keyboard-response,23
true,9,1,1,1,true,z,false,true,0.0-2.0-0.31-0.287-3.287,0,0,0,90,false,stim,false,2,1043,1,0,0,24203,task2,867461,false,false,940,image-keyboard-response,24
true,9,0,1,0,true,q,false,true,0.0-2.0-0.32-0.288-3.288,0,0,0,81,false,stim,false,1,943,1,0,1,24203,task2,869931,false,false,943,image-keyboard-response,25
true,9,1,1,1,true,z,false,true,0.0-2.0-0.32-0.289-3.289,0,0,0,90,false,stim,false,2,644,1,0,0,24203,task2,872112,false,false,946,image-keyboard-response,26
true,9,0,1,0,true,q,false,true,0.0-2.0-0.32-0.290-3.290,0,0,0,81,false,stim,false,1,398,1,0,2,24203,task2,874037,false,false,949,image-keyboard-response,27
true,9,0,1,0,true,q,false,true,0.0-2.0-0.32-0.291-3.291,0,0,0,81,false,stim,false,1,428,1,0,1,24203,task2,876009,false,false,952,image-keyboard-response,28
true,9,0,1,0,true,q,false,true,0.0-2.0-0.32-0.292-3.292,0,0,0,81,false,stim,false,1,711,1,0,2,24203,task2,878259,false,false,955,image-keyboard-response,29
true,9,0,1,0,true,q,false,true,0.0-2.0-0.32-0.293-3.293,0,0,0,81,false,stim,false,1,702,1,0,2,24203,task2,880489,false,false,958,image-keyboard-response,30
true,9,0,1,0,true,q,false,true,0.0-2.0-0.32-0.294-3.294,0,0,0,81,false,stim,false,1,1838,1,0,1,24203,task2,883857,false,false,961,image-keyboard-response,31
true,9,1,1,1,true,z,false,true,0.0-2.0-0.32-0.295-3.295,0,0,0,90,false,stim,false,2,705,1,0,0,24203,task2,886102,false,false,964,image-keyboard-response,32
true,9,1,1,1,true,z,false,true,0.0-2.0-0.32-0.296-3.296,0,0,0,90,false,stim,false,2,822,1,0,0,24203,task2,888449,false,false,967,image-keyboard-response,33
true,9,0,1,0,true,q,false,true,0.0-2.0-0.33-0.297-3.297,0,0,0,81,false,stim,false,1,768,1,0,1,24203,task2,890757,false,false,970,image-keyboard-response,34
true,9,1,1,1,true,z,false,true,0.0-2.0-0.33-0.298-3.298,0,0,0,90,false,stim,false,2,811,1,1,0,24203,task2,893110,false,false,973,image-keyboard-response,35
true,9,1,1,1,true,z,false,true,0.0-2.0-0.33-0.299-3.299,0,0,0,90,false,stim,false,2,547,1,1,0,24203,task2,895198,false,false,976,image-keyboard-response,36
true,9,0,1,0,true,q,false,true,0.0-2.0-0.33-0.300-3.300,0,0,0,81,false,stim,false,1,742,1,0,2,24203,task2,897471,false,false,979,image-keyboard-response,37
true,9,1,1,1,true,z,false,true,0.0-2.0-0.33-0.301-3.301,0,0,0,90,false,stim,false,2,1472,1,1,0,24203,task2,900482,false,false,982,image-keyboard-response,38
true,10,0,2,1,false,z,false,false,0.0-2.0-0.33-0.302-3.302,1,0,0,81,true,stim,true,0,713,1,0,2,24203,task2,902733,false,false,985,image-keyboard-response,1
true,10,0,2,2,false,d,false,false,0.0-2.0-0.33-0.303-3.303,1,0,0,81,false,stim,true,0,857,1,0,1,24203,task2,905116,false,false,988,image-keyboard-response,2
true,10,0,2,1,false,z,false,false,0.0-2.0-0.33-0.304-3.304,1,0,0,81,false,stim,true,0,624,1,0,2,24203,task2,907262,false,false,991,image-keyboard-response,3
true,10,2,2,2,true,d,false,true,0.0-2.0-0.33-0.305-3.305,1,0,0,68,false,stim,false,0,875,1,0,1,24203,task2,909672,false,false,994,image-keyboard-response,4
true,10,1,2,1,true,z,false,true,0.0-2.0-0.34-0.306-3.306,1,0,0,90,false,stim,false,1,739,1,1,0,24203,task2,911929,false,false,997,image-keyboard-response,5
true,10,2,2,2,true,d,false,true,0.0-2.0-0.34-0.307-3.307,1,0,0,68,false,stim,false,0,414,1,0,1,24203,task2,913873,false,false,1000,image-keyboard-response,6
true,10,1,2,1,true,z,false,true,0.0-2.0-0.34-0.308-3.308,1,0,0,90,false,stim,false,1,425,1,1,0,24203,task2,915843,false,false,1003,image-keyboard-response,7
true,10,2,2,2,true,d,false,false,0.0-2.0-0.34-0.309-3.309,1,0,0,68,false,stim,false,0,578,1,0,1,24203,task2,917947,false,true,1006,image-keyboard-response,8
true,10,1,2,1,true,z,false,true,0.0-2.0-0.34-0.310-3.310,1,0,0,90,false,stim,false,1,640,1,1,0,24203,task2,920129,false,false,1009,image-keyboard-response,9
true,10,2,2,1,false,z,true,false,0.0-2.0-0.34-0.311-3.311,1,0,0,68,false,stim,false,0,1136,1,0,2,24203,task2,922794,false,false,1012,image-keyboard-response,10
true,10,1,2,1,true,z,false,true,0.0-2.0-0.34-0.312-3.312,1,0,0,90,false,stim,false,0,549,1,0,2,24203,task2,924886,false,false,1015,image-keyboard-response,11
true,10,1,2,1,true,z,false,true,0.0-2.0-0.34-0.313-3.313,1,0,0,90,false,stim,false,0,656,1,0,2,24203,task2,927064,false,false,1018,image-keyboard-response,12
true,10,1,2,2,false,d,true,false,0.0-2.0-0.34-0.314-3.314,1,0,0,90,false,stim,false,0,1039,1,0,1,24203,task2,929626,false,false,1021,image-keyboard-response,13
true,10,0,2,2,false,d,false,false,0.0-2.0-0.35-0.315-3.315,1,0,0,81,false,stim,true,0,449,1,0,1,24203,task2,931609,false,false,1024,image-keyboard-response,14
true,10,2,2,2,true,d,false,true,0.0-2.0-0.35-0.316-3.316,1,0,0,68,false,stim,false,0,340,1,0,1,24203,task2,933478,false,false,1027,image-keyboard-response,15
true,10,1,2,1,true,z,false,true,0.0-2.0-0.35-0.317-3.317,1,0,0,90,false,stim,false,0,570,1,0,2,24203,task2,935589,false,false,1030,image-keyboard-response,16
true,10,1,2,1,true,z,false,true,0.0-2.0-0.35-0.318-3.318,1,0,0,90,false,stim,false,1,426,1,1,0,24203,task2,937553,false,false,1033,image-keyboard-response,17
true,10,1,2,1,true,z,false,true,0.0-2.0-0.35-0.319-3.319,1,0,0,90,false,stim,false,1,769,1,1,0,24203,task2,939857,false,false,1036,image-keyboard-response,18
true,10,2,2,1,false,z,true,false,0.0-2.0-0.35-0.320-3.320,1,0,0,68,false,stim,false,0,760,1,0,2,24203,task2,942143,false,false,1039,image-keyboard-response,19
true,10,1,2,1,true,z,false,true,0.0-2.0-0.35-0.321-3.321,1,0,0,90,false,stim,false,0,451,1,0,2,24203,task2,944102,false,false,1042,image-keyboard-response,20
true,10,1,2,1,true,z,false,true,0.0-2.0-0.35-0.322-3.322,1,0,0,90,false,stim,false,1,397,1,1,0,24203,task2,946034,false,false,1045,image-keyboard-response,21
true,10,2,2,2,true,d,false,true,0.0-2.0-0.35-0.323-3.323,1,0,0,68,false,stim,false,0,502,1,0,1,24203,task2,948060,false,false,1048,image-keyboard-response,22
true,10,2,2,2,true,d,false,true,0.0-2.0-0.36-0.324-3.324,1,0,0,68,false,stim,false,0,675,1,0,1,24203,task2,950272,false,false,1051,image-keyboard-response,23
true,10,1,2,1,true,z,false,false,0.0-2.0-0.36-0.325-3.325,1,0,0,90,false,stim,false,0,897,1,0,2,24203,task2,952705,false,true,1054,image-keyboard-response,24
true,10,1,2,1,true,z,false,true,0.0-2.0-0.36-0.326-3.326,1,0,0,90,false,stim,false,1,361,1,1,0,24203,task2,954589,false,false,1057,image-keyboard-response,25
true,10,1,2,1,true,z,false,true,0.0-2.0-0.36-0.327-3.327,1,0,0,90,false,stim,false,0,443,1,0,2,24203,task2,956564,false,false,1060,image-keyboard-response,26
true,10,1,2,1,true,z,false,true,0.0-2.0-0.36-0.328-3.328,1,0,0,90,false,stim,false,1,687,1,0,0,24203,task2,958784,false,false,1063,image-keyboard-response,27
true,10,2,2,2,true,d,false,true,0.0-2.0-0.36-0.329-3.329,1,0,0,68,false,stim,false,0,681,1,0,1,24203,task2,960998,false,false,1066,image-keyboard-response,28
true,10,1,2,1,true,z,false,true,0.0-2.0-0.36-0.330-3.330,1,0,0,90,false,stim,false,0,432,1,0,2,24203,task2,962958,false,false,1069,image-keyboard-response,29
true,10,1,2,1,true,z,false,true,0.0-2.0-0.36-0.331-3.331,1,0,0,90,false,stim,false,1,375,1,0,0,24203,task2,964864,false,false,1072,image-keyboard-response,30
true,10,2,2,2,true,d,false,true,0.0-2.0-0.36-0.332-3.332,1,0,0,68,false,stim,false,0,791,1,0,1,24203,task2,967199,false,false,1075,image-keyboard-response,31
true,11,1,1,0,false,q,false,false,0.0-2.0-0.37-0.333-3.333,0,0,0,90,true,stim,true,1,433,1,0,2,24203,task2,969161,false,false,1078,image-keyboard-response,1
true,11,2,1,1,false,z,false,false,0.0-2.0-0.37-0.334-3.334,0,0,0,68,false,stim,true,2,683,1,0,1,24203,task2,971369,false,false,1081,image-keyboard-response,2
true,11,0,1,0,true,q,false,false,0.0-2.0-0.37-0.335-3.335,0,0,0,81,false,stim,false,1,2412,1,0,2,24203,task2,975304,false,true,1084,image-keyboard-response,3
true,11,1,1,1,true,z,false,false,0.0-2.0-0.37-0.336-3.336,0,0,0,90,false,stim,false,2,1070,1,0,1,24203,task2,977897,false,true,1087,image-keyboard-response,4
true,11,2,1,0,false,q,true,false,0.0-2.0-0.37-0.337-3.337,0,0,0,68,false,stim,false,1,757,1,0,2,24203,task2,980182,false,false,1090,image-keyboard-response,5
true,11,1,1,0,false,q,false,false,0.0-2.0-0.37-0.338-3.338,0,0,0,90,false,stim,true,1,851,1,0,0,24203,task2,982569,false,false,1093,image-keyboard-response,6
true,11,1,1,0,false,q,false,false,0.0-2.0-0.37-0.339-3.339,0,0,0,90,false,stim,true,1,512,1,0,0,24203,task2,984610,false,false,1096,image-keyboard-response,7
true,11,1,1,1,true,z,false,true,0.0-2.0-0.37-0.340-3.340,0,0,0,90,false,stim,false,2,1840,1,0,1,24203,task2,987977,false,false,1099,image-keyboard-response,8
true,11,0,1,0,true,q,false,true,0.0-2.0-0.37-0.341-3.341,0,0,0,81,false,stim,false,1,823,1,0,0,24203,task2,990339,false,false,1102,image-keyboard-response,9
true,11,0,1,0,true,q,false,true,0.0-2.0-0.38-0.342-3.342,0,0,0,81,false,stim,false,1,487,1,0,0,24203,task2,992356,false,false,1105,image-keyboard-response,10
true,11,2,1,0,false,q,true,false,0.0-2.0-0.38-0.343-3.343,0,0,0,68,false,stim,false,1,1102,1,0,2,24203,task2,994991,false,false,1108,image-keyboard-response,11
true,11,0,1,1,false,z,true,true,0.0-2.0-0.38-0.344-3.344,0,0,0,81,false,stim,false,2,868,1,0,1,24203,task2,997384,false,true,1111,image-keyboard-response,12
true,11,0,1,0,true,q,false,true,0.0-2.0-0.38-0.345-3.345,0,0,0,81,false,stim,false,1,1261,1,0,2,24203,task2,1000188,false,false,1114,image-keyboard-response,13
true,11,0,1,1,false,z,true,false,0.0-2.0-0.38-0.346-3.346,0,0,0,81,false,stim,false,2,575,1,0,1,24203,task2,1002294,false,false,1117,image-keyboard-response,14
true,11,1,1,1,true,z,false,true,0.0-2.0-0.38-0.347-3.347,0,0,0,90,false,stim,false,2,432,1,0,1,24203,task2,1004250,false,false,1120,image-keyboard-response,15
true,11,0,1,0,true,q,false,true,0.0-2.0-0.38-0.348-3.348,0,0,0,81,false,stim,false,1,849,1,0,2,24203,task2,1006626,false,false,1123,image-keyboard-response,16
true,11,0,1,0,true,q,false,true,0.0-2.0-0.38-0.349-3.349,0,0,0,81,false,stim,false,1,409,1,0,0,24203,task2,1008567,false,false,1126,image-keyboard-response,17
true,11,0,1,0,true,q,false,true,0.0-2.0-0.38-0.350-3.350,0,0,0,81,false,stim,false,1,552,1,0,0,24203,task2,1010659,false,false,1129,image-keyboard-response,18
true,11,1,1,1,true,z,false,true,0.0-2.0-0.39-0.351-3.351,0,0,0,90,false,stim,false,2,605,1,0,1,24203,task2,1012804,false,false,1132,image-keyboard-response,19
true,11,1,1,0,false,q,false,false,0.0-2.0-0.39-0.352-3.352,0,0,0,90,false,stim,true,1,422,1,0,2,24203,task2,1014760,false,false,1135,image-keyboard-response,20
true,11,0,1,0,true,q,false,false,0.0-2.0-0.39-0.353-3.353,0,0,0,81,false,stim,false,1,429,1,0,0,24203,task2,1016709,false,true,1138,image-keyboard-response,21
true,11,0,1,0,true,q,false,true,0.0-2.0-0.39-0.354-3.354,0,0,0,81,false,stim,false,1,1064,1,0,0,24203,task2,1019312,false,false,1141,image-keyboard-response,22
true,11,2,1,1,false,z,false,false,0.0-2.0-0.39-0.355-3.355,0,0,0,68,false,stim,true,2,1055,1,0,1,24203,task2,1021904,false,false,1144,image-keyboard-response,23
true,11,2,1,0,false,q,true,false,0.0-2.0-0.39-0.356-3.356,0,0,0,68,false,stim,false,1,1042,1,0,2,24203,task2,1024479,false,false,1147,image-keyboard-response,24
true,11,0,1,0,true,q,false,true,0.0-2.0-0.39-0.357-3.357,0,0,0,81,false,stim,false,1,745,1,0,0,24203,task2,1026763,false,false,1150,image-keyboard-response,25
true,11,0,1,1,false,z,true,false,0.0-2.0-0.39-0.358-3.358,0,0,0,81,false,stim,false,2,600,1,0,1,24203,task2,1028898,false,false,1153,image-keyboard-response,26
true,11,0,1,0,true,q,false,true,0.0-2.0-0.39-0.359-3.359,0,0,0,81,false,stim,false,1,554,1,0,2,24203,task2,1030993,false,false,1156,image-keyboard-response,27
true,11,0,1,0,true,q,false,true,0.0-2.0-0.40-0.360-3.360,0,0,0,81,false,stim,false,1,563,1,0,0,24203,task2,1033091,false,false,1159,image-keyboard-response,28
true,11,0,1,0,true,q,false,true,0.0-2.0-0.40-0.361-3.361,0,0,0,81,false,stim,false,1,479,1,0,2,24203,task2,1035108,false,false,1162,image-keyboard-response,29
true,11,0,1,0,true,q,false,true,0.0-2.0-0.40-0.362-3.362,0,0,0,81,false,stim,false,1,553,1,0,2,24203,task2,1037202,false,false,1165,image-keyboard-response,30
true,11,0,1,0,true,q,false,true,0.0-2.0-0.40-0.363-3.363,0,0,0,81,false,stim,false,1,610,1,0,0,24203,task2,1039339,false,false,1168,image-keyboard-response,31
true,11,0,1,0,true,q,false,true,0.0-2.0-0.40-0.364-3.364,0,0,0,81,false,stim,false,1,601,1,0,2,24203,task2,1041470,false,false,1171,image-keyboard-response,32
true,11,1,1,1,true,z,false,true,0.0-2.0-0.40-0.365-3.365,0,0,0,90,false,stim,false,2,573,1,0,1,24203,task2,1043579,false,false,1174,image-keyboard-response,33
true,11,1,1,1,true,z,false,true,0.0-2.0-0.40-0.366-3.366,0,0,0,90,false,stim,false,2,852,1,0,1,24203,task2,1045959,false,false,1177,image-keyboard-response,34
true,11,0,1,0,true,q,false,true,0.0-2.0-0.40-0.367-3.367,0,0,0,81,false,stim,false,1,543,1,0,0,24203,task2,1048042,false,false,1180,image-keyboard-response,35
true,11,1,1,1,true,z,false,true,0.0-2.0-0.40-0.368-3.368,0,0,0,90,false,stim,false,2,941,1,0,1,24203,task2,1050518,false,false,1183,image-keyboard-response,36
true,12,0,1,1,false,z,false,false,0.0-2.0-0.41-0.369-3.369,0,0,0,81,true,stim,true,0,431,1,0,2,24203,task2,1052479,false,false,1186,image-keyboard-response,1
true,12,0,1,1,false,z,false,false,0.0-2.0-0.41-0.370-3.370,0,0,0,81,false,stim,true,0,457,1,0,0,24203,task2,1054464,false,false,1189,image-keyboard-response,2
true,12,1,1,0,false,q,false,false,0.0-2.0-0.41-0.371-3.371,0,0,0,90,false,stim,true,1,497,1,0,1,24203,task2,1056485,false,false,1192,image-keyboard-response,3
true,12,0,1,1,false,z,false,false,0.0-2.0-0.41-0.372-3.372,0,0,0,81,false,stim,true,0,1034,1,0,2,24203,task2,1059063,false,false,1195,image-keyboard-response,4
true,12,2,1,1,false,z,true,false,0.0-2.0-0.41-0.373-3.373,0,0,0,68,false,stim,false,0,910,1,0,2,24203,task2,1061498,false,false,1198,image-keyboard-response,5
true,12,2,1,0,false,q,true,false,0.0-2.0-0.41-0.374-3.374,0,0,0,68,false,stim,false,1,1254,1,0,1,24203,task2,1064308,false,false,1201,image-keyboard-response,6
true,12,0,1,1,false,z,false,false,0.0-2.0-0.41-0.375-3.375,0,0,0,81,false,stim,true,0,912,1,0,0,24203,task2,1066759,false,false,1204,image-keyboard-response,7
true,12,1,1,1,true,z,false,true,0.0-2.0-0.41-0.376-3.376,0,0,0,90,false,stim,false,0,474,1,0,0,24203,task2,1068764,false,false,1207,image-keyboard-response,8
true,12,0,1,0,true,q,false,true,0.0-2.0-0.41-0.377-3.377,0,0,0,81,false,stim,false,1,1666,1,0,1,24203,task2,1071975,false,false,1210,image-keyboard-response,9
true,12,0,1,1,false,z,false,false,0.0-2.0-0.42-0.378-3.378,0,0,0,81,false,stim,true,0,1200,1,0,2,24203,task2,1074719,false,false,1213,image-keyboard-response,10
true,12,0,1,0,true,q,false,true,0.0-2.0-0.42-0.379-3.379,0,0,0,81,false,stim,false,1,983,1,0,1,24203,task2,1077241,false,false,1216,image-keyboard-response,11
true,12,0,1,0,true,q,false,true,0.0-2.0-0.42-0.380-3.380,0,0,0,81,false,stim,false,1,504,1,0,1,24203,task2,1079271,false,false,1219,image-keyboard-response,12
true,12,2,1,1,false,z,true,false,0.0-2.0-0.42-0.381-3.381,0,0,0,68,false,stim,false,0,992,1,0,2,24203,task2,1081799,false,false,1222,image-keyboard-response,13
true,12,0,1,0,true,q,false,true,0.0-2.0-0.42-0.382-3.382,0,0,0,81,false,stim,false,1,755,1,0,1,24203,task2,1084084,false,false,1225,image-keyboard-response,14
true,12,1,1,1,true,z,false,true,0.0-2.0-0.42-0.383-3.383,0,0,0,90,false,stim,false,0,921,1,0,0,24203,task2,1086529,false,false,1228,image-keyboard-response,15
true,12,1,1,1,true,z,false,true,0.0-2.0-0.42-0.384-3.384,0,0,0,90,false,stim,false,0,551,1,0,0,24203,task2,1088607,false,false,1231,image-keyboard-response,16
true,12,1,1,1,true,z,false,true,0.0-2.0-0.42-0.385-3.385,0,0,0,90,false,stim,false,0,459,1,0,0,24203,task2,1090597,false,false,1234,image-keyboard-response,17
true,12,1,1,1,true,z,false,true,0.0-2.0-0.42-0.386-3.386,0,0,0,90,false,stim,false,0,464,1,0,2,24203,task2,1092591,false,false,1237,image-keyboard-response,18
true,12,1,1,1,true,z,false,true,0.0-2.0-0.43-0.387-3.387,0,0,0,90,false,stim,false,0,491,1,0,0,24203,task2,1094619,false,false,1240,image-keyboard-response,19
true,12,0,1,0,true,q,false,false,0.0-2.0-0.43-0.388-3.388,0,0,0,81,false,stim,false,1,680,1,0,1,24203,task2,1096829,false,true,1243,image-keyboard-response,20
true,12,0,1,0,true,q,false,true,0.0-2.0-0.43-0.389-3.389,0,0,0,81,false,stim,false,1,1018,1,0,1,24203,task2,1099377,false,false,1246,image-keyboard-response,21
true,12,0,1,0,true,q,false,true,0.0-2.0-0.43-0.390-3.390,0,0,0,81,false,stim,false,1,807,1,0,1,24203,task2,1101714,false,false,1249,image-keyboard-response,22
true,12,1,1,1,true,z,false,true,0.0-2.0-0.43-0.391-3.391,0,0,0,90,false,stim,false,0,703,1,0,2,24203,task2,1103942,false,false,1252,image-keyboard-response,23
true,12,1,1,1,true,z,false,true,0.0-2.0-0.43-0.392-3.392,0,0,0,90,false,stim,false,0,482,1,0,2,24203,task2,1105960,false,false,1255,image-keyboard-response,24
true,12,1,1,1,true,z,false,true,0.0-2.0-0.43-0.393-3.393,0,0,0,90,false,stim,false,0,403,1,0,0,24203,task2,1107901,false,false,1258,image-keyboard-response,25
true,12,1,1,1,true,z,false,true,0.0-2.0-0.43-0.394-3.394,0,0,0,90,false,stim,false,0,529,1,0,2,24203,task2,1109958,false,false,1261,image-keyboard-response,26
true,12,1,1,1,true,z,false,false,0.0-2.0-0.43-0.395-3.395,0,0,0,90,false,stim,false,0,372,1,0,0,24203,task2,1111858,false,true,1264,image-keyboard-response,27
true,12,1,1,1,true,z,false,true,0.0-2.0-0.44-0.396-3.396,0,0,0,90,false,stim,false,0,479,1,0,0,24203,task2,1113879,false,false,1267,image-keyboard-response,28
true,12,1,1,1,true,z,false,true,0.0-2.0-0.44-0.397-3.397,0,0,0,90,false,stim,false,0,769,1,0,2,24203,task2,1116187,false,false,1270,image-keyboard-response,29
true,12,1,1,1,true,z,false,true,0.0-2.0-0.44-0.398-3.398,0,0,0,90,false,stim,false,0,789,1,0,0,24203,task2,1118517,false,false,1273,image-keyboard-response,30
true,12,0,1,0,true,q,false,false,0.0-2.0-0.44-0.399-3.399,0,0,0,81,false,stim,false,1,873,1,0,1,24203,task2,1120919,false,true,1276,image-keyboard-response,31
true,12,0,1,0,true,q,false,true,0.0-2.0-0.44-0.400-3.400,0,0,0,81,false,stim,false,1,1104,1,0,1,24203,task2,1123561,false,false,1279,image-keyboard-response,32
true,12,0,1,0,true,q,false,true,0.0-2.0-0.44-0.401-3.401,0,0,0,81,false,stim,false,1,516,1,0,1,24203,task2,1125613,false,false,1282,image-keyboard-response,33
true,12,1,1,1,true,z,false,true,0.0-2.0-0.44-0.402-3.402,0,0,0,90,false,stim,false,0,640,1,0,2,24203,task2,1127789,false,false,1285,image-keyboard-response,34
true,12,1,1,1,true,z,false,true,0.0-2.0-0.44-0.403-3.403,0,0,0,90,false,stim,false,0,452,1,0,0,24203,task2,1129769,false,false,1288,image-keyboard-response,35
true,12,1,1,1,true,z,false,true,0.0-2.0-0.44-0.404-3.404,0,0,0,90,false,stim,false,0,501,1,0,2,24203,task2,1131799,false,false,1291,image-keyboard-response,36
true,13,1,1,2,false,d,false,false,0.0-2.0-0.45-0.405-3.405,0,0,0,90,true,stim,true,1,344,1,0,0,24203,task2,1133682,false,false,1294,image-keyboard-response,1
true,13,0,1,1,false,z,false,false,0.0-2.0-0.45-0.406-3.406,0,0,0,81,false,stim,true,0,805,1,0,1,24203,task2,1136022,false,false,1297,image-keyboard-response,2
true,13,2,1,2,true,d,false,true,0.0-2.0-0.45-0.407-3.407,0,0,0,68,false,stim,false,1,697,1,0,0,24203,task2,1138245,false,false,1300,image-keyboard-response,3
true,13,1,1,2,false,d,false,false,0.0-2.0-0.45-0.408-3.408,0,0,0,90,false,stim,true,1,1521,1,0,2,24203,task2,1141309,false,false,1303,image-keyboard-response,4
true,13,1,1,2,false,d,false,false,0.0-2.0-0.45-0.409-3.409,0,0,0,90,false,stim,true,1,802,1,0,2,24203,task2,1143642,false,false,1306,image-keyboard-response,5
true,13,2,1,2,true,d,false,true,0.0-2.0-0.45-0.410-3.410,0,0,0,68,false,stim,false,1,782,1,0,0,24203,task2,1145961,false,false,1309,image-keyboard-response,6
true,13,0,1,1,false,z,false,false,0.0-2.0-0.45-0.411-3.411,0,0,0,81,false,stim,true,0,1010,1,0,1,24203,task2,1148499,false,false,1312,image-keyboard-response,7
true,13,1,1,1,true,z,false,true,0.0-2.0-0.45-0.412-3.412,0,0,0,90,false,stim,false,0,484,1,0,1,24203,task2,1150522,false,false,1315,image-keyboard-response,8
true,13,2,1,2,true,d,false,true,0.0-2.0-0.45-0.413-3.413,0,0,0,68,false,stim,false,1,1369,1,0,2,24203,task2,1153427,false,false,1318,image-keyboard-response,9
true,13,2,1,2,true,d,false,true,0.0-2.0-0.46-0.414-3.414,0,0,0,68,false,stim,false,1,624,1,0,2,24203,task2,1155582,false,false,1321,image-keyboard-response,10
true,13,2,1,2,true,d,false,false,0.0-2.0-0.46-0.415-3.415,0,0,0,68,false,stim,false,1,743,1,0,0,24203,task2,1157851,false,true,1324,image-keyboard-response,11
true,13,1,1,1,true,z,false,false,0.0-2.0-0.46-0.416-3.416,0,0,0,90,false,stim,false,0,1010,1,0,1,24203,task2,1160397,false,true,1327,image-keyboard-response,12
true,13,2,1,2,true,d,false,true,0.0-2.0-0.46-0.417-3.417,0,0,0,68,false,stim,false,1,840,1,0,0,24203,task2,1162758,false,false,1330,image-keyboard-response,13
true,13,2,1,2,true,d,false,true,0.0-2.0-0.46-0.418-3.418,0,0,0,68,false,stim,false,1,578,1,0,2,24203,task2,1164876,false,false,1333,image-keyboard-response,14
true,13,1,1,1,true,z,false,true,0.0-2.0-0.46-0.419-3.419,0,0,0,90,false,stim,false,0,534,1,0,1,24203,task2,1166941,false,false,1336,image-keyboard-response,15
true,13,1,1,1,true,z,false,true,0.0-2.0-0.46-0.420-3.420,0,0,0,90,false,stim,false,0,647,1,0,1,24203,task2,1169105,false,false,1339,image-keyboard-response,16
true,13,2,1,2,true,d,false,true,0.0-2.0-0.46-0.421-3.421,0,0,0,68,false,stim,false,1,462,1,0,0,24203,task2,1171099,false,false,1342,image-keyboard-response,17
true,13,2,1,2,true,d,false,false,0.0-2.0-0.46-0.422-3.422,0,0,0,68,false,stim,false,1,446,1,0,2,24203,task2,1173083,false,true,1345,image-keyboard-response,18
true,13,1,1,1,true,z,false,true,0.0-2.0-0.47-0.423-3.423,0,0,0,90,false,stim,false,0,802,1,0,1,24203,task2,1175422,false,false,1348,image-keyboard-response,19
true,13,1,1,1,true,z,false,true,0.0-2.0-0.47-0.424-3.424,0,0,0,90,false,stim,false,0,914,1,0,1,24203,task2,1177864,false,false,1351,image-keyboard-response,20
true,13,2,1,2,true,d,false,true,0.0-2.0-0.47-0.425-3.425,0,0,0,68,false,stim,false,1,607,1,0,0,24203,task2,1179992,false,false,1354,image-keyboard-response,21
true,13,2,1,2,true,d,false,true,0.0-2.0-0.47-0.426-3.426,0,0,0,68,false,stim,false,1,494,1,0,0,24203,task2,1182022,false,false,1357,image-keyboard-response,22
true,13,2,1,2,true,d,false,true,0.0-2.0-0.47-0.427-3.427,0,0,0,68,false,stim,false,1,486,1,0,0,24203,task2,1184042,false,false,1360,image-keyboard-response,23
true,13,2,1,2,true,d,false,true,0.0-2.0-0.47-0.428-3.428,0,0,0,68,false,stim,false,1,2051,1,0,2,24203,task2,1187619,false,false,1363,image-keyboard-response,24
true,13,2,1,2,true,d,false,false,0.0-2.0-0.47-0.429-3.429,0,0,0,68,false,stim,false,1,627,1,0,2,24203,task2,1189784,false,true,1366,image-keyboard-response,25
true,13,2,1,2,true,d,false,false,0.0-2.0-0.47-0.430-3.430,0,0,0,68,false,stim,false,1,1319,1,0,2,24203,task2,1192632,false,true,1369,image-keyboard-response,26
true,13,1,1,1,true,z,false,true,0.0-2.0-0.47-0.431-3.431,0,0,0,90,false,stim,false,0,1111,1,0,1,24203,task2,1195279,false,false,1372,image-keyboard-response,27
true,13,2,1,2,true,d,false,true,0.0-2.0-0.48-0.432-3.432,0,0,0,68,false,stim,false,1,709,1,0,0,24203,task2,1197504,false,false,1375,image-keyboard-response,28
true,13,2,1,2,true,d,false,true,0.0-2.0-0.48-0.433-3.433,0,0,0,68,false,stim,false,1,613,1,0,0,24203,task2,1199650,false,false,1378,image-keyboard-response,29
true,13,2,1,2,true,d,false,true,0.0-2.0-0.48-0.434-3.434,0,0,0,68,false,stim,false,1,472,1,0,0,24203,task2,1201650,false,false,1381,image-keyboard-response,30
true,13,0,1,2,false,d,true,false,0.0-2.0-0.48-0.435-3.435,0,0,0,81,false,stim,false,1,460,1,0,2,24203,task2,1203649,false,false,1384,image-keyboard-response,31
true,13,1,1,1,true,z,false,true,0.0-2.0-0.48-0.436-3.436,0,0,0,90,false,stim,false,0,957,1,0,1,24203,task2,1206147,false,false,1387,image-keyboard-response,32
true,13,1,1,1,true,z,false,true,0.0-2.0-0.48-0.437-3.437,0,0,0,90,false,stim,false,0,622,1,0,1,24203,task2,1208291,false,false,1390,image-keyboard-response,33
true,13,1,1,1,true,z,false,true,0.0-2.0-0.48-0.438-3.438,0,0,0,90,false,stim,false,0,446,1,0,1,24203,task2,1210276,false,false,1393,image-keyboard-response,34
true,13,1,1,2,false,d,false,true,0.0-2.0-0.48-0.439-3.439,0,0,0,90,false,stim,true,1,1079,1,0,2,24203,task2,1212883,false,true,1396,image-keyboard-response,35
true,13,1,1,2,false,d,false,false,0.0-2.0-0.48-0.440-3.440,0,0,0,90,false,stim,true,1,454,1,0,2,24203,task2,1214873,false,false,1399,image-keyboard-response,36
true,13,1,1,1,true,z,false,true,0.0-2.0-0.49-0.441-3.441,0,0,0,90,false,stim,false,0,497,1,0,1,24203,task2,1216918,false,false,1402,image-keyboard-response,37
true,13,1,1,2,false,d,false,false,0.0-2.0-0.49-0.442-3.442,0,0,0,90,false,stim,true,1,506,1,0,2,24203,task2,1218966,false,false,1405,image-keyboard-response,38
true,14,1,1,2,false,d,false,false,0.0-2.0-0.49-0.443-3.443,0,0,0,90,true,stim,true,1,625,1,0,1,24203,task2,1221122,false,false,1408,image-keyboard-response,1
true,14,2,1,0,false,q,false,false,0.0-2.0-0.49-0.444-3.444,0,0,0,68,false,stim,true,2,1060,1,0,2,24203,task2,1223699,false,false,1411,image-keyboard-response,2
true,14,2,1,0,false,q,false,false,0.0-2.0-0.49-0.445-3.445,0,0,0,68,false,stim,true,2,850,1,0,0,24203,task2,1226089,false,false,1414,image-keyboard-response,3
true,14,2,1,0,false,q,false,false,0.0-2.0-0.49-0.446-3.446,0,0,0,68,false,stim,true,2,911,1,0,0,24203,task2,1228539,false,false,1417,image-keyboard-response,4
true,14,0,1,0,true,q,false,true,0.0-2.0-0.49-0.447-3.447,0,0,0,81,false,stim,false,2,721,1,0,2,24203,task2,1230789,false,false,1420,image-keyboard-response,5
true,14,0,1,0,true,q,false,true,0.0-2.0-0.49-0.448-3.448,0,0,0,81,false,stim,false,2,1101,1,0,0,24203,task2,1233419,false,false,1423,image-keyboard-response,6
true,14,1,1,2,false,d,false,false,0.0-2.0-0.49-0.449-3.449,0,0,0,90,false,stim,true,1,466,1,0,1,24203,task2,1235425,false,false,1426,image-keyboard-response,7
true,14,0,1,0,true,q,false,true,0.0-2.0-0.50-0.450-3.450,0,0,0,81,false,stim,false,2,674,1,0,2,24203,task2,1237624,false,false,1429,image-keyboard-response,8
true,14,0,1,2,false,d,true,false,0.0-2.0-0.50-0.451-3.451,0,0,0,81,false,stim,false,1,376,1,0,1,24203,task2,1239546,false,false,1432,image-keyboard-response,9
true,14,0,1,0,true,q,false,true,0.0-2.0-0.50-0.452-3.452,0,0,0,81,false,stim,false,2,771,1,0,0,24203,task2,1241860,false,false,1435,image-keyboard-response,10
true,14,0,1,0,true,q,false,true,0.0-2.0-0.50-0.453-3.453,0,0,0,81,false,stim,false,2,651,1,0,2,24203,task2,1244028,false,false,1438,image-keyboard-response,11
true,14,2,1,2,true,d,false,true,0.0-2.0-0.50-0.454-3.454,0,0,0,68,false,stim,false,1,817,1,0,1,24203,task2,1246375,false,false,1441,image-keyboard-response,12
true,14,0,1,0,true,q,false,false,0.0-2.0-0.50-0.455-3.455,0,0,0,81,false,stim,false,2,655,1,0,2,24203,task2,1248563,false,true,1444,image-keyboard-response,13
true,14,2,1,2,true,d,false,true,0.0-2.0-0.50-0.456-3.456,0,0,0,68,false,stim,false,1,549,1,0,1,24203,task2,1250636,false,false,1447,image-keyboard-response,14
true,14,0,1,0,true,q,false,true,0.0-2.0-0.50-0.457-3.457,0,0,0,81,false,stim,false,2,411,1,0,0,24203,task2,1252568,false,false,1450,image-keyboard-response,15
true,14,0,1,0,true,q,false,true,0.0-2.0-0.50-0.458-3.458,0,0,0,81,false,stim,false,2,491,1,0,0,24203,task2,1254589,false,false,1453,image-keyboard-response,16
true,14,2,1,2,true,d,false,true,0.0-2.0-0.51-0.459-3.459,0,0,0,68,false,stim,false,1,778,1,0,1,24203,task2,1256896,false,false,1456,image-keyboard-response,17
true,14,1,1,0,false,q,true,false,0.0-2.0-0.51-0.460-3.460,0,0,0,90,false,stim,false,2,455,1,0,2,24203,task2,1258883,false,false,1459,image-keyboard-response,18
true,14,2,1,0,false,q,false,false,0.0-2.0-0.51-0.461-3.461,0,0,0,68,false,stim,true,2,701,1,0,2,24203,task2,1261108,false,false,1462,image-keyboard-response,19
true,14,0,1,0,true,q,false,true,0.0-2.0-0.51-0.462-3.462,0,0,0,81,false,stim,false,2,722,1,0,0,24203,task2,1263359,false,false,1465,image-keyboard-response,20
true,14,0,1,0,true,q,false,true,0.0-2.0-0.51-0.463-3.463,0,0,0,81,false,stim,false,2,1160,1,0,2,24203,task2,1266057,false,false,1468,image-keyboard-response,21
true,14,2,1,2,true,d,false,true,0.0-2.0-0.51-0.464-3.464,0,0,0,68,false,stim,false,1,440,1,0,1,24203,task2,1268027,false,false,1471,image-keyboard-response,22
true,14,0,1,0,true,q,false,true,0.0-2.0-0.51-0.465-3.465,0,0,0,81,false,stim,false,2,585,1,0,0,24203,task2,1270152,false,false,1474,image-keyboard-response,23
true,14,0,1,0,true,q,false,true,0.0-2.0-0.51-0.466-3.466,0,0,0,81,false,stim,false,2,813,1,0,0,24203,task2,1272491,false,false,1477,image-keyboard-response,24
true,14,2,1,2,true,d,false,true,0.0-2.0-0.51-0.467-3.467,0,0,0,68,false,stim,false,1,641,1,0,1,24203,task2,1274670,false,false,1480,image-keyboard-response,25
true,14,2,1,2,true,d,false,true,0.0-2.0-0.52-0.468-3.468,0,0,0,68,false,stim,false,1,629,1,0,1,24203,task2,1276838,false,false,1483,image-keyboard-response,26
true,14,0,1,0,true,q,false,true,0.0-2.0-0.52-0.469-3.469,0,0,0,81,false,stim,false,2,2138,1,0,2,24203,task2,1280507,false,false,1486,image-keyboard-response,27
true,14,0,1,0,true,q,false,true,0.0-2.0-0.52-0.470-3.470,0,0,0,81,false,stim,false,2,836,1,0,0,24203,task2,1282875,false,false,1489,image-keyboard-response,28
true,14,0,1,0,true,q,false,true,0.0-2.0-0.52-0.471-3.471,0,0,0,81,false,stim,false,2,562,1,0,0,24203,task2,1284968,false,false,1492,image-keyboard-response,29
true,14,0,1,0,true,q,false,true,0.0-2.0-0.52-0.472-3.472,0,0,0,81,false,stim,false,2,471,1,0,0,24203,task2,1286969,false,false,1495,image-keyboard-response,30
true,14,0,1,0,true,q,false,false,0.0-2.0-0.52-0.473-3.473,0,0,0,81,false,stim,false,2,1297,1,0,2,24203,task2,1289797,false,true,1498,image-keyboard-response,31
true,14,2,1,2,true,d,false,true,0.0-2.0-0.52-0.474-3.474,0,0,0,68,false,stim,false,1,649,1,0,1,24203,task2,1291985,false,false,1501,image-keyboard-response,32
true,14,1,1,0,false,q,true,false,0.0-2.0-0.52-0.475-3.475,0,0,0,90,false,stim,false,2,992,1,0,2,24203,task2,1294510,false,false,1504,image-keyboard-response,33
true,14,2,1,2,true,d,false,false,0.0-2.0-0.52-0.476-3.476,0,0,0,68,false,stim,false,1,1000,1,0,1,24203,task2,1297039,false,true,1507,image-keyboard-response,34
true,14,0,1,0,true,q,false,true,0.0-2.0-0.53-0.477-3.477,0,0,0,81,false,stim,false,2,1079,1,0,2,24203,task2,1299659,false,false,1510,image-keyboard-response,35
true,14,0,1,0,true,q,false,true,0.0-2.0-0.53-0.478-3.478,0,0,0,81,false,stim,false,2,426,1,1,0,24203,task2,1301623,false,false,1513,image-keyboard-response,36
true,15,1,2,1,true,z,false,true,0.0-2.0-0.53-0.479-3.479,1,0,0,90,true,stim,false,2,1063,1,0,1,24203,task2,1304230,false,false,1516,image-keyboard-response,1
true,15,1,2,1,true,z,false,true,0.0-2.0-0.53-0.480-3.480,1,0,0,90,false,stim,false,2,621,1,0,1,24203,task2,1306379,false,false,1519,image-keyboard-response,2
true,15,0,2,0,true,q,false,true,0.0-2.0-0.53-0.481-3.481,1,0,0,81,false,stim,false,0,604,1,1,0,24203,task2,1308502,false,false,1522,image-keyboard-response,3
true,15,1,2,1,true,z,false,true,0.0-2.0-0.53-0.482-3.482,1,0,0,90,false,stim,false,2,710,1,0,1,24203,task2,1310748,false,false,1525,image-keyboard-response,4
true,15,0,2,2,false,d,false,false,0.0-2.0-0.53-0.483-3.483,1,0,0,81,false,stim,true,0,908,1,0,2,24203,task2,1313176,false,false,1528,image-keyboard-response,5
true,15,0,2,2,false,d,false,false,0.0-2.0-0.53-0.484-3.484,1,0,0,81,false,stim,true,0,473,1,0,2,24203,task2,1315180,false,false,1531,image-keyboard-response,6
true,15,0,2,0,true,q,false,true,0.0-2.0-0.53-0.485-3.485,1,0,0,81,false,stim,false,0,549,1,1,0,24203,task2,1317256,false,false,1534,image-keyboard-response,7
true,15,0,2,2,false,d,false,false,0.0-2.0-0.54-0.486-3.486,1,0,0,81,false,stim,true,0,1307,1,0,2,24203,task2,1320104,false,false,1537,image-keyboard-response,8
true,15,0,2,0,true,q,false,true,0.0-2.0-0.54-0.487-3.487,1,0,0,81,false,stim,false,0,659,1,1,0,24203,task2,1322294,false,false,1540,image-keyboard-response,9
true,15,1,2,2,false,d,true,false,0.0-2.0-0.54-0.488-3.488,1,0,0,90,false,stim,false,0,844,1,0,2,24203,task2,1324672,false,false,1543,image-keyboard-response,10
true,15,2,2,2,true,d,false,true,0.0-2.0-0.54-0.489-3.489,1,0,0,68,false,stim,false,0,574,1,0,2,24203,task2,1326782,false,false,1546,image-keyboard-response,11
true,15,1,2,1,true,z,false,true,0.0-2.0-0.54-0.490-3.490,1,0,0,90,false,stim,false,2,962,1,0,1,24203,task2,1329271,false,false,1549,image-keyboard-response,12
true,15,1,2,1,true,z,false,true,0.0-2.0-0.54-0.491-3.491,1,0,0,90,false,stim,false,2,697,1,0,1,24203,task2,1331505,false,false,1552,image-keyboard-response,13
true,15,1,2,1,true,z,false,true,0.0-2.0-0.54-0.492-3.492,1,0,0,90,false,stim,false,2,559,1,0,1,24203,task2,1333589,false,false,1555,image-keyboard-response,14
true,15,0,2,0,true,q,false,true,0.0-2.0-0.54-0.493-3.493,1,0,0,81,false,stim,false,0,493,1,1,0,24203,task2,1335621,false,false,1558,image-keyboard-response,15
true,15,0,2,0,true,q,false,true,0.0-2.0-0.54-0.494-3.494,1,0,0,81,false,stim,false,0,403,1,1,0,24203,task2,1337549,false,false,1561,image-keyboard-response,16
true,15,2,2,2,true,d,false,true,0.0-2.0-0.55-0.495-3.495,1,0,0,68,false,stim,false,0,563,1,0,2,24203,task2,1339639,false,false,1564,image-keyboard-response,17
true,15,0,2,0,true,q,false,true,0.0-2.0-0.55-0.496-3.496,1,0,0,81,false,stim,false,0,668,1,1,0,24203,task2,1341846,false,false,1567,image-keyboard-response,18
true,15,1,2,1,true,z,false,true,0.0-2.0-0.55-0.497-3.497,1,0,0,90,false,stim,false,2,851,1,0,1,24203,task2,1344228,false,false,1570,image-keyboard-response,19
true,15,1,2,1,true,z,false,true,0.0-2.0-0.55-0.498-3.498,1,0,0,90,false,stim,false,2,632,1,0,1,24203,task2,1346390,false,false,1573,image-keyboard-response,20
true,15,0,2,0,true,q,false,true,0.0-2.0-0.55-0.499-3.499,1,0,0,81,false,stim,false,0,711,1,1,0,24203,task2,1348638,false,false,1576,image-keyboard-response,21
true,15,1,2,1,true,z,false,true,0.0-2.0-0.55-0.500-3.500,1,0,0,90,false,stim,false,2,611,1,0,1,24203,task2,1350779,false,false,1579,image-keyboard-response,22
true,15,0,2,0,true,q,false,true,0.0-2.0-0.55-0.501-3.501,1,0,0,81,false,stim,false,0,497,1,1,0,24203,task2,1352806,false,false,1582,image-keyboard-response,23
true,15,2,2,2,true,d,false,true,0.0-2.0-0.55-0.502-3.502,1,0,0,68,false,stim,false,0,651,1,0,2,24203,task2,1354998,false,false,1585,image-keyboard-response,24
true,15,2,2,2,true,d,false,true,0.0-2.0-0.55-0.503-3.503,1,0,0,68,false,stim,false,0,498,1,0,2,24203,task2,1357024,false,false,1588,image-keyboard-response,25
true,15,2,2,2,true,d,false,true,0.0-2.0-0.56-0.504-3.504,1,0,0,68,false,stim,false,0,881,1,0,2,24203,task2,1359438,false,false,1591,image-keyboard-response,26
true,15,0,2,0,true,q,false,false,0.0-2.0-0.56-0.505-3.505,1,0,0,81,false,stim,false,0,470,1,1,0,24203,task2,1361447,false,true,1594,image-keyboard-response,27
true,15,2,2,2,true,d,false,true,0.0-2.0-0.56-0.506-3.506,1,0,0,68,false,stim,false,0,723,1,0,2,24203,task2,1363709,false,false,1597,image-keyboard-response,28
true,15,2,2,2,true,d,false,true,0.0-2.0-0.56-0.507-3.507,1,0,0,68,false,stim,false,0,404,1,0,2,24203,task2,1365651,false,false,1600,image-keyboard-response,29
true,15,1,2,1,true,z,false,true,0.0-2.0-0.56-0.508-3.508,1,0,0,90,false,stim,false,2,991,1,0,1,24203,task2,1368188,false,false,1603,image-keyboard-response,30
true,15,1,2,1,true,z,false,true,0.0-2.0-0.56-0.509-3.509,1,0,0,90,false,stim,false,2,601,1,0,1,24203,task2,1370310,false,false,1606,image-keyboard-response,31
true,15,1,2,1,true,z,false,true,0.0-2.0-0.56-0.510-3.510,1,0,0,90,false,stim,false,2,700,1,0,1,24203,task2,1372549,false,false,1609,image-keyboard-response,32
true,15,0,2,0,true,q,false,true,0.0-2.0-0.56-0.511-3.511,1,0,0,81,false,stim,false,0,1183,1,0,0,24203,task2,1375261,false,false,1612,image-keyboard-response,33
true,15,0,2,0,true,q,false,true,0.0-2.0-0.56-0.512-3.512,1,0,0,81,false,stim,false,0,375,1,0,0,24203,task2,1377174,false,false,1615,image-keyboard-response,34
true,16,2,2,2,true,d,false,true,0.0-2.0-0.57-0.513-3.513,0,0,1,68,true,stim,false,2,885,1,1,2,24203,task2,1379592,false,false,1618,image-keyboard-response,1
true,16,1,2,0,false,q,false,false,0.0-2.0-0.57-0.514-3.514,0,0,1,90,false,stim,true,1,774,1,0,1,24203,task2,1381901,false,false,1621,image-keyboard-response,2
true,16,0,2,0,true,q,false,true,0.0-2.0-0.57-0.515-3.515,0,0,1,81,false,stim,false,1,1063,1,0,1,24203,task2,1384501,false,false,1624,image-keyboard-response,3
true,16,2,2,2,true,d,false,true,0.0-2.0-0.57-0.516-3.516,0,0,1,68,false,stim,false,2,1868,1,1,2,24203,task2,1387905,false,false,1627,image-keyboard-response,4
true,16,2,2,2,true,d,false,true,0.0-2.0-0.57-0.517-3.517,0,0,1,68,false,stim,false,2,580,1,1,2,24203,task2,1390018,false,false,1630,image-keyboard-response,5
true,16,0,2,2,false,d,false,false,0.0-2.0-0.57-0.518-3.518,0,0,1,81,false,stim,true,0,493,1,0,0,24203,task2,1392051,false,false,1633,image-keyboard-response,6
true,16,0,2,0,true,q,false,true,0.0-2.0-0.57-0.519-3.519,0,0,1,81,false,stim,false,1,443,1,0,1,24203,task2,1394019,false,false,1636,image-keyboard-response,7
true,16,0,2,2,false,d,false,false,0.0-2.0-0.57-0.520-3.520,0,0,1,81,false,stim,true,0,1120,1,0,0,24203,task2,1396673,false,false,1639,image-keyboard-response,8
true,16,1,2,2,false,d,true,true,0.0-2.0-0.57-0.521-3.521,0,0,1,90,false,stim,false,0,794,1,0,0,24203,task2,1399001,false,true,1642,image-keyboard-response,9
true,16,2,2,2,true,d,false,true,0.0-2.0-0.58-0.522-3.522,0,0,1,68,false,stim,false,2,644,1,1,2,24203,task2,1401172,false,false,1645,image-keyboard-response,10
true,16,1,2,2,false,d,true,true,0.0-2.0-0.58-0.523-3.523,0,0,1,90,false,stim,false,0,492,1,0,0,24203,task2,1403178,false,true,1648,image-keyboard-response,11
true,16,1,2,2,false,d,true,false,0.0-2.0-0.58-0.524-3.524,0,0,1,90,false,stim,false,0,636,1,0,0,24203,task2,1405343,false,false,1651,image-keyboard-response,12
true,16,0,2,0,true,q,false,true,0.0-2.0-0.58-0.525-3.525,0,0,1,81,false,stim,false,1,860,1,0,1,24203,task2,1407727,false,false,1654,image-keyboard-response,13
true,16,2,2,2,true,d,false,true,0.0-2.0-0.58-0.526-3.526,0,0,1,68,false,stim,false,2,710,1,1,2,24203,task2,1409976,false,false,1657,image-keyboard-response,14
true,16,2,2,2,true,d,false,true,0.0-2.0-0.58-0.527-3.527,0,0,1,68,false,stim,false,2,567,1,1,2,24203,task2,1412087,false,false,1660,image-keyboard-response,15
true,16,0,2,0,true,q,false,true,0.0-2.0-0.58-0.528-3.528,0,0,1,81,false,stim,false,1,537,1,0,1,24203,task2,1414165,false,false,1663,image-keyboard-response,16
true,16,1,2,2,false,d,true,true,0.0-2.0-0.58-0.529-3.529,0,0,1,90,false,stim,false,0,948,1,0,0,24203,task2,1416657,false,true,1666,image-keyboard-response,17
true,16,0,2,0,true,q,false,true,0.0-2.0-0.58-0.530-3.530,0,0,1,81,false,stim,false,1,535,1,0,1,24203,task2,1418736,false,false,1669,image-keyboard-response,18
true,16,2,2,2,true,d,false,true,0.0-2.0-0.59-0.531-3.531,0,0,1,68,false,stim,false,2,804,1,1,2,24203,task2,1421084,false,false,1672,image-keyboard-response,19
true,16,1,2,2,false,d,true,false,0.0-2.0-0.59-0.532-3.532,0,0,1,90,false,stim,false,0,1242,1,0,0,24203,task2,1423849,false,false,1675,image-keyboard-response,20
true,16,0,2,0,true,q,false,true,0.0-2.0-0.59-0.533-3.533,0,0,1,81,false,stim,false,1,867,1,0,1,24203,task2,1426232,false,false,1678,image-keyboard-response,21
true,16,2,2,2,true,d,false,true,0.0-2.0-0.59-0.534-3.534,0,0,1,68,false,stim,false,2,1173,1,1,2,24203,task2,1428933,false,false,1681,image-keyboard-response,22
true,16,1,2,2,false,d,true,false,0.0-2.0-0.59-0.535-3.535,0,0,1,90,false,stim,false,0,1651,1,0,0,24203,task2,1432114,false,false,1684,image-keyboard-response,23
true,16,2,2,2,true,d,false,true,0.0-2.0-0.59-0.536-3.536,0,0,1,68,false,stim,false,2,872,1,1,2,24203,task2,1434530,false,false,1687,image-keyboard-response,24
true,16,0,2,0,true,q,false,true,0.0-2.0-0.59-0.537-3.537,0,0,1,81,false,stim,false,1,640,1,0,1,24203,task2,1436700,false,false,1690,image-keyboard-response,25
true,16,2,2,2,true,d,false,true,0.0-2.0-0.59-0.538-3.538,0,0,1,68,false,stim,false,0,743,1,0,0,24203,task2,1438968,false,false,1693,image-keyboard-response,26
true,16,0,2,0,true,q,false,true,0.0-2.0-0.59-0.539-3.539,0,0,1,81,false,stim,false,1,960,1,0,1,24203,task2,1441467,false,false,1696,image-keyboard-response,27
true,16,0,2,0,true,q,false,true,0.0-2.0-0.60-0.540-3.540,0,0,1,81,false,stim,false,1,577,1,0,1,24203,task2,1443576,false,false,1699,image-keyboard-response,28
true,16,2,2,2,true,d,false,true,0.0-2.0-0.60-0.541-3.541,0,0,1,68,false,stim,false,0,453,1,0,0,24203,task2,1445589,false,false,1702,image-keyboard-response,29
true,16,2,2,2,true,d,false,true,0.0-2.0-0.60-0.542-3.542,0,0,1,68,false,stim,false,0,610,1,0,0,24203,task2,1447739,false,false,1705,image-keyboard-response,30
true,16,0,2,0,true,q,false,true,0.0-2.0-0.60-0.543-3.543,0,0,1,81,false,stim,false,1,1107,1,1,1,24203,task2,1450386,false,false,1708,image-keyboard-response,31
true,16,0,2,2,false,d,false,false,0.0-2.0-0.60-0.544-3.544,0,0,1,81,false,stim,true,0,480,1,1,0,24203,task2,1452389,false,false,1711,image-keyboard-response,32
true,16,2,2,2,true,d,false,true,0.0-2.0-0.60-0.545-3.545,0,0,1,68,false,stim,false,2,656,1,1,2,24203,task2,1454574,false,false,1714,image-keyboard-response,33
true,16,0,2,0,true,q,false,true,0.0-2.0-0.60-0.546-3.546,0,0,1,81,false,stim,false,1,709,1,1,1,24203,task2,1456817,false,false,1717,image-keyboard-response,34
true,16,2,2,2,true,d,false,true,0.0-2.0-0.60-0.547-3.547,0,0,1,68,false,stim,false,2,442,1,1,2,24203,task2,1458793,false,false,1720,image-keyboard-response,35
false,17,-1,0,2,false,d,true,true,0.0-2.0-0.60-0.548-3.548,1,1,1,,true,stim,false,2,,1,1,2,24203,task2,1585285,false,true,1843,image-keyboard-response,1
true,17,2,0,2,true,d,false,true,0.0-2.0-0.61-0.549-3.549,1,1,1,68,false,stim,false,2,1264,1,1,2,24203,task2,1588081,false,false,1846,image-keyboard-response,2
true,17,0,0,0,true,q,false,false,0.0-2.0-0.61-0.550-3.550,1,1,1,81,false,stim,false,0,1191,1,1,1,24203,task2,1590798,false,true,1849,image-keyboard-response,3
true,17,1,0,0,false,q,true,false,0.0-2.0-0.61-0.551-3.551,1,1,1,90,false,stim,false,0,1021,1,1,1,24203,task2,1593349,false,false,1852,image-keyboard-response,4
true,17,2,0,2,true,d,false,true,0.0-2.0-0.61-0.552-3.552,1,1,1,68,false,stim,false,2,534,1,1,2,24203,task2,1595411,false,false,1855,image-keyboard-response,5
true,17,1,0,2,false,d,true,false,0.0-2.0-0.61-0.553-3.553,1,1,1,90,false,stim,false,2,725,1,1,0,24203,task2,1597663,false,false,1858,image-keyboard-response,6
true,17,0,0,2,false,d,true,false,0.0-2.0-0.61-0.554-3.554,1,1,1,81,false,stim,false,2,486,1,1,0,24203,task2,1599693,false,false,1861,image-keyboard-response,7
true,17,2,0,2,true,d,false,true,0.0-2.0-0.61-0.555-3.555,1,1,1,68,false,stim,false,2,421,1,1,0,24203,task2,1601648,false,false,1864,image-keyboard-response,8
true,17,2,0,2,true,d,false,true,0.0-2.0-0.61-0.556-3.556,1,1,1,68,false,stim,false,2,415,1,0,2,24203,task2,1603583,false,false,1867,image-keyboard-response,9
true,17,0,0,0,true,q,false,true,0.0-2.0-0.61-0.557-3.557,1,1,1,81,false,stim,false,0,469,1,1,1,24203,task2,1605576,false,false,1870,image-keyboard-response,10
true,17,2,0,2,true,d,false,true,0.0-2.0-0.62-0.558-3.558,1,1,1,68,false,stim,false,2,634,1,0,2,24203,task2,1607742,false,false,1873,image-keyboard-response,11
true,17,0,0,0,true,q,false,true,0.0-2.0-0.62-0.559-3.559,1,1,1,81,false,stim,false,0,555,1,1,1,24203,task2,1609824,false,false,1876,image-keyboard-response,12
true,17,2,0,2,true,d,false,true,0.0-2.0-0.62-0.560-3.560,1,1,1,68,false,stim,false,2,663,1,0,0,24203,task2,1612032,false,false,1879,image-keyboard-response,13
true,18,2,2,0,false,q,false,false,0.0-2.0-0.62-0.561-3.561,0,1,0,68,true,stim,true,2,1288,1,0,0,24203,task2,1614844,false,false,1882,image-keyboard-response,1
true,18,2,2,0,false,q,false,false,0.0-2.0-0.62-0.562-3.562,0,1,0,68,false,stim,true,2,585,1,0,0,24203,task2,1616963,false,false,1885,image-keyboard-response,2
true,18,0,2,0,true,q,false,false,0.0-2.0-0.62-0.563-3.563,0,1,0,81,false,stim,false,0,1144,1,1,1,24203,task2,1619631,false,true,1888,image-keyboard-response,3
true,18,2,2,1,false,z,false,false,0.0-2.0-0.62-0.564-3.564,0,1,0,68,false,stim,true,2,419,1,0,2,24203,task2,1621585,false,false,1891,image-keyboard-response,4
true,18,1,2,1,true,z,false,true,0.0-2.0-0.62-0.565-3.565,0,1,0,90,false,stim,false,2,545,1,0,2,24203,task2,1623661,false,false,1894,image-keyboard-response,5
true,18,0,2,0,true,q,false,true,0.0-2.0-0.62-0.566-3.566,0,1,0,81,false,stim,false,0,807,1,1,1,24203,task2,1626004,false,false,1897,image-keyboard-response,6
true,18,0,2,0,true,q,false,true,0.0-2.0-0.63-0.567-3.567,0,1,0,81,false,stim,false,0,608,1,1,1,24203,task2,1628152,false,false,1900,image-keyboard-response,7
true,18,1,2,0,false,q,true,false,0.0-2.0-0.63-0.568-3.568,0,1,0,90,false,stim,false,2,957,1,0,0,24203,task2,1630655,false,false,1903,image-keyboard-response,8
true,18,2,2,0,false,q,false,false,0.0-2.0-0.63-0.569-3.569,0,1,0,68,false,stim,true,2,482,1,0,0,24203,task2,1632681,false,false,1906,image-keyboard-response,9
true,18,1,2,1,true,z,false,true,0.0-2.0-0.63-0.570-3.570,0,1,0,90,false,stim,false,2,874,1,0,2,24203,task2,1635083,false,false,1909,image-keyboard-response,10
true,18,0,2,0,true,q,false,true,0.0-2.0-0.63-0.571-3.571,0,1,0,81,false,stim,false,0,370,1,1,1,24203,task2,1636999,false,false,1912,image-keyboard-response,11
true,18,0,2,1,false,z,true,true,0.0-2.0-0.63-0.572-3.572,0,1,0,81,false,stim,false,2,1087,1,0,2,24203,task2,1639614,false,true,1915,image-keyboard-response,12
true,18,0,2,0,true,q,false,true,0.0-2.0-0.63-0.573-3.573,0,1,0,81,false,stim,false,2,739,1,0,0,24203,task2,1641887,false,false,1918,image-keyboard-response,13
true,18,0,2,1,false,z,true,false,0.0-2.0-0.63-0.574-3.574,0,1,0,81,false,stim,false,2,739,1,0,2,24203,task2,1644156,false,false,1921,image-keyboard-response,14
true,18,0,2,0,true,q,false,true,0.0-2.0-0.63-0.575-3.575,0,1,0,81,false,stim,false,0,677,1,1,1,24203,task2,1646375,false,false,1924,image-keyboard-response,15
true,18,0,2,0,true,q,false,true,0.0-2.0-0.64-0.576-3.576,0,1,0,81,false,stim,false,2,630,1,0,0,24203,task2,1648536,false,false,1927,image-keyboard-response,16
true,18,0,2,0,true,q,false,true,0.0-2.0-0.64-0.577-3.577,0,1,0,81,false,stim,false,2,1412,1,0,0,24203,task2,1651490,false,false,1930,image-keyboard-response,17
true,18,0,2,0,true,q,false,true,0.0-2.0-0.64-0.578-3.578,0,1,0,81,false,stim,false,2,498,1,0,0,24203,task2,1653517,false,false,1933,image-keyboard-response,18
true,18,0,2,0,true,q,false,true,0.0-2.0-0.64-0.579-3.579,0,1,0,81,false,stim,false,0,1249,1,1,1,24203,task2,1656307,false,false,1936,image-keyboard-response,19
true,18,0,2,0,true,q,false,true,0.0-2.0-0.64-0.580-3.580,0,1,0,81,false,stim,false,0,1187,1,1,1,24203,task2,1659018,false,false,1939,image-keyboard-response,20
true,18,1,2,1,true,z,false,true,0.0-2.0-0.64-0.581-3.581,0,1,0,90,false,stim,false,2,1651,1,0,2,24203,task2,1662209,false,false,1942,image-keyboard-response,21
true,18,1,2,1,true,z,false,true,0.0-2.0-0.64-0.582-3.582,0,1,0,90,false,stim,false,2,604,1,0,2,24203,task2,1664342,false,false,1945,image-keyboard-response,22
true,18,0,2,0,true,q,false,true,0.0-2.0-0.64-0.583-3.583,0,1,0,81,false,stim,false,0,538,1,1,1,24203,task2,1666405,false,false,1948,image-keyboard-response,23
true,18,1,2,1,true,z,false,true,0.0-2.0-0.64-0.584-3.584,0,1,0,90,false,stim,false,2,547,1,0,2,24203,task2,1668489,false,false,1951,image-keyboard-response,24
true,18,0,2,0,true,q,false,true,0.0-2.0-0.65-0.585-3.585,0,1,0,81,false,stim,false,0,470,1,1,1,24203,task2,1670496,false,false,1954,image-keyboard-response,25
true,18,1,2,1,true,z,false,true,0.0-2.0-0.65-0.586-3.586,0,1,0,90,false,stim,false,2,908,1,0,2,24203,task2,1672936,false,false,1957,image-keyboard-response,26
true,18,0,2,0,true,q,false,true,0.0-2.0-0.65-0.587-3.587,0,1,0,81,false,stim,false,0,474,1,0,1,24203,task2,1674952,false,false,1960,image-keyboard-response,27
true,18,1,2,1,true,z,false,true,0.0-2.0-0.65-0.588-3.588,0,1,0,90,false,stim,false,2,512,1,0,2,24203,task2,1676989,false,false,1963,image-keyboard-response,28
true,18,0,2,0,true,q,false,true,0.0-2.0-0.65-0.589-3.589,0,1,0,81,false,stim,false,0,393,1,0,1,24203,task2,1678921,false,false,1966,image-keyboard-response,29
true,18,1,2,0,false,q,true,false,0.0-2.0-0.65-0.590-3.590,0,1,0,90,false,stim,false,2,1062,1,0,0,24203,task2,1681507,false,false,1969,image-keyboard-response,30
true,18,0,2,0,true,q,false,true,0.0-2.0-0.65-0.591-3.591,0,1,0,81,false,stim,false,2,294,1,0,0,24203,task2,1683331,false,false,1972,image-keyboard-response,31
true,19,1,1,0,false,q,false,false,0.0-2.0-0.65-0.592-3.592,0,0,0,90,true,stim,true,1,754,1,0,2,24203,task2,1685608,false,false,1975,image-keyboard-response,1
true,19,0,1,2,false,d,false,false,0.0-2.0-0.65-0.593-3.593,0,0,0,81,false,stim,true,0,575,1,0,0,24203,task2,1687711,false,false,1978,image-keyboard-response,2
true,19,0,1,2,false,d,false,false,0.0-2.0-0.66-0.594-3.594,0,0,0,81,false,stim,true,0,1094,1,0,0,24203,task2,1690330,false,false,1981,image-keyboard-response,3
true,19,0,1,2,false,d,false,true,0.0-2.0-0.66-0.595-3.595,0,0,0,81,false,stim,true,0,582,1,0,1,24203,task2,1692450,false,true,1984,image-keyboard-response,4
true,19,0,1,2,false,d,false,false,0.0-2.0-0.66-0.596-3.596,0,0,0,81,false,stim,true,0,703,1,0,1,24203,task2,1694690,false,false,1987,image-keyboard-response,5
true,19,2,1,0,false,q,true,false,0.0-2.0-0.66-0.597-3.597,0,0,0,68,false,stim,false,1,953,1,0,2,24203,task2,1697181,false,false,1990,image-keyboard-response,6
true,19,2,1,2,true,d,false,true,0.0-2.0-0.66-0.598-3.598,0,0,0,68,false,stim,false,0,685,1,0,0,24203,task2,1699394,false,false,1993,image-keyboard-response,7
true,19,1,1,0,false,q,false,false,0.0-2.0-0.66-0.599-3.599,0,0,0,90,false,stim,true,1,864,1,0,2,24203,task2,1701794,false,false,1996,image-keyboard-response,8
true,19,0,1,0,true,q,false,true,0.0-2.0-0.66-0.600-3.600,0,0,0,81,false,stim,false,1,400,1,0,2,24203,task2,1703719,false,false,1999,image-keyboard-response,9
true,19,0,1,2,false,d,false,false,0.0-2.0-0.66-0.601-3.601,0,0,0,81,false,stim,true,0,386,1,0,1,24203,task2,1705666,false,false,2002,image-keyboard-response,10
true,19,2,1,2,true,d,false,true,0.0-2.0-0.66-0.602-3.602,0,0,0,68,false,stim,false,0,496,1,0,0,24203,task2,1707694,false,false,2005,image-keyboard-response,11
true,19,0,1,0,true,q,false,true,0.0-2.0-0.67-0.603-3.603,0,0,0,81,false,stim,false,1,558,1,0,2,24203,task2,1709787,false,false,2008,image-keyboard-response,12
true,19,0,1,0,true,q,false,true,0.0-2.0-0.67-0.604-3.604,0,0,0,81,false,stim,false,1,657,1,0,2,24203,task2,1711986,false,false,2011,image-keyboard-response,13
true,19,2,1,2,true,d,false,true,0.0-2.0-0.67-0.605-3.605,0,0,0,68,false,stim,false,0,466,1,0,0,24203,task2,1713986,false,false,2014,image-keyboard-response,14
true,19,2,1,2,true,d,false,true,0.0-2.0-0.67-0.606-3.606,0,0,0,68,false,stim,false,0,1030,1,0,1,24203,task2,1716548,false,false,2017,image-keyboard-response,15
true,19,2,1,2,true,d,false,true,0.0-2.0-0.67-0.607-3.607,0,0,0,68,false,stim,false,0,820,1,0,1,24203,task2,1718898,false,false,2020,image-keyboard-response,16
true,19,0,1,2,false,d,false,false,0.0-2.0-0.67-0.608-3.608,0,0,0,81,false,stim,true,0,501,1,0,0,24203,task2,1720938,false,false,2023,image-keyboard-response,17
true,19,2,1,2,true,d,false,true,0.0-2.0-0.67-0.609-3.609,0,0,0,68,false,stim,false,0,488,1,0,1,24203,task2,1722967,false,false,2026,image-keyboard-response,18
true,19,2,1,2,true,d,false,true,0.0-2.0-0.67-0.610-3.610,0,0,0,68,false,stim,false,0,392,1,0,0,24203,task2,1724901,false,false,2029,image-keyboard-response,19
true,19,0,1,0,true,q,false,true,0.0-2.0-0.67-0.611-3.611,0,0,0,81,false,stim,false,1,509,1,0,2,24203,task2,1726948,false,false,2032,image-keyboard-response,20
true,19,2,1,2,true,d,false,true,0.0-2.0-0.68-0.612-3.612,0,0,0,68,false,stim,false,0,501,1,0,1,24203,task2,1728967,false,false,2035,image-keyboard-response,21
true,19,2,1,2,true,d,false,true,0.0-2.0-0.68-0.613-3.613,0,0,0,68,false,stim,false,0,501,1,0,1,24203,task2,1731009,false,false,2038,image-keyboard-response,22
true,19,2,1,2,true,d,false,true,0.0-2.0-0.68-0.614-3.614,0,0,0,68,false,stim,false,0,554,1,0,0,24203,task2,1733101,false,false,2041,image-keyboard-response,23
true,19,2,1,2,true,d,false,true,0.0-2.0-0.68-0.615-3.615,0,0,0,68,false,stim,false,0,473,1,0,0,24203,task2,1735112,false,false,2044,image-keyboard-response,24
true,19,0,1,0,true,q,false,true,0.0-2.0-0.68-0.616-3.616,0,0,0,81,false,stim,false,1,545,1,0,2,24203,task2,1737183,false,false,2047,image-keyboard-response,25
true,19,0,1,0,true,q,false,true,0.0-2.0-0.68-0.617-3.617,0,0,0,81,false,stim,false,1,1038,1,0,2,24203,task2,1739745,false,false,2050,image-keyboard-response,26
true,19,2,1,2,true,d,false,true,0.0-2.0-0.68-0.618-3.618,0,0,0,68,false,stim,false,0,525,1,0,1,24203,task2,1741812,false,false,2053,image-keyboard-response,27
true,19,2,1,2,true,d,false,true,0.0-2.0-0.68-0.619-3.619,0,0,0,68,false,stim,false,0,344,1,0,0,24203,task2,1743681,false,false,2056,image-keyboard-response,28
true,19,2,1,0,false,q,true,false,0.0-2.0-0.68-0.620-3.620,0,0,0,68,false,stim,false,1,543,1,0,2,24203,task2,1745761,false,false,2059,image-keyboard-response,29
true,19,2,1,2,true,d,false,true,0.0-2.0-0.69-0.621-3.621,0,0,0,68,false,stim,false,0,419,1,0,0,24203,task2,1747715,false,false,2062,image-keyboard-response,30
true,19,0,1,0,true,q,false,true,0.0-2.0-0.69-0.622-3.622,0,0,0,81,false,stim,false,1,536,1,0,2,24203,task2,1749785,false,false,2065,image-keyboard-response,31
true,19,2,1,2,true,d,false,false,0.0-2.0-0.69-0.623-3.623,0,0,0,68,false,stim,false,0,315,1,0,1,24203,task2,1751645,false,true,2068,image-keyboard-response,32
true,19,2,1,2,true,d,false,true,0.0-2.0-0.69-0.624-3.624,0,0,0,68,false,stim,false,0,382,1,0,1,24203,task2,1753560,false,false,2071,image-keyboard-response,33
true,19,2,1,2,true,d,false,false,0.0-2.0-0.69-0.625-3.625,0,0,0,68,false,stim,false,0,632,1,0,1,24203,task2,1755728,false,true,2074,image-keyboard-response,34
true,19,2,1,2,true,d,false,true,0.0-2.0-0.69-0.626-3.626,0,0,0,68,false,stim,false,0,437,1,0,0,24203,task2,1757695,false,false,2077,image-keyboard-response,35
true,19,0,1,0,true,q,false,true,0.0-2.0-0.69-0.627-3.627,0,0,0,81,false,stim,false,1,503,1,0,2,24203,task2,1759718,false,false,2080,image-keyboard-response,36
true,19,0,1,0,true,q,false,true,0.0-2.0-0.69-0.628-3.628,0,0,0,81,false,stim,false,1,544,1,0,2,24203,task2,1761802,false,false,2083,image-keyboard-response,37
true,20,2,1,0,false,q,false,false,0.0-2.0-0.69-0.629-3.629,0,0,0,68,true,stim,true,2,638,1,0,0,24203,task2,1763954,false,false,2086,image-keyboard-response,1
true,20,2,1,0,false,q,false,false,0.0-2.0-0.70-0.630-3.630,0,0,0,68,false,stim,true,2,524,1,0,0,24203,task2,1766022,false,false,2089,image-keyboard-response,2
true,20,0,1,2,false,d,false,false,0.0-2.0-0.70-0.631-3.631,0,0,0,81,false,stim,true,0,577,1,0,2,24203,task2,1768134,false,false,2092,image-keyboard-response,3
true,20,1,1,0,false,q,true,false,0.0-2.0-0.70-0.632-3.632,0,0,0,90,false,stim,false,2,662,1,0,0,24203,task2,1770309,false,false,2095,image-keyboard-response,4
true,20,0,1,2,false,d,false,false,0.0-2.0-0.70-0.633-3.633,0,0,0,81,false,stim,true,0,1045,1,0,2,24203,task2,1772894,false,false,2098,image-keyboard-response,5
