answered,blockNum,choice,condition,corResp,correct,correct_response,explo,fb,internal_node_id,isStable_1,isStable_2,isStable_3,key_press,newBlock,part,persev,persevResp,rt,sessNum,stableAS,stimulus,subject,task,time_elapsed,training,trap,trial_index,trial_type,trialsInBlock
true,1,0,0,0,true,q,false,true,0.0-2.0-0.0-0.0-3.0,0,0,0,81,true,stim,false,-1,1704,2,0,1,24203,task1,236374,false,false,79,image-keyboard-response,1
true,1,1,0,0,false,q,true,false,0.0-2.0-0.0-0.1-3.1,0,0,0,90,false,stim,false,-1,1083,2,0,0,24203,task1,238976,false,false,82,image-keyboard-response,2
true,1,1,0,1,true,z,false,true,0.0-2.0-0.0-0.2-3.2,0,0,0,90,false,stim,false,-1,788,2,0,2,24203,task1,241291,false,false,85,image-keyboard-response,3
true,1,0,0,0,true,q,false,true,0.0-2.0-0.0-0.3-3.3,0,0,0,81,false,stim,false,-1,654,2,0,1,24203,task1,243471,false,false,88,image-keyboard-response,4
true,1,0,0,0,true,q,false,true,0.0-2.0-0.0-0.4-3.4,0,0,0,81,false,stim,false,-1,872,2,0,0,24203,task1,245874,false,false,91,image-keyboard-response,5
true,1,1,0,1,true,z,false,true,0.0-2.0-0.0-0.5-3.5,0,0,0,90,false,stim,false,-1,405,2,0,2,24203,task1,247800,false,false,94,image-keyboard-response,6
true,1,0,0,0,true,q,false,true,0.0-2.0-0.0-0.6-3.6,0,0,0,81,false,stim,false,-1,434,2,0,1,24203,task1,249750,false,false,97,image-keyboard-response,7
true,1,1,0,1,true,z,false,true,0.0-2.0-0.0-0.7-3.7,0,0,0,90,false,stim,false,-1,745,2,0,2,24203,task1,252010,false,false,100,image-keyboard-response,8
true,1,0,0,0,true,q,false,true,0.0-2.0-0.0-0.8-3.8,0,0,0,81,false,stim,false,-1,408,2,0,0,24203,task1,253944,false,false,103,image-keyboard-response,9
true,1,0,0,0,true,q,false,true,0.0-2.0-0.1-0.9-3.9,0,0,0,81,false,stim,false,-1,595,2,0,0,24203,task1,256063,false,false,106,image-keyboard-response,10
true,1,1,0,1,true,z,false,true,0.0-2.0-0.1-0.10-3.10,0,0,0,90,false,stim,false,-1,458,2,0,2,24203,task1,258040,false,false,109,image-keyboard-response,11
true,1,1,0,1,true,z,false,true,0.0-2.0-0.1-0.11-3.11,0,0,0,90,false,stim,false,-1,617,2,0,2,24203,task1,260174,false,false,112,image-keyboard-response,12
true,1,0,0,0,true,q,false,true,0.0-2.0-0.1-0.12-3.12,0,0,0,81,false,stim,false,-1,453,2,0,1,24203,task1,262161,false,false,115,image-keyboard-response,13
true,1,0,0,0,true,q,false,true,0.0-2.0-0.1-0.13-3.13,0,0,0,81,false,stim,false,-1,369,2,0,0,24203,task1,264056,false,false,118,image-keyboard-response,14
true,1,0,0,0,true,q,false,true,0.0-2.0-0.1-0.14-3.14,0,0,0,81,false,stim,false,-1,1361,2,0,1,24203,task1,266941,false,false,121,image-keyboard-response,15
true,1,0,0,0,true,q,false,true,0.0-2.0-0.1-0.15-3.15,0,0,0,81,false,stim,false,-1,576,2,0,1,24203,task1,269037,false,false,124,image-keyboard-response,16
true,1,1,0,1,true,z,false,true,0.0-2.0-0.1-0.16-3.16,0,0,0,90,false,stim,false,-1,539,2,0,2,24203,task1,271084,false,false,127,image-keyboard-response,17
true,1,0,0,0,true,q,false,false,0.0-2.0-0.1-0.17-3.17,0,0,0,81,false,stim,false,-1,438,2,0,0,24203,task1,273046,false,true,130,image-keyboard-response,18
true,1,2,0,0,false,q,true,false,0.0-2.0-0.2-0.18-3.18,0,0,0,68,false,stim,false,-1,399,2,0,0,24203,task1,274966,false,false,133,image-keyboard-response,19
true,1,1,0,1,true,z,false,true,0.0-2.0-0.2-0.19-3.19,0,0,0,90,false,stim,false,-1,949,2,0,2,24203,task1,277439,false,false,136,image-keyboard-response,20
true,1,0,0,0,true,q,false,true,0.0-2.0-0.2-0.20-3.20,0,0,0,81,false,stim,false,-1,425,2,0,1,24203,task1,279396,false,false,139,image-keyboard-response,21
true,1,0,0,0,true,q,false,true,0.0-2.0-0.2-0.21-3.21,0,0,0,81,false,stim,false,-1,380,2,0,1,24203,task1,281299,false,false,142,image-keyboard-response,22
true,1,0,0,0,true,q,false,true,0.0-2.0-0.2-0.22-3.22,0,0,0,81,false,stim,false,-1,501,2,0,1,24203,task1,283336,false,false,145,image-keyboard-response,23
true,1,1,0,1,true,z,false,true,0.0-2.0-0.2-0.23-3.23,0,0,0,90,false,stim,false,-1,545,2,0,2,24203,task1,285410,false,false,148,image-keyboard-response,24
true,1,1,0,0,false,q,true,false,0.0-2.0-0.2-0.24-3.24,0,0,0,90,false,stim,false,-1,299,2,0,0,24203,task1,287228,false,false,151,image-keyboard-response,25
true,1,1,0,1,true,z,false,true,0.0-2.0-0.2-0.25-3.25,0,0,0,90,false,stim,false,-1,735,2,0,2,24203,task1,289485,false,false,154,image-keyboard-response,26
true,2,0,1,2,false,d,false,false,0.0-2.0-0.2-0.26-3.26,0,0,0,81,true,stim,true,0,497,2,0,0,24203,task1,291505,false,false,157,image-keyboard-response,1
true,2,0,1,2,false,d,false,false,0.0-2.0-0.3-0.27-3.27,0,0,0,81,false,stim,true,0,449,2,0,1,24203,task1,293490,false,false,160,image-keyboard-response,2
true,2,1,1,0,false,q,false,true,0.0-2.0-0.3-0.28-3.28,0,0,0,90,false,stim,true,1,687,2,0,2,24203,task1,295710,false,true,163,image-keyboard-response,3
true,2,2,1,2,true,d,false,false,0.0-2.0-0.3-0.29-3.29,0,0,0,68,false,stim,false,0,563,2,0,1,24203,task1,297800,false,true,166,image-keyboard-response,4
true,2,2,1,2,true,d,false,true,0.0-2.0-0.3-0.30-3.30,0,0,0,68,false,stim,false,0,853,2,0,0,24203,task1,300170,false,false,169,image-keyboard-response,5
true,2,0,1,2,false,d,false,false,0.0-2.0-0.3-0.31-3.31,0,0,0,81,false,stim,true,0,1345,2,0,1,24203,task1,303043,false,false,172,image-keyboard-response,6
true,2,2,1,2,true,d,false,true,0.0-2.0-0.3-0.32-3.32,0,0,0,68,false,stim,false,0,595,2,0,0,24203,task1,305157,false,false,175,image-keyboard-response,7
true,2,1,1,0,false,q,false,false,0.0-2.0-0.3-0.33-3.33,0,0,0,90,false,stim,true,1,379,2,0,2,24203,task1,307050,false,false,178,image-keyboard-response,8
true,2,2,1,2,true,d,false,true,0.0-2.0-0.3-0.34-3.34,0,0,0,68,false,stim,false,0,732,2,0,0,24203,task1,309307,false,false,181,image-keyboard-response,9
true,2,0,1,0,true,q,false,true,0.0-2.0-0.3-0.35-3.35,0,0,0,81,false,stim,false,1,624,2,0,2,24203,task1,311463,false,false,184,image-keyboard-response,10
true,2,0,1,2,false,d,false,false,0.0-2.0-0.4-0.36-3.36,0,0,0,81,false,stim,true,0,1526,2,0,1,24203,task1,314514,false,false,187,image-keyboard-response,11
true,2,0,1,0,true,q,false,false,0.0-2.0-0.4-0.37-3.37,0,0,0,81,false,stim,false,1,761,2,0,2,24203,task1,316795,false,true,190,image-keyboard-response,12
true,2,2,1,2,true,d,false,true,0.0-2.0-0.4-0.38-3.38,0,0,0,68,false,stim,false,0,342,2,0,0,24203,task1,318645,false,false,193,image-keyboard-response,13
true,2,1,1,0,false,q,false,false,0.0-2.0-0.4-0.39-3.39,0,0,0,90,false,stim,true,1,2799,2,0,2,24203,task1,322963,false,false,196,image-keyboard-response,14
true,2,2,1,2,true,d,false,true,0.0-2.0-0.4-0.40-3.40,0,0,0,68,false,stim,false,0,780,2,0,0,24203,task1,325254,false,false,199,image-keyboard-response,15
true,2,2,1,2,true,d,false,true,0.0-2.0-0.4-0.41-3.41,0,0,0,68,false,stim,false,0,686,2,0,1,24203,task1,327457,false,false,202,image-keyboard-response,16
true,2,2,1,0,false,q,true,false,0.0-2.0-0.4-0.42-3.42,0,0,0,68,false,stim,false,1,381,2,0,2,24203,task1,329351,false,false,205,image-keyboard-response,17
true,2,2,1,2,true,d,false,true,0.0-2.0-0.4-0.43-3.43,0,0,0,68,false,stim,false,0,566,2,0,0,24203,task1,331446,false,false,208,image-keyboard-response,18
true,2,2,1,2,true,d,false,false,0.0-2.0-0.4-0.44-3.44,0,0,0,68,false,stim,false,0,536,2,0,1,24203,task1,333505,false,true,211,image-keyboard-response,19
true,2,1,1,2,false,d,true,false,0.0-2.0-0.5-0.45-3.45,0,0,0,90,false,stim,false,0,1213,2,0,1,24203,task1,336248,false,false,214,image-keyboard-response,20
true,2,1,1,0,false,q,false,false,0.0-2.0-0.5-0.46-3.46,0,0,0,90,false,stim,true,1,1342,2,0,2,24203,task1,339125,false,false,217,image-keyboard-response,21
true,2,2,1,2,true,d,false,true,0.0-2.0-0.5-0.47-3.47,0,0,0,68,false,stim,false,0,551,2,0,0,24203,task1,341197,false,false,220,image-keyboard-response,22
true,2,0,1,2,false,d,false,false,0.0-2.0-0.5-0.48-3.48,0,0,0,81,false,stim,true,0,608,2,0,1,24203,task1,343336,false,false,223,image-keyboard-response,23
true,2,2,1,2,true,d,false,true,0.0-2.0-0.5-0.49-3.49,0,0,0,68,false,stim,false,0,755,2,0,0,24203,task1,345613,false,false,226,image-keyboard-response,24
true,2,0,1,0,true,q,false,true,0.0-2.0-0.5-0.50-3.50,0,0,0,81,false,stim,false,1,844,2,0,2,24203,task1,347985,false,false,229,image-keyboard-response,25
true,2,0,1,2,false,d,false,false,0.0-2.0-0.5-0.51-3.51,0,0,0,81,false,stim,true,0,1162,2,0,1,24203,task1,350659,false,false,232,image-keyboard-response,26
true,2,2,1,2,true,d,false,true,0.0-2.0-0.5-0.52-3.52,0,0,0,68,false,stim,false,0,471,2,0,0,24203,task1,352640,false,false,235,image-keyboard-response,27
true,2,0,1,0,true,q,false,false,0.0-2.0-0.5-0.53-3.53,0,0,0,81,false,stim,false,1,706,2,0,2,24203,task1,354868,false,true,238,image-keyboard-response,28
true,2,2,1,2,true,d,false,true,0.0-2.0-0.6-0.54-3.54,0,0,0,68,false,stim,false,0,912,2,0,0,24203,task1,357306,false,false,241,image-keyboard-response,29
true,2,2,1,2,true,d,false,false,0.0-2.0-0.6-0.55-3.55,0,0,0,68,false,stim,false,0,585,2,0,1,24203,task1,359406,false,true,244,image-keyboard-response,30
true,2,2,1,0,false,q,true,false,0.0-2.0-0.6-0.56-3.56,0,0,0,68,false,stim,false,1,407,2,0,2,24203,task1,361334,false,false,247,image-keyboard-response,31
true,2,0,1,0,true,q,false,true,0.0-2.0-0.6-0.57-3.57,0,0,0,81,false,stim,false,1,916,2,0,2,24203,task1,363775,false,false,250,image-keyboard-response,32
true,2,0,1,2,false,d,false,false,0.0-2.0-0.6-0.58-3.58,0,0,0,81,false,stim,true,0,962,2,0,1,24203,task1,366268,false,false,253,image-keyboard-response,33
true,2,1,1,2,false,d,true,false,0.0-2.0-0.6-0.59-3.59,0,0,0,90,false,stim,false,0,647,2,0,1,24203,task1,368434,false,false,256,image-keyboard-response,34
true,2,2,1,2,true,d,false,true,0.0-2.0-0.6-0.60-3.60,0,0,0,68,false,stim,false,0,626,2,0,0,24203,task1,370593,false,false,259,image-keyboard-response,35
true,2,0,1,0,true,q,false,true,0.0-2.0-0.6-0.61-3.61,0,0,0,81,false,stim,false,1,546,2,0,2,24203,task1,372662,false,false,262,image-keyboard-response,36
true,2,2,1,2,true,d,false,true,0.0-2.0-0.6-0.62-3.62,0,0,0,68,false,stim,false,0,639,2,0,0,24203,task1,374820,false,false,265,image-keyboard-response,37
true,2,0,1,0,true,q,false,true,0.0-2.0-0.7-0.63-3.63,0,0,0,81,false,stim,false,1,784,2,0,2,24203,task1,377129,false,false,268,image-keyboard-response,38
true,2,2,1,2,true,d,false,true,0.0-2.0-0.7-0.64-3.64,0,0,0,68,false,stim,false,0,592,2,0,1,24203,task1,379253,false,false,271,image-keyboard-response,39
true,2,2,1,2,true,d,false,true,0.0-2.0-0.7-0.65-3.65,0,0,0,68,false,stim,false,0,587,2,0,0,24203,task1,381346,false,false,274,image-keyboard-response,40
true,3,0,1,2,false,d,false,false,0.0-2.0-0.7-0.66-3.66,0,0,0,81,true,stim,true,0,764,2,0,2,24203,task1,383638,false,false,277,image-keyboard-response,1
true,3,0,1,2,false,d,false,false,0.0-2.0-0.7-0.67-3.67,0,0,0,81,false,stim,true,0,604,2,0,2,24203,task1,385775,false,false,280,image-keyboard-response,2
true,3,2,1,1,false,z,false,false,0.0-2.0-0.7-0.68-3.68,0,0,0,68,false,stim,true,2,514,2,0,1,24203,task1,387800,false,false,283,image-keyboard-response,3
true,3,2,1,1,false,z,false,false,0.0-2.0-0.7-0.69-3.69,0,0,0,68,false,stim,true,2,498,2,0,1,24203,task1,389816,false,false,286,image-keyboard-response,4
true,3,2,1,1,false,z,false,true,0.0-2.0-0.7-0.70-3.70,0,0,0,68,false,stim,true,2,745,2,0,0,24203,task1,392093,false,true,289,image-keyboard-response,5
true,3,2,1,1,false,z,false,true,0.0-2.0-0.7-0.71-3.71,0,0,0,68,false,stim,true,2,467,2,0,0,24203,task1,394081,false,true,292,image-keyboard-response,6
true,3,1,1,1,true,z,false,true,0.0-2.0-0.8-0.72-3.72,0,0,0,90,false,stim,false,2,1358,2,0,1,24203,task1,396970,false,false,295,image-keyboard-response,7
true,3,1,1,1,true,z,false,true,0.0-2.0-0.8-0.73-3.73,0,0,0,90,false,stim,false,2,778,2,0,1,24203,task1,399271,false,false,298,image-keyboard-response,8
true,3,0,1,2,false,d,false,false,0.0-2.0-0.8-0.74-3.74,0,0,0,81,false,stim,true,0,1042,2,0,2,24203,task1,401838,false,false,301,image-keyboard-response,9
true,3,2,1,2,true,d,false,true,0.0-2.0-0.8-0.75-3.75,0,0,0,68,false,stim,false,0,1014,2,0,2,24203,task1,404386,false,false,304,image-keyboard-response,10
true,3,2,1,1,false,z,false,false,0.0-2.0-0.8-0.76-3.76,0,0,0,68,false,stim,true,2,410,2,0,0,24203,task1,406328,false,false,307,image-keyboard-response,11
true,3,2,1,2,true,d,false,true,0.0-2.0-0.8-0.77-3.77,0,0,0,68,false,stim,false,0,587,2,0,2,24203,task1,408439,false,false,310,image-keyboard-response,12
true,3,2,1,1,false,z,false,false,0.0-2.0-0.8-0.78-3.78,0,0,0,68,false,stim,true,2,558,2,0,0,24203,task1,410525,false,false,313,image-keyboard-response,13
true,3,0,1,1,false,z,true,true,0.0-2.0-0.8-0.79-3.79,0,0,0,81,false,stim,false,2,520,2,0,0,24203,task1,412567,false,true,316,image-keyboard-response,14
true,3,1,1,1,true,z,false,false,0.0-2.0-0.8-0.80-3.80,0,0,0,90,false,stim,false,2,1135,2,0,1,24203,task1,415226,false,true,319,image-keyboard-response,15
true,3,1,1,1,true,z,false,true,0.0-2.0-0.9-0.81-3.81,0,0,0,90,false,stim,false,2,775,2,0,1,24203,task1,417536,false,false,322,image-keyboard-response,16
true,3,2,1,2,true,d,false,true,0.0-2.0-0.9-0.82-3.82,0,0,0,68,false,stim,false,0,650,2,0,2,24203,task1,419706,false,false,325,image-keyboard-response,17
true,3,0,1,1,false,z,true,false,0.0-2.0-0.9-0.83-3.83,0,0,0,81,false,stim,false,2,356,2,0,0,24203,task1,421593,false,false,328,image-keyboard-response,18
true,3,0,1,1,false,z,true,false,0.0-2.0-0.9-0.84-3.84,0,0,0,81,false,stim,false,2,595,2,0,0,24203,task1,423713,false,false,331,image-keyboard-response,19
true,3,1,1,1,true,z,false,true,0.0-2.0-0.9-0.85-3.85,0,0,0,90,false,stim,false,2,559,2,0,1,24203,task1,425793,false,false,334,image-keyboard-response,20
true,3,2,1,2,true,d,false,true,0.0-2.0-0.9-0.86-3.86,0,0,0,68,false,stim,false,0,635,2,0,2,24203,task1,427951,false,false,337,image-keyboard-response,21
true,3,1,1,1,true,z,false,true,0.0-2.0-0.9-0.87-3.87,0,0,0,90,false,stim,false,2,945,2,0,1,24203,task1,430408,false,false,340,image-keyboard-response,22
true,3,1,1,1,true,z,false,true,0.0-2.0-0.9-0.88-3.88,0,0,0,90,false,stim,false,2,1900,2,0,0,24203,task1,433826,false,false,343,image-keyboard-response,23
true,3,2,1,2,true,d,false,true,0.0-2.0-0.9-0.89-3.89,0,0,0,68,false,stim,false,0,416,2,0,2,24203,task1,435774,false,false,346,image-keyboard-response,24
true,3,2,1,2,true,d,false,true,0.0-2.0-0.10-0.90-3.90,0,0,0,68,false,stim,false,0,757,2,0,2,24203,task1,438064,false,false,349,image-keyboard-response,25
true,3,2,1,2,true,d,false,true,0.0-2.0-0.10-0.91-3.91,0,0,0,68,false,stim,false,0,534,2,0,2,24203,task1,440121,false,false,352,image-keyboard-response,26
true,3,1,1,1,true,z,false,true,0.0-2.0-0.10-0.92-3.92,0,0,0,90,false,stim,false,2,509,2,0,1,24203,task1,442162,false,false,355,image-keyboard-response,27
true,3,1,1,1,true,z,false,true,0.0-2.0-0.10-0.93-3.93,0,0,0,90,false,stim,false,2,627,2,0,0,24203,task1,444310,false,false,358,image-keyboard-response,28
true,3,1,1,1,true,z,false,true,0.0-2.0-0.10-0.94-3.94,0,0,0,90,false,stim,false,2,435,2,0,1,24203,task1,446267,false,false,361,image-keyboard-response,29
true,3,1,1,1,true,z,false,true,0.0-2.0-0.10-0.95-3.95,0,0,0,90,false,stim,false,2,392,2,0,0,24203,task1,448189,false,false,364,image-keyboard-response,30
true,3,1,1,1,true,z,false,true,0.0-2.0-0.10-0.96-3.96,0,0,0,90,false,stim,false,2,473,2,0,0,24203,task1,450185,false,false,367,image-keyboard-response,31
true,3,1,1,1,true,z,false,true,0.0-2.0-0.10-0.97-3.97,0,0,0,90,false,stim,false,2,443,2,0,1,24203,task1,452152,false,false,370,image-keyboard-response,32
true,3,2,1,2,true,d,false,true,0.0-2.0-0.10-0.98-3.98,0,0,0,68,false,stim,false,0,818,2,0,2,24203,task1,454493,false,false,373,image-keyboard-response,33
true,3,1,1,1,true,z,false,true,0.0-2.0-0.11-0.99-3.99,0,0,0,90,false,stim,false,2,474,2,0,0,24203,task1,456494,false,false,376,image-keyboard-response,34
true,3,2,1,2,true,d,false,true,0.0-2.0-0.11-0.100-3.100,0,0,0,68,false,stim,false,0,1033,2,0,2,24203,task1,459053,false,false,379,image-keyboard-response,35
true,3,1,1,1,true,z,false,true,0.0-2.0-0.11-0.101-3.101,0,0,0,90,false,stim,false,2,1019,2,0,1,24203,task1,461602,false,false,382,image-keyboard-response,36
true,3,2,1,2,true,d,false,true,0.0-2.0-0.11-0.102-3.102,0,0,0,68,false,stim,false,0,851,2,0,2,24203,task1,463982,false,false,385,image-keyboard-response,37
true,3,1,1,1,true,z,false,true,0.0-2.0-0.11-0.103-3.103,0,0,0,90,false,stim,false,2,458,2,0,0,24203,task1,465970,false,false,388,image-keyboard-response,38
true,3,2,1,2,true,d,false,true,0.0-2.0-0.11-0.104-3.104,0,0,0,68,false,stim,false,0,763,2,0,2,24203,task1,468254,false,false,391,image-keyboard-response,39
true,4,1,2,2,false,d,false,false,0.0-2.0-0.11-0.105-3.105,0,0,0,90,true,stim,true,1,837,2,0,0,24203,task1,470611,false,false,394,image-keyboard-response,1
true,4,1,2,2,false,d,false,false,0.0-2.0-0.11-0.106-3.106,0,0,0,90,false,stim,true,1,507,2,0,1,24203,task1,472647,false,false,397,image-keyboard-response,2
true,4,1,2,2,false,d,false,false,0.0-2.0-0.11-0.107-3.107,0,0,0,90,false,stim,true,1,809,2,0,1,24203,task1,474968,false,false,400,image-keyboard-response,3
true,4,0,2,2,false,d,true,false,0.0-2.0-0.12-0.108-3.108,0,0,0,81,false,stim,false,1,508,2,0,1,24203,task1,477011,false,false,403,image-keyboard-response,4
true,4,2,2,2,true,d,false,true,0.0-2.0-0.12-0.109-3.109,0,0,0,68,false,stim,false,1,841,2,0,0,24203,task1,479377,false,false,406,image-keyboard-response,5
true,4,2,2,2,true,d,false,false,0.0-2.0-0.12-0.110-3.110,0,0,0,68,false,stim,false,1,771,2,0,1,24203,task1,481671,false,true,409,image-keyboard-response,6
true,4,2,2,2,true,d,false,true,0.0-2.0-0.12-0.111-3.111,0,0,0,68,false,stim,false,1,920,2,0,0,24203,task1,484107,false,false,412,image-keyboard-response,7
true,4,0,2,2,false,d,true,false,0.0-2.0-0.12-0.112-3.112,0,0,0,81,false,stim,false,1,756,2,0,1,24203,task1,486384,false,false,415,image-keyboard-response,8
true,4,2,2,2,true,d,false,true,0.0-2.0-0.12-0.113-3.113,0,0,0,68,false,stim,false,1,548,2,0,0,24203,task1,488457,false,false,418,image-keyboard-response,9
true,4,2,2,0,false,q,false,false,0.0-2.0-0.12-0.114-3.114,0,0,0,68,false,stim,true,2,983,2,0,2,24203,task1,490973,false,false,421,image-keyboard-response,10
true,4,1,2,0,false,q,true,false,0.0-2.0-0.12-0.115-3.115,0,0,0,90,false,stim,false,2,1401,2,0,2,24203,task1,493905,false,false,424,image-keyboard-response,11
true,4,2,2,0,false,q,false,false,0.0-2.0-0.12-0.116-3.116,0,0,0,68,false,stim,true,2,554,2,0,2,24203,task1,495989,false,false,427,image-keyboard-response,12
true,4,0,2,0,true,q,false,true,0.0-2.0-0.13-0.117-3.117,0,0,0,81,false,stim,false,2,534,2,0,2,24203,task1,498049,false,false,430,image-keyboard-response,13
true,4,1,2,2,false,d,false,false,0.0-2.0-0.13-0.118-3.118,0,0,0,90,false,stim,true,1,795,2,0,1,24203,task1,500359,false,false,433,image-keyboard-response,14
true,4,2,2,2,true,d,false,true,0.0-2.0-0.13-0.119-3.119,0,0,0,68,false,stim,false,1,765,2,0,0,24203,task1,502643,false,false,436,image-keyboard-response,15
true,4,2,2,2,true,d,false,true,0.0-2.0-0.13-0.120-3.120,0,0,0,68,false,stim,false,1,599,2,0,0,24203,task1,504772,false,false,439,image-keyboard-response,16
true,4,0,2,2,false,d,true,false,0.0-2.0-0.13-0.121-3.121,0,0,0,81,false,stim,false,1,1345,2,0,1,24203,task1,507637,false,false,442,image-keyboard-response,17
true,4,2,2,2,true,d,false,false,0.0-2.0-0.13-0.122-3.122,0,0,0,68,false,stim,false,1,689,2,0,0,24203,task1,509853,false,true,445,image-keyboard-response,18
true,4,0,2,0,true,q,false,true,0.0-2.0-0.13-0.123-3.123,0,0,0,81,false,stim,false,2,898,2,0,2,24203,task1,512285,false,false,448,image-keyboard-response,19
true,4,0,2,0,true,q,false,false,0.0-2.0-0.13-0.124-3.124,0,0,0,81,false,stim,false,2,599,2,0,2,24203,task1,514416,false,true,451,image-keyboard-response,20
true,4,1,2,2,false,d,false,false,0.0-2.0-0.13-0.125-3.125,0,0,0,90,false,stim,true,1,1464,2,0,1,24203,task1,517413,false,false,454,image-keyboard-response,21
true,4,2,2,0,false,q,false,false,0.0-2.0-0.14-0.126-3.126,0,0,0,68,false,stim,true,2,816,2,0,2,24203,task1,519762,false,false,457,image-keyboard-response,22
true,4,2,2,2,true,d,false,true,0.0-2.0-0.14-0.127-3.127,0,0,0,68,false,stim,false,1,958,2,0,1,24203,task1,522251,false,false,460,image-keyboard-response,23
true,4,2,2,2,true,d,false,true,0.0-2.0-0.14-0.128-3.128,0,0,0,68,false,stim,false,1,580,2,0,1,24203,task1,524355,false,false,463,image-keyboard-response,24
true,4,2,2,2,true,d,false,true,0.0-2.0-0.14-0.129-3.129,0,0,0,68,false,stim,false,1,595,2,0,0,24203,task1,526483,false,false,466,image-keyboard-response,25
true,4,2,2,2,true,d,false,true,0.0-2.0-0.14-0.130-3.130,0,0,0,68,false,stim,false,1,520,2,0,1,24203,task1,528525,false,false,469,image-keyboard-response,26
true,4,2,2,2,true,d,false,true,0.0-2.0-0.14-0.131-3.131,0,0,0,68,false,stim,false,1,499,2,0,0,24203,task1,530552,false,false,472,image-keyboard-response,27
true,4,2,2,2,true,d,false,true,0.0-2.0-0.14-0.132-3.132,0,0,0,68,false,stim,false,1,408,2,0,0,24203,task1,532492,false,false,475,image-keyboard-response,28
true,4,1,2,0,false,q,true,false,0.0-2.0-0.14-0.133-3.133,0,0,0,90,false,stim,false,2,2105,2,0,2,24203,task1,536122,false,false,478,image-keyboard-response,29
true,4,2,2,0,false,q,false,false,0.0-2.0-0.14-0.134-3.134,0,0,0,68,false,stim,true,2,617,2,0,2,24203,task1,538257,false,false,481,image-keyboard-response,30
true,4,2,2,2,true,d,false,true,0.0-2.0-0.15-0.135-3.135,0,0,0,68,false,stim,false,1,809,2,0,1,24203,task1,540586,false,false,484,image-keyboard-response,31
true,4,1,2,2,false,d,false,false,0.0-2.0-0.15-0.136-3.136,0,0,0,90,false,stim,true,1,543,2,0,0,24203,task1,542649,false,false,487,image-keyboard-response,32
true,4,2,2,2,true,d,false,true,0.0-2.0-0.15-0.137-3.137,0,0,0,68,false,stim,false,1,392,2,0,1,24203,task1,544562,false,false,490,image-keyboard-response,33
true,4,2,2,2,true,d,false,true,0.0-2.0-0.15-0.138-3.138,0,0,0,68,false,stim,false,1,317,2,0,0,24203,task1,546404,false,false,493,image-keyboard-response,34
true,4,2,2,2,true,d,false,true,0.0-2.0-0.15-0.139-3.139,0,0,0,68,false,stim,false,1,459,2,0,0,24203,task1,548395,false,false,496,image-keyboard-response,35
true,4,2,2,2,true,d,false,true,0.0-2.0-0.15-0.140-3.140,0,0,0,68,false,stim,false,1,535,2,0,1,24203,task1,550452,false,false,499,image-keyboard-response,36
true,4,0,2,0,true,q,false,true,0.0-2.0-0.15-0.141-3.141,0,0,0,81,false,stim,false,2,1642,2,0,2,24203,task1,553625,false,false,502,image-keyboard-response,37
true,4,0,2,0,true,q,false,true,0.0-2.0-0.15-0.142-3.142,0,0,0,81,false,stim,false,2,423,2,0,2,24203,task1,555569,false,false,505,image-keyboard-response,38
true,4,0,2,0,true,q,false,true,0.0-2.0-0.15-0.143-3.143,0,0,0,81,false,stim,false,2,505,2,0,2,24203,task1,557599,false,false,508,image-keyboard-response,39
true,4,2,2,2,true,d,false,true,0.0-2.0-0.16-0.144-3.144,0,0,0,68,false,stim,false,1,832,2,0,1,24203,task1,559958,false,false,511,image-keyboard-response,40
true,4,2,2,2,true,d,false,true,0.0-2.0-0.16-0.145-3.145,0,0,0,68,false,stim,false,1,794,2,0,1,24203,task1,562284,false,false,514,image-keyboard-response,41
true,5,2,1,0,false,q,false,false,0.0-2.0-0.16-0.146-3.146,0,0,0,68,true,stim,true,2,868,2,0,1,24203,task1,564673,false,false,517,image-keyboard-response,1
true,5,0,1,1,false,z,false,false,0.0-2.0-0.16-0.147-3.147,0,0,0,81,false,stim,true,0,821,2,0,2,24203,task1,567023,false,false,520,image-keyboard-response,2
true,5,0,1,1,false,z,false,false,0.0-2.0-0.16-0.148-3.148,0,0,0,81,false,stim,true,0,807,2,0,2,24203,task1,569356,false,false,523,image-keyboard-response,3
true,5,2,1,1,false,z,false,false,0.0-2.0-0.16-0.149-3.149,0,0,0,68,false,stim,true,2,708,2,0,0,24203,task1,571589,false,false,526,image-keyboard-response,4
true,5,2,1,1,false,z,false,false,0.0-2.0-0.16-0.150-3.150,0,0,0,68,false,stim,true,2,636,2,0,0,24203,task1,573749,false,false,529,image-keyboard-response,5
true,5,1,1,1,true,z,false,true,0.0-2.0-0.16-0.151-3.151,0,0,0,90,false,stim,false,2,359,2,0,0,24203,task1,575636,false,false,532,image-keyboard-response,6
true,5,1,1,1,true,z,false,true,0.0-2.0-0.16-0.152-3.152,0,0,0,90,false,stim,false,0,696,2,0,2,24203,task1,577854,false,false,535,image-keyboard-response,7
true,5,1,1,1,true,z,false,true,0.0-2.0-0.17-0.153-3.153,0,0,0,90,false,stim,false,0,1011,2,0,2,24203,task1,580393,false,false,538,image-keyboard-response,8
true,5,1,1,1,true,z,false,true,0.0-2.0-0.17-0.154-3.154,0,0,0,90,false,stim,false,0,1093,2,0,2,24203,task1,583015,false,false,541,image-keyboard-response,9
true,5,1,1,0,false,q,true,false,0.0-2.0-0.17-0.155-3.155,0,0,0,90,false,stim,false,2,1077,2,0,1,24203,task1,585624,false,false,544,image-keyboard-response,10
true,5,2,1,0,false,q,false,true,0.0-2.0-0.17-0.156-3.156,0,0,0,68,false,stim,true,2,433,2,0,1,24203,task1,587583,false,true,547,image-keyboard-response,11
true,5,1,1,1,true,z,false,true,0.0-2.0-0.17-0.157-3.157,0,0,0,90,false,stim,false,2,696,2,0,0,24203,task1,589794,false,false,550,image-keyboard-response,12
true,5,1,1,1,true,z,false,true,0.0-2.0-0.17-0.158-3.158,0,0,0,90,false,stim,false,2,789,2,0,0,24203,task1,592117,false,false,553,image-keyboard-response,13
true,5,2,1,0,false,q,false,false,0.0-2.0-0.17-0.159-3.159,0,0,0,68,false,stim,true,2,700,2,0,1,24203,task1,594343,false,false,556,image-keyboard-response,14
true,5,1,1,1,true,z,false,true,0.0-2.0-0.17-0.160-3.160,0,0,0,90,false,stim,false,2,674,2,0,0,24203,task1,596548,false,false,559,image-keyboard-response,15
true,5,1,1,1,true,z,false,false,0.0-2.0-0.17-0.161-3.161,0,0,0,90,false,stim,false,0,905,2,0,2,24203,task1,598960,false,true,562,image-keyboard-response,16
true,5,1,1,1,true,z,false,true,0.0-2.0-0.18-0.162-3.162,0,0,0,90,false,stim,false,2,668,2,0,0,24203,task1,601154,false,false,565,image-keyboard-response,17
true,5,2,1,0,false,q,false,false,0.0-2.0-0.18-0.163-3.163,0,0,0,68,false,stim,true,2,1146,2,0,1,24203,task1,603830,false,false,568,image-keyboard-response,18
true,5,1,1,1,true,z,false,true,0.0-2.0-0.18-0.164-3.164,0,0,0,90,false,stim,false,2,620,2,0,0,24203,task1,605986,false,false,571,image-keyboard-response,19
true,5,1,1,1,true,z,false,true,0.0-2.0-0.18-0.165-3.165,0,0,0,90,false,stim,false,0,831,2,0,2,24203,task1,608345,false,false,574,image-keyboard-response,20
true,5,0,1,0,true,q,false,true,0.0-2.0-0.18-0.166-3.166,0,0,0,81,false,stim,false,2,636,2,0,1,24203,task1,610496,false,false,577,image-keyboard-response,21
true,5,1,1,1,true,z,false,true,0.0-2.0-0.18-0.167-3.167,0,0,0,90,false,stim,false,0,739,2,0,2,24203,task1,612764,false,false,580,image-keyboard-response,22
true,5,1,1,1,true,z,false,true,0.0-2.0-0.18-0.168-3.168,0,0,0,90,false,stim,false,2,374,2,0,0,24203,task1,614663,false,false,583,image-keyboard-response,23
true,5,1,1,1,true,z,false,true,0.0-2.0-0.18-0.169-3.169,0,0,0,90,false,stim,false,0,579,2,0,2,24203,task1,616767,false,false,586,image-keyboard-response,24
true,5,0,1,0,true,q,false,true,0.0-2.0-0.18-0.170-3.170,0,0,0,81,false,stim,false,2,731,2,0,1,24203,task1,619016,false,false,589,image-keyboard-response,25
true,5,0,1,0,true,q,false,false,0.0-2.0-0.19-0.171-3.171,0,0,0,81,false,stim,false,2,509,2,0,1,24203,task1,621060,false,true,592,image-keyboard-response,26
true,5,1,1,1,true,z,false,true,0.0-2.0-0.19-0.172-3.172,0,0,0,90,false,stim,false,2,643,2,0,0,24203,task1,623225,false,false,595,image-keyboard-response,27
true,5,1,1,1,true,z,false,true,0.0-2.0-0.19-0.173-3.173,0,0,0,90,false,stim,false,0,487,2,0,2,24203,task1,625233,false,false,598,image-keyboard-response,28
true,5,1,1,1,true,z,false,true,0.0-2.0-0.19-0.174-3.174,0,0,0,90,false,stim,false,0,709,2,0,2,24203,task1,627476,false,false,601,image-keyboard-response,29
true,5,1,1,1,true,z,false,true,0.0-2.0-0.19-0.175-3.175,0,0,0,90,false,stim,false,2,496,2,0,0,24203,task1,629506,false,false,604,image-keyboard-response,30
true,5,0,1,0,true,q,false,true,0.0-2.0-0.19-0.176-3.176,0,0,0,81,false,stim,false,2,573,2,0,1,24203,task1,631616,false,false,607,image-keyboard-response,31
true,5,0,1,0,true,q,false,true,0.0-2.0-0.19-0.177-3.177,0,0,0,81,false,stim,false,2,620,2,0,1,24203,task1,633760,false,false,610,image-keyboard-response,32
true,5,1,1,1,true,z,false,true,0.0-2.0-0.19-0.178-3.178,0,0,0,90,false,stim,false,2,546,2,0,0,24203,task1,635841,false,false,613,image-keyboard-response,33
true,5,1,1,1,true,z,false,true,0.0-2.0-0.19-0.179-3.179,0,0,0,90,false,stim,false,0,420,2,0,2,24203,task1,637788,false,false,616,image-keyboard-response,34
true,5,1,1,1,true,z,false,true,0.0-2.0-0.20-0.180-3.180,0,0,0,90,false,stim,false,2,559,2,0,0,24203,task1,639876,false,false,619,image-keyboard-response,35
true,5,1,1,1,true,z,false,true,0.0-2.0-0.20-0.181-3.181,0,0,0,90,false,stim,false,0,834,2,0,2,24203,task1,642232,false,false,622,image-keyboard-response,36
true,5,1,1,1,true,z,false,true,0.0-2.0-0.20-0.182-3.182,0,0,0,90,false,stim,false,2,687,2,0,0,24203,task1,644433,false,false,625,image-keyboard-response,37
true,5,0,1,0,true,q,false,true,0.0-2.0-0.20-0.183-3.183,0,0,0,81,false,stim,false,2,701,2,0,1,24203,task1,646662,false,false,628,image-keyboard-response,38
true,5,0,1,0,true,q,false,true,0.0-2.0-0.20-0.184-3.184,0,0,0,81,false,stim,false,2,770,2,0,1,24203,task1,648962,false,false,631,image-keyboard-response,39
true,5,1,1,1,true,z,false,false,0.0-2.0-0.20-0.185-3.185,0,0,0,90,false,stim,false,0,797,2,0,2,24203,task1,651286,false,true,634,image-keyboard-response,40
true,6,1,2,2,false,d,false,false,0.0-2.0-0.20-0.186-3.186,0,0,0,90,true,stim,true,1,603,2,0,0,24203,task1,653424,false,false,637,image-keyboard-response,1
true,6,1,2,0,false,q,false,false,0.0-2.0-0.20-0.187-3.187,0,0,0,90,false,stim,true,1,2161,2,0,2,24203,task1,657097,false,false,640,image-keyboard-response,2
true,6,0,2,2,false,d,false,false,0.0-2.0-0.20-0.188-3.188,0,0,0,81,false,stim,true,0,582,2,0,1,24203,task1,659215,false,false,643,image-keyboard-response,3
true,6,2,2,0,false,q,true,false,0.0-2.0-0.21-0.189-3.189,0,0,0,68,false,stim,false,1,466,2,0,2,24203,task1,661212,false,false,646,image-keyboard-response,4
true,6,2,2,2,true,d,false,true,0.0-2.0-0.21-0.190-3.190,0,0,0,68,false,stim,false,0,1491,2,0,1,24203,task1,664237,false,false,649,image-keyboard-response,5
true,6,0,2,2,false,d,true,true,0.0-2.0-0.21-0.191-3.191,0,0,0,81,false,stim,false,1,441,2,0,0,24203,task1,666200,false,true,652,image-keyboard-response,6
true,6,2,2,2,true,d,false,true,0.0-2.0-0.21-0.192-3.192,0,0,0,68,false,stim,false,0,652,2,0,1,24203,task1,668376,false,false,655,image-keyboard-response,7
true,6,0,2,2,false,d,true,false,0.0-2.0-0.21-0.193-3.193,0,0,0,81,false,stim,false,1,526,2,0,0,24203,task1,670432,false,false,658,image-keyboard-response,8
true,6,2,2,2,true,d,false,true,0.0-2.0-0.21-0.194-3.194,0,0,0,68,false,stim,false,0,646,2,0,1,24203,task1,672600,false,false,661,image-keyboard-response,9
true,6,0,2,2,false,d,true,false,0.0-2.0-0.21-0.195-3.195,0,0,0,81,false,stim,false,1,1094,2,0,0,24203,task1,675229,false,false,664,image-keyboard-response,10
true,6,0,2,0,true,q,false,true,0.0-2.0-0.21-0.196-3.196,0,0,0,81,false,stim,false,1,832,2,0,2,24203,task1,677580,false,false,667,image-keyboard-response,11
true,6,0,2,0,true,q,false,true,0.0-2.0-0.21-0.197-3.197,0,0,0,81,false,stim,false,1,492,2,0,2,24203,task1,679605,false,false,670,image-keyboard-response,12
true,6,1,2,2,false,d,false,false,0.0-2.0-0.22-0.198-3.198,0,0,0,90,false,stim,true,1,1727,2,0,0,24203,task1,682855,false,false,673,image-keyboard-response,13
true,6,2,2,2,true,d,false,false,0.0-2.0-0.22-0.199-3.199,0,0,0,68,false,stim,false,1,381,2,0,0,24203,task1,684757,false,true,676,image-keyboard-response,14
true,6,0,2,0,true,q,false,false,0.0-2.0-0.22-0.200-3.200,0,0,0,81,false,stim,false,1,903,2,0,2,24203,task1,687193,false,true,679,image-keyboard-response,15
true,6,0,2,0,true,q,false,true,0.0-2.0-0.22-0.201-3.201,0,0,0,81,false,stim,false,1,495,2,0,2,24203,task1,689215,false,false,682,image-keyboard-response,16
true,6,2,2,2,true,d,false,true,0.0-2.0-0.22-0.202-3.202,0,0,0,68,false,stim,false,0,364,2,0,1,24203,task1,691100,false,false,685,image-keyboard-response,17
true,6,2,2,2,true,d,false,true,0.0-2.0-0.22-0.203-3.203,0,0,0,68,false,stim,false,1,1155,2,0,0,24203,task1,693789,false,false,688,image-keyboard-response,18
true,6,0,2,0,true,q,false,true,0.0-2.0-0.22-0.204-3.204,0,0,0,81,false,stim,false,1,637,2,0,2,24203,task1,695951,false,false,691,image-keyboard-response,19
true,6,2,2,2,true,d,false,true,0.0-2.0-0.22-0.205-3.205,0,0,0,68,false,stim,false,0,645,2,0,1,24203,task1,698124,false,false,694,image-keyboard-response,20
true,6,2,2,2,true,d,false,true,0.0-2.0-0.22-0.206-3.206,0,0,0,68,false,stim,false,0,561,2,0,1,24203,task1,700223,false,false,697,image-keyboard-response,21
true,6,2,2,2,true,d,false,true,0.0-2.0-0.23-0.207-3.207,0,0,0,68,false,stim,false,0,497,2,0,1,24203,task1,702255,false,false,700,image-keyboard-response,22
true,6,0,2,0,true,q,false,true,0.0-2.0-0.23-0.208-3.208,0,0,0,81,false,stim,false,1,818,2,0,2,24203,task1,704608,false,false,703,image-keyboard-response,23
true,6,2,2,2,true,d,false,true,0.0-2.0-0.23-0.209-3.209,0,0,0,68,false,stim,false,1,357,2,0,0,24203,task1,706483,false,false,706,image-keyboard-response,24
true,6,2,2,0,false,q,true,true,0.0-2.0-0.23-0.210-3.210,0,0,0,68,false,stim,false,1,714,2,0,2,24203,task1,708734,false,true,709,image-keyboard-response,25
true,6,2,2,2,true,d,false,true,0.0-2.0-0.23-0.211-3.211,0,0,0,68,false,stim,false,1,674,2,0,0,24203,task1,710943,false,false,712,image-keyboard-response,26
true,6,2,2,2,true,d,false,true,0.0-2.0-0.23-0.212-3.212,0,0,0,68,false,stim,false,1,542,2,0,0,24203,task1,713009,false,false,715,image-keyboard-response,27
true,6,2,2,2,true,d,false,true,0.0-2.0-0.23-0.213-3.213,0,0,0,68,false,stim,false,0,540,2,0,1,24203,task1,715067,false,false,718,image-keyboard-response,28
true,6,2,2,0,false,q,true,false,0.0-2.0-0.23-0.214-3.214,0,0,0,68,false,stim,false,1,646,2,0,2,24203,task1,717241,false,false,721,image-keyboard-response,29
true,6,2,2,2,true,d,false,true,0.0-2.0-0.23-0.215-3.215,0,0,0,68,false,stim,false,0,954,2,0,1,24203,task1,719729,false,false,724,image-keyboard-response,30
true,6,2,2,2,true,d,false,false,0.0-2.0-0.24-0.216-3.216,0,0,0,68,false,stim,false,0,600,2,0,1,24203,task1,721857,false,true,727,image-keyboard-response,31
true,6,0,2,0,true,q,false,true,0.0-2.0-0.24-0.217-3.217,0,0,0,81,false,stim,false,1,922,2,0,2,24203,task1,724309,false,false,730,image-keyboard-response,32
true,6,0,2,0,true,q,false,true,0.0-2.0-0.24-0.218-3.218,0,0,0,81,false,stim,false,1,531,2,0,2,24203,task1,726366,false,false,733,image-keyboard-response,33
true,6,2,2,2,true,d,false,false,0.0-2.0-0.24-0.219-3.219,0,0,0,68,false,stim,false,1,602,2,0,0,24203,task1,728503,false,true,736,image-keyboard-response,34
true,6,2,2,2,true,d,false,false,0.0-2.0-0.24-0.220-3.220,0,0,0,68,false,stim,false,1,495,2,0,0,24203,task1,730527,false,true,739,image-keyboard-response,35
true,6,2,2,2,true,d,false,true,0.0-2.0-0.24-0.221-3.221,0,0,0,68,false,stim,false,0,585,2,0,1,24203,task1,732631,false,false,742,image-keyboard-response,36
true,6,1,2,2,false,d,false,false,0.0-2.0-0.24-0.222-3.222,0,0,0,90,false,stim,true,1,595,2,0,0,24203,task1,734756,false,false,745,image-keyboard-response,37
true,6,0,2,0,true,q,false,true,0.0-2.0-0.24-0.223-3.223,0,0,0,81,false,stim,false,1,642,2,0,2,24203,task1,736917,false,false,748,image-keyboard-response,38
true,6,2,2,2,true,d,false,true,0.0-2.0-0.24-0.224-3.224,0,0,0,68,false,stim,false,0,976,2,0,1,24203,task1,739420,false,false,751,image-keyboard-response,39
true,6,2,2,2,true,d,false,false,0.0-2.0-0.25-0.225-3.225,0,0,0,68,false,stim,false,0,526,2,0,1,24203,task1,741466,false,true,754,image-keyboard-response,40
true,7,0,2,1,false,z,true,false,0.0-2.0-0.25-0.226-3.226,0,0,0,81,true,stim,false,2,597,2,0,0,24203,task1,743583,false,false,757,image-keyboard-response,1
true,7,2,2,1,false,z,false,false,0.0-2.0-0.25-0.227-3.227,0,0,0,68,false,stim,true,2,1626,2,0,0,24203,task1,746743,false,false,760,image-keyboard-response,2
true,7,0,2,2,false,d,false,false,0.0-2.0-0.25-0.228-3.228,0,0,0,81,false,stim,true,0,765,2,0,2,24203,task1,749030,false,false,763,image-keyboard-response,3
true,7,0,2,2,false,d,false,false,0.0-2.0-0.25-0.229-3.229,0,0,0,81,false,stim,true,0,563,2,0,2,24203,task1,751127,false,false,766,image-keyboard-response,4
true,7,1,2,2,false,d,true,false,0.0-2.0-0.25-0.230-3.230,0,0,0,90,false,stim,false,0,561,2,0,2,24203,task1,753223,false,false,769,image-keyboard-response,5
true,7,0,2,1,false,z,true,true,0.0-2.0-0.25-0.231-3.231,0,0,0,81,false,stim,false,2,770,2,0,0,24203,task1,755517,false,true,772,image-keyboard-response,6
true,7,2,2,1,false,z,false,false,0.0-2.0-0.25-0.232-3.232,0,0,0,68,false,stim,true,2,1547,2,0,1,24203,task1,758588,false,false,775,image-keyboard-response,7
true,7,1,2,1,true,z,false,true,0.0-2.0-0.25-0.233-3.233,0,0,0,90,false,stim,false,2,491,2,0,1,24203,task1,760613,false,false,778,image-keyboard-response,8
true,7,1,2,2,false,d,true,false,0.0-2.0-0.26-0.234-3.234,0,0,0,90,false,stim,false,0,1270,2,0,2,24203,task1,763404,false,false,781,image-keyboard-response,9
true,7,1,2,1,true,z,false,true,0.0-2.0-0.26-0.235-3.235,0,0,0,90,false,stim,false,2,1016,2,0,1,24203,task1,765943,false,false,784,image-keyboard-response,10
true,7,2,2,2,true,d,false,false,0.0-2.0-0.26-0.236-3.236,0,0,0,68,false,stim,false,0,1932,2,0,2,24203,task1,769397,false,true,787,image-keyboard-response,11
true,7,0,2,1,false,z,true,false,0.0-2.0-0.26-0.237-3.237,0,0,0,81,false,stim,false,2,870,2,0,1,24203,task1,771796,false,false,790,image-keyboard-response,12
true,7,1,2,1,true,z,false,false,0.0-2.0-0.26-0.238-3.238,0,0,0,90,false,stim,false,2,370,2,0,1,24203,task1,773696,false,true,793,image-keyboard-response,13
true,7,2,2,2,true,d,false,true,0.0-2.0-0.26-0.239-3.239,0,0,0,68,false,stim,false,0,1215,2,0,2,24203,task1,776420,false,false,796,image-keyboard-response,14
true,7,0,2,1,false,z,true,false,0.0-2.0-0.26-0.240-3.240,0,0,0,81,false,stim,false,2,633,2,0,0,24203,task1,778588,false,false,799,image-keyboard-response,15
true,7,1,2,1,true,z,false,true,0.0-2.0-0.26-0.241-3.241,0,0,0,90,false,stim,false,2,381,2,0,0,24203,task1,780516,false,false,802,image-keyboard-response,16
true,7,1,2,1,true,z,false,false,0.0-2.0-0.26-0.242-3.242,0,0,0,90,false,stim,false,2,576,2,0,0,24203,task1,782626,false,true,805,image-keyboard-response,17
true,7,2,2,2,true,d,false,true,0.0-2.0-0.27-0.243-3.243,0,0,0,68,false,stim,false,0,660,2,0,2,24203,task1,784807,false,false,808,image-keyboard-response,18
true,7,2,2,2,true,d,false,true,0.0-2.0-0.27-0.244-3.244,0,0,0,68,false,stim,false,0,404,2,0,2,24203,task1,786735,false,false,811,image-keyboard-response,19
true,7,0,2,1,false,z,true,true,0.0-2.0-0.27-0.245-3.245,0,0,0,81,false,stim,false,2,1437,2,0,0,24203,task1,789698,false,true,814,image-keyboard-response,20
true,7,1,2,1,true,z,false,true,0.0-2.0-0.27-0.246-3.246,0,0,0,90,false,stim,false,2,693,2,0,1,24203,task1,791919,false,false,817,image-keyboard-response,21
true,7,0,2,1,false,z,true,false,0.0-2.0-0.27-0.247-3.247,0,0,0,81,false,stim,false,2,778,2,0,0,24203,task1,794218,false,false,820,image-keyboard-response,22
true,7,0,2,1,false,z,true,false,0.0-2.0-0.27-0.248-3.248,0,0,0,81,false,stim,false,2,679,2,0,0,24203,task1,796433,false,false,823,image-keyboard-response,23
true,7,1,2,1,true,z,false,true,0.0-2.0-0.27-0.249-3.249,0,0,0,90,false,stim,false,2,515,2,0,1,24203,task1,798480,false,false,826,image-keyboard-response,24
true,7,1,2,1,true,z,false,true,0.0-2.0-0.27-0.250-3.250,0,0,0,90,false,stim,false,2,637,2,0,1,24203,task1,800631,false,false,829,image-keyboard-response,25
true,7,2,2,2,true,d,false,true,0.0-2.0-0.27-0.251-3.251,0,0,0,68,false,stim,false,0,495,2,0,2,24203,task1,802659,false,false,832,image-keyboard-response,26
true,7,1,2,1,true,z,false,true,0.0-2.0-0.28-0.252-3.252,0,0,0,90,false,stim,false,2,1674,2,0,0,24203,task1,805853,false,false,835,image-keyboard-response,27
true,7,1,2,1,true,z,false,true,0.0-2.0-0.28-0.253-3.253,0,0,0,90,false,stim,false,2,517,2,0,1,24203,task1,807893,false,false,838,image-keyboard-response,28
true,7,1,2,1,true,z,false,true,0.0-2.0-0.28-0.254-3.254,0,0,0,90,false,stim,false,2,687,2,0,0,24203,task1,810112,false,false,841,image-keyboard-response,29
true,7,1,2,1,true,z,false,true,0.0-2.0-0.28-0.255-3.255,0,0,0,90,false,stim,false,2,575,2,0,1,24203,task1,812213,false,false,844,image-keyboard-response,30
true,7,2,2,2,true,d,false,false,0.0-2.0-0.28-0.256-3.256,0,0,0,68,false,stim,false,0,570,2,0,2,24203,task1,814325,false,true,847,image-keyboard-response,31
true,7,2,2,2,true,d,false,true,0.0-2.0-0.28-0.257-3.257,0,0,0,68,false,stim,false,0,1262,2,0,2,24203,task1,817115,false,false,850,image-keyboard-response,32
true,7,1,2,1,true,z,false,true,0.0-2.0-0.28-0.258-3.258,0,0,0,90,false,stim,false,2,657,2,0,0,24203,task1,819305,false,false,853,image-keyboard-response,33
true,7,1,2,2,false,d,true,false,0.0-2.0-0.28-0.259-3.259,0,0,0,90,false,stim,false,0,443,2,0,2,24203,task1,821275,false,false,856,image-keyboard-response,34
true,7,1,2,1,true,z,false,false,0.0-2.0-0.28-0.260-3.260,0,0,0,90,false,stim,false,2,766,2,0,1,24203,task1,823579,false,true,859,image-keyboard-response,35
true,7,1,2,1,true,z,false,true,0.0-2.0-0.29-0.261-3.261,0,0,0,90,false,stim,false,2,670,2,0,0,24203,task1,825775,false,false,862,image-keyboard-response,36
true,7,1,2,1,true,z,false,true,0.0-2.0-0.29-0.262-3.262,0,0,0,90,false,stim,false,2,654,2,0,0,24203,task1,827961,false,false,865,image-keyboard-response,37
true,7,2,2,2,true,d,false,true,0.0-2.0-0.29-0.263-3.263,0,0,0,68,false,stim,false,0,556,2,0,2,24203,task1,830048,false,false,868,image-keyboard-response,38
true,7,1,2,1,true,z,false,true,0.0-2.0-0.29-0.264-3.264,0,0,0,90,false,stim,false,2,1268,2,0,1,24203,task1,832840,false,false,871,image-keyboard-response,39
true,7,1,2,1,true,z,false,true,0.0-2.0-0.29-0.265-3.265,0,0,0,90,false,stim,false,2,645,2,0,0,24203,task1,835012,false,false,874,image-keyboard-response,40
true,7,2,2,2,true,d,false,true,0.0-2.0-0.29-0.266-3.266,0,0,0,68,false,stim,false,0,769,2,0,2,24203,task1,837301,false,false,877,image-keyboard-response,41
true,7,1,2,1,true,z,false,true,0.0-2.0-0.29-0.267-3.267,0,0,0,90,false,stim,false,2,573,2,0,1,24203,task1,839403,false,false,880,image-keyboard-response,42
true,7,1,2,1,true,z,false,true,0.0-2.0-0.29-0.268-3.268,0,0,0,90,false,stim,false,2,593,2,0,1,24203,task1,841520,false,false,883,image-keyboard-response,43
true,7,2,2,2,true,d,false,true,0.0-2.0-0.29-0.269-3.269,0,0,0,68,false,stim,false,0,716,2,0,2,24203,task1,843759,false,false,886,image-keyboard-response,44
true,8,2,1,1,false,z,false,false,0.0-2.0-0.30-0.270-3.270,0,0,0,68,true,stim,true,2,676,2,0,2,24203,task1,845968,false,false,889,image-keyboard-response,1
true,8,1,1,2,false,d,false,false,0.0-2.0-0.30-0.271-3.271,0,0,0,90,false,stim,true,1,939,2,0,0,24203,task1,848429,false,false,892,image-keyboard-response,2
true,8,1,1,0,false,q,false,false,0.0-2.0-0.30-0.272-3.272,0,0,0,90,false,stim,true,1,1043,2,0,1,24203,task1,850986,false,false,895,image-keyboard-response,3
true,8,2,1,1,false,z,false,true,0.0-2.0-0.30-0.273-3.273,0,0,0,68,false,stim,true,2,602,2,0,2,24203,task1,853120,false,true,898,image-keyboard-response,4
true,8,2,1,1,false,z,false,false,0.0-2.0-0.30-0.274-3.274,0,0,0,68,false,stim,true,2,651,2,0,2,24203,task1,855334,false,false,901,image-keyboard-response,5
true,8,0,1,2,false,d,true,false,0.0-2.0-0.30-0.275-3.275,0,0,0,81,false,stim,false,1,946,2,0,0,24203,task1,857809,false,false,904,image-keyboard-response,6
true,8,1,1,0,false,q,false,false,0.0-2.0-0.30-0.276-3.276,0,0,0,90,false,stim,true,1,868,2,0,1,24203,task1,860213,false,false,907,image-keyboard-response,7
true,8,2,1,2,true,d,false,true,0.0-2.0-0.30-0.277-3.277,0,0,0,68,false,stim,false,1,1473,2,0,0,24203,task1,863215,false,false,910,image-keyboard-response,8
true,8,2,1,0,false,q,true,false,0.0-2.0-0.30-0.278-3.278,0,0,0,68,false,stim,false,1,750,2,0,1,24203,task1,865490,false,false,913,image-keyboard-response,9
true,8,2,1,1,false,z,false,false,0.0-2.0-0.31-0.279-3.279,0,0,0,68,false,stim,true,2,400,2,0,2,24203,task1,867422,false,false,916,image-keyboard-response,10
true,8,0,1,1,false,z,true,false,0.0-2.0-0.31-0.280-3.280,0,0,0,81,false,stim,false,2,1173,2,0,2,24203,task1,870126,false,false,919,image-keyboard-response,11
true,8,1,1,0,false,q,false,true,0.0-2.0-0.31-0.281-3.281,0,0,0,90,false,stim,true,1,2778,2,0,1,24203,task1,874428,false,true,922,image-keyboard-response,12
true,8,1,1,0,false,q,false,false,0.0-2.0-0.31-0.282-3.282,0,0,0,90,false,stim,true,1,700,2,0,1,24203,task1,876662,false,false,925,image-keyboard-response,13
true,8,2,1,2,true,d,false,true,0.0-2.0-0.31-0.283-3.283,0,0,0,68,false,stim,false,1,492,2,0,0,24203,task1,878688,false,false,928,image-keyboard-response,14
true,8,2,1,0,false,q,true,false,0.0-2.0-0.31-0.284-3.284,0,0,0,68,false,stim,false,1,624,2,0,1,24203,task1,880826,false,false,931,image-keyboard-response,15
true,8,0,1,1,false,z,true,true,0.0-2.0-0.31-0.285-3.285,0,0,0,81,false,stim,false,2,2538,2,0,2,24203,task1,884895,false,true,934,image-keyboard-response,16
true,8,2,1,2,true,d,false,false,0.0-2.0-0.31-0.286-3.286,0,0,0,68,false,stim,false,1,730,2,0,0,24203,task1,887150,false,true,937,image-keyboard-response,17
true,8,2,1,2,true,d,false,true,0.0-2.0-0.31-0.287-3.287,0,0,0,68,false,stim,false,1,764,2,0,0,24203,task1,889449,false,false,940,image-keyboard-response,18
true,8,0,1,1,false,z,true,false,0.0-2.0-0.32-0.288-3.288,0,0,0,81,false,stim,false,2,469,2,0,2,24203,task1,891451,false,false,943,image-keyboard-response,19
true,8,0,1,1,false,z,true,false,0.0-2.0-0.32-0.289-3.289,0,0,0,81,false,stim,false,2,616,2,0,2,24203,task1,893596,false,false,946,image-keyboard-response,20
true,8,1,1,1,true,z,false,true,0.0-2.0-0.32-0.290-3.290,0,0,0,90,false,stim,false,2,595,2,0,2,24203,task1,895710,false,false,949,image-keyboard-response,21
true,8,2,1,0,false,q,true,false,0.0-2.0-0.32-0.291-3.291,0,0,0,68,false,stim,false,1,1414,2,0,1,24203,task1,898658,false,false,952,image-keyboard-response,22
true,8,2,1,2,true,d,false,true,0.0-2.0-0.32-0.292-3.292,0,0,0,68,false,stim,false,1,986,2,0,0,24203,task1,901173,false,false,955,image-keyboard-response,23
true,8,0,1,0,true,q,false,true,0.0-2.0-0.32-0.293-3.293,0,0,0,81,false,stim,false,1,1059,2,0,1,24203,task1,903765,false,false,958,image-keyboard-response,24
true,8,0,1,0,true,q,false,true,0.0-2.0-0.32-0.294-3.294,0,0,0,81,false,stim,false,1,470,2,0,1,24203,task1,905755,false,false,961,image-keyboard-response,25
true,8,1,1,2,false,d,false,false,0.0-2.0-0.32-0.295-3.295,0,0,0,90,false,stim,true,1,545,2,0,0,24203,task1,907829,false,false,964,image-keyboard-response,26
true,8,2,1,2,true,d,false,true,0.0-2.0-0.32-0.296-3.296,0,0,0,68,false,stim,false,1,342,2,0,0,24203,task1,909707,false,false,967,image-keyboard-response,27
true,8,2,1,2,true,d,false,true,0.0-2.0-0.33-0.297-3.297,0,0,0,68,false,stim,false,1,455,2,0,0,24203,task1,911680,false,false,970,image-keyboard-response,28
true,8,1,1,1,true,z,false,true,0.0-2.0-0.33-0.298-3.298,0,0,0,90,false,stim,false,2,669,2,0,2,24203,task1,913874,false,false,973,image-keyboard-response,29
true,8,0,1,0,true,q,false,false,0.0-2.0-0.33-0.299-3.299,0,0,0,81,false,stim,false,1,516,2,0,1,24203,task1,915923,false,true,976,image-keyboard-response,30
true,8,0,1,0,true,q,false,true,0.0-2.0-0.33-0.300-3.300,0,0,0,81,false,stim,false,1,639,2,0,1,24203,task1,918096,false,false,979,image-keyboard-response,31
true,8,2,1,1,false,z,false,false,0.0-2.0-0.33-0.301-3.301,0,0,0,68,false,stim,true,2,1903,2,0,2,24203,task1,921525,false,false,982,image-keyboard-response,32
true,8,1,1,2,false,d,false,false,0.0-2.0-0.33-0.302-3.302,0,0,0,90,false,stim,true,1,842,2,0,0,24203,task1,923893,false,false,985,image-keyboard-response,33
true,8,1,1,1,true,z,false,false,0.0-2.0-0.33-0.303-3.303,0,0,0,90,false,stim,false,2,656,2,0,2,24203,task1,926072,false,true,988,image-keyboard-response,34
true,8,0,1,0,true,q,false,true,0.0-2.0-0.33-0.304-3.304,0,0,0,81,false,stim,false,1,789,2,0,1,24203,task1,928385,false,false,991,image-keyboard-response,35
true,8,2,1,2,true,d,false,true,0.0-2.0-0.33-0.305-3.305,0,0,0,68,false,stim,false,1,975,2,0,0,24203,task1,930887,false,false,994,image-keyboard-response,36
true,8,0,1,0,true,q,false,true,0.0-2.0-0.34-0.306-3.306,0,0,0,81,false,stim,false,1,685,2,0,1,24203,task1,933095,false,false,997,image-keyboard-response,37
true,8,0,1,0,true,q,false,true,0.0-2.0-0.34-0.307-3.307,0,0,0,81,false,stim,false,1,831,2,0,1,24203,task1,935456,false,false,1000,image-keyboard-response,38
false,8,-1,1,2,false,d,true,false,0.0-2.0-0.34-0.308-3.308,0,0,0,,false,stim,false,1,,2,0,0,24203,task1,940018,false,false,1003,image-keyboard-response,39
true,8,2,1,2,true,d,false,true,0.0-2.0-0.34-0.309-3.309,0,0,0,68,false,stim,false,1,958,2,0,0,24203,task1,942511,false,false,1006,image-keyboard-response,40
true,8,2,1,2,true,d,false,false,0.0-2.0-0.34-0.310-3.310,0,0,0,68,false,stim,false,1,1317,2,0,0,24203,task1,945350,false,true,1009,image-keyboard-response,41
true,8,1,1,1,true,z,false,false,0.0-2.0-0.34-0.311-3.311,0,0,0,90,false,stim,false,2,802,2,0,2,24203,task1,947682,false,true,1012,image-keyboard-response,42
true,9,1,2,2,false,d,false,false,0.0-2.0-0.34-0.312-3.312,0,0,0,90,true,stim,true,1,589,2,0,2,24203,task1,949796,false,false,1015,image-keyboard-response,1
true,9,2,2,2,true,d,false,true,0.0-2.0-0.34-0.313-3.313,0,0,0,68,false,stim,false,1,351,2,0,2,24203,task1,951676,false,false,1018,image-keyboard-response,2
true,9,0,2,1,false,z,false,false,0.0-2.0-0.34-0.314-3.314,0,0,0,81,false,stim,true,0,655,2,0,1,24203,task1,953860,false,false,1021,image-keyboard-response,3
true,9,1,2,1,true,z,false,true,0.0-2.0-0.35-0.315-3.315,0,0,0,90,false,stim,false,2,648,2,0,0,24203,task1,956031,false,false,1024,image-keyboard-response,4
true,9,2,2,2,true,d,false,false,0.0-2.0-0.35-0.316-3.316,0,0,0,68,false,stim,false,1,571,2,0,2,24203,task1,958125,false,true,1027,image-keyboard-response,5
true,9,0,2,1,false,z,false,false,0.0-2.0-0.35-0.317-3.317,0,0,0,81,false,stim,true,0,520,2,0,1,24203,task1,960171,false,false,1030,image-keyboard-response,6
true,9,0,2,1,false,z,false,true,0.0-2.0-0.35-0.318-3.318,0,0,0,81,false,stim,true,0,485,2,0,1,24203,task1,962183,false,true,1033,image-keyboard-response,7
true,9,1,2,2,false,d,false,false,0.0-2.0-0.35-0.319-3.319,0,0,0,90,false,stim,true,1,1218,2,0,2,24203,task1,964914,false,false,1036,image-keyboard-response,8
true,9,2,2,1,false,z,false,false,0.0-2.0-0.35-0.320-3.320,0,0,0,68,false,stim,true,2,1279,2,0,0,24203,task1,967725,false,false,1039,image-keyboard-response,9
true,9,1,2,1,true,z,false,true,0.0-2.0-0.35-0.321-3.321,0,0,0,90,false,stim,false,2,348,2,0,0,24203,task1,969606,false,false,1042,image-keyboard-response,10
true,9,0,2,1,false,z,false,true,0.0-2.0-0.35-0.322-3.322,0,0,0,81,false,stim,true,0,661,2,0,1,24203,task1,971801,false,true,1045,image-keyboard-response,11
true,9,2,2,2,true,d,false,true,0.0-2.0-0.35-0.323-3.323,0,0,0,68,false,stim,false,1,546,2,0,2,24203,task1,973868,false,false,1048,image-keyboard-response,12
true,9,1,2,1,true,z,false,true,0.0-2.0-0.36-0.324-3.324,0,0,0,90,false,stim,false,0,482,2,0,1,24203,task1,975883,false,false,1051,image-keyboard-response,13
true,9,2,2,2,true,d,false,true,0.0-2.0-0.36-0.325-3.325,0,0,0,68,false,stim,false,1,1676,2,0,2,24203,task1,979093,false,false,1054,image-keyboard-response,14
true,9,1,2,1,true,z,false,true,0.0-2.0-0.36-0.326-3.326,0,0,0,90,false,stim,false,2,516,2,0,0,24203,task1,981131,false,false,1057,image-keyboard-response,15
true,9,2,2,2,true,d,false,true,0.0-2.0-0.36-0.327-3.327,0,0,0,68,false,stim,false,1,612,2,0,2,24203,task1,983276,false,false,1060,image-keyboard-response,16
true,9,2,2,2,true,d,false,true,0.0-2.0-0.36-0.328-3.328,0,0,0,68,false,stim,false,1,497,2,0,2,24203,task1,985307,false,false,1063,image-keyboard-response,17
true,9,1,2,1,true,z,false,true,0.0-2.0-0.36-0.329-3.329,0,0,0,90,false,stim,false,2,827,2,0,0,24203,task1,987670,false,false,1066,image-keyboard-response,18
true,9,1,2,1,true,z,false,true,0.0-2.0-0.36-0.330-3.330,0,0,0,90,false,stim,false,0,758,2,0,1,24203,task1,989936,false,false,1069,image-keyboard-response,19
true,9,1,2,1,true,z,false,true,0.0-2.0-0.36-0.331-3.331,0,0,0,90,false,stim,false,0,440,2,0,1,24203,task1,991912,false,false,1072,image-keyboard-response,20
true,9,1,2,1,true,z,false,true,0.0-2.0-0.36-0.332-3.332,0,0,0,90,false,stim,false,2,523,2,0,0,24203,task1,993960,false,false,1075,image-keyboard-response,21
true,9,1,2,1,true,z,false,true,0.0-2.0-0.37-0.333-3.333,0,0,0,90,false,stim,false,2,472,2,0,0,24203,task1,995952,false,false,1078,image-keyboard-response,22
true,9,1,2,1,true,z,false,false,0.0-2.0-0.37-0.334-3.334,0,0,0,90,false,stim,false,2,733,2,0,0,24203,task1,998216,false,true,1081,image-keyboard-response,23
true,9,2,2,2,true,d,false,true,0.0-2.0-0.37-0.335-3.335,0,0,0,68,false,stim,false,1,621,2,0,2,24203,task1,1000367,false,false,1084,image-keyboard-response,24
true,9,1,2,1,true,z,false,true,0.0-2.0-0.37-0.336-3.336,0,0,0,90,false,stim,false,2,776,2,0,0,24203,task1,1002671,false,false,1087,image-keyboard-response,25
true,9,1,2,1,true,z,false,true,0.0-2.0-0.37-0.337-3.337,0,0,0,90,false,stim,false,0,574,2,0,1,24203,task1,1004766,false,false,1090,image-keyboard-response,26
true,9,2,2,2,true,d,false,true,0.0-2.0-0.37-0.338-3.338,0,0,0,68,false,stim,false,1,495,2,0,2,24203,task1,1006786,false,false,1093,image-keyboard-response,27
true,9,1,2,1,true,z,false,true,0.0-2.0-0.37-0.339-3.339,0,0,0,90,false,stim,false,0,513,2,0,1,24203,task1,1008835,false,false,1096,image-keyboard-response,28
true,9,1,2,1,true,z,false,true,0.0-2.0-0.37-0.340-3.340,0,0,0,90,false,stim,false,0,673,2,0,1,24203,task1,1011031,false,false,1099,image-keyboard-response,29
true,9,2,2,2,true,d,false,true,0.0-2.0-0.37-0.341-3.341,0,0,0,68,false,stim,false,1,805,2,0,2,24203,task1,1013389,false,false,1102,image-keyboard-response,30
true,9,2,2,2,true,d,false,true,0.0-2.0-0.38-0.342-3.342,0,0,0,68,false,stim,false,1,606,2,0,2,24203,task1,1015521,false,false,1105,image-keyboard-response,31
true,9,2,2,2,true,d,false,true,0.0-2.0-0.38-0.343-3.343,0,0,0,68,false,stim,false,1,531,2,0,2,24203,task1,1017578,false,false,1108,image-keyboard-response,32
true,9,1,2,1,true,z,false,true,0.0-2.0-0.38-0.344-3.344,0,0,0,90,false,stim,false,2,714,2,0,0,24203,task1,1019828,false,false,1111,image-keyboard-response,33
true,9,1,2,1,true,z,false,false,0.0-2.0-0.38-0.345-3.345,0,0,0,90,false,stim,false,2,417,2,0,0,24203,task1,1021777,false,true,1114,image-keyboard-response,34
true,9,2,2,2,true,d,false,true,0.0-2.0-0.38-0.346-3.346,0,0,0,68,false,stim,false,1,773,2,0,2,24203,task1,1024081,false,false,1117,image-keyboard-response,35
true,9,1,2,1,true,z,false,false,0.0-2.0-0.38-0.347-3.347,0,0,0,90,false,stim,false,0,1107,2,0,1,24203,task1,1026712,false,true,1120,image-keyboard-response,36
true,9,1,2,1,true,z,false,true,0.0-2.0-0.38-0.348-3.348,0,0,0,90,false,stim,false,2,700,2,0,0,24203,task1,1028935,false,false,1123,image-keyboard-response,37
true,9,1,2,1,true,z,false,true,0.0-2.0-0.38-0.349-3.349,0,0,0,90,false,stim,false,0,572,2,0,1,24203,task1,1031040,false,false,1126,image-keyboard-response,38
true,9,1,2,1,true,z,false,true,0.0-2.0-0.38-0.350-3.350,0,0,0,90,false,stim,false,0,561,2,0,1,24203,task1,1033126,false,false,1129,image-keyboard-response,39
true,9,1,2,1,true,z,false,true,0.0-2.0-0.39-0.351-3.351,0,0,0,90,false,stim,false,2,824,2,0,0,24203,task1,1035487,false,false,1132,image-keyboard-response,40
true,9,1,2,1,true,z,false,true,0.0-2.0-0.39-0.352-3.352,0,0,0,90,false,stim,false,0,507,2,0,1,24203,task1,1037517,false,false,1135,image-keyboard-response,41
true,9,2,2,2,true,d,false,true,0.0-2.0-0.39-0.353-3.353,0,0,0,68,false,stim,false,1,523,2,0,2,24203,task1,1039567,false,false,1138,image-keyboard-response,42
true,9,2,2,2,true,d,false,true,0.0-2.0-0.39-0.354-3.354,0,0,0,68,false,stim,false,1,595,2,0,2,24203,task1,1041687,false,false,1141,image-keyboard-response,43
true,9,1,2,1,true,z,false,true,0.0-2.0-0.39-0.355-3.355,0,0,0,90,false,stim,false,0,463,2,0,1,24203,task1,1043686,false,false,1144,image-keyboard-response,44
true,10,1,1,2,false,d,false,false,0.0-2.0-0.39-0.356-3.356,0,0,0,90,true,stim,true,1,484,2,0,1,24203,task1,1045699,false,false,1147,image-keyboard-response,1
true,10,1,1,2,false,d,false,false,0.0-2.0-0.39-0.357-3.357,0,0,0,90,false,stim,true,1,1427,2,0,0,24203,task1,1048663,false,false,1150,image-keyboard-response,2
true,10,1,1,2,false,d,false,false,0.0-2.0-0.39-0.358-3.358,0,0,0,90,false,stim,true,1,598,2,0,0,24203,task1,1050796,false,false,1153,image-keyboard-response,3
true,10,2,1,1,false,z,false,false,0.0-2.0-0.39-0.359-3.359,0,0,0,68,false,stim,true,2,567,2,0,2,24203,task1,1052899,false,false,1156,image-keyboard-response,4
true,10,1,1,2,false,d,false,true,0.0-2.0-0.40-0.360-3.360,0,0,0,90,false,stim,true,1,735,2,0,1,24203,task1,1055162,false,true,1159,image-keyboard-response,5
true,10,1,1,2,false,d,false,true,0.0-2.0-0.40-0.361-3.361,0,0,0,90,false,stim,true,1,662,2,0,1,24203,task1,1057355,false,true,1162,image-keyboard-response,6
true,10,2,1,1,false,z,false,false,0.0-2.0-0.40-0.362-3.362,0,0,0,68,false,stim,true,2,698,2,0,2,24203,task1,1059589,false,false,1165,image-keyboard-response,7
true,10,0,1,1,false,z,true,false,0.0-2.0-0.40-0.363-3.363,0,0,0,81,false,stim,false,2,473,2,0,2,24203,task1,1061579,false,false,1168,image-keyboard-response,8
true,10,0,1,2,false,d,true,false,0.0-2.0-0.40-0.364-3.364,0,0,0,81,false,stim,false,1,860,2,0,0,24203,task1,1063955,false,false,1171,image-keyboard-response,9
true,10,2,1,2,true,d,false,true,0.0-2.0-0.40-0.365-3.365,0,0,0,68,false,stim,false,1,665,2,0,0,24203,task1,1066136,false,false,1174,image-keyboard-response,10
true,10,1,1,2,false,d,false,false,0.0-2.0-0.40-0.366-3.366,0,0,0,90,false,stim,true,1,604,2,0,1,24203,task1,1068272,false,false,1177,image-keyboard-response,11
true,10,0,1,1,false,z,true,false,0.0-2.0-0.40-0.367-3.367,0,0,0,81,false,stim,false,2,814,2,0,2,24203,task1,1070613,false,false,1180,image-keyboard-response,12
true,10,2,1,2,true,d,false,true,0.0-2.0-0.40-0.368-3.368,0,0,0,68,false,stim,false,1,749,2,0,0,24203,task1,1072896,false,false,1183,image-keyboard-response,13
true,10,1,1,2,false,d,false,true,0.0-2.0-0.41-0.369-3.369,0,0,0,90,false,stim,true,1,662,2,0,1,24203,task1,1075088,false,true,1186,image-keyboard-response,14
true,10,1,1,2,false,d,false,false,0.0-2.0-0.41-0.370-3.370,0,0,0,90,false,stim,true,1,561,2,0,1,24203,task1,1077169,false,false,1189,image-keyboard-response,15
true,10,2,1,1,false,z,false,false,0.0-2.0-0.41-0.371-3.371,0,0,0,68,false,stim,true,2,1212,2,0,2,24203,task1,1079902,false,false,1192,image-keyboard-response,16
true,10,1,1,1,true,z,false,true,0.0-2.0-0.41-0.372-3.372,0,0,0,90,false,stim,false,2,506,2,0,2,24203,task1,1081942,false,false,1195,image-keyboard-response,17
true,10,2,1,2,true,d,false,true,0.0-2.0-0.41-0.373-3.373,0,0,0,68,false,stim,false,1,730,2,0,0,24203,task1,1084198,false,false,1198,image-keyboard-response,18
true,10,2,1,2,true,d,false,true,0.0-2.0-0.41-0.374-3.374,0,0,0,68,false,stim,false,1,575,2,0,0,24203,task1,1086309,false,false,1201,image-keyboard-response,19
true,10,2,1,2,true,d,false,true,0.0-2.0-0.41-0.375-3.375,0,0,0,68,false,stim,false,1,526,2,0,0,24203,task1,1088358,false,false,1204,image-keyboard-response,20
true,10,1,1,1,true,z,false,true,0.0-2.0-0.41-0.376-3.376,0,0,0,90,false,stim,false,2,596,2,0,2,24203,task1,1090477,false,false,1207,image-keyboard-response,21
true,10,1,1,2,false,d,false,false,0.0-2.0-0.41-0.377-3.377,0,0,0,90,false,stim,true,1,590,2,0,1,24203,task1,1092601,false,false,1210,image-keyboard-response,22
true,10,1,1,1,true,z,false,true,0.0-2.0-0.42-0.378-3.378,0,0,0,90,false,stim,false,2,527,2,0,2,24203,task1,1094671,false,false,1213,image-keyboard-response,23
true,10,2,1,2,true,d,false,true,0.0-2.0-0.42-0.379-3.379,0,0,0,68,false,stim,false,1,656,2,0,0,24203,task1,1096846,false,false,1216,image-keyboard-response,24
true,10,1,1,2,false,d,false,false,0.0-2.0-0.42-0.380-3.380,0,0,0,90,false,stim,true,1,741,2,0,1,24203,task1,1099111,false,false,1219,image-keyboard-response,25
true,10,1,1,1,true,z,false,true,0.0-2.0-0.42-0.381-3.381,0,0,0,90,false,stim,false,2,779,2,0,2,24203,task1,1101415,false,false,1222,image-keyboard-response,26
true,10,1,1,2,false,d,false,false,0.0-2.0-0.42-0.382-3.382,0,0,0,90,false,stim,true,1,743,2,0,1,24203,task1,1103692,false,false,1225,image-keyboard-response,27
true,10,2,1,2,true,d,false,true,0.0-2.0-0.42-0.383-3.383,0,0,0,68,false,stim,false,1,672,2,0,0,24203,task1,1105877,false,false,1228,image-keyboard-response,28
true,10,2,1,2,true,d,false,true,0.0-2.0-0.42-0.384-3.384,0,0,0,68,false,stim,false,1,944,2,0,0,24203,task1,1108356,false,false,1231,image-keyboard-response,29
true,10,1,1,1,true,z,false,true,0.0-2.0-0.42-0.385-3.385,0,0,0,90,false,stim,false,2,748,2,0,2,24203,task1,1110625,false,false,1234,image-keyboard-response,30
true,10,2,1,2,true,d,false,true,0.0-2.0-0.42-0.386-3.386,0,0,0,68,false,stim,false,1,554,2,0,1,24203,task1,1112712,false,false,1237,image-keyboard-response,31
true,10,2,1,2,true,d,false,true,0.0-2.0-0.43-0.387-3.387,0,0,0,68,false,stim,false,1,605,2,0,0,24203,task1,1114846,false,false,1240,image-keyboard-response,32
true,10,2,1,2,true,d,false,true,0.0-2.0-0.43-0.388-3.388,0,0,0,68,false,stim,false,1,540,2,0,1,24203,task1,1116912,false,false,1243,image-keyboard-response,33
true,10,1,1,1,true,z,false,true,0.0-2.0-0.43-0.389-3.389,0,0,0,90,false,stim,false,2,444,2,0,2,24203,task1,1118879,false,false,1246,image-keyboard-response,34
true,10,2,1,2,true,d,false,true,0.0-2.0-0.43-0.390-3.390,0,0,0,68,false,stim,false,1,623,2,0,0,24203,task1,1121025,false,false,1249,image-keyboard-response,35
true,10,2,1,2,true,d,false,true,0.0-2.0-0.43-0.391-3.391,0,0,0,68,false,stim,false,1,607,2,0,0,24203,task1,1123154,false,false,1252,image-keyboard-response,36
true,10,2,1,2,true,d,false,true,0.0-2.0-0.43-0.392-3.392,0,0,0,68,false,stim,false,1,722,2,0,1,24203,task1,1125401,false,false,1255,image-keyboard-response,37
true,10,1,1,1,true,z,false,true,0.0-2.0-0.43-0.393-3.393,0,0,0,90,false,stim,false,2,627,2,0,2,24203,task1,1127554,false,false,1258,image-keyboard-response,38
true,10,2,1,2,true,d,false,true,0.0-2.0-0.43-0.394-3.394,0,0,0,68,false,stim,false,1,548,2,0,1,24203,task1,1129623,false,false,1261,image-keyboard-response,39
true,10,1,1,1,true,z,false,true,0.0-2.0-0.43-0.395-3.395,0,0,0,90,false,stim,false,2,910,2,0,2,24203,task1,1132050,false,false,1264,image-keyboard-response,40
true,10,1,1,1,true,z,false,true,0.0-2.0-0.44-0.396-3.396,0,0,0,90,false,stim,false,2,745,2,0,2,24203,task1,1134316,false,false,1267,image-keyboard-response,41
true,10,1,1,1,true,z,false,true,0.0-2.0-0.44-0.397-3.397,0,0,0,90,false,stim,false,2,932,2,0,2,24203,task1,1136767,false,false,1270,image-keyboard-response,42
true,10,2,1,2,true,d,false,true,0.0-2.0-0.44-0.398-3.398,0,0,0,68,false,stim,false,1,520,2,0,1,24203,task1,1138821,false,false,1273,image-keyboard-response,43
true,10,2,1,2,true,d,false,true,0.0-2.0-0.44-0.399-3.399,0,0,0,68,false,stim,false,1,629,2,0,0,24203,task1,1140976,false,false,1276,image-keyboard-response,44
true,10,2,1,2,true,d,false,true,0.0-2.0-0.44-0.400-3.400,0,0,0,68,false,stim,false,1,1086,2,0,1,24203,task1,1143581,false,false,1279,image-keyboard-response,45
true,11,2,2,1,false,z,false,false,0.0-2.0-0.44-0.401-3.401,0,0,0,68,true,stim,true,2,1149,2,0,0,24203,task1,1146259,false,false,1282,image-keyboard-response,1
true,11,2,2,1,false,z,false,false,0.0-2.0-0.44-0.402-3.402,0,0,0,68,false,stim,true,2,622,2,0,0,24203,task1,1148414,false,false,1285,image-keyboard-response,2
true,11,2,2,1,false,z,false,false,0.0-2.0-0.44-0.403-3.403,0,0,0,68,false,stim,true,2,794,2,0,1,24203,task1,1150734,false,false,1288,image-keyboard-response,3
true,11,1,2,2,false,d,false,false,0.0-2.0-0.44-0.404-3.404,0,0,0,90,false,stim,true,1,887,2,0,2,24203,task1,1153141,false,false,1291,image-keyboard-response,4
true,11,0,2,1,false,z,true,false,0.0-2.0-0.45-0.405-3.405,0,0,0,81,false,stim,false,2,650,2,0,1,24203,task1,1155320,false,false,1294,image-keyboard-response,5
true,11,2,2,2,true,d,false,false,0.0-2.0-0.45-0.406-3.406,0,0,0,68,false,stim,false,1,651,2,0,2,24203,task1,1157501,false,true,1297,image-keyboard-response,6
true,11,1,2,1,true,z,false,true,0.0-2.0-0.45-0.407-3.407,0,0,0,90,false,stim,false,2,1812,2,0,0,24203,task1,1160845,false,false,1300,image-keyboard-response,7
true,11,1,2,1,true,z,false,true,0.0-2.0-0.45-0.408-3.408,0,0,0,90,false,stim,false,2,488,2,0,0,24203,task1,1162884,false,false,1303,image-keyboard-response,8
true,11,0,2,2,false,d,true,false,0.0-2.0-0.45-0.409-3.409,0,0,0,81,false,stim,false,1,381,2,0,2,24203,task1,1164792,false,false,1306,image-keyboard-response,9
true,11,1,2,1,true,z,false,true,0.0-2.0-0.45-0.410-3.410,0,0,0,90,false,stim,false,2,876,2,0,0,24203,task1,1167202,false,false,1309,image-keyboard-response,10
true,11,0,2,1,false,z,true,false,0.0-2.0-0.45-0.411-3.411,0,0,0,81,false,stim,false,2,1375,2,0,1,24203,task1,1170114,false,false,1312,image-keyboard-response,11
true,11,1,2,1,true,z,false,true,0.0-2.0-0.45-0.412-3.412,0,0,0,90,false,stim,false,2,539,2,0,1,24203,task1,1172174,false,false,1315,image-keyboard-response,12
true,11,2,2,2,true,d,false,true,0.0-2.0-0.45-0.413-3.413,0,0,0,68,false,stim,false,1,793,2,0,2,24203,task1,1174494,false,false,1318,image-keyboard-response,13
true,11,2,2,2,true,d,false,true,0.0-2.0-0.46-0.414-3.414,0,0,0,68,false,stim,false,1,679,2,0,2,24203,task1,1176695,false,false,1321,image-keyboard-response,14
true,11,1,2,1,true,z,false,true,0.0-2.0-0.46-0.415-3.415,0,0,0,90,false,stim,false,2,415,2,0,0,24203,task1,1178646,false,false,1324,image-keyboard-response,15
true,11,2,2,2,true,d,false,true,0.0-2.0-0.46-0.416-3.416,0,0,0,68,false,stim,false,1,496,2,0,2,24203,task1,1180674,false,false,1327,image-keyboard-response,16
true,11,1,2,1,true,z,false,true,0.0-2.0-0.46-0.417-3.417,0,0,0,90,false,stim,false,2,850,2,0,1,24203,task1,1183059,false,false,1330,image-keyboard-response,17
true,11,1,2,1,true,z,false,true,0.0-2.0-0.46-0.418-3.418,0,0,0,90,false,stim,false,2,449,2,0,0,24203,task1,1185040,false,false,1333,image-keyboard-response,18
true,11,2,2,2,true,d,false,true,0.0-2.0-0.46-0.419-3.419,0,0,0,68,false,stim,false,1,606,2,0,2,24203,task1,1187178,false,false,1336,image-keyboard-response,19
true,11,1,2,1,true,z,false,true,0.0-2.0-0.46-0.420-3.420,0,0,0,90,false,stim,false,2,407,2,0,1,24203,task1,1189111,false,false,1339,image-keyboard-response,20
true,11,1,2,1,true,z,false,true,0.0-2.0-0.46-0.421-3.421,0,0,0,90,false,stim,false,2,430,2,0,0,24203,task1,1191063,false,false,1342,image-keyboard-response,21
true,11,1,2,1,true,z,false,false,0.0-2.0-0.46-0.422-3.422,0,0,0,90,false,stim,false,2,1654,2,0,1,24203,task1,1194254,false,true,1345,image-keyboard-response,22
true,11,1,2,1,true,z,false,true,0.0-2.0-0.47-0.423-3.423,0,0,0,90,false,stim,false,2,710,2,0,0,24203,task1,1196480,false,false,1348,image-keyboard-response,23
true,11,1,2,1,true,z,false,true,0.0-2.0-0.47-0.424-3.424,0,0,0,90,false,stim,false,2,455,2,0,1,24203,task1,1198450,false,false,1351,image-keyboard-response,24
true,11,1,2,1,true,z,false,true,0.0-2.0-0.47-0.425-3.425,0,0,0,90,false,stim,false,2,461,2,0,0,24203,task1,1200436,false,false,1354,image-keyboard-response,25
true,11,2,2,2,true,d,false,true,0.0-2.0-0.47-0.426-3.426,0,0,0,68,false,stim,false,1,487,2,0,2,24203,task1,1202445,false,false,1357,image-keyboard-response,26
true,11,1,2,1,true,z,false,true,0.0-2.0-0.47-0.427-3.427,0,0,0,90,false,stim,false,2,501,2,0,1,24203,task1,1204474,false,false,1360,image-keyboard-response,27
true,11,1,2,1,true,z,false,true,0.0-2.0-0.47-0.428-3.428,0,0,0,90,false,stim,false,2,782,2,0,0,24203,task1,1206787,false,false,1363,image-keyboard-response,28
true,11,2,2,2,true,d,false,true,0.0-2.0-0.47-0.429-3.429,0,0,0,68,false,stim,false,1,599,2,0,2,24203,task1,1208916,false,false,1366,image-keyboard-response,29
true,11,1,2,1,true,z,false,true,0.0-2.0-0.47-0.430-3.430,0,0,0,90,false,stim,false,2,521,2,0,1,24203,task1,1210968,false,false,1369,image-keyboard-response,30
true,11,2,2,2,true,d,false,false,0.0-2.0-0.47-0.431-3.431,0,0,0,68,false,stim,false,1,789,2,0,2,24203,task1,1213286,false,true,1372,image-keyboard-response,31
true,11,1,2,1,true,z,false,true,0.0-2.0-0.48-0.432-3.432,0,0,0,90,false,stim,false,2,502,2,0,1,24203,task1,1215315,false,false,1375,image-keyboard-response,32
true,11,2,2,2,true,d,false,false,0.0-2.0-0.48-0.433-3.433,0,0,0,68,false,stim,false,1,367,2,0,2,24203,task1,1217211,false,true,1378,image-keyboard-response,33
true,11,1,2,1,true,z,false,true,0.0-2.0-0.48-0.434-3.434,0,0,0,90,false,stim,false,2,694,2,0,0,24203,task1,1219437,false,false,1381,image-keyboard-response,34
true,11,0,2,2,false,d,true,false,0.0-2.0-0.48-0.435-3.435,0,0,0,81,false,stim,false,1,409,2,0,2,24203,task1,1221363,false,false,1384,image-keyboard-response,35
true,11,1,2,1,true,z,false,true,0.0-2.0-0.48-0.436-3.436,0,0,0,90,false,stim,false,2,510,2,0,0,24203,task1,1223397,false,false,1387,image-keyboard-response,36
true,11,1,2,2,false,d,false,false,0.0-2.0-0.48-0.437-3.437,0,0,0,90,false,stim,true,1,411,2,0,2,24203,task1,1225331,false,false,1390,image-keyboard-response,37
true,11,1,2,1,true,z,false,true,0.0-2.0-0.48-0.438-3.438,0,0,0,90,false,stim,false,2,593,2,0,1,24203,task1,1227444,false,false,1393,image-keyboard-response,38
true,11,1,2,1,true,z,false,true,0.0-2.0-0.48-0.439-3.439,0,0,0,90,false,stim,false,2,462,2,0,1,24203,task1,1229427,false,false,1396,image-keyboard-response,39
true,11,1,2,1,true,z,false,true,0.0-2.0-0.48-0.440-3.440,0,0,0,90,false,stim,false,2,1228,2,0,0,24203,task1,1232174,false,false,1399,image-keyboard-response,40
true,11,1,2,1,true,z,false,true,0.0-2.0-0.49-0.441-3.441,0,0,0,90,false,stim,false,2,698,2,0,1,24203,task1,1234410,false,false,1402,image-keyboard-response,41
true,11,1,2,1,true,z,false,true,0.0-2.0-0.49-0.442-3.442,0,0,0,90,false,stim,false,2,441,2,0,1,24203,task1,1236385,false,false,1405,image-keyboard-response,42
true,11,1,2,1,true,z,false,true,0.0-2.0-0.49-0.443-3.443,0,0,0,90,false,stim,false,2,754,2,0,0,24203,task1,1238661,false,false,1408,image-keyboard-response,43
true,11,0,2,2,false,d,true,false,0.0-2.0-0.49-0.444-3.444,0,0,0,81,false,stim,false,1,524,2,0,2,24203,task1,1240714,false,false,1411,image-keyboard-response,44
true,11,1,2,1,true,z,false,false,0.0-2.0-0.49-0.445-3.445,0,0,0,90,false,stim,false,2,509,2,0,1,24203,task1,1242746,false,true,1414,image-keyboard-response,45
true,12,1,2,2,false,d,false,false,0.0-2.0-0.49-0.446-3.446,0,0,0,90,true,stim,true,1,434,2,0,0,24203,task1,1244702,false,false,1417,image-keyboard-response,1
true,12,2,2,0,false,q,false,false,0.0-2.0-0.49-0.447-3.447,0,0,0,68,false,stim,true,2,638,2,0,2,24203,task1,1246870,false,false,1420,image-keyboard-response,2
true,12,1,2,0,false,q,true,false,0.0-2.0-0.49-0.448-3.448,0,0,0,90,false,stim,false,2,1453,2,0,2,24203,task1,1249850,false,false,1423,image-keyboard-response,3
true,12,1,2,2,false,d,false,false,0.0-2.0-0.49-0.449-3.449,0,0,0,90,false,stim,true,1,839,2,0,0,24203,task1,1252217,false,false,1426,image-keyboard-response,4
true,12,0,2,0,true,q,false,false,0.0-2.0-0.50-0.450-3.450,0,0,0,81,false,stim,false,2,1284,2,0,2,24203,task1,1255027,false,true,1429,image-keyboard-response,5
true,12,0,2,2,false,d,true,false,0.0-2.0-0.50-0.451-3.451,0,0,0,81,false,stim,false,1,895,2,0,0,24203,task1,1257451,false,false,1432,image-keyboard-response,6
true,12,1,2,0,false,q,true,false,0.0-2.0-0.50-0.452-3.452,0,0,0,90,false,stim,false,2,970,2,0,2,24203,task1,1259941,false,false,1435,image-keyboard-response,7
true,12,2,2,2,true,d,false,true,0.0-2.0-0.50-0.453-3.453,0,0,0,68,false,stim,false,1,772,2,0,0,24203,task1,1262240,false,false,1438,image-keyboard-response,8
true,12,2,2,2,true,d,false,true,0.0-2.0-0.50-0.454-3.454,0,0,0,68,false,stim,false,1,440,2,0,0,24203,task1,1264205,false,false,1441,image-keyboard-response,9
true,12,1,2,2,false,d,false,false,0.0-2.0-0.50-0.455-3.455,0,0,0,90,false,stim,true,1,532,2,0,1,24203,task1,1266263,false,false,1444,image-keyboard-response,10
true,12,1,2,2,false,d,false,false,0.0-2.0-0.50-0.456-3.456,0,0,0,90,false,stim,true,1,467,2,0,1,24203,task1,1268261,false,false,1447,image-keyboard-response,11
true,12,0,2,2,false,d,true,false,0.0-2.0-0.50-0.457-3.457,0,0,0,81,false,stim,false,1,491,2,0,1,24203,task1,1270286,false,false,1450,image-keyboard-response,12
true,12,1,2,0,false,q,true,true,0.0-2.0-0.50-0.458-3.458,0,0,0,90,false,stim,false,2,1523,2,0,2,24203,task1,1273332,false,true,1453,image-keyboard-response,13
true,12,2,2,2,true,d,false,true,0.0-2.0-0.51-0.459-3.459,0,0,0,68,false,stim,false,1,1191,2,0,1,24203,task1,1276047,false,false,1456,image-keyboard-response,14
true,12,2,2,2,true,d,false,true,0.0-2.0-0.51-0.460-3.460,0,0,0,68,false,stim,false,1,675,2,0,1,24203,task1,1278260,false,false,1459,image-keyboard-response,15
true,12,2,2,2,true,d,false,true,0.0-2.0-0.51-0.461-3.461,0,0,0,68,false,stim,false,1,356,2,0,1,24203,task1,1280141,false,false,1462,image-keyboard-response,16
true,12,2,2,2,true,d,false,true,0.0-2.0-0.51-0.462-3.462,0,0,0,68,false,stim,false,1,394,2,0,0,24203,task1,1282060,false,false,1465,image-keyboard-response,17
true,12,1,2,0,false,q,true,false,0.0-2.0-0.51-0.463-3.463,0,0,0,90,false,stim,false,2,495,2,0,2,24203,task1,1284092,false,false,1468,image-keyboard-response,18
true,12,1,2,0,false,q,true,false,0.0-2.0-0.51-0.464-3.464,0,0,0,90,false,stim,false,2,429,2,0,2,24203,task1,1286042,false,false,1471,image-keyboard-response,19
true,12,1,2,0,false,q,true,false,0.0-2.0-0.51-0.465-3.465,0,0,0,90,false,stim,false,2,608,2,0,2,24203,task1,1288184,false,false,1474,image-keyboard-response,20
true,12,2,2,2,true,d,false,true,0.0-2.0-0.51-0.466-3.466,0,0,0,68,false,stim,false,1,409,2,0,0,24203,task1,1290117,false,false,1477,image-keyboard-response,21
true,12,2,2,2,true,d,false,true,0.0-2.0-0.51-0.467-3.467,0,0,0,68,false,stim,false,1,437,2,0,0,24203,task1,1292078,false,false,1480,image-keyboard-response,22
true,12,2,2,2,true,d,false,true,0.0-2.0-0.52-0.468-3.468,0,0,0,68,false,stim,false,1,432,2,0,0,24203,task1,1294038,false,false,1483,image-keyboard-response,23
true,12,2,2,2,true,d,false,false,0.0-2.0-0.52-0.469-3.469,0,0,0,68,false,stim,false,1,539,2,0,1,24203,task1,1296109,false,true,1486,image-keyboard-response,24
true,12,0,2,0,true,q,false,true,0.0-2.0-0.52-0.470-3.470,0,0,0,81,false,stim,false,2,850,2,0,2,24203,task1,1298484,false,false,1489,image-keyboard-response,25
true,12,2,2,2,true,d,false,true,0.0-2.0-0.52-0.471-3.471,0,0,0,68,false,stim,false,1,559,2,0,0,24203,task1,1300574,false,false,1492,image-keyboard-response,26
true,12,0,2,0,true,q,false,true,0.0-2.0-0.52-0.472-3.472,0,0,0,81,false,stim,false,2,410,2,0,2,24203,task1,1302506,false,false,1495,image-keyboard-response,27
true,12,2,2,2,true,d,false,true,0.0-2.0-0.52-0.473-3.473,0,0,0,68,false,stim,false,1,1672,2,0,1,24203,task1,1305700,false,false,1498,image-keyboard-response,28
true,12,2,2,2,true,d,false,true,0.0-2.0-0.52-0.474-3.474,0,0,0,68,false,stim,false,1,401,2,0,0,24203,task1,1307646,false,false,1501,image-keyboard-response,29
true,12,2,2,2,true,d,false,true,0.0-2.0-0.52-0.475-3.475,0,0,0,68,false,stim,false,1,361,2,0,1,24203,task1,1309536,false,false,1504,image-keyboard-response,30
true,12,0,2,0,true,q,false,true,0.0-2.0-0.52-0.476-3.476,0,0,0,81,false,stim,false,2,416,2,0,2,24203,task1,1311462,false,false,1507,image-keyboard-response,31
true,12,2,2,2,true,d,false,true,0.0-2.0-0.53-0.477-3.477,0,0,0,68,false,stim,false,1,353,2,0,1,24203,task1,1313340,false,false,1510,image-keyboard-response,32
true,12,2,2,2,true,d,false,true,0.0-2.0-0.53-0.478-3.478,0,0,0,68,false,stim,false,1,379,2,0,0,24203,task1,1315247,false,false,1513,image-keyboard-response,33
true,12,2,2,0,false,q,false,false,0.0-2.0-0.53-0.479-3.479,0,0,0,68,false,stim,true,2,800,2,0,2,24203,task1,1317585,false,false,1516,image-keyboard-response,34
true,12,2,2,2,true,d,false,true,0.0-2.0-0.53-0.480-3.480,0,0,0,68,false,stim,false,1,377,2,0,0,24203,task1,1319492,false,false,1519,image-keyboard-response,35
true,12,2,2,2,true,d,false,true,0.0-2.0-0.53-0.481-3.481,0,0,0,68,false,stim,false,1,551,2,0,1,24203,task1,1321554,false,false,1522,image-keyboard-response,36
true,12,0,2,0,true,q,false,true,0.0-2.0-0.53-0.482-3.482,0,0,0,81,false,stim,false,2,555,2,0,2,24203,task1,1323633,false,false,1525,image-keyboard-response,37
true,12,2,2,2,true,d,false,true,0.0-2.0-0.53-0.483-3.483,0,0,0,68,false,stim,false,1,540,2,0,1,24203,task1,1325700,false,false,1528,image-keyboard-response,38
true,12,2,2,2,true,d,false,false,0.0-2.0-0.53-0.484-3.484,0,0,0,68,false,stim,false,1,579,2,0,0,24203,task1,1327804,false,true,1531,image-keyboard-response,39
true,12,0,2,0,true,q,false,true,0.0-2.0-0.53-0.485-3.485,0,0,0,81,false,stim,false,2,706,2,0,2,24203,task1,1330043,false,false,1534,image-keyboard-response,40
true,13,0,1,1,false,z,false,false,0.0-2.0-0.54-0.486-3.486,0,0,0,81,true,stim,true,0,536,2,0,2,24203,task1,1332106,false,false,1537,image-keyboard-response,1
true,13,2,1,1,false,z,false,false,0.0-2.0-0.54-0.487-3.487,0,0,0,68,false,stim,true,2,826,2,0,1,24203,task1,1334461,false,false,1540,image-keyboard-response,2
true,13,0,1,1,false,z,false,false,0.0-2.0-0.54-0.488-3.488,0,0,0,81,false,stim,true,0,809,2,0,2,24203,task1,1336785,false,false,1543,image-keyboard-response,3
true,13,2,1,0,false,q,false,true,0.0-2.0-0.54-0.489-3.489,0,0,0,68,false,stim,true,2,962,2,0,0,24203,task1,1339276,false,true,1546,image-keyboard-response,4
true,13,1,1,1,true,z,false,true,0.0-2.0-0.54-0.490-3.490,0,0,0,90,false,stim,false,2,1172,2,0,1,24203,task1,1341967,false,false,1549,image-keyboard-response,5
true,13,2,1,0,false,q,false,false,0.0-2.0-0.54-0.491-3.491,0,0,0,68,false,stim,true,2,757,2,0,0,24203,task1,1344249,false,false,1552,image-keyboard-response,6
true,13,1,1,1,true,z,false,true,0.0-2.0-0.54-0.492-3.492,0,0,0,90,false,stim,false,2,487,2,0,1,24203,task1,1346262,false,false,1555,image-keyboard-response,7
true,13,2,1,0,false,q,false,false,0.0-2.0-0.54-0.493-3.493,0,0,0,68,false,stim,true,2,972,2,0,0,24203,task1,1348757,false,false,1558,image-keyboard-response,8
true,13,2,1,1,false,z,true,true,0.0-2.0-0.54-0.494-3.494,0,0,0,68,false,stim,false,0,960,2,0,2,24203,task1,1351245,false,true,1561,image-keyboard-response,9
true,13,1,1,1,true,z,false,true,0.0-2.0-0.55-0.495-3.495,0,0,0,90,false,stim,false,2,860,2,0,1,24203,task1,1353626,false,false,1564,image-keyboard-response,10
true,13,1,1,0,false,q,true,true,0.0-2.0-0.55-0.496-3.496,0,0,0,90,false,stim,false,2,590,2,0,0,24203,task1,1355738,false,true,1567,image-keyboard-response,11
true,13,2,1,1,false,z,true,false,0.0-2.0-0.55-0.497-3.497,0,0,0,68,false,stim,false,0,835,2,0,2,24203,task1,1358097,false,false,1570,image-keyboard-response,12
true,13,1,1,0,false,q,true,false,0.0-2.0-0.55-0.498-3.498,0,0,0,90,false,stim,false,2,680,2,0,0,24203,task1,1360306,false,false,1573,image-keyboard-response,13
true,13,1,1,1,true,z,false,true,0.0-2.0-0.55-0.499-3.499,0,0,0,90,false,stim,false,2,447,2,0,1,24203,task1,1362270,false,false,1576,image-keyboard-response,14
true,13,0,1,0,true,q,false,true,0.0-2.0-0.55-0.500-3.500,0,0,0,81,false,stim,false,2,516,2,0,0,24203,task1,1364322,false,false,1579,image-keyboard-response,15
true,13,1,1,1,true,z,false,true,0.0-2.0-0.55-0.501-3.501,0,0,0,90,false,stim,false,2,561,2,0,1,24203,task1,1366416,false,false,1582,image-keyboard-response,16
true,13,2,1,1,false,z,true,false,0.0-2.0-0.55-0.502-3.502,0,0,0,68,false,stim,false,0,626,2,0,2,24203,task1,1368560,false,false,1585,image-keyboard-response,17
true,13,1,1,1,true,z,false,true,0.0-2.0-0.55-0.503-3.503,0,0,0,90,false,stim,false,0,496,2,0,2,24203,task1,1370580,false,false,1588,image-keyboard-response,18
true,13,1,1,1,true,z,false,true,0.0-2.0-0.56-0.504-3.504,0,0,0,90,false,stim,false,2,839,2,0,1,24203,task1,1372954,false,false,1591,image-keyboard-response,19
true,13,0,1,0,true,q,false,false,0.0-2.0-0.56-0.505-3.505,0,0,0,81,false,stim,false,2,588,2,0,0,24203,task1,1375067,false,true,1594,image-keyboard-response,20
true,13,0,1,0,true,q,false,false,0.0-2.0-0.56-0.506-3.506,0,0,0,81,false,stim,false,2,456,2,0,0,24203,task1,1377034,false,true,1597,image-keyboard-response,21
true,13,1,1,1,true,z,false,true,0.0-2.0-0.56-0.507-3.507,0,0,0,90,false,stim,false,2,403,2,0,1,24203,task1,1378964,false,false,1600,image-keyboard-response,22
true,13,1,1,1,true,z,false,true,0.0-2.0-0.56-0.508-3.508,0,0,0,90,false,stim,false,2,855,2,0,1,24203,task1,1381358,false,false,1603,image-keyboard-response,23
true,13,1,1,0,false,q,true,false,0.0-2.0-0.56-0.509-3.509,0,0,0,90,false,stim,false,2,1318,2,0,0,24203,task1,1384206,false,false,1606,image-keyboard-response,24
true,13,1,1,1,true,z,false,false,0.0-2.0-0.56-0.510-3.510,0,0,0,90,false,stim,false,0,1015,2,0,2,24203,task1,1386752,false,true,1609,image-keyboard-response,25
true,13,1,1,1,true,z,false,true,0.0-2.0-0.56-0.511-3.511,0,0,0,90,false,stim,false,0,586,2,0,2,24203,task1,1388871,false,false,1612,image-keyboard-response,26
true,13,1,1,1,true,z,false,false,0.0-2.0-0.56-0.512-3.512,0,0,0,90,false,stim,false,0,662,2,0,2,24203,task1,1391060,false,true,1615,image-keyboard-response,27
true,13,1,1,1,true,z,false,true,0.0-2.0-0.57-0.513-3.513,0,0,0,90,false,stim,false,0,574,2,0,2,24203,task1,1393169,false,false,1618,image-keyboard-response,28
true,13,0,1,0,true,q,false,false,0.0-2.0-0.57-0.514-3.514,0,0,0,81,false,stim,false,2,1890,2,0,0,24203,task1,1396584,false,true,1621,image-keyboard-response,29
true,13,1,1,1,true,z,false,true,0.0-2.0-0.57-0.515-3.515,0,0,0,90,false,stim,false,2,769,2,0,1,24203,task1,1398875,false,false,1624,image-keyboard-response,30
true,13,1,1,1,true,z,false,false,0.0-2.0-0.57-0.516-3.516,0,0,0,90,false,stim,false,2,682,2,0,1,24203,task1,1401071,false,true,1627,image-keyboard-response,31
true,13,2,1,0,false,q,false,false,0.0-2.0-0.57-0.517-3.517,0,0,0,68,false,stim,true,2,838,2,0,0,24203,task1,1403442,false,false,1630,image-keyboard-response,32
true,13,1,1,1,true,z,false,true,0.0-2.0-0.57-0.518-3.518,0,0,0,90,false,stim,false,2,804,2,0,1,24203,task1,1405771,false,false,1633,image-keyboard-response,33
true,13,1,1,0,false,q,true,false,0.0-2.0-0.57-0.519-3.519,0,0,0,90,false,stim,false,2,1052,2,0,0,24203,task1,1408350,false,false,1636,image-keyboard-response,34
true,13,0,1,1,false,z,false,false,0.0-2.0-0.57-0.520-3.520,0,0,0,81,false,stim,true,0,588,2,0,2,24203,task1,1410468,false,false,1639,image-keyboard-response,35
true,13,2,1,1,false,z,true,false,0.0-2.0-0.57-0.521-3.521,0,0,0,68,false,stim,false,0,561,2,0,2,24203,task1,1412556,false,false,1642,image-keyboard-response,36
true,13,1,1,0,false,q,true,false,0.0-2.0-0.58-0.522-3.522,0,0,0,90,false,stim,false,2,790,2,0,0,24203,task1,1414875,false,false,1645,image-keyboard-response,37
true,13,1,1,1,true,z,false,true,0.0-2.0-0.58-0.523-3.523,0,0,0,90,false,stim,false,0,563,2,0,2,24203,task1,1416965,false,false,1648,image-keyboard-response,38
true,13,0,1,0,true,q,false,true,0.0-2.0-0.58-0.524-3.524,0,0,0,81,false,stim,false,2,914,2,1,0,24203,task1,1419399,false,false,1651,image-keyboard-response,39
true,13,1,1,1,true,z,false,true,0.0-2.0-0.58-0.525-3.525,0,0,0,90,false,stim,false,0,593,2,1,2,24203,task1,1421505,false,false,1654,image-keyboard-response,40
true,13,1,1,1,true,z,false,true,0.0-2.0-0.58-0.526-3.526,0,0,0,90,false,stim,false,2,761,2,1,1,24203,task1,1423797,false,false,1657,image-keyboard-response,41
true,13,1,1,1,true,z,false,true,0.0-2.0-0.58-0.527-3.527,0,0,0,90,false,stim,false,0,537,2,1,2,24203,task1,1425871,false,false,1660,image-keyboard-response,42
true,13,0,1,1,false,z,true,false,0.0-2.0-0.58-0.528-3.528,0,0,0,81,false,stim,false,2,809,2,1,1,24203,task1,1428204,false,false,1663,image-keyboard-response,43
true,14,1,0,1,true,z,false,true,0.0-2.0-0.58-0.529-3.529,1,1,1,90,true,stim,false,1,1744,2,1,1,24203,task1,1527949,false,false,1762,image-keyboard-response,1
true,14,0,0,0,true,q,false,true,0.0-2.0-0.58-0.530-3.530,1,1,1,81,false,stim,false,0,698,2,1,0,24203,task1,1530184,false,false,1765,image-keyboard-response,2
true,14,0,0,0,true,q,false,true,0.0-2.0-0.59-0.531-3.531,1,1,1,81,false,stim,false,0,590,2,1,0,24203,task1,1532324,false,false,1768,image-keyboard-response,3
true,14,0,0,0,true,q,false,true,0.0-2.0-0.59-0.532-3.532,1,1,1,81,false,stim,false,0,532,2,1,0,24203,task1,1534379,false,false,1771,image-keyboard-response,4
true,14,0,0,0,true,q,false,true,0.0-2.0-0.59-0.533-3.533,1,1,1,81,false,stim,false,0,433,2,1,0,24203,task1,1536337,false,false,1774,image-keyboard-response,5
true,14,2,0,1,false,z,true,false,0.0-2.0-0.59-0.534-3.534,1,1,1,68,false,stim,false,1,801,2,1,2,24203,task1,1538653,false,false,1777,image-keyboard-response,6
true,14,1,0,1,true,z,false,true,0.0-2.0-0.59-0.535-3.535,1,1,1,90,false,stim,false,1,605,2,1,1,24203,task1,1540779,false,false,1780,image-keyboard-response,7
true,14,1,0,1,true,z,false,true,0.0-2.0-0.59-0.536-3.536,1,1,1,90,false,stim,false,1,539,2,1,1,24203,task1,1542846,false,false,1783,image-keyboard-response,8
true,14,1,0,1,true,z,false,true,0.0-2.0-0.59-0.537-3.537,1,1,1,90,false,stim,false,1,412,2,0,2,24203,task1,1544786,false,false,1786,image-keyboard-response,9
true,14,1,0,1,true,z,false,true,0.0-2.0-0.59-0.538-3.538,1,1,1,90,false,stim,false,1,546,2,0,1,24203,task1,1546865,false,false,1789,image-keyboard-response,10
true,14,1,0,1,true,z,false,true,0.0-2.0-0.59-0.539-3.539,1,1,1,90,false,stim,false,1,809,2,0,2,24203,task1,1549210,false,false,1792,image-keyboard-response,11
true,14,1,0,1,true,z,false,true,0.0-2.0-0.60-0.540-3.540,1,1,1,90,false,stim,false,1,837,2,0,2,24203,task1,1551568,false,false,1795,image-keyboard-response,12
true,14,1,0,1,true,z,false,true,0.0-2.0-0.60-0.541-3.541,1,1,1,90,false,stim,false,1,685,2,0,1,24203,task1,1553781,false,false,1798,image-keyboard-response,13
true,15,0,2,2,false,d,false,false,0.0-2.0-0.60-0.542-3.542,0,0,0,81,true,stim,true,0,717,2,0,0,24203,task1,1556058,false,false,1801,image-keyboard-response,1
true,15,1,2,2,false,d,false,false,0.0-2.0-0.60-0.543-3.543,0,0,0,90,false,stim,true,1,545,2,0,1,24203,task1,1558137,false,false,1804,image-keyboard-response,2
true,15,1,2,0,false,q,false,false,0.0-2.0-0.60-0.544-3.544,0,0,0,90,false,stim,true,1,581,2,0,2,24203,task1,1560254,false,false,1807,image-keyboard-response,3
true,15,2,2,2,true,d,false,true,0.0-2.0-0.60-0.545-3.545,0,0,0,68,false,stim,false,1,857,2,0,1,24203,task1,1562648,false,false,1810,image-keyboard-response,4
true,15,2,2,0,false,q,true,false,0.0-2.0-0.60-0.546-3.546,0,0,0,68,false,stim,false,1,478,2,0,2,24203,task1,1564648,false,false,1813,image-keyboard-response,5
true,15,0,2,2,false,d,false,false,0.0-2.0-0.60-0.547-3.547,0,0,0,81,false,stim,true,0,622,2,0,0,24203,task1,1566805,false,false,1816,image-keyboard-response,6
true,15,1,2,2,false,d,true,false,0.0-2.0-0.60-0.548-3.548,0,0,0,90,false,stim,false,0,932,2,0,0,24203,task1,1569263,false,false,1819,image-keyboard-response,7
true,15,1,2,0,false,q,false,false,0.0-2.0-0.61-0.549-3.549,0,0,0,90,false,stim,true,1,743,2,0,2,24203,task1,1571539,false,false,1822,image-keyboard-response,8
true,15,2,2,0,false,q,true,true,0.0-2.0-0.61-0.550-3.550,0,0,0,68,false,stim,false,1,777,2,0,2,24203,task1,1573838,false,true,1825,image-keyboard-response,9
true,15,2,2,0,false,q,true,false,0.0-2.0-0.61-0.551-3.551,0,0,0,68,false,stim,false,1,617,2,0,2,24203,task1,1575974,false,false,1828,image-keyboard-response,10
true,15,2,2,2,true,d,false,true,0.0-2.0-0.61-0.552-3.552,0,0,0,68,false,stim,false,0,1037,2,0,0,24203,task1,1578543,false,false,1831,image-keyboard-response,11
true,15,2,2,2,true,d,false,true,0.0-2.0-0.61-0.553-3.553,0,0,0,68,false,stim,false,1,409,2,0,1,24203,task1,1580480,false,false,1834,image-keyboard-response,12
true,15,2,2,2,true,d,false,true,0.0-2.0-0.61-0.554-3.554,0,0,0,68,false,stim,false,0,457,2,0,0,24203,task1,1582460,false,false,1837,image-keyboard-response,13
true,15,2,2,2,true,d,false,true,0.0-2.0-0.61-0.555-3.555,0,0,0,68,false,stim,false,0,478,2,0,0,24203,task1,1584461,false,false,1840,image-keyboard-response,14
true,15,2,2,2,true,d,false,true,0.0-2.0-0.61-0.556-3.556,0,0,0,68,false,stim,false,1,388,2,0,1,24203,task1,1586371,false,false,1843,image-keyboard-response,15
true,15,2,2,2,true,d,false,true,0.0-2.0-0.61-0.557-3.557,0,0,0,68,false,stim,false,1,365,2,0,1,24203,task1,1588261,false,false,1846,image-keyboard-response,16
true,15,0,2,0,true,q,false,true,0.0-2.0-0.62-0.558-3.558,0,0,0,81,false,stim,false,1,474,2,0,2,24203,task1,1590268,false,false,1849,image-keyboard-response,17
true,15,2,2,2,true,d,false,true,0.0-2.0-0.62-0.559-3.559,0,0,0,68,false,stim,false,0,492,2,0,0,24203,task1,1592282,false,false,1852,image-keyboard-response,18
true,15,2,2,2,true,d,false,true,0.0-2.0-0.62-0.560-3.560,0,0,0,68,false,stim,false,1,597,2,0,1,24203,task1,1594406,false,false,1855,image-keyboard-response,19
true,15,0,2,0,true,q,false,true,0.0-2.0-0.62-0.561-3.561,0,0,0,81,false,stim,false,1,348,2,0,2,24203,task1,1596286,false,false,1858,image-keyboard-response,20
true,15,2,2,2,true,d,false,true,0.0-2.0-0.62-0.562-3.562,0,0,0,68,false,stim,false,0,689,2,0,0,24203,task1,1598509,false,false,1861,image-keyboard-response,21
true,15,0,2,0,true,q,false,true,0.0-2.0-0.62-0.563-3.563,0,0,0,81,false,stim,false,1,622,2,0,2,24203,task1,1600657,false,false,1864,image-keyboard-response,22
true,15,2,2,2,true,d,false,true,0.0-2.0-0.62-0.564-3.564,0,0,0,68,false,stim,false,1,416,2,0,1,24203,task1,1602599,false,false,1867,image-keyboard-response,23
true,15,2,2,2,true,d,false,true,0.0-2.0-0.62-0.565-3.565,0,0,0,68,false,stim,false,0,1699,2,0,0,24203,task1,1605830,false,false,1870,image-keyboard-response,24
true,15,2,2,2,true,d,false,false,0.0-2.0-0.62-0.566-3.566,0,0,0,68,false,stim,false,1,746,2,0,1,24203,task1,1608091,false,true,1873,image-keyboard-response,25
true,15,2,2,2,true,d,false,true,0.0-2.0-0.63-0.567-3.567,0,0,0,68,false,stim,false,0,637,2,0,0,24203,task1,1610245,false,false,1876,image-keyboard-response,26
true,15,0,2,0,true,q,false,true,0.0-2.0-0.63-0.568-3.568,0,0,0,81,false,stim,false,1,437,2,0,2,24203,task1,1612210,false,false,1879,image-keyboard-response,27
true,15,0,2,0,true,q,false,true,0.0-2.0-0.63-0.569-3.569,0,0,0,81,false,stim,false,1,492,2,0,2,24203,task1,1614231,false,false,1882,image-keyboard-response,28
true,15,2,2,2,true,d,false,true,0.0-2.0-0.63-0.570-3.570,0,0,0,68,false,stim,false,1,608,2,0,1,24203,task1,1616379,false,false,1885,image-keyboard-response,29
true,15,2,2,2,true,d,false,true,0.0-2.0-0.63-0.571-3.571,0,0,0,68,false,stim,false,1,452,2,0,1,24203,task1,1618346,false,false,1888,image-keyboard-response,30
true,15,2,2,2,true,d,false,true,0.0-2.0-0.63-0.572-3.572,0,0,0,68,false,stim,false,1,435,2,0,1,24203,task1,1620301,false,false,1891,image-keyboard-response,31
true,15,2,2,2,true,d,false,true,0.0-2.0-0.63-0.573-3.573,0,0,0,68,false,stim,false,0,393,2,0,0,24203,task1,1622224,false,false,1894,image-keyboard-response,32
true,15,2,2,2,true,d,false,true,0.0-2.0-0.63-0.574-3.574,0,0,0,68,false,stim,false,0,484,2,0,0,24203,task1,1624248,false,false,1897,image-keyboard-response,33
true,15,0,2,0,true,q,false,true,0.0-2.0-0.63-0.575-3.575,0,0,0,81,false,stim,false,1,835,2,0,2,24203,task1,1626611,false,false,1900,image-keyboard-response,34
true,15,0,2,0,true,q,false,true,0.0-2.0-0.64-0.576-3.576,0,0,0,81,false,stim,false,1,645,2,0,2,24203,task1,1628819,false,false,1903,image-keyboard-response,35
true,15,2,2,2,true,d,false,true,0.0-2.0-0.64-0.577-3.577,0,0,0,68,false,stim,false,1,806,2,0,1,24203,task1,1631147,false,false,1906,image-keyboard-response,36
true,15,2,2,0,false,q,true,false,0.0-2.0-0.64-0.578-3.578,0,0,0,68,false,stim,false,1,1296,2,0,2,24203,task1,1633964,false,false,1909,image-keyboard-response,37
true,15,0,2,0,true,q,false,true,0.0-2.0-0.64-0.579-3.579,0,0,0,81,false,stim,false,1,560,2,0,2,24203,task1,1636045,false,false,1912,image-keyboard-response,38
true,15,2,2,2,true,d,false,true,0.0-2.0-0.64-0.580-3.580,0,0,0,68,false,stim,false,0,443,2,0,0,24203,task1,1638028,false,false,1915,image-keyboard-response,39
true,15,2,2,2,true,d,false,true,0.0-2.0-0.64-0.581-3.581,0,0,0,68,false,stim,false,1,433,2,0,1,24203,task1,1639999,false,false,1918,image-keyboard-response,40
true,16,2,2,1,false,z,false,false,0.0-2.0-0.64-0.582-3.582,0,0,0,68,true,stim,true,2,898,2,0,1,24203,task1,1642430,false,false,1921,image-keyboard-response,1
true,16,2,2,1,false,z,false,false,0.0-2.0-0.64-0.583-3.583,0,0,0,68,false,stim,true,2,822,2,0,0,24203,task1,1644784,false,false,1924,image-keyboard-response,2
true,16,2,2,1,false,z,false,false,0.0-2.0-0.64-0.584-3.584,0,0,0,68,false,stim,true,2,539,2,0,0,24203,task1,1646846,false,false,1927,image-keyboard-response,3
true,16,2,2,1,false,z,false,false,0.0-2.0-0.65-0.585-3.585,0,0,0,68,false,stim,true,2,577,2,0,1,24203,task1,1648950,false,false,1930,image-keyboard-response,4
true,16,1,2,1,true,z,false,true,0.0-2.0-0.65-0.586-3.586,0,0,0,90,false,stim,false,2,786,2,0,0,24203,task1,1651259,false,false,1933,image-keyboard-response,5
true,16,1,2,1,true,z,false,true,0.0-2.0-0.65-0.587-3.587,0,0,0,90,false,stim,false,2,431,2,0,1,24203,task1,1653218,false,false,1936,image-keyboard-response,6
true,16,1,2,1,true,z,false,true,0.0-2.0-0.65-0.588-3.588,0,0,0,90,false,stim,false,2,373,2,0,1,24203,task1,1655124,false,false,1939,image-keyboard-response,7
true,16,0,2,2,false,d,false,false,0.0-2.0-0.65-0.589-3.589,0,0,0,81,false,stim,true,0,690,2,0,2,24203,task1,1657339,false,false,1942,image-keyboard-response,8
true,16,1,2,1,true,z,false,true,0.0-2.0-0.65-0.590-3.590,0,0,0,90,false,stim,false,2,520,2,0,0,24203,task1,1659384,false,false,1945,image-keyboard-response,9
true,16,1,2,2,false,d,true,false,0.0-2.0-0.65-0.591-3.591,0,0,0,90,false,stim,false,0,1022,2,0,2,24203,task1,1661934,false,false,1948,image-keyboard-response,10
true,16,1,2,1,true,z,false,true,0.0-2.0-0.65-0.592-3.592,0,0,0,90,false,stim,false,2,645,2,0,0,24203,task1,1664106,false,false,1951,image-keyboard-response,11
true,16,0,2,2,false,d,false,false,0.0-2.0-0.65-0.593-3.593,0,0,0,81,false,stim,true,0,612,2,0,2,24203,task1,1666252,false,false,1954,image-keyboard-response,12
true,16,2,2,2,true,d,false,true,0.0-2.0-0.66-0.594-3.594,0,0,0,68,false,stim,false,0,627,2,0,2,24203,task1,1668416,false,false,1957,image-keyboard-response,13
true,16,1,2,1,true,z,false,true,0.0-2.0-0.66-0.595-3.595,0,0,0,90,false,stim,false,2,548,2,0,1,24203,task1,1670484,false,false,1960,image-keyboard-response,14
true,16,1,2,1,true,z,false,true,0.0-2.0-0.66-0.596-3.596,0,0,0,90,false,stim,false,2,566,2,0,0,24203,task1,1672581,false,false,1963,image-keyboard-response,15
true,16,2,2,2,true,d,false,true,0.0-2.0-0.66-0.597-3.597,0,0,0,68,false,stim,false,0,428,2,0,2,24203,task1,1674544,false,false,1966,image-keyboard-response,16
true,16,2,2,2,true,d,false,true,0.0-2.0-0.66-0.598-3.598,0,0,0,68,false,stim,false,0,514,2,0,2,24203,task1,1676596,false,false,1969,image-keyboard-response,17
true,16,1,2,1,true,z,false,true,0.0-2.0-0.66-0.599-3.599,0,0,0,90,false,stim,false,2,531,2,0,0,24203,task1,1678660,false,false,1972,image-keyboard-response,18
true,16,1,2,1,true,z,false,true,0.0-2.0-0.66-0.600-3.600,0,0,0,90,false,stim,false,2,391,2,0,1,24203,task1,1680586,false,false,1975,image-keyboard-response,19
true,16,1,2,1,true,z,false,true,0.0-2.0-0.66-0.601-3.601,0,0,0,90,false,stim,false,2,647,2,0,0,24203,task1,1682756,false,false,1978,image-keyboard-response,20
true,16,1,2,1,true,z,false,true,0.0-2.0-0.66-0.602-3.602,0,0,0,90,false,stim,false,2,449,2,0,1,24203,task1,1684741,false,false,1981,image-keyboard-response,21
true,16,2,2,2,true,d,false,true,0.0-2.0-0.67-0.603-3.603,0,0,0,68,false,stim,false,0,487,2,0,2,24203,task1,1686759,false,false,1984,image-keyboard-response,22
true,16,1,2,1,true,z,false,true,0.0-2.0-0.67-0.604-3.604,0,0,0,90,false,stim,false,2,796,2,0,0,24203,task1,1689080,false,false,1987,image-keyboard-response,23
true,16,1,2,1,true,z,false,true,0.0-2.0-0.67-0.605-3.605,0,0,0,90,false,stim,false,2,846,2,0,1,24203,task1,1691464,false,false,1990,image-keyboard-response,24
true,16,1,2,1,true,z,false,true,0.0-2.0-0.67-0.606-3.606,0,0,0,90,false,stim,false,2,860,2,0,1,24203,task1,1693857,false,false,1993,image-keyboard-response,25
true,16,2,2,2,true,d,false,true,0.0-2.0-0.67-0.607-3.607,0,0,0,68,false,stim,false,0,1078,2,0,2,24203,task1,1696458,false,false,1996,image-keyboard-response,26
true,16,1,2,1,true,z,false,true,0.0-2.0-0.67-0.608-3.608,0,0,0,90,false,stim,false,2,1613,2,0,0,24203,task1,1699608,false,false,1999,image-keyboard-response,27
true,16,1,2,1,true,z,false,true,0.0-2.0-0.67-0.609-3.609,0,0,0,90,false,stim,false,2,565,2,0,0,24203,task1,1701721,false,false,2002,image-keyboard-response,28
true,16,2,2,1,false,z,false,false,0.0-2.0-0.67-0.610-3.610,0,0,0,68,false,stim,true,2,815,2,0,1,24203,task1,1704069,false,false,2005,image-keyboard-response,29
true,16,2,2,2,true,d,false,true,0.0-2.0-0.67-0.611-3.611,0,0,0,68,false,stim,false,0,705,2,0,2,24203,task1,1706308,false,false,2008,image-keyboard-response,30
true,16,1,2,1,true,z,false,true,0.0-2.0-0.68-0.612-3.612,0,0,0,90,false,stim,false,2,698,2,0,0,24203,task1,1708534,false,false,2011,image-keyboard-response,31
true,16,1,2,1,true,z,false,true,0.0-2.0-0.68-0.613-3.613,0,0,0,90,false,stim,false,2,534,2,0,0,24203,task1,1710599,false,false,2014,image-keyboard-response,32
true,16,1,2,1,true,z,false,true,0.0-2.0-0.68-0.614-3.614,0,0,0,90,false,stim,false,2,550,2,0,1,24203,task1,1712675,false,false,2017,image-keyboard-response,33
true,16,2,2,2,true,d,false,true,0.0-2.0-0.68-0.615-3.615,0,0,0,68,false,stim,false,0,890,2,0,2,24203,task1,1715094,false,false,2020,image-keyboard-response,34
true,16,1,2,1,true,z,false,true,0.0-2.0-0.68-0.616-3.616,0,0,0,90,false,stim,false,2,728,2,0,1,24203,task1,1717354,false,false,2023,image-keyboard-response,35
true,16,2,2,2,true,d,false,true,0.0-2.0-0.68-0.617-3.617,0,0,0,68,false,stim,false,0,1175,2,0,2,24203,task1,1720066,false,false,2026,image-keyboard-response,36
true,16,2,2,2,true,d,false,true,0.0-2.0-0.68-0.618-3.618,0,0,0,68,false,stim,false,0,546,2,0,2,24203,task1,1722135,false,false,2029,image-keyboard-response,37
true,16,1,2,1,true,z,false,true,0.0-2.0-0.68-0.619-3.619,0,0,0,90,false,stim,false,2,598,2,0,1,24203,task1,1724267,false,false,2032,image-keyboard-response,38
true,16,1,2,1,true,z,false,true,0.0-2.0-0.68-0.620-3.620,0,0,0,90,false,stim,false,2,408,2,0,0,24203,task1,1726211,false,false,2035,image-keyboard-response,39
true,16,2,2,2,true,d,false,true,0.0-2.0-0.69-0.621-3.621,0,0,0,68,false,stim,false,0,549,2,0,2,24203,task1,1728299,false,false,2038,image-keyboard-response,40
true,16,1,2,1,true,z,false,true,0.0-2.0-0.69-0.622-3.622,0,0,0,90,false,stim,false,2,567,2,0,1,24203,task1,1730397,false,false,2041,image-keyboard-response,41
true,16,1,2,1,true,z,false,true,0.0-2.0-0.69-0.623-3.623,0,0,0,90,false,stim,false,2,426,2,0,0,24203,task1,1732347,false,false,2044,image-keyboard-response,42
true,17,1,1,2,false,d,false,false,0.0-2.0-0.69-0.624-3.624,0,0,0,90,true,stim,true,1,655,2,0,1,24203,task1,1734532,false,false,2047,image-keyboard-response,1
true,17,1,1,2,false,d,false,false,0.0-2.0-0.69-0.625-3.625,0,0,0,90,false,stim,true,1,658,2,0,1,24203,task1,1736716,false,false,2050,image-keyboard-response,2
true,17,2,1,1,false,z,false,false,0.0-2.0-0.69-0.626-3.626,0,0,0,68,false,stim,true,2,502,2,0,2,24203,task1,1738743,false,false,2053,image-keyboard-response,3
true,17,1,1,0,false,q,false,false,0.0-2.0-0.69-0.627-3.627,0,0,0,90,false,stim,true,1,1055,2,0,0,24203,task1,1741325,false,false,2056,image-keyboard-response,4
true,17,2,1,0,false,q,true,false,0.0-2.0-0.69-0.628-3.628,0,0,0,68,false,stim,false,1,648,2,0,0,24203,task1,1743500,false,false,2059,image-keyboard-response,5
true,17,0,1,1,false,z,true,false,0.0-2.0-0.69-0.629-3.629,0,0,0,81,false,stim,false,2,1008,2,0,2,24203,task1,1746042,false,false,2062,image-keyboard-response,6
true,17,1,1,1,true,z,false,true,0.0-2.0-0.70-0.630-3.630,0,0,0,90,false,stim,false,2,461,2,0,2,24203,task1,1748025,false,false,2065,image-keyboard-response,7
true,17,1,1,1,true,z,false,true,0.0-2.0-0.70-0.631-3.631,0,0,0,90,false,stim,false,2,523,2,0,2,24203,task1,1750085,false,false,2068,image-keyboard-response,8
true,17,2,1,0,false,q,true,false,0.0-2.0-0.70-0.632-3.632,0,0,0,68,false,stim,false,1,893,2,0,0,24203,task1,1752504,false,false,2071,image-keyboard-response,9
true,17,0,1,2,false,d,true,false,0.0-2.0-0.70-0.633-3.633,0,0,0,81,false,stim,false,1,985,2,0,1,24203,task1,1755010,false,false,2074,image-keyboard-response,10
