answered,blockNum,choice,condition,corResp,correct,correct_response,explo,fb,internal_node_id,isStable_1,isStable_2,isStable_3,key_press,newBlock,part,persev,persevResp,rt,sessNum,stableAS,stimulus,subject,task,time_elapsed,training,trap,trial_index,trial_type,trialsInBlock
true,1,0,0,1,false,z,true,false,0.0-2.0-0.0-0.0-3.0,0,0,0,81,true,stim,false,-1,1521,0,0,1,24203,task3,297739,false,false,138,image-keyboard-response,1
true,1,0,0,1,false,z,true,false,0.0-2.0-0.0-0.1-3.1,0,0,0,81,false,stim,false,-1,1092,0,0,2,24203,task3,300357,false,false,141,image-keyboard-response,2
true,1,1,0,1,true,z,false,true,0.0-2.0-0.0-0.2-3.2,0,0,0,90,false,stim,false,-1,1703,0,0,1,24203,task3,303589,false,false,144,image-keyboard-response,3
true,1,1,0,0,false,q,true,false,0.0-2.0-0.0-0.3-3.3,0,0,0,90,false,stim,false,-1,1690,0,0,0,24203,task3,306796,false,false,147,image-keyboard-response,4
true,1,1,0,1,true,z,false,true,0.0-2.0-0.0-0.4-3.4,0,0,0,90,false,stim,false,-1,1232,0,0,2,24203,task3,309547,false,false,150,image-keyboard-response,5
true,1,1,0,1,true,z,false,true,0.0-2.0-0.0-0.5-3.5,0,0,0,90,false,stim,false,-1,930,0,0,2,24203,task3,312016,false,false,153,image-keyboard-response,6
true,1,2,0,0,false,q,true,false,0.0-2.0-0.0-0.6-3.6,0,0,0,68,false,stim,false,-1,1247,0,0,0,24203,task3,314793,false,false,156,image-keyboard-response,7
true,1,1,0,0,false,q,true,false,0.0-2.0-0.0-0.7-3.7,0,0,0,90,false,stim,false,-1,997,0,0,0,24203,task3,317322,false,false,159,image-keyboard-response,8
true,1,1,0,1,true,z,false,true,0.0-2.0-0.0-0.8-3.8,0,0,0,90,false,stim,false,-1,1007,0,0,1,24203,task3,319852,false,false,162,image-keyboard-response,9
true,1,1,0,1,true,z,false,true,0.0-2.0-0.1-0.9-3.9,0,0,0,90,false,stim,false,-1,397,0,0,2,24203,task3,321772,false,false,165,image-keyboard-response,10
true,1,0,0,0,true,q,false,false,0.0-2.0-0.1-0.10-3.10,0,0,0,81,false,stim,false,-1,499,0,0,0,24203,task3,323795,false,true,168,image-keyboard-response,11
true,1,1,0,1,true,z,false,true,0.0-2.0-0.1-0.11-3.11,0,0,0,90,false,stim,false,-1,857,0,0,1,24203,task3,326173,false,false,171,image-keyboard-response,12
true,1,1,0,0,false,q,true,false,0.0-2.0-0.1-0.12-3.12,0,0,0,90,false,stim,false,-1,1079,0,0,0,24203,task3,328783,false,false,174,image-keyboard-response,13
true,1,1,0,1,true,z,false,true,0.0-2.0-0.1-0.13-3.13,0,0,0,90,false,stim,false,-1,1543,0,0,1,24203,task3,331858,false,false,177,image-keyboard-response,14
true,1,1,0,1,true,z,false,true,0.0-2.0-0.1-0.14-3.14,0,0,0,90,false,stim,false,-1,608,0,0,1,24203,task3,333986,false,false,180,image-keyboard-response,15
true,1,2,0,0,false,q,true,false,0.0-2.0-0.1-0.15-3.15,0,0,0,68,false,stim,false,-1,989,0,0,0,24203,task3,336495,false,false,183,image-keyboard-response,16
true,1,1,0,1,true,z,false,true,0.0-2.0-0.1-0.16-3.16,0,0,0,90,false,stim,false,-1,709,0,0,2,24203,task3,338723,false,false,186,image-keyboard-response,17
true,1,1,0,1,true,z,false,true,0.0-2.0-0.1-0.17-3.17,0,0,0,90,false,stim,false,-1,645,0,0,2,24203,task3,340890,false,false,189,image-keyboard-response,18
true,1,1,0,1,true,z,false,true,0.0-2.0-0.2-0.18-3.18,0,0,0,90,false,stim,false,-1,1102,0,0,1,24203,task3,343518,false,false,192,image-keyboard-response,19
true,1,0,0,0,true,q,false,true,0.0-2.0-0.2-0.19-3.19,0,0,0,81,false,stim,false,-1,2081,0,0,0,24203,task3,347128,false,false,195,image-keyboard-response,20
true,1,1,0,1,true,z,false,false,0.0-2.0-0.2-0.20-3.20,0,0,0,90,false,stim,false,-1,660,0,0,2,24203,task3,349316,false,true,198,image-keyboard-response,21
true,1,0,0,0,true,q,false,true,0.0-2.0-0.2-0.21-3.21,0,0,0,81,false,stim,false,-1,1139,0,0,0,24203,task3,351988,false,false,201,image-keyboard-response,22
true,1,1,0,1,true,z,false,false,0.0-2.0-0.2-0.22-3.22,0,0,0,90,false,stim,false,-1,1163,0,0,1,24203,task3,354669,false,true,204,image-keyboard-response,23
true,1,0,0,0,true,q,false,true,0.0-2.0-0.2-0.23-3.23,0,0,0,81,false,stim,false,-1,790,0,0,0,24203,task3,356996,false,false,207,image-keyboard-response,24
true,1,2,0,1,false,z,true,true,0.0-2.0-0.2-0.24-3.24,0,0,0,68,false,stim,false,-1,796,0,0,1,24203,task3,359322,false,true,210,image-keyboard-response,25
true,1,1,0,1,true,z,false,true,0.0-2.0-0.2-0.25-3.25,0,0,0,90,false,stim,false,-1,1254,0,0,2,24203,task3,362104,false,false,213,image-keyboard-response,26
true,1,1,0,1,true,z,false,true,0.0-2.0-0.2-0.26-3.26,0,0,0,90,false,stim,false,-1,914,0,0,2,24203,task3,364549,false,false,216,image-keyboard-response,27
true,1,1,0,1,true,z,false,true,0.0-2.0-0.3-0.27-3.27,0,0,0,90,false,stim,false,-1,515,0,0,2,24203,task3,366591,false,false,219,image-keyboard-response,28
true,1,0,0,1,false,z,true,false,0.0-2.0-0.3-0.28-3.28,0,0,0,81,false,stim,false,-1,780,0,1,1,24203,task3,368897,false,false,222,image-keyboard-response,29
true,1,0,0,0,true,q,false,true,0.0-2.0-0.3-0.29-3.29,0,0,0,81,false,stim,false,-1,701,0,0,0,24203,task3,371128,false,false,225,image-keyboard-response,30
true,1,1,0,1,true,z,false,true,0.0-2.0-0.3-0.30-3.30,0,0,0,90,false,stim,false,-1,472,0,0,2,24203,task3,373127,false,false,228,image-keyboard-response,31
true,2,2,1,2,true,d,false,false,0.0-2.0-0.3-0.31-3.31,0,1,0,68,true,stim,false,0,1330,0,0,0,24203,task3,375977,false,true,231,image-keyboard-response,1
true,2,0,1,2,false,d,false,true,0.0-2.0-0.3-0.32-3.32,0,1,0,81,false,stim,true,0,635,0,0,0,24203,task3,378142,false,true,234,image-keyboard-response,2
true,2,2,1,1,false,z,true,false,0.0-2.0-0.3-0.33-3.33,0,1,0,68,false,stim,false,1,1398,0,1,1,24203,task3,381064,false,false,237,image-keyboard-response,3
true,2,0,1,1,false,z,true,false,0.0-2.0-0.3-0.34-3.34,0,1,0,81,false,stim,false,1,1532,0,1,1,24203,task3,384117,false,false,240,image-keyboard-response,4
true,2,1,1,0,false,q,false,true,0.0-2.0-0.3-0.35-3.35,0,1,0,90,false,stim,true,1,1056,0,0,2,24203,task3,386702,false,true,243,image-keyboard-response,5
true,2,1,1,0,false,q,false,false,0.0-2.0-0.4-0.36-3.36,0,1,0,90,false,stim,true,1,571,0,0,2,24203,task3,388808,false,false,246,image-keyboard-response,6
true,2,1,1,2,false,d,true,false,0.0-2.0-0.4-0.37-3.37,0,1,0,90,false,stim,false,0,1883,0,0,0,24203,task3,392218,false,false,249,image-keyboard-response,7
true,2,1,1,1,true,z,false,true,0.0-2.0-0.4-0.38-3.38,0,1,0,90,false,stim,false,1,1339,0,1,1,24203,task3,395096,false,false,252,image-keyboard-response,8
true,2,1,1,1,true,z,false,true,0.0-2.0-0.4-0.39-3.39,0,1,0,90,false,stim,false,1,870,0,1,1,24203,task3,397487,false,false,255,image-keyboard-response,9
true,2,0,1,0,true,q,false,true,0.0-2.0-0.4-0.40-3.40,0,1,0,81,false,stim,false,1,928,0,0,2,24203,task3,399944,false,false,258,image-keyboard-response,10
true,2,1,1,1,true,z,false,true,0.0-2.0-0.4-0.41-3.41,0,1,0,90,false,stim,false,1,1155,0,1,1,24203,task3,402622,false,false,261,image-keyboard-response,11
true,2,2,1,2,true,d,false,true,0.0-2.0-0.4-0.42-3.42,0,1,0,68,false,stim,false,0,1172,0,0,0,24203,task3,405318,false,false,264,image-keyboard-response,12
true,2,2,1,2,true,d,false,false,0.0-2.0-0.4-0.43-3.43,0,1,0,68,false,stim,false,0,917,0,0,0,24203,task3,407762,false,true,267,image-keyboard-response,13
true,2,1,1,0,false,q,false,false,0.0-2.0-0.4-0.44-3.44,0,1,0,90,false,stim,true,1,1034,0,0,2,24203,task3,410319,false,false,270,image-keyboard-response,14
true,2,1,1,2,false,d,true,false,0.0-2.0-0.5-0.45-3.45,0,1,0,90,false,stim,false,0,1303,0,0,0,24203,task3,413149,false,false,273,image-keyboard-response,15
true,2,0,1,1,false,z,true,true,0.0-2.0-0.5-0.46-3.46,0,1,0,81,false,stim,false,1,873,0,1,1,24203,task3,415538,false,true,276,image-keyboard-response,16
true,2,0,1,1,false,z,true,false,0.0-2.0-0.5-0.47-3.47,0,1,0,81,false,stim,false,1,651,0,1,1,24203,task3,417706,false,false,279,image-keyboard-response,17
true,2,0,1,2,false,d,false,false,0.0-2.0-0.5-0.48-3.48,0,1,0,81,false,stim,true,0,1056,0,0,0,24203,task3,420287,false,false,282,image-keyboard-response,18
true,2,1,1,0,false,q,false,false,0.0-2.0-0.5-0.49-3.49,0,1,0,90,false,stim,true,1,1291,0,0,2,24203,task3,423118,false,false,285,image-keyboard-response,19
true,2,1,1,0,false,q,false,false,0.0-2.0-0.5-0.50-3.50,0,1,0,90,false,stim,true,1,910,0,0,2,24203,task3,425536,false,false,288,image-keyboard-response,20
true,2,0,1,1,false,z,true,false,0.0-2.0-0.5-0.51-3.51,0,1,0,81,false,stim,false,1,683,0,1,1,24203,task3,427756,false,false,291,image-keyboard-response,21
true,2,2,1,0,false,q,true,false,0.0-2.0-0.5-0.52-3.52,0,1,0,68,false,stim,false,1,1532,0,0,2,24203,task3,430818,false,false,294,image-keyboard-response,22
true,2,0,1,2,false,d,false,false,0.0-2.0-0.5-0.53-3.53,0,1,0,81,false,stim,true,0,1434,0,0,0,24203,task3,433770,false,false,297,image-keyboard-response,23
true,2,2,1,2,true,d,false,true,0.0-2.0-0.6-0.54-3.54,0,1,0,68,false,stim,false,0,1044,0,0,0,24203,task3,436340,false,false,300,image-keyboard-response,24
true,2,2,1,2,true,d,false,true,0.0-2.0-0.6-0.55-3.55,0,1,0,68,false,stim,false,0,1062,0,0,0,24203,task3,438948,false,false,303,image-keyboard-response,25
true,2,0,1,1,false,z,true,false,0.0-2.0-0.6-0.56-3.56,0,1,0,81,false,stim,false,1,1043,0,1,1,24203,task3,441520,false,false,306,image-keyboard-response,26
true,2,2,1,2,true,d,false,true,0.0-2.0-0.6-0.57-3.57,0,1,0,68,false,stim,false,0,866,0,0,0,24203,task3,443909,false,false,309,image-keyboard-response,27
true,2,1,1,1,true,z,false,true,0.0-2.0-0.6-0.58-3.58,0,1,0,90,false,stim,false,1,1255,0,1,1,24203,task3,446680,false,false,312,image-keyboard-response,28
true,2,1,1,1,true,z,false,true,0.0-2.0-0.6-0.59-3.59,0,1,0,90,false,stim,false,1,786,0,1,1,24203,task3,448989,false,false,315,image-keyboard-response,29
true,3,0,1,2,false,d,false,false,0.0-2.0-0.6-0.60-3.60,0,1,0,81,true,stim,true,0,758,0,0,2,24203,task3,451284,false,false,318,image-keyboard-response,1
true,3,1,1,2,false,d,true,false,0.0-2.0-0.6-0.61-3.61,0,1,0,90,false,stim,false,0,576,0,0,2,24203,task3,453391,false,false,321,image-keyboard-response,2
true,3,2,1,2,true,d,false,false,0.0-2.0-0.6-0.62-3.62,0,1,0,68,false,stim,false,0,638,0,0,2,24203,task3,455566,false,true,324,image-keyboard-response,3
true,3,2,1,0,false,q,false,false,0.0-2.0-0.7-0.63-3.63,0,1,0,68,false,stim,true,2,1296,0,0,0,24203,task3,458382,false,false,327,image-keyboard-response,4
true,3,1,1,0,false,q,true,false,0.0-2.0-0.7-0.64-3.64,0,1,0,90,false,stim,false,2,627,0,0,0,24203,task3,460527,false,false,330,image-keyboard-response,5
true,3,0,1,2,false,d,false,true,0.0-2.0-0.7-0.65-3.65,0,1,0,81,false,stim,true,0,457,0,0,2,24203,task3,462521,false,true,333,image-keyboard-response,6
true,3,0,1,2,false,d,false,false,0.0-2.0-0.7-0.66-3.66,0,1,0,81,false,stim,true,0,1066,0,0,2,24203,task3,465096,false,false,336,image-keyboard-response,7
true,3,0,1,1,false,z,true,false,0.0-2.0-0.7-0.67-3.67,0,1,0,81,false,stim,false,1,1048,0,0,1,24203,task3,467663,false,false,339,image-keyboard-response,8
true,3,0,1,0,true,q,false,true,0.0-2.0-0.7-0.68-3.68,0,1,0,81,false,stim,false,2,1345,0,1,0,24203,task3,470552,false,false,342,image-keyboard-response,9
true,3,2,1,1,false,z,true,false,0.0-2.0-0.7-0.69-3.69,0,1,0,68,false,stim,false,1,2068,0,0,1,24203,task3,474136,false,false,345,image-keyboard-response,10
true,3,0,1,2,false,d,false,false,0.0-2.0-0.7-0.70-3.70,0,1,0,81,false,stim,true,0,1628,0,1,2,24203,task3,477302,false,false,348,image-keyboard-response,11
true,3,1,1,1,true,z,false,true,0.0-2.0-0.7-0.71-3.71,0,1,0,90,false,stim,false,1,1976,0,0,1,24203,task3,480802,false,false,351,image-keyboard-response,12
true,4,1,2,2,false,d,false,false,0.0-2.0-0.8-0.72-3.72,1,0,1,90,true,stim,true,1,918,0,0,1,24203,task3,483254,false,false,354,image-keyboard-response,1
true,4,0,2,2,false,d,true,false,0.0-2.0-0.8-0.73-3.73,1,0,1,81,false,stim,false,1,797,0,0,1,24203,task3,485581,false,false,357,image-keyboard-response,2
true,4,1,2,2,false,d,true,true,0.0-2.0-0.8-0.74-3.74,1,0,1,90,false,stim,false,2,1192,0,1,2,24203,task3,488297,false,true,360,image-keyboard-response,3
true,4,2,2,2,true,d,false,true,0.0-2.0-0.8-0.75-3.75,1,0,1,68,false,stim,false,1,1017,0,0,1,24203,task3,490832,false,false,363,image-keyboard-response,4
true,4,1,2,2,false,d,true,false,0.0-2.0-0.8-0.76-3.76,1,0,1,90,false,stim,false,2,1596,0,1,2,24203,task3,493951,false,false,366,image-keyboard-response,5
true,4,0,2,0,true,q,false,true,0.0-2.0-0.8-0.77-3.77,1,0,1,81,false,stim,false,0,733,0,1,0,24203,task3,496202,false,false,369,image-keyboard-response,6
true,4,0,2,0,true,q,false,true,0.0-2.0-0.8-0.78-3.78,1,0,1,81,false,stim,false,0,531,0,1,0,24203,task3,498256,false,false,372,image-keyboard-response,7
true,4,0,2,0,true,q,false,false,0.0-2.0-0.8-0.79-3.79,1,0,1,81,false,stim,false,0,811,0,1,0,24203,task3,500587,false,true,375,image-keyboard-response,8
true,4,2,2,2,true,d,false,true,0.0-2.0-0.8-0.80-3.80,1,0,1,68,false,stim,false,2,1075,0,0,2,24203,task3,503181,false,false,378,image-keyboard-response,9
true,4,1,2,0,false,q,true,false,0.0-2.0-0.9-0.81-3.81,1,0,1,90,false,stim,false,0,1300,0,1,0,24203,task3,506005,false,false,381,image-keyboard-response,10
true,4,2,2,2,true,d,false,false,0.0-2.0-0.9-0.82-3.82,1,0,1,68,false,stim,false,2,1145,0,0,2,24203,task3,508681,false,true,384,image-keyboard-response,11
true,4,1,2,2,false,d,true,true,0.0-2.0-0.9-0.83-3.83,1,0,1,90,false,stim,false,2,1017,0,0,2,24203,task3,511234,false,true,387,image-keyboard-response,12
true,4,0,2,2,false,d,true,false,0.0-2.0-0.9-0.84-3.84,1,0,1,81,false,stim,false,1,1172,0,1,1,24203,task3,513947,false,false,390,image-keyboard-response,13
true,5,1,2,0,false,q,true,true,0.0-2.0-0.9-0.85-3.85,1,1,0,90,true,stim,false,0,1079,0,1,0,24203,task3,516555,false,true,393,image-keyboard-response,1
true,5,1,2,1,true,z,false,true,0.0-2.0-0.9-0.86-3.86,1,1,0,90,false,stim,false,2,1697,0,0,2,24203,task3,519782,false,false,396,image-keyboard-response,2
true,5,1,2,0,false,q,true,false,0.0-2.0-0.9-0.87-3.87,1,1,0,90,false,stim,false,0,891,0,1,0,24203,task3,522197,false,false,399,image-keyboard-response,3
true,5,0,2,2,false,d,true,false,0.0-2.0-0.9-0.88-3.88,1,1,0,81,false,stim,false,2,1169,0,1,1,24203,task3,524894,false,false,402,image-keyboard-response,4
true,5,1,2,2,false,d,true,true,0.0-2.0-0.9-0.89-3.89,1,1,0,90,false,stim,false,2,878,0,1,1,24203,task3,527294,false,true,405,image-keyboard-response,5
true,5,0,2,0,true,q,false,true,0.0-2.0-0.10-0.90-3.90,1,1,0,81,false,stim,false,0,1239,0,1,0,24203,task3,530056,false,false,408,image-keyboard-response,6
true,5,1,2,2,false,d,true,false,0.0-2.0-0.10-0.91-3.91,1,1,0,90,false,stim,false,2,999,0,1,1,24203,task3,532583,false,false,411,image-keyboard-response,7
true,5,0,2,0,true,q,false,true,0.0-2.0-0.10-0.92-3.92,1,1,0,81,false,stim,false,0,1007,0,1,0,24203,task3,535133,false,false,414,image-keyboard-response,8
true,5,2,2,0,false,q,true,false,0.0-2.0-0.10-0.93-3.93,1,1,0,68,false,stim,false,0,884,0,1,0,24203,task3,537540,false,false,417,image-keyboard-response,9
true,5,1,2,1,true,z,false,true,0.0-2.0-0.10-0.94-3.94,1,1,0,90,false,stim,false,2,992,0,0,2,24203,task3,540057,false,false,420,image-keyboard-response,10
true,5,1,2,1,true,z,false,false,0.0-2.0-0.10-0.95-3.95,1,1,0,90,false,stim,false,2,850,0,1,2,24203,task3,542435,false,true,423,image-keyboard-response,11
true,5,2,2,2,true,d,false,true,0.0-2.0-0.10-0.96-3.96,1,1,0,68,false,stim,false,2,1487,0,0,1,24203,task3,545431,false,false,426,image-keyboard-response,12
true,5,2,2,2,true,d,false,true,0.0-2.0-0.10-0.97-3.97,1,1,0,68,false,stim,false,2,608,0,0,1,24203,task3,547553,false,false,429,image-keyboard-response,13
true,5,0,2,1,false,z,true,false,0.0-2.0-0.10-0.98-3.98,1,1,0,81,false,stim,false,2,1567,0,1,2,24203,task3,550652,false,false,432,image-keyboard-response,14
true,5,2,2,1,false,z,false,false,0.0-2.0-0.11-0.99-3.99,1,1,0,68,false,stim,true,2,877,0,1,2,24203,task3,553073,false,false,435,image-keyboard-response,15
true,6,2,1,0,false,q,false,false,0.0-2.0-0.11-0.100-3.100,0,0,1,68,true,stim,true,2,2044,0,0,1,24203,task3,556650,false,false,438,image-keyboard-response,1
true,6,0,1,0,true,q,false,true,0.0-2.0-0.11-0.101-3.101,0,0,1,81,false,stim,false,2,682,0,0,1,24203,task3,558867,false,false,441,image-keyboard-response,2
true,6,0,1,1,false,z,true,false,0.0-2.0-0.11-0.102-3.102,0,0,1,81,false,stim,false,1,1523,0,1,2,24203,task3,561918,false,false,444,image-keyboard-response,3
true,6,2,1,1,false,z,true,true,0.0-2.0-0.11-0.103-3.103,0,0,1,68,false,stim,false,1,1096,0,1,2,24203,task3,564537,false,true,447,image-keyboard-response,4
true,6,1,1,1,true,z,false,true,0.0-2.0-0.11-0.104-3.104,0,0,1,90,false,stim,false,0,1126,0,0,0,24203,task3,567192,false,false,450,image-keyboard-response,5
true,6,1,1,1,true,z,false,true,0.0-2.0-0.11-0.105-3.105,0,0,1,90,false,stim,false,0,840,0,0,0,24203,task3,569567,false,false,453,image-keyboard-response,6
true,6,0,1,0,true,q,false,true,0.0-2.0-0.11-0.106-3.106,0,0,1,81,false,stim,false,2,1041,0,0,1,24203,task3,572147,false,false,456,image-keyboard-response,7
true,6,1,1,1,true,z,false,true,0.0-2.0-0.11-0.107-3.107,0,0,1,90,false,stim,false,0,1007,0,0,0,24203,task3,574693,false,false,459,image-keyboard-response,8
true,6,1,1,1,true,z,false,true,0.0-2.0-0.12-0.108-3.108,0,0,1,90,false,stim,false,0,972,0,0,0,24203,task3,577208,false,false,462,image-keyboard-response,9
true,6,1,1,1,true,z,false,true,0.0-2.0-0.12-0.109-3.109,0,0,1,90,false,stim,false,0,991,0,0,0,24203,task3,579717,false,false,465,image-keyboard-response,10
true,6,0,1,0,true,q,false,true,0.0-2.0-0.12-0.110-3.110,0,0,1,81,false,stim,false,2,2909,0,0,1,24203,task3,584154,false,false,468,image-keyboard-response,11
true,6,0,1,0,true,q,false,true,0.0-2.0-0.12-0.111-3.111,0,0,1,81,false,stim,false,2,536,0,0,1,24203,task3,586212,false,false,471,image-keyboard-response,12
true,6,2,1,1,false,z,true,false,0.0-2.0-0.12-0.112-3.112,0,0,1,68,false,stim,false,1,481,0,1,2,24203,task3,588214,false,false,474,image-keyboard-response,13
true,6,1,1,1,true,z,false,true,0.0-2.0-0.12-0.113-3.113,0,0,1,90,false,stim,false,0,1520,0,0,0,24203,task3,591265,false,false,477,image-keyboard-response,14
true,6,0,1,0,true,q,false,true,0.0-2.0-0.12-0.114-3.114,0,0,1,81,false,stim,false,2,752,0,0,1,24203,task3,593536,false,false,480,image-keyboard-response,15
true,6,1,1,1,true,z,false,true,0.0-2.0-0.12-0.115-3.115,0,0,1,90,false,stim,false,1,797,0,1,2,24203,task3,595862,false,false,483,image-keyboard-response,16
true,6,1,1,1,true,z,false,true,0.0-2.0-0.12-0.116-3.116,0,0,1,90,false,stim,false,1,759,0,1,2,24203,task3,598155,false,false,486,image-keyboard-response,17
true,6,0,1,0,true,q,false,true,0.0-2.0-0.13-0.117-3.117,0,0,1,81,false,stim,false,2,1171,0,0,1,24203,task3,600867,false,false,489,image-keyboard-response,18
true,6,1,1,1,true,z,false,true,0.0-2.0-0.13-0.118-3.118,0,0,1,90,false,stim,false,0,1627,0,0,0,24203,task3,604021,false,false,492,image-keyboard-response,19
true,6,1,1,1,true,z,false,true,0.0-2.0-0.13-0.119-3.119,0,0,1,90,false,stim,false,0,516,0,0,0,24203,task3,606061,false,false,495,image-keyboard-response,20
true,6,0,1,1,false,z,true,false,0.0-2.0-0.13-0.120-3.120,0,0,1,81,false,stim,false,1,1009,0,1,2,24203,task3,608585,false,false,498,image-keyboard-response,21
true,6,1,1,1,true,z,false,true,0.0-2.0-0.13-0.121-3.121,0,0,1,90,false,stim,false,1,530,0,1,2,24203,task3,610655,false,false,501,image-keyboard-response,22
true,6,1,1,1,true,z,false,true,0.0-2.0-0.13-0.122-3.122,0,0,1,90,false,stim,false,0,460,0,0,0,24203,task3,612646,false,false,504,image-keyboard-response,23
true,6,1,1,1,true,z,false,true,0.0-2.0-0.13-0.123-3.123,0,0,1,90,false,stim,false,1,480,0,1,2,24203,task3,614646,false,false,507,image-keyboard-response,24
true,6,1,1,0,false,q,true,false,0.0-2.0-0.13-0.124-3.124,0,0,1,90,false,stim,false,2,1192,0,1,1,24203,task3,617358,false,false,510,image-keyboard-response,25
true,6,0,1,0,true,q,false,true,0.0-2.0-0.13-0.125-3.125,0,0,1,81,false,stim,false,2,702,0,1,1,24203,task3,619591,false,false,513,image-keyboard-response,26
true,6,0,1,0,true,q,false,true,0.0-2.0-0.14-0.126-3.126,0,0,1,81,false,stim,false,2,424,0,1,1,24203,task3,621549,false,false,516,image-keyboard-response,27
true,6,1,1,1,true,z,false,false,0.0-2.0-0.14-0.127-3.127,0,0,1,90,false,stim,false,0,793,0,0,0,24203,task3,623880,false,true,519,image-keyboard-response,28
true,6,1,1,1,true,z,false,true,0.0-2.0-0.14-0.128-3.128,0,0,1,90,false,stim,false,1,1099,0,0,2,24203,task3,626516,false,false,522,image-keyboard-response,29
true,7,1,1,0,false,q,false,false,0.0-2.0-0.14-0.129-3.129,0,1,0,90,true,stim,true,1,412,0,0,2,24203,task3,628467,false,false,525,image-keyboard-response,1
true,7,0,1,0,true,q,false,true,0.0-2.0-0.14-0.130-3.130,0,1,0,81,false,stim,false,1,741,0,0,2,24203,task3,630715,false,false,528,image-keyboard-response,2
true,7,0,1,2,false,d,true,false,0.0-2.0-0.14-0.131-3.131,0,1,0,81,false,stim,false,1,1305,0,0,0,24203,task3,633540,false,false,531,image-keyboard-response,3
true,7,0,1,0,true,q,false,true,0.0-2.0-0.14-0.132-3.132,0,1,0,81,false,stim,false,0,837,0,1,1,24203,task3,635913,false,false,534,image-keyboard-response,4
true,7,2,1,2,true,d,false,true,0.0-2.0-0.14-0.133-3.133,0,1,0,68,false,stim,false,1,1113,0,0,0,24203,task3,638540,false,false,537,image-keyboard-response,5
true,7,0,1,0,true,q,false,true,0.0-2.0-0.14-0.134-3.134,0,1,0,81,false,stim,false,0,760,0,1,1,24203,task3,640817,false,false,540,image-keyboard-response,6
true,7,2,1,2,true,d,false,true,0.0-2.0-0.15-0.135-3.135,0,1,0,68,false,stim,false,1,1263,0,0,0,24203,task3,643599,false,false,543,image-keyboard-response,7
true,7,1,1,0,false,q,false,false,0.0-2.0-0.15-0.136-3.136,0,1,0,90,false,stim,true,1,690,0,0,2,24203,task3,645825,false,false,546,image-keyboard-response,8
true,7,0,1,0,true,q,false,true,0.0-2.0-0.15-0.137-3.137,0,1,0,81,false,stim,false,0,738,0,1,1,24203,task3,648092,false,false,549,image-keyboard-response,9
true,7,2,1,0,false,q,true,false,0.0-2.0-0.15-0.138-3.138,0,1,0,68,false,stim,false,1,1701,0,0,2,24203,task3,651315,false,false,552,image-keyboard-response,10
true,7,1,1,0,false,q,true,false,0.0-2.0-0.15-0.139-3.139,0,1,0,90,false,stim,false,0,1053,0,1,1,24203,task3,653907,false,false,555,image-keyboard-response,11
true,7,0,1,0,true,q,false,true,0.0-2.0-0.15-0.140-3.140,0,1,0,81,false,stim,false,0,411,0,1,1,24203,task3,655846,false,false,558,image-keyboard-response,12
true,7,2,1,2,true,d,false,true,0.0-2.0-0.15-0.141-3.141,0,1,0,68,false,stim,false,1,1781,0,0,0,24203,task3,659166,false,false,561,image-keyboard-response,13
true,7,2,1,2,true,d,false,true,0.0-2.0-0.15-0.142-3.142,0,1,0,68,false,stim,false,1,586,0,0,0,24203,task3,661283,false,false,564,image-keyboard-response,14
true,7,0,1,0,true,q,false,true,0.0-2.0-0.15-0.143-3.143,0,1,0,81,false,stim,false,1,834,0,0,2,24203,task3,663639,false,false,567,image-keyboard-response,15
true,7,2,1,2,true,d,false,true,0.0-2.0-0.16-0.144-3.144,0,1,0,68,false,stim,false,1,1002,0,0,0,24203,task3,666168,false,false,570,image-keyboard-response,16
true,7,0,1,0,true,q,false,true,0.0-2.0-0.16-0.145-3.145,0,1,0,81,false,stim,false,1,560,0,0,2,24203,task3,668235,false,false,573,image-keyboard-response,17
true,7,0,1,0,true,q,false,true,0.0-2.0-0.16-0.146-3.146,0,1,0,81,false,stim,false,0,385,0,1,1,24203,task3,670149,false,false,576,image-keyboard-response,18
true,7,0,1,0,true,q,false,true,0.0-2.0-0.16-0.147-3.147,0,1,0,81,false,stim,false,1,809,0,0,2,24203,task3,672484,false,false,579,image-keyboard-response,19
true,7,0,1,0,true,q,false,true,0.0-2.0-0.16-0.148-3.148,0,1,0,81,false,stim,false,1,420,0,0,2,24203,task3,674426,false,false,582,image-keyboard-response,20
true,7,2,1,2,true,d,false,true,0.0-2.0-0.16-0.149-3.149,0,1,0,68,false,stim,false,1,577,0,0,0,24203,task3,676532,false,false,585,image-keyboard-response,21
true,7,0,1,0,true,q,false,true,0.0-2.0-0.16-0.150-3.150,0,1,0,81,false,stim,false,0,450,0,0,1,24203,task3,678505,false,false,588,image-keyboard-response,22
true,7,2,1,2,true,d,false,true,0.0-2.0-0.16-0.151-3.151,0,1,0,68,false,stim,false,1,681,0,1,0,24203,task3,680715,false,false,591,image-keyboard-response,23
true,7,0,1,0,true,q,false,true,0.0-2.0-0.16-0.152-3.152,0,1,0,81,false,stim,false,0,411,0,0,1,24203,task3,682647,false,false,594,image-keyboard-response,24
true,7,0,1,0,true,q,false,false,0.0-2.0-0.17-0.153-3.153,0,1,0,81,false,stim,false,0,511,0,0,1,24203,task3,684685,false,true,597,image-keyboard-response,25
true,7,0,1,0,true,q,false,true,0.0-2.0-0.17-0.154-3.154,0,1,0,81,false,stim,false,1,1068,0,0,2,24203,task3,687282,false,false,600,image-keyboard-response,26
true,8,2,1,2,true,d,false,false,0.0-2.0-0.17-0.155-3.155,1,0,0,68,true,stim,false,2,1227,0,1,0,24203,task3,690049,false,true,603,image-keyboard-response,1
true,8,0,1,2,false,d,false,false,0.0-2.0-0.17-0.156-3.156,1,0,0,81,false,stim,true,0,810,0,0,2,24203,task3,692386,false,false,606,image-keyboard-response,2
true,8,1,1,2,false,d,true,false,0.0-2.0-0.17-0.157-3.157,1,0,0,90,false,stim,false,0,1148,0,0,2,24203,task3,695073,false,false,609,image-keyboard-response,3
true,8,2,1,1,false,z,true,true,0.0-2.0-0.17-0.158-3.158,1,0,0,68,false,stim,false,0,2281,0,0,1,24203,task3,698877,false,true,612,image-keyboard-response,4
true,8,2,1,2,true,d,false,true,0.0-2.0-0.17-0.159-3.159,1,0,0,68,false,stim,false,2,1578,0,1,0,24203,task3,701994,false,false,615,image-keyboard-response,5
true,8,2,1,1,false,z,true,true,0.0-2.0-0.17-0.160-3.160,1,0,0,68,false,stim,false,0,496,0,0,1,24203,task3,704012,false,true,618,image-keyboard-response,6
true,8,2,1,2,true,d,false,true,0.0-2.0-0.17-0.161-3.161,1,0,0,68,false,stim,false,2,403,0,1,0,24203,task3,705937,false,false,621,image-keyboard-response,7
true,8,2,1,1,false,z,true,false,0.0-2.0-0.18-0.162-3.162,1,0,0,68,false,stim,false,0,518,0,1,1,24203,task3,707993,false,false,624,image-keyboard-response,8
true,8,1,1,1,true,z,false,false,0.0-2.0-0.18-0.163-3.163,1,0,0,90,false,stim,false,0,856,0,1,1,24203,task3,710360,false,true,627,image-keyboard-response,9
true,8,2,1,2,true,d,false,true,0.0-2.0-0.18-0.164-3.164,1,0,0,68,false,stim,false,2,1194,0,0,0,24203,task3,713079,false,false,630,image-keyboard-response,10
true,8,1,1,2,false,d,true,false,0.0-2.0-0.18-0.165-3.165,1,0,0,90,false,stim,false,0,1245,0,1,2,24203,task3,715850,false,false,633,image-keyboard-response,11
true,8,2,1,2,true,d,false,true,0.0-2.0-0.18-0.166-3.166,1,0,0,68,false,stim,false,2,786,0,0,0,24203,task3,718151,false,false,636,image-keyboard-response,12
true,9,0,2,1,false,z,true,false,0.0-2.0-0.18-0.167-3.167,0,1,1,81,true,stim,false,1,528,0,1,1,24203,task3,720193,false,false,639,image-keyboard-response,1
true,9,2,2,2,true,d,false,true,0.0-2.0-0.18-0.168-3.168,0,1,1,68,false,stim,false,2,2701,0,1,2,24203,task3,724415,false,false,642,image-keyboard-response,2
true,9,2,2,2,true,d,false,true,0.0-2.0-0.18-0.169-3.169,0,1,1,68,false,stim,false,2,727,0,1,2,24203,task3,726671,false,false,645,image-keyboard-response,3
true,9,2,2,1,false,z,false,false,0.0-2.0-0.18-0.170-3.170,0,1,1,68,false,stim,true,2,471,0,0,0,24203,task3,728667,false,false,648,image-keyboard-response,4
true,9,0,2,1,false,z,true,false,0.0-2.0-0.19-0.171-3.171,0,1,1,81,false,stim,false,1,755,0,1,1,24203,task3,730951,false,false,651,image-keyboard-response,5
true,9,2,2,2,true,d,false,true,0.0-2.0-0.19-0.172-3.172,0,1,1,68,false,stim,false,2,852,0,1,2,24203,task3,733327,false,false,654,image-keyboard-response,6
true,9,2,2,2,true,d,false,true,0.0-2.0-0.19-0.173-3.173,0,1,1,68,false,stim,false,2,582,0,1,2,24203,task3,735437,false,false,657,image-keyboard-response,7
true,9,1,2,1,true,z,false,true,0.0-2.0-0.19-0.174-3.174,0,1,1,90,false,stim,false,2,962,0,1,0,24203,task3,737927,false,false,660,image-keyboard-response,8
true,9,1,2,1,true,z,false,false,0.0-2.0-0.19-0.175-3.175,0,1,1,90,false,stim,false,2,838,0,1,0,24203,task3,740285,false,true,663,image-keyboard-response,9
true,9,2,2,2,true,d,false,true,0.0-2.0-0.19-0.176-3.176,0,1,1,68,false,stim,false,2,799,0,0,2,24203,task3,742615,false,false,666,image-keyboard-response,10
true,9,0,2,1,false,z,true,true,0.0-2.0-0.19-0.177-3.177,0,1,1,81,false,stim,false,2,1062,0,1,0,24203,task3,745197,false,true,669,image-keyboard-response,11
true,9,1,2,1,true,z,false,true,0.0-2.0-0.19-0.178-3.178,0,1,1,90,false,stim,false,1,1010,0,1,1,24203,task3,747736,false,false,672,image-keyboard-response,12
true,10,1,2,1,true,z,false,true,0.0-2.0-0.19-0.179-3.179,1,1,0,90,true,stim,false,1,852,0,1,1,24203,task3,750116,false,false,675,image-keyboard-response,1
true,10,0,2,0,true,q,false,true,0.0-2.0-0.20-0.180-3.180,1,1,0,81,false,stim,false,2,756,0,0,2,24203,task3,752402,false,false,678,image-keyboard-response,2
true,10,1,2,1,true,z,false,false,0.0-2.0-0.20-0.181-3.181,1,1,0,90,false,stim,false,1,810,0,1,1,24203,task3,754737,false,true,681,image-keyboard-response,3
true,10,2,2,1,false,z,true,false,0.0-2.0-0.20-0.182-3.182,1,1,0,68,false,stim,false,1,1431,0,1,0,24203,task3,757695,false,false,684,image-keyboard-response,4
true,10,1,2,1,true,z,false,true,0.0-2.0-0.20-0.183-3.183,1,1,0,90,false,stim,false,1,1346,0,1,1,24203,task3,760561,false,false,687,image-keyboard-response,5
true,10,1,2,1,true,z,false,false,0.0-2.0-0.20-0.184-3.184,1,1,0,90,false,stim,false,1,780,0,1,1,24203,task3,762876,false,true,690,image-keyboard-response,6
true,10,0,2,1,false,z,true,false,0.0-2.0-0.20-0.185-3.185,1,1,0,81,false,stim,false,1,1034,0,1,0,24203,task3,765446,false,false,693,image-keyboard-response,7
true,10,1,2,1,true,z,false,true,0.0-2.0-0.20-0.186-3.186,1,1,0,90,false,stim,false,1,789,0,1,0,24203,task3,767764,false,false,696,image-keyboard-response,8
true,10,0,2,0,true,q,false,true,0.0-2.0-0.20-0.187-3.187,1,1,0,81,false,stim,false,2,843,0,0,2,24203,task3,770138,false,false,699,image-keyboard-response,9
true,10,0,2,0,true,q,false,true,0.0-2.0-0.20-0.188-3.188,1,1,0,81,false,stim,false,2,745,0,0,2,24203,task3,772430,false,false,702,image-keyboard-response,10
true,10,0,2,0,true,q,false,true,0.0-2.0-0.21-0.189-3.189,1,1,0,81,false,stim,false,2,1163,0,1,2,24203,task3,775119,false,false,705,image-keyboard-response,11
true,10,0,2,0,true,q,false,true,0.0-2.0-0.21-0.190-3.190,1,1,0,81,false,stim,false,2,444,0,1,2,24203,task3,777088,false,false,708,image-keyboard-response,12
true,10,1,2,1,true,z,false,true,0.0-2.0-0.21-0.191-3.191,1,1,0,90,false,stim,false,1,589,0,1,0,24203,task3,779206,false,false,711,image-keyboard-response,13
true,10,0,2,0,true,q,false,true,0.0-2.0-0.21-0.192-3.192,1,1,0,81,false,stim,false,2,701,0,1,2,24203,task3,781427,false,false,714,image-keyboard-response,14
true,10,1,2,1,true,z,false,true,0.0-2.0-0.21-0.193-3.193,1,1,0,90,false,stim,false,1,494,0,1,0,24203,task3,783458,false,false,717,image-keyboard-response,15
true,11,2,2,0,false,q,true,true,0.0-2.0-0.21-0.194-3.194,1,0,1,68,true,stim,false,1,1256,0,0,1,24203,task3,786233,false,true,720,image-keyboard-response,1
true,11,1,2,1,true,z,false,true,0.0-2.0-0.21-0.195-3.195,1,0,1,90,false,stim,false,1,790,0,1,0,24203,task3,788556,false,false,723,image-keyboard-response,2
true,11,2,2,0,false,q,true,false,0.0-2.0-0.21-0.196-3.196,1,0,1,68,false,stim,false,1,823,0,0,1,24203,task3,790902,false,false,726,image-keyboard-response,3
true,11,1,2,0,false,q,false,false,0.0-2.0-0.21-0.197-3.197,1,0,1,90,false,stim,true,1,1097,0,0,1,24203,task3,793532,false,false,729,image-keyboard-response,4
true,11,0,2,0,true,q,false,true,0.0-2.0-0.22-0.198-3.198,1,0,1,81,false,stim,false,1,795,0,0,1,24203,task3,795842,false,false,732,image-keyboard-response,5
true,11,0,2,0,true,q,false,true,0.0-2.0-0.22-0.199-3.199,1,0,1,81,false,stim,false,1,792,0,0,1,24203,task3,798159,false,false,735,image-keyboard-response,6
true,11,1,2,0,false,q,true,false,0.0-2.0-0.22-0.200-3.200,1,0,1,90,false,stim,false,0,776,0,1,2,24203,task3,800457,false,false,738,image-keyboard-response,7
true,11,0,2,0,true,q,false,true,0.0-2.0-0.22-0.201-3.201,1,0,1,81,false,stim,false,1,790,0,0,1,24203,task3,802766,false,false,741,image-keyboard-response,8
true,11,1,2,1,true,z,false,true,0.0-2.0-0.22-0.202-3.202,1,0,1,90,false,stim,false,1,1271,0,1,0,24203,task3,805557,false,false,744,image-keyboard-response,9
true,11,0,2,0,true,q,false,true,0.0-2.0-0.22-0.203-3.203,1,0,1,81,false,stim,false,0,1059,0,1,2,24203,task3,808137,false,false,747,image-keyboard-response,10
true,11,1,2,1,true,z,false,true,0.0-2.0-0.22-0.204-3.204,1,0,1,90,false,stim,false,1,607,0,1,0,24203,task3,810285,false,false,750,image-keyboard-response,11
true,11,1,2,1,true,z,false,true,0.0-2.0-0.22-0.205-3.205,1,0,1,90,false,stim,false,1,712,0,1,0,24203,task3,812527,false,false,753,image-keyboard-response,12
true,11,0,2,0,true,q,false,true,0.0-2.0-0.22-0.206-3.206,1,0,1,81,false,stim,false,0,667,0,1,2,24203,task3,814716,false,false,756,image-keyboard-response,13
true,11,0,2,1,false,z,true,false,0.0-2.0-0.23-0.207-3.207,1,0,1,81,false,stim,false,1,375,0,1,0,24203,task3,816620,false,false,759,image-keyboard-response,14
true,11,0,2,0,true,q,false,true,0.0-2.0-0.23-0.208-3.208,1,0,1,81,false,stim,false,1,1223,0,0,1,24203,task3,819353,false,false,762,image-keyboard-response,15
true,11,0,2,0,true,q,false,true,0.0-2.0-0.23-0.209-3.209,1,0,1,81,false,stim,false,1,755,0,0,1,24203,task3,821635,false,false,765,image-keyboard-response,16
true,11,0,2,0,true,q,false,true,0.0-2.0-0.23-0.210-3.210,1,0,1,81,false,stim,false,1,713,0,0,1,24203,task3,823870,false,false,768,image-keyboard-response,17
true,11,0,2,0,true,q,false,true,0.0-2.0-0.23-0.211-3.211,1,0,1,81,false,stim,false,0,728,0,1,2,24203,task3,826125,false,false,771,image-keyboard-response,18
true,11,1,2,1,true,z,false,true,0.0-2.0-0.23-0.212-3.212,1,0,1,90,false,stim,false,1,627,0,1,0,24203,task3,828285,false,false,774,image-keyboard-response,19
true,11,0,2,0,true,q,false,true,0.0-2.0-0.23-0.213-3.213,1,0,1,81,false,stim,false,0,691,0,1,2,24203,task3,830516,false,false,777,image-keyboard-response,20
true,11,0,2,0,true,q,false,true,0.0-2.0-0.23-0.214-3.214,1,0,1,81,false,stim,false,0,651,0,1,2,24203,task3,832697,false,false,780,image-keyboard-response,21
true,11,1,2,1,true,z,false,true,0.0-2.0-0.23-0.215-3.215,1,0,1,90,false,stim,false,1,822,0,1,0,24203,task3,835045,false,false,783,image-keyboard-response,22
true,11,0,2,0,true,q,false,true,0.0-2.0-0.24-0.216-3.216,1,0,1,81,false,stim,false,1,421,0,0,1,24203,task3,836984,false,false,786,image-keyboard-response,23
true,11,0,2,0,true,q,false,true,0.0-2.0-0.24-0.217-3.217,1,0,1,81,false,stim,false,1,348,0,0,1,24203,task3,838853,false,false,789,image-keyboard-response,24
true,11,1,2,1,true,z,false,true,0.0-2.0-0.24-0.218-3.218,1,0,1,90,false,stim,false,1,776,0,1,0,24203,task3,841146,false,false,792,image-keyboard-response,25
true,11,1,2,1,true,z,false,true,0.0-2.0-0.24-0.219-3.219,1,0,1,90,false,stim,false,1,876,0,1,0,24203,task3,843552,false,false,795,image-keyboard-response,26
true,11,0,2,1,false,z,true,false,0.0-2.0-0.24-0.220-3.220,1,0,1,81,false,stim,false,1,371,0,0,0,24203,task3,845468,false,false,798,image-keyboard-response,27
true,11,0,2,0,true,q,false,true,0.0-2.0-0.24-0.221-3.221,1,0,1,81,false,stim,false,0,1946,0,1,2,24203,task3,848959,false,false,801,image-keyboard-response,28
true,11,0,2,0,true,q,false,true,0.0-2.0-0.24-0.222-3.222,1,0,1,81,false,stim,false,1,1324,0,0,1,24203,task3,851812,false,false,804,image-keyboard-response,29
true,11,0,2,0,true,q,false,true,0.0-2.0-0.24-0.223-3.223,1,0,1,81,false,stim,false,0,721,0,1,2,24203,task3,854058,false,false,807,image-keyboard-response,30
true,11,0,2,0,true,q,false,true,0.0-2.0-0.24-0.224-3.224,1,0,1,81,false,stim,false,0,599,0,1,2,24203,task3,856180,false,false,810,image-keyboard-response,31
true,12,0,1,0,true,q,false,true,0.0-2.0-0.25-0.225-3.225,0,0,1,81,true,stim,false,0,456,0,1,2,24203,task3,858157,false,false,813,image-keyboard-response,1
true,12,0,1,0,true,q,false,true,0.0-2.0-0.25-0.226-3.226,0,0,1,81,false,stim,false,0,407,0,1,2,24203,task3,860083,false,false,816,image-keyboard-response,2
true,12,0,1,2,false,d,false,false,0.0-2.0-0.25-0.227-3.227,0,0,1,81,false,stim,true,0,670,0,0,1,24203,task3,862276,false,false,819,image-keyboard-response,3
true,12,2,1,2,true,d,false,true,0.0-2.0-0.25-0.228-3.228,0,0,1,68,false,stim,false,1,1163,0,0,0,24203,task3,864953,false,false,822,image-keyboard-response,4
true,12,2,1,2,true,d,false,true,0.0-2.0-0.25-0.229-3.229,0,0,1,68,false,stim,false,0,1114,0,0,1,24203,task3,867590,false,false,825,image-keyboard-response,5
true,12,2,1,2,true,d,false,true,0.0-2.0-0.25-0.230-3.230,0,0,1,68,false,stim,false,1,664,0,0,0,24203,task3,869783,false,false,828,image-keyboard-response,6
true,12,2,1,2,true,d,false,true,0.0-2.0-0.25-0.231-3.231,0,0,1,68,false,stim,false,0,451,0,0,1,24203,task3,871755,false,false,831,image-keyboard-response,7
true,12,2,1,2,true,d,false,true,0.0-2.0-0.25-0.232-3.232,0,0,1,68,false,stim,false,1,570,0,0,0,24203,task3,873840,false,false,834,image-keyboard-response,8
true,12,0,1,0,true,q,false,true,0.0-2.0-0.25-0.233-3.233,0,0,1,81,false,stim,false,0,837,0,1,2,24203,task3,876212,false,false,837,image-keyboard-response,9
true,12,2,1,2,true,d,false,true,0.0-2.0-0.26-0.234-3.234,0,0,1,68,false,stim,false,0,453,0,0,1,24203,task3,878184,false,false,840,image-keyboard-response,10
true,12,0,1,0,true,q,false,true,0.0-2.0-0.26-0.235-3.235,0,0,1,81,false,stim,false,0,834,0,1,2,24203,task3,880539,false,false,843,image-keyboard-response,11
true,12,0,1,0,true,q,false,true,0.0-2.0-0.26-0.236-3.236,0,0,1,81,false,stim,false,0,938,0,1,2,24203,task3,882999,false,false,846,image-keyboard-response,12
true,12,2,1,2,true,d,false,true,0.0-2.0-0.26-0.237-3.237,0,0,1,68,false,stim,false,0,805,0,0,1,24203,task3,885338,false,false,849,image-keyboard-response,13
true,12,2,1,2,true,d,false,true,0.0-2.0-0.26-0.238-3.238,0,0,1,68,false,stim,false,1,399,0,0,0,24203,task3,887256,false,false,852,image-keyboard-response,14
true,12,2,1,0,false,q,true,true,0.0-2.0-0.26-0.239-3.239,0,0,1,68,false,stim,false,0,1458,0,1,2,24203,task3,890245,false,true,855,image-keyboard-response,15
true,12,0,1,2,false,d,false,false,0.0-2.0-0.26-0.240-3.240,0,0,1,81,false,stim,true,0,1787,0,0,1,24203,task3,893552,false,false,858,image-keyboard-response,16
true,12,0,1,2,false,d,true,false,0.0-2.0-0.26-0.241-3.241,0,0,1,81,false,stim,false,1,773,0,0,0,24203,task3,895853,false,false,861,image-keyboard-response,17
true,12,2,1,2,true,d,false,true,0.0-2.0-0.26-0.242-3.242,0,0,1,68,false,stim,false,1,465,0,0,0,24203,task3,897839,false,false,864,image-keyboard-response,18
true,12,2,1,2,true,d,false,true,0.0-2.0-0.27-0.243-3.243,0,0,1,68,false,stim,false,0,523,0,0,1,24203,task3,899897,false,false,867,image-keyboard-response,19
true,12,2,1,2,true,d,false,true,0.0-2.0-0.27-0.244-3.244,0,0,1,68,false,stim,false,0,574,0,0,1,24203,task3,901999,false,false,870,image-keyboard-response,20
true,12,2,1,2,true,d,false,true,0.0-2.0-0.27-0.245-3.245,0,0,1,68,false,stim,false,0,373,0,0,1,24203,task3,903898,false,false,873,image-keyboard-response,21
true,12,2,1,2,true,d,false,true,0.0-2.0-0.27-0.246-3.246,0,0,1,68,false,stim,false,1,651,0,0,0,24203,task3,906086,false,false,876,image-keyboard-response,22
true,12,2,1,2,true,d,false,true,0.0-2.0-0.27-0.247-3.247,0,0,1,68,false,stim,false,1,365,0,0,0,24203,task3,907971,false,false,879,image-keyboard-response,23
true,12,2,1,0,false,q,true,true,0.0-2.0-0.27-0.248-3.248,0,0,1,68,false,stim,false,0,449,0,1,2,24203,task3,909945,false,true,882,image-keyboard-response,24
true,12,2,1,0,false,q,true,false,0.0-2.0-0.27-0.249-3.249,0,0,1,68,false,stim,false,0,554,0,1,2,24203,task3,912025,false,false,885,image-keyboard-response,25
true,12,0,1,0,true,q,false,true,0.0-2.0-0.27-0.250-3.250,0,0,1,81,false,stim,false,0,1199,0,1,2,24203,task3,914747,false,false,888,image-keyboard-response,26
true,12,2,1,2,true,d,false,true,0.0-2.0-0.27-0.251-3.251,0,0,1,68,false,stim,false,1,1487,0,0,0,24203,task3,917764,false,false,891,image-keyboard-response,27
true,12,0,1,0,true,q,false,true,0.0-2.0-0.28-0.252-3.252,0,0,1,81,false,stim,false,0,1781,0,1,2,24203,task3,921076,false,false,894,image-keyboard-response,28
true,12,2,1,2,true,d,false,true,0.0-2.0-0.28-0.253-3.253,0,0,1,68,false,stim,false,1,519,0,0,0,24203,task3,923118,false,false,897,image-keyboard-response,29
true,12,2,1,2,true,d,false,true,0.0-2.0-0.28-0.254-3.254,0,0,1,68,false,stim,false,1,368,0,0,0,24203,task3,925003,false,false,900,image-keyboard-response,30
true,12,0,1,2,false,d,false,false,0.0-2.0-0.28-0.255-3.255,0,0,1,81,false,stim,true,0,493,0,1,1,24203,task3,927039,false,false,903,image-keyboard-response,31
true,13,2,2,0,false,q,true,false,0.0-2.0-0.28-0.256-3.256,0,1,1,68,true,stim,false,0,782,0,1,2,24203,task3,929358,false,false,906,image-keyboard-response,1
true,13,2,2,1,false,z,false,false,0.0-2.0-0.28-0.257-3.257,0,1,1,68,false,stim,true,2,2045,0,0,0,24203,task3,932922,false,false,909,image-keyboard-response,2
true,13,1,2,0,false,q,true,false,0.0-2.0-0.28-0.258-3.258,0,1,1,90,false,stim,false,0,1022,0,1,2,24203,task3,935457,false,false,912,image-keyboard-response,3
true,13,1,2,2,false,d,true,true,0.0-2.0-0.28-0.259-3.259,0,1,1,90,false,stim,false,2,1324,0,1,1,24203,task3,938299,false,true,915,image-keyboard-response,4
true,13,1,2,2,false,d,true,true,0.0-2.0-0.28-0.260-3.260,0,1,1,90,false,stim,false,2,821,0,1,1,24203,task3,940643,false,true,918,image-keyboard-response,5
true,13,0,2,1,false,z,true,false,0.0-2.0-0.29-0.261-3.261,0,1,1,81,false,stim,false,2,386,0,0,0,24203,task3,942561,false,false,921,image-keyboard-response,6
true,13,1,2,2,false,d,true,false,0.0-2.0-0.29-0.262-3.262,0,1,1,90,false,stim,false,2,795,0,1,1,24203,task3,944892,false,false,924,image-keyboard-response,7
true,13,2,2,2,true,d,false,true,0.0-2.0-0.29-0.263-3.263,0,1,1,68,false,stim,false,2,801,0,1,1,24203,task3,947238,false,false,927,image-keyboard-response,8
true,13,0,2,1,false,z,true,false,0.0-2.0-0.29-0.264-3.264,0,1,1,81,false,stim,false,2,531,0,1,0,24203,task3,949296,false,false,930,image-keyboard-response,9
true,13,2,2,2,true,d,false,false,0.0-2.0-0.29-0.265-3.265,0,1,1,68,false,stim,false,2,991,0,1,1,24203,task3,951826,false,true,933,image-keyboard-response,10
true,13,1,2,0,false,q,true,false,0.0-2.0-0.29-0.266-3.266,0,1,1,90,false,stim,false,0,1748,0,0,2,24203,task3,955094,false,false,936,image-keyboard-response,11
true,14,0,2,1,false,z,false,false,0.0-2.0-0.29-0.267-3.267,1,1,0,81,true,stim,true,0,587,0,0,2,24203,task3,957212,false,false,939,image-keyboard-response,1
true,14,2,2,1,false,z,true,false,0.0-2.0-0.29-0.268-3.268,1,1,0,68,false,stim,false,1,1151,0,1,0,24203,task3,959896,false,false,942,image-keyboard-response,2
true,14,2,2,1,false,z,true,false,0.0-2.0-0.29-0.269-3.269,1,1,0,68,false,stim,false,0,1529,0,0,2,24203,task3,962954,false,false,945,image-keyboard-response,3
true,14,1,2,1,true,z,false,true,0.0-2.0-0.30-0.270-3.270,1,1,0,90,false,stim,false,0,826,0,0,2,24203,task3,965302,false,false,948,image-keyboard-response,4
true,14,1,2,1,true,z,false,true,0.0-2.0-0.30-0.271-3.271,1,1,0,90,false,stim,false,0,780,0,0,2,24203,task3,967615,false,false,951,image-keyboard-response,5
true,14,0,2,1,false,z,true,false,0.0-2.0-0.30-0.272-3.272,1,1,0,81,false,stim,false,1,671,0,1,0,24203,task3,969795,false,false,954,image-keyboard-response,6
true,14,1,2,2,false,d,true,false,0.0-2.0-0.30-0.273-3.273,1,1,0,90,false,stim,false,2,1171,0,1,1,24203,task3,972496,false,false,957,image-keyboard-response,7
true,14,0,2,2,false,d,true,false,0.0-2.0-0.30-0.274-3.274,1,1,0,81,false,stim,false,2,1092,0,1,1,24203,task3,975116,false,false,960,image-keyboard-response,8
true,14,2,2,2,true,d,false,true,0.0-2.0-0.30-0.275-3.275,1,1,0,68,false,stim,false,2,842,0,1,1,24203,task3,977479,false,false,963,image-keyboard-response,9
true,14,1,2,1,true,z,false,true,0.0-2.0-0.30-0.276-3.276,1,1,0,90,false,stim,false,1,996,0,1,0,24203,task3,979997,false,false,966,image-keyboard-response,10
true,14,1,2,1,true,z,false,true,0.0-2.0-0.30-0.277-3.277,1,1,0,90,false,stim,false,1,740,0,0,0,24203,task3,982276,false,false,969,image-keyboard-response,11
true,14,0,2,1,false,z,false,false,0.0-2.0-0.30-0.278-3.278,1,1,0,81,false,stim,true,0,1756,0,1,2,24203,task3,985570,false,false,972,image-keyboard-response,12
true,14,1,2,1,true,z,false,true,0.0-2.0-0.31-0.279-3.279,1,1,0,90,false,stim,false,1,905,0,0,0,24203,task3,988010,false,false,975,image-keyboard-response,13
true,14,2,2,1,false,z,true,false,0.0-2.0-0.31-0.280-3.280,1,1,0,68,false,stim,false,0,735,0,1,2,24203,task3,990280,false,false,978,image-keyboard-response,14
true,14,2,2,2,true,d,false,true,0.0-2.0-0.31-0.281-3.281,1,1,0,68,false,stim,false,2,1181,0,0,1,24203,task3,992975,false,false,981,image-keyboard-response,15
true,15,1,1,2,false,d,false,false,0.0-2.0-0.31-0.282-3.282,0,0,1,90,true,stim,true,1,582,0,0,0,24203,task3,995096,false,false,984,image-keyboard-response,1
true,15,2,1,0,false,q,false,false,0.0-2.0-0.31-0.283-3.283,0,0,1,68,false,stim,true,2,451,0,0,1,24203,task3,997077,false,false,987,image-keyboard-response,2
true,15,0,1,2,false,d,true,false,0.0-2.0-0.31-0.284-3.284,0,0,1,81,false,stim,false,1,1219,0,0,0,24203,task3,999823,false,false,990,image-keyboard-response,3
true,15,2,1,1,false,z,true,false,0.0-2.0-0.31-0.285-3.285,0,0,1,68,false,stim,false,1,779,0,1,2,24203,task3,1002145,false,false,993,image-keyboard-response,4
true,15,1,1,1,true,z,false,true,0.0-2.0-0.31-0.286-3.286,0,0,1,90,false,stim,false,1,1057,0,1,2,24203,task3,1004741,false,false,996,image-keyboard-response,5
true,15,0,1,0,true,q,false,true,0.0-2.0-0.31-0.287-3.287,0,0,1,81,false,stim,false,2,942,0,0,1,24203,task3,1007207,false,false,999,image-keyboard-response,6
true,15,0,1,0,true,q,false,true,0.0-2.0-0.32-0.288-3.288,0,0,1,81,false,stim,false,2,912,0,0,1,24203,task3,1009666,false,false,1002,image-keyboard-response,7
true,15,1,1,1,true,z,false,true,0.0-2.0-0.32-0.289-3.289,0,0,1,90,false,stim,false,1,467,0,1,2,24203,task3,1011673,false,false,1005,image-keyboard-response,8
true,15,2,1,2,true,d,false,true,0.0-2.0-0.32-0.290-3.290,0,0,1,68,false,stim,false,1,1124,0,0,0,24203,task3,1014331,false,false,1008,image-keyboard-response,9
true,15,2,1,2,true,d,false,true,0.0-2.0-0.32-0.291-3.291,0,0,1,68,false,stim,false,1,586,0,0,0,24203,task3,1016463,false,false,1011,image-keyboard-response,10
true,15,1,1,1,true,z,false,true,0.0-2.0-0.32-0.292-3.292,0,0,1,90,false,stim,false,1,651,0,1,2,24203,task3,1018658,false,false,1014,image-keyboard-response,11
true,15,2,1,2,true,d,false,true,0.0-2.0-0.32-0.293-3.293,0,0,1,68,false,stim,false,1,1000,0,0,0,24203,task3,1021186,false,false,1017,image-keyboard-response,12
true,15,1,1,1,true,z,false,true,0.0-2.0-0.32-0.294-3.294,0,0,1,90,false,stim,false,1,667,0,1,2,24203,task3,1023382,false,false,1020,image-keyboard-response,13
true,15,0,1,0,true,q,false,true,0.0-2.0-0.32-0.295-3.295,0,0,1,81,false,stim,false,2,573,0,0,1,24203,task3,1025488,false,false,1023,image-keyboard-response,14
true,15,0,1,0,true,q,false,false,0.0-2.0-0.32-0.296-3.296,0,0,1,81,false,stim,false,2,421,0,0,1,24203,task3,1027429,false,true,1026,image-keyboard-response,15
true,15,2,1,1,false,z,true,false,0.0-2.0-0.33-0.297-3.297,0,0,1,68,false,stim,false,1,736,0,1,2,24203,task3,1029697,false,false,1029,image-keyboard-response,16
true,15,1,1,1,true,z,false,false,0.0-2.0-0.33-0.298-3.298,0,0,1,90,false,stim,false,1,433,0,1,2,24203,task3,1031648,false,true,1032,image-keyboard-response,17
true,15,0,1,0,true,q,false,false,0.0-2.0-0.33-0.299-3.299,0,0,1,81,false,stim,false,2,1521,0,0,1,24203,task3,1034696,false,true,1035,image-keyboard-response,18
true,15,2,1,2,true,d,false,true,0.0-2.0-0.33-0.300-3.300,0,0,1,68,false,stim,false,1,1088,0,0,0,24203,task3,1037324,false,false,1038,image-keyboard-response,19
true,15,2,1,2,true,d,false,true,0.0-2.0-0.33-0.301-3.301,0,0,1,68,false,stim,false,1,583,0,0,0,24203,task3,1039438,false,false,1041,image-keyboard-response,20
true,15,2,1,2,true,d,false,true,0.0-2.0-0.33-0.302-3.302,0,0,1,68,false,stim,false,1,487,0,0,0,24203,task3,1041452,false,false,1044,image-keyboard-response,21
true,15,1,1,0,false,q,true,false,0.0-2.0-0.33-0.303-3.303,0,0,1,90,false,stim,false,2,1717,0,0,1,24203,task3,1044701,false,false,1047,image-keyboard-response,22
true,15,2,1,0,false,q,false,false,0.0-2.0-0.33-0.304-3.304,0,0,1,68,false,stim,true,2,574,0,0,1,24203,task3,1046810,false,false,1050,image-keyboard-response,23
true,15,0,1,1,false,z,true,false,0.0-2.0-0.33-0.305-3.305,0,0,1,81,false,stim,false,1,1437,0,1,2,24203,task3,1049784,false,false,1053,image-keyboard-response,24
true,15,2,1,2,true,d,false,true,0.0-2.0-0.34-0.306-3.306,0,0,1,68,false,stim,false,1,760,0,0,0,24203,task3,1052076,false,false,1056,image-keyboard-response,25
true,15,2,1,1,false,z,true,false,0.0-2.0-0.34-0.307-3.307,0,0,1,68,false,stim,false,1,558,0,0,2,24203,task3,1054164,false,false,1059,image-keyboard-response,26
true,15,2,1,0,false,q,false,false,0.0-2.0-0.34-0.308-3.308,0,0,1,68,false,stim,true,2,562,0,1,1,24203,task3,1056258,false,false,1062,image-keyboard-response,27
true,15,0,1,0,true,q,false,true,0.0-2.0-0.34-0.309-3.309,0,0,1,81,false,stim,false,2,606,0,1,1,24203,task3,1058392,false,false,1065,image-keyboard-response,28
true,15,2,1,2,true,d,false,true,0.0-2.0-0.34-0.310-3.310,0,0,1,68,false,stim,false,1,624,0,0,0,24203,task3,1060530,false,false,1068,image-keyboard-response,29
true,16,1,1,2,false,d,false,false,0.0-2.0-0.34-0.311-3.311,0,1,0,90,true,stim,true,1,1207,0,0,2,24203,task3,1063271,false,false,1071,image-keyboard-response,1
true,16,2,1,2,true,d,false,true,0.0-2.0-0.34-0.312-3.312,0,1,0,68,false,stim,false,1,827,0,0,2,24203,task3,1065623,false,false,1074,image-keyboard-response,2
true,16,0,1,0,true,q,false,false,0.0-2.0-0.34-0.313-3.313,0,1,0,81,false,stim,false,0,485,0,1,1,24203,task3,1067632,false,true,1077,image-keyboard-response,3
true,16,2,1,1,false,z,false,false,0.0-2.0-0.34-0.314-3.314,0,1,0,68,false,stim,true,2,524,0,0,0,24203,task3,1069685,false,false,1080,image-keyboard-response,4
true,16,1,1,0,false,q,true,false,0.0-2.0-0.35-0.315-3.315,0,1,0,90,false,stim,false,0,1232,0,1,1,24203,task3,1072456,false,false,1083,image-keyboard-response,5
true,16,2,1,2,true,d,false,true,0.0-2.0-0.35-0.316-3.316,0,1,0,68,false,stim,false,1,790,0,0,2,24203,task3,1074775,false,false,1086,image-keyboard-response,6
true,16,2,1,2,true,d,false,true,0.0-2.0-0.35-0.317-3.317,0,1,0,68,false,stim,false,1,678,0,0,2,24203,task3,1076982,false,false,1089,image-keyboard-response,7
true,16,1,1,1,true,z,false,true,0.0-2.0-0.35-0.318-3.318,0,1,0,90,false,stim,false,2,952,0,0,0,24203,task3,1079468,false,false,1092,image-keyboard-response,8
true,16,2,1,2,true,d,false,true,0.0-2.0-0.35-0.319-3.319,0,1,0,68,false,stim,false,1,743,0,0,2,24203,task3,1081747,false,false,1095,image-keyboard-response,9
true,16,1,1,0,false,q,true,true,0.0-2.0-0.35-0.320-3.320,0,1,0,90,false,stim,false,0,1059,0,1,1,24203,task3,1084334,false,true,1098,image-keyboard-response,10
true,16,0,1,1,false,z,true,true,0.0-2.0-0.35-0.321-3.321,0,1,0,81,false,stim,false,2,1732,0,0,0,24203,task3,1087604,false,true,1101,image-keyboard-response,11
true,16,1,1,0,false,q,true,false,0.0-2.0-0.35-0.322-3.322,0,1,0,90,false,stim,false,0,1791,0,1,1,24203,task3,1090917,false,false,1104,image-keyboard-response,12
true,16,0,1,1,false,z,true,false,0.0-2.0-0.35-0.323-3.323,0,1,0,81,false,stim,false,2,690,0,0,0,24203,task3,1093146,false,false,1107,image-keyboard-response,13
true,16,2,1,1,false,z,false,false,0.0-2.0-0.36-0.324-3.324,0,1,0,68,false,stim,true,2,1587,0,0,0,24203,task3,1096251,false,false,1110,image-keyboard-response,14
true,16,1,1,2,false,d,false,false,0.0-2.0-0.36-0.325-3.325,0,1,0,90,false,stim,true,1,831,0,0,2,24203,task3,1098615,false,false,1113,image-keyboard-response,15
true,16,1,1,1,true,z,false,true,0.0-2.0-0.36-0.326-3.326,0,1,0,90,false,stim,false,2,500,0,0,0,24203,task3,1100644,false,false,1116,image-keyboard-response,16
true,16,2,1,0,false,q,true,false,0.0-2.0-0.36-0.327-3.327,0,1,0,68,false,stim,false,0,962,0,1,1,24203,task3,1103146,false,false,1119,image-keyboard-response,17
true,16,0,1,1,false,z,true,true,0.0-2.0-0.36-0.328-3.328,0,1,0,81,false,stim,false,2,1135,0,0,0,24203,task3,1105800,false,true,1122,image-keyboard-response,18
true,16,1,1,0,false,q,true,false,0.0-2.0-0.36-0.329-3.329,0,1,0,90,false,stim,false,0,1693,0,1,1,24203,task3,1109029,false,false,1125,image-keyboard-response,19
true,16,0,1,2,false,d,true,false,0.0-2.0-0.36-0.330-3.330,0,1,0,81,false,stim,false,1,1847,0,0,2,24203,task3,1112412,false,false,1128,image-keyboard-response,20
true,16,1,1,0,false,q,true,false,0.0-2.0-0.36-0.331-3.331,0,1,0,90,false,stim,false,0,1040,0,1,1,24203,task3,1114994,false,false,1131,image-keyboard-response,21
true,16,1,1,2,false,d,false,false,0.0-2.0-0.36-0.332-3.332,0,1,0,90,false,stim,true,1,1236,0,0,2,24203,task3,1117771,false,false,1134,image-keyboard-response,22
true,16,0,1,1,false,z,true,false,0.0-2.0-0.37-0.333-3.333,0,1,0,81,false,stim,false,2,946,0,0,0,24203,task3,1120242,false,false,1137,image-keyboard-response,23
true,16,2,1,1,false,z,false,false,0.0-2.0-0.37-0.334-3.334,0,1,0,68,false,stim,true,2,1092,0,0,0,24203,task3,1122866,false,false,1140,image-keyboard-response,24
true,16,1,1,2,false,d,false,false,0.0-2.0-0.37-0.335-3.335,0,1,0,90,false,stim,true,1,1553,0,0,2,24203,task3,1125954,false,false,1143,image-keyboard-response,25
true,16,1,1,1,true,z,false,true,0.0-2.0-0.37-0.336-3.336,0,1,0,90,false,stim,false,2,1119,0,0,0,24203,task3,1128603,false,false,1146,image-keyboard-response,26
true,16,0,1,0,true,q,false,true,0.0-2.0-0.37-0.337-3.337,0,1,0,81,false,stim,false,0,776,0,1,1,24203,task3,1130888,false,false,1149,image-keyboard-response,27
true,16,2,1,2,true,d,false,true,0.0-2.0-0.37-0.338-3.338,0,1,0,68,false,stim,false,1,1486,0,0,2,24203,task3,1133900,false,false,1152,image-keyboard-response,28
true,16,0,1,0,true,q,false,true,0.0-2.0-0.37-0.339-3.339,0,1,0,81,false,stim,false,0,579,0,1,1,24203,task3,1136003,false,false,1155,image-keyboard-response,29
true,17,2,1,1,false,z,false,false,0.0-2.0-0.37-0.340-3.340,0,1,0,68,true,stim,true,2,745,0,0,2,24203,task3,1138290,false,false,1158,image-keyboard-response,1
true,17,0,1,0,true,q,false,false,0.0-2.0-0.37-0.341-3.341,0,1,0,81,false,stim,false,0,621,0,1,1,24203,task3,1140446,false,true,1161,image-keyboard-response,2
true,17,1,1,0,false,q,false,true,0.0-2.0-0.38-0.342-3.342,0,1,0,90,false,stim,true,1,529,0,0,0,24203,task3,1142505,false,true,1164,image-keyboard-response,3
true,17,0,1,1,false,z,true,false,0.0-2.0-0.38-0.343-3.343,0,1,0,81,false,stim,false,2,1845,0,0,2,24203,task3,1145879,false,false,1167,image-keyboard-response,4
true,17,1,1,1,true,z,false,true,0.0-2.0-0.38-0.344-3.344,0,1,0,90,false,stim,false,2,908,0,0,2,24203,task3,1148317,false,false,1170,image-keyboard-response,5
true,17,2,1,0,false,q,true,false,0.0-2.0-0.38-0.345-3.345,0,1,0,68,false,stim,false,0,986,0,1,1,24203,task3,1150824,false,false,1173,image-keyboard-response,6
true,17,1,1,0,false,q,true,true,0.0-2.0-0.38-0.346-3.346,0,1,0,90,false,stim,false,0,521,0,1,1,24203,task3,1152866,false,true,1176,image-keyboard-response,7
true,17,1,1,0,false,q,true,false,0.0-2.0-0.38-0.347-3.347,0,1,0,90,false,stim,false,0,536,0,1,1,24203,task3,1154930,false,false,1179,image-keyboard-response,8
true,17,1,1,0,false,q,false,true,0.0-2.0-0.38-0.348-3.348,0,1,0,90,false,stim,true,1,566,0,0,0,24203,task3,1157024,false,true,1182,image-keyboard-response,9
true,17,1,1,0,false,q,false,false,0.0-2.0-0.38-0.349-3.349,0,1,0,90,false,stim,true,1,524,0,0,0,24203,task3,1159068,false,false,1185,image-keyboard-response,10
true,17,1,1,1,true,z,false,true,0.0-2.0-0.38-0.350-3.350,0,1,0,90,false,stim,false,2,1435,0,0,2,24203,task3,1162039,false,false,1188,image-keyboard-response,11
true,17,2,1,0,false,q,true,false,0.0-2.0-0.39-0.351-3.351,0,1,0,68,false,stim,false,1,1277,0,0,0,24203,task3,1164833,false,false,1191,image-keyboard-response,12
true,17,1,1,1,true,z,false,true,0.0-2.0-0.39-0.352-3.352,0,1,0,90,false,stim,false,2,669,0,0,2,24203,task3,1167034,false,false,1194,image-keyboard-response,13
true,17,0,1,0,true,q,false,true,0.0-2.0-0.39-0.353-3.353,0,1,0,81,false,stim,false,1,669,0,0,0,24203,task3,1169233,false,false,1197,image-keyboard-response,14
true,17,1,1,0,false,q,true,false,0.0-2.0-0.39-0.354-3.354,0,1,0,90,false,stim,false,0,1740,0,1,1,24203,task3,1172505,false,false,1200,image-keyboard-response,15
true,17,0,1,1,false,z,true,false,0.0-2.0-0.39-0.355-3.355,0,1,0,81,false,stim,false,2,862,0,0,2,24203,task3,1174919,false,false,1203,image-keyboard-response,16
true,17,2,1,0,false,q,true,false,0.0-2.0-0.39-0.356-3.356,0,1,0,68,false,stim,false,0,1204,0,1,1,24203,task3,1177659,false,false,1206,image-keyboard-response,17
true,17,1,1,0,false,q,true,false,0.0-2.0-0.39-0.357-3.357,0,1,0,90,false,stim,false,0,910,0,1,1,24203,task3,1180098,false,false,1209,image-keyboard-response,18
true,17,1,1,0,false,q,false,false,0.0-2.0-0.39-0.358-3.358,0,1,0,90,false,stim,true,1,1193,0,0,0,24203,task3,1182809,false,false,1212,image-keyboard-response,19
true,17,0,1,1,false,z,true,false,0.0-2.0-0.39-0.359-3.359,0,1,0,81,false,stim,false,2,602,0,0,2,24203,task3,1184938,false,false,1215,image-keyboard-response,20
true,17,2,1,0,false,q,true,false,0.0-2.0-0.40-0.360-3.360,0,1,0,68,false,stim,false,1,1214,0,0,0,24203,task3,1187669,false,false,1218,image-keyboard-response,21
true,17,2,1,1,false,z,false,false,0.0-2.0-0.40-0.361-3.361,0,1,0,68,false,stim,true,2,1231,0,0,2,24203,task3,1190433,false,false,1221,image-keyboard-response,22
true,17,0,1,0,true,q,false,true,0.0-2.0-0.40-0.362-3.362,0,1,0,81,false,stim,false,0,1739,0,1,1,24203,task3,1193686,false,false,1224,image-keyboard-response,23
true,17,0,1,0,true,q,false,true,0.0-2.0-0.40-0.363-3.363,0,1,0,81,false,stim,false,0,526,0,1,1,24203,task3,1195731,false,false,1227,image-keyboard-response,24
true,17,2,1,1,false,z,false,false,0.0-2.0-0.40-0.364-3.364,0,1,0,68,false,stim,true,2,871,0,0,2,24203,task3,1198147,false,false,1230,image-keyboard-response,25
true,17,1,1,0,false,q,false,false,0.0-2.0-0.40-0.365-3.365,0,1,0,90,false,stim,true,1,625,0,1,0,24203,task3,1200305,false,false,1233,image-keyboard-response,26
true,17,0,1,0,true,q,false,true,0.0-2.0-0.40-0.366-3.366,0,1,0,81,false,stim,false,0,1370,0,1,1,24203,task3,1203204,false,false,1236,image-keyboard-response,27
true,17,0,1,0,true,q,false,true,0.0-2.0-0.40-0.367-3.367,0,1,0,81,false,stim,false,1,1318,0,1,0,24203,task3,1206063,false,false,1239,image-keyboard-response,28
true,17,0,1,1,false,z,true,false,0.0-2.0-0.40-0.368-3.368,0,1,0,81,false,stim,false,2,1273,0,0,2,24203,task3,1208861,false,false,1242,image-keyboard-response,29
true,18,2,2,2,true,d,false,true,0.0-2.0-0.41-0.369-3.369,1,1,0,68,true,stim,false,1,879,0,0,2,24203,task3,1211274,false,false,1245,image-keyboard-response,1
true,18,0,2,0,true,q,false,true,0.0-2.0-0.41-0.370-3.370,1,1,0,81,false,stim,false,0,692,0,1,1,24203,task3,1213498,false,false,1248,image-keyboard-response,2
true,18,0,2,0,true,q,false,true,0.0-2.0-0.41-0.371-3.371,1,1,0,81,false,stim,false,0,452,0,1,1,24203,task3,1215488,false,false,1251,image-keyboard-response,3
true,18,0,2,0,true,q,false,true,0.0-2.0-0.41-0.372-3.372,1,1,0,81,false,stim,false,0,821,0,1,1,24203,task3,1217836,false,false,1254,image-keyboard-response,4
true,18,2,2,2,true,d,false,true,0.0-2.0-0.41-0.373-3.373,1,1,0,68,false,stim,false,1,1378,0,0,2,24203,task3,1220743,false,false,1257,image-keyboard-response,5
true,18,2,2,2,true,d,false,true,0.0-2.0-0.41-0.374-3.374,1,1,0,68,false,stim,false,1,545,0,0,2,24203,task3,1222830,false,false,1260,image-keyboard-response,6
true,18,0,2,0,true,q,false,true,0.0-2.0-0.41-0.375-3.375,1,1,0,81,false,stim,false,0,2064,0,1,0,24203,task3,1226419,false,false,1263,image-keyboard-response,7
true,18,0,2,0,true,q,false,true,0.0-2.0-0.41-0.376-3.376,1,1,0,81,false,stim,false,0,551,0,0,0,24203,task3,1228496,false,false,1266,image-keyboard-response,8
true,18,0,2,0,true,q,false,true,0.0-2.0-0.41-0.377-3.377,1,1,0,81,false,stim,false,0,623,0,0,0,24203,task3,1230636,false,false,1269,image-keyboard-response,9
true,18,0,2,0,true,q,false,true,0.0-2.0-0.42-0.378-3.378,1,1,0,81,false,stim,false,0,606,0,0,0,24203,task3,1232781,false,false,1272,image-keyboard-response,10
true,18,0,2,0,true,q,false,true,0.0-2.0-0.42-0.379-3.379,1,1,0,81,false,stim,false,0,1493,0,1,1,24203,task3,1235797,false,false,1275,image-keyboard-response,11
true,18,0,2,0,true,q,false,true,0.0-2.0-0.42-0.380-3.380,1,1,0,81,false,stim,false,0,553,0,0,0,24203,task3,1237888,false,false,1278,image-keyboard-response,12
true,19,2,2,2,true,d,false,true,0.0-2.0-0.42-0.381-3.381,0,1,1,68,true,stim,false,2,764,0,1,2,24203,task3,1240189,false,false,1281,image-keyboard-response,1
true,19,0,2,0,true,q,false,true,0.0-2.0-0.42-0.382-3.382,0,1,1,81,false,stim,false,0,678,0,1,1,24203,task3,1242404,false,false,1284,image-keyboard-response,2
true,19,2,2,2,true,d,false,true,0.0-2.0-0.42-0.383-3.383,0,1,1,68,false,stim,false,2,721,0,1,2,24203,task3,1244656,false,false,1287,image-keyboard-response,3
true,19,0,2,0,true,q,false,true,0.0-2.0-0.42-0.384-3.384,0,1,1,81,false,stim,false,0,696,0,1,1,24203,task3,1246871,false,false,1290,image-keyboard-response,4
true,19,2,2,2,true,d,false,true,0.0-2.0-0.42-0.385-3.385,0,1,1,68,false,stim,false,2,2267,0,1,2,24203,task3,1250673,false,false,1293,image-keyboard-response,5
true,19,0,2,2,false,d,false,true,0.0-2.0-0.42-0.386-3.386,0,1,1,81,false,stim,true,0,942,0,0,0,24203,task3,1253146,false,true,1296,image-keyboard-response,6
true,19,0,2,2,false,d,false,false,0.0-2.0-0.43-0.387-3.387,0,1,1,81,false,stim,true,0,547,0,0,0,24203,task3,1255219,false,false,1299,image-keyboard-response,7
true,19,2,2,2,true,d,false,true,0.0-2.0-0.43-0.388-3.388,0,1,1,68,false,stim,false,2,726,0,1,2,24203,task3,1257501,false,false,1302,image-keyboard-response,8
true,19,2,2,2,true,d,false,false,0.0-2.0-0.43-0.389-3.389,0,1,1,68,false,stim,false,2,594,0,1,2,24203,task3,1259620,false,true,1305,image-keyboard-response,9
true,19,1,2,2,false,d,true,false,0.0-2.0-0.43-0.390-3.390,0,1,1,90,false,stim,false,0,944,0,0,0,24203,task3,1262089,false,false,1308,image-keyboard-response,10
true,19,0,2,0,true,q,false,true,0.0-2.0-0.43-0.391-3.391,0,1,1,81,false,stim,false,0,819,0,1,1,24203,task3,1264445,false,false,1311,image-keyboard-response,11
true,19,2,2,2,true,d,false,true,0.0-2.0-0.43-0.392-3.392,0,1,1,68,false,stim,false,0,471,0,0,0,24203,task3,1266446,false,false,1314,image-keyboard-response,12
true,19,0,2,0,true,q,false,true,0.0-2.0-0.43-0.393-3.393,0,1,1,81,false,stim,false,0,673,0,1,1,24203,task3,1268658,false,false,1317,image-keyboard-response,13
true,19,1,2,2,false,d,true,false,0.0-2.0-0.43-0.394-3.394,0,1,1,90,false,stim,false,2,903,0,1,2,24203,task3,1271077,false,false,1320,image-keyboard-response,14
true,19,0,2,0,true,q,false,true,0.0-2.0-0.43-0.395-3.395,0,1,1,81,false,stim,false,0,1133,0,1,1,24203,task3,1273728,false,false,1323,image-keyboard-response,15
true,19,0,2,2,false,d,true,false,0.0-2.0-0.44-0.396-3.396,0,1,1,81,false,stim,false,2,818,0,1,2,24203,task3,1276072,false,false,1326,image-keyboard-response,16
true,19,2,2,2,true,d,false,true,0.0-2.0-0.44-0.397-3.397,0,1,1,68,false,stim,false,2,727,0,1,2,24203,task3,1278323,false,false,1329,image-keyboard-response,17
true,19,0,2,0,true,q,false,true,0.0-2.0-0.44-0.398-3.398,0,1,1,81,false,stim,false,0,628,0,1,1,24203,task3,1280485,false,false,1332,image-keyboard-response,18
true,19,1,2,2,false,d,true,false,0.0-2.0-0.44-0.399-3.399,0,1,1,90,false,stim,false,0,1014,0,0,0,24203,task3,1283038,false,false,1335,image-keyboard-response,19
true,19,0,2,0,true,q,false,true,0.0-2.0-0.44-0.400-3.400,0,1,1,81,false,stim,false,0,496,0,1,1,24203,task3,1285067,false,false,1338,image-keyboard-response,20
true,19,2,2,2,true,d,false,false,0.0-2.0-0.44-0.401-3.401,0,1,1,68,false,stim,false,0,402,0,0,0,24203,task3,1286996,false,true,1341,image-keyboard-response,21
true,19,2,2,2,true,d,false,true,0.0-2.0-0.44-0.402-3.402,0,1,1,68,false,stim,false,2,900,0,1,2,24203,task3,1289426,false,false,1344,image-keyboard-response,22
true,19,0,2,2,false,d,false,false,0.0-2.0-0.44-0.403-3.403,0,1,1,81,false,stim,true,0,559,0,0,0,24203,task3,1291515,false,false,1347,image-keyboard-response,23
true,19,0,2,0,true,q,false,true,0.0-2.0-0.44-0.404-3.404,0,1,1,81,false,stim,false,0,427,0,0,1,24203,task3,1293482,false,false,1350,image-keyboard-response,24
true,19,2,2,2,true,d,false,true,0.0-2.0-0.45-0.405-3.405,0,1,1,68,false,stim,false,2,887,0,1,2,24203,task3,1295891,false,false,1353,image-keyboard-response,25
true,19,1,2,2,false,d,true,true,0.0-2.0-0.45-0.406-3.406,0,1,1,90,false,stim,false,0,827,0,0,0,24203,task3,1298253,false,true,1356,image-keyboard-response,26
true,19,0,2,0,true,q,false,true,0.0-2.0-0.45-0.407-3.407,0,1,1,81,false,stim,false,0,518,0,0,1,24203,task3,1300288,false,false,1359,image-keyboard-response,27
true,20,1,1,1,true,z,false,true,0.0-2.0-0.45-0.408-3.408,0,0,1,90,true,stim,false,2,374,0,0,0,24203,task3,1302179,false,false,1362,image-keyboard-response,1
true,20,0,1,2,false,d,false,false,0.0-2.0-0.45-0.409-3.409,0,0,1,81,false,stim,true,0,921,0,0,1,24203,task3,1304626,false,false,1365,image-keyboard-response,2
true,20,1,1,1,true,z,false,true,0.0-2.0-0.45-0.410-3.410,0,0,1,90,false,stim,false,2,610,0,0,0,24203,task3,1306776,false,false,1368,image-keyboard-response,3
true,20,0,1,2,false,d,false,false,0.0-2.0-0.45-0.411-3.411,0,0,1,81,false,stim,true,0,860,0,0,1,24203,task3,1309176,false,false,1371,image-keyboard-response,4
true,20,2,1,2,true,d,false,true,0.0-2.0-0.45-0.412-3.412,0,0,1,68,false,stim,false,2,987,0,1,2,24203,task3,1311704,false,false,1374,image-keyboard-response,5
true,20,2,1,2,true,d,false,true,0.0-2.0-0.45-0.413-3.413,0,0,1,68,false,stim,false,2,803,0,1,2,24203,task3,1314049,false,false,1377,image-keyboard-response,6
true,20,1,1,1,true,z,false,true,0.0-2.0-0.46-0.414-3.414,0,0,1,90,false,stim,false,2,743,0,0,0,24203,task3,1316318,false,false,1380,image-keyboard-response,7
true,20,2,1,2,true,d,false,true,0.0-2.0-0.46-0.415-3.415,0,0,1,68,false,stim,false,2,770,0,1,2,24203,task3,1318624,false,false,1383,image-keyboard-response,8
true,20,2,1,2,true,d,false,true,0.0-2.0-0.46-0.416-3.416,0,0,1,68,false,stim,false,2,979,0,1,2,24203,task3,1321125,false,false,1386,image-keyboard-response,9
true,20,1,1,2,false,d,true,false,0.0-2.0-0.46-0.417-3.417,0,0,1,90,false,stim,false,0,1109,0,0,1,24203,task3,1323775,false,false,1389,image-keyboard-response,10
true,20,2,1,2,true,d,false,true,0.0-2.0-0.46-0.418-3.418,0,0,1,68,false,stim,false,0,1891,0,0,1,24203,task3,1327205,false,false,1392,image-keyboard-response,11
true,20,2,1,2,true,d,false,true,0.0-2.0-0.46-0.419-3.419,0,0,1,68,false,stim,false,0,545,0,0,1,24203,task3,1329289,false,false,1395,image-keyboard-response,12
true,20,1,1,1,true,z,false,true,0.0-2.0-0.46-0.420-3.420,0,0,1,90,false,stim,false,2,2250,0,0,0,24203,task3,1333055,false,false,1398,image-keyboard-response,13
true,20,1,1,1,true,z,false,true,0.0-2.0-0.46-0.421-3.421,0,0,1,90,false,stim,false,2,521,0,0,0,24203,task3,1335134,false,false,1401,image-keyboard-response,14
true,20,2,1,2,true,d,false,true,0.0-2.0-0.46-0.422-3.422,0,0,1,68,false,stim,false,2,1061,0,1,2,24203,task3,1337726,false,false,1404,image-keyboard-response,15
true,20,1,1,1,true,z,false,true,0.0-2.0-0.47-0.423-3.423,0,0,1,90,false,stim,false,2,518,0,0,0,24203,task3,1339775,false,false,1407,image-keyboard-response,16
true,20,2,1,2,true,d,false,true,0.0-2.0-0.47-0.424-3.424,0,0,1,68,false,stim,false,2,504,0,1,2,24203,task3,1341810,false,false,1410,image-keyboard-response,17
true,20,2,1,2,true,d,false,true,0.0-2.0-0.47-0.425-3.425,0,0,1,68,false,stim,false,0,691,0,0,1,24203,task3,1344017,false,false,1413,image-keyboard-response,18
true,20,1,1,1,true,z,false,true,0.0-2.0-0.47-0.426-3.426,0,0,1,90,false,stim,false,2,534,0,0,0,24203,task3,1346069,false,false,1416,image-keyboard-response,19
true,20,2,1,2,true,d,false,true,0.0-2.0-0.47-0.427-3.427,0,0,1,68,false,stim,false,0,501,0,0,1,24203,task3,1348096,false,false,1419,image-keyboard-response,20
true,20,2,1,2,true,d,false,true,0.0-2.0-0.47-0.428-3.428,0,0,1,68,false,stim,false,2,942,0,1,2,24203,task3,1350568,false,false,1422,image-keyboard-response,21
true,20,2,1,2,true,d,false,true,0.0-2.0-0.47-0.429-3.429,0,0,1,68,false,stim,false,2,654,0,1,2,24203,task3,1352741,false,false,1425,image-keyboard-response,22
true,20,2,1,2,true,d,false,true,0.0-2.0-0.47-0.430-3.430,0,0,1,68,false,stim,false,0,1891,0,1,1,24203,task3,1356165,false,false,1428,image-keyboard-response,23
true,20,1,1,1,true,z,false,true,0.0-2.0-0.47-0.431-3.431,0,0,1,90,false,stim,false,2,677,0,0,0,24203,task3,1358372,false,false,1431,image-keyboard-response,24
true,20,2,1,2,true,d,false,true,0.0-2.0-0.48-0.432-3.432,0,0,1,68,false,stim,false,2,589,0,0,2,24203,task3,1360487,false,false,1434,image-keyboard-response,25
true,20,2,1,2,true,d,false,true,0.0-2.0-0.48-0.433-3.433,0,0,1,68,false,stim,false,0,420,0,1,1,24203,task3,1362434,false,false,1437,image-keyboard-response,26
true,20,2,1,2,true,d,false,true,0.0-2.0-0.48-0.434-3.434,0,0,1,68,false,stim,false,2,728,0,0,2,24203,task3,1364683,false,false,1440,image-keyboard-response,27
true,21,1,1,2,false,d,false,false,0.0-2.0-0.48-0.435-3.435,0,1,0,90,true,stim,true,1,494,0,0,0,24203,task3,1366708,false,false,1443,image-keyboard-response,1
true,21,2,1,2,true,d,false,true,0.0-2.0-0.48-0.436-3.436,0,1,0,68,false,stim,false,2,551,0,1,1,24203,task3,1368785,false,false,1446,image-keyboard-response,2
true,21,2,1,2,true,d,false,true,0.0-2.0-0.48-0.437-3.437,0,1,0,68,false,stim,false,1,554,0,0,0,24203,task3,1370858,false,false,1449,image-keyboard-response,3
true,21,2,1,2,true,d,false,true,0.0-2.0-0.48-0.438-3.438,0,1,0,68,false,stim,false,1,371,0,0,0,24203,task3,1372765,false,false,1452,image-keyboard-response,4
true,21,2,1,2,true,d,false,true,0.0-2.0-0.48-0.439-3.439,0,1,0,68,false,stim,false,2,499,0,1,1,24203,task3,1374794,false,false,1455,image-keyboard-response,5
true,21,2,1,1,false,z,false,false,0.0-2.0-0.48-0.440-3.440,0,1,0,68,false,stim,true,2,330,0,0,2,24203,task3,1376664,false,false,1458,image-keyboard-response,6
true,21,2,1,2,true,d,false,false,0.0-2.0-0.49-0.441-3.441,0,1,0,68,false,stim,false,1,679,0,0,0,24203,task3,1378884,false,true,1461,image-keyboard-response,7
true,21,0,1,1,false,z,true,false,0.0-2.0-0.49-0.442-3.442,0,1,0,81,false,stim,false,2,1056,0,0,2,24203,task3,1381471,false,false,1464,image-keyboard-response,8
true,21,1,1,1,true,z,false,true,0.0-2.0-0.49-0.443-3.443,0,1,0,90,false,stim,false,2,668,0,1,2,24203,task3,1383683,false,false,1467,image-keyboard-response,9
true,21,2,1,2,true,d,false,true,0.0-2.0-0.49-0.444-3.444,0,1,0,68,false,stim,false,2,466,0,0,1,24203,task3,1385690,false,false,1470,image-keyboard-response,10
true,21,1,1,2,false,d,false,true,0.0-2.0-0.49-0.445-3.445,0,1,0,90,false,stim,true,1,957,0,1,0,24203,task3,1388174,false,true,1473,image-keyboard-response,11
true,21,2,1,2,true,d,false,true,0.0-2.0-0.49-0.446-3.446,0,1,0,68,false,stim,false,2,857,0,0,1,24203,task3,1390572,false,false,1476,image-keyboard-response,12
true,21,2,1,2,true,d,false,false,0.0-2.0-0.49-0.447-3.447,0,1,0,68,false,stim,false,2,601,0,0,1,24203,task3,1392705,false,true,1479,image-keyboard-response,13
true,22,1,2,2,false,d,true,false,0.0-2.0-0.49-0.448-3.448,1,0,1,90,true,stim,false,2,451,0,1,0,24203,task3,1394686,false,false,1482,image-keyboard-response,1
true,22,1,2,1,true,z,false,false,0.0-2.0-0.49-0.449-3.449,1,0,1,90,false,stim,false,1,684,0,1,2,24203,task3,1396899,false,true,1485,image-keyboard-response,2
true,22,1,2,1,true,z,false,true,0.0-2.0-0.50-0.450-3.450,1,0,1,90,false,stim,false,2,694,0,0,1,24203,task3,1399109,false,false,1488,image-keyboard-response,3
true,22,2,2,1,false,z,true,false,0.0-2.0-0.50-0.451-3.451,1,0,1,68,false,stim,false,1,530,0,1,2,24203,task3,1401164,false,false,1491,image-keyboard-response,4
true,22,2,2,1,false,z,true,false,0.0-2.0-0.50-0.452-3.452,1,0,1,68,false,stim,false,1,742,0,1,2,24203,task3,1403415,false,false,1494,image-keyboard-response,5
true,22,2,2,2,true,d,false,true,0.0-2.0-0.50-0.453-3.453,1,0,1,68,false,stim,false,2,1741,0,1,0,24203,task3,1406679,false,false,1497,image-keyboard-response,6
true,22,1,2,1,true,z,false,true,0.0-2.0-0.50-0.454-3.454,1,0,1,90,false,stim,false,2,895,0,0,1,24203,task3,1409111,false,false,1500,image-keyboard-response,7
true,22,2,2,2,true,d,false,true,0.0-2.0-0.50-0.455-3.455,1,0,1,68,false,stim,false,2,594,0,0,0,24203,task3,1411249,false,false,1503,image-keyboard-response,8
true,22,1,2,1,true,z,false,true,0.0-2.0-0.50-0.456-3.456,1,0,1,90,false,stim,false,2,1070,0,1,1,24203,task3,1413835,false,false,1506,image-keyboard-response,9
true,22,0,2,1,false,z,true,false,0.0-2.0-0.50-0.457-3.457,1,0,1,81,false,stim,false,1,390,0,0,2,24203,task3,1415756,false,false,1509,image-keyboard-response,10
true,22,2,2,2,true,d,false,true,0.0-2.0-0.50-0.458-3.458,1,0,1,68,false,stim,false,2,888,0,0,0,24203,task3,1418184,false,false,1512,image-keyboard-response,11
true,22,1,2,1,true,z,false,true,0.0-2.0-0.51-0.459-3.459,1,0,1,90,false,stim,false,2,393,0,1,1,24203,task3,1420107,false,false,1515,image-keyboard-response,12
true,23,2,1,0,false,q,false,false,0.0-2.0-0.51-0.460-3.460,0,1,0,68,true,stim,true,2,755,0,0,0,24203,task3,1422399,false,false,1518,image-keyboard-response,1
true,23,1,1,0,false,q,true,false,0.0-2.0-0.51-0.461-3.461,0,1,0,90,false,stim,false,2,905,0,0,0,24203,task3,1424830,false,false,1521,image-keyboard-response,2
true,23,2,1,0,false,q,true,false,0.0-2.0-0.51-0.462-3.462,0,1,0,68,false,stim,false,1,1263,0,0,2,24203,task3,1427626,false,false,1524,image-keyboard-response,3
true,23,1,1,0,false,q,false,false,0.0-2.0-0.51-0.463-3.463,0,1,0,90,false,stim,true,1,859,0,0,2,24203,task3,1430014,false,false,1527,image-keyboard-response,4
true,23,0,1,1,false,z,true,false,0.0-2.0-0.51-0.464-3.464,0,1,0,81,false,stim,false,1,987,0,1,1,24203,task3,1432541,false,false,1530,image-keyboard-response,5
true,23,0,1,0,true,q,false,true,0.0-2.0-0.51-0.465-3.465,0,1,0,81,false,stim,false,2,1202,0,0,0,24203,task3,1435262,false,false,1533,image-keyboard-response,6
true,23,2,1,0,false,q,true,false,0.0-2.0-0.51-0.466-3.466,0,1,0,68,false,stim,false,1,996,0,0,2,24203,task3,1437781,false,false,1536,image-keyboard-response,7
true,23,2,1,1,false,z,true,true,0.0-2.0-0.51-0.467-3.467,0,1,0,68,false,stim,false,1,894,0,1,1,24203,task3,1440218,false,true,1539,image-keyboard-response,8
true,23,1,1,0,false,q,false,false,0.0-2.0-0.52-0.468-3.468,0,1,0,90,false,stim,true,1,847,0,0,2,24203,task3,1442602,false,false,1542,image-keyboard-response,9
true,23,2,1,1,false,z,true,false,0.0-2.0-0.52-0.469-3.469,0,1,0,68,false,stim,false,1,1751,0,1,1,24203,task3,1445896,false,false,1545,image-keyboard-response,10
true,23,0,1,0,true,q,false,true,0.0-2.0-0.52-0.470-3.470,0,1,0,81,false,stim,false,1,955,0,0,2,24203,task3,1448380,false,false,1548,image-keyboard-response,11
true,23,0,1,0,true,q,false,true,0.0-2.0-0.52-0.471-3.471,0,1,0,81,false,stim,false,1,413,0,1,2,24203,task3,1450326,false,false,1551,image-keyboard-response,12
true,23,0,1,0,true,q,false,true,0.0-2.0-0.52-0.472-3.472,0,1,0,81,false,stim,false,2,843,0,1,0,24203,task3,1452697,false,false,1554,image-keyboard-response,13
true,23,0,1,0,true,q,false,false,0.0-2.0-0.52-0.473-3.473,0,1,0,81,false,stim,false,2,537,0,1,0,24203,task3,1454772,false,true,1557,image-keyboard-response,14
true,23,2,1,1,false,z,true,false,0.0-2.0-0.52-0.474-3.474,0,1,0,68,false,stim,false,1,658,0,0,1,24203,task3,1456962,false,false,1560,image-keyboard-response,15
true,23,1,1,0,false,q,true,false,0.0-2.0-0.52-0.475-3.475,0,1,0,90,false,stim,false,2,1211,0,1,0,24203,task3,1459695,false,false,1563,image-keyboard-response,16
true,24,1,2,2,false,d,false,true,0.0-2.0-0.52-0.476-3.476,1,0,1,90,true,stim,true,1,1780,0,0,1,24203,task3,1463015,false,true,1566,image-keyboard-response,1
true,24,1,2,0,false,q,true,false,0.0-2.0-0.53-0.477-3.477,1,0,1,90,false,stim,false,0,864,0,1,0,24203,task3,1465409,false,false,1569,image-keyboard-response,2
true,24,0,2,0,true,q,false,true,0.0-2.0-0.53-0.478-3.478,1,0,1,81,false,stim,false,0,992,0,1,2,24203,task3,1467926,false,false,1572,image-keyboard-response,3
true,24,2,2,0,false,q,true,false,0.0-2.0-0.53-0.479-3.479,1,0,1,68,false,stim,false,0,822,0,1,0,24203,task3,1470266,false,false,1575,image-keyboard-response,4
true,24,1,2,0,false,q,true,false,0.0-2.0-0.53-0.480-3.480,1,0,1,90,false,stim,false,0,1657,0,1,2,24203,task3,1473451,false,false,1578,image-keyboard-response,5
true,24,0,2,2,false,d,true,false,0.0-2.0-0.53-0.481-3.481,1,0,1,81,false,stim,false,1,1034,0,0,1,24203,task3,1476018,false,false,1581,image-keyboard-response,6
true,24,1,2,2,false,d,false,false,0.0-2.0-0.53-0.482-3.482,1,0,1,90,false,stim,true,1,966,0,0,1,24203,task3,1478510,false,false,1584,image-keyboard-response,7
true,24,0,2,0,true,q,false,true,0.0-2.0-0.53-0.483-3.483,1,0,1,81,false,stim,false,0,1846,0,1,0,24203,task3,1481897,false,false,1587,image-keyboard-response,8
true,24,2,2,0,false,q,true,false,0.0-2.0-0.53-0.484-3.484,1,0,1,68,false,stim,false,0,1157,0,1,2,24203,task3,1484594,false,false,1590,image-keyboard-response,9
true,24,1,2,2,false,d,false,true,0.0-2.0-0.53-0.485-3.485,1,0,1,90,false,stim,true,1,1087,0,0,1,24203,task3,1487212,false,true,1593,image-keyboard-response,10
true,24,0,2,0,true,q,false,true,0.0-2.0-0.54-0.486-3.486,1,0,1,81,false,stim,false,0,1867,0,1,2,24203,task3,1490602,false,false,1596,image-keyboard-response,11
true,24,1,2,2,false,d,false,false,0.0-2.0-0.54-0.487-3.487,1,0,1,90,false,stim,true,1,694,0,1,1,24203,task3,1492829,false,false,1599,image-keyboard-response,12
true,24,0,2,0,true,q,false,true,0.0-2.0-0.54-0.488-3.488,1,0,1,81,false,stim,false,0,662,0,1,0,24203,task3,1495035,false,false,1602,image-keyboard-response,13
true,24,0,2,0,true,q,false,true,0.0-2.0-0.54-0.489-3.489,1,0,1,81,false,stim,false,0,489,0,1,0,24203,task3,1497052,false,false,1605,image-keyboard-response,14
true,24,0,2,0,true,q,false,true,0.0-2.0-0.54-0.490-3.490,1,0,1,81,false,stim,false,0,770,0,1,0,24203,task3,1499365,false,false,1608,image-keyboard-response,15
true,24,2,2,2,true,d,false,true,0.0-2.0-0.54-0.491-3.491,1,0,1,68,false,stim,false,1,874,0,1,1,24203,task3,1501772,false,false,1611,image-keyboard-response,16
true,25,0,2,2,false,d,false,false,0.0-2.0-0.54-0.492-3.492,1,1,0,81,true,stim,true,0,506,0,0,2,24203,task3,1503814,false,false,1614,image-keyboard-response,1
true,25,2,2,2,true,d,false,true,0.0-2.0-0.54-0.493-3.493,1,1,0,68,false,stim,false,2,578,0,1,1,24203,task3,1505923,false,false,1617,image-keyboard-response,2
true,25,2,2,2,true,d,false,true,0.0-2.0-0.54-0.494-3.494,1,1,0,68,false,stim,false,0,1421,0,0,2,24203,task3,1508884,false,false,1620,image-keyboard-response,3
true,25,2,2,2,true,d,false,true,0.0-2.0-0.55-0.495-3.495,1,1,0,68,false,stim,false,0,696,0,0,2,24203,task3,1511097,false,false,1623,image-keyboard-response,4
true,25,2,2,2,true,d,false,true,0.0-2.0-0.55-0.496-3.496,1,1,0,68,false,stim,false,2,1745,0,1,1,24203,task3,1514368,false,false,1626,image-keyboard-response,5
true,25,2,2,2,true,d,false,true,0.0-2.0-0.55-0.497-3.497,1,1,0,68,false,stim,false,0,664,0,0,2,24203,task3,1516547,false,false,1629,image-keyboard-response,6
true,25,2,2,2,true,d,false,true,0.0-2.0-0.55-0.498-3.498,1,1,0,68,false,stim,false,2,457,0,1,1,24203,task3,1518531,false,false,1632,image-keyboard-response,7
true,25,0,2,0,true,q,false,true,0.0-2.0-0.55-0.499-3.499,1,1,0,81,false,stim,false,0,453,0,1,0,24203,task3,1520516,false,false,1635,image-keyboard-response,8
true,25,0,2,0,true,q,false,true,0.0-2.0-0.55-0.500-3.500,1,1,0,81,false,stim,false,0,508,0,1,0,24203,task3,1522559,false,false,1638,image-keyboard-response,9
true,25,0,2,0,true,q,false,true,0.0-2.0-0.55-0.501-3.501,1,1,0,81,false,stim,false,0,597,0,1,0,24203,task3,1524692,false,false,1641,image-keyboard-response,10
true,25,0,2,2,false,d,false,false,0.0-2.0-0.55-0.502-3.502,1,1,0,81,false,stim,true,0,338,0,1,2,24203,task3,1526565,false,false,1644,image-keyboard-response,11
true,25,2,2,2,true,d,false,true,0.0-2.0-0.55-0.503-3.503,1,1,0,68,false,stim,false,2,600,0,1,1,24203,task3,1528695,false,false,1647,image-keyboard-response,12
true,26,1,0,2,false,d,true,false,0.0-2.0-0.56-0.504-3.504,1,1,1,90,true,stim,false,2,2971,0,1,2,24203,task3,1574795,false,false,1692,image-keyboard-response,1
true,26,2,0,2,true,d,false,true,0.0-2.0-0.56-0.505-3.505,1,1,1,68,false,stim,false,2,370,0,1,2,24203,task3,1576685,false,false,1695,image-keyboard-response,2
true,26,0,0,0,true,q,false,true,0.0-2.0-0.56-0.506-3.506,1,1,1,81,false,stim,false,0,1095,0,1,0,24203,task3,1579310,false,false,1698,image-keyboard-response,3
true,26,0,0,0,true,q,false,true,0.0-2.0-0.56-0.507-3.507,1,1,1,81,false,stim,false,0,426,0,1,0,24203,task3,1581295,false,false,1701,image-keyboard-response,4
true,26,2,0,2,true,d,false,true,0.0-2.0-0.56-0.508-3.508,1,1,1,68,false,stim,false,2,568,0,1,1,24203,task3,1583394,false,false,1704,image-keyboard-response,5
true,26,2,0,2,true,d,false,true,0.0-2.0-0.56-0.509-3.509,1,1,1,68,false,stim,false,2,549,0,1,2,24203,task3,1585475,false,false,1707,image-keyboard-response,6
true,26,0,0,0,true,q,false,true,0.0-2.0-0.56-0.510-3.510,1,1,1,81,false,stim,false,0,558,0,1,0,24203,task3,1587564,false,false,1710,image-keyboard-response,7
true,26,2,0,2,true,d,false,true,0.0-2.0-0.56-0.511-3.511,1,1,1,68,false,stim,false,2,487,0,1,1,24203,task3,1589573,false,false,1713,image-keyboard-response,8
true,26,2,0,2,true,d,false,true,0.0-2.0-0.56-0.512-3.512,1,1,1,68,false,stim,false,2,730,0,0,1,24203,task3,1591835,false,false,1716,image-keyboard-response,9
true,26,0,0,0,true,q,false,true,0.0-2.0-0.57-0.513-3.513,1,1,1,81,false,stim,false,0,782,0,1,0,24203,task3,1594147,false,false,1719,image-keyboard-response,10
true,26,0,0,0,true,q,false,true,0.0-2.0-0.57-0.514-3.514,1,1,1,81,false,stim,false,0,492,0,1,0,24203,task3,1596156,false,false,1722,image-keyboard-response,11
true,26,2,0,2,true,d,false,true,0.0-2.0-0.57-0.515-3.515,1,1,1,68,false,stim,false,2,656,0,1,2,24203,task3,1598351,false,false,1725,image-keyboard-response,12
true,26,2,0,2,true,d,false,true,0.0-2.0-0.57-0.516-3.516,1,1,1,68,false,stim,false,2,1481,0,0,1,24203,task3,1601357,false,false,1728,image-keyboard-response,13
true,27,0,2,0,true,q,false,true,0.0-2.0-0.57-0.517-3.517,1,0,1,81,true,stim,false,0,562,0,1,0,24203,task3,1603448,false,false,1731,image-keyboard-response,1
true,27,2,2,2,true,d,false,true,0.0-2.0-0.57-0.518-3.518,1,0,1,68,false,stim,false,2,573,0,1,2,24203,task3,1605548,false,false,1734,image-keyboard-response,2
true,27,2,2,1,false,z,false,false,0.0-2.0-0.57-0.519-3.519,1,0,1,68,false,stim,true,2,1227,0,0,1,24203,task3,1608294,false,false,1737,image-keyboard-response,3
true,27,2,2,2,true,d,false,true,0.0-2.0-0.57-0.520-3.520,1,0,1,68,false,stim,false,2,972,0,1,2,24203,task3,1610798,false,false,1740,image-keyboard-response,4
true,27,1,2,1,true,z,false,true,0.0-2.0-0.57-0.521-3.521,1,0,1,90,false,stim,false,2,800,0,0,1,24203,task3,1613116,false,false,1743,image-keyboard-response,5
true,27,1,2,1,true,z,false,true,0.0-2.0-0.58-0.522-3.522,1,0,1,90,false,stim,false,2,1006,0,0,1,24203,task3,1615650,false,false,1746,image-keyboard-response,6
true,27,2,2,2,true,d,false,true,0.0-2.0-0.58-0.523-3.523,1,0,1,68,false,stim,false,2,451,0,0,2,24203,task3,1617635,false,false,1749,image-keyboard-response,7
true,27,0,2,0,true,q,false,true,0.0-2.0-0.58-0.524-3.524,1,0,1,81,false,stim,false,0,633,0,1,0,24203,task3,1619788,false,false,1752,image-keyboard-response,8
true,27,0,2,0,true,q,false,true,0.0-2.0-0.58-0.525-3.525,1,0,1,81,false,stim,false,0,504,0,1,0,24203,task3,1621819,false,false,1755,image-keyboard-response,9
true,27,1,2,1,true,z,false,true,0.0-2.0-0.58-0.526-3.526,1,0,1,90,false,stim,false,2,810,0,1,1,24203,task3,1624165,false,false,1758,image-keyboard-response,10
true,27,2,2,2,true,d,false,true,0.0-2.0-0.58-0.527-3.527,1,0,1,68,false,stim,false,2,706,0,0,2,24203,task3,1626401,false,false,1761,image-keyboard-response,11
true,28,0,2,0,true,q,false,true,0.0-2.0-0.58-0.528-3.528,1,1,0,81,true,stim,false,0,1552,0,1,0,24203,task3,1629496,false,false,1764,image-keyboard-response,1
true,28,1,2,1,true,z,false,true,0.0-2.0-0.58-0.529-3.529,1,1,0,90,false,stim,false,1,730,0,1,1,24203,task3,1631764,false,false,1767,image-keyboard-response,2
true,28,2,2,1,false,z,false,false,0.0-2.0-0.58-0.530-3.530,1,1,0,68,false,stim,true,2,758,0,0,2,24203,task3,1634063,false,false,1770,image-keyboard-response,3
true,28,1,2,1,true,z,false,true,0.0-2.0-0.59-0.531-3.531,1,1,0,90,false,stim,false,1,1018,0,1,1,24203,task3,1636605,false,false,1773,image-keyboard-response,4
true,28,1,2,1,true,z,false,true,0.0-2.0-0.59-0.532-3.532,1,1,0,90,false,stim,false,2,569,0,0,2,24203,task3,1638695,false,false,1776,image-keyboard-response,5
true,28,0,2,0,true,q,false,true,0.0-2.0-0.59-0.533-3.533,1,1,0,81,false,stim,false,0,579,0,1,0,24203,task3,1640804,false,false,1779,image-keyboard-response,6
true,28,1,2,1,true,z,false,true,0.0-2.0-0.59-0.534-3.534,1,1,0,90,false,stim,false,2,461,0,0,2,24203,task3,1642793,false,false,1782,image-keyboard-response,7
true,28,0,2,0,true,q,false,true,0.0-2.0-0.59-0.535-3.535,1,1,0,81,false,stim,false,0,660,0,1,0,24203,task3,1644997,false,false,1785,image-keyboard-response,8
true,28,0,2,0,true,q,false,true,0.0-2.0-0.59-0.536-3.536,1,1,0,81,false,stim,false,0,516,0,1,0,24203,task3,1647030,false,false,1788,image-keyboard-response,9
true,28,1,2,1,true,z,false,true,0.0-2.0-0.59-0.537-3.537,1,1,0,90,false,stim,false,1,376,0,1,1,24203,task3,1648940,false,false,1791,image-keyboard-response,10
true,28,1,2,1,true,z,false,true,0.0-2.0-0.59-0.538-3.538,1,1,0,90,false,stim,false,2,1106,0,1,2,24203,task3,1651587,false,false,1794,image-keyboard-response,11
true,28,1,2,1,true,z,false,true,0.0-2.0-0.59-0.539-3.539,1,1,0,90,false,stim,false,1,605,0,0,1,24203,task3,1653719,false,false,1797,image-keyboard-response,12
true,28,0,2,0,true,q,false,true,0.0-2.0-0.60-0.540-3.540,1,1,0,81,false,stim,false,0,612,0,1,0,24203,task3,1655856,false,false,1800,image-keyboard-response,13
true,28,0,2,0,true,q,false,true,0.0-2.0-0.60-0.541-3.541,1,1,0,81,false,stim,false,0,635,0,1,0,24203,task3,1658060,false,false,1803,image-keyboard-response,14
true,28,1,2,1,true,z,false,true,0.0-2.0-0.60-0.542-3.542,1,1,0,90,false,stim,false,1,504,0,0,1,24203,task3,1660112,false,false,1806,image-keyboard-response,15
true,29,1,2,2,false,d,false,false,0.0-2.0-0.60-0.543-3.543,1,0,1,90,true,stim,true,1,759,0,0,1,24203,task3,1662414,false,false,1809,image-keyboard-response,1
true,29,1,2,1,true,z,false,true,0.0-2.0-0.60-0.544-3.544,1,0,1,90,false,stim,false,1,894,0,1,2,24203,task3,1664832,false,false,1812,image-keyboard-response,2
true,29,0,2,0,true,q,false,true,0.0-2.0-0.60-0.545-3.545,1,0,1,81,false,stim,false,0,626,0,1,0,24203,task3,1666991,false,false,1815,image-keyboard-response,3
true,29,1,2,1,true,z,false,true,0.0-2.0-0.60-0.546-3.546,1,0,1,90,false,stim,false,1,996,0,1,2,24203,task3,1669530,false,false,1818,image-keyboard-response,4
true,29,1,2,1,true,z,false,true,0.0-2.0-0.60-0.547-3.547,1,0,1,90,false,stim,false,1,783,0,1,2,24203,task3,1671838,false,false,1821,image-keyboard-response,5
true,29,2,2,2,true,d,false,true,0.0-2.0-0.60-0.548-3.548,1,0,1,68,false,stim,false,1,556,0,0,1,24203,task3,1673909,false,false,1824,image-keyboard-response,6
true,29,2,2,2,true,d,false,true,0.0-2.0-0.61-0.549-3.549,1,0,1,68,false,stim,false,1,538,0,0,1,24203,task3,1675981,false,false,1827,image-keyboard-response,7
true,29,1,2,1,true,z,false,true,0.0-2.0-0.61-0.550-3.550,1,0,1,90,false,stim,false,1,805,0,1,2,24203,task3,1678320,false,false,1830,image-keyboard-response,8
true,29,0,2,0,true,q,false,true,0.0-2.0-0.61-0.551-3.551,1,0,1,81,false,stim,false,0,499,0,1,0,24203,task3,1680353,false,false,1833,image-keyboard-response,9
true,29,0,2,0,true,q,false,true,0.0-2.0-0.61-0.552-3.552,1,0,1,81,false,stim,false,0,482,0,1,0,24203,task3,1682375,false,false,1836,image-keyboard-response,10
true,29,2,2,2,true,d,false,true,0.0-2.0-0.61-0.553-3.553,1,0,1,68,false,stim,false,1,880,0,0,1,24203,task3,1684795,false,false,1839,image-keyboard-response,11
true,29,2,2,2,true,d,false,true,0.0-2.0-0.61-0.554-3.554,1,0,1,68,false,stim,false,1,751,0,0,1,24203,task3,1687075,false,false,1842,image-keyboard-response,12
true,29,0,2,0,true,q,false,true,0.0-2.0-0.61-0.555-3.555,1,0,1,81,false,stim,false,0,624,0,1,0,24203,task3,1689237,false,false,1845,image-keyboard-response,13
true,29,1,2,1,true,z,false,true,0.0-2.0-0.61-0.556-3.556,1,0,1,90,false,stim,false,1,1008,0,1,2,24203,task3,1691762,false,false,1848,image-keyboard-response,14
true,29,1,2,1,true,z,false,true,0.0-2.0-0.61-0.557-3.557,1,0,1,90,false,stim,false,1,894,0,1,2,24203,task3,1694189,false,false,1851,image-keyboard-response,15
true,29,1,2,1,true,z,false,true,0.0-2.0-0.62-0.558-3.558,1,0,1,90,false,stim,false,1,835,0,1,2,24203,task3,1696549,false,false,1854,image-keyboard-response,16
true,29,2,2,2,true,d,false,true,0.0-2.0-0.62-0.559-3.559,1,0,1,68,false,stim,false,1,1132,0,0,1,24203,task3,1699219,false,false,1857,image-keyboard-response,17
true,29,0,2,0,true,q,false,true,0.0-2.0-0.62-0.560-3.560,1,0,1,81,false,stim,false,0,399,0,1,0,24203,task3,1701154,false,false,1860,image-keyboard-response,18
true,29,1,2,1,true,z,false,true,0.0-2.0-0.62-0.561-3.561,1,0,1,90,false,stim,false,1,948,0,1,2,24203,task3,1703625,false,false,1863,image-keyboard-response,19
true,29,2,2,2,true,d,false,true,0.0-2.0-0.62-0.562-3.562,1,0,1,68,false,stim,false,1,813,0,0,1,24203,task3,1705958,false,false,1866,image-keyboard-response,20
true,29,2,2,2,true,d,false,true,0.0-2.0-0.62-0.563-3.563,1,0,1,68,false,stim,false,1,855,0,0,1,24203,task3,1708351,false,false,1869,image-keyboard-response,21
true,29,1,2,1,true,z,false,true,0.0-2.0-0.62-0.564-3.564,1,0,1,90,false,stim,false,1,812,0,1,2,24203,task3,1710697,false,false,1872,image-keyboard-response,22
true,29,0,2,0,true,q,false,true,0.0-2.0-0.62-0.565-3.565,1,0,1,81,false,stim,false,0,641,0,1,0,24203,task3,1712856,false,false,1875,image-keyboard-response,23
true,29,0,2,0,true,q,false,false,0.0-2.0-0.62-0.566-3.566,1,0,1,81,false,stim,false,0,426,0,1,0,24203,task3,1714819,false,true,1878,image-keyboard-response,24
true,29,1,2,0,false,q,true,false,0.0-2.0-0.63-0.567-3.567,1,0,1,90,false,stim,false,0,743,0,0,0,24203,task3,1717098,false,false,1881,image-keyboard-response,25
true,29,2,2,0,false,q,true,false,0.0-2.0-0.63-0.568-3.568,1,0,1,68,false,stim,false,0,459,0,0,0,24203,task3,1719077,false,false,1884,image-keyboard-response,26
true,29,1,2,2,false,d,false,false,0.0-2.0-0.63-0.569-3.569,1,0,1,90,false,stim,true,1,1138,0,0,1,24203,task3,1721738,false,false,1887,image-keyboard-response,27
true,29,1,2,1,true,z,false,true,0.0-2.0-0.63-0.570-3.570,1,0,1,90,false,stim,false,1,924,0,1,2,24203,task3,1724199,false,false,1890,image-keyboard-response,28
true,29,1,2,1,true,z,false,false,0.0-2.0-0.63-0.571-3.571,1,0,1,90,false,stim,false,1,749,0,1,2,24203,task3,1726462,false,true,1893,image-keyboard-response,29
true,30,2,1,1,false,z,true,false,0.0-2.0-0.63-0.572-3.572,0,0,1,68,true,stim,false,1,950,0,1,2,24203,task3,1728946,false,false,1896,image-keyboard-response,1
true,30,2,1,0,false,q,false,true,0.0-2.0-0.63-0.573-3.573,0,0,1,68,false,stim,true,2,1560,0,0,1,24203,task3,1732036,false,true,1899,image-keyboard-response,2
true,30,2,1,0,false,q,false,false,0.0-2.0-0.63-0.574-3.574,0,0,1,68,false,stim,true,2,906,0,0,1,24203,task3,1734501,false,false,1902,image-keyboard-response,3
true,30,0,1,1,false,z,false,false,0.0-2.0-0.63-0.575-3.575,0,0,1,81,false,stim,true,0,856,0,0,0,24203,task3,1736890,false,false,1905,image-keyboard-response,4
true,30,1,1,0,false,q,true,false,0.0-2.0-0.64-0.576-3.576,0,0,1,90,false,stim,false,2,877,0,0,1,24203,task3,1739293,false,false,1908,image-keyboard-response,5
true,30,0,1,1,false,z,true,false,0.0-2.0-0.64-0.577-3.577,0,0,1,81,false,stim,false,1,1289,0,1,2,24203,task3,1742115,false,false,1911,image-keyboard-response,6
true,30,2,1,1,false,z,true,false,0.0-2.0-0.64-0.578-3.578,0,0,1,68,false,stim,false,0,1061,0,0,0,24203,task3,1744707,false,false,1914,image-keyboard-response,7
true,30,1,1,1,true,z,false,true,0.0-2.0-0.64-0.579-3.579,0,0,1,90,false,stim,false,1,1250,0,1,2,24203,task3,1747485,false,false,1917,image-keyboard-response,8
true,30,2,1,0,false,q,false,false,0.0-2.0-0.64-0.580-3.580,0,0,1,68,false,stim,true,2,936,0,0,1,24203,task3,1749950,false,false,1920,image-keyboard-response,9
true,30,1,1,1,true,z,false,true,0.0-2.0-0.64-0.581-3.581,0,0,1,90,false,stim,false,1,587,0,1,2,24203,task3,1752071,false,false,1923,image-keyboard-response,10
true,30,1,1,1,true,z,false,false,0.0-2.0-0.64-0.582-3.582,0,0,1,90,false,stim,false,0,1130,0,0,0,24203,task3,1754735,false,true,1926,image-keyboard-response,11
true,30,1,1,0,false,q,true,false,0.0-2.0-0.64-0.583-3.583,0,0,1,90,false,stim,false,2,712,0,0,1,24203,task3,1756965,false,false,1929,image-keyboard-response,12
true,30,2,1,1,false,z,true,false,0.0-2.0-0.64-0.584-3.584,0,0,1,68,false,stim,false,0,1265,0,0,0,24203,task3,1759769,false,false,1932,image-keyboard-response,13
true,30,2,1,1,false,z,true,false,0.0-2.0-0.65-0.585-3.585,0,0,1,68,false,stim,false,1,1146,0,1,2,24203,task3,1762440,false,false,1935,image-keyboard-response,14
true,30,0,1,1,false,z,false,false,0.0-2.0-0.65-0.586-3.586,0,0,1,81,false,stim,true,0,1257,0,0,0,24203,task3,1765230,false,false,1938,image-keyboard-response,15
true,30,0,1,1,false,z,false,false,0.0-2.0-0.65-0.587-3.587,0,0,1,81,false,stim,true,0,736,0,0,0,24203,task3,1767510,false,false,1941,image-keyboard-response,16
true,30,2,1,1,false,z,true,false,0.0-2.0-0.65-0.588-3.588,0,0,1,68,false,stim,false,0,1066,0,0,0,24203,task3,1770112,false,false,1944,image-keyboard-response,17
true,30,1,1,0,false,q,true,false,0.0-2.0-0.65-0.589-3.589,0,0,1,90,false,stim,false,2,1192,0,0,1,24203,task3,1772849,false,false,1947,image-keyboard-response,18
true,30,0,1,0,true,q,false,true,0.0-2.0-0.65-0.590-3.590,0,0,1,81,false,stim,false,2,1144,0,0,1,24203,task3,1775539,false,false,1950,image-keyboard-response,19
true,30,2,1,1,false,z,true,false,0.0-2.0-0.65-0.591-3.591,0,0,1,68,false,stim,false,1,969,0,1,2,24203,task3,1778033,false,false,1953,image-keyboard-response,20
true,30,1,1,1,true,z,false,true,0.0-2.0-0.65-0.592-3.592,0,0,1,90,false,stim,false,1,875,0,1,2,24203,task3,1780439,false,false,1956,image-keyboard-response,21
true,30,0,1,0,true,q,false,true,0.0-2.0-0.65-0.593-3.593,0,0,1,81,false,stim,false,2,695,0,0,1,24203,task3,1782670,false,false,1959,image-keyboard-response,22
true,30,1,1,1,true,z,false,true,0.0-2.0-0.66-0.594-3.594,0,0,1,90,false,stim,false,1,630,0,0,2,24203,task3,1784835,false,false,1962,image-keyboard-response,23
true,30,0,1,0,true,q,false,false,0.0-2.0-0.66-0.595-3.595,0,0,1,81,false,stim,false,2,581,0,1,1,24203,task3,1786954,false,true,1965,image-keyboard-response,24
true,30,2,1,0,false,q,false,false,0.0-2.0-0.66-0.596-3.596,0,0,1,68,false,stim,true,2,942,0,1,1,24203,task3,1789416,false,false,1968,image-keyboard-response,25
true,30,1,1,1,true,z,false,true,0.0-2.0-0.66-0.597-3.597,0,0,1,90,false,stim,false,1,356,0,0,2,24203,task3,1791299,false,false,1971,image-keyboard-response,26
true,30,1,1,1,true,z,false,true,0.0-2.0-0.66-0.598-3.598,0,0,1,90,false,stim,false,1,665,0,0,2,24203,task3,1793477,false,false,1974,image-keyboard-response,27
true,31,2,1,2,true,d,false,true,0.0-2.0-0.66-0.599-3.599,0,1,0,68,true,stim,false,1,1677,0,0,0,24203,task3,1796680,false,false,1977,image-keyboard-response,1
true,31,2,1,2,true,d,false,false,0.0-2.0-0.66-0.600-3.600,0,1,0,68,false,stim,false,1,842,0,0,0,24203,task3,1799044,false,true,1980,image-keyboard-response,2
true,31,0,1,2,false,d,true,false,0.0-2.0-0.66-0.601-3.601,0,1,0,81,false,stim,false,1,699,0,0,0,24203,task3,1801283,false,false,1983,image-keyboard-response,3
true,31,2,1,0,false,q,true,false,0.0-2.0-0.66-0.602-3.602,0,1,0,68,false,stim,false,0,1257,0,1,1,24203,task3,1804083,false,false,1986,image-keyboard-response,4
true,31,1,1,0,false,q,false,false,0.0-2.0-0.67-0.603-3.603,0,1,0,90,false,stim,true,1,615,0,0,2,24203,task3,1806227,false,false,1989,image-keyboard-response,5
true,31,0,1,0,true,q,false,true,0.0-2.0-0.67-0.604-3.604,0,1,0,81,false,stim,false,1,1337,0,0,2,24203,task3,1809112,false,false,1992,image-keyboard-response,6
true,31,2,1,2,true,d,false,true,0.0-2.0-0.67-0.605-3.605,0,1,0,68,false,stim,false,1,987,0,0,0,24203,task3,1811639,false,false,1995,image-keyboard-response,7
true,31,2,1,2,true,d,false,true,0.0-2.0-0.67-0.606-3.606,0,1,0,68,false,stim,false,1,662,0,0,0,24203,task3,1813846,false,false,1998,image-keyboard-response,8
true,31,1,1,0,false,q,true,false,0.0-2.0-0.67-0.607-3.607,0,1,0,90,false,stim,false,0,1035,0,1,1,24203,task3,1816453,false,false,2001,image-keyboard-response,9
true,31,0,1,0,true,q,false,true,0.0-2.0-0.67-0.608-3.608,0,1,0,81,false,stim,false,1,881,0,0,2,24203,task3,1818857,false,false,2004,image-keyboard-response,10
true,31,2,1,2,true,d,false,true,0.0-2.0-0.67-0.609-3.609,0,1,0,68,false,stim,false,1,671,0,0,0,24203,task3,1821056,false,false,2007,image-keyboard-response,11
true,31,0,1,0,true,q,false,true,0.0-2.0-0.67-0.610-3.610,0,1,0,81,false,stim,false,0,931,0,1,1,24203,task3,1823517,false,false,2010,image-keyboard-response,12
true,31,0,1,0,true,q,false,true,0.0-2.0-0.67-0.611-3.611,0,1,0,81,false,stim,false,0,531,0,1,1,24203,task3,1825567,false,false,2013,image-keyboard-response,13
true,31,2,1,2,true,d,false,false,0.0-2.0-0.68-0.612-3.612,0,1,0,68,false,stim,false,1,882,0,0,0,24203,task3,1827978,false,true,2016,image-keyboard-response,14
true,31,0,1,0,true,q,false,true,0.0-2.0-0.68-0.613-3.613,0,1,0,81,false,stim,false,0,771,0,1,1,24203,task3,1830276,false,false,2019,image-keyboard-response,15
true,31,0,1,0,true,q,false,false,0.0-2.0-0.68-0.614-3.614,0,1,0,81,false,stim,false,0,477,0,1,1,24203,task3,1832281,false,true,2022,image-keyboard-response,16
true,31,1,1,2,false,d,false,false,0.0-2.0-0.68-0.615-3.615,0,1,0,90,false,stim,true,1,1119,0,0,0,24203,task3,1834944,false,false,2025,image-keyboard-response,17
true,31,2,1,0,false,q,true,false,0.0-2.0-0.68-0.616-3.616,0,1,0,68,false,stim,false,0,869,0,1,1,24203,task3,1837353,false,false,2028,image-keyboard-response,18
true,31,0,1,2,false,d,true,false,0.0-2.0-0.68-0.617-3.617,0,1,0,81,false,stim,false,1,984,0,0,0,24203,task3,1839878,false,false,2031,image-keyboard-response,19
true,31,0,1,0,true,q,false,true,0.0-2.0-0.68-0.618-3.618,0,1,0,81,false,stim,false,1,1083,0,1,2,24203,task3,1842487,false,false,2034,image-keyboard-response,20
true,31,0,1,0,true,q,false,true,0.0-2.0-0.68-0.619-3.619,0,1,0,81,false,stim,false,1,1239,0,1,2,24203,task3,1845254,false,false,2037,image-keyboard-response,21
true,31,0,1,0,true,q,false,true,0.0-2.0-0.68-0.620-3.620,0,1,0,81,false,stim,false,1,986,0,1,2,24203,task3,1847780,false,false,2040,image-keyboard-response,22
true,31,1,1,0,false,q,true,false,0.0-2.0-0.69-0.621-3.621,0,1,0,90,false,stim,false,0,1154,0,1,1,24203,task3,1850468,false,false,2043,image-keyboard-response,23
true,31,1,1,2,false,d,false,false,0.0-2.0-0.69-0.622-3.622,0,1,0,90,false,stim,true,1,1612,0,0,0,24203,task3,1853607,false,false,2046,image-keyboard-response,24
true,32,0,2,0,true,q,false,true,0.0-2.0-0.69-0.623-3.623,0,1,1,81,true,stim,false,0,1091,0,1,1,24203,task3,1856225,false,false,2049,image-keyboard-response,1
true,32,0,2,0,true,q,false,true,0.0-2.0-0.69-0.624-3.624,0,1,1,81,false,stim,false,0,588,0,1,2,24203,task3,1858348,false,false,2052,image-keyboard-response,2
true,32,0,2,1,false,z,true,false,0.0-2.0-0.69-0.625-3.625,0,1,1,81,false,stim,false,2,1257,0,0,0,24203,task3,1861131,false,false,2055,image-keyboard-response,3
true,32,2,2,1,false,z,false,false,0.0-2.0-0.69-0.626-3.626,0,1,1,68,false,stim,true,2,1034,0,0,0,24203,task3,1863687,false,false,2058,image-keyboard-response,4
true,32,0,2,0,true,q,false,true,0.0-2.0-0.69-0.627-3.627,0,1,1,81,false,stim,false,0,718,0,1,2,24203,task3,1865932,false,false,2061,image-keyboard-response,5
true,32,0,2,0,true,q,false,true,0.0-2.0-0.69-0.628-3.628,0,1,1,81,false,stim,false,0,613,0,1,2,24203,task3,1868076,false,false,2064,image-keyboard-response,6
true,32,0,2,0,true,q,false,true,0.0-2.0-0.69-0.629-3.629,0,1,1,81,false,stim,false,0,751,0,1,1,24203,task3,1870355,false,false,2067,image-keyboard-response,7
true,32,0,2,0,true,q,false,true,0.0-2.0-0.70-0.630-3.630,0,1,1,81,false,stim,false,0,926,0,1,2,24203,task3,1872803,false,false,2070,image-keyboard-response,8
true,32,0,2,0,true,q,false,true,0.0-2.0-0.70-0.631-3.631,0,1,1,81,false,stim,false,0,483,0,1,2,24203,task3,1874818,false,false,2073,image-keyboard-response,9
true,32,1,2,0,false,q,true,true,0.0-2.0-0.70-0.632-3.632,0,1,1,90,false,stim,false,0,919,0,1,1,24203,task3,1877263,false,true,2076,image-keyboard-response,10
