answered,blockNum,choice,condition,corResp,correct,correct_response,explo,fb,internal_node_id,isStable_1,isStable_2,isStable_3,key_press,newBlock,part,persev,persevResp,rt,sessNum,stableAS,stimulus,subject,task,time_elapsed,training,trap,trial_index,trial_type,trialsInBlock
true,1,2,0,1,false,z,true,false,0.0-2.0-0.0-0.0-3.0,0,0,0,68,true,stim,false,-1,2721.800000011921,2,0,0,24779,task1,283138,false,false,184,image-keyboard-response,1
true,1,0,0,0,true,q,false,true,0.0-2.0-0.0-0.1-3.1,0,0,0,81,false,stim,false,-1,970.5999999642372,2,0,1,24779,task1,285617,false,false,187,image-keyboard-response,2
true,1,0,0,1,false,z,true,false,0.0-2.0-0.0-0.2-3.2,0,0,0,81,false,stim,false,-1,1264.4000000357628,2,0,0,24779,task1,288385,false,false,190,image-keyboard-response,3
true,1,2,0,2,true,d,false,true,0.0-2.0-0.0-0.3-3.3,0,0,0,68,false,stim,false,-1,1056.1000000238419,2,0,2,24779,task1,290946,false,false,193,image-keyboard-response,4
true,1,0,0,0,true,q,false,true,0.0-2.0-0.0-0.4-3.4,0,0,0,81,false,stim,false,-1,1727.800000011921,2,0,1,24779,task1,294177,false,false,196,image-keyboard-response,5
true,1,2,0,1,false,z,true,false,0.0-2.0-0.0-0.5-3.5,0,0,0,68,false,stim,false,-1,1116.5999999642372,2,0,0,24779,task1,296801,false,false,199,image-keyboard-response,6
true,1,2,0,2,true,d,false,true,0.0-2.0-0.0-0.6-3.6,0,0,0,68,false,stim,false,-1,803.7000000476837,2,0,2,24779,task1,299113,false,false,202,image-keyboard-response,7
true,1,0,0,0,true,q,false,true,0.0-2.0-0.0-0.7-3.7,0,0,0,81,false,stim,false,-1,816.1999999880791,2,0,1,24779,task1,301433,false,false,205,image-keyboard-response,8
true,1,0,0,2,false,d,true,true,0.0-2.0-0.0-0.8-3.8,0,0,0,81,false,stim,false,-1,720.8000000119209,2,0,2,24779,task1,303657,false,true,208,image-keyboard-response,9
true,1,1,0,1,true,z,false,true,0.0-2.0-0.1-0.9-3.9,0,0,0,90,false,stim,false,-1,1325.5,2,0,0,24779,task1,306489,false,false,211,image-keyboard-response,10
true,1,1,0,1,true,z,false,true,0.0-2.0-0.1-0.10-3.10,0,0,0,90,false,stim,false,-1,752.7000000476837,2,0,0,24779,task1,308745,false,false,214,image-keyboard-response,11
true,1,2,0,2,true,d,false,true,0.0-2.0-0.1-0.11-3.11,0,0,0,68,false,stim,false,-1,1051.800000011921,2,0,2,24779,task1,311305,false,false,217,image-keyboard-response,12
true,1,2,0,2,true,d,false,true,0.0-2.0-0.1-0.12-3.12,0,0,0,68,false,stim,false,-1,514.5,2,0,2,24779,task1,313329,false,false,220,image-keyboard-response,13
true,1,0,0,0,true,q,false,true,0.0-2.0-0.1-0.13-3.13,0,0,0,81,false,stim,false,-1,877.9000000357628,2,0,1,24779,task1,315712,false,false,223,image-keyboard-response,14
true,1,2,0,2,true,d,false,true,0.0-2.0-0.1-0.14-3.14,0,0,0,68,false,stim,false,-1,1000.5999999642372,2,0,2,24779,task1,318216,false,false,226,image-keyboard-response,15
true,1,0,0,0,true,q,false,true,0.0-2.0-0.1-0.15-3.15,0,0,0,81,false,stim,false,-1,1127.6000000238419,2,0,1,24779,task1,320848,false,false,229,image-keyboard-response,16
true,1,0,0,0,true,q,false,true,0.0-2.0-0.1-0.16-3.16,0,0,0,81,false,stim,false,-1,640.8000000119209,2,0,1,24779,task1,322992,false,false,232,image-keyboard-response,17
true,1,1,0,1,true,z,false,true,0.0-2.0-0.1-0.17-3.17,0,0,0,90,false,stim,false,-1,1649.2000000476837,2,0,0,24779,task1,326144,false,false,235,image-keyboard-response,18
true,1,2,0,2,true,d,false,true,0.0-2.0-0.2-0.18-3.18,0,0,0,68,false,stim,false,-1,1236.6000000238419,2,0,2,24779,task1,328888,false,false,238,image-keyboard-response,19
true,1,0,0,0,true,q,false,true,0.0-2.0-0.2-0.19-3.19,0,0,0,81,false,stim,false,-1,1015.1000000238419,2,0,1,24779,task1,331408,false,false,241,image-keyboard-response,20
true,1,1,0,1,true,z,false,true,0.0-2.0-0.2-0.20-3.20,0,0,0,90,false,stim,false,-1,1591.800000011921,2,0,0,24779,task1,334504,false,false,244,image-keyboard-response,21
true,1,0,0,0,true,q,false,true,0.0-2.0-0.2-0.21-3.21,0,0,0,81,false,stim,false,-1,1012.9000000357628,2,0,1,24779,task1,337024,false,false,247,image-keyboard-response,22
true,1,2,0,2,true,d,false,false,0.0-2.0-0.2-0.22-3.22,0,0,0,68,false,stim,false,-1,1116.3999999761581,2,0,2,24779,task1,339647,false,true,250,image-keyboard-response,23
true,1,0,0,2,false,d,true,false,0.0-2.0-0.2-0.23-3.23,0,0,0,81,false,stim,false,-1,876.6999999880791,2,0,2,24779,task1,342032,false,false,253,image-keyboard-response,24
true,1,2,0,1,false,z,true,false,0.0-2.0-0.2-0.24-3.24,0,0,0,68,false,stim,false,-1,1864.199999988079,2,0,0,24779,task1,345399,false,false,256,image-keyboard-response,25
true,1,1,0,0,false,q,true,false,0.0-2.0-0.2-0.25-3.25,0,0,0,90,false,stim,false,-1,1353.2999999523163,2,0,1,24779,task1,348255,false,false,259,image-keyboard-response,26
true,2,2,1,0,false,q,true,false,0.0-2.0-0.2-0.26-3.26,0,0,0,68,true,stim,false,1,1397.4000000357628,2,0,0,24779,task1,351159,false,false,262,image-keyboard-response,1
true,2,0,1,0,true,q,false,true,0.0-2.0-0.3-0.27-3.27,0,0,0,81,false,stim,false,1,1160.7000000476837,2,0,0,24779,task1,353823,false,false,265,image-keyboard-response,2
true,2,0,1,0,true,q,false,true,0.0-2.0-0.3-0.28-3.28,0,0,0,81,false,stim,false,2,949.3000000119209,2,0,2,24779,task1,356279,false,false,268,image-keyboard-response,3
true,2,0,1,0,true,q,false,true,0.0-2.0-0.3-0.29-3.29,0,0,0,81,false,stim,false,2,800.5,2,0,2,24779,task1,358583,false,false,271,image-keyboard-response,4
true,2,2,1,2,true,d,false,true,0.0-2.0-0.3-0.30-3.30,0,0,0,68,false,stim,false,0,1653.0,2,0,1,24779,task1,361743,false,false,274,image-keyboard-response,5
true,2,0,1,0,true,q,false,true,0.0-2.0-0.3-0.31-3.31,0,0,0,81,false,stim,false,1,640.4000000357628,2,0,0,24779,task1,363887,false,false,277,image-keyboard-response,6
true,2,2,1,0,false,q,false,false,0.0-2.0-0.3-0.32-3.32,0,0,0,68,false,stim,true,2,936.7000000476837,2,0,2,24779,task1,366327,false,false,280,image-keyboard-response,7
true,2,0,1,2,false,d,false,false,0.0-2.0-0.3-0.33-3.33,0,0,0,81,false,stim,true,0,759.8999999761581,2,0,1,24779,task1,368591,false,false,283,image-keyboard-response,8
true,2,2,1,2,true,d,false,true,0.0-2.0-0.3-0.34-3.34,0,0,0,68,false,stim,false,0,852.8000000119209,2,0,1,24779,task1,370950,false,false,286,image-keyboard-response,9
true,2,0,1,0,true,q,false,false,0.0-2.0-0.3-0.35-3.35,0,0,0,81,false,stim,false,1,676.7000000476837,2,0,0,24779,task1,373134,false,true,289,image-keyboard-response,10
true,2,1,1,0,false,q,false,false,0.0-2.0-0.4-0.36-3.36,0,0,0,90,false,stim,true,1,1362.6000000238419,2,0,0,24779,task1,376006,false,false,292,image-keyboard-response,11
true,2,2,1,0,false,q,true,false,0.0-2.0-0.4-0.37-3.37,0,0,0,68,false,stim,false,1,920.4000000357628,2,0,0,24779,task1,378430,false,false,295,image-keyboard-response,12
true,2,0,1,2,false,d,false,false,0.0-2.0-0.4-0.38-3.38,0,0,0,81,false,stim,true,0,553.0999999642372,2,0,1,24779,task1,380494,false,false,298,image-keyboard-response,13
true,2,2,1,0,false,q,false,false,0.0-2.0-0.4-0.39-3.39,0,0,0,68,false,stim,true,2,645.2000000476837,2,0,2,24779,task1,382646,false,false,301,image-keyboard-response,14
true,2,0,1,0,true,q,false,true,0.0-2.0-0.4-0.40-3.40,0,0,0,81,false,stim,false,2,575.8000000119209,2,0,2,24779,task1,384726,false,false,304,image-keyboard-response,15
true,2,2,1,2,true,d,false,true,0.0-2.0-0.4-0.41-3.41,0,0,0,68,false,stim,false,0,805.5,2,0,1,24779,task1,387038,false,false,307,image-keyboard-response,16
true,2,0,1,0,true,q,false,true,0.0-2.0-0.4-0.42-3.42,0,0,0,81,false,stim,false,2,788.7000000476837,2,0,2,24779,task1,389334,false,false,310,image-keyboard-response,17
true,2,2,1,2,true,d,false,true,0.0-2.0-0.4-0.43-3.43,0,0,0,68,false,stim,false,0,1427.1000000238419,2,0,1,24779,task1,392270,false,false,313,image-keyboard-response,18
true,2,0,1,0,true,q,false,true,0.0-2.0-0.4-0.44-3.44,0,0,0,81,false,stim,false,1,680.5,2,0,0,24779,task1,394454,false,false,316,image-keyboard-response,19
true,2,0,1,0,true,q,false,true,0.0-2.0-0.5-0.45-3.45,0,0,0,81,false,stim,false,2,1730.800000011921,2,0,2,24779,task1,397693,false,false,319,image-keyboard-response,20
true,2,0,1,2,false,d,false,false,0.0-2.0-0.5-0.46-3.46,0,0,0,81,false,stim,true,0,915.5999999642372,2,0,1,24779,task1,400117,false,false,322,image-keyboard-response,21
true,2,2,1,2,true,d,false,true,0.0-2.0-0.5-0.47-3.47,0,0,0,68,false,stim,false,0,640.8000000119209,2,0,1,24779,task1,402261,false,false,325,image-keyboard-response,22
true,2,2,1,2,true,d,false,true,0.0-2.0-0.5-0.48-3.48,0,0,0,68,false,stim,false,0,564.5999999642372,2,0,1,24779,task1,404333,false,false,328,image-keyboard-response,23
true,2,0,1,0,true,q,false,true,0.0-2.0-0.5-0.49-3.49,0,0,0,81,false,stim,false,1,681.8000000119209,2,0,0,24779,task1,406525,false,false,331,image-keyboard-response,24
true,2,0,1,0,true,q,false,true,0.0-2.0-0.5-0.50-3.50,0,0,0,81,false,stim,false,1,1068.7000000476837,2,0,0,24779,task1,409101,false,false,334,image-keyboard-response,25
true,2,0,1,0,true,q,false,false,0.0-2.0-0.5-0.51-3.51,0,0,0,81,false,stim,false,1,652.9000000357628,2,0,0,24779,task1,411261,false,true,337,image-keyboard-response,26
true,2,2,1,0,false,q,false,false,0.0-2.0-0.5-0.52-3.52,0,0,0,68,false,stim,true,2,1335.7000000476837,2,0,2,24779,task1,414101,false,false,340,image-keyboard-response,27
true,2,1,1,0,false,q,true,false,0.0-2.0-0.5-0.53-3.53,0,0,0,90,false,stim,false,2,1025.0,2,0,2,24779,task1,416629,false,false,343,image-keyboard-response,28
true,2,2,1,0,false,q,true,false,0.0-2.0-0.6-0.54-3.54,0,0,0,68,false,stim,false,1,1424.0,2,0,0,24779,task1,419557,false,false,346,image-keyboard-response,29
true,2,0,1,0,true,q,false,true,0.0-2.0-0.6-0.55-3.55,0,0,0,81,false,stim,false,2,2176.300000011921,2,0,2,24779,task1,423240,false,false,349,image-keyboard-response,30
true,2,0,1,0,true,q,false,true,0.0-2.0-0.6-0.56-3.56,0,0,0,81,false,stim,false,1,1407.2999999523163,2,0,0,24779,task1,426152,false,false,352,image-keyboard-response,31
true,2,1,1,2,false,d,true,false,0.0-2.0-0.6-0.57-3.57,0,0,0,90,false,stim,false,0,2119.399999976158,2,0,1,24779,task1,429776,false,false,355,image-keyboard-response,32
true,2,0,1,0,true,q,false,true,0.0-2.0-0.6-0.58-3.58,0,0,0,81,false,stim,false,1,2052.0,2,0,0,24779,task1,433336,false,false,358,image-keyboard-response,33
true,2,2,1,2,true,d,false,true,0.0-2.0-0.6-0.59-3.59,0,0,0,68,false,stim,false,0,849.4000000357628,2,0,1,24779,task1,435688,false,false,361,image-keyboard-response,34
true,2,0,1,0,true,q,false,true,0.0-2.0-0.6-0.60-3.60,0,0,0,81,false,stim,false,2,1025.0,2,0,2,24779,task1,438216,false,false,364,image-keyboard-response,35
true,2,2,1,2,true,d,false,true,0.0-2.0-0.6-0.61-3.61,0,0,0,68,false,stim,false,0,929.3999999761581,2,0,1,24779,task1,440648,false,false,367,image-keyboard-response,36
true,2,0,1,0,true,q,false,true,0.0-2.0-0.6-0.62-3.62,0,0,0,81,false,stim,false,2,1434.4000000357628,2,0,2,24779,task1,443591,false,false,370,image-keyboard-response,37
true,2,2,1,2,true,d,false,true,0.0-2.0-0.7-0.63-3.63,0,0,0,68,false,stim,false,0,1366.4000000357628,2,0,1,24779,task1,446463,false,false,373,image-keyboard-response,38
true,2,0,1,0,true,q,false,true,0.0-2.0-0.7-0.64-3.64,0,0,0,81,false,stim,false,2,783.1000000238419,2,0,2,24779,task1,448751,false,false,376,image-keyboard-response,39
true,2,2,1,2,true,d,false,true,0.0-2.0-0.7-0.65-3.65,0,0,0,68,false,stim,false,0,1337.699999988079,2,0,1,24779,task1,451592,false,false,379,image-keyboard-response,40
true,3,2,1,1,false,z,false,false,0.0-2.0-0.7-0.66-3.66,0,0,0,68,true,stim,true,2,560.3000000119209,2,0,1,24779,task1,453655,false,false,382,image-keyboard-response,1
true,3,2,1,2,true,d,false,true,0.0-2.0-0.7-0.67-3.67,0,0,0,68,false,stim,false,0,1400.7000000476837,2,0,2,24779,task1,456559,false,false,385,image-keyboard-response,2
true,3,0,1,1,false,z,false,false,0.0-2.0-0.7-0.68-3.68,0,0,0,81,false,stim,true,0,1133.300000011921,2,0,0,24779,task1,459199,false,false,388,image-keyboard-response,3
true,3,1,1,1,true,z,false,true,0.0-2.0-0.7-0.69-3.69,0,0,0,90,false,stim,false,0,1033.699999988079,2,0,0,24779,task1,461735,false,false,391,image-keyboard-response,4
true,3,2,1,2,true,d,false,true,0.0-2.0-0.7-0.70-3.70,0,0,0,68,false,stim,false,0,640.1000000238419,2,0,2,24779,task1,463878,false,false,394,image-keyboard-response,5
true,3,1,1,1,true,z,false,true,0.0-2.0-0.7-0.71-3.71,0,0,0,90,false,stim,false,0,657.4000000357628,2,0,0,24779,task1,466038,false,false,397,image-keyboard-response,6
true,3,0,1,1,false,z,true,false,0.0-2.0-0.8-0.72-3.72,0,0,0,81,false,stim,false,2,1048.2000000476837,2,0,1,24779,task1,468590,false,false,400,image-keyboard-response,7
true,3,1,1,1,true,z,false,true,0.0-2.0-0.8-0.73-3.73,0,0,0,90,false,stim,false,0,1142.300000011921,2,0,0,24779,task1,471238,false,false,403,image-keyboard-response,8
true,3,1,1,1,true,z,false,true,0.0-2.0-0.8-0.74-3.74,0,0,0,90,false,stim,false,0,801.6000000238419,2,0,0,24779,task1,473542,false,false,406,image-keyboard-response,9
true,3,2,1,2,true,d,false,true,0.0-2.0-0.8-0.75-3.75,0,0,0,68,false,stim,false,0,1100.6000000238419,2,0,2,24779,task1,476150,false,false,409,image-keyboard-response,10
true,3,2,1,2,true,d,false,true,0.0-2.0-0.8-0.76-3.76,0,0,0,68,false,stim,false,0,704.0,2,0,2,24779,task1,478358,false,false,412,image-keyboard-response,11
true,3,1,1,1,true,z,false,true,0.0-2.0-0.8-0.77-3.77,0,0,0,90,false,stim,false,2,1393.0999999642372,2,0,1,24779,task1,481254,false,false,415,image-keyboard-response,12
true,3,1,1,1,true,z,false,true,0.0-2.0-0.8-0.78-3.78,0,0,0,90,false,stim,false,0,1043.6000000238419,2,0,0,24779,task1,483806,false,false,418,image-keyboard-response,13
true,3,2,1,2,true,d,false,true,0.0-2.0-0.8-0.79-3.79,0,0,0,68,false,stim,false,0,736.1000000238419,2,0,2,24779,task1,486046,false,false,421,image-keyboard-response,14
true,3,1,1,1,true,z,false,true,0.0-2.0-0.8-0.80-3.80,0,0,0,90,false,stim,false,2,727.1999999880791,2,0,1,24779,task1,488277,false,false,424,image-keyboard-response,15
true,3,1,1,1,true,z,false,true,0.0-2.0-0.9-0.81-3.81,0,0,0,90,false,stim,false,0,1471.5,2,0,0,24779,task1,491253,false,false,427,image-keyboard-response,16
true,3,2,1,2,true,d,false,true,0.0-2.0-0.9-0.82-3.82,0,0,0,68,false,stim,false,0,719.1999999880791,2,0,2,24779,task1,493477,false,false,430,image-keyboard-response,17
true,3,1,1,1,true,z,false,true,0.0-2.0-0.9-0.83-3.83,0,0,0,90,false,stim,false,2,886.6000000238419,2,0,1,24779,task1,495870,false,false,433,image-keyboard-response,18
true,3,1,1,1,true,z,false,true,0.0-2.0-0.9-0.84-3.84,0,0,0,90,false,stim,false,0,1215.8999999761581,2,0,0,24779,task1,498589,false,false,436,image-keyboard-response,19
true,3,2,1,2,true,d,false,false,0.0-2.0-0.9-0.85-3.85,0,0,0,68,false,stim,false,0,616.4000000357628,2,0,2,24779,task1,500709,false,true,439,image-keyboard-response,20
true,3,1,1,2,false,d,true,true,0.0-2.0-0.9-0.86-3.86,0,0,0,90,false,stim,false,0,1886.300000011921,2,0,2,24779,task1,504101,false,true,442,image-keyboard-response,21
true,3,0,1,1,false,z,true,false,0.0-2.0-0.9-0.87-3.87,0,0,0,81,false,stim,false,2,1508.5,2,0,1,24779,task1,507117,false,false,445,image-keyboard-response,22
true,3,2,1,1,false,z,true,false,0.0-2.0-0.9-0.88-3.88,0,0,0,68,false,stim,false,0,1360.4000000357628,2,0,0,24779,task1,509981,false,false,448,image-keyboard-response,23
true,3,1,1,1,true,z,false,true,0.0-2.0-0.9-0.89-3.89,0,0,0,90,false,stim,false,2,417.19999998807907,2,0,1,24779,task1,511909,false,false,451,image-keyboard-response,24
true,3,1,1,1,true,z,false,true,0.0-2.0-0.10-0.90-3.90,0,0,0,90,false,stim,false,2,1063.199999988079,2,0,1,24779,task1,514477,false,false,454,image-keyboard-response,25
true,3,0,1,2,false,d,false,false,0.0-2.0-0.10-0.91-3.91,0,0,0,81,false,stim,true,0,1793.699999988079,2,0,2,24779,task1,517773,false,false,457,image-keyboard-response,26
true,3,1,1,2,false,d,true,false,0.0-2.0-0.10-0.92-3.92,0,0,0,90,false,stim,false,0,718.1999999880791,2,0,2,24779,task1,519996,false,false,460,image-keyboard-response,27
true,3,1,1,1,true,z,false,true,0.0-2.0-0.10-0.93-3.93,0,0,0,90,false,stim,false,0,879.8000000119209,2,0,0,24779,task1,522381,false,false,463,image-keyboard-response,28
true,3,2,1,1,false,z,true,false,0.0-2.0-0.10-0.94-3.94,0,0,0,68,false,stim,false,0,1040.7000000476837,2,0,0,24779,task1,524925,false,false,466,image-keyboard-response,29
true,3,1,1,1,true,z,false,true,0.0-2.0-0.10-0.95-3.95,0,0,0,90,false,stim,false,2,840.6000000238419,2,0,1,24779,task1,527268,false,false,469,image-keyboard-response,30
true,3,1,1,1,true,z,false,true,0.0-2.0-0.10-0.96-3.96,0,0,0,90,false,stim,false,2,685.8000000119209,2,0,1,24779,task1,529461,false,false,472,image-keyboard-response,31
true,3,0,1,1,false,z,false,false,0.0-2.0-0.10-0.97-3.97,0,0,0,81,false,stim,true,0,1840.2000000476837,2,0,0,24779,task1,532804,false,false,475,image-keyboard-response,32
true,3,1,1,2,false,d,true,false,0.0-2.0-0.10-0.98-3.98,0,0,0,90,false,stim,false,0,1097.3999999761581,2,0,2,24779,task1,535404,false,false,478,image-keyboard-response,33
true,3,0,1,1,false,z,true,false,0.0-2.0-0.11-0.99-3.99,0,0,0,81,false,stim,false,2,1093.300000011921,2,0,1,24779,task1,538004,false,false,481,image-keyboard-response,34
true,3,2,1,2,true,d,false,true,0.0-2.0-0.11-0.100-3.100,0,0,0,68,false,stim,false,0,1350.199999988079,2,0,2,24779,task1,540860,false,false,484,image-keyboard-response,35
true,3,1,1,1,true,z,false,true,0.0-2.0-0.11-0.101-3.101,0,0,0,90,false,stim,false,2,1076.2000000476837,2,0,1,24779,task1,543444,false,false,487,image-keyboard-response,36
true,3,0,1,1,false,z,false,false,0.0-2.0-0.11-0.102-3.102,0,0,0,81,false,stim,true,0,990.0,2,0,0,24779,task1,545940,false,false,490,image-keyboard-response,37
true,3,2,1,2,true,d,false,true,0.0-2.0-0.11-0.103-3.103,0,0,0,68,false,stim,false,0,1473.2999999523163,2,0,2,24779,task1,548916,false,false,493,image-keyboard-response,38
true,3,2,1,2,true,d,false,false,0.0-2.0-0.11-0.104-3.104,0,0,0,68,false,stim,false,0,623.5,2,0,2,24779,task1,551044,false,true,496,image-keyboard-response,39
true,3,1,1,1,true,z,false,true,0.0-2.0-0.11-0.105-3.105,0,0,0,90,false,stim,false,0,1080.5,2,0,0,24779,task1,553627,false,false,499,image-keyboard-response,40
true,3,1,1,1,true,z,false,true,0.0-2.0-0.11-0.106-3.106,0,0,0,90,false,stim,false,0,801.3000000119209,2,0,0,24779,task1,555939,false,false,502,image-keyboard-response,41
true,3,0,1,1,false,z,true,false,0.0-2.0-0.11-0.107-3.107,0,0,0,81,false,stim,false,2,1489.1000000238419,2,0,1,24779,task1,558931,false,false,505,image-keyboard-response,42
true,3,1,1,1,true,z,false,true,0.0-2.0-0.12-0.108-3.108,0,0,0,90,false,stim,false,2,723.7000000476837,2,0,1,24779,task1,561163,false,false,508,image-keyboard-response,43
true,3,1,1,1,true,z,false,true,0.0-2.0-0.12-0.109-3.109,0,0,0,90,false,stim,false,0,601.2000000476837,2,0,0,24779,task1,563275,false,false,511,image-keyboard-response,44
true,4,1,1,0,false,q,false,false,0.0-2.0-0.12-0.110-3.110,0,0,0,90,true,stim,true,1,566.6000000238419,2,0,1,24779,task1,565347,false,false,514,image-keyboard-response,1
true,4,2,1,1,false,z,false,true,0.0-2.0-0.12-0.111-3.111,0,0,0,68,false,stim,true,2,896.5,2,0,2,24779,task1,567747,false,true,517,image-keyboard-response,2
true,4,0,1,0,true,q,false,true,0.0-2.0-0.12-0.112-3.112,0,0,0,81,false,stim,false,1,1119.1000000238419,2,0,0,24779,task1,570371,false,false,520,image-keyboard-response,3
true,4,2,1,1,false,z,false,false,0.0-2.0-0.12-0.113-3.113,0,0,0,68,false,stim,true,2,682.0,2,0,2,24779,task1,572555,false,false,523,image-keyboard-response,4
true,4,0,1,0,true,q,false,true,0.0-2.0-0.12-0.114-3.114,0,0,0,81,false,stim,false,1,685.4000000357628,2,0,0,24779,task1,574747,false,false,526,image-keyboard-response,5
true,4,0,1,0,true,q,false,true,0.0-2.0-0.12-0.115-3.115,0,0,0,81,false,stim,false,1,928.6000000238419,2,0,1,24779,task1,577179,false,false,529,image-keyboard-response,6
true,4,1,1,1,true,z,false,true,0.0-2.0-0.12-0.116-3.116,0,0,0,90,false,stim,false,2,1408.300000011921,2,0,2,24779,task1,580090,false,false,532,image-keyboard-response,7
true,4,1,1,1,true,z,false,true,0.0-2.0-0.13-0.117-3.117,0,0,0,90,false,stim,false,2,547.8999999761581,2,0,2,24779,task1,582146,false,false,535,image-keyboard-response,8
true,4,0,1,0,true,q,false,true,0.0-2.0-0.13-0.118-3.118,0,0,0,81,false,stim,false,1,889.6000000238419,2,0,1,24779,task1,584538,false,false,538,image-keyboard-response,9
true,4,1,1,1,true,z,false,true,0.0-2.0-0.13-0.119-3.119,0,0,0,90,false,stim,false,2,797.3000000119209,2,0,2,24779,task1,586842,false,false,541,image-keyboard-response,10
true,4,0,1,0,true,q,false,false,0.0-2.0-0.13-0.120-3.120,0,0,0,81,false,stim,false,1,830.1999999880791,2,0,1,24779,task1,589178,false,true,544,image-keyboard-response,11
true,4,1,1,1,true,z,false,true,0.0-2.0-0.13-0.121-3.121,0,0,0,90,false,stim,false,2,871.0999999642372,2,0,2,24779,task1,591554,false,false,547,image-keyboard-response,12
true,4,0,1,0,true,q,false,false,0.0-2.0-0.13-0.122-3.122,0,0,0,81,false,stim,false,1,1601.4000000357628,2,0,0,24779,task1,594658,false,true,550,image-keyboard-response,13
true,4,1,1,0,false,q,false,false,0.0-2.0-0.13-0.123-3.123,0,0,0,90,false,stim,true,1,660.3000000119209,2,0,1,24779,task1,596826,false,false,553,image-keyboard-response,14
true,4,2,1,0,false,q,true,false,0.0-2.0-0.13-0.124-3.124,0,0,0,68,false,stim,false,1,727.3000000119209,2,0,0,24779,task1,599058,false,false,556,image-keyboard-response,15
true,4,1,1,0,false,q,false,true,0.0-2.0-0.13-0.125-3.125,0,0,0,90,false,stim,true,1,596.0,2,0,0,24779,task1,601162,false,true,559,image-keyboard-response,16
true,4,2,1,1,false,z,false,false,0.0-2.0-0.14-0.126-3.126,0,0,0,68,false,stim,true,2,1824.699999988079,2,0,2,24779,task1,604498,false,false,562,image-keyboard-response,17
true,4,1,1,0,false,q,false,false,0.0-2.0-0.14-0.127-3.127,0,0,0,90,false,stim,true,1,1461.199999988079,2,0,1,24779,task1,607466,false,false,565,image-keyboard-response,18
true,4,0,1,1,false,z,true,false,0.0-2.0-0.14-0.128-3.128,0,0,0,81,false,stim,false,2,1867.199999988079,2,0,2,24779,task1,610841,false,false,568,image-keyboard-response,19
true,4,1,1,0,false,q,false,true,0.0-2.0-0.14-0.129-3.129,0,0,0,90,false,stim,true,1,718.8999999761581,2,0,1,24779,task1,613065,false,true,571,image-keyboard-response,20
true,4,1,1,1,true,z,false,true,0.0-2.0-0.14-0.130-3.130,0,0,0,90,false,stim,false,2,792.5,2,0,2,24779,task1,615361,false,false,574,image-keyboard-response,21
true,4,2,1,0,false,q,true,false,0.0-2.0-0.14-0.131-3.131,0,0,0,68,false,stim,false,1,2758.2000000476837,2,0,0,24779,task1,619627,false,false,577,image-keyboard-response,22
true,4,1,1,0,false,q,false,false,0.0-2.0-0.14-0.132-3.132,0,0,0,90,false,stim,true,1,728.8000000119209,2,0,0,24779,task1,621859,false,false,580,image-keyboard-response,23
true,4,1,1,0,false,q,false,false,0.0-2.0-0.14-0.133-3.133,0,0,0,90,false,stim,true,1,711.7999999523163,2,0,1,24779,task1,624074,false,false,583,image-keyboard-response,24
true,4,0,1,0,true,q,false,false,0.0-2.0-0.14-0.134-3.134,0,0,0,81,false,stim,false,1,1668.3999999761581,2,0,0,24779,task1,627250,false,true,586,image-keyboard-response,25
true,4,2,1,0,false,q,true,true,0.0-2.0-0.15-0.135-3.135,0,0,0,68,false,stim,false,1,743.0,2,0,1,24779,task1,629498,false,true,589,image-keyboard-response,26
true,4,2,1,0,false,q,true,true,0.0-2.0-0.15-0.136-3.136,0,0,0,68,false,stim,false,1,1192.300000011921,2,0,0,24779,task1,632194,false,true,592,image-keyboard-response,27
true,4,2,1,0,false,q,true,false,0.0-2.0-0.15-0.137-3.137,0,0,0,68,false,stim,false,1,863.3999999761581,2,0,1,24779,task1,634562,false,false,595,image-keyboard-response,28
true,4,2,1,0,false,q,true,false,0.0-2.0-0.15-0.138-3.138,0,0,0,68,false,stim,false,1,1578.8999999761581,2,0,0,24779,task1,637650,false,false,598,image-keyboard-response,29
true,4,0,1,0,true,q,false,true,0.0-2.0-0.15-0.139-3.139,0,0,0,81,false,stim,false,1,679.5999999642372,2,0,0,24779,task1,639842,false,false,601,image-keyboard-response,30
true,4,0,1,1,false,z,true,false,0.0-2.0-0.15-0.140-3.140,0,0,0,81,false,stim,false,2,1172.3999999761581,2,0,2,24779,task1,642522,false,false,604,image-keyboard-response,31
true,4,1,1,1,true,z,false,true,0.0-2.0-0.15-0.141-3.141,0,0,0,90,false,stim,false,2,1004.8999999761581,2,0,2,24779,task1,645034,false,false,607,image-keyboard-response,32
true,4,0,1,0,true,q,false,false,0.0-2.0-0.15-0.142-3.142,0,0,0,81,false,stim,false,1,1040.0,2,0,1,24779,task1,647578,false,true,610,image-keyboard-response,33
true,4,1,1,1,true,z,false,true,0.0-2.0-0.15-0.143-3.143,0,0,0,90,false,stim,false,2,951.5,2,0,2,24779,task1,650033,false,false,613,image-keyboard-response,34
true,4,0,1,0,true,q,false,true,0.0-2.0-0.16-0.144-3.144,0,0,0,81,false,stim,false,1,887.6000000238419,2,0,0,24779,task1,652425,false,false,616,image-keyboard-response,35
true,4,1,1,1,true,z,false,false,0.0-2.0-0.16-0.145-3.145,0,0,0,90,false,stim,false,2,641.1999999880791,2,0,2,24779,task1,654578,false,true,619,image-keyboard-response,36
true,4,0,1,0,true,q,false,true,0.0-2.0-0.16-0.146-3.146,0,0,0,81,false,stim,false,1,1426.8999999761581,2,0,0,24779,task1,657513,false,false,622,image-keyboard-response,37
true,4,0,1,1,false,z,true,false,0.0-2.0-0.16-0.147-3.147,0,0,0,81,false,stim,false,2,791.8000000119209,2,0,2,24779,task1,659809,false,false,625,image-keyboard-response,38
true,4,0,1,0,true,q,false,false,0.0-2.0-0.16-0.148-3.148,0,0,0,81,false,stim,false,1,1320.5999999642372,2,0,1,24779,task1,662633,false,true,628,image-keyboard-response,39
true,4,1,1,0,false,q,false,false,0.0-2.0-0.16-0.149-3.149,0,0,0,90,false,stim,true,1,961.1000000238419,2,0,0,24779,task1,665097,false,false,631,image-keyboard-response,40
true,4,1,1,0,false,q,false,false,0.0-2.0-0.16-0.150-3.150,0,0,0,90,false,stim,true,1,1087.3999999761581,2,0,1,24779,task1,667689,false,false,634,image-keyboard-response,41
true,4,2,1,1,false,z,false,false,0.0-2.0-0.16-0.151-3.151,0,0,0,68,false,stim,true,2,1062.8999999761581,2,0,2,24779,task1,670257,false,false,637,image-keyboard-response,42
true,4,0,1,0,true,q,false,true,0.0-2.0-0.16-0.152-3.152,0,0,0,81,false,stim,false,1,743.6999999880791,2,0,1,24779,task1,672505,false,false,640,image-keyboard-response,43
true,5,0,2,1,false,z,false,false,0.0-2.0-0.17-0.153-3.153,0,0,0,81,true,stim,true,0,772.0,2,0,1,24779,task1,674785,false,false,643,image-keyboard-response,1
true,5,1,2,2,false,d,false,false,0.0-2.0-0.17-0.154-3.154,0,0,0,90,false,stim,true,1,80.20000004768372,2,0,2,24779,task1,676369,false,false,646,image-keyboard-response,2
true,5,2,2,1,false,z,true,false,0.0-2.0-0.17-0.155-3.155,0,0,0,68,false,stim,false,0,1357.800000011921,2,0,1,24779,task1,679232,false,false,649,image-keyboard-response,3
true,5,1,2,1,true,z,false,true,0.0-2.0-0.17-0.156-3.156,0,0,0,90,false,stim,false,0,1254.0,2,0,0,24779,task1,681993,false,false,652,image-keyboard-response,4
true,5,1,2,2,false,d,false,false,0.0-2.0-0.17-0.157-3.157,0,0,0,90,false,stim,true,1,808.5,2,0,2,24779,task1,684304,false,false,655,image-keyboard-response,5
true,5,1,2,1,true,z,false,true,0.0-2.0-0.17-0.158-3.158,0,0,0,90,false,stim,false,0,1008.1999999880791,2,0,0,24779,task1,686817,false,false,658,image-keyboard-response,6
true,5,1,2,1,true,z,false,true,0.0-2.0-0.17-0.159-3.159,0,0,0,90,false,stim,false,0,591.9000000357628,2,0,0,24779,task1,688912,false,false,661,image-keyboard-response,7
true,5,0,2,1,false,z,false,false,0.0-2.0-0.17-0.160-3.160,0,0,0,81,false,stim,true,0,1048.6000000238419,2,0,1,24779,task1,691464,false,false,664,image-keyboard-response,8
true,5,2,2,2,true,d,false,true,0.0-2.0-0.17-0.161-3.161,0,0,0,68,false,stim,false,1,1576.7999999523163,2,0,2,24779,task1,694544,false,false,667,image-keyboard-response,9
true,5,2,2,2,true,d,false,true,0.0-2.0-0.18-0.162-3.162,0,0,0,68,false,stim,false,1,647.6999999880791,2,0,2,24779,task1,696696,false,false,670,image-keyboard-response,10
true,5,2,2,2,true,d,false,true,0.0-2.0-0.18-0.163-3.163,0,0,0,68,false,stim,false,1,552.3000000119209,2,0,2,24779,task1,698752,false,false,673,image-keyboard-response,11
true,5,1,2,1,true,z,false,true,0.0-2.0-0.18-0.164-3.164,0,0,0,90,false,stim,false,0,735.3000000119209,2,0,1,24779,task1,700992,false,false,676,image-keyboard-response,12
true,5,2,2,2,true,d,false,true,0.0-2.0-0.18-0.165-3.165,0,0,0,68,false,stim,false,1,735.8999999761581,2,0,2,24779,task1,703232,false,false,679,image-keyboard-response,13
true,5,1,2,1,true,z,false,true,0.0-2.0-0.18-0.166-3.166,0,0,0,90,false,stim,false,0,511.2999999523163,2,0,1,24779,task1,705248,false,false,682,image-keyboard-response,14
true,5,1,2,1,true,z,false,true,0.0-2.0-0.18-0.167-3.167,0,0,0,90,false,stim,false,0,1237.0,2,0,0,24779,task1,707992,false,false,685,image-keyboard-response,15
true,5,1,2,1,true,z,false,true,0.0-2.0-0.18-0.168-3.168,0,0,0,90,false,stim,false,0,660.0,2,0,0,24779,task1,710160,false,false,688,image-keyboard-response,16
true,5,1,2,1,true,z,false,true,0.0-2.0-0.18-0.169-3.169,0,0,0,90,false,stim,false,0,600.1000000238419,2,0,1,24779,task1,712263,false,false,691,image-keyboard-response,17
true,5,1,2,1,true,z,false,true,0.0-2.0-0.18-0.170-3.170,0,0,0,90,false,stim,false,0,745.1999999880791,2,0,0,24779,task1,714520,false,false,694,image-keyboard-response,18
true,5,1,2,1,true,z,false,true,0.0-2.0-0.19-0.171-3.171,0,0,0,90,false,stim,false,0,565.4000000357628,2,0,0,24779,task1,716591,false,false,697,image-keyboard-response,19
true,5,2,2,2,true,d,false,true,0.0-2.0-0.19-0.172-3.172,0,0,0,68,false,stim,false,1,642.3999999761581,2,0,2,24779,task1,718743,false,false,700,image-keyboard-response,20
true,5,1,2,1,true,z,false,true,0.0-2.0-0.19-0.173-3.173,0,0,0,90,false,stim,false,0,699.9000000357628,2,0,1,24779,task1,720951,false,false,703,image-keyboard-response,21
true,5,1,2,1,true,z,false,true,0.0-2.0-0.19-0.174-3.174,0,0,0,90,false,stim,false,0,525.1000000238419,2,0,1,24779,task1,722983,false,false,706,image-keyboard-response,22
true,5,1,2,1,true,z,false,true,0.0-2.0-0.19-0.175-3.175,0,0,0,90,false,stim,false,0,1637.0999999642372,2,0,0,24779,task1,726127,false,false,709,image-keyboard-response,23
true,5,1,2,1,true,z,false,false,0.0-2.0-0.19-0.176-3.176,0,0,0,90,false,stim,false,0,630.6000000238419,2,0,0,24779,task1,728263,false,true,712,image-keyboard-response,24
true,5,0,2,2,false,d,true,false,0.0-2.0-0.19-0.177-3.177,0,0,0,81,false,stim,false,1,1208.199999988079,2,0,2,24779,task1,730975,false,false,715,image-keyboard-response,25
true,5,1,2,2,false,d,false,false,0.0-2.0-0.19-0.178-3.178,0,0,0,90,false,stim,true,1,559.5,2,0,2,24779,task1,733039,false,false,718,image-keyboard-response,26
true,5,0,2,1,false,z,false,false,0.0-2.0-0.19-0.179-3.179,0,0,0,81,false,stim,true,0,2392.899999976158,2,0,1,24779,task1,736942,false,false,721,image-keyboard-response,27
true,5,0,2,1,false,z,false,false,0.0-2.0-0.20-0.180-3.180,0,0,0,81,false,stim,true,0,1975.5999999642372,2,0,0,24779,task1,740422,false,false,724,image-keyboard-response,28
true,5,2,2,2,true,d,false,true,0.0-2.0-0.20-0.181-3.181,0,0,0,68,false,stim,false,1,712.1999999880791,2,0,2,24779,task1,742639,false,false,727,image-keyboard-response,29
true,5,2,2,2,true,d,false,true,0.0-2.0-0.20-0.182-3.182,0,0,0,68,false,stim,false,1,1487.8999999761581,2,0,2,24779,task1,745630,false,false,730,image-keyboard-response,30
true,5,0,2,1,false,z,false,true,0.0-2.0-0.20-0.183-3.183,0,0,0,81,false,stim,true,0,856.0,2,0,0,24779,task1,747990,false,true,733,image-keyboard-response,31
true,5,2,2,2,true,d,false,true,0.0-2.0-0.20-0.184-3.184,0,0,0,68,false,stim,false,1,671.6999999880791,2,0,2,24779,task1,750166,false,false,736,image-keyboard-response,32
true,5,0,2,1,false,z,false,true,0.0-2.0-0.20-0.185-3.185,0,0,0,81,false,stim,true,0,717.0,2,0,0,24779,task1,752390,false,true,739,image-keyboard-response,33
true,5,1,2,1,true,z,false,true,0.0-2.0-0.20-0.186-3.186,0,0,0,90,false,stim,false,0,1399.3999999761581,2,0,1,24779,task1,755294,false,false,742,image-keyboard-response,34
true,5,1,2,1,true,z,false,true,0.0-2.0-0.20-0.187-3.187,0,0,0,90,false,stim,false,0,620.0,2,0,1,24779,task1,757422,false,false,745,image-keyboard-response,35
true,5,1,2,1,true,z,false,true,0.0-2.0-0.20-0.188-3.188,0,0,0,90,false,stim,false,0,648.0,2,0,1,24779,task1,759582,false,false,748,image-keyboard-response,36
true,5,1,2,1,true,z,false,true,0.0-2.0-0.21-0.189-3.189,0,0,0,90,false,stim,false,0,667.1000000238419,2,0,1,24779,task1,761758,false,false,751,image-keyboard-response,37
true,5,0,2,1,false,z,false,false,0.0-2.0-0.21-0.190-3.190,0,0,0,81,false,stim,true,0,926.5,2,0,0,24779,task1,764189,false,false,754,image-keyboard-response,38
true,5,1,2,1,true,z,false,true,0.0-2.0-0.21-0.191-3.191,0,0,0,90,false,stim,false,0,1333.199999988079,2,0,0,24779,task1,767030,false,false,757,image-keyboard-response,39
true,5,1,2,1,true,z,false,true,0.0-2.0-0.21-0.192-3.192,0,0,0,90,false,stim,false,0,713.0,2,0,0,24779,task1,769245,false,false,760,image-keyboard-response,40
true,5,0,2,2,false,d,true,false,0.0-2.0-0.21-0.193-3.193,0,0,0,81,false,stim,false,1,1055.8999999761581,2,0,2,24779,task1,771805,false,false,763,image-keyboard-response,41
true,5,2,2,2,true,d,false,true,0.0-2.0-0.21-0.194-3.194,0,0,0,68,false,stim,false,1,631.8999999761581,2,0,2,24779,task1,773941,false,false,766,image-keyboard-response,42
true,5,2,2,2,true,d,false,true,0.0-2.0-0.21-0.195-3.195,0,0,0,68,false,stim,false,1,751.6999999880791,2,0,2,24779,task1,776197,false,false,769,image-keyboard-response,43
true,6,1,2,0,false,q,false,false,0.0-2.0-0.21-0.196-3.196,0,0,0,90,true,stim,true,1,788.3000000119209,2,0,1,24779,task1,778493,false,false,772,image-keyboard-response,1
true,6,0,2,0,true,q,false,true,0.0-2.0-0.21-0.197-3.197,0,0,0,81,false,stim,false,1,991.8000000119209,2,0,1,24779,task1,780989,false,false,775,image-keyboard-response,2
true,6,2,2,1,false,z,false,false,0.0-2.0-0.22-0.198-3.198,0,0,0,68,false,stim,true,2,874.8999999761581,2,0,2,24779,task1,783373,false,false,778,image-keyboard-response,3
true,6,0,2,0,true,q,false,true,0.0-2.0-0.22-0.199-3.199,0,0,0,81,false,stim,false,1,854.0,2,0,1,24779,task1,785733,false,false,781,image-keyboard-response,4
true,6,1,2,0,false,q,false,false,0.0-2.0-0.22-0.200-3.200,0,0,0,90,false,stim,true,1,1398.3999999761581,2,0,0,24779,task1,788637,false,false,784,image-keyboard-response,5
true,6,0,2,0,true,q,false,true,0.0-2.0-0.22-0.201-3.201,0,0,0,81,false,stim,false,1,1019.5,2,0,1,24779,task1,791165,false,false,787,image-keyboard-response,6
true,6,1,2,1,true,z,false,true,0.0-2.0-0.22-0.202-3.202,0,0,0,90,false,stim,false,2,1681.8999999761581,2,0,2,24779,task1,794356,false,false,790,image-keyboard-response,7
true,6,0,2,0,true,q,false,true,0.0-2.0-0.22-0.203-3.203,0,0,0,81,false,stim,false,1,687.5999999642372,2,0,1,24779,task1,796548,false,false,793,image-keyboard-response,8
true,6,1,2,1,true,z,false,true,0.0-2.0-0.22-0.204-3.204,0,0,0,90,false,stim,false,2,907.5999999642372,2,0,2,24779,task1,798965,false,false,796,image-keyboard-response,9
true,6,0,2,0,true,q,false,true,0.0-2.0-0.22-0.205-3.205,0,0,0,81,false,stim,false,1,825.0999999642372,2,0,0,24779,task1,801292,false,false,799,image-keyboard-response,10
true,6,0,2,0,true,q,false,false,0.0-2.0-0.22-0.206-3.206,0,0,0,81,false,stim,false,1,811.0,2,0,0,24779,task1,803612,false,true,802,image-keyboard-response,11
true,6,0,2,0,true,q,false,true,0.0-2.0-0.23-0.207-3.207,0,0,0,81,false,stim,false,1,1831.8999999761581,2,0,1,24779,task1,806948,false,false,805,image-keyboard-response,12
true,6,0,2,0,true,q,false,true,0.0-2.0-0.23-0.208-3.208,0,0,0,81,false,stim,false,1,839.9000000357628,2,0,1,24779,task1,809292,false,false,808,image-keyboard-response,13
true,6,0,2,0,true,q,false,true,0.0-2.0-0.23-0.209-3.209,0,0,0,81,false,stim,false,1,901.8999999761581,2,0,0,24779,task1,811700,false,false,811,image-keyboard-response,14
true,6,0,2,0,true,q,false,true,0.0-2.0-0.23-0.210-3.210,0,0,0,81,false,stim,false,1,1133.7999999523163,2,0,0,24779,task1,814340,false,false,814,image-keyboard-response,15
true,6,0,2,0,true,q,false,false,0.0-2.0-0.23-0.211-3.211,0,0,0,81,false,stim,false,1,607.5999999642372,2,0,0,24779,task1,816452,false,true,817,image-keyboard-response,16
true,6,2,2,1,false,z,false,false,0.0-2.0-0.23-0.212-3.212,0,0,0,68,false,stim,true,2,976.6999999880791,2,0,2,24779,task1,818931,false,false,820,image-keyboard-response,17
true,6,0,2,0,true,q,false,true,0.0-2.0-0.23-0.213-3.213,0,0,0,81,false,stim,false,1,1104.199999988079,2,0,1,24779,task1,821540,false,false,823,image-keyboard-response,18
true,6,0,2,1,false,z,true,false,0.0-2.0-0.23-0.214-3.214,0,0,0,81,false,stim,false,2,1179.8999999761581,2,0,2,24779,task1,824227,false,false,826,image-keyboard-response,19
true,6,1,2,1,true,z,false,true,0.0-2.0-0.23-0.215-3.215,0,0,0,90,false,stim,false,2,612.5,2,0,2,24779,task1,826348,false,false,829,image-keyboard-response,20
true,6,2,2,0,false,q,true,false,0.0-2.0-0.24-0.216-3.216,0,0,0,68,false,stim,false,1,2232.600000023842,2,0,0,24779,task1,830084,false,false,832,image-keyboard-response,21
true,6,0,2,0,true,q,false,true,0.0-2.0-0.24-0.217-3.217,0,0,0,81,false,stim,false,1,979.8999999761581,2,0,1,24779,task1,832572,false,false,835,image-keyboard-response,22
true,6,1,2,1,true,z,false,true,0.0-2.0-0.24-0.218-3.218,0,0,0,90,false,stim,false,2,679.6999999880791,2,0,2,24779,task1,834756,false,false,838,image-keyboard-response,23
true,6,0,2,0,true,q,false,true,0.0-2.0-0.24-0.219-3.219,0,0,0,81,false,stim,false,1,1073.2999999523163,2,0,1,24779,task1,837339,false,false,841,image-keyboard-response,24
true,6,1,2,0,false,q,false,false,0.0-2.0-0.24-0.220-3.220,0,0,0,90,false,stim,true,1,1751.3999999761581,2,0,0,24779,task1,840595,false,false,844,image-keyboard-response,25
true,6,2,2,1,false,z,false,false,0.0-2.0-0.24-0.221-3.221,0,0,0,68,false,stim,true,2,2781.399999976158,2,0,2,24779,task1,844884,false,false,847,image-keyboard-response,26
true,6,1,2,1,true,z,false,true,0.0-2.0-0.24-0.222-3.222,0,0,0,90,false,stim,false,2,644.3000000119209,2,0,2,24779,task1,847035,false,false,850,image-keyboard-response,27
true,6,0,2,0,true,q,false,true,0.0-2.0-0.24-0.223-3.223,0,0,0,81,false,stim,false,1,791.3999999761581,2,0,1,24779,task1,849331,false,false,853,image-keyboard-response,28
true,6,0,2,0,true,q,false,true,0.0-2.0-0.24-0.224-3.224,0,0,0,81,false,stim,false,1,2071.600000023842,2,0,0,24779,task1,852907,false,false,856,image-keyboard-response,29
true,6,0,2,0,true,q,false,true,0.0-2.0-0.25-0.225-3.225,0,0,0,81,false,stim,false,1,767.1999999880791,2,0,0,24779,task1,855187,false,false,859,image-keyboard-response,30
true,6,1,2,1,true,z,false,true,0.0-2.0-0.25-0.226-3.226,0,0,0,90,false,stim,false,2,1329.5,2,0,2,24779,task1,858027,false,false,862,image-keyboard-response,31
true,6,0,2,0,true,q,false,true,0.0-2.0-0.25-0.227-3.227,0,0,0,81,false,stim,false,1,708.3000000119209,2,0,1,24779,task1,860243,false,false,865,image-keyboard-response,32
true,6,0,2,0,true,q,false,true,0.0-2.0-0.25-0.228-3.228,0,0,0,81,false,stim,false,1,1391.5,2,0,0,24779,task1,863139,false,false,868,image-keyboard-response,33
true,6,1,2,1,true,z,false,true,0.0-2.0-0.25-0.229-3.229,0,0,0,90,false,stim,false,2,1407.6000000238419,2,0,2,24779,task1,866051,false,false,871,image-keyboard-response,34
true,6,0,2,0,true,q,false,false,0.0-2.0-0.25-0.230-3.230,0,0,0,81,false,stim,false,1,623.1999999880791,2,0,0,24779,task1,868178,false,true,874,image-keyboard-response,35
true,6,0,2,0,true,q,false,true,0.0-2.0-0.25-0.231-3.231,0,0,0,81,false,stim,false,1,1005.5,2,0,1,24779,task1,870690,false,false,877,image-keyboard-response,36
true,6,1,2,1,true,z,false,true,0.0-2.0-0.25-0.232-3.232,0,0,0,90,false,stim,false,2,1038.5,2,0,2,24779,task1,873234,false,false,880,image-keyboard-response,37
true,6,0,2,0,true,q,false,true,0.0-2.0-0.25-0.233-3.233,0,0,0,81,false,stim,false,1,1559.699999988079,2,0,1,24779,task1,876298,false,false,883,image-keyboard-response,38
true,6,0,2,0,true,q,false,true,0.0-2.0-0.26-0.234-3.234,0,0,0,81,false,stim,false,1,777.1999999880791,2,0,1,24779,task1,878586,false,false,886,image-keyboard-response,39
true,6,2,2,0,false,q,true,false,0.0-2.0-0.26-0.235-3.235,0,0,0,68,false,stim,false,1,2184.5,2,0,0,24779,task1,882274,false,false,889,image-keyboard-response,40
true,6,2,2,1,false,z,false,false,0.0-2.0-0.26-0.236-3.236,0,0,0,68,false,stim,true,2,2510.599999964237,2,0,2,24779,task1,886290,false,false,892,image-keyboard-response,41
true,6,0,2,0,true,q,false,true,0.0-2.0-0.26-0.237-3.237,0,0,0,81,false,stim,false,1,684.6000000238419,2,0,1,24779,task1,888482,false,false,895,image-keyboard-response,42
true,6,1,2,1,true,z,false,true,0.0-2.0-0.26-0.238-3.238,0,0,0,90,false,stim,false,2,559.5,2,0,2,24779,task1,890546,false,false,898,image-keyboard-response,43
true,6,1,2,1,true,z,false,true,0.0-2.0-0.26-0.239-3.239,0,0,0,90,false,stim,false,2,674.1999999880791,2,0,2,24779,task1,892729,false,false,901,image-keyboard-response,44
true,7,1,1,1,true,z,false,false,0.0-2.0-0.26-0.240-3.240,0,0,0,90,true,stim,false,0,1626.5,2,0,0,24779,task1,895865,false,true,904,image-keyboard-response,1
true,7,0,1,2,false,d,false,false,0.0-2.0-0.26-0.241-3.241,0,0,0,81,false,stim,true,0,946.7000000476837,2,0,1,24779,task1,898321,false,false,907,image-keyboard-response,2
true,7,1,1,1,true,z,false,true,0.0-2.0-0.26-0.242-3.242,0,0,0,90,false,stim,false,0,1273.199999988079,2,0,0,24779,task1,901098,false,false,910,image-keyboard-response,3
true,7,1,1,2,false,d,false,false,0.0-2.0-0.27-0.243-3.243,0,0,0,90,false,stim,true,1,910.0,2,0,2,24779,task1,903513,false,false,913,image-keyboard-response,4
true,7,0,1,2,false,d,false,false,0.0-2.0-0.27-0.244-3.244,0,0,0,81,false,stim,true,0,1306.5,2,0,1,24779,task1,906329,false,false,916,image-keyboard-response,5
true,7,2,1,2,true,d,false,true,0.0-2.0-0.27-0.245-3.245,0,0,0,68,false,stim,false,1,1287.8999999761581,2,0,2,24779,task1,909121,false,false,919,image-keyboard-response,6
true,7,1,1,2,false,d,true,false,0.0-2.0-0.27-0.246-3.246,0,0,0,90,false,stim,false,0,919.5,2,0,1,24779,task1,911545,false,false,922,image-keyboard-response,7
true,7,1,1,1,true,z,false,true,0.0-2.0-0.27-0.247-3.247,0,0,0,90,false,stim,false,0,920.0,2,0,0,24779,task1,913969,false,false,925,image-keyboard-response,8
true,7,1,1,1,true,z,false,false,0.0-2.0-0.27-0.248-3.248,0,0,0,90,false,stim,false,0,1576.5,2,0,0,24779,task1,917049,false,true,928,image-keyboard-response,9
true,7,0,1,1,false,z,false,false,0.0-2.0-0.27-0.249-3.249,0,0,0,81,false,stim,true,0,1117.5,2,0,0,24779,task1,919673,false,false,931,image-keyboard-response,10
true,7,1,1,2,false,d,true,false,0.0-2.0-0.27-0.250-3.250,0,0,0,90,false,stim,false,0,915.0,2,0,1,24779,task1,922097,false,false,934,image-keyboard-response,11
true,7,2,1,2,true,d,false,true,0.0-2.0-0.27-0.251-3.251,0,0,0,68,false,stim,false,1,684.7999999523163,2,0,2,24779,task1,924288,false,false,937,image-keyboard-response,12
true,7,2,1,2,true,d,false,true,0.0-2.0-0.28-0.252-3.252,0,0,0,68,false,stim,false,1,798.0,2,0,2,24779,task1,926592,false,false,940,image-keyboard-response,13
true,7,1,1,1,true,z,false,true,0.0-2.0-0.28-0.253-3.253,0,0,0,90,false,stim,false,0,885.3000000119209,2,0,0,24779,task1,928984,false,false,943,image-keyboard-response,14
true,7,1,1,2,false,d,true,true,0.0-2.0-0.28-0.254-3.254,0,0,0,90,false,stim,false,0,909.8999999761581,2,0,1,24779,task1,931400,false,true,946,image-keyboard-response,15
true,7,2,1,2,true,d,false,true,0.0-2.0-0.28-0.255-3.255,0,0,0,68,false,stim,false,1,673.1000000238419,2,0,2,24779,task1,933576,false,false,949,image-keyboard-response,16
true,7,2,1,2,true,d,false,false,0.0-2.0-0.28-0.256-3.256,0,0,0,68,false,stim,false,1,686.6000000238419,2,0,2,24779,task1,935768,false,true,952,image-keyboard-response,17
true,7,1,1,2,false,d,true,true,0.0-2.0-0.28-0.257-3.257,0,0,0,90,false,stim,false,0,719.3000000119209,2,0,1,24779,task1,937992,false,true,955,image-keyboard-response,18
true,7,1,1,1,true,z,false,true,0.0-2.0-0.28-0.258-3.258,0,0,0,90,false,stim,false,0,1005.6000000238419,2,0,0,24779,task1,940504,false,false,958,image-keyboard-response,19
true,7,1,1,1,true,z,false,true,0.0-2.0-0.28-0.259-3.259,0,0,0,90,false,stim,false,0,1543.5,2,0,0,24779,task1,943552,false,false,961,image-keyboard-response,20
true,7,1,1,2,false,d,true,false,0.0-2.0-0.28-0.260-3.260,0,0,0,90,false,stim,false,0,1084.7999999523163,2,0,1,24779,task1,946144,false,false,964,image-keyboard-response,21
true,7,1,1,2,false,d,true,false,0.0-2.0-0.29-0.261-3.261,0,0,0,90,false,stim,false,0,1123.199999988079,2,0,1,24779,task1,948776,false,false,967,image-keyboard-response,22
true,7,2,1,2,true,d,false,true,0.0-2.0-0.29-0.262-3.262,0,0,0,68,false,stim,false,1,1245.300000011921,2,0,2,24779,task1,951527,false,false,970,image-keyboard-response,23
true,7,2,1,2,true,d,false,true,0.0-2.0-0.29-0.263-3.263,0,0,0,68,false,stim,false,1,758.1999999880791,2,0,2,24779,task1,953791,false,false,973,image-keyboard-response,24
true,7,0,1,1,false,z,false,false,0.0-2.0-0.29-0.264-3.264,0,0,0,81,false,stim,true,0,895.6999999880791,2,0,0,24779,task1,956192,false,false,976,image-keyboard-response,25
true,7,1,1,2,false,d,true,false,0.0-2.0-0.29-0.265-3.265,0,0,0,90,false,stim,false,0,1109.199999988079,2,0,1,24779,task1,958807,false,false,979,image-keyboard-response,26
true,7,0,1,2,false,d,false,false,0.0-2.0-0.29-0.266-3.266,0,0,0,81,false,stim,true,0,683.6000000238419,2,0,1,24779,task1,960999,false,false,982,image-keyboard-response,27
true,7,1,1,1,true,z,false,true,0.0-2.0-0.29-0.267-3.267,0,0,0,90,false,stim,false,0,1180.3999999761581,2,0,0,24779,task1,963687,false,false,985,image-keyboard-response,28
true,7,2,1,2,true,d,false,true,0.0-2.0-0.29-0.268-3.268,0,0,0,68,false,stim,false,1,621.3000000119209,2,0,2,24779,task1,965815,false,false,988,image-keyboard-response,29
true,7,1,1,1,true,z,false,true,0.0-2.0-0.29-0.269-3.269,0,0,0,90,false,stim,false,0,712.3000000119209,2,0,0,24779,task1,968032,false,false,991,image-keyboard-response,30
true,7,2,1,2,true,d,false,true,0.0-2.0-0.30-0.270-3.270,0,0,0,68,false,stim,false,1,910.1999999880791,2,0,2,24779,task1,970447,false,false,994,image-keyboard-response,31
true,7,2,1,2,true,d,false,true,0.0-2.0-0.30-0.271-3.271,0,0,0,68,false,stim,false,1,607.2999999523163,2,0,2,24779,task1,972559,false,false,997,image-keyboard-response,32
true,7,1,1,1,true,z,false,true,0.0-2.0-0.30-0.272-3.272,0,0,0,90,false,stim,false,0,588.6000000238419,2,0,0,24779,task1,974655,false,false,1000,image-keyboard-response,33
true,7,2,1,2,true,d,false,true,0.0-2.0-0.30-0.273-3.273,0,0,0,68,false,stim,false,1,576.3999999761581,2,0,2,24779,task1,976743,false,false,1003,image-keyboard-response,34
true,7,1,1,1,true,z,false,true,0.0-2.0-0.30-0.274-3.274,0,0,0,90,false,stim,false,0,663.6999999880791,2,0,0,24779,task1,978911,false,false,1006,image-keyboard-response,35
true,7,1,1,2,false,d,true,false,0.0-2.0-0.30-0.275-3.275,0,0,0,90,false,stim,false,0,1055.5,2,0,1,24779,task1,981470,false,false,1009,image-keyboard-response,36
true,7,2,1,2,true,d,false,true,0.0-2.0-0.30-0.276-3.276,0,0,0,68,false,stim,false,0,863.6000000238419,2,0,1,24779,task1,983838,false,false,1012,image-keyboard-response,37
true,7,2,1,2,true,d,false,false,0.0-2.0-0.30-0.277-3.277,0,0,0,68,false,stim,false,0,564.0,2,0,1,24779,task1,985911,false,true,1015,image-keyboard-response,38
true,7,1,1,1,true,z,false,false,0.0-2.0-0.30-0.278-3.278,0,0,0,90,false,stim,false,0,1221.5,2,0,0,24779,task1,988638,false,true,1018,image-keyboard-response,39
true,7,2,1,1,false,z,true,false,0.0-2.0-0.31-0.279-3.279,0,0,0,68,false,stim,false,0,704.1999999880791,2,0,0,24779,task1,990847,false,false,1021,image-keyboard-response,40
true,7,2,1,2,true,d,false,true,0.0-2.0-0.31-0.280-3.280,0,0,0,68,false,stim,false,1,846.2999999523163,2,0,2,24779,task1,993198,false,false,1024,image-keyboard-response,41
true,7,2,1,2,true,d,false,false,0.0-2.0-0.31-0.281-3.281,0,0,0,68,false,stim,false,1,809.5,2,0,2,24779,task1,995518,false,true,1027,image-keyboard-response,42
true,7,0,1,2,false,d,true,false,0.0-2.0-0.31-0.282-3.282,0,0,0,81,false,stim,false,1,803.3999999761581,2,0,2,24779,task1,997830,false,false,1030,image-keyboard-response,43
true,7,0,1,1,false,z,false,false,0.0-2.0-0.31-0.283-3.283,0,0,0,81,false,stim,true,0,871.8000000119209,2,0,0,24779,task1,1000206,false,false,1033,image-keyboard-response,44
true,7,1,1,2,false,d,true,true,0.0-2.0-0.31-0.284-3.284,0,0,0,90,false,stim,false,0,486.69999998807907,2,0,1,24779,task1,1002198,false,true,1036,image-keyboard-response,45
true,8,1,2,0,false,q,true,false,0.0-2.0-0.31-0.285-3.285,0,0,0,90,true,stim,false,2,624.6000000238419,2,0,1,24779,task1,1004326,false,false,1039,image-keyboard-response,1
true,8,2,2,0,false,q,false,false,0.0-2.0-0.31-0.286-3.286,0,0,0,68,false,stim,true,2,807.0,2,0,1,24779,task1,1006638,false,false,1042,image-keyboard-response,2
true,8,0,2,0,true,q,false,true,0.0-2.0-0.31-0.287-3.287,0,0,0,81,false,stim,false,1,651.1999999880791,2,0,0,24779,task1,1008797,false,false,1045,image-keyboard-response,3
true,8,0,2,0,true,q,false,true,0.0-2.0-0.32-0.288-3.288,0,0,0,81,false,stim,false,1,888.5,2,0,0,24779,task1,1011189,false,false,1048,image-keyboard-response,4
true,8,0,2,0,true,q,false,true,0.0-2.0-0.32-0.289-3.289,0,0,0,81,false,stim,false,2,711.6999999880791,2,0,1,24779,task1,1013406,false,false,1051,image-keyboard-response,5
true,8,2,2,1,false,z,false,false,0.0-2.0-0.32-0.290-3.290,0,0,0,68,false,stim,true,2,1140.699999988079,2,0,2,24779,task1,1016053,false,false,1054,image-keyboard-response,6
true,8,0,2,0,true,q,false,true,0.0-2.0-0.32-0.291-3.291,0,0,0,81,false,stim,false,2,1063.199999988079,2,0,1,24779,task1,1018621,false,false,1057,image-keyboard-response,7
true,8,0,2,0,true,q,false,true,0.0-2.0-0.32-0.292-3.292,0,0,0,81,false,stim,false,2,1008.6000000238419,2,0,1,24779,task1,1021133,false,false,1060,image-keyboard-response,8
true,8,1,2,1,true,z,false,true,0.0-2.0-0.32-0.293-3.293,0,0,0,90,false,stim,false,2,603.0,2,0,2,24779,task1,1023245,false,false,1063,image-keyboard-response,9
true,8,0,2,0,true,q,false,true,0.0-2.0-0.32-0.294-3.294,0,0,0,81,false,stim,false,1,895.8000000119209,2,0,0,24779,task1,1025645,false,false,1066,image-keyboard-response,10
true,8,0,2,0,true,q,false,false,0.0-2.0-0.32-0.295-3.295,0,0,0,81,false,stim,false,1,484.5,2,0,0,24779,task1,1027637,false,true,1069,image-keyboard-response,11
true,8,2,2,1,false,z,false,false,0.0-2.0-0.32-0.296-3.296,0,0,0,68,false,stim,true,2,1503.699999988079,2,0,2,24779,task1,1030645,false,false,1072,image-keyboard-response,12
true,8,1,2,0,false,q,false,false,0.0-2.0-0.33-0.297-3.297,0,0,0,90,false,stim,true,1,175.60000002384186,2,0,0,24779,task1,1032325,false,false,1075,image-keyboard-response,13
true,8,0,2,1,false,z,true,false,0.0-2.0-0.33-0.298-3.298,0,0,0,81,false,stim,false,2,1519.9000000357628,2,0,2,24779,task1,1035349,false,false,1078,image-keyboard-response,14
true,8,2,2,1,false,z,false,true,0.0-2.0-0.33-0.299-3.299,0,0,0,68,false,stim,true,2,365.69999998807907,2,0,2,24779,task1,1037221,false,true,1081,image-keyboard-response,15
true,8,2,2,1,false,z,false,false,0.0-2.0-0.33-0.300-3.300,0,0,0,68,false,stim,true,2,1004.3999999761581,2,0,2,24779,task1,1039732,false,false,1084,image-keyboard-response,16
true,8,0,2,0,true,q,false,true,0.0-2.0-0.33-0.301-3.301,0,0,0,81,false,stim,false,2,1240.3999999761581,2,0,1,24779,task1,1042476,false,false,1087,image-keyboard-response,17
true,8,1,2,0,false,q,false,false,0.0-2.0-0.33-0.302-3.302,0,0,0,90,false,stim,true,1,736.1999999880791,2,0,0,24779,task1,1044716,false,false,1090,image-keyboard-response,18
true,8,0,2,0,true,q,false,false,0.0-2.0-0.33-0.303-3.303,0,0,0,81,false,stim,false,2,695.3999999761581,2,0,1,24779,task1,1046916,false,true,1093,image-keyboard-response,19
true,8,2,2,0,false,q,false,false,0.0-2.0-0.33-0.304-3.304,0,0,0,68,false,stim,true,2,471.89999997615814,2,0,1,24779,task1,1048892,false,false,1096,image-keyboard-response,20
true,8,0,2,0,true,q,false,true,0.0-2.0-0.33-0.305-3.305,0,0,0,81,false,stim,false,1,845.5,2,0,0,24779,task1,1051244,false,false,1099,image-keyboard-response,21
true,8,2,2,1,false,z,false,false,0.0-2.0-0.34-0.306-3.306,0,0,0,68,false,stim,true,2,1996.5,2,0,2,24779,task1,1054748,false,false,1102,image-keyboard-response,22
true,8,1,2,1,true,z,false,true,0.0-2.0-0.34-0.307-3.307,0,0,0,90,false,stim,false,2,726.1000000238419,2,0,2,24779,task1,1056980,false,false,1105,image-keyboard-response,23
true,8,0,2,0,true,q,false,true,0.0-2.0-0.34-0.308-3.308,0,0,0,81,false,stim,false,1,1071.5999999642372,2,0,0,24779,task1,1059556,false,false,1108,image-keyboard-response,24
true,8,0,2,0,true,q,false,true,0.0-2.0-0.34-0.309-3.309,0,0,0,81,false,stim,false,1,551.5999999642372,2,0,0,24779,task1,1061612,false,false,1111,image-keyboard-response,25
true,8,1,2,0,false,q,true,true,0.0-2.0-0.34-0.310-3.310,0,0,0,90,false,stim,false,2,636.3000000119209,2,0,1,24779,task1,1063755,false,true,1114,image-keyboard-response,26
true,8,0,2,0,true,q,false,true,0.0-2.0-0.34-0.311-3.311,0,0,0,81,false,stim,false,1,601.3999999761581,2,0,0,24779,task1,1065867,false,false,1117,image-keyboard-response,27
true,8,1,2,0,false,q,true,false,0.0-2.0-0.34-0.312-3.312,0,0,0,90,false,stim,false,2,607.5,2,0,1,24779,task1,1067979,false,false,1120,image-keyboard-response,28
true,8,0,2,0,true,q,false,true,0.0-2.0-0.34-0.313-3.313,0,0,0,81,false,stim,false,2,491.5,2,0,1,24779,task1,1069980,false,false,1123,image-keyboard-response,29
true,8,0,2,1,false,z,true,false,0.0-2.0-0.34-0.314-3.314,0,0,0,81,false,stim,false,2,584.5,2,0,2,24779,task1,1072067,false,false,1126,image-keyboard-response,30
true,8,2,2,0,false,q,true,false,0.0-2.0-0.35-0.315-3.315,0,0,0,68,false,stim,false,1,471.19999998807907,2,0,0,24779,task1,1074043,false,false,1129,image-keyboard-response,31
true,8,1,2,0,false,q,true,false,0.0-2.0-0.35-0.316-3.316,0,0,0,90,false,stim,false,2,607.3999999761581,2,0,1,24779,task1,1076163,false,false,1132,image-keyboard-response,32
true,8,0,2,1,false,z,true,false,0.0-2.0-0.35-0.317-3.317,0,0,0,81,false,stim,false,2,652.6999999880791,2,0,2,24779,task1,1078323,false,false,1135,image-keyboard-response,33
true,8,2,2,0,false,q,true,false,0.0-2.0-0.35-0.318-3.318,0,0,0,68,false,stim,false,1,751.7999999523163,2,0,0,24779,task1,1080579,false,false,1138,image-keyboard-response,34
true,8,1,2,0,false,q,true,false,0.0-2.0-0.35-0.319-3.319,0,0,0,90,false,stim,false,2,847.5,2,0,1,24779,task1,1082931,false,false,1141,image-keyboard-response,35
true,8,0,2,0,true,q,false,true,0.0-2.0-0.35-0.320-3.320,0,0,0,81,false,stim,false,1,615.3000000119209,2,0,0,24779,task1,1085051,false,false,1144,image-keyboard-response,36
true,8,2,2,1,false,z,false,false,0.0-2.0-0.35-0.321-3.321,0,0,0,68,false,stim,true,2,1072.199999988079,2,0,2,24779,task1,1087627,false,false,1147,image-keyboard-response,37
true,8,0,2,1,false,z,true,false,0.0-2.0-0.35-0.322-3.322,0,0,0,81,false,stim,false,2,784.0,2,0,2,24779,task1,1089915,false,false,1150,image-keyboard-response,38
true,8,0,2,0,true,q,false,true,0.0-2.0-0.35-0.323-3.323,0,0,0,81,false,stim,false,2,1163.800000011921,2,0,1,24779,task1,1092587,false,false,1153,image-keyboard-response,39
true,9,1,1,2,false,d,true,false,0.0-2.0-0.36-0.324-3.324,0,0,0,90,true,stim,false,0,946.1999999880791,2,0,0,24779,task1,1095042,false,false,1156,image-keyboard-response,1
true,9,1,1,0,false,q,false,true,0.0-2.0-0.36-0.325-3.325,0,0,0,90,false,stim,true,1,1295.5,2,0,2,24779,task1,1097842,false,true,1159,image-keyboard-response,2
true,9,0,1,1,false,z,false,false,0.0-2.0-0.36-0.326-3.326,0,0,0,81,false,stim,true,0,599.5999999642372,2,0,1,24779,task1,1099946,false,false,1162,image-keyboard-response,3
true,9,0,1,2,false,d,false,false,0.0-2.0-0.36-0.327-3.327,0,0,0,81,false,stim,true,0,706.5,2,0,0,24779,task1,1102162,false,false,1165,image-keyboard-response,4
true,9,2,1,1,false,z,true,false,0.0-2.0-0.36-0.328-3.328,0,0,0,68,false,stim,false,0,946.5999999642372,2,0,1,24779,task1,1104619,false,false,1168,image-keyboard-response,5
true,9,1,1,2,false,d,true,false,0.0-2.0-0.36-0.329-3.329,0,0,0,90,false,stim,false,0,579.5,2,0,0,24779,task1,1106706,false,false,1171,image-keyboard-response,6
true,9,0,1,0,true,q,false,true,0.0-2.0-0.36-0.330-3.330,0,0,0,81,false,stim,false,1,884.6999999880791,2,0,2,24779,task1,1109098,false,false,1174,image-keyboard-response,7
true,9,1,1,1,true,z,false,true,0.0-2.0-0.36-0.331-3.331,0,0,0,90,false,stim,false,0,1468.6000000238419,2,0,1,24779,task1,1112074,false,false,1177,image-keyboard-response,8
true,9,0,1,0,true,q,false,true,0.0-2.0-0.36-0.332-3.332,0,0,0,81,false,stim,false,1,679.1000000238419,2,0,2,24779,task1,1114258,false,false,1180,image-keyboard-response,9
true,9,0,1,1,false,z,false,false,0.0-2.0-0.37-0.333-3.333,0,0,0,81,false,stim,true,0,772.6999999880791,2,0,1,24779,task1,1116538,false,false,1183,image-keyboard-response,10
true,9,1,1,1,true,z,false,true,0.0-2.0-0.37-0.334-3.334,0,0,0,90,false,stim,false,0,724.3000000119209,2,0,1,24779,task1,1118770,false,false,1186,image-keyboard-response,11
true,9,0,1,2,false,d,false,false,0.0-2.0-0.37-0.335-3.335,0,0,0,81,false,stim,true,0,743.6000000238419,2,0,0,24779,task1,1121018,false,false,1189,image-keyboard-response,12
true,9,1,1,0,false,q,false,false,0.0-2.0-0.37-0.336-3.336,0,0,0,90,false,stim,true,1,708.0,2,0,2,24779,task1,1123233,false,false,1192,image-keyboard-response,13
true,9,1,1,1,true,z,false,false,0.0-2.0-0.37-0.337-3.337,0,0,0,90,false,stim,false,0,862.5,2,0,1,24779,task1,1125601,false,true,1195,image-keyboard-response,14
true,9,0,1,0,true,q,false,false,0.0-2.0-0.37-0.338-3.338,0,0,0,81,false,stim,false,1,614.8000000119209,2,0,2,24779,task1,1127722,false,true,1198,image-keyboard-response,15
true,9,2,1,2,true,d,false,true,0.0-2.0-0.37-0.339-3.339,0,0,0,68,false,stim,false,0,719.3999999761581,2,0,0,24779,task1,1129953,false,false,1201,image-keyboard-response,16
true,9,0,1,0,true,q,false,true,0.0-2.0-0.37-0.340-3.340,0,0,0,81,false,stim,false,1,991.3999999761581,2,0,2,24779,task1,1132449,false,false,1204,image-keyboard-response,17
true,9,2,1,2,true,d,false,true,0.0-2.0-0.37-0.341-3.341,0,0,0,68,false,stim,false,0,662.1000000238419,2,0,0,24779,task1,1134617,false,false,1207,image-keyboard-response,18
true,9,0,1,0,true,q,false,true,0.0-2.0-0.38-0.342-3.342,0,0,0,81,false,stim,false,1,1280.0,2,0,2,24779,task1,1137401,false,false,1210,image-keyboard-response,19
true,9,0,1,0,true,q,false,true,0.0-2.0-0.38-0.343-3.343,0,0,0,81,false,stim,false,1,851.8000000119209,2,0,2,24779,task1,1139761,false,false,1213,image-keyboard-response,20
true,9,0,1,0,true,q,false,true,0.0-2.0-0.38-0.344-3.344,0,0,0,81,false,stim,false,1,499.5,2,0,2,24779,task1,1141769,false,false,1216,image-keyboard-response,21
true,9,2,1,1,false,z,true,false,0.0-2.0-0.38-0.345-3.345,0,0,0,68,false,stim,false,0,677.1999999880791,2,0,1,24779,task1,1143953,false,false,1219,image-keyboard-response,22
true,9,0,1,1,false,z,false,false,0.0-2.0-0.38-0.346-3.346,0,0,0,81,false,stim,true,0,743.2999999523163,2,0,1,24779,task1,1146201,false,false,1222,image-keyboard-response,23
true,9,0,1,2,false,d,false,false,0.0-2.0-0.38-0.347-3.347,0,0,0,81,false,stim,true,0,826.3999999761581,2,0,0,24779,task1,1148537,false,false,1225,image-keyboard-response,24
true,9,2,1,2,true,d,false,true,0.0-2.0-0.38-0.348-3.348,0,0,0,68,false,stim,false,0,527.6999999880791,2,0,0,24779,task1,1150569,false,false,1228,image-keyboard-response,25
true,9,0,1,1,false,z,false,false,0.0-2.0-0.38-0.349-3.349,0,0,0,81,false,stim,true,0,991.1999999880791,2,0,1,24779,task1,1153065,false,false,1231,image-keyboard-response,26
true,9,2,1,2,true,d,false,false,0.0-2.0-0.38-0.350-3.350,0,0,0,68,false,stim,false,0,965.1000000238419,2,0,0,24779,task1,1155536,false,true,1234,image-keyboard-response,27
true,9,1,1,2,false,d,true,true,0.0-2.0-0.39-0.351-3.351,0,0,0,90,false,stim,false,0,517.1999999880791,2,0,0,24779,task1,1157560,false,true,1237,image-keyboard-response,28
true,9,1,1,1,true,z,false,true,0.0-2.0-0.39-0.352-3.352,0,0,0,90,false,stim,false,0,761.2999999523163,2,0,1,24779,task1,1159832,false,false,1240,image-keyboard-response,29
true,9,1,1,1,true,z,false,true,0.0-2.0-0.39-0.353-3.353,0,0,0,90,false,stim,false,0,871.8999999761581,2,0,1,24779,task1,1162208,false,false,1243,image-keyboard-response,30
true,9,0,1,0,true,q,false,true,0.0-2.0-0.39-0.354-3.354,0,0,0,81,false,stim,false,1,735.0999999642372,2,0,2,24779,task1,1164448,false,false,1246,image-keyboard-response,31
true,9,1,1,1,true,z,false,true,0.0-2.0-0.39-0.355-3.355,0,0,0,90,false,stim,false,0,575.8999999761581,2,0,1,24779,task1,1166528,false,false,1249,image-keyboard-response,32
true,9,1,1,0,false,q,false,true,0.0-2.0-0.39-0.356-3.356,0,0,0,90,false,stim,true,1,967.3999999761581,2,0,2,24779,task1,1169000,false,true,1252,image-keyboard-response,33
true,9,0,1,2,false,d,false,false,0.0-2.0-0.39-0.357-3.357,0,0,0,81,false,stim,true,0,1089.300000011921,2,0,0,24779,task1,1171600,false,false,1255,image-keyboard-response,34
true,9,0,1,0,true,q,false,true,0.0-2.0-0.39-0.358-3.358,0,0,0,81,false,stim,false,1,969.6999999880791,2,0,2,24779,task1,1174080,false,false,1258,image-keyboard-response,35
true,9,1,1,2,false,d,true,false,0.0-2.0-0.39-0.359-3.359,0,0,0,90,false,stim,false,0,575.3000000119209,2,0,0,24779,task1,1176159,false,false,1261,image-keyboard-response,36
true,9,0,1,1,false,z,false,false,0.0-2.0-0.40-0.360-3.360,0,0,0,81,false,stim,true,0,1295.300000011921,2,0,1,24779,task1,1178960,false,false,1264,image-keyboard-response,37
true,9,2,1,1,false,z,true,false,0.0-2.0-0.40-0.361-3.361,0,0,0,68,false,stim,false,0,492.39999997615814,2,0,1,24779,task1,1180959,false,false,1267,image-keyboard-response,38
true,9,1,1,0,false,q,false,false,0.0-2.0-0.40-0.362-3.362,0,0,0,90,false,stim,true,1,1303.0999999642372,2,0,2,24779,task1,1183767,false,false,1270,image-keyboard-response,39
true,9,0,1,2,false,d,false,false,0.0-2.0-0.40-0.363-3.363,0,0,0,81,false,stim,true,0,684.6999999880791,2,0,0,24779,task1,1185959,false,false,1273,image-keyboard-response,40
true,9,0,1,2,false,d,false,false,0.0-2.0-0.40-0.364-3.364,0,0,0,81,false,stim,true,0,887.2999999523163,2,0,0,24779,task1,1188351,false,false,1276,image-keyboard-response,41
true,9,2,1,0,false,q,true,false,0.0-2.0-0.40-0.365-3.365,0,0,0,68,false,stim,false,1,95.0,2,0,2,24779,task1,1189951,false,false,1279,image-keyboard-response,42
true,9,1,1,0,false,q,false,false,0.0-2.0-0.40-0.366-3.366,0,0,0,90,false,stim,true,1,765.0,2,0,2,24779,task1,1192223,false,false,1282,image-keyboard-response,43
true,10,0,2,0,true,q,false,true,0.0-2.0-0.40-0.367-3.367,0,0,0,81,true,stim,false,1,983.1999999880791,2,0,1,24779,task1,1194711,false,false,1285,image-keyboard-response,1
true,10,0,2,0,true,q,false,false,0.0-2.0-0.40-0.368-3.368,0,0,0,81,false,stim,false,2,1663.699999988079,2,0,0,24779,task1,1197879,false,true,1288,image-keyboard-response,2
true,10,1,2,0,false,q,true,false,0.0-2.0-0.41-0.369-3.369,0,0,0,90,false,stim,false,2,719.6000000238419,2,0,0,24779,task1,1200103,false,false,1291,image-keyboard-response,3
true,10,2,2,0,false,q,false,false,0.0-2.0-0.41-0.370-3.370,0,0,0,68,false,stim,true,2,760.5,2,0,0,24779,task1,1202367,false,false,1294,image-keyboard-response,4
true,10,1,2,0,false,q,true,false,0.0-2.0-0.41-0.371-3.371,0,0,0,90,false,stim,false,2,716.1999999880791,2,0,0,24779,task1,1204591,false,false,1297,image-keyboard-response,5
true,10,0,2,0,true,q,false,false,0.0-2.0-0.41-0.372-3.372,0,0,0,81,false,stim,false,1,301.39999997615814,2,0,1,24779,task1,1206398,false,true,1300,image-keyboard-response,6
true,10,0,2,0,true,q,false,true,0.0-2.0-0.41-0.373-3.373,0,0,0,81,false,stim,false,1,1099.0,2,0,1,24779,task1,1209007,false,false,1303,image-keyboard-response,7
true,10,0,2,0,true,q,false,true,0.0-2.0-0.41-0.374-3.374,0,0,0,81,false,stim,false,1,729.3999999761581,2,0,1,24779,task1,1211246,false,false,1306,image-keyboard-response,8
true,10,1,2,1,true,z,false,true,0.0-2.0-0.41-0.375-3.375,0,0,0,90,false,stim,false,0,807.2999999523163,2,0,2,24779,task1,1213558,false,false,1309,image-keyboard-response,9
true,10,1,2,1,true,z,false,true,0.0-2.0-0.41-0.376-3.376,0,0,0,90,false,stim,false,0,800.3999999761581,2,0,2,24779,task1,1215862,false,false,1312,image-keyboard-response,10
true,10,1,2,1,true,z,false,true,0.0-2.0-0.41-0.377-3.377,0,0,0,90,false,stim,false,0,592.0,2,0,2,24779,task1,1217959,false,false,1315,image-keyboard-response,11
true,10,0,2,0,true,q,false,true,0.0-2.0-0.42-0.378-3.378,0,0,0,81,false,stim,false,1,1467.699999988079,2,0,1,24779,task1,1220934,false,false,1318,image-keyboard-response,12
true,10,2,2,1,false,z,true,false,0.0-2.0-0.42-0.379-3.379,0,0,0,68,false,stim,false,0,2519.0,2,0,2,24779,task1,1224958,false,false,1321,image-keyboard-response,13
true,10,0,2,0,true,q,false,true,0.0-2.0-0.42-0.380-3.380,0,0,0,81,false,stim,false,1,1099.199999988079,2,0,1,24779,task1,1227566,false,false,1324,image-keyboard-response,14
true,10,1,2,0,false,q,true,false,0.0-2.0-0.42-0.381-3.381,0,0,0,90,false,stim,false,2,1165.3999999761581,2,0,0,24779,task1,1230238,false,false,1327,image-keyboard-response,15
true,10,0,2,1,false,z,false,false,0.0-2.0-0.42-0.382-3.382,0,0,0,81,false,stim,true,0,919.5,2,0,2,24779,task1,1232662,false,false,1330,image-keyboard-response,16
true,10,1,2,0,false,q,true,false,0.0-2.0-0.42-0.383-3.383,0,0,0,90,false,stim,false,2,1782.5,2,0,0,24779,task1,1235950,false,false,1333,image-keyboard-response,17
true,10,1,2,1,true,z,false,true,0.0-2.0-0.42-0.384-3.384,0,0,0,90,false,stim,false,0,1517.2999999523163,2,0,2,24779,task1,1238973,false,false,1336,image-keyboard-response,18
true,10,0,2,0,true,q,false,true,0.0-2.0-0.42-0.385-3.385,0,0,0,81,false,stim,false,2,700.3000000119209,2,0,0,24779,task1,1241181,false,false,1339,image-keyboard-response,19
true,10,0,2,0,true,q,false,true,0.0-2.0-0.42-0.386-3.386,0,0,0,81,false,stim,false,1,695.8999999761581,2,0,1,24779,task1,1243382,false,false,1342,image-keyboard-response,20
true,10,1,2,1,true,z,false,true,0.0-2.0-0.43-0.387-3.387,0,0,0,90,false,stim,false,0,1014.5,2,0,2,24779,task1,1245901,false,false,1345,image-keyboard-response,21
true,10,1,2,0,false,q,true,false,0.0-2.0-0.43-0.388-3.388,0,0,0,90,false,stim,false,2,1493.5999999642372,2,0,0,24779,task1,1248901,false,false,1348,image-keyboard-response,22
true,10,0,2,0,true,q,false,true,0.0-2.0-0.43-0.389-3.389,0,0,0,81,false,stim,false,2,759.5999999642372,2,0,0,24779,task1,1251165,false,false,1351,image-keyboard-response,23
true,10,1,2,1,true,z,false,true,0.0-2.0-0.43-0.390-3.390,0,0,0,90,false,stim,false,0,2324.399999976158,2,0,2,24779,task1,1254997,false,false,1354,image-keyboard-response,24
true,10,1,2,1,true,z,false,true,0.0-2.0-0.43-0.391-3.391,0,0,0,90,false,stim,false,0,645.8000000119209,2,0,2,24779,task1,1257148,false,false,1357,image-keyboard-response,25
true,10,0,2,0,true,q,false,true,0.0-2.0-0.43-0.392-3.392,0,0,0,81,false,stim,false,2,1086.0999999642372,2,0,0,24779,task1,1259740,false,false,1360,image-keyboard-response,26
true,10,0,2,0,true,q,false,true,0.0-2.0-0.43-0.393-3.393,0,0,0,81,false,stim,false,1,845.1000000238419,2,0,1,24779,task1,1262092,false,false,1363,image-keyboard-response,27
true,10,0,2,0,true,q,false,true,0.0-2.0-0.43-0.394-3.394,0,0,0,81,false,stim,false,1,683.8000000119209,2,0,1,24779,task1,1264284,false,false,1366,image-keyboard-response,28
true,10,0,2,0,true,q,false,true,0.0-2.0-0.43-0.395-3.395,0,0,0,81,false,stim,false,1,523.0,2,0,1,24779,task1,1266316,false,false,1369,image-keyboard-response,29
true,10,1,2,1,true,z,false,false,0.0-2.0-0.44-0.396-3.396,0,0,0,90,false,stim,false,0,1364.0999999642372,2,0,2,24779,task1,1269188,false,true,1372,image-keyboard-response,30
true,10,0,2,0,true,q,false,true,0.0-2.0-0.44-0.397-3.397,0,0,0,81,false,stim,false,1,1768.2999999523163,2,0,1,24779,task1,1272460,false,false,1375,image-keyboard-response,31
true,10,0,2,1,false,z,false,false,0.0-2.0-0.44-0.398-3.398,0,0,0,81,false,stim,true,0,751.1000000238419,2,0,2,24779,task1,1274716,false,false,1378,image-keyboard-response,32
true,10,0,2,0,true,q,false,true,0.0-2.0-0.44-0.399-3.399,0,0,0,81,false,stim,false,1,1084.0,2,0,1,24779,task1,1277308,false,false,1381,image-keyboard-response,33
true,10,0,2,0,true,q,false,true,0.0-2.0-0.44-0.400-3.400,0,0,0,81,false,stim,false,1,692.1000000238419,2,0,1,24779,task1,1279507,false,false,1384,image-keyboard-response,34
true,10,1,2,1,true,z,false,true,0.0-2.0-0.44-0.401-3.401,0,0,0,90,false,stim,false,0,1832.0,2,0,2,24779,task1,1282843,false,false,1387,image-keyboard-response,35
true,10,1,2,0,false,q,true,false,0.0-2.0-0.44-0.402-3.402,0,0,0,90,false,stim,false,2,899.5,2,0,0,24779,task1,1285251,false,false,1390,image-keyboard-response,36
true,10,0,2,0,true,q,false,true,0.0-2.0-0.44-0.403-3.403,0,0,0,81,false,stim,false,2,608.3000000119209,2,0,0,24779,task1,1287364,false,false,1393,image-keyboard-response,37
true,10,0,2,0,true,q,false,true,0.0-2.0-0.44-0.404-3.404,0,0,0,81,false,stim,false,2,583.0999999642372,2,0,0,24779,task1,1289451,false,false,1396,image-keyboard-response,38
true,10,0,2,0,true,q,false,true,0.0-2.0-0.45-0.405-3.405,0,0,0,81,false,stim,false,2,608.0999999642372,2,0,0,24779,task1,1291563,false,false,1399,image-keyboard-response,39
true,10,0,2,0,true,q,false,true,0.0-2.0-0.45-0.406-3.406,0,0,0,81,false,stim,false,1,646.5,2,0,1,24779,task1,1293723,false,false,1402,image-keyboard-response,40
true,10,0,2,0,true,q,false,true,0.0-2.0-0.45-0.407-3.407,0,0,0,81,false,stim,false,1,639.6999999880791,2,0,1,24779,task1,1295867,false,false,1405,image-keyboard-response,41
true,10,0,2,0,true,q,false,true,0.0-2.0-0.45-0.408-3.408,0,0,0,81,false,stim,false,1,448.5,2,0,1,24779,task1,1297819,false,false,1408,image-keyboard-response,42
true,10,0,2,0,true,q,false,true,0.0-2.0-0.45-0.409-3.409,0,0,0,81,false,stim,false,2,836.1000000238419,2,0,0,24779,task1,1300163,false,false,1411,image-keyboard-response,43
true,10,1,2,1,true,z,false,true,0.0-2.0-0.45-0.410-3.410,0,0,0,90,false,stim,false,0,1038.9000000357628,2,0,2,24779,task1,1302707,false,false,1414,image-keyboard-response,44
true,10,1,2,1,true,z,false,true,0.0-2.0-0.45-0.411-3.411,0,0,0,90,false,stim,false,0,495.7000000476837,2,0,2,24779,task1,1304707,false,false,1417,image-keyboard-response,45
true,11,1,2,2,false,d,false,false,0.0-2.0-0.45-0.412-3.412,0,0,0,90,true,stim,true,1,488.0,2,0,2,24779,task1,1306698,false,false,1420,image-keyboard-response,1
true,11,1,2,1,true,z,false,true,0.0-2.0-0.45-0.413-3.413,0,0,0,90,false,stim,false,0,1980.3999999761581,2,0,0,24779,task1,1310187,false,false,1423,image-keyboard-response,2
true,11,0,2,1,false,z,false,false,0.0-2.0-0.46-0.414-3.414,0,0,0,81,false,stim,true,0,1191.0999999642372,2,0,1,24779,task1,1312882,false,false,1426,image-keyboard-response,3
true,11,2,2,2,true,d,false,true,0.0-2.0-0.46-0.415-3.415,0,0,0,68,false,stim,false,1,1401.800000011921,2,0,2,24779,task1,1315794,false,false,1429,image-keyboard-response,4
true,11,1,2,1,true,z,false,true,0.0-2.0-0.46-0.416-3.416,0,0,0,90,false,stim,false,0,719.9000000357628,2,0,1,24779,task1,1318018,false,false,1432,image-keyboard-response,5
true,11,1,2,1,true,z,false,true,0.0-2.0-0.46-0.417-3.417,0,0,0,90,false,stim,false,0,736.5999999642372,2,0,0,24779,task1,1320259,false,false,1435,image-keyboard-response,6
true,11,2,2,2,true,d,false,true,0.0-2.0-0.46-0.418-3.418,0,0,0,68,false,stim,false,1,817.7000000476837,2,0,2,24779,task1,1322586,false,false,1438,image-keyboard-response,7
true,11,2,2,2,true,d,false,false,0.0-2.0-0.46-0.419-3.419,0,0,0,68,false,stim,false,1,853.0,2,0,2,24779,task1,1324946,false,true,1441,image-keyboard-response,8
true,11,1,2,1,true,z,false,true,0.0-2.0-0.46-0.420-3.420,0,0,0,90,false,stim,false,0,2285.599999964237,2,0,1,24779,task1,1328735,false,false,1444,image-keyboard-response,9
true,11,1,2,1,true,z,false,true,0.0-2.0-0.46-0.421-3.421,0,0,0,90,false,stim,false,0,940.8999999761581,2,0,0,24779,task1,1331184,false,false,1447,image-keyboard-response,10
true,11,1,2,1,true,z,false,true,0.0-2.0-0.46-0.422-3.422,0,0,0,90,false,stim,false,0,718.3000000119209,2,0,0,24779,task1,1333407,false,false,1450,image-keyboard-response,11
true,11,0,2,2,false,d,true,false,0.0-2.0-0.47-0.423-3.423,0,0,0,81,false,stim,false,1,1455.5999999642372,2,0,2,24779,task1,1336367,false,false,1453,image-keyboard-response,12
true,11,2,2,2,true,d,false,false,0.0-2.0-0.47-0.424-3.424,0,0,0,68,false,stim,false,1,813.3999999761581,2,0,2,24779,task1,1338687,false,true,1456,image-keyboard-response,13
true,11,1,2,1,true,z,false,true,0.0-2.0-0.47-0.425-3.425,0,0,0,90,false,stim,false,0,1527.8999999761581,2,0,1,24779,task1,1341719,false,false,1459,image-keyboard-response,14
true,11,1,2,1,true,z,false,true,0.0-2.0-0.47-0.426-3.426,0,0,0,90,false,stim,false,0,727.5999999642372,2,0,1,24779,task1,1343951,false,false,1462,image-keyboard-response,15
true,11,1,2,1,true,z,false,true,0.0-2.0-0.47-0.427-3.427,0,0,0,90,false,stim,false,0,823.8000000119209,2,0,1,24779,task1,1346280,false,false,1465,image-keyboard-response,16
true,11,1,2,1,true,z,false,true,0.0-2.0-0.47-0.428-3.428,0,0,0,90,false,stim,false,0,662.4000000357628,2,0,0,24779,task1,1348447,false,false,1468,image-keyboard-response,17
true,11,1,2,1,true,z,false,true,0.0-2.0-0.47-0.429-3.429,0,0,0,90,false,stim,false,0,750.6999999880791,2,0,0,24779,task1,1350703,false,false,1471,image-keyboard-response,18
true,11,1,2,2,false,d,false,false,0.0-2.0-0.47-0.430-3.430,0,0,0,90,false,stim,true,1,683.8999999761581,2,0,2,24779,task1,1352895,false,false,1474,image-keyboard-response,19
true,11,1,2,1,true,z,false,true,0.0-2.0-0.47-0.431-3.431,0,0,0,90,false,stim,false,0,1039.7999999523163,2,0,0,24779,task1,1355439,false,false,1477,image-keyboard-response,20
true,11,1,2,1,true,z,false,true,0.0-2.0-0.48-0.432-3.432,0,0,0,90,false,stim,false,0,951.5,2,0,1,24779,task1,1357895,false,false,1480,image-keyboard-response,21
true,11,1,2,2,false,d,false,false,0.0-2.0-0.48-0.433-3.433,0,0,0,90,false,stim,true,1,987.6999999880791,2,0,2,24779,task1,1360391,false,false,1483,image-keyboard-response,22
true,11,1,2,1,true,z,false,true,0.0-2.0-0.48-0.434-3.434,0,0,0,90,false,stim,false,0,655.0,2,0,0,24779,task1,1362550,false,false,1486,image-keyboard-response,23
true,11,1,2,1,true,z,false,true,0.0-2.0-0.48-0.435-3.435,0,0,0,90,false,stim,false,0,679.6999999880791,2,0,0,24779,task1,1364735,false,false,1489,image-keyboard-response,24
true,11,1,2,1,true,z,false,true,0.0-2.0-0.48-0.436-3.436,0,0,0,90,false,stim,false,0,1019.5,2,0,1,24779,task1,1367262,false,false,1492,image-keyboard-response,25
true,11,0,2,2,false,d,true,false,0.0-2.0-0.48-0.437-3.437,0,0,0,81,false,stim,false,1,946.1999999880791,2,0,2,24779,task1,1369718,false,false,1495,image-keyboard-response,26
true,11,1,2,1,true,z,false,false,0.0-2.0-0.48-0.438-3.438,0,0,0,90,false,stim,false,0,1252.699999988079,2,0,1,24779,task1,1372478,false,true,1498,image-keyboard-response,27
true,11,2,2,2,true,d,false,true,0.0-2.0-0.48-0.439-3.439,0,0,0,68,false,stim,false,1,729.4000000357628,2,0,2,24779,task1,1374718,false,false,1501,image-keyboard-response,28
true,11,1,2,1,true,z,false,true,0.0-2.0-0.48-0.440-3.440,0,0,0,90,false,stim,false,0,1021.8999999761581,2,0,0,24779,task1,1377246,false,false,1504,image-keyboard-response,29
true,11,2,2,2,true,d,false,true,0.0-2.0-0.49-0.441-3.441,0,0,0,68,false,stim,false,1,828.8000000119209,2,0,2,24779,task1,1379582,false,false,1507,image-keyboard-response,30
true,11,2,2,2,true,d,false,true,0.0-2.0-0.49-0.442-3.442,0,0,0,68,false,stim,false,1,600.1999999880791,2,0,2,24779,task1,1381686,false,false,1510,image-keyboard-response,31
true,11,1,2,1,true,z,false,false,0.0-2.0-0.49-0.443-3.443,0,0,0,90,false,stim,false,0,622.6999999880791,2,0,1,24779,task1,1383814,false,true,1513,image-keyboard-response,32
true,11,0,2,1,false,z,false,false,0.0-2.0-0.49-0.444-3.444,0,0,0,81,false,stim,true,0,1837.8999999761581,2,0,0,24779,task1,1387158,false,false,1516,image-keyboard-response,33
true,11,1,2,1,true,z,false,true,0.0-2.0-0.49-0.445-3.445,0,0,0,90,false,stim,false,0,552.1000000238419,2,0,0,24779,task1,1389214,false,false,1519,image-keyboard-response,34
true,11,2,2,2,true,d,false,true,0.0-2.0-0.49-0.446-3.446,0,0,0,68,false,stim,false,1,731.8999999761581,2,0,2,24779,task1,1391454,false,false,1522,image-keyboard-response,35
true,11,1,2,1,true,z,false,false,0.0-2.0-0.49-0.447-3.447,0,0,0,90,false,stim,false,0,724.0,2,0,0,24779,task1,1393686,false,true,1525,image-keyboard-response,36
true,11,1,2,1,true,z,false,false,0.0-2.0-0.49-0.448-3.448,0,0,0,90,false,stim,false,0,897.5999999642372,2,0,1,24779,task1,1396094,false,true,1528,image-keyboard-response,37
true,11,2,2,1,false,z,true,false,0.0-2.0-0.49-0.449-3.449,0,0,0,68,false,stim,false,0,877.6999999880791,2,0,1,24779,task1,1398478,false,false,1531,image-keyboard-response,38
true,11,0,2,1,false,z,false,false,0.0-2.0-0.50-0.450-3.450,0,0,0,81,false,stim,true,0,581.7000000476837,2,0,1,24779,task1,1400566,false,false,1534,image-keyboard-response,39
true,11,1,2,1,true,z,false,true,0.0-2.0-0.50-0.451-3.451,0,0,0,90,false,stim,false,0,846.6999999880791,2,0,0,24779,task1,1402917,false,false,1537,image-keyboard-response,40
true,11,1,2,1,true,z,false,true,0.0-2.0-0.50-0.452-3.452,0,0,0,90,false,stim,false,0,510.19999998807907,2,0,0,24779,task1,1404934,false,false,1540,image-keyboard-response,41
true,11,2,2,2,true,d,false,true,0.0-2.0-0.50-0.453-3.453,0,0,0,68,false,stim,false,1,675.4000000357628,2,0,2,24779,task1,1407117,false,false,1543,image-keyboard-response,42
true,12,0,1,0,true,q,false,true,0.0-2.0-0.50-0.454-3.454,0,0,0,81,true,stim,false,1,1965.699999988079,2,0,1,24779,task1,1410590,false,false,1546,image-keyboard-response,1
true,12,2,1,0,false,q,false,false,0.0-2.0-0.50-0.455-3.455,0,0,0,68,false,stim,true,2,843.8000000119209,2,0,2,24779,task1,1412941,false,false,1549,image-keyboard-response,2
true,12,0,1,2,false,d,true,false,0.0-2.0-0.50-0.456-3.456,0,0,0,81,false,stim,false,1,955.6999999880791,2,0,0,24779,task1,1415405,false,false,1552,image-keyboard-response,3
true,12,0,1,0,true,q,false,true,0.0-2.0-0.50-0.457-3.457,0,0,0,81,false,stim,false,1,712.0,2,0,1,24779,task1,1417621,false,false,1555,image-keyboard-response,4
true,12,0,1,0,true,q,false,true,0.0-2.0-0.50-0.458-3.458,0,0,0,81,false,stim,false,2,1175.699999988079,2,0,2,24779,task1,1420301,false,false,1558,image-keyboard-response,5
true,12,1,1,2,false,d,false,false,0.0-2.0-0.51-0.459-3.459,0,0,0,90,false,stim,true,1,803.6000000238419,2,0,0,24779,task1,1422613,false,false,1561,image-keyboard-response,6
true,12,0,1,0,true,q,false,true,0.0-2.0-0.51-0.460-3.460,0,0,0,81,false,stim,false,2,856.3999999761581,2,0,2,24779,task1,1424973,false,false,1564,image-keyboard-response,7
true,12,0,1,2,false,d,true,false,0.0-2.0-0.51-0.461-3.461,0,0,0,81,false,stim,false,1,804.6999999880791,2,0,0,24779,task1,1427285,false,false,1567,image-keyboard-response,8
true,12,0,1,0,true,q,false,true,0.0-2.0-0.51-0.462-3.462,0,0,0,81,false,stim,false,2,959.5999999642372,2,0,2,24779,task1,1429748,false,false,1570,image-keyboard-response,9
true,12,2,1,2,true,d,false,true,0.0-2.0-0.51-0.463-3.463,0,0,0,68,false,stim,false,1,767.7999999523163,2,0,0,24779,task1,1432021,false,false,1573,image-keyboard-response,10
true,12,0,1,0,true,q,false,true,0.0-2.0-0.51-0.464-3.464,0,0,0,81,false,stim,false,1,731.6999999880791,2,0,1,24779,task1,1434261,false,false,1576,image-keyboard-response,11
true,12,0,1,0,true,q,false,true,0.0-2.0-0.51-0.465-3.465,0,0,0,81,false,stim,false,1,564.6999999880791,2,0,1,24779,task1,1436332,false,false,1579,image-keyboard-response,12
true,12,0,1,0,true,q,false,true,0.0-2.0-0.51-0.466-3.466,0,0,0,81,false,stim,false,2,911.3999999761581,2,0,2,24779,task1,1438748,false,false,1582,image-keyboard-response,13
true,12,0,1,0,true,q,false,true,0.0-2.0-0.51-0.467-3.467,0,0,0,81,false,stim,false,1,688.0,2,0,1,24779,task1,1440940,false,false,1585,image-keyboard-response,14
true,12,2,1,2,true,d,false,true,0.0-2.0-0.52-0.468-3.468,0,0,0,68,false,stim,false,1,1284.0,2,0,0,24779,task1,1443732,false,false,1588,image-keyboard-response,15
true,12,2,1,2,true,d,false,false,0.0-2.0-0.52-0.469-3.469,0,0,0,68,false,stim,false,1,596.0,2,0,0,24779,task1,1445836,false,true,1591,image-keyboard-response,16
true,12,0,1,0,true,q,false,true,0.0-2.0-0.52-0.470-3.470,0,0,0,81,false,stim,false,1,662.5999999642372,2,0,1,24779,task1,1448004,false,false,1594,image-keyboard-response,17
true,12,0,1,0,true,q,false,true,0.0-2.0-0.52-0.471-3.471,0,0,0,81,false,stim,false,2,831.5999999642372,2,0,2,24779,task1,1450340,false,false,1597,image-keyboard-response,18
true,12,1,1,2,false,d,false,false,0.0-2.0-0.52-0.472-3.472,0,0,0,90,false,stim,true,1,1731.5,2,0,0,24779,task1,1453580,false,false,1600,image-keyboard-response,19
true,12,2,1,0,false,q,false,false,0.0-2.0-0.52-0.473-3.473,0,0,0,68,false,stim,true,2,936.3999999761581,2,0,2,24779,task1,1456028,false,false,1603,image-keyboard-response,20
true,12,0,1,0,true,q,false,true,0.0-2.0-0.52-0.474-3.474,0,0,0,81,false,stim,false,1,1154.2999999523163,2,0,1,24779,task1,1458692,false,false,1606,image-keyboard-response,21
true,12,0,1,0,true,q,false,true,0.0-2.0-0.52-0.475-3.475,0,0,0,81,false,stim,false,2,926.4000000357628,2,0,2,24779,task1,1461123,false,false,1609,image-keyboard-response,22
true,12,0,1,0,true,q,false,true,0.0-2.0-0.52-0.476-3.476,0,0,0,81,false,stim,false,1,788.5,2,0,1,24779,task1,1463419,false,false,1612,image-keyboard-response,23
true,12,1,1,2,false,d,false,false,0.0-2.0-0.53-0.477-3.477,0,0,0,90,false,stim,true,1,891.5999999642372,2,0,0,24779,task1,1465819,false,false,1615,image-keyboard-response,24
true,12,0,1,0,true,q,false,true,0.0-2.0-0.53-0.478-3.478,0,0,0,81,false,stim,false,1,852.0,2,0,1,24779,task1,1468179,false,false,1618,image-keyboard-response,25
true,12,0,1,0,true,q,false,true,0.0-2.0-0.53-0.479-3.479,0,0,0,81,false,stim,false,2,880.1999999880791,2,0,2,24779,task1,1470563,false,false,1621,image-keyboard-response,26
true,12,0,1,0,true,q,false,true,0.0-2.0-0.53-0.480-3.480,0,0,0,81,false,stim,false,1,844.5,2,0,1,24779,task1,1472915,false,false,1624,image-keyboard-response,27
true,12,0,1,0,true,q,false,false,0.0-2.0-0.53-0.481-3.481,0,0,0,81,false,stim,false,2,1668.3999999761581,2,0,2,24779,task1,1476091,false,true,1627,image-keyboard-response,28
true,12,0,1,2,false,d,true,false,0.0-2.0-0.53-0.482-3.482,0,0,0,81,false,stim,false,1,804.0999999642372,2,0,0,24779,task1,1478403,false,false,1630,image-keyboard-response,29
true,12,0,1,0,true,q,false,true,0.0-2.0-0.53-0.483-3.483,0,0,0,81,false,stim,false,1,844.2000000476837,2,0,1,24779,task1,1480755,false,false,1633,image-keyboard-response,30
true,12,2,1,0,false,q,false,false,0.0-2.0-0.53-0.484-3.484,0,0,0,68,false,stim,true,2,919.7999999523163,2,0,2,24779,task1,1483179,false,false,1636,image-keyboard-response,31
true,12,1,1,2,false,d,false,false,0.0-2.0-0.53-0.485-3.485,0,0,0,90,false,stim,true,1,839.5999999642372,2,0,0,24779,task1,1485522,false,false,1639,image-keyboard-response,32
true,12,0,1,0,true,q,false,true,0.0-2.0-0.54-0.486-3.486,0,0,0,81,false,stim,false,2,795.3000000119209,2,0,2,24779,task1,1487826,false,false,1642,image-keyboard-response,33
true,12,0,1,2,false,d,true,false,0.0-2.0-0.54-0.487-3.487,0,0,0,81,false,stim,false,1,622.0999999642372,2,0,0,24779,task1,1489955,false,false,1645,image-keyboard-response,34
true,12,0,1,0,true,q,false,false,0.0-2.0-0.54-0.488-3.488,0,0,0,81,false,stim,false,1,1231.0,2,0,1,24779,task1,1492690,false,true,1648,image-keyboard-response,35
true,12,2,1,2,true,d,false,true,0.0-2.0-0.54-0.489-3.489,0,0,0,68,false,stim,false,1,735.3999999761581,2,0,0,24779,task1,1494930,false,false,1651,image-keyboard-response,36
true,12,2,1,0,false,q,false,false,0.0-2.0-0.54-0.490-3.490,0,0,0,68,false,stim,true,2,1695.7999999523163,2,0,2,24779,task1,1498130,false,false,1654,image-keyboard-response,37
true,12,1,1,0,false,q,false,false,0.0-2.0-0.54-0.491-3.491,0,0,0,90,false,stim,true,1,864.0,2,0,1,24779,task1,1500498,false,false,1657,image-keyboard-response,38
true,12,0,1,0,true,q,false,true,0.0-2.0-0.54-0.492-3.492,0,0,0,81,false,stim,false,1,786.5999999642372,2,0,1,24779,task1,1502794,false,false,1660,image-keyboard-response,39
true,12,1,1,0,false,q,true,false,0.0-2.0-0.54-0.493-3.493,0,0,0,90,false,stim,false,2,855.5999999642372,2,0,2,24779,task1,1505154,false,false,1663,image-keyboard-response,40
true,12,1,1,2,false,d,false,false,0.0-2.0-0.54-0.494-3.494,0,0,0,90,false,stim,true,1,980.6999999880791,2,0,0,24779,task1,1507642,false,false,1666,image-keyboard-response,41
true,12,0,1,0,true,q,false,true,0.0-2.0-0.55-0.495-3.495,0,0,0,81,false,stim,false,2,1391.0,2,0,2,24779,task1,1510538,false,false,1669,image-keyboard-response,42
true,12,0,1,0,true,q,false,false,0.0-2.0-0.55-0.496-3.496,0,0,0,81,false,stim,false,1,743.3000000119209,2,0,1,24779,task1,1512786,false,true,1672,image-keyboard-response,43
true,12,2,1,0,false,q,false,false,0.0-2.0-0.55-0.497-3.497,0,0,0,68,false,stim,true,2,611.5999999642372,2,0,2,24779,task1,1514905,false,false,1675,image-keyboard-response,44
true,12,1,1,2,false,d,false,false,0.0-2.0-0.55-0.498-3.498,0,0,0,90,false,stim,true,1,571.6999999880791,2,0,0,24779,task1,1516986,false,false,1678,image-keyboard-response,45
true,13,0,2,1,false,z,true,false,0.0-2.0-0.55-0.499-3.499,0,0,0,81,true,stim,false,2,595.6999999880791,2,0,0,24779,task1,1519089,false,false,1681,image-keyboard-response,1
true,13,0,2,2,false,d,false,true,0.0-2.0-0.55-0.500-3.500,0,0,0,81,false,stim,true,0,772.8000000119209,2,0,2,24779,task1,1521370,false,true,1684,image-keyboard-response,2
true,13,2,2,1,false,z,false,false,0.0-2.0-0.55-0.501-3.501,0,0,0,68,false,stim,true,2,516.5999999642372,2,0,0,24779,task1,1523393,false,false,1687,image-keyboard-response,3
true,13,0,2,1,false,z,false,false,0.0-2.0-0.55-0.502-3.502,0,0,0,81,false,stim,true,0,1031.8999999761581,2,0,1,24779,task1,1525929,false,false,1690,image-keyboard-response,4
true,13,2,2,1,false,z,true,false,0.0-2.0-0.55-0.503-3.503,0,0,0,68,false,stim,false,0,604.6999999880791,2,0,1,24779,task1,1528041,false,false,1693,image-keyboard-response,5
true,13,0,2,1,false,z,true,false,0.0-2.0-0.56-0.504-3.504,0,0,0,81,false,stim,false,2,833.8000000119209,2,0,0,24779,task1,1530385,false,false,1696,image-keyboard-response,6
true,13,1,2,1,true,z,false,true,0.0-2.0-0.56-0.505-3.505,0,0,0,90,false,stim,false,2,574.6000000238419,2,0,0,24779,task1,1532465,false,false,1699,image-keyboard-response,7
true,13,1,2,1,true,z,false,false,0.0-2.0-0.56-0.506-3.506,0,0,0,90,false,stim,false,0,646.6000000238419,2,0,1,24779,task1,1534625,false,true,1702,image-keyboard-response,8
true,13,1,2,1,true,z,false,false,0.0-2.0-0.56-0.507-3.507,0,0,0,90,false,stim,false,2,727.6999999880791,2,0,0,24779,task1,1536857,false,true,1705,image-keyboard-response,9
true,13,0,2,1,false,z,false,false,0.0-2.0-0.56-0.508-3.508,0,0,0,81,false,stim,true,0,1021.6999999880791,2,0,1,24779,task1,1539385,false,false,1708,image-keyboard-response,10
true,13,1,2,2,false,d,true,false,0.0-2.0-0.56-0.509-3.509,0,0,0,90,false,stim,false,0,520.6999999880791,2,0,2,24779,task1,1541417,false,false,1711,image-keyboard-response,11
true,13,2,2,1,false,z,true,false,0.0-2.0-0.56-0.510-3.510,0,0,0,68,false,stim,false,0,646.3000000119209,2,0,1,24779,task1,1543569,false,false,1714,image-keyboard-response,12
true,13,2,2,2,true,d,false,true,0.0-2.0-0.56-0.511-3.511,0,0,0,68,false,stim,false,0,1644.8999999761581,2,0,2,24779,task1,1546721,false,false,1717,image-keyboard-response,13
true,13,2,2,2,true,d,false,true,0.0-2.0-0.56-0.512-3.512,0,0,0,68,false,stim,false,0,743.4000000357628,2,0,2,24779,task1,1548968,false,false,1720,image-keyboard-response,14
true,13,2,2,2,true,d,false,false,0.0-2.0-0.57-0.513-3.513,0,0,0,68,false,stim,false,0,503.0999999642372,2,0,2,24779,task1,1550976,false,true,1723,image-keyboard-response,15
true,13,0,2,1,false,z,true,false,0.0-2.0-0.57-0.514-3.514,0,0,0,81,false,stim,false,2,759.6999999880791,2,0,0,24779,task1,1553240,false,false,1726,image-keyboard-response,16
true,13,0,2,2,false,d,false,false,0.0-2.0-0.57-0.515-3.515,0,0,0,81,false,stim,true,0,728.1999999880791,2,0,2,24779,task1,1555473,false,false,1729,image-keyboard-response,17
true,13,1,2,1,true,z,false,true,0.0-2.0-0.57-0.516-3.516,0,0,0,90,false,stim,false,2,46.39999997615814,2,0,0,24779,task1,1557024,false,false,1732,image-keyboard-response,18
true,13,1,2,1,true,z,false,true,0.0-2.0-0.57-0.517-3.517,0,0,0,90,false,stim,false,0,1079.6000000238419,2,0,1,24779,task1,1559608,false,false,1735,image-keyboard-response,19
true,13,1,2,1,true,z,false,true,0.0-2.0-0.57-0.518-3.518,0,0,0,90,false,stim,false,2,806.5,2,0,0,24779,task1,1561920,false,false,1738,image-keyboard-response,20
true,13,1,2,1,true,z,false,true,0.0-2.0-0.57-0.519-3.519,0,0,0,90,false,stim,false,0,719.7999999523163,2,0,1,24779,task1,1564144,false,false,1741,image-keyboard-response,21
true,13,0,2,2,false,d,false,false,0.0-2.0-0.57-0.520-3.520,0,0,0,81,false,stim,true,0,803.1999999880791,2,0,2,24779,task1,1566456,false,false,1744,image-keyboard-response,22
true,13,1,2,1,true,z,false,true,0.0-2.0-0.57-0.521-3.521,0,0,0,90,false,stim,false,0,725.4000000357628,2,0,1,24779,task1,1568688,false,false,1747,image-keyboard-response,23
true,13,2,2,2,true,d,false,true,0.0-2.0-0.58-0.522-3.522,0,0,0,68,false,stim,false,0,902.5,2,0,2,24779,task1,1571095,false,false,1750,image-keyboard-response,24
true,13,1,2,1,true,z,false,true,0.0-2.0-0.58-0.523-3.523,0,0,0,90,false,stim,false,0,538.5999999642372,2,0,1,24779,task1,1573143,false,false,1753,image-keyboard-response,25
true,13,1,2,1,true,z,false,true,0.0-2.0-0.58-0.524-3.524,0,0,0,90,false,stim,false,2,628.3999999761581,2,0,0,24779,task1,1575279,false,false,1756,image-keyboard-response,26
true,13,1,2,1,true,z,false,true,0.0-2.0-0.58-0.525-3.525,0,0,0,90,false,stim,false,0,836.6000000238419,2,0,1,24779,task1,1577624,false,false,1759,image-keyboard-response,27
true,13,1,2,1,true,z,false,false,0.0-2.0-0.58-0.526-3.526,0,0,0,90,false,stim,false,2,599.6999999880791,2,0,0,24779,task1,1579727,false,true,1762,image-keyboard-response,28
true,13,1,2,1,true,z,false,true,0.0-2.0-0.58-0.527-3.527,0,0,0,90,false,stim,false,0,973.6999999880791,2,0,1,24779,task1,1582207,false,false,1765,image-keyboard-response,29
true,13,2,2,2,true,d,false,true,0.0-2.0-0.58-0.528-3.528,0,0,0,68,false,stim,false,0,732.0,2,0,2,24779,task1,1584447,false,false,1768,image-keyboard-response,30
true,13,0,2,1,false,z,true,false,0.0-2.0-0.58-0.529-3.529,0,0,0,81,false,stim,false,2,1367.4000000357628,2,0,0,24779,task1,1587319,false,false,1771,image-keyboard-response,31
true,13,2,2,2,true,d,false,true,0.0-2.0-0.58-0.530-3.530,0,0,0,68,false,stim,false,0,868.9000000357628,2,0,2,24779,task1,1589695,false,false,1774,image-keyboard-response,32
true,13,1,2,1,true,z,false,true,0.0-2.0-0.59-0.531-3.531,0,0,0,90,false,stim,false,0,1179.7999999523163,2,0,1,24779,task1,1592383,false,false,1777,image-keyboard-response,33
true,13,2,2,2,true,d,false,true,0.0-2.0-0.59-0.532-3.532,0,0,0,68,false,stim,false,0,1050.699999988079,2,0,2,24779,task1,1594943,false,false,1780,image-keyboard-response,34
true,13,1,2,1,true,z,false,true,0.0-2.0-0.59-0.533-3.533,0,0,0,90,false,stim,false,2,1118.1000000238419,2,0,0,24779,task1,1597566,false,false,1783,image-keyboard-response,35
true,13,2,2,2,true,d,false,true,0.0-2.0-0.59-0.534-3.534,0,0,0,68,false,stim,false,0,1119.5,2,0,2,24779,task1,1600191,false,false,1786,image-keyboard-response,36
true,13,1,2,1,true,z,false,true,0.0-2.0-0.59-0.535-3.535,0,0,0,90,false,stim,false,0,1042.5999999642372,2,1,1,24779,task1,1602743,false,false,1789,image-keyboard-response,37
true,13,1,2,1,true,z,false,true,0.0-2.0-0.59-0.536-3.536,0,0,0,90,false,stim,false,2,887.4000000357628,2,1,0,24779,task1,1605134,false,false,1792,image-keyboard-response,38
true,13,1,2,1,true,z,false,true,0.0-2.0-0.59-0.537-3.537,0,0,0,90,false,stim,false,0,899.1999999880791,2,1,1,24779,task1,1607542,false,false,1795,image-keyboard-response,39
true,13,1,2,1,true,z,false,true,0.0-2.0-0.59-0.538-3.538,0,0,0,90,false,stim,false,2,815.6999999880791,2,1,0,24779,task1,1609862,false,false,1798,image-keyboard-response,40
true,13,2,2,2,true,d,false,true,0.0-2.0-0.59-0.539-3.539,0,0,0,68,false,stim,false,0,863.8000000119209,2,1,2,24779,task1,1612238,false,false,1801,image-keyboard-response,41
true,14,2,0,2,true,d,false,false,0.0-2.0-0.60-0.540-3.540,1,1,1,68,true,stim,false,2,1616.6000000238419,2,1,2,24779,task1,1618982,false,true,1808,image-keyboard-response,1
true,14,1,0,1,true,z,false,false,0.0-2.0-0.60-0.541-3.541,1,1,1,90,false,stim,false,1,738.2000000476837,2,1,0,24779,task1,1621230,false,true,1811,image-keyboard-response,2
true,14,1,0,2,false,d,true,false,0.0-2.0-0.60-0.542-3.542,1,1,1,90,false,stim,false,2,1432.2000000476837,2,1,2,24779,task1,1624166,false,false,1814,image-keyboard-response,3
true,14,0,0,1,false,z,true,false,0.0-2.0-0.60-0.543-3.543,1,1,1,81,false,stim,false,1,926.1999999880791,2,1,0,24779,task1,1626598,false,false,1817,image-keyboard-response,4
true,14,0,0,1,false,z,true,false,0.0-2.0-0.60-0.544-3.544,1,1,1,81,false,stim,false,1,1019.4000000357628,2,1,1,24779,task1,1629126,false,false,1820,image-keyboard-response,5
true,14,2,0,1,false,z,true,false,0.0-2.0-0.60-0.545-3.545,1,1,1,68,false,stim,false,1,1080.699999988079,2,1,1,24779,task1,1631717,false,false,1823,image-keyboard-response,6
true,14,0,0,1,false,z,true,false,0.0-2.0-0.60-0.546-3.546,1,1,1,81,false,stim,false,1,712.6000000238419,2,1,1,24779,task1,1633941,false,false,1826,image-keyboard-response,7
true,14,1,0,1,true,z,false,true,0.0-2.0-0.60-0.547-3.547,1,1,1,90,false,stim,false,1,663.6000000238419,2,1,0,24779,task1,1636110,false,false,1829,image-keyboard-response,8
true,14,2,0,2,true,d,false,true,0.0-2.0-0.60-0.548-3.548,1,1,1,68,false,stim,false,2,1559.300000011921,2,0,2,24779,task1,1639173,false,false,1832,image-keyboard-response,9
true,14,2,0,2,true,d,false,false,0.0-2.0-0.61-0.549-3.549,1,1,1,68,false,stim,false,2,745.9000000357628,2,0,2,24779,task1,1641429,false,true,1835,image-keyboard-response,10
true,14,0,0,1,false,z,true,false,0.0-2.0-0.61-0.550-3.550,1,1,1,81,false,stim,false,1,1112.300000011921,2,0,1,24779,task1,1644045,false,false,1838,image-keyboard-response,11
true,14,1,0,1,true,z,false,true,0.0-2.0-0.61-0.551-3.551,1,1,1,90,false,stim,false,1,880.0,2,0,1,24779,task1,1646429,false,false,1841,image-keyboard-response,12
true,14,1,0,1,true,z,false,true,0.0-2.0-0.61-0.552-3.552,1,1,1,90,false,stim,false,1,822.6999999880791,2,0,0,24779,task1,1648757,false,false,1844,image-keyboard-response,13
true,15,1,1,2,false,d,false,false,0.0-2.0-0.61-0.553-3.553,0,0,0,90,true,stim,true,1,547.1000000238419,2,0,0,24779,task1,1650813,false,false,1847,image-keyboard-response,1
true,15,2,1,2,true,d,false,true,0.0-2.0-0.61-0.554-3.554,0,0,0,68,false,stim,false,1,2012.6000000238419,2,0,0,24779,task1,1654333,false,false,1850,image-keyboard-response,2
true,15,2,1,1,false,z,false,false,0.0-2.0-0.61-0.555-3.555,0,0,0,68,false,stim,true,2,951.8999999761581,2,0,2,24779,task1,1656789,false,false,1853,image-keyboard-response,3
true,15,0,1,2,false,d,true,false,0.0-2.0-0.61-0.556-3.556,0,0,0,81,false,stim,false,1,1735.4000000357628,2,0,1,24779,task1,1660028,false,false,1856,image-keyboard-response,4
true,15,0,1,1,false,z,true,false,0.0-2.0-0.61-0.557-3.557,0,0,0,81,false,stim,false,2,1662.5,2,0,2,24779,task1,1663196,false,false,1859,image-keyboard-response,5
true,15,1,1,2,false,d,false,false,0.0-2.0-0.62-0.558-3.558,0,0,0,90,false,stim,true,1,1490.199999988079,2,0,1,24779,task1,1666196,false,false,1862,image-keyboard-response,6
true,15,2,1,2,true,d,false,true,0.0-2.0-0.62-0.559-3.559,0,0,0,68,false,stim,false,1,800.6999999880791,2,0,1,24779,task1,1668508,false,false,1865,image-keyboard-response,7
true,15,2,1,2,true,d,false,true,0.0-2.0-0.62-0.560-3.560,0,0,0,68,false,stim,false,1,1215.300000011921,2,0,1,24779,task1,1671228,false,false,1868,image-keyboard-response,8
true,15,2,1,2,true,d,false,true,0.0-2.0-0.62-0.561-3.561,0,0,0,68,false,stim,false,1,724.6000000238419,2,0,0,24779,task1,1673460,false,false,1871,image-keyboard-response,9
true,15,1,1,1,true,z,false,true,0.0-2.0-0.62-0.562-3.562,0,0,0,90,false,stim,false,2,1197.3999999761581,2,0,2,24779,task1,1676164,false,false,1874,image-keyboard-response,10
true,15,1,1,1,true,z,false,false,0.0-2.0-0.62-0.563-3.563,0,0,0,90,false,stim,false,2,1084.9000000357628,2,0,2,24779,task1,1678756,false,true,1877,image-keyboard-response,11
true,15,2,1,2,true,d,false,true,0.0-2.0-0.62-0.564-3.564,0,0,0,68,false,stim,false,1,1391.4000000357628,2,0,0,24779,task1,1681652,false,false,1880,image-keyboard-response,12
true,15,0,1,1,false,z,true,false,0.0-2.0-0.62-0.565-3.565,0,0,0,81,false,stim,false,2,1319.7999999523163,2,0,2,24779,task1,1684476,false,false,1883,image-keyboard-response,13
true,15,1,1,2,false,d,false,false,0.0-2.0-0.62-0.566-3.566,0,0,0,90,false,stim,true,1,1326.4000000357628,2,0,0,24779,task1,1687307,false,false,1886,image-keyboard-response,14
true,15,2,1,2,true,d,false,true,0.0-2.0-0.63-0.567-3.567,0,0,0,68,false,stim,false,1,1061.199999988079,2,0,1,24779,task1,1689876,false,false,1889,image-keyboard-response,15
true,15,2,1,1,false,z,false,false,0.0-2.0-0.63-0.568-3.568,0,0,0,68,false,stim,true,2,810.5,2,0,2,24779,task1,1692195,false,false,1892,image-keyboard-response,16
true,15,2,1,2,true,d,false,false,0.0-2.0-0.63-0.569-3.569,0,0,0,68,false,stim,false,1,1098.5,2,0,1,24779,task1,1694803,false,true,1895,image-keyboard-response,17
true,15,1,1,2,false,d,false,false,0.0-2.0-0.63-0.570-3.570,0,0,0,90,false,stim,true,1,675.3000000119209,2,0,0,24779,task1,1696987,false,false,1898,image-keyboard-response,18
true,15,2,1,1,false,z,false,false,0.0-2.0-0.63-0.571-3.571,0,0,0,68,false,stim,true,2,744.8000000119209,2,0,2,24779,task1,1699243,false,false,1901,image-keyboard-response,19
true,15,0,1,2,false,d,true,false,0.0-2.0-0.63-0.572-3.572,0,0,0,81,false,stim,false,1,916.0,2,0,1,24779,task1,1701667,false,false,1904,image-keyboard-response,20
true,15,1,1,2,false,d,false,false,0.0-2.0-0.63-0.573-3.573,0,0,0,90,false,stim,true,1,866.4000000357628,2,0,0,24779,task1,1704043,false,false,1907,image-keyboard-response,21
true,15,0,1,2,false,d,true,false,0.0-2.0-0.63-0.574-3.574,0,0,0,81,false,stim,false,1,691.6000000238419,2,0,0,24779,task1,1706243,false,false,1910,image-keyboard-response,22
true,15,2,1,1,false,z,false,false,0.0-2.0-0.63-0.575-3.575,0,0,0,68,false,stim,true,2,1107.6000000238419,2,0,2,24779,task1,1708859,false,false,1913,image-keyboard-response,23
true,15,0,1,1,false,z,true,false,0.0-2.0-0.64-0.576-3.576,0,0,0,81,false,stim,false,2,655.4000000357628,2,0,2,24779,task1,1711027,false,false,1916,image-keyboard-response,24
true,15,1,1,2,false,d,false,true,0.0-2.0-0.64-0.577-3.577,0,0,0,90,false,stim,true,1,733.8999999761581,2,0,0,24779,task1,1713267,false,true,1919,image-keyboard-response,25
true,15,1,1,1,true,z,false,true,0.0-2.0-0.64-0.578-3.578,0,0,0,90,false,stim,false,2,1013.8000000119209,2,0,2,24779,task1,1715787,false,false,1922,image-keyboard-response,26
true,15,0,1,2,false,d,true,false,0.0-2.0-0.64-0.579-3.579,0,0,0,81,false,stim,false,1,824.5,2,0,1,24779,task1,1718122,false,false,1925,image-keyboard-response,27
true,15,1,1,1,true,z,false,true,0.0-2.0-0.64-0.580-3.580,0,0,0,90,false,stim,false,2,947.5999999642372,2,0,2,24779,task1,1720578,false,false,1928,image-keyboard-response,28
true,15,2,1,2,true,d,false,true,0.0-2.0-0.64-0.581-3.581,0,0,0,68,false,stim,false,1,740.1000000238419,2,0,1,24779,task1,1722826,false,false,1931,image-keyboard-response,29
true,15,1,1,2,false,d,false,false,0.0-2.0-0.64-0.582-3.582,0,0,0,90,false,stim,true,1,908.6999999880791,2,0,0,24779,task1,1725242,false,false,1934,image-keyboard-response,30
true,15,1,1,2,false,d,false,false,0.0-2.0-0.64-0.583-3.583,0,0,0,90,false,stim,true,1,911.6999999880791,2,0,0,24779,task1,1727658,false,false,1937,image-keyboard-response,31
true,15,2,1,2,true,d,false,true,0.0-2.0-0.64-0.584-3.584,0,0,0,68,false,stim,false,1,598.4000000357628,2,0,1,24779,task1,1729762,false,false,1940,image-keyboard-response,32
true,15,1,1,1,true,z,false,true,0.0-2.0-0.65-0.585-3.585,0,0,0,90,false,stim,false,2,1623.9000000357628,2,0,2,24779,task1,1732890,false,false,1943,image-keyboard-response,33
true,15,0,1,2,false,d,true,true,0.0-2.0-0.65-0.586-3.586,0,0,0,81,false,stim,false,1,796.1999999880791,2,0,0,24779,task1,1735194,false,true,1946,image-keyboard-response,34
true,15,2,1,2,true,d,false,true,0.0-2.0-0.65-0.587-3.587,0,0,0,68,false,stim,false,1,792.0,2,0,1,24779,task1,1737490,false,false,1949,image-keyboard-response,35
true,15,1,1,1,true,z,false,true,0.0-2.0-0.65-0.588-3.588,0,0,0,90,false,stim,false,2,1036.5999999642372,2,0,2,24779,task1,1740034,false,false,1952,image-keyboard-response,36
true,15,0,1,2,false,d,true,false,0.0-2.0-0.65-0.589-3.589,0,0,0,81,false,stim,false,1,789.6000000238419,2,0,0,24779,task1,1742330,false,false,1955,image-keyboard-response,37
