answered,blockNum,choice,condition,corResp,correct,correct_response,explo,fb,internal_node_id,isStable_1,isStable_2,isStable_3,key_press,newBlock,part,persev,persevResp,rt,sessNum,stableAS,stimulus,subject,task,time_elapsed,training,trap,trial_index,trial_type,trialsInBlock
false,1,-1,0,1,false,z,false,false,0.0-2.0-0.0-0.0-3.0,0,0,0,,true,stim,true,-1,,0,0,0,24779,task3,323245,false,false,188,image-keyboard-response,1
true,1,2,0,0,false,q,true,false,0.0-2.0-0.0-0.1-3.1,0,0,0,68,false,stim,false,-1,1663.7000000029802,0,0,2,24779,task3,326414,false,false,191,image-keyboard-response,2
true,1,1,0,1,true,z,false,true,0.0-2.0-0.0-0.2-3.2,0,0,0,90,false,stim,false,-1,2554.7000000029802,0,0,1,24779,task3,330473,false,false,194,image-keyboard-response,3
true,1,1,0,1,true,z,false,true,0.0-2.0-0.0-0.3-3.3,0,0,0,90,false,stim,false,-1,2000.0,0,0,0,24779,task3,333976,false,false,197,image-keyboard-response,4
true,1,1,0,0,false,q,true,true,0.0-2.0-0.0-0.4-3.4,0,0,0,90,false,stim,false,-1,2719.4000000059605,0,0,2,24779,task3,338200,false,true,200,image-keyboard-response,5
true,1,1,0,1,true,z,false,true,0.0-2.0-0.0-0.5-3.5,0,0,0,90,false,stim,false,-1,1253.2999999970198,0,0,1,24779,task3,340960,false,false,203,image-keyboard-response,6
true,1,1,0,1,true,z,false,true,0.0-2.0-0.0-0.6-3.6,0,0,0,90,false,stim,false,-1,675.4000000059605,0,0,1,24779,task3,343144,false,false,206,image-keyboard-response,7
true,1,1,0,1,true,z,false,true,0.0-2.0-0.0-0.7-3.7,0,0,0,90,false,stim,false,-1,1095.9000000059605,0,0,0,24779,task3,345744,false,false,209,image-keyboard-response,8
true,1,1,0,0,false,q,true,false,0.0-2.0-0.0-0.8-3.8,0,0,0,90,false,stim,false,-1,620.2999999970198,0,0,2,24779,task3,347872,false,false,212,image-keyboard-response,9
true,1,1,0,1,true,z,false,true,0.0-2.0-0.1-0.9-3.9,0,0,0,90,false,stim,false,-1,1008.5999999940395,0,0,1,24779,task3,350383,false,false,215,image-keyboard-response,10
true,1,1,0,1,true,z,false,false,0.0-2.0-0.1-0.10-3.10,0,0,0,90,false,stim,false,-1,969.7000000029802,0,0,0,24779,task3,352856,false,true,218,image-keyboard-response,11
true,1,1,0,0,false,q,true,true,0.0-2.0-0.1-0.11-3.11,0,0,0,90,false,stim,false,-1,856.2000000029802,0,0,2,24779,task3,355215,false,true,221,image-keyboard-response,12
true,1,1,0,1,true,z,false,true,0.0-2.0-0.1-0.12-3.12,0,0,0,90,false,stim,false,-1,1134.7000000029802,0,0,1,24779,task3,357856,false,false,224,image-keyboard-response,13
true,1,1,0,1,true,z,false,true,0.0-2.0-0.1-0.13-3.13,0,0,0,90,false,stim,false,-1,888.7999999970198,0,0,1,24779,task3,360248,false,false,227,image-keyboard-response,14
true,1,0,0,0,true,q,false,true,0.0-2.0-0.1-0.14-3.14,0,0,0,81,false,stim,false,-1,2790.5,0,0,2,24779,task3,364541,false,false,230,image-keyboard-response,15
true,1,1,0,0,false,q,true,false,0.0-2.0-0.1-0.15-3.15,0,0,0,90,false,stim,false,-1,1216.1000000089407,0,0,2,24779,task3,367261,false,false,233,image-keyboard-response,16
true,1,2,0,1,false,z,true,false,0.0-2.0-0.1-0.16-3.16,0,0,0,68,false,stim,false,-1,2633.0,0,0,0,24779,task3,371397,false,false,236,image-keyboard-response,17
true,1,1,0,1,true,z,false,true,0.0-2.0-0.1-0.17-3.17,0,0,0,90,false,stim,false,-1,1889.5,0,0,0,24779,task3,374789,false,false,239,image-keyboard-response,18
true,1,1,0,1,true,z,false,true,0.0-2.0-0.2-0.18-3.18,0,0,0,90,false,stim,false,-1,1495.9000000059605,0,0,1,24779,task3,377789,false,false,242,image-keyboard-response,19
true,1,1,0,0,false,q,true,false,0.0-2.0-0.2-0.19-3.19,0,0,0,90,false,stim,false,-1,1535.2000000029802,0,0,2,24779,task3,380828,false,false,245,image-keyboard-response,20
true,1,0,0,0,true,q,false,true,0.0-2.0-0.2-0.20-3.20,0,0,0,81,false,stim,false,-1,2168.9000000059605,0,0,2,24779,task3,384508,false,false,248,image-keyboard-response,21
true,1,1,0,0,false,q,true,false,0.0-2.0-0.2-0.21-3.21,0,0,0,90,false,stim,false,-1,1265.6000000089407,0,1,2,24779,task3,387276,false,false,251,image-keyboard-response,22
true,1,1,0,1,true,z,false,true,0.0-2.0-0.2-0.22-3.22,0,0,0,90,false,stim,false,-1,928.2000000029802,0,0,0,24779,task3,389708,false,false,254,image-keyboard-response,23
true,1,1,0,1,true,z,false,true,0.0-2.0-0.2-0.23-3.23,0,0,0,90,false,stim,false,-1,456.40000000596046,0,0,1,24779,task3,391668,false,false,257,image-keyboard-response,24
true,1,1,0,1,true,z,false,true,0.0-2.0-0.2-0.24-3.24,0,0,0,90,false,stim,false,-1,529.5,0,0,1,24779,task3,393700,false,false,260,image-keyboard-response,25
true,1,1,0,1,true,z,false,false,0.0-2.0-0.2-0.25-3.25,0,0,0,90,false,stim,false,-1,659.0,0,0,0,24779,task3,395868,false,true,263,image-keyboard-response,26
true,2,1,1,0,false,q,false,true,0.0-2.0-0.2-0.26-3.26,0,0,1,90,true,stim,true,1,693.6000000089407,0,0,0,24779,task3,398068,false,true,266,image-keyboard-response,1
true,2,1,1,2,false,d,false,false,0.0-2.0-0.3-0.27-3.27,0,0,1,90,false,stim,true,1,784.2999999970198,0,0,1,24779,task3,400356,false,false,269,image-keyboard-response,2
true,2,0,1,0,true,q,false,true,0.0-2.0-0.3-0.28-3.28,0,0,1,81,false,stim,false,1,1993.2000000029802,0,0,0,24779,task3,403859,false,false,272,image-keyboard-response,3
true,2,1,1,0,false,q,false,false,0.0-2.0-0.3-0.29-3.29,0,0,1,90,false,stim,true,1,1032.9000000059605,0,0,0,24779,task3,406395,false,false,275,image-keyboard-response,4
true,2,1,1,0,false,q,false,false,0.0-2.0-0.3-0.30-3.30,0,0,1,90,false,stim,true,1,1629.5999999940395,0,0,0,24779,task3,409532,false,false,278,image-keyboard-response,5
true,2,1,1,2,false,d,false,false,0.0-2.0-0.3-0.31-3.31,0,0,1,90,false,stim,true,1,846.9000000059605,0,0,1,24779,task3,411883,false,false,281,image-keyboard-response,6
true,2,2,1,2,true,d,false,true,0.0-2.0-0.3-0.32-3.32,0,0,1,68,false,stim,false,1,2751.0999999940395,0,0,1,24779,task3,416139,false,false,284,image-keyboard-response,7
false,2,-1,1,0,false,q,true,false,0.0-2.0-0.3-0.33-3.33,0,0,1,,false,stim,false,0,,0,1,2,24779,task3,420644,false,false,287,image-keyboard-response,8
true,2,2,1,0,false,q,true,false,0.0-2.0-0.3-0.34-3.34,0,0,1,68,false,stim,false,0,493.30000001192093,0,1,2,24779,task3,422643,false,false,290,image-keyboard-response,9
true,2,2,1,0,false,q,true,true,0.0-2.0-0.3-0.35-3.35,0,0,1,68,false,stim,false,0,1648.5,0,1,2,24779,task3,425795,false,true,293,image-keyboard-response,10
true,2,2,1,2,true,d,false,false,0.0-2.0-0.4-0.36-3.36,0,0,1,68,false,stim,false,1,1853.2000000029802,0,0,1,24779,task3,429155,false,true,296,image-keyboard-response,11
true,2,0,1,2,false,d,true,false,0.0-2.0-0.4-0.37-3.37,0,0,1,81,false,stim,false,1,632.2000000029802,0,0,1,24779,task3,431291,false,false,299,image-keyboard-response,12
true,2,0,1,0,true,q,false,true,0.0-2.0-0.4-0.38-3.38,0,0,1,81,false,stim,false,1,1263.6000000089407,0,0,0,24779,task3,434059,false,false,302,image-keyboard-response,13
true,2,0,1,0,true,q,false,true,0.0-2.0-0.4-0.39-3.39,0,0,1,81,false,stim,false,0,960.5,0,1,2,24779,task3,436523,false,false,305,image-keyboard-response,14
true,2,0,1,0,true,q,false,true,0.0-2.0-0.4-0.40-3.40,0,0,1,81,false,stim,false,0,1040.7000000029802,0,1,2,24779,task3,439067,false,false,308,image-keyboard-response,15
true,2,0,1,0,true,q,false,true,0.0-2.0-0.4-0.41-3.41,0,0,1,81,false,stim,false,0,568.0999999940395,0,1,2,24779,task3,441138,false,false,311,image-keyboard-response,16
true,2,0,1,2,false,d,true,false,0.0-2.0-0.4-0.42-3.42,0,0,1,81,false,stim,false,1,353.29999999701977,0,0,1,24779,task3,442994,false,false,314,image-keyboard-response,17
true,2,1,1,0,false,q,false,true,0.0-2.0-0.4-0.43-3.43,0,0,1,90,false,stim,true,1,1717.6000000089407,0,0,0,24779,task3,446218,false,true,317,image-keyboard-response,18
false,2,-1,1,0,false,q,true,true,0.0-2.0-0.4-0.44-3.44,0,0,1,,false,stim,false,1,,0,0,0,24779,task3,450725,false,true,320,image-keyboard-response,19
true,2,0,1,0,true,q,false,false,0.0-2.0-0.5-0.45-3.45,0,0,1,81,false,stim,false,1,1348.7000000029802,0,0,0,24779,task3,453578,false,true,323,image-keyboard-response,20
true,2,1,1,0,false,q,true,false,0.0-2.0-0.5-0.46-3.46,0,0,1,90,false,stim,false,0,1281.4000000059605,0,1,2,24779,task3,456362,false,false,326,image-keyboard-response,21
true,2,1,1,2,false,d,false,false,0.0-2.0-0.5-0.47-3.47,0,0,1,90,false,stim,true,1,680.0,0,0,1,24779,task3,458545,false,false,329,image-keyboard-response,22
true,2,2,1,2,true,d,false,true,0.0-2.0-0.5-0.48-3.48,0,0,1,68,false,stim,false,1,857.0999999940395,0,0,1,24779,task3,460905,false,false,332,image-keyboard-response,23
true,2,2,1,0,false,q,true,false,0.0-2.0-0.5-0.49-3.49,0,0,1,68,false,stim,false,1,1373.5,0,0,0,24779,task3,463785,false,false,335,image-keyboard-response,24
true,2,0,1,0,true,q,false,true,0.0-2.0-0.5-0.50-3.50,0,0,1,81,false,stim,false,0,945.1000000089407,0,0,2,24779,task3,466233,false,false,338,image-keyboard-response,25
true,2,0,1,0,true,q,false,true,0.0-2.0-0.5-0.51-3.51,0,0,1,81,false,stim,false,0,625.7000000029802,0,0,2,24779,task3,468362,false,false,341,image-keyboard-response,26
true,2,1,1,0,false,q,false,false,0.0-2.0-0.5-0.52-3.52,0,0,1,90,false,stim,true,1,1144.4000000059605,0,0,0,24779,task3,471009,false,false,344,image-keyboard-response,27
true,2,2,1,2,true,d,false,true,0.0-2.0-0.5-0.53-3.53,0,0,1,68,false,stim,false,1,645.8000000119209,0,1,1,24779,task3,473161,false,false,347,image-keyboard-response,28
true,2,2,1,0,false,q,true,false,0.0-2.0-0.6-0.54-3.54,0,0,1,68,false,stim,false,0,848.7000000029802,0,0,2,24779,task3,475513,false,false,350,image-keyboard-response,29
true,3,0,1,2,false,d,true,false,0.0-2.0-0.6-0.55-3.55,0,1,0,81,true,stim,false,2,750.7000000029802,0,1,1,24779,task3,477769,false,false,353,image-keyboard-response,1
true,3,1,1,1,true,z,false,true,0.0-2.0-0.6-0.56-3.56,0,1,0,90,false,stim,false,0,709.1999999880791,0,0,0,24779,task3,479985,false,false,356,image-keyboard-response,2
true,3,1,1,1,true,z,false,true,0.0-2.0-0.6-0.57-3.57,0,1,0,90,false,stim,false,0,527.2999999970198,0,0,0,24779,task3,482017,false,false,359,image-keyboard-response,3
true,3,2,1,2,true,d,false,true,0.0-2.0-0.6-0.58-3.58,0,1,0,68,false,stim,false,0,1473.0,0,0,2,24779,task3,484992,false,false,362,image-keyboard-response,4
true,3,2,1,1,false,z,true,false,0.0-2.0-0.6-0.59-3.59,0,1,0,68,false,stim,false,0,572.5999999940395,0,0,0,24779,task3,487072,false,false,365,image-keyboard-response,5
true,3,0,1,2,false,d,false,false,0.0-2.0-0.6-0.60-3.60,0,1,0,81,false,stim,true,0,721.1000000089407,0,0,2,24779,task3,489296,false,false,368,image-keyboard-response,6
true,3,1,1,2,false,d,true,false,0.0-2.0-0.6-0.61-3.61,0,1,0,90,false,stim,false,2,673.1999999880791,0,1,1,24779,task3,491472,false,false,371,image-keyboard-response,7
true,3,1,1,2,false,d,true,false,0.0-2.0-0.6-0.62-3.62,0,1,0,90,false,stim,false,2,601.0,0,1,1,24779,task3,493576,false,false,374,image-keyboard-response,8
true,3,0,1,2,false,d,true,false,0.0-2.0-0.7-0.63-3.63,0,1,0,81,false,stim,false,2,1165.0,0,1,1,24779,task3,496248,false,false,377,image-keyboard-response,9
true,3,0,1,2,false,d,false,false,0.0-2.0-0.7-0.64-3.64,0,1,0,81,false,stim,true,0,2185.2000000029802,0,0,2,24779,task3,499936,false,false,380,image-keyboard-response,10
true,3,0,1,1,false,z,false,false,0.0-2.0-0.7-0.65-3.65,0,1,0,81,false,stim,true,0,719.9000000059605,0,0,0,24779,task3,502160,false,false,383,image-keyboard-response,11
true,3,1,1,1,true,z,false,true,0.0-2.0-0.7-0.66-3.66,0,1,0,90,false,stim,false,0,856.0,0,0,0,24779,task3,504520,false,false,386,image-keyboard-response,12
true,3,1,1,2,false,d,true,false,0.0-2.0-0.7-0.67-3.67,0,1,0,90,false,stim,false,2,760.8999999910593,0,1,1,24779,task3,506784,false,false,389,image-keyboard-response,13
true,3,1,1,1,true,z,false,false,0.0-2.0-0.7-0.68-3.68,0,1,0,90,false,stim,false,0,641.0,0,0,0,24779,task3,508928,false,true,392,image-keyboard-response,14
true,3,2,1,2,true,d,false,true,0.0-2.0-0.7-0.69-3.69,0,1,0,68,false,stim,false,2,1875.0,0,1,1,24779,task3,512312,false,false,395,image-keyboard-response,15
true,3,1,1,2,false,d,true,false,0.0-2.0-0.7-0.70-3.70,0,1,0,90,false,stim,false,0,2863.3999999910593,0,0,2,24779,task3,516679,false,false,398,image-keyboard-response,16
true,3,1,1,2,false,d,true,false,0.0-2.0-0.7-0.71-3.71,0,1,0,90,false,stim,false,0,482.3999999910593,0,0,2,24779,task3,518671,false,false,401,image-keyboard-response,17
true,3,2,1,2,true,d,false,true,0.0-2.0-0.8-0.72-3.72,0,1,0,68,false,stim,false,2,656.2999999970198,0,1,1,24779,task3,520832,false,false,404,image-keyboard-response,18
true,3,0,1,2,false,d,true,true,0.0-2.0-0.8-0.73-3.73,0,1,0,81,false,stim,false,2,1501.7000000029802,0,1,1,24779,task3,523839,false,true,407,image-keyboard-response,19
true,3,1,1,2,false,d,true,false,0.0-2.0-0.8-0.74-3.74,0,1,0,90,false,stim,false,0,936.8000000119209,0,0,2,24779,task3,526279,false,false,410,image-keyboard-response,20
true,3,0,1,2,false,d,true,false,0.0-2.0-0.8-0.75-3.75,0,1,0,81,false,stim,false,2,681.0,0,1,1,24779,task3,528463,false,false,413,image-keyboard-response,21
true,3,2,1,1,false,z,true,false,0.0-2.0-0.8-0.76-3.76,0,1,0,68,false,stim,false,0,480.8999999910593,0,0,0,24779,task3,530447,false,false,416,image-keyboard-response,22
true,3,2,1,2,true,d,false,true,0.0-2.0-0.8-0.77-3.77,0,1,0,68,false,stim,false,0,1246.5,0,0,2,24779,task3,533199,false,false,419,image-keyboard-response,23
true,3,2,1,2,true,d,false,true,0.0-2.0-0.8-0.78-3.78,0,1,0,68,false,stim,false,0,1337.300000011921,0,1,2,24779,task3,536039,false,false,422,image-keyboard-response,24
false,3,-1,1,1,false,z,true,false,0.0-2.0-0.8-0.79-3.79,0,1,0,,false,stim,false,0,,0,0,0,24779,task3,540543,false,false,425,image-keyboard-response,25
true,3,1,1,1,true,z,false,true,0.0-2.0-0.8-0.80-3.80,0,1,0,90,false,stim,false,0,883.3000000119209,0,0,0,24779,task3,542929,false,false,428,image-keyboard-response,26
true,3,2,1,2,true,d,false,true,0.0-2.0-0.9-0.81-3.81,0,1,0,68,false,stim,false,0,1519.6000000089407,0,1,2,24779,task3,545953,false,false,431,image-keyboard-response,27
true,3,1,1,1,true,z,false,true,0.0-2.0-0.9-0.82-3.82,0,1,0,90,false,stim,false,0,1447.0999999940395,0,0,0,24779,task3,548905,false,false,434,image-keyboard-response,28
true,4,0,1,1,false,z,true,false,0.0-2.0-0.9-0.83-3.83,0,0,1,81,true,stim,false,2,2199.0999999940395,0,0,1,24779,task3,552609,false,false,437,image-keyboard-response,1
true,4,2,1,2,true,d,false,true,0.0-2.0-0.9-0.84-3.84,0,0,1,68,false,stim,false,2,840.7999999970198,0,1,2,24779,task3,554953,false,false,440,image-keyboard-response,2
true,4,2,1,2,true,d,false,true,0.0-2.0-0.9-0.85-3.85,0,0,1,68,false,stim,false,2,1024.4000000059605,0,1,2,24779,task3,557481,false,false,443,image-keyboard-response,3
true,4,1,1,0,false,q,false,false,0.0-2.0-0.9-0.86-3.86,0,0,1,90,false,stim,true,1,2537.3999999910593,0,0,0,24779,task3,561521,false,false,446,image-keyboard-response,4
true,4,0,1,0,true,q,false,true,0.0-2.0-0.9-0.87-3.87,0,0,1,81,false,stim,false,1,1372.2999999970198,0,0,0,24779,task3,564400,false,false,449,image-keyboard-response,5
true,4,1,1,1,true,z,false,false,0.0-2.0-0.9-0.88-3.88,0,0,1,90,false,stim,false,2,2115.5,0,0,1,24779,task3,568024,false,true,452,image-keyboard-response,6
true,4,1,1,1,true,z,false,false,0.0-2.0-0.9-0.89-3.89,0,0,1,90,false,stim,false,2,1188.4000000059605,0,0,1,24779,task3,570720,false,true,455,image-keyboard-response,7
true,4,0,1,0,true,q,false,true,0.0-2.0-0.10-0.90-3.90,0,0,1,81,false,stim,false,1,2276.1000000089407,0,0,0,24779,task3,574504,false,false,458,image-keyboard-response,8
true,4,0,1,2,false,d,true,false,0.0-2.0-0.10-0.91-3.91,0,0,1,81,false,stim,false,2,1022.5,0,1,2,24779,task3,577032,false,false,461,image-keyboard-response,9
true,4,2,1,0,false,q,true,false,0.0-2.0-0.10-0.92-3.92,0,0,1,68,false,stim,false,1,528.8000000119209,0,0,0,24779,task3,579064,false,false,464,image-keyboard-response,10
true,4,1,1,0,false,q,false,false,0.0-2.0-0.10-0.93-3.93,0,0,1,90,false,stim,true,1,552.7999999970198,0,0,0,24779,task3,581120,false,false,467,image-keyboard-response,11
true,4,2,1,1,false,z,false,false,0.0-2.0-0.10-0.94-3.94,0,0,1,68,false,stim,true,2,625.0,0,0,1,24779,task3,583256,false,false,470,image-keyboard-response,12
true,4,0,1,2,false,d,true,false,0.0-2.0-0.10-0.95-3.95,0,0,1,81,false,stim,false,2,2484.0,0,1,2,24779,task3,587248,false,false,473,image-keyboard-response,13
false,4,-1,1,1,false,z,true,false,0.0-2.0-0.10-0.96-3.96,0,0,1,,false,stim,false,2,,0,0,1,24779,task3,591755,false,false,476,image-keyboard-response,14
true,4,1,1,2,false,d,true,false,0.0-2.0-0.10-0.97-3.97,0,0,1,90,false,stim,false,2,681.5,0,1,2,24779,task3,593943,false,false,479,image-keyboard-response,15
true,4,1,1,1,true,z,false,true,0.0-2.0-0.10-0.98-3.98,0,0,1,90,false,stim,false,2,672.7999999970198,0,0,1,24779,task3,596120,false,false,482,image-keyboard-response,16
true,4,1,1,0,false,q,false,false,0.0-2.0-0.11-0.99-3.99,0,0,1,90,false,stim,true,1,383.70000000298023,0,0,0,24779,task3,598007,false,false,485,image-keyboard-response,17
true,4,2,1,2,true,d,false,true,0.0-2.0-0.11-0.100-3.100,0,0,1,68,false,stim,false,2,640.0,0,1,2,24779,task3,600151,false,false,488,image-keyboard-response,18
true,4,0,1,1,false,z,true,false,0.0-2.0-0.11-0.101-3.101,0,0,1,81,false,stim,false,2,2112.0,0,0,1,24779,task3,603767,false,false,491,image-keyboard-response,19
true,4,1,1,0,false,q,false,false,0.0-2.0-0.11-0.102-3.102,0,0,1,90,false,stim,true,1,801.4000000059605,0,0,0,24779,task3,606079,false,false,494,image-keyboard-response,20
true,4,0,1,2,false,d,true,false,0.0-2.0-0.11-0.103-3.103,0,0,1,81,false,stim,false,2,456.0,0,1,2,24779,task3,608039,false,false,497,image-keyboard-response,21
true,4,2,1,1,false,z,false,false,0.0-2.0-0.11-0.104-3.104,0,0,1,68,false,stim,true,2,567.7999999970198,0,0,1,24779,task3,610111,false,false,500,image-keyboard-response,22
true,4,2,1,2,true,d,false,true,0.0-2.0-0.11-0.105-3.105,0,0,1,68,false,stim,false,2,645.0,0,1,2,24779,task3,612263,false,false,503,image-keyboard-response,23
true,4,1,1,1,true,z,false,true,0.0-2.0-0.11-0.106-3.106,0,0,1,90,false,stim,false,2,1533.5999999940395,0,0,1,24779,task3,615303,false,false,506,image-keyboard-response,24
true,4,1,1,0,false,q,false,false,0.0-2.0-0.11-0.107-3.107,0,0,1,90,false,stim,true,1,1455.5,0,1,0,24779,task3,618263,false,false,509,image-keyboard-response,25
true,4,1,1,1,true,z,false,true,0.0-2.0-0.12-0.108-3.108,0,0,1,90,false,stim,false,2,1701.7999999970198,0,0,1,24779,task3,621470,false,false,512,image-keyboard-response,26
true,4,2,1,2,true,d,false,true,0.0-2.0-0.12-0.109-3.109,0,0,1,68,false,stim,false,2,1320.4000000059605,0,1,2,24779,task3,624294,false,false,515,image-keyboard-response,27
true,4,1,1,1,true,z,false,true,0.0-2.0-0.12-0.110-3.110,0,0,1,90,false,stim,false,2,1603.7000000029802,0,0,1,24779,task3,627406,false,false,518,image-keyboard-response,28
true,5,1,2,0,false,q,true,false,0.0-2.0-0.12-0.111-3.111,1,0,1,90,true,stim,false,0,1288.5,0,1,0,24779,task3,630198,false,false,521,image-keyboard-response,1
true,5,1,2,2,false,d,true,false,0.0-2.0-0.12-0.112-3.112,1,0,1,90,false,stim,false,2,1164.5,0,1,2,24779,task3,632870,false,false,524,image-keyboard-response,2
true,5,1,2,2,false,d,true,false,0.0-2.0-0.12-0.113-3.113,1,0,1,90,false,stim,false,2,583.0999999940395,0,1,2,24779,task3,634958,false,false,527,image-keyboard-response,3
true,5,2,2,0,false,q,true,false,0.0-2.0-0.12-0.114-3.114,1,0,1,68,false,stim,false,0,1327.4000000059605,0,1,0,24779,task3,637790,false,false,530,image-keyboard-response,4
true,5,2,2,0,false,q,true,false,0.0-2.0-0.12-0.115-3.115,1,0,1,68,false,stim,false,0,432.70000000298023,0,1,0,24779,task3,639726,false,false,533,image-keyboard-response,5
true,5,2,2,2,true,d,false,true,0.0-2.0-0.12-0.116-3.116,1,0,1,68,false,stim,false,1,465.1000000089407,0,0,1,24779,task3,641694,false,false,536,image-keyboard-response,6
true,5,0,2,0,true,q,false,true,0.0-2.0-0.13-0.117-3.117,1,0,1,81,false,stim,false,0,1736.5999999940395,0,1,0,24779,task3,644934,false,false,539,image-keyboard-response,7
true,5,1,2,0,false,q,true,false,0.0-2.0-0.13-0.118-3.118,1,0,1,90,false,stim,false,0,871.4000000059605,0,1,0,24779,task3,647309,false,false,542,image-keyboard-response,8
true,5,2,2,2,true,d,false,true,0.0-2.0-0.13-0.119-3.119,1,0,1,68,false,stim,false,2,953.1000000089407,0,1,2,24779,task3,649766,false,false,545,image-keyboard-response,9
true,5,0,2,2,false,d,true,false,0.0-2.0-0.13-0.120-3.120,1,0,1,81,false,stim,false,2,1193.0,0,1,2,24779,task3,652462,false,false,548,image-keyboard-response,10
true,5,2,2,2,true,d,false,true,0.0-2.0-0.13-0.121-3.121,1,0,1,68,false,stim,false,1,619.7999999970198,0,0,1,24779,task3,654589,false,false,551,image-keyboard-response,11
true,5,0,2,2,false,d,true,false,0.0-2.0-0.13-0.122-3.122,1,0,1,81,false,stim,false,1,1063.7999999970198,0,0,1,24779,task3,657157,false,false,554,image-keyboard-response,12
true,5,1,2,0,false,q,true,false,0.0-2.0-0.13-0.123-3.123,1,0,1,90,false,stim,false,0,780.5,0,1,0,24779,task3,659445,false,false,557,image-keyboard-response,13
true,5,2,2,2,true,d,false,true,0.0-2.0-0.13-0.124-3.124,1,0,1,68,false,stim,false,1,1164.2000000029802,0,0,1,24779,task3,662117,false,false,560,image-keyboard-response,14
true,5,2,2,2,true,d,false,true,0.0-2.0-0.13-0.125-3.125,1,0,1,68,false,stim,false,2,1175.8999999910593,0,1,2,24779,task3,664797,false,false,563,image-keyboard-response,15
true,5,2,2,2,true,d,false,true,0.0-2.0-0.14-0.126-3.126,1,0,1,68,false,stim,false,2,781.2000000029802,0,1,2,24779,task3,667085,false,false,566,image-keyboard-response,16
true,5,1,2,2,false,d,false,false,0.0-2.0-0.14-0.127-3.127,1,0,1,90,false,stim,true,1,2598.0,0,0,1,24779,task3,671187,false,false,569,image-keyboard-response,17
true,5,1,2,2,false,d,false,true,0.0-2.0-0.14-0.128-3.128,1,0,1,90,false,stim,true,1,997.0999999940395,0,0,1,24779,task3,673691,false,true,572,image-keyboard-response,18
true,5,1,2,0,false,q,true,false,0.0-2.0-0.14-0.129-3.129,1,0,1,90,false,stim,false,0,655.4000000059605,0,1,0,24779,task3,675851,false,false,575,image-keyboard-response,19
true,5,0,2,2,false,d,true,false,0.0-2.0-0.14-0.130-3.130,1,0,1,81,false,stim,false,1,742.2999999970198,0,0,1,24779,task3,678099,false,false,578,image-keyboard-response,20
true,5,2,2,2,true,d,false,true,0.0-2.0-0.14-0.131-3.131,1,0,1,68,false,stim,false,2,536.5999999940395,0,1,2,24779,task3,680139,false,false,581,image-keyboard-response,21
true,5,2,2,0,false,q,true,false,0.0-2.0-0.14-0.132-3.132,1,0,1,68,false,stim,false,0,679.2000000029802,0,1,0,24779,task3,682323,false,false,584,image-keyboard-response,22
true,5,2,2,0,false,q,true,false,0.0-2.0-0.14-0.133-3.133,1,0,1,68,false,stim,false,0,793.4000000059605,0,1,0,24779,task3,684619,false,false,587,image-keyboard-response,23
true,5,1,2,2,false,d,true,false,0.0-2.0-0.14-0.134-3.134,1,0,1,90,false,stim,false,2,2047.0999999940395,0,0,2,24779,task3,688171,false,false,590,image-keyboard-response,24
true,5,2,2,2,true,d,false,true,0.0-2.0-0.15-0.135-3.135,1,0,1,68,false,stim,false,1,730.0,0,0,1,24779,task3,690410,false,false,593,image-keyboard-response,25
false,5,-1,2,2,false,d,true,false,0.0-2.0-0.15-0.136-3.136,1,0,1,,false,stim,false,2,,0,0,2,24779,task3,694915,false,false,596,image-keyboard-response,26
true,5,1,2,0,false,q,true,false,0.0-2.0-0.15-0.137-3.137,1,0,1,90,false,stim,false,0,2455.5,0,1,0,24779,task3,698874,false,false,599,image-keyboard-response,27
true,6,2,1,0,false,q,true,false,0.0-2.0-0.15-0.138-3.138,1,0,0,68,true,stim,false,0,1284.5999999940395,0,1,0,24779,task3,701666,false,false,602,image-keyboard-response,1
true,6,0,1,1,false,z,true,false,0.0-2.0-0.15-0.139-3.139,1,0,0,81,false,stim,false,2,1273.7000000029802,0,0,1,24779,task3,704450,false,false,605,image-keyboard-response,2
true,6,0,1,1,false,z,true,false,0.0-2.0-0.15-0.140-3.140,1,0,0,81,false,stim,false,2,593.0,0,0,2,24779,task3,706546,false,false,608,image-keyboard-response,3
true,6,1,1,0,false,q,true,false,0.0-2.0-0.15-0.141-3.141,1,0,0,90,false,stim,false,0,2240.6000000089407,0,1,0,24779,task3,710290,false,false,611,image-keyboard-response,4
true,6,1,1,1,true,z,false,true,0.0-2.0-0.15-0.142-3.142,1,0,0,90,false,stim,false,2,759.3999999910593,0,0,2,24779,task3,712553,false,false,614,image-keyboard-response,5
true,6,2,1,1,false,z,false,false,0.0-2.0-0.15-0.143-3.143,1,0,0,68,false,stim,true,2,2592.2000000029802,0,0,1,24779,task3,716650,false,false,617,image-keyboard-response,6
true,6,2,1,1,false,z,false,false,0.0-2.0-0.16-0.144-3.144,1,0,0,68,false,stim,true,2,559.8000000119209,0,0,1,24779,task3,718713,false,false,620,image-keyboard-response,7
true,6,2,1,0,false,q,true,false,0.0-2.0-0.16-0.145-3.145,1,0,0,68,false,stim,false,0,456.8999999910593,0,1,0,24779,task3,720674,false,false,623,image-keyboard-response,8
true,6,2,1,0,false,q,true,false,0.0-2.0-0.16-0.146-3.146,1,0,0,68,false,stim,false,0,824.0999999940395,0,1,0,24779,task3,723001,false,false,626,image-keyboard-response,9
true,6,1,1,1,true,z,false,false,0.0-2.0-0.16-0.147-3.147,1,0,0,90,false,stim,false,2,2670.3999999910593,0,0,2,24779,task3,727175,false,true,629,image-keyboard-response,10
true,6,0,1,1,false,z,true,false,0.0-2.0-0.16-0.148-3.148,1,0,0,81,false,stim,false,2,942.7000000029802,0,0,2,24779,task3,729623,false,false,632,image-keyboard-response,11
true,6,2,1,1,false,z,false,false,0.0-2.0-0.16-0.149-3.149,1,0,0,68,false,stim,true,2,794.1000000089407,0,0,1,24779,task3,731927,false,false,635,image-keyboard-response,12
true,6,2,1,1,false,z,false,false,0.0-2.0-0.16-0.150-3.150,1,0,0,68,false,stim,true,2,1159.9000000059605,0,0,2,24779,task3,734591,false,false,638,image-keyboard-response,13
true,6,1,1,1,true,z,false,true,0.0-2.0-0.16-0.151-3.151,1,0,0,90,false,stim,false,2,631.9000000059605,0,0,1,24779,task3,736727,false,false,641,image-keyboard-response,14
true,6,1,1,0,false,q,true,false,0.0-2.0-0.16-0.152-3.152,1,0,0,90,false,stim,false,0,517.8000000119209,0,1,0,24779,task3,738751,false,false,644,image-keyboard-response,15
true,6,2,1,0,false,q,true,false,0.0-2.0-0.17-0.153-3.153,1,0,0,68,false,stim,false,0,845.4000000059605,0,1,0,24779,task3,741103,false,false,647,image-keyboard-response,16
true,6,2,1,0,false,q,true,false,0.0-2.0-0.17-0.154-3.154,1,0,0,68,false,stim,false,0,849.5,0,1,0,24779,task3,743462,false,false,650,image-keyboard-response,17
true,6,2,1,1,false,z,false,false,0.0-2.0-0.17-0.155-3.155,1,0,0,68,false,stim,true,2,517.6999999880791,0,0,2,24779,task3,745486,false,false,653,image-keyboard-response,18
true,6,2,1,1,false,z,false,false,0.0-2.0-0.17-0.156-3.156,1,0,0,68,false,stim,true,2,517.7999999970198,0,0,1,24779,task3,747510,false,false,656,image-keyboard-response,19
true,6,0,1,0,true,q,false,true,0.0-2.0-0.17-0.157-3.157,1,0,0,81,false,stim,false,0,1496.7999999970198,0,1,0,24779,task3,750510,false,false,659,image-keyboard-response,20
true,6,1,1,1,true,z,false,false,0.0-2.0-0.17-0.158-3.158,1,0,0,90,false,stim,false,2,1152.2999999970198,0,0,2,24779,task3,753166,false,true,662,image-keyboard-response,21
true,6,1,1,1,true,z,false,true,0.0-2.0-0.17-0.159-3.159,1,0,0,90,false,stim,false,2,1110.3999999910593,0,0,2,24779,task3,755782,false,false,665,image-keyboard-response,22
true,6,0,1,1,false,z,true,false,0.0-2.0-0.17-0.160-3.160,1,0,0,81,false,stim,false,2,892.6999999880791,0,0,1,24779,task3,758182,false,false,668,image-keyboard-response,23
true,6,1,1,1,true,z,false,true,0.0-2.0-0.17-0.161-3.161,1,0,0,90,false,stim,false,2,949.5,0,0,1,24779,task3,760638,false,false,671,image-keyboard-response,24
true,6,0,1,0,true,q,false,true,0.0-2.0-0.18-0.162-3.162,1,0,0,81,false,stim,false,0,1553.0,0,0,0,24779,task3,763702,false,false,674,image-keyboard-response,25
true,6,1,1,1,true,z,false,true,0.0-2.0-0.18-0.163-3.163,1,0,0,90,false,stim,false,2,2375.1000000089407,0,1,2,24779,task3,767581,false,false,677,image-keyboard-response,26
true,6,2,1,0,false,q,true,false,0.0-2.0-0.18-0.164-3.164,1,0,0,68,false,stim,false,0,1447.7000000029802,0,0,0,24779,task3,770533,false,false,680,image-keyboard-response,27
true,6,1,1,0,false,q,true,false,0.0-2.0-0.18-0.165-3.165,1,0,0,90,false,stim,false,0,1561.0999999940395,0,0,0,24779,task3,773596,false,false,683,image-keyboard-response,28
true,6,0,1,1,false,z,true,false,0.0-2.0-0.18-0.166-3.166,1,0,0,81,false,stim,false,2,1448.7000000029802,0,0,1,24779,task3,776548,false,false,686,image-keyboard-response,29
true,7,0,1,1,false,z,true,false,0.0-2.0-0.18-0.167-3.167,0,0,1,81,true,stim,false,1,823.0,0,1,2,24779,task3,778876,false,false,689,image-keyboard-response,1
true,7,2,1,0,false,q,true,false,0.0-2.0-0.18-0.168-3.168,0,0,1,68,false,stim,false,1,1089.2999999970198,0,0,1,24779,task3,781468,false,false,692,image-keyboard-response,2
true,7,1,1,1,true,z,false,true,0.0-2.0-0.18-0.169-3.169,0,0,1,90,false,stim,false,1,240.6000000089407,0,1,2,24779,task3,783212,false,false,695,image-keyboard-response,3
true,7,2,1,0,false,q,true,false,0.0-2.0-0.18-0.170-3.170,0,0,1,68,false,stim,false,1,1140.8999999910593,0,0,1,24779,task3,785860,false,false,698,image-keyboard-response,4
true,7,0,1,1,false,z,true,true,0.0-2.0-0.19-0.171-3.171,0,0,1,81,false,stim,false,1,543.0,0,1,2,24779,task3,787908,false,true,701,image-keyboard-response,5
true,7,0,1,1,false,z,true,false,0.0-2.0-0.19-0.172-3.172,0,0,1,81,false,stim,false,1,1919.2999999970198,0,1,2,24779,task3,791332,false,false,704,image-keyboard-response,6
true,7,1,1,1,true,z,false,true,0.0-2.0-0.19-0.173-3.173,0,0,1,90,false,stim,false,0,431.90000000596046,0,0,0,24779,task3,793268,false,false,707,image-keyboard-response,7
true,7,2,1,0,false,q,true,false,0.0-2.0-0.19-0.174-3.174,0,0,1,68,false,stim,false,1,1920.5,0,0,1,24779,task3,796692,false,false,710,image-keyboard-response,8
true,7,1,1,0,false,q,false,false,0.0-2.0-0.19-0.175-3.175,0,0,1,90,false,stim,true,1,427.5,0,0,1,24779,task3,798628,false,false,713,image-keyboard-response,9
true,7,1,1,1,true,z,false,true,0.0-2.0-0.19-0.176-3.176,0,0,1,90,false,stim,false,0,911.9000000059605,0,0,0,24779,task3,801044,false,false,716,image-keyboard-response,10
true,7,1,1,1,true,z,false,false,0.0-2.0-0.19-0.177-3.177,0,0,1,90,false,stim,false,0,1064.6000000089407,0,0,0,24779,task3,803611,false,true,719,image-keyboard-response,11
true,7,2,1,1,false,z,true,false,0.0-2.0-0.19-0.178-3.178,0,0,1,68,false,stim,false,1,1929.7000000029802,0,1,2,24779,task3,807051,false,false,722,image-keyboard-response,12
true,7,0,1,0,true,q,false,true,0.0-2.0-0.19-0.179-3.179,0,0,1,81,false,stim,false,1,1208.1000000089407,0,0,1,24779,task3,809763,false,false,725,image-keyboard-response,13
true,7,0,1,0,true,q,false,true,0.0-2.0-0.20-0.180-3.180,0,0,1,81,false,stim,false,1,1208.1000000089407,0,0,1,24779,task3,812475,false,false,728,image-keyboard-response,14
true,7,2,1,1,false,z,true,false,0.0-2.0-0.20-0.181-3.181,0,0,1,68,false,stim,false,0,1729.5999999940395,0,0,0,24779,task3,815708,false,false,731,image-keyboard-response,15
true,7,1,1,0,false,q,false,false,0.0-2.0-0.20-0.182-3.182,0,0,1,90,false,stim,true,1,632.0999999940395,0,0,1,24779,task3,817843,false,false,734,image-keyboard-response,16
true,7,2,1,1,false,z,true,false,0.0-2.0-0.20-0.183-3.183,0,0,1,68,false,stim,false,1,520.4000000059605,0,1,2,24779,task3,819867,false,false,737,image-keyboard-response,17
true,7,2,1,1,false,z,true,false,0.0-2.0-0.20-0.184-3.184,0,0,1,68,false,stim,false,1,1881.0,0,1,2,24779,task3,823251,false,false,740,image-keyboard-response,18
true,7,1,1,1,true,z,false,true,0.0-2.0-0.20-0.185-3.185,0,0,1,90,false,stim,false,0,439.90000000596046,0,0,0,24779,task3,825195,false,false,743,image-keyboard-response,19
true,7,1,1,1,true,z,false,true,0.0-2.0-0.20-0.186-3.186,0,0,1,90,false,stim,false,0,1000.3999999910593,0,0,0,24779,task3,827699,false,false,746,image-keyboard-response,20
true,7,1,1,0,false,q,false,false,0.0-2.0-0.20-0.187-3.187,0,0,1,90,false,stim,true,1,1880.4000000059605,0,1,1,24779,task3,831083,false,false,749,image-keyboard-response,21
true,7,2,1,1,false,z,true,false,0.0-2.0-0.20-0.188-3.188,0,0,1,68,false,stim,false,1,1715.7000000029802,0,1,2,24779,task3,834306,false,false,752,image-keyboard-response,22
true,7,2,1,1,false,z,true,false,0.0-2.0-0.21-0.189-3.189,0,0,1,68,false,stim,false,1,730.0,0,1,2,24779,task3,836546,false,false,755,image-keyboard-response,23
true,7,1,1,1,true,z,false,true,0.0-2.0-0.21-0.190-3.190,0,0,1,90,false,stim,false,1,1272.6000000089407,0,1,2,24779,task3,839322,false,false,758,image-keyboard-response,24
true,8,0,2,0,true,q,false,false,0.0-2.0-0.21-0.191-3.191,0,1,1,81,true,stim,false,0,1471.8999999910593,0,1,1,24779,task3,842298,false,true,761,image-keyboard-response,1
true,8,2,2,2,true,d,false,false,0.0-2.0-0.21-0.192-3.192,0,1,1,68,false,stim,false,1,792.0,0,0,0,24779,task3,844594,false,true,764,image-keyboard-response,2
true,8,2,2,2,true,d,false,true,0.0-2.0-0.21-0.193-3.193,0,1,1,68,false,stim,false,1,649.0999999940395,0,0,0,24779,task3,846746,false,false,767,image-keyboard-response,3
true,8,1,2,0,false,q,true,false,0.0-2.0-0.21-0.194-3.194,0,1,1,90,false,stim,false,0,1523.1000000089407,0,1,1,24779,task3,849778,false,false,770,image-keyboard-response,4
true,8,2,2,0,false,q,true,false,0.0-2.0-0.21-0.195-3.195,0,1,1,68,false,stim,false,0,599.9000000059605,0,1,1,24779,task3,851882,false,false,773,image-keyboard-response,5
true,8,1,2,2,false,d,false,false,0.0-2.0-0.21-0.196-3.196,0,1,1,90,false,stim,true,1,1296.4000000059605,0,0,0,24779,task3,854682,false,false,776,image-keyboard-response,6
true,8,0,2,1,false,z,true,false,0.0-2.0-0.21-0.197-3.197,0,1,1,81,false,stim,false,1,568.2999999970198,0,1,2,24779,task3,856754,false,false,779,image-keyboard-response,7
true,8,0,2,1,false,z,true,false,0.0-2.0-0.22-0.198-3.198,0,1,1,81,false,stim,false,1,623.7999999970198,0,1,2,24779,task3,858882,false,false,782,image-keyboard-response,8
true,8,0,2,1,false,z,true,false,0.0-2.0-0.22-0.199-3.199,0,1,1,81,false,stim,false,1,615.3000000119209,0,1,2,24779,task3,861001,false,false,785,image-keyboard-response,9
true,8,0,2,2,false,d,true,false,0.0-2.0-0.22-0.200-3.200,0,1,1,81,false,stim,false,1,633.0,0,1,0,24779,task3,863137,false,false,788,image-keyboard-response,10
true,8,0,2,2,false,d,true,false,0.0-2.0-0.22-0.201-3.201,0,1,1,81,false,stim,false,1,400.1000000089407,0,1,0,24779,task3,865042,false,false,791,image-keyboard-response,11
true,9,1,2,1,true,z,false,true,0.0-2.0-0.22-0.202-3.202,1,0,1,90,true,stim,false,1,1373.5,0,1,2,24779,task3,867921,false,false,794,image-keyboard-response,1
true,9,1,2,2,false,d,true,false,0.0-2.0-0.22-0.203-3.203,1,0,1,90,false,stim,false,2,651.9000000059605,0,1,0,24779,task3,870081,false,false,797,image-keyboard-response,2
true,9,2,2,1,false,z,true,false,0.0-2.0-0.22-0.204-3.204,1,0,1,68,false,stim,false,0,1512.0,0,0,1,24779,task3,873097,false,false,800,image-keyboard-response,3
true,9,2,2,1,false,z,true,false,0.0-2.0-0.22-0.205-3.205,1,0,1,68,false,stim,false,0,52.599999994039536,0,0,1,24779,task3,874657,false,false,803,image-keyboard-response,4
true,9,2,2,1,false,z,true,false,0.0-2.0-0.22-0.206-3.206,1,0,1,68,false,stim,false,0,872.2999999970198,0,0,1,24779,task3,877033,false,false,806,image-keyboard-response,5
true,9,0,2,1,false,z,true,false,0.0-2.0-0.23-0.207-3.207,1,0,1,81,false,stim,false,1,2947.1000000089407,0,1,2,24779,task3,881492,false,false,809,image-keyboard-response,6
false,9,-1,2,1,false,z,true,false,0.0-2.0-0.23-0.208-3.208,1,0,1,,false,stim,false,1,,0,1,2,24779,task3,886004,false,false,812,image-keyboard-response,7
true,9,1,2,2,false,d,true,false,0.0-2.0-0.23-0.209-3.209,1,0,1,90,false,stim,false,2,2142.5999999940395,0,1,0,24779,task3,889650,false,false,815,image-keyboard-response,8
false,9,-1,2,1,false,z,true,false,0.0-2.0-0.23-0.210-3.210,1,0,1,,false,stim,false,0,,0,0,1,24779,task3,894154,false,false,818,image-keyboard-response,9
false,9,-1,2,2,false,d,true,false,0.0-2.0-0.23-0.211-3.211,1,0,1,,false,stim,false,2,,0,1,0,24779,task3,898662,false,false,821,image-keyboard-response,10
true,9,1,2,2,false,d,true,false,0.0-2.0-0.23-0.212-3.212,1,0,1,90,false,stim,false,2,1412.0,0,1,0,24779,task3,901578,false,false,824,image-keyboard-response,11
true,9,2,2,1,false,z,true,false,0.0-2.0-0.23-0.213-3.213,1,0,1,68,false,stim,false,1,1687.4000000059605,0,1,2,24779,task3,904769,false,false,827,image-keyboard-response,12
true,9,2,2,1,false,z,true,false,0.0-2.0-0.23-0.214-3.214,1,0,1,68,false,stim,false,0,125.3999999910593,0,0,1,24779,task3,906401,false,false,830,image-keyboard-response,13
true,9,2,2,1,false,z,true,false,0.0-2.0-0.23-0.215-3.215,1,0,1,68,false,stim,false,0,528.7999999970198,0,0,1,24779,task3,908434,false,false,833,image-keyboard-response,14
false,9,-1,2,1,false,z,true,false,0.0-2.0-0.24-0.216-3.216,1,0,1,,false,stim,false,0,,0,0,1,24779,task3,912938,false,false,836,image-keyboard-response,15
true,9,1,2,1,true,z,false,true,0.0-2.0-0.24-0.217-3.217,1,0,1,90,false,stim,false,0,1837.7000000029802,0,0,1,24779,task3,916280,false,false,839,image-keyboard-response,16
false,9,-1,2,1,false,z,true,false,0.0-2.0-0.24-0.218-3.218,1,0,1,,false,stim,false,1,,0,1,2,24779,task3,920784,false,false,842,image-keyboard-response,17
false,9,-1,2,1,false,z,true,false,0.0-2.0-0.24-0.219-3.219,1,0,1,,false,stim,false,1,,0,1,2,24779,task3,925291,false,false,845,image-keyboard-response,18
true,9,1,2,2,false,d,true,false,0.0-2.0-0.24-0.220-3.220,1,0,1,90,false,stim,false,2,729.7000000029802,0,1,0,24779,task3,927525,false,false,848,image-keyboard-response,19
true,9,1,2,1,true,z,false,true,0.0-2.0-0.24-0.221-3.221,1,0,1,90,false,stim,false,0,919.5999999940395,0,0,1,24779,task3,929949,false,false,851,image-keyboard-response,20
true,9,0,2,1,false,z,true,false,0.0-2.0-0.24-0.222-3.222,1,0,1,81,false,stim,false,1,2515.7999999970198,0,1,2,24779,task3,933972,false,false,854,image-keyboard-response,21
true,9,1,2,2,false,d,true,false,0.0-2.0-0.24-0.223-3.223,1,0,1,90,false,stim,false,2,1700.5,0,1,0,24779,task3,937181,false,false,857,image-keyboard-response,22
true,9,2,2,2,true,d,false,true,0.0-2.0-0.24-0.224-3.224,1,0,1,68,false,stim,false,2,1823.9000000059605,0,1,0,24779,task3,940509,false,false,860,image-keyboard-response,23
true,9,2,2,1,false,z,true,false,0.0-2.0-0.25-0.225-3.225,1,0,1,68,false,stim,false,0,1999.2999999970198,0,0,1,24779,task3,944013,false,false,863,image-keyboard-response,24
false,9,-1,2,1,false,z,true,false,0.0-2.0-0.25-0.226-3.226,1,0,1,,false,stim,false,1,,0,1,2,24779,task3,948518,false,false,866,image-keyboard-response,25
false,10,-1,2,2,false,d,true,true,0.0-2.0-0.25-0.227-3.227,1,0,1,,true,stim,false,1,,0,0,1,24779,task3,953021,false,true,869,image-keyboard-response,1
true,10,2,2,2,true,d,false,true,0.0-2.0-0.25-0.228-3.228,1,0,1,68,false,stim,false,1,1673.4000000059605,0,0,1,24779,task3,956205,false,false,872,image-keyboard-response,2
true,10,2,2,1,false,z,true,false,0.0-2.0-0.25-0.229-3.229,1,0,1,68,false,stim,false,1,1248.0999999940395,0,1,2,24779,task3,958956,false,false,875,image-keyboard-response,3
true,10,2,2,2,true,d,false,true,0.0-2.0-0.25-0.230-3.230,1,0,1,68,false,stim,false,2,1181.300000011921,0,1,0,24779,task3,961644,false,false,878,image-keyboard-response,4
true,10,1,2,2,false,d,true,false,0.0-2.0-0.25-0.231-3.231,1,0,1,90,false,stim,false,2,1208.0,0,1,0,24779,task3,964356,false,false,881,image-keyboard-response,5
true,10,0,2,2,false,d,true,false,0.0-2.0-0.25-0.232-3.232,1,0,1,81,false,stim,false,2,809.0,0,1,0,24779,task3,966668,false,false,884,image-keyboard-response,6
true,10,0,2,1,false,z,true,true,0.0-2.0-0.25-0.233-3.233,1,0,1,81,false,stim,false,1,1200.5,0,1,2,24779,task3,969372,false,true,887,image-keyboard-response,7
true,10,1,2,2,false,d,false,false,0.0-2.0-0.26-0.234-3.234,1,0,1,90,false,stim,true,1,2431.2000000029802,0,1,1,24779,task3,973307,false,false,890,image-keyboard-response,8
true,10,2,2,1,false,z,true,false,0.0-2.0-0.26-0.235-3.235,1,0,1,68,false,stim,false,1,1584.0,0,1,2,24779,task3,976395,false,false,893,image-keyboard-response,9
true,10,0,2,2,false,d,true,false,0.0-2.0-0.26-0.236-3.236,1,0,1,81,false,stim,false,2,1056.2000000029802,0,0,0,24779,task3,978954,false,false,896,image-keyboard-response,10
true,10,1,2,1,true,z,false,true,0.0-2.0-0.26-0.237-3.237,1,0,1,90,false,stim,false,1,1415.7999999970198,0,1,2,24779,task3,981874,false,false,899,image-keyboard-response,11
true,10,2,2,2,true,d,false,true,0.0-2.0-0.26-0.238-3.238,1,0,1,68,false,stim,false,1,2689.5999999940395,0,1,1,24779,task3,986075,false,false,902,image-keyboard-response,12
true,11,2,2,2,true,d,false,true,0.0-2.0-0.26-0.239-3.239,0,1,1,68,true,stim,false,2,1183.7000000029802,0,1,1,24779,task3,988763,false,false,905,image-keyboard-response,1
true,11,2,2,1,false,z,true,false,0.0-2.0-0.26-0.240-3.240,0,1,1,68,false,stim,false,1,831.8999999910593,0,1,2,24779,task3,991099,false,false,908,image-keyboard-response,2
true,11,2,2,1,false,z,false,false,0.0-2.0-0.26-0.241-3.241,0,1,1,68,false,stim,true,2,2852.7999999970198,0,0,0,24779,task3,995456,false,false,911,image-keyboard-response,3
true,11,1,2,1,true,z,false,true,0.0-2.0-0.26-0.242-3.242,0,1,1,90,false,stim,false,2,2208.1000000089407,0,0,0,24779,task3,999169,false,false,914,image-keyboard-response,4
true,11,1,2,2,false,d,true,false,0.0-2.0-0.27-0.243-3.243,0,1,1,90,false,stim,false,2,1645.7999999970198,0,1,1,24779,task3,1002320,false,false,917,image-keyboard-response,5
true,11,2,2,2,true,d,false,true,0.0-2.0-0.27-0.244-3.244,0,1,1,68,false,stim,false,2,2164.300000011921,0,1,1,24779,task3,1005989,false,false,920,image-keyboard-response,6
true,11,2,2,2,true,d,false,true,0.0-2.0-0.27-0.245-3.245,0,1,1,68,false,stim,false,2,1299.9000000059605,0,1,1,24779,task3,1008797,false,false,923,image-keyboard-response,7
true,11,1,2,1,true,z,false,true,0.0-2.0-0.27-0.246-3.246,0,1,1,90,false,stim,false,2,1823.7999999970198,0,0,0,24779,task3,1012125,false,false,926,image-keyboard-response,8
true,11,1,2,1,true,z,false,true,0.0-2.0-0.27-0.247-3.247,0,1,1,90,false,stim,false,2,1713.7999999970198,0,0,0,24779,task3,1015348,false,false,929,image-keyboard-response,9
true,11,2,2,1,false,z,true,false,0.0-2.0-0.27-0.248-3.248,0,1,1,68,false,stim,false,1,1521.9000000059605,0,0,2,24779,task3,1018380,false,false,932,image-keyboard-response,10
true,11,0,2,1,false,z,true,false,0.0-2.0-0.27-0.249-3.249,0,1,1,81,false,stim,false,1,1359.5999999940395,0,0,2,24779,task3,1021244,false,false,935,image-keyboard-response,11
true,11,1,2,1,true,z,false,true,0.0-2.0-0.27-0.250-3.250,0,1,1,90,false,stim,false,2,1751.7999999970198,0,1,0,24779,task3,1024501,false,false,938,image-keyboard-response,12
false,11,-1,2,1,false,z,true,false,0.0-2.0-0.27-0.251-3.251,0,1,1,,false,stim,false,1,,0,0,2,24779,task3,1029005,false,false,941,image-keyboard-response,13
true,11,1,2,1,true,z,false,true,0.0-2.0-0.28-0.252-3.252,0,1,1,90,false,stim,false,2,2178.8999999910593,0,1,0,24779,task3,1032689,false,false,944,image-keyboard-response,14
true,12,2,2,2,true,d,false,true,0.0-2.0-0.28-0.253-3.253,1,1,0,68,true,stim,false,2,1864.6000000089407,0,1,1,24779,task3,1036057,false,false,947,image-keyboard-response,1
true,12,1,2,0,false,q,false,false,0.0-2.0-0.28-0.254-3.254,1,1,0,90,false,stim,true,1,2659.5,0,0,2,24779,task3,1040223,false,false,950,image-keyboard-response,2
true,12,2,2,0,false,q,true,false,0.0-2.0-0.28-0.255-3.255,1,1,0,68,false,stim,false,1,1086.8999999910593,0,0,2,24779,task3,1042815,false,false,953,image-keyboard-response,3
true,12,0,2,2,false,d,true,false,0.0-2.0-0.28-0.256-3.256,1,1,0,81,false,stim,false,2,324.3999999910593,0,1,1,24779,task3,1044648,false,false,956,image-keyboard-response,4
false,12,-1,2,2,false,d,true,false,0.0-2.0-0.28-0.257-3.257,1,1,0,,false,stim,false,2,,0,1,1,24779,task3,1049156,false,false,959,image-keyboard-response,5
true,12,1,2,1,true,z,false,true,0.0-2.0-0.28-0.258-3.258,1,1,0,90,false,stim,false,1,1584.0,0,1,0,24779,task3,1052247,false,false,962,image-keyboard-response,6
true,12,2,2,0,false,q,true,false,0.0-2.0-0.28-0.259-3.259,1,1,0,68,false,stim,false,1,1023.0,0,0,2,24779,task3,1054775,false,false,965,image-keyboard-response,7
true,12,1,2,1,true,z,false,true,0.0-2.0-0.28-0.260-3.260,1,1,0,90,false,stim,false,1,1197.0999999940395,0,1,0,24779,task3,1057479,false,false,968,image-keyboard-response,8
true,12,0,2,0,true,q,false,true,0.0-2.0-0.29-0.261-3.261,1,1,0,81,false,stim,false,1,925.2000000029802,0,0,2,24779,task3,1059911,false,false,971,image-keyboard-response,9
true,12,1,2,1,true,z,false,true,0.0-2.0-0.29-0.262-3.262,1,1,0,90,false,stim,false,1,1127.199999988079,0,1,0,24779,task3,1062543,false,false,974,image-keyboard-response,10
true,12,0,2,0,true,q,false,true,0.0-2.0-0.29-0.263-3.263,1,1,0,81,false,stim,false,1,1144.2999999970198,0,1,2,24779,task3,1065190,false,false,977,image-keyboard-response,11
true,12,2,2,2,true,d,false,true,0.0-2.0-0.29-0.264-3.264,1,1,0,68,false,stim,false,2,1039.9000000059605,0,0,1,24779,task3,1067734,false,false,980,image-keyboard-response,12
true,12,2,2,2,true,d,false,true,0.0-2.0-0.29-0.265-3.265,1,1,0,68,false,stim,false,2,1280.7000000029802,0,0,1,24779,task3,1070519,false,false,983,image-keyboard-response,13
true,12,0,2,0,true,q,false,false,0.0-2.0-0.29-0.266-3.266,1,1,0,81,false,stim,false,1,2166.0,0,1,2,24779,task3,1074191,false,true,986,image-keyboard-response,14
true,13,0,2,0,true,q,false,true,0.0-2.0-0.29-0.267-3.267,1,0,1,81,true,stim,false,2,1560.300000011921,0,0,1,24779,task3,1077255,false,false,989,image-keyboard-response,1
true,13,1,2,1,true,z,false,true,0.0-2.0-0.29-0.268-3.268,1,0,1,90,false,stim,false,1,1040.0,0,1,0,24779,task3,1079799,false,false,992,image-keyboard-response,2
true,13,1,2,1,true,z,false,true,0.0-2.0-0.29-0.269-3.269,1,0,1,90,false,stim,false,1,1120.300000011921,0,1,0,24779,task3,1082423,false,false,995,image-keyboard-response,3
true,13,2,2,0,false,q,true,false,0.0-2.0-0.30-0.270-3.270,1,0,1,68,false,stim,false,0,2571.6000000089407,0,1,2,24779,task3,1086502,false,false,998,image-keyboard-response,4
true,13,0,2,0,true,q,false,true,0.0-2.0-0.30-0.271-3.271,1,0,1,81,false,stim,false,2,1947.8999999910593,0,0,1,24779,task3,1089959,false,false,1001,image-keyboard-response,5
true,13,1,2,1,true,z,false,true,0.0-2.0-0.30-0.272-3.272,1,0,1,90,false,stim,false,1,935.8000000119209,0,1,0,24779,task3,1092398,false,false,1004,image-keyboard-response,6
true,13,0,2,0,true,q,false,true,0.0-2.0-0.30-0.273-3.273,1,0,1,81,false,stim,false,2,1135.2000000029802,0,1,1,24779,task3,1095039,false,false,1007,image-keyboard-response,7
true,13,1,2,1,true,z,false,true,0.0-2.0-0.30-0.274-3.274,1,0,1,90,false,stim,false,1,1087.0999999940395,0,1,0,24779,task3,1097630,false,false,1010,image-keyboard-response,8
true,13,0,2,0,true,q,false,true,0.0-2.0-0.30-0.275-3.275,1,0,1,81,false,stim,false,0,1319.5999999940395,0,0,2,24779,task3,1100454,false,false,1013,image-keyboard-response,9
true,13,1,2,1,true,z,false,true,0.0-2.0-0.30-0.276-3.276,1,0,1,90,false,stim,false,1,817.0,0,1,0,24779,task3,1102774,false,false,1016,image-keyboard-response,10
true,13,0,2,0,true,q,false,false,0.0-2.0-0.30-0.277-3.277,1,0,1,81,false,stim,false,2,1163.800000011921,0,1,1,24779,task3,1105446,false,true,1019,image-keyboard-response,11
true,14,2,2,2,true,d,false,false,0.0-2.0-0.30-0.278-3.278,1,1,0,68,true,stim,false,0,1567.6000000089407,0,0,2,24779,task3,1108518,false,true,1022,image-keyboard-response,1
true,14,1,2,2,false,d,true,false,0.0-2.0-0.31-0.279-3.279,1,1,0,90,false,stim,false,0,550.7999999970198,0,0,2,24779,task3,1110573,false,false,1025,image-keyboard-response,2
true,14,0,2,0,true,q,false,true,0.0-2.0-0.31-0.280-3.280,1,1,0,81,false,stim,false,0,1643.3999999910593,0,1,1,24779,task3,1113725,false,false,1028,image-keyboard-response,3
true,14,1,2,1,true,z,false,true,0.0-2.0-0.31-0.281-3.281,1,1,0,90,false,stim,false,1,1096.0,0,1,0,24779,task3,1116326,false,false,1031,image-keyboard-response,4
true,14,0,2,0,true,q,false,true,0.0-2.0-0.31-0.282-3.282,1,1,0,81,false,stim,false,0,1374.0,0,1,1,24779,task3,1119205,false,false,1034,image-keyboard-response,5
true,14,0,2,0,true,q,false,true,0.0-2.0-0.31-0.283-3.283,1,1,0,81,false,stim,false,0,990.8999999910593,0,1,1,24779,task3,1121701,false,false,1037,image-keyboard-response,6
true,14,2,2,2,true,d,false,true,0.0-2.0-0.31-0.284-3.284,1,1,0,68,false,stim,false,0,1531.800000011921,0,0,2,24779,task3,1124741,false,false,1040,image-keyboard-response,7
true,14,1,2,1,true,z,false,true,0.0-2.0-0.31-0.285-3.285,1,1,0,90,false,stim,false,1,1448.199999988079,0,1,0,24779,task3,1127693,false,false,1043,image-keyboard-response,8
true,14,2,2,2,true,d,false,true,0.0-2.0-0.31-0.286-3.286,1,1,0,68,false,stim,false,0,1120.2999999970198,0,0,2,24779,task3,1130317,false,false,1046,image-keyboard-response,9
true,14,1,2,1,true,z,false,true,0.0-2.0-0.31-0.287-3.287,1,1,0,90,false,stim,false,1,1021.7999999970198,0,0,0,24779,task3,1132845,false,false,1049,image-keyboard-response,10
true,14,2,2,2,true,d,false,true,0.0-2.0-0.32-0.288-3.288,1,1,0,68,false,stim,false,0,1376.3999999910593,0,1,2,24779,task3,1135725,false,false,1052,image-keyboard-response,11
true,14,1,2,1,true,z,false,true,0.0-2.0-0.32-0.289-3.289,1,1,0,90,false,stim,false,1,1111.8999999910593,0,0,0,24779,task3,1138341,false,false,1055,image-keyboard-response,12
false,14,-1,2,0,false,q,true,false,0.0-2.0-0.32-0.290-3.290,1,1,0,,false,stim,false,0,,0,1,1,24779,task3,1142848,false,false,1058,image-keyboard-response,13
true,14,1,2,1,true,z,false,true,0.0-2.0-0.32-0.291-3.291,1,1,0,90,false,stim,false,1,1150.2000000029802,0,0,0,24779,task3,1145503,false,false,1061,image-keyboard-response,14
true,15,0,2,0,true,q,false,true,0.0-2.0-0.32-0.292-3.292,0,1,1,81,true,stim,false,0,967.2999999970198,0,1,1,24779,task3,1147975,false,false,1064,image-keyboard-response,1
true,15,2,2,2,true,d,false,true,0.0-2.0-0.32-0.293-3.293,0,1,1,68,false,stim,false,2,1584.5999999940395,0,1,2,24779,task3,1151063,false,false,1067,image-keyboard-response,2
true,15,0,2,0,true,q,false,true,0.0-2.0-0.32-0.294-3.294,0,1,1,81,false,stim,false,0,2189.699999988079,0,1,1,24779,task3,1154758,false,false,1070,image-keyboard-response,3
true,15,2,2,2,true,d,false,true,0.0-2.0-0.32-0.295-3.295,0,1,1,68,false,stim,false,2,1542.7000000029802,0,1,2,24779,task3,1157806,false,false,1073,image-keyboard-response,4
true,15,1,2,0,false,q,false,false,0.0-2.0-0.32-0.296-3.296,0,1,1,90,false,stim,true,1,960.2999999970198,0,0,0,24779,task3,1160270,false,false,1076,image-keyboard-response,5
true,15,1,2,0,false,q,false,false,0.0-2.0-0.33-0.297-3.297,0,1,1,90,false,stim,true,1,710.0,0,0,0,24779,task3,1162486,false,false,1079,image-keyboard-response,6
false,15,-1,2,0,false,q,true,false,0.0-2.0-0.33-0.298-3.298,0,1,1,,false,stim,false,0,,0,1,1,24779,task3,1166999,false,false,1082,image-keyboard-response,7
true,15,0,2,2,false,d,true,false,0.0-2.0-0.33-0.299-3.299,0,1,1,81,false,stim,false,2,1141.7000000029802,0,1,2,24779,task3,1169646,false,false,1085,image-keyboard-response,8
true,15,2,2,0,false,q,true,false,0.0-2.0-0.33-0.300-3.300,0,1,1,68,false,stim,false,0,1432.300000011921,0,1,1,24779,task3,1172582,false,false,1088,image-keyboard-response,9
true,15,0,2,0,true,q,false,true,0.0-2.0-0.33-0.301-3.301,0,1,1,81,false,stim,false,0,787.5999999940395,0,1,1,24779,task3,1174877,false,false,1091,image-keyboard-response,10
true,15,2,2,2,true,d,false,true,0.0-2.0-0.33-0.302-3.302,0,1,1,68,false,stim,false,2,1222.9000000059605,0,0,2,24779,task3,1177605,false,false,1094,image-keyboard-response,11
true,15,1,2,0,false,q,false,false,0.0-2.0-0.33-0.303-3.303,0,1,1,90,false,stim,true,1,831.5,0,1,0,24779,task3,1179941,false,false,1097,image-keyboard-response,12
true,15,2,2,2,true,d,false,true,0.0-2.0-0.33-0.304-3.304,0,1,1,68,false,stim,false,2,1115.0,0,0,2,24779,task3,1182565,false,false,1100,image-keyboard-response,13
true,15,1,2,0,false,q,false,false,0.0-2.0-0.33-0.305-3.305,0,1,1,90,false,stim,true,1,906.2000000029802,0,1,0,24779,task3,1184982,false,false,1103,image-keyboard-response,14
true,16,0,2,0,true,q,false,true,0.0-2.0-0.34-0.306-3.306,1,1,0,81,true,stim,false,0,1588.699999988079,0,1,1,24779,task3,1188077,false,false,1106,image-keyboard-response,1
true,16,2,2,1,false,z,false,false,0.0-2.0-0.34-0.307-3.307,1,1,0,68,false,stim,true,2,1124.7000000029802,0,0,2,24779,task3,1190709,false,false,1109,image-keyboard-response,2
true,16,0,2,0,true,q,false,true,0.0-2.0-0.34-0.308-3.308,1,1,0,81,false,stim,false,0,1695.699999988079,0,1,1,24779,task3,1193909,false,false,1112,image-keyboard-response,3
true,16,1,2,0,false,q,true,false,0.0-2.0-0.34-0.309-3.309,1,1,0,90,false,stim,false,0,1330.7000000029802,0,1,0,24779,task3,1196749,false,false,1115,image-keyboard-response,4
true,16,0,2,0,true,q,false,true,0.0-2.0-0.34-0.310-3.310,1,1,0,81,false,stim,false,0,1967.7999999970198,0,1,1,24779,task3,1200220,false,false,1118,image-keyboard-response,5
true,16,2,2,1,false,z,false,false,0.0-2.0-0.34-0.311-3.311,1,1,0,68,false,stim,true,2,1591.4000000059605,0,1,2,24779,task3,1203316,false,false,1121,image-keyboard-response,6
true,16,1,2,1,true,z,false,true,0.0-2.0-0.34-0.312-3.312,1,1,0,90,false,stim,false,2,1111.9000000059605,0,1,2,24779,task3,1205932,false,false,1124,image-keyboard-response,7
true,16,0,2,0,true,q,false,true,0.0-2.0-0.34-0.313-3.313,1,1,0,81,false,stim,false,0,1831.7000000029802,0,1,0,24779,task3,1209268,false,false,1127,image-keyboard-response,8
true,16,0,2,0,true,q,false,true,0.0-2.0-0.34-0.314-3.314,1,1,0,81,false,stim,false,0,977.5999999940395,0,1,0,24779,task3,1211756,false,false,1130,image-keyboard-response,9
true,16,0,2,0,true,q,false,true,0.0-2.0-0.35-0.315-3.315,1,1,0,81,false,stim,false,0,1043.3999999910593,0,1,0,24779,task3,1214308,false,false,1133,image-keyboard-response,10
true,17,1,2,2,false,d,true,true,0.0-2.0-0.35-0.316-3.316,1,0,1,90,true,stim,false,0,1082.0,0,0,1,24779,task3,1216900,false,true,1136,image-keyboard-response,1
true,17,2,2,1,false,z,true,false,0.0-2.0-0.35-0.317-3.317,1,0,1,68,false,stim,false,1,1179.9000000059605,0,1,2,24779,task3,1219588,false,false,1139,image-keyboard-response,2
true,17,1,2,0,false,q,true,false,0.0-2.0-0.35-0.318-3.318,1,0,1,90,false,stim,false,0,1782.5,0,1,0,24779,task3,1222875,false,false,1142,image-keyboard-response,3
true,17,1,2,1,true,z,false,true,0.0-2.0-0.35-0.319-3.319,1,0,1,90,false,stim,false,1,1864.7999999970198,0,1,2,24779,task3,1226251,false,false,1145,image-keyboard-response,4
true,17,1,2,1,true,z,false,true,0.0-2.0-0.35-0.320-3.320,1,0,1,90,false,stim,false,1,953.5,0,1,2,24779,task3,1228715,false,false,1148,image-keyboard-response,5
true,17,0,2,2,false,d,false,false,0.0-2.0-0.35-0.321-3.321,1,0,1,81,false,stim,true,0,1264.0,0,0,1,24779,task3,1231483,false,false,1151,image-keyboard-response,6
true,17,0,2,0,true,q,false,true,0.0-2.0-0.35-0.322-3.322,1,0,1,81,false,stim,false,0,2287.3999999910593,0,1,0,24779,task3,1235275,false,false,1154,image-keyboard-response,7
true,17,2,2,2,true,d,false,true,0.0-2.0-0.35-0.323-3.323,1,0,1,68,false,stim,false,0,1419.9000000059605,0,0,1,24779,task3,1238203,false,false,1157,image-keyboard-response,8
true,17,1,2,0,false,q,true,false,0.0-2.0-0.36-0.324-3.324,1,0,1,90,false,stim,false,0,1646.3999999910593,0,1,0,24779,task3,1241355,false,false,1160,image-keyboard-response,9
true,17,0,2,0,true,q,false,true,0.0-2.0-0.36-0.325-3.325,1,0,1,81,false,stim,false,0,1273.0,0,1,0,24779,task3,1244131,false,false,1163,image-keyboard-response,10
true,17,1,2,2,false,d,true,false,0.0-2.0-0.36-0.326-3.326,1,0,1,90,false,stim,false,0,1510.199999988079,0,0,1,24779,task3,1247147,false,false,1166,image-keyboard-response,11
true,17,2,2,2,true,d,false,true,0.0-2.0-0.36-0.327-3.327,1,0,1,68,false,stim,false,0,1223.699999988079,0,0,1,24779,task3,1249875,false,false,1169,image-keyboard-response,12
true,17,0,2,0,true,q,false,true,0.0-2.0-0.36-0.328-3.328,1,0,1,81,false,stim,false,0,1648.0999999940395,0,1,0,24779,task3,1253027,false,false,1172,image-keyboard-response,13
true,17,2,2,1,false,z,true,false,0.0-2.0-0.36-0.329-3.329,1,0,1,68,false,stim,false,1,1143.9000000059605,0,1,2,24779,task3,1255675,false,false,1175,image-keyboard-response,14
true,17,1,2,1,true,z,false,true,0.0-2.0-0.36-0.330-3.330,1,0,1,90,false,stim,false,1,1408.5,0,1,2,24779,task3,1258594,false,false,1178,image-keyboard-response,15
true,17,1,2,1,true,z,false,true,0.0-2.0-0.36-0.331-3.331,1,0,1,90,false,stim,false,1,805.7999999970198,0,1,2,24779,task3,1260906,false,false,1181,image-keyboard-response,16
true,17,2,2,2,true,d,false,true,0.0-2.0-0.36-0.332-3.332,1,0,1,68,false,stim,false,0,2002.0999999940395,0,0,1,24779,task3,1264418,false,false,1184,image-keyboard-response,17
true,17,0,2,0,true,q,false,true,0.0-2.0-0.37-0.333-3.333,1,0,1,81,false,stim,false,0,991.7000000029802,0,1,0,24779,task3,1266914,false,false,1187,image-keyboard-response,18
true,17,2,2,2,true,d,false,true,0.0-2.0-0.37-0.334-3.334,1,0,1,68,false,stim,false,0,972.0999999940395,0,0,1,24779,task3,1269394,false,false,1190,image-keyboard-response,19
true,17,1,2,1,true,z,false,true,0.0-2.0-0.37-0.335-3.335,1,0,1,90,false,stim,false,1,1514.7000000029802,0,0,2,24779,task3,1272418,false,false,1193,image-keyboard-response,20
true,17,1,2,1,true,z,false,true,0.0-2.0-0.37-0.336-3.336,1,0,1,90,false,stim,false,1,1479.9000000059605,0,0,2,24779,task3,1275402,false,false,1196,image-keyboard-response,21
true,17,0,2,0,true,q,false,true,0.0-2.0-0.37-0.337-3.337,1,0,1,81,false,stim,false,0,811.7000000029802,0,1,0,24779,task3,1277722,false,false,1199,image-keyboard-response,22
true,17,1,2,1,true,z,false,true,0.0-2.0-0.37-0.338-3.338,1,0,1,90,false,stim,false,1,868.7000000029802,0,0,2,24779,task3,1280097,false,false,1202,image-keyboard-response,23
true,18,0,1,0,true,q,false,true,0.0-2.0-0.37-0.339-3.339,1,0,0,81,true,stim,false,0,2119.5,0,1,0,24779,task3,1283721,false,false,1205,image-keyboard-response,1
true,18,1,1,1,true,z,false,true,0.0-2.0-0.37-0.340-3.340,1,0,0,90,false,stim,false,2,1391.5,0,0,1,24779,task3,1286617,false,false,1208,image-keyboard-response,2
true,18,1,1,1,true,z,false,true,0.0-2.0-0.37-0.341-3.341,1,0,0,90,false,stim,false,2,900.7999999970198,0,0,1,24779,task3,1289025,false,false,1211,image-keyboard-response,3
true,18,1,1,1,true,z,false,true,0.0-2.0-0.38-0.342-3.342,1,0,0,90,false,stim,false,2,1033.8999999910593,0,0,1,24779,task3,1291569,false,false,1214,image-keyboard-response,4
true,18,2,1,0,false,q,true,false,0.0-2.0-0.38-0.343-3.343,1,0,0,68,false,stim,false,1,1727.5,0,0,2,24779,task3,1294801,false,false,1217,image-keyboard-response,5
true,18,1,1,0,false,q,false,false,0.0-2.0-0.38-0.344-3.344,1,0,0,90,false,stim,true,1,592.2000000029802,0,0,2,24779,task3,1296897,false,false,1220,image-keyboard-response,6
true,18,0,1,1,false,z,true,false,0.0-2.0-0.38-0.345-3.345,1,0,0,81,false,stim,false,2,306.70000000298023,0,0,1,24779,task3,1298713,false,false,1223,image-keyboard-response,7
true,18,0,1,0,true,q,false,true,0.0-2.0-0.38-0.346-3.346,1,0,0,81,false,stim,false,0,2008.0,0,1,0,24779,task3,1302225,false,false,1226,image-keyboard-response,8
true,18,1,1,1,true,z,false,true,0.0-2.0-0.38-0.347-3.347,1,0,0,90,false,stim,false,2,991.8999999910593,0,0,1,24779,task3,1304721,false,false,1229,image-keyboard-response,9
true,18,0,1,0,true,q,false,true,0.0-2.0-0.38-0.348-3.348,1,0,0,81,false,stim,false,0,1019.7000000029802,0,1,0,24779,task3,1307249,false,false,1232,image-keyboard-response,10
true,18,2,1,0,false,q,true,false,0.0-2.0-0.38-0.349-3.349,1,0,0,68,false,stim,false,1,1038.699999988079,0,0,2,24779,task3,1309792,false,false,1235,image-keyboard-response,11
true,18,0,1,0,true,q,false,true,0.0-2.0-0.38-0.350-3.350,1,0,0,81,false,stim,false,0,1136.4000000059605,0,1,0,24779,task3,1312433,false,false,1238,image-keyboard-response,12
true,18,1,1,1,true,z,false,true,0.0-2.0-0.39-0.351-3.351,1,0,0,90,false,stim,false,2,1686.5999999940395,0,0,1,24779,task3,1315624,false,false,1241,image-keyboard-response,13
true,18,1,1,1,true,z,false,true,0.0-2.0-0.39-0.352-3.352,1,0,0,90,false,stim,false,2,1007.5,0,0,1,24779,task3,1318136,false,false,1244,image-keyboard-response,14
true,18,0,1,0,true,q,false,true,0.0-2.0-0.39-0.353-3.353,1,0,0,81,false,stim,false,0,806.2999999970198,0,1,0,24779,task3,1320448,false,false,1247,image-keyboard-response,15
true,18,2,1,0,false,q,true,false,0.0-2.0-0.39-0.354-3.354,1,0,0,68,false,stim,false,1,1844.2000000029802,0,0,2,24779,task3,1323801,false,false,1250,image-keyboard-response,16
true,18,1,1,1,true,z,false,true,0.0-2.0-0.39-0.355-3.355,1,0,0,90,false,stim,false,2,1567.1000000089407,0,0,1,24779,task3,1326872,false,false,1253,image-keyboard-response,17
true,18,0,1,0,true,q,false,true,0.0-2.0-0.39-0.356-3.356,1,0,0,81,false,stim,false,0,880.7999999970198,0,1,0,24779,task3,1329256,false,false,1256,image-keyboard-response,18
true,18,1,1,0,false,q,false,true,0.0-2.0-0.39-0.357-3.357,1,0,0,90,false,stim,true,1,967.6999999880791,0,0,2,24779,task3,1331728,false,true,1259,image-keyboard-response,19
true,18,1,1,0,false,q,false,false,0.0-2.0-0.39-0.358-3.358,1,0,0,90,false,stim,true,1,1039.7000000029802,0,0,2,24779,task3,1334272,false,false,1262,image-keyboard-response,20
true,18,0,1,0,true,q,false,true,0.0-2.0-0.39-0.359-3.359,1,0,0,81,false,stim,false,0,967.0,0,0,0,24779,task3,1336744,false,false,1265,image-keyboard-response,21
true,18,1,1,0,false,q,false,false,0.0-2.0-0.40-0.360-3.360,1,0,0,90,false,stim,true,1,1015.6999999880791,0,1,2,24779,task3,1339263,false,false,1268,image-keyboard-response,22
true,18,0,1,0,true,q,false,true,0.0-2.0-0.40-0.361-3.361,1,0,0,81,false,stim,false,0,891.1999999880791,0,0,0,24779,task3,1341664,false,false,1271,image-keyboard-response,23
true,18,2,1,0,false,q,true,false,0.0-2.0-0.40-0.362-3.362,1,0,0,68,false,stim,false,1,959.7999999970198,0,1,2,24779,task3,1344127,false,false,1274,image-keyboard-response,24
false,18,-1,1,0,false,q,true,false,0.0-2.0-0.40-0.363-3.363,1,0,0,,false,stim,false,1,,0,1,2,24779,task3,1348638,false,false,1277,image-keyboard-response,25
false,19,-1,1,0,false,q,true,false,0.0-2.0-0.40-0.364-3.364,0,0,1,,true,stim,false,1,,0,0,1,24779,task3,1353145,false,false,1280,image-keyboard-response,1
true,19,1,1,0,false,q,false,false,0.0-2.0-0.40-0.365-3.365,0,0,1,90,false,stim,true,1,2911.5999999940395,0,0,1,24779,task3,1357563,false,false,1283,image-keyboard-response,2
true,19,1,1,2,false,d,true,false,0.0-2.0-0.40-0.366-3.366,0,0,1,90,false,stim,false,0,1679.9000000059605,0,0,0,24779,task3,1360746,false,false,1286,image-keyboard-response,3
true,19,0,1,2,false,d,false,false,0.0-2.0-0.40-0.367-3.367,0,0,1,81,false,stim,true,0,1687.5,0,0,0,24779,task3,1363939,false,false,1289,image-keyboard-response,4
true,19,2,1,0,false,q,true,false,0.0-2.0-0.40-0.368-3.368,0,0,1,68,false,stim,false,1,1415.0,0,0,1,24779,task3,1366858,false,false,1292,image-keyboard-response,5
true,19,1,1,2,false,d,true,false,0.0-2.0-0.41-0.369-3.369,0,0,1,90,false,stim,false,0,519.2000000029802,0,0,0,24779,task3,1368883,false,false,1295,image-keyboard-response,6
true,19,0,1,2,false,d,false,false,0.0-2.0-0.41-0.370-3.370,0,0,1,81,false,stim,true,0,655.5,0,0,0,24779,task3,1371042,false,false,1298,image-keyboard-response,7
true,19,1,1,0,false,q,false,false,0.0-2.0-0.41-0.371-3.371,0,0,1,90,false,stim,true,1,762.0,0,0,1,24779,task3,1373314,false,false,1301,image-keyboard-response,8
true,19,2,1,0,false,q,true,false,0.0-2.0-0.41-0.372-3.372,0,0,1,68,false,stim,false,1,1110.7000000029802,0,0,1,24779,task3,1375930,false,false,1304,image-keyboard-response,9
true,19,2,1,0,false,q,true,false,0.0-2.0-0.41-0.373-3.373,0,0,1,68,false,stim,false,0,479.20000000298023,0,0,2,24779,task3,1377914,false,false,1307,image-keyboard-response,10
true,19,1,1,0,false,q,true,false,0.0-2.0-0.41-0.374-3.374,0,0,1,90,false,stim,false,0,624.5,0,0,2,24779,task3,1380042,false,false,1310,image-keyboard-response,11
true,19,0,1,2,false,d,false,true,0.0-2.0-0.41-0.375-3.375,0,0,1,81,false,stim,true,0,599.8000000119209,0,1,0,24779,task3,1382146,false,true,1313,image-keyboard-response,12
true,19,1,1,0,false,q,false,false,0.0-2.0-0.41-0.376-3.376,0,0,1,90,false,stim,true,1,1503.7999999970198,0,1,1,24779,task3,1385154,false,false,1316,image-keyboard-response,13
true,19,0,1,0,true,q,false,true,0.0-2.0-0.41-0.377-3.377,0,0,1,81,false,stim,false,0,111.90000000596046,0,0,2,24779,task3,1386770,false,false,1319,image-keyboard-response,14
true,20,0,2,0,true,q,false,true,0.0-2.0-0.42-0.378-3.378,1,1,0,81,true,stim,false,0,583.2999999970198,0,1,1,24779,task3,1388857,false,false,1322,image-keyboard-response,1
true,20,0,2,2,false,d,false,false,0.0-2.0-0.42-0.379-3.379,1,1,0,81,false,stim,true,0,495.29999999701977,0,0,2,24779,task3,1390857,false,false,1325,image-keyboard-response,2
true,20,1,2,2,false,d,true,false,0.0-2.0-0.42-0.380-3.380,1,1,0,90,false,stim,false,2,591.2000000029802,0,1,0,24779,task3,1392953,false,false,1328,image-keyboard-response,3
true,20,0,2,0,true,q,false,true,0.0-2.0-0.42-0.381-3.381,1,1,0,81,false,stim,false,0,444.20000000298023,0,1,1,24779,task3,1394905,false,false,1331,image-keyboard-response,4
true,20,1,2,2,false,d,true,false,0.0-2.0-0.42-0.382-3.382,1,1,0,90,false,stim,false,2,1106.2000000029802,0,1,0,24779,task3,1397522,false,false,1334,image-keyboard-response,5
true,20,0,2,2,false,d,false,false,0.0-2.0-0.42-0.383-3.383,1,1,0,81,false,stim,true,0,653.0,0,0,2,24779,task3,1399681,false,false,1337,image-keyboard-response,6
true,20,2,2,0,false,q,true,false,0.0-2.0-0.42-0.384-3.384,1,1,0,68,false,stim,false,0,399.5,0,1,1,24779,task3,1401585,false,false,1340,image-keyboard-response,7
true,20,1,2,2,false,d,true,false,0.0-2.0-0.42-0.385-3.385,1,1,0,90,false,stim,false,2,84.40000000596046,0,1,0,24779,task3,1403177,false,false,1343,image-keyboard-response,8
true,20,1,2,2,false,d,true,false,0.0-2.0-0.42-0.386-3.386,1,1,0,90,false,stim,false,0,943.6999999880791,0,0,2,24779,task3,1405625,false,false,1346,image-keyboard-response,9
true,20,0,2,2,false,d,true,false,0.0-2.0-0.43-0.387-3.387,1,1,0,81,false,stim,false,2,1397.5999999940395,0,1,0,24779,task3,1408529,false,false,1349,image-keyboard-response,10
true,20,2,2,0,false,q,true,false,0.0-2.0-0.43-0.388-3.388,1,1,0,68,false,stim,false,0,527.4000000059605,0,1,1,24779,task3,1410561,false,false,1352,image-keyboard-response,11
true,20,0,2,2,false,d,false,false,0.0-2.0-0.43-0.389-3.389,1,1,0,81,false,stim,true,0,679.5,0,0,2,24779,task3,1412745,false,false,1355,image-keyboard-response,12
true,20,0,2,0,true,q,false,false,0.0-2.0-0.43-0.390-3.390,1,1,0,81,false,stim,false,0,327.59999999403954,0,1,1,24779,task3,1414577,false,true,1358,image-keyboard-response,13
true,20,1,2,2,false,d,true,false,0.0-2.0-0.43-0.391-3.391,1,1,0,90,false,stim,false,0,63.3999999910593,0,0,2,24779,task3,1416144,false,false,1361,image-keyboard-response,14
true,20,1,2,2,false,d,true,false,0.0-2.0-0.43-0.392-3.392,1,1,0,90,false,stim,false,2,1824.8999999910593,0,1,0,24779,task3,1419473,false,false,1364,image-keyboard-response,15
true,20,2,2,2,true,d,false,true,0.0-2.0-0.43-0.393-3.393,1,1,0,68,false,stim,false,0,1367.0999999940395,0,0,2,24779,task3,1422344,false,false,1367,image-keyboard-response,16
true,20,0,2,2,false,d,true,false,0.0-2.0-0.43-0.394-3.394,1,1,0,81,false,stim,false,2,830.7000000029802,0,1,0,24779,task3,1424680,false,false,1370,image-keyboard-response,17
true,20,2,2,0,false,q,true,false,0.0-2.0-0.43-0.395-3.395,1,1,0,68,false,stim,false,0,366.40000000596046,0,1,1,24779,task3,1426552,false,false,1373,image-keyboard-response,18
true,20,1,2,2,false,d,true,false,0.0-2.0-0.44-0.396-3.396,1,1,0,90,false,stim,false,0,39.3999999910593,0,0,2,24779,task3,1428096,false,false,1376,image-keyboard-response,19
true,20,0,2,2,false,d,true,false,0.0-2.0-0.44-0.397-3.397,1,1,0,81,false,stim,false,2,87.70000000298023,0,1,0,24779,task3,1429688,false,false,1379,image-keyboard-response,20
true,20,1,2,2,false,d,true,false,0.0-2.0-0.44-0.398-3.398,1,1,0,90,false,stim,false,0,22.19999998807907,0,0,2,24779,task3,1431217,false,false,1382,image-keyboard-response,21
true,20,1,2,2,false,d,true,false,0.0-2.0-0.44-0.399-3.399,1,1,0,90,false,stim,false,0,1406.5999999940395,0,0,2,24779,task3,1434128,false,false,1385,image-keyboard-response,22
true,20,1,2,2,false,d,true,false,0.0-2.0-0.44-0.400-3.400,1,1,0,90,false,stim,false,2,583.2999999970198,0,1,0,24779,task3,1436216,false,false,1388,image-keyboard-response,23
true,20,2,2,2,true,d,false,true,0.0-2.0-0.44-0.401-3.401,1,1,0,68,false,stim,false,2,1190.5,0,1,0,24779,task3,1438912,false,false,1391,image-keyboard-response,24
true,20,2,2,0,false,q,true,true,0.0-2.0-0.44-0.402-3.402,1,1,0,68,false,stim,false,0,752.1000000089407,0,0,1,24779,task3,1441168,false,true,1394,image-keyboard-response,25
true,20,2,2,0,false,q,true,false,0.0-2.0-0.44-0.403-3.403,1,1,0,68,false,stim,false,0,743.7000000029802,0,0,1,24779,task3,1443416,false,false,1397,image-keyboard-response,26
true,20,0,2,0,true,q,false,true,0.0-2.0-0.44-0.404-3.404,1,1,0,81,false,stim,false,0,1087.5999999940395,0,0,1,24779,task3,1446008,false,false,1400,image-keyboard-response,27
true,21,0,1,2,false,d,false,false,0.0-2.0-0.45-0.405-3.405,1,0,0,81,true,stim,true,0,566.7000000029802,0,0,1,24779,task3,1448087,false,false,1403,image-keyboard-response,1
true,21,1,1,2,false,d,true,true,0.0-2.0-0.45-0.406-3.406,1,0,0,90,false,stim,false,2,1841.7999999970198,0,1,0,24779,task3,1451440,false,true,1406,image-keyboard-response,2
true,21,1,1,0,false,q,true,false,0.0-2.0-0.45-0.407-3.407,1,0,0,90,false,stim,false,2,703.2999999970198,0,0,2,24779,task3,1453647,false,false,1409,image-keyboard-response,3
true,21,1,1,0,false,q,true,false,0.0-2.0-0.45-0.408-3.408,1,0,0,90,false,stim,false,2,1606.5999999940395,0,0,2,24779,task3,1456760,false,false,1412,image-keyboard-response,4
true,21,1,1,0,false,q,true,false,0.0-2.0-0.45-0.409-3.409,1,0,0,90,false,stim,false,2,911.5,0,0,2,24779,task3,1459175,false,false,1415,image-keyboard-response,5
true,21,2,1,2,true,d,false,true,0.0-2.0-0.45-0.410-3.410,1,0,0,68,false,stim,false,0,1135.5999999940395,0,0,1,24779,task3,1461815,false,false,1418,image-keyboard-response,6
true,21,0,1,2,false,d,true,false,0.0-2.0-0.45-0.411-3.411,1,0,0,81,false,stim,false,2,672.7999999970198,0,1,0,24779,task3,1463991,false,false,1421,image-keyboard-response,7
true,21,2,1,2,true,d,false,true,0.0-2.0-0.45-0.412-3.412,1,0,0,68,false,stim,false,0,1279.5,0,0,1,24779,task3,1466775,false,false,1424,image-keyboard-response,8
true,21,1,1,2,false,d,true,true,0.0-2.0-0.45-0.413-3.413,1,0,0,90,false,stim,false,2,766.2999999970198,0,1,0,24779,task3,1469047,false,true,1427,image-keyboard-response,9
true,21,0,1,0,true,q,false,true,0.0-2.0-0.46-0.414-3.414,1,0,0,81,false,stim,false,2,575.5999999940395,0,0,2,24779,task3,1471127,false,false,1430,image-keyboard-response,10
true,21,2,1,2,true,d,false,false,0.0-2.0-0.46-0.415-3.415,1,0,0,68,false,stim,false,2,544.0,0,1,0,24779,task3,1473175,false,true,1433,image-keyboard-response,11
true,21,2,1,2,true,d,false,true,0.0-2.0-0.46-0.416-3.416,1,0,0,68,false,stim,false,2,2414.5,0,1,0,24779,task3,1477094,false,false,1436,image-keyboard-response,12
true,21,1,1,2,false,d,true,false,0.0-2.0-0.46-0.417-3.417,1,0,0,90,false,stim,false,2,470.20000000298023,0,1,0,24779,task3,1479070,false,false,1439,image-keyboard-response,13
true,21,2,1,2,true,d,false,true,0.0-2.0-0.46-0.418-3.418,1,0,0,68,false,stim,false,0,703.9000000059605,0,0,1,24779,task3,1481278,false,false,1442,image-keyboard-response,14
true,21,0,1,0,true,q,false,false,0.0-2.0-0.46-0.419-3.419,1,0,0,81,false,stim,false,2,646.5,0,0,2,24779,task3,1483430,false,true,1445,image-keyboard-response,15
true,21,1,1,0,false,q,true,false,0.0-2.0-0.46-0.420-3.420,1,0,0,90,false,stim,false,2,759.5,0,0,2,24779,task3,1485694,false,false,1448,image-keyboard-response,16
true,21,2,1,2,true,d,false,true,0.0-2.0-0.46-0.421-3.421,1,0,0,68,false,stim,false,0,839.5,0,0,1,24779,task3,1488038,false,false,1451,image-keyboard-response,17
true,21,2,1,2,true,d,false,true,0.0-2.0-0.46-0.422-3.422,1,0,0,68,false,stim,false,0,1071.699999988079,0,0,1,24779,task3,1490614,false,false,1454,image-keyboard-response,18
true,21,0,1,0,true,q,false,true,0.0-2.0-0.47-0.423-3.423,1,0,0,81,false,stim,false,2,1237.2999999970198,0,1,2,24779,task3,1493358,false,false,1457,image-keyboard-response,19
true,21,0,1,0,true,q,false,true,0.0-2.0-0.47-0.424-3.424,1,0,0,81,false,stim,false,2,632.0999999940395,0,1,2,24779,task3,1495494,false,false,1460,image-keyboard-response,20
true,21,1,1,2,false,d,true,false,0.0-2.0-0.47-0.425-3.425,1,0,0,90,false,stim,false,2,511.5,0,0,0,24779,task3,1497510,false,false,1463,image-keyboard-response,21
true,21,1,1,2,false,d,true,false,0.0-2.0-0.47-0.426-3.426,1,0,0,90,false,stim,false,2,751.5999999940395,0,0,0,24779,task3,1499766,false,false,1466,image-keyboard-response,22
true,21,2,1,2,true,d,false,true,0.0-2.0-0.47-0.427-3.427,1,0,0,68,false,stim,false,0,919.4000000059605,0,0,1,24779,task3,1502190,false,false,1469,image-keyboard-response,23
true,22,2,1,1,false,z,false,false,0.0-2.0-0.47-0.428-3.428,0,0,1,68,true,stim,true,2,593.7000000029802,0,0,0,24779,task3,1504294,false,false,1472,image-keyboard-response,1
true,22,2,1,1,false,z,false,true,0.0-2.0-0.47-0.429-3.429,0,0,1,68,false,stim,true,2,799.1999999880791,0,0,1,24779,task3,1506598,false,true,1475,image-keyboard-response,2
true,22,0,1,1,false,z,true,false,0.0-2.0-0.47-0.430-3.430,0,0,1,81,false,stim,false,2,431.5,0,0,1,24779,task3,1508533,false,false,1478,image-keyboard-response,3
true,22,1,1,0,false,q,true,false,0.0-2.0-0.47-0.431-3.431,0,0,1,90,false,stim,false,0,687.0,0,1,2,24779,task3,1510726,false,false,1481,image-keyboard-response,4
true,22,2,1,0,false,q,true,false,0.0-2.0-0.48-0.432-3.432,0,0,1,68,false,stim,false,0,565.5,0,1,2,24779,task3,1512797,false,false,1484,image-keyboard-response,5
true,22,1,1,1,true,z,false,true,0.0-2.0-0.48-0.433-3.433,0,0,1,90,false,stim,false,2,319.90000000596046,0,0,1,24779,task3,1514621,false,false,1487,image-keyboard-response,6
true,22,1,1,1,true,z,false,true,0.0-2.0-0.48-0.434-3.434,0,0,1,90,false,stim,false,2,792.0,0,0,0,24779,task3,1516918,false,false,1490,image-keyboard-response,7
true,22,2,1,1,false,z,false,false,0.0-2.0-0.48-0.435-3.435,0,0,1,68,false,stim,true,2,903.7000000029802,0,0,0,24779,task3,1519325,false,false,1493,image-keyboard-response,8
true,22,1,1,1,true,z,false,true,0.0-2.0-0.48-0.436-3.436,0,0,1,90,false,stim,false,2,476.5,0,0,0,24779,task3,1521309,false,false,1496,image-keyboard-response,9
true,22,1,1,1,true,z,false,true,0.0-2.0-0.48-0.437-3.437,0,0,1,90,false,stim,false,2,823.7999999970198,0,0,1,24779,task3,1523637,false,false,1499,image-keyboard-response,10
true,22,1,1,0,false,q,true,true,0.0-2.0-0.48-0.438-3.438,0,0,1,90,false,stim,false,0,640.2000000029802,0,1,2,24779,task3,1525789,false,true,1502,image-keyboard-response,11
true,22,2,1,1,false,z,false,false,0.0-2.0-0.48-0.439-3.439,0,0,1,68,false,stim,true,2,1312.0999999940395,0,0,1,24779,task3,1528605,false,false,1505,image-keyboard-response,12
true,22,1,1,0,false,q,true,false,0.0-2.0-0.48-0.440-3.440,0,0,1,90,false,stim,false,0,197.90000000596046,0,1,2,24779,task3,1530309,false,false,1508,image-keyboard-response,13
true,22,0,1,0,true,q,false,true,0.0-2.0-0.49-0.441-3.441,0,0,1,81,false,stim,false,0,711.4000000059605,0,1,2,24779,task3,1532525,false,false,1511,image-keyboard-response,14
true,22,0,1,0,true,q,false,true,0.0-2.0-0.49-0.442-3.442,0,0,1,81,false,stim,false,0,775.5999999940395,0,1,2,24779,task3,1534805,false,false,1514,image-keyboard-response,15
true,22,0,1,1,false,z,true,false,0.0-2.0-0.49-0.443-3.443,0,0,1,81,false,stim,false,2,861.7999999970198,0,0,0,24779,task3,1537172,false,false,1517,image-keyboard-response,16
true,22,2,1,1,false,z,false,false,0.0-2.0-0.49-0.444-3.444,0,0,1,68,false,stim,true,2,559.7999999970198,0,0,1,24779,task3,1539237,false,false,1520,image-keyboard-response,17
true,22,1,1,1,true,z,false,true,0.0-2.0-0.49-0.445-3.445,0,0,1,90,false,stim,false,2,115.30000001192093,0,0,0,24779,task3,1540860,false,false,1523,image-keyboard-response,18
true,22,1,1,0,false,q,true,false,0.0-2.0-0.49-0.446-3.446,0,0,1,90,false,stim,false,0,596.5,0,1,2,24779,task3,1542964,false,false,1526,image-keyboard-response,19
true,22,2,1,1,false,z,false,false,0.0-2.0-0.49-0.447-3.447,0,0,1,68,false,stim,true,2,1147.0,0,0,1,24779,task3,1545620,false,false,1529,image-keyboard-response,20
true,22,0,1,1,false,z,true,false,0.0-2.0-0.49-0.448-3.448,0,0,1,81,false,stim,false,2,940.7999999970198,0,0,1,24779,task3,1548068,false,false,1532,image-keyboard-response,21
true,22,1,1,1,true,z,false,true,0.0-2.0-0.49-0.449-3.449,0,0,1,90,false,stim,false,2,1063.5,0,0,0,24779,task3,1550636,false,false,1535,image-keyboard-response,22
true,23,1,1,0,false,q,false,false,0.0-2.0-0.50-0.450-3.450,0,0,1,90,true,stim,true,1,599.3999999910593,0,0,0,24779,task3,1552740,false,false,1538,image-keyboard-response,1
true,23,1,1,2,false,d,false,false,0.0-2.0-0.50-0.451-3.451,0,0,1,90,false,stim,true,1,829.4000000059605,0,0,1,24779,task3,1555076,false,false,1541,image-keyboard-response,2
true,23,0,1,2,false,d,true,false,0.0-2.0-0.50-0.452-3.452,0,0,1,81,false,stim,false,1,447.40000000596046,0,0,1,24779,task3,1557028,false,false,1544,image-keyboard-response,3
true,23,2,1,0,false,q,true,false,0.0-2.0-0.50-0.453-3.453,0,0,1,68,false,stim,false,0,143.79999999701977,0,1,2,24779,task3,1558676,false,false,1547,image-keyboard-response,4
true,23,1,1,0,false,q,true,false,0.0-2.0-0.50-0.454-3.454,0,0,1,90,false,stim,false,0,239.59999999403954,0,1,2,24779,task3,1560420,false,false,1550,image-keyboard-response,5
true,23,2,1,0,false,q,true,false,0.0-2.0-0.50-0.455-3.455,0,0,1,68,false,stim,false,1,527.7000000029802,0,0,0,24779,task3,1562452,false,false,1553,image-keyboard-response,6
true,23,1,1,2,false,d,false,false,0.0-2.0-0.50-0.456-3.456,0,0,1,90,false,stim,true,1,1058.300000011921,0,0,1,24779,task3,1565019,false,false,1556,image-keyboard-response,7
true,23,1,1,0,false,q,true,false,0.0-2.0-0.50-0.457-3.457,0,0,1,90,false,stim,false,0,108.40000000596046,0,1,2,24779,task3,1566635,false,false,1559,image-keyboard-response,8
true,23,1,1,0,false,q,false,true,0.0-2.0-0.50-0.458-3.458,0,0,1,90,false,stim,true,1,71.5,0,0,0,24779,task3,1568211,false,true,1562,image-keyboard-response,9
true,23,2,1,0,false,q,true,false,0.0-2.0-0.51-0.459-3.459,0,0,1,68,false,stim,false,1,1287.5999999940395,0,0,0,24779,task3,1571003,false,false,1565,image-keyboard-response,10
true,23,1,1,0,false,q,true,false,0.0-2.0-0.51-0.460-3.460,0,0,1,90,false,stim,false,0,559.9000000059605,0,1,2,24779,task3,1573068,false,false,1568,image-keyboard-response,11
true,23,0,1,2,false,d,true,false,0.0-2.0-0.51-0.461-3.461,0,0,1,81,false,stim,false,1,1313.2000000029802,0,0,1,24779,task3,1575891,false,false,1571,image-keyboard-response,12
true,23,0,1,2,false,d,true,false,0.0-2.0-0.51-0.462-3.462,0,0,1,81,false,stim,false,1,559.2999999970198,0,0,1,24779,task3,1577955,false,false,1574,image-keyboard-response,13
true,23,0,1,0,true,q,false,false,0.0-2.0-0.51-0.463-3.463,0,0,1,81,false,stim,false,0,285.5,0,1,2,24779,task3,1579747,false,true,1577,image-keyboard-response,14
true,23,1,1,0,false,q,false,false,0.0-2.0-0.51-0.464-3.464,0,0,1,90,false,stim,true,1,199.40000000596046,0,0,0,24779,task3,1581451,false,false,1580,image-keyboard-response,15
true,23,1,1,2,false,d,false,false,0.0-2.0-0.51-0.465-3.465,0,0,1,90,false,stim,true,1,119.70000000298023,0,0,1,24779,task3,1583075,false,false,1583,image-keyboard-response,16
true,23,1,1,0,false,q,true,false,0.0-2.0-0.51-0.466-3.466,0,0,1,90,false,stim,false,0,1071.5999999940395,0,1,2,24779,task3,1585651,false,false,1586,image-keyboard-response,17
true,23,1,1,0,false,q,false,false,0.0-2.0-0.51-0.467-3.467,0,0,1,90,false,stim,true,1,1257.5999999940395,0,0,0,24779,task3,1588419,false,false,1589,image-keyboard-response,18
true,23,1,1,0,false,q,false,false,0.0-2.0-0.52-0.468-3.468,0,0,1,90,false,stim,true,1,2521.5999999940395,0,0,0,24779,task3,1592450,false,false,1592,image-keyboard-response,19
true,23,2,1,0,false,q,true,true,0.0-2.0-0.52-0.469-3.469,0,0,1,68,false,stim,false,0,1088.0999999940395,0,0,2,24779,task3,1595043,false,true,1595,image-keyboard-response,20
true,23,0,1,0,true,q,false,false,0.0-2.0-0.52-0.470-3.470,0,0,1,81,false,stim,false,1,1390.4000000059605,0,0,0,24779,task3,1597938,false,true,1598,image-keyboard-response,21
true,23,2,1,2,true,d,false,true,0.0-2.0-0.52-0.471-3.471,0,0,1,68,false,stim,false,1,320.3999999910593,0,1,1,24779,task3,1599770,false,false,1601,image-keyboard-response,22
true,23,2,1,2,true,d,false,true,0.0-2.0-0.52-0.472-3.472,0,0,1,68,false,stim,false,1,911.4000000059605,0,1,1,24779,task3,1602186,false,false,1604,image-keyboard-response,23
true,24,2,1,2,true,d,false,false,0.0-2.0-0.52-0.473-3.473,0,1,0,68,true,stim,false,0,1279.6000000089407,0,0,2,24779,task3,1604970,false,true,1607,image-keyboard-response,1
true,24,0,1,2,false,d,true,false,0.0-2.0-0.52-0.474-3.474,0,1,0,81,false,stim,false,2,1937.7999999970198,0,1,1,24779,task3,1608418,false,false,1610,image-keyboard-response,2
true,24,1,1,2,false,d,true,false,0.0-2.0-0.52-0.475-3.475,0,1,0,90,false,stim,false,0,1862.300000011921,0,0,2,24779,task3,1611786,false,false,1613,image-keyboard-response,3
true,24,0,1,1,false,z,false,false,0.0-2.0-0.52-0.476-3.476,0,1,0,81,false,stim,true,0,2327.0,0,0,0,24779,task3,1615617,false,false,1616,image-keyboard-response,4
true,24,2,1,2,true,d,false,true,0.0-2.0-0.53-0.477-3.477,0,1,0,68,false,stim,false,0,1145.9000000059605,0,0,2,24779,task3,1618274,false,false,1619,image-keyboard-response,5
true,24,1,1,2,false,d,true,false,0.0-2.0-0.53-0.478-3.478,0,1,0,90,false,stim,false,0,2395.5,0,0,2,24779,task3,1622174,false,false,1622,image-keyboard-response,6
true,24,1,1,1,true,z,false,true,0.0-2.0-0.53-0.479-3.479,0,1,0,90,false,stim,false,0,2674.0999999940395,0,0,0,24779,task3,1626356,false,false,1625,image-keyboard-response,7
true,24,0,1,2,false,d,false,false,0.0-2.0-0.53-0.480-3.480,0,1,0,81,false,stim,true,0,1155.7000000029802,0,0,2,24779,task3,1629020,false,false,1628,image-keyboard-response,8
true,24,2,1,1,false,z,true,true,0.0-2.0-0.53-0.481-3.481,0,1,0,68,false,stim,false,0,1850.800000011921,0,0,0,24779,task3,1632381,false,true,1631,image-keyboard-response,9
true,24,1,1,2,false,d,true,false,0.0-2.0-0.53-0.482-3.482,0,1,0,90,false,stim,false,2,1807.2999999970198,0,1,1,24779,task3,1635692,false,false,1634,image-keyboard-response,10
true,24,2,1,2,true,d,false,true,0.0-2.0-0.53-0.483-3.483,0,1,0,68,false,stim,false,2,1399.2000000029802,0,1,1,24779,task3,1638596,false,false,1637,image-keyboard-response,11
true,24,2,1,2,true,d,false,true,0.0-2.0-0.53-0.484-3.484,0,1,0,68,false,stim,false,2,1464.2000000029802,0,1,1,24779,task3,1641564,false,false,1640,image-keyboard-response,12
true,24,1,1,1,true,z,false,true,0.0-2.0-0.53-0.485-3.485,0,1,0,90,false,stim,false,0,1656.5,0,0,0,24779,task3,1644724,false,false,1643,image-keyboard-response,13
true,24,2,1,2,true,d,false,true,0.0-2.0-0.54-0.486-3.486,0,1,0,68,false,stim,false,0,1318.2999999970198,0,0,2,24779,task3,1647547,false,false,1646,image-keyboard-response,14
true,24,1,1,2,false,d,true,false,0.0-2.0-0.54-0.487-3.487,0,1,0,90,false,stim,false,2,1119.3999999910593,0,1,1,24779,task3,1650171,false,false,1649,image-keyboard-response,15
true,24,0,1,2,false,d,true,false,0.0-2.0-0.54-0.488-3.488,0,1,0,81,false,stim,false,2,2863.6000000089407,0,1,1,24779,task3,1654539,false,false,1652,image-keyboard-response,16
true,24,1,1,1,true,z,false,true,0.0-2.0-0.54-0.489-3.489,0,1,0,90,false,stim,false,0,1231.5999999940395,0,0,0,24779,task3,1657275,false,false,1655,image-keyboard-response,17
true,24,1,1,2,false,d,true,false,0.0-2.0-0.54-0.490-3.490,0,1,0,90,false,stim,false,2,1587.5,0,1,1,24779,task3,1660371,false,false,1658,image-keyboard-response,18
true,24,2,1,2,true,d,false,true,0.0-2.0-0.54-0.491-3.491,0,1,0,68,false,stim,false,0,1270.3999999910593,0,0,2,24779,task3,1663147,false,false,1661,image-keyboard-response,19
true,24,2,1,2,true,d,false,false,0.0-2.0-0.54-0.492-3.492,0,1,0,68,false,stim,false,0,1171.0,0,1,2,24779,task3,1665827,false,true,1664,image-keyboard-response,20
true,24,1,1,1,true,z,false,true,0.0-2.0-0.54-0.493-3.493,0,1,0,90,false,stim,false,0,1176.5,0,0,0,24779,task3,1668507,false,false,1667,image-keyboard-response,21
true,24,0,1,1,false,z,false,false,0.0-2.0-0.54-0.494-3.494,0,1,0,81,false,stim,true,0,1263.5999999940395,0,0,0,24779,task3,1671275,false,false,1670,image-keyboard-response,22
true,24,1,1,2,false,d,true,false,0.0-2.0-0.55-0.495-3.495,0,1,0,90,false,stim,false,2,1334.4000000059605,0,0,1,24779,task3,1674115,false,false,1673,image-keyboard-response,23
true,24,1,1,1,true,z,false,true,0.0-2.0-0.55-0.496-3.496,0,1,0,90,false,stim,false,0,1615.2999999970198,0,0,0,24779,task3,1677235,false,false,1676,image-keyboard-response,24
true,25,2,1,2,true,d,false,true,0.0-2.0-0.55-0.497-3.497,0,0,1,68,true,stim,false,2,1463.7999999970198,0,1,2,24779,task3,1680203,false,false,1679,image-keyboard-response,1
true,25,1,1,1,true,z,false,true,0.0-2.0-0.55-0.498-3.498,0,0,1,90,false,stim,false,2,1257.2000000029802,0,0,1,24779,task3,1682970,false,false,1682,image-keyboard-response,2
true,25,0,1,2,false,d,true,false,0.0-2.0-0.55-0.499-3.499,0,0,1,81,false,stim,false,2,1416.0,0,1,2,24779,task3,1685890,false,false,1685,image-keyboard-response,3
true,25,2,1,2,true,d,false,true,0.0-2.0-0.55-0.500-3.500,0,0,1,68,false,stim,false,2,1199.1000000089407,0,1,2,24779,task3,1688594,false,false,1688,image-keyboard-response,4
true,25,1,1,2,false,d,false,false,0.0-2.0-0.55-0.501-3.501,0,0,1,90,false,stim,true,1,1464.0,0,0,0,24779,task3,1691562,false,false,1691,image-keyboard-response,5
true,25,0,1,2,false,d,true,false,0.0-2.0-0.55-0.502-3.502,0,0,1,81,false,stim,false,1,1598.5999999940395,0,0,0,24779,task3,1694666,false,false,1694,image-keyboard-response,6
true,25,1,1,1,true,z,false,true,0.0-2.0-0.55-0.503-3.503,0,0,1,90,false,stim,false,2,1287.7999999970198,0,1,1,24779,task3,1697458,false,false,1697,image-keyboard-response,7
true,25,1,1,1,true,z,false,true,0.0-2.0-0.56-0.504-3.504,0,0,1,90,false,stim,false,2,987.6999999880791,0,1,1,24779,task3,1699954,false,false,1700,image-keyboard-response,8
true,25,2,1,2,true,d,false,true,0.0-2.0-0.56-0.505-3.505,0,0,1,68,false,stim,false,2,1225.800000011921,0,1,2,24779,task3,1702690,false,false,1703,image-keyboard-response,9
true,25,0,1,2,false,d,true,false,0.0-2.0-0.56-0.506-3.506,0,0,1,81,false,stim,false,2,2575.1000000089407,0,1,2,24779,task3,1706769,false,false,1706,image-keyboard-response,10
true,25,1,1,2,false,d,false,false,0.0-2.0-0.56-0.507-3.507,0,0,1,90,false,stim,true,1,815.2000000029802,0,1,0,24779,task3,1709089,false,false,1709,image-keyboard-response,11
true,26,2,0,2,true,d,false,true,0.0-2.0-0.56-0.508-3.508,1,1,1,68,true,stim,false,2,2912.6000000089407,0,1,2,24779,task3,1721191,false,false,1720,image-keyboard-response,1
true,26,1,0,1,true,z,false,true,0.0-2.0-0.56-0.509-3.509,1,1,1,90,false,stim,false,1,1306.7999999970198,0,1,1,24779,task3,1724008,false,false,1723,image-keyboard-response,2
true,26,1,0,2,false,d,true,false,0.0-2.0-0.56-0.510-3.510,1,1,1,90,false,stim,false,2,1287.5999999940395,0,1,0,24779,task3,1726799,false,false,1726,image-keyboard-response,3
true,26,1,0,2,false,d,true,false,0.0-2.0-0.56-0.511-3.511,1,1,1,90,false,stim,false,2,2335.4000000059605,0,1,0,24779,task3,1730640,false,false,1729,image-keyboard-response,4
true,26,1,0,1,true,z,false,false,0.0-2.0-0.56-0.512-3.512,1,1,1,90,false,stim,false,1,1652.8999999910593,0,1,1,24779,task3,1733799,false,true,1732,image-keyboard-response,5
true,26,1,0,2,false,d,true,false,0.0-2.0-0.57-0.513-3.513,1,1,1,90,false,stim,false,2,1703.2999999970198,0,1,0,24779,task3,1737008,false,false,1735,image-keyboard-response,6
true,26,2,0,2,true,d,false,true,0.0-2.0-0.57-0.514-3.514,1,1,1,68,false,stim,false,2,2279.2000000029802,0,1,2,24779,task3,1740791,false,false,1738,image-keyboard-response,7
true,26,1,0,2,false,d,true,false,0.0-2.0-0.57-0.515-3.515,1,1,1,90,false,stim,false,2,1646.8999999910593,0,0,0,24779,task3,1743943,false,false,1741,image-keyboard-response,8
true,26,1,0,1,true,z,false,true,0.0-2.0-0.57-0.516-3.516,1,1,1,90,false,stim,false,1,1991.7000000029802,0,1,1,24779,task3,1747439,false,false,1744,image-keyboard-response,9
true,26,1,0,1,true,z,false,true,0.0-2.0-0.57-0.517-3.517,1,1,1,90,false,stim,false,1,854.7999999970198,0,1,1,24779,task3,1749799,false,false,1747,image-keyboard-response,10
true,26,2,0,2,true,d,false,true,0.0-2.0-0.57-0.518-3.518,1,1,1,68,false,stim,false,2,1456.0,0,1,2,24779,task3,1752759,false,false,1750,image-keyboard-response,11
true,26,1,0,1,true,z,false,true,0.0-2.0-0.57-0.519-3.519,1,1,1,90,false,stim,false,1,1525.0,0,1,1,24779,task3,1755790,false,false,1753,image-keyboard-response,12
true,27,1,2,0,false,q,true,true,0.0-2.0-0.57-0.520-3.520,0,1,1,90,true,stim,false,2,1117.3999999910593,0,0,0,24779,task3,1758414,false,true,1756,image-keyboard-response,1
true,27,2,2,2,true,d,false,true,0.0-2.0-0.57-0.521-3.521,0,1,1,68,false,stim,false,2,1192.0999999940395,0,1,2,24779,task3,1761110,false,false,1759,image-keyboard-response,2
true,27,1,2,1,true,z,false,true,0.0-2.0-0.58-0.522-3.522,0,1,1,90,false,stim,false,1,992.3000000119209,0,1,1,24779,task3,1763606,false,false,1762,image-keyboard-response,3
true,27,1,2,1,true,z,false,true,0.0-2.0-0.58-0.523-3.523,0,1,1,90,false,stim,false,1,542.7000000029802,0,1,1,24779,task3,1765654,false,false,1765,image-keyboard-response,4
true,27,1,2,1,true,z,false,true,0.0-2.0-0.58-0.524-3.524,0,1,1,90,false,stim,false,1,611.4000000059605,0,1,1,24779,task3,1767774,false,false,1768,image-keyboard-response,5
true,27,2,2,2,true,d,false,true,0.0-2.0-0.58-0.525-3.525,0,1,1,68,false,stim,false,2,1126.9000000059605,0,1,2,24779,task3,1770406,false,false,1771,image-keyboard-response,6
true,27,2,2,2,true,d,false,true,0.0-2.0-0.58-0.526-3.526,0,1,1,68,false,stim,false,2,1095.2000000029802,0,1,2,24779,task3,1773005,false,false,1774,image-keyboard-response,7
true,27,1,2,0,false,q,true,false,0.0-2.0-0.58-0.527-3.527,0,1,1,90,false,stim,false,2,960.5,0,0,0,24779,task3,1775470,false,false,1777,image-keyboard-response,8
true,27,1,2,0,false,q,true,false,0.0-2.0-0.58-0.528-3.528,0,1,1,90,false,stim,false,2,1209.5,0,0,0,24779,task3,1778190,false,false,1780,image-keyboard-response,9
true,27,2,2,2,true,d,false,true,0.0-2.0-0.58-0.529-3.529,0,1,1,68,false,stim,false,2,1064.9000000059605,0,1,2,24779,task3,1780766,false,false,1783,image-keyboard-response,10
true,27,0,2,0,true,q,false,false,0.0-2.0-0.58-0.530-3.530,0,1,1,81,false,stim,false,2,1280.0,0,0,0,24779,task3,1783549,false,true,1786,image-keyboard-response,11
true,27,1,2,1,true,z,false,true,0.0-2.0-0.59-0.531-3.531,0,1,1,90,false,stim,false,1,1168.1000000089407,0,1,1,24779,task3,1786221,false,false,1789,image-keyboard-response,12
true,27,1,2,1,true,z,false,true,0.0-2.0-0.59-0.532-3.532,0,1,1,90,false,stim,false,1,2310.7999999970198,0,1,1,24779,task3,1790037,false,false,1792,image-keyboard-response,13
true,27,1,2,0,false,q,true,false,0.0-2.0-0.59-0.533-3.533,0,1,1,90,false,stim,false,2,1611.7999999970198,0,0,0,24779,task3,1793157,false,false,1795,image-keyboard-response,14
true,27,2,2,2,true,d,false,true,0.0-2.0-0.59-0.534-3.534,0,1,1,68,false,stim,false,2,1318.9000000059605,0,1,2,24779,task3,1795981,false,false,1798,image-keyboard-response,15
true,27,2,2,2,true,d,false,true,0.0-2.0-0.59-0.535-3.535,0,1,1,68,false,stim,false,2,1105.0,0,1,2,24779,task3,1798597,false,false,1801,image-keyboard-response,16
true,27,0,2,1,false,z,true,false,0.0-2.0-0.59-0.536-3.536,0,1,1,81,false,stim,false,1,2214.9000000059605,0,1,1,24779,task3,1802317,false,false,1804,image-keyboard-response,17
true,27,2,2,2,true,d,false,false,0.0-2.0-0.59-0.537-3.537,0,1,1,68,false,stim,false,2,1327.0,0,1,2,24779,task3,1805149,false,true,1807,image-keyboard-response,18
true,27,1,2,0,false,q,true,false,0.0-2.0-0.59-0.538-3.538,0,1,1,90,false,stim,false,2,1398.699999988079,0,0,0,24779,task3,1808053,false,false,1810,image-keyboard-response,19
true,27,1,2,0,false,q,true,false,0.0-2.0-0.59-0.539-3.539,0,1,1,90,false,stim,false,2,840.1000000089407,0,0,0,24779,task3,1810397,false,false,1813,image-keyboard-response,20
true,27,1,2,0,false,q,true,false,0.0-2.0-0.60-0.540-3.540,0,1,1,90,false,stim,false,2,1285.9000000059605,0,0,0,24779,task3,1813188,false,false,1816,image-keyboard-response,21
true,27,0,2,0,true,q,false,true,0.0-2.0-0.60-0.541-3.541,0,1,1,81,false,stim,false,2,1498.0,0,0,0,24779,task3,1816196,false,false,1819,image-keyboard-response,22
true,27,2,2,2,true,d,false,true,0.0-2.0-0.60-0.542-3.542,0,1,1,68,false,stim,false,2,1087.2999999970198,0,1,2,24779,task3,1818788,false,false,1822,image-keyboard-response,23
true,27,1,2,1,true,z,false,true,0.0-2.0-0.60-0.543-3.543,0,1,1,90,false,stim,false,1,1855.1000000089407,0,1,1,24779,task3,1822148,false,false,1825,image-keyboard-response,24
true,27,1,2,0,false,q,true,false,0.0-2.0-0.60-0.544-3.544,0,1,1,90,false,stim,false,2,862.7000000029802,0,0,0,24779,task3,1824516,false,false,1828,image-keyboard-response,25
true,27,1,2,1,true,z,false,true,0.0-2.0-0.60-0.545-3.545,0,1,1,90,false,stim,false,1,826.8000000119209,0,1,1,24779,task3,1826852,false,false,1831,image-keyboard-response,26
true,27,2,2,2,true,d,false,false,0.0-2.0-0.60-0.546-3.546,0,1,1,68,false,stim,false,2,1109.2000000029802,0,0,2,24779,task3,1829468,false,true,1834,image-keyboard-response,27
true,27,1,2,1,true,z,false,true,0.0-2.0-0.60-0.547-3.547,0,1,1,90,false,stim,false,1,1228.4000000059605,0,1,1,24779,task3,1832204,false,false,1837,image-keyboard-response,28
true,27,2,2,2,true,d,false,true,0.0-2.0-0.60-0.548-3.548,0,1,1,68,false,stim,false,2,1159.1000000089407,0,0,2,24779,task3,1834868,false,false,1840,image-keyboard-response,29
true,28,1,1,2,false,d,true,false,0.0-2.0-0.61-0.549-3.549,0,1,0,90,true,stim,false,0,1441.9000000059605,0,0,0,24779,task3,1837819,false,false,1843,image-keyboard-response,1
true,28,2,1,0,false,q,false,false,0.0-2.0-0.61-0.550-3.550,0,1,0,68,false,stim,true,2,1022.6000000089407,0,0,2,24779,task3,1840347,false,false,1846,image-keyboard-response,2
true,28,2,1,0,false,q,false,false,0.0-2.0-0.61-0.551-3.551,0,1,0,68,false,stim,true,2,948.3000000119209,0,0,2,24779,task3,1842804,false,false,1849,image-keyboard-response,3
true,28,1,1,2,false,d,true,true,0.0-2.0-0.61-0.552-3.552,0,1,0,90,false,stim,false,0,1229.5,0,0,0,24779,task3,1845540,false,true,1852,image-keyboard-response,4
true,28,1,1,1,true,z,false,true,0.0-2.0-0.61-0.553-3.553,0,1,0,90,false,stim,false,1,935.0,0,1,1,24779,task3,1847979,false,false,1855,image-keyboard-response,5
true,28,2,1,0,false,q,false,false,0.0-2.0-0.61-0.554-3.554,0,1,0,68,false,stim,true,2,1086.3999999910593,0,0,2,24779,task3,1850571,false,false,1858,image-keyboard-response,6
true,28,0,1,1,false,z,true,false,0.0-2.0-0.61-0.555-3.555,0,1,0,81,false,stim,false,1,1503.5,0,1,1,24779,task3,1853579,false,false,1861,image-keyboard-response,7
true,28,1,1,2,false,d,true,false,0.0-2.0-0.61-0.556-3.556,0,1,0,90,false,stim,false,0,1543.0,0,0,0,24779,task3,1856627,false,false,1864,image-keyboard-response,8
true,28,1,1,1,true,z,false,true,0.0-2.0-0.61-0.557-3.557,0,1,0,90,false,stim,false,1,2214.5999999940395,0,1,1,24779,task3,1860347,false,false,1867,image-keyboard-response,9
true,28,1,1,1,true,z,false,true,0.0-2.0-0.62-0.558-3.558,0,1,0,90,false,stim,false,1,1215.2999999970198,0,1,1,24779,task3,1863067,false,false,1870,image-keyboard-response,10
true,28,2,1,0,false,q,false,false,0.0-2.0-0.62-0.559-3.559,0,1,0,68,false,stim,true,2,999.4000000059605,0,0,2,24779,task3,1865571,false,false,1873,image-keyboard-response,11
true,28,0,1,2,false,d,false,false,0.0-2.0-0.62-0.560-3.560,0,1,0,81,false,stim,true,0,2733.9000000059605,0,0,0,24779,task3,1869810,false,false,1876,image-keyboard-response,12
true,28,2,1,0,false,q,false,false,0.0-2.0-0.62-0.561-3.561,0,1,0,68,false,stim,true,2,1063.2999999970198,0,0,2,24779,task3,1872379,false,false,1879,image-keyboard-response,13
true,28,1,1,2,false,d,true,false,0.0-2.0-0.62-0.562-3.562,0,1,0,90,false,stim,false,0,1228.5,0,0,0,24779,task3,1875115,false,false,1882,image-keyboard-response,14
true,28,1,1,1,true,z,false,true,0.0-2.0-0.62-0.563-3.563,0,1,0,90,false,stim,false,1,751.2999999970198,0,1,1,24779,task3,1877370,false,false,1885,image-keyboard-response,15
true,28,0,1,1,false,z,true,false,0.0-2.0-0.62-0.564-3.564,0,1,0,81,false,stim,false,1,1570.9000000059605,0,1,1,24779,task3,1880450,false,false,1888,image-keyboard-response,16
true,28,2,1,0,false,q,false,true,0.0-2.0-0.62-0.565-3.565,0,1,0,68,false,stim,true,2,1294.8999999910593,0,0,2,24779,task3,1883250,false,true,1891,image-keyboard-response,17
true,28,1,1,2,false,d,true,true,0.0-2.0-0.62-0.566-3.566,0,1,0,90,false,stim,false,0,1166.2000000029802,0,0,0,24779,task3,1885922,false,true,1894,image-keyboard-response,18
true,28,1,1,1,true,z,false,true,0.0-2.0-0.63-0.567-3.567,0,1,0,90,false,stim,false,1,1574.8999999910593,0,1,1,24779,task3,1889002,false,false,1897,image-keyboard-response,19
true,28,1,1,2,false,d,true,false,0.0-2.0-0.63-0.568-3.568,0,1,0,90,false,stim,false,0,1679.0,0,0,0,24779,task3,1892186,false,false,1900,image-keyboard-response,20
true,28,0,1,1,false,z,true,false,0.0-2.0-0.63-0.569-3.569,0,1,0,81,false,stim,false,1,1887.7999999970198,0,1,1,24779,task3,1895585,false,false,1903,image-keyboard-response,21
true,28,2,1,0,false,q,false,false,0.0-2.0-0.63-0.570-3.570,0,1,0,68,false,stim,true,2,1302.2000000029802,0,0,2,24779,task3,1898393,false,false,1906,image-keyboard-response,22
true,28,1,1,0,false,q,true,false,0.0-2.0-0.63-0.571-3.571,0,1,0,90,false,stim,false,2,919.1999999880791,0,0,2,24779,task3,1900817,false,false,1909,image-keyboard-response,23
true,28,2,1,2,true,d,false,true,0.0-2.0-0.63-0.572-3.572,0,1,0,68,false,stim,false,0,1383.8999999910593,0,0,0,24779,task3,1903705,false,false,1912,image-keyboard-response,24
true,28,1,1,0,false,q,true,false,0.0-2.0-0.63-0.573-3.573,0,1,0,90,false,stim,false,2,2693.7999999970198,0,0,2,24779,task3,1907905,false,false,1915,image-keyboard-response,25
true,28,1,1,1,true,z,false,true,0.0-2.0-0.63-0.574-3.574,0,1,0,90,false,stim,false,1,1591.0,0,1,1,24779,task3,1911001,false,false,1918,image-keyboard-response,26
true,28,1,1,2,false,d,true,false,0.0-2.0-0.63-0.575-3.575,0,1,0,90,false,stim,false,0,1682.699999988079,0,0,0,24779,task3,1914193,false,false,1921,image-keyboard-response,27
true,28,2,1,0,false,q,false,false,0.0-2.0-0.64-0.576-3.576,0,1,0,68,false,stim,true,2,1158.5999999940395,0,0,2,24779,task3,1916857,false,false,1924,image-keyboard-response,28
true,29,1,1,1,true,z,false,true,0.0-2.0-0.64-0.577-3.577,0,1,0,90,true,stim,false,2,1272.0999999940395,0,0,0,24779,task3,1919633,false,false,1927,image-keyboard-response,1
true,29,1,1,1,true,z,false,true,0.0-2.0-0.64-0.578-3.578,0,1,0,90,false,stim,false,1,1165.2000000029802,0,1,1,24779,task3,1922305,false,false,1930,image-keyboard-response,2
true,29,1,1,1,true,z,false,true,0.0-2.0-0.64-0.579-3.579,0,1,0,90,false,stim,false,2,1414.7000000029802,0,0,0,24779,task3,1925224,false,false,1933,image-keyboard-response,3
true,29,1,1,1,true,z,false,true,0.0-2.0-0.64-0.580-3.580,0,1,0,90,false,stim,false,1,1191.4000000059605,0,1,1,24779,task3,1927920,false,false,1936,image-keyboard-response,4
true,29,2,1,2,true,d,false,true,0.0-2.0-0.64-0.581-3.581,0,1,0,68,false,stim,false,0,1293.9000000059605,0,0,2,24779,task3,1930720,false,false,1939,image-keyboard-response,5
true,29,1,1,1,true,z,false,true,0.0-2.0-0.64-0.582-3.582,0,1,0,90,false,stim,false,2,1363.7000000029802,0,0,0,24779,task3,1933593,false,false,1942,image-keyboard-response,6
true,29,2,1,2,true,d,false,true,0.0-2.0-0.64-0.583-3.583,0,1,0,68,false,stim,false,0,1398.8999999910593,0,0,2,24779,task3,1936496,false,false,1945,image-keyboard-response,7
true,29,1,1,1,true,z,false,true,0.0-2.0-0.64-0.584-3.584,0,1,0,90,false,stim,false,1,1006.7000000029802,0,1,1,24779,task3,1939008,false,false,1948,image-keyboard-response,8
true,29,1,1,1,true,z,false,true,0.0-2.0-0.65-0.585-3.585,0,1,0,90,false,stim,false,1,923.0,0,1,1,24779,task3,1941440,false,false,1951,image-keyboard-response,9
true,29,1,1,1,true,z,false,true,0.0-2.0-0.65-0.586-3.586,0,1,0,90,false,stim,false,1,1110.7000000029802,0,1,1,24779,task3,1944056,false,false,1954,image-keyboard-response,10
true,29,1,1,1,true,z,false,true,0.0-2.0-0.65-0.587-3.587,0,1,0,90,false,stim,false,2,1110.5999999940395,0,0,0,24779,task3,1946672,false,false,1957,image-keyboard-response,11
true,29,1,1,1,true,z,false,true,0.0-2.0-0.65-0.588-3.588,0,1,0,90,false,stim,false,2,938.6999999880791,0,0,0,24779,task3,1949120,false,false,1960,image-keyboard-response,12
true,29,0,1,1,false,z,true,true,0.0-2.0-0.65-0.589-3.589,0,1,0,81,false,stim,false,2,2405.7000000029802,0,0,0,24779,task3,1953032,false,true,1963,image-keyboard-response,13
true,29,2,1,2,true,d,false,true,0.0-2.0-0.65-0.590-3.590,0,1,0,68,false,stim,false,0,1295.5,0,0,2,24779,task3,1955832,false,false,1966,image-keyboard-response,14
