answered,blockNum,choice,condition,corResp,correct,correct_response,explo,fb,internal_node_id,isStable_1,isStable_2,isStable_3,key_press,newBlock,part,persev,persevResp,rt,sessNum,stableAS,stimulus,subject,task,time_elapsed,training,trap,trial_index,trial_type,trialsInBlock
true,1,1,0,1,true,z,false,true,0.0-2.0-0.0-0.0-3.0,0,0,0,90,true,stim,false,-1,2841.399999976158,1,0,0,24779,task2,343092,false,false,184,image-keyboard-response,1
true,1,1,0,1,true,z,false,true,0.0-2.0-0.0-0.1-3.1,0,0,0,90,false,stim,false,-1,1064.800000011921,1,0,0,24779,task2,345660,false,false,187,image-keyboard-response,2
true,1,0,0,2,false,d,true,false,0.0-2.0-0.0-0.2-3.2,0,0,0,81,false,stim,false,-1,673.0999999940395,1,0,1,24779,task2,347836,false,false,190,image-keyboard-response,3
true,1,2,0,2,true,d,false,true,0.0-2.0-0.0-0.3-3.3,0,0,0,68,false,stim,false,-1,2361.0,1,0,1,24779,task2,351700,false,false,193,image-keyboard-response,4
true,1,2,0,2,true,d,false,true,0.0-2.0-0.0-0.4-3.4,0,0,0,68,false,stim,false,-1,1512.9000000059605,1,0,2,24779,task2,354716,false,false,196,image-keyboard-response,5
true,1,2,0,2,true,d,false,true,0.0-2.0-0.0-0.5-3.5,0,0,0,68,false,stim,false,-1,1217.199999988079,1,0,2,24779,task2,357436,false,false,199,image-keyboard-response,6
true,1,1,0,1,true,z,false,true,0.0-2.0-0.0-0.6-3.6,0,0,0,90,false,stim,false,-1,951.5999999940395,1,0,0,24779,task2,359892,false,false,202,image-keyboard-response,7
true,1,2,0,2,true,d,false,true,0.0-2.0-0.0-0.7-3.7,0,0,0,68,false,stim,false,-1,1062.2999999821186,1,0,1,24779,task2,362460,false,false,205,image-keyboard-response,8
true,1,2,0,2,true,d,false,true,0.0-2.0-0.0-0.8-3.8,0,0,0,68,false,stim,false,-1,2080.300000011921,1,0,2,24779,task2,366044,false,false,208,image-keyboard-response,9
true,1,2,0,2,true,d,false,true,0.0-2.0-0.1-0.9-3.9,0,0,0,68,false,stim,false,-1,1072.5,1,0,2,24779,task2,368620,false,false,211,image-keyboard-response,10
true,1,1,0,2,false,d,true,true,0.0-2.0-0.1-0.10-3.10,0,0,0,90,false,stim,false,-1,836.8000000119209,1,0,1,24779,task2,370964,false,true,214,image-keyboard-response,11
true,1,1,0,2,false,d,true,false,0.0-2.0-0.1-0.11-3.11,0,0,0,90,false,stim,false,-1,673.7999999821186,1,0,1,24779,task2,373148,false,false,217,image-keyboard-response,12
true,1,0,0,1,false,z,true,true,0.0-2.0-0.1-0.12-3.12,0,0,0,81,false,stim,false,-1,1824.9000000059605,1,0,0,24779,task2,376476,false,true,220,image-keyboard-response,13
true,1,2,0,2,true,d,false,true,0.0-2.0-0.1-0.13-3.13,0,0,0,68,false,stim,false,-1,2311.9000000059605,1,0,1,24779,task2,380291,false,false,223,image-keyboard-response,14
true,1,2,0,2,true,d,false,false,0.0-2.0-0.1-0.14-3.14,0,0,0,68,false,stim,false,-1,924.6999999880791,1,0,2,24779,task2,382723,false,true,226,image-keyboard-response,15
true,1,1,0,1,true,z,false,true,0.0-2.0-0.1-0.15-3.15,0,0,0,90,false,stim,false,-1,1624.699999988079,1,0,0,24779,task2,385852,false,false,229,image-keyboard-response,16
true,1,0,0,2,false,d,true,false,0.0-2.0-0.1-0.16-3.16,0,0,0,81,false,stim,false,-1,1479.5999999940395,1,0,2,24779,task2,388835,false,false,232,image-keyboard-response,17
true,1,1,0,1,true,z,false,true,0.0-2.0-0.1-0.17-3.17,0,0,0,90,false,stim,false,-1,1165.7000000178814,1,0,0,24779,task2,391507,false,false,235,image-keyboard-response,18
true,1,2,0,2,true,d,false,true,0.0-2.0-0.2-0.18-3.18,0,0,0,68,false,stim,false,-1,1318.7000000178814,1,0,2,24779,task2,394331,false,false,238,image-keyboard-response,19
true,1,2,0,2,true,d,false,true,0.0-2.0-0.2-0.19-3.19,0,0,0,68,false,stim,false,-1,753.1999999880791,1,0,2,24779,task2,396587,false,false,241,image-keyboard-response,20
true,1,1,0,2,false,d,true,false,0.0-2.0-0.2-0.20-3.20,0,0,0,90,false,stim,false,-1,961.0,1,0,1,24779,task2,399051,false,false,244,image-keyboard-response,21
true,1,2,0,1,false,z,true,false,0.0-2.0-0.2-0.21-3.21,0,0,0,68,false,stim,false,-1,848.7000000178814,1,0,0,24779,task2,401403,false,false,247,image-keyboard-response,22
true,1,0,0,1,false,z,true,false,0.0-2.0-0.2-0.22-3.22,0,0,0,81,false,stim,false,-1,1263.800000011921,1,0,0,24779,task2,404171,false,false,250,image-keyboard-response,23
true,1,0,0,1,false,z,true,false,0.0-2.0-0.2-0.23-3.23,0,0,0,81,false,stim,false,-1,1897.0999999940395,1,0,0,24779,task2,407571,false,false,253,image-keyboard-response,24
true,1,2,0,2,true,d,false,true,0.0-2.0-0.2-0.24-3.24,0,0,0,68,false,stim,false,-1,790.3999999761581,1,0,2,24779,task2,409867,false,false,256,image-keyboard-response,25
true,1,1,0,2,false,d,true,false,0.0-2.0-0.2-0.25-3.25,0,0,0,90,false,stim,false,-1,652.8000000119209,1,0,1,24779,task2,412027,false,false,259,image-keyboard-response,26
true,2,2,1,0,false,q,false,false,0.0-2.0-0.2-0.26-3.26,0,0,0,68,true,stim,true,2,1312.9000000059605,1,0,1,24779,task2,414843,false,false,262,image-keyboard-response,1
true,2,0,1,0,true,q,false,true,0.0-2.0-0.3-0.27-3.27,0,0,0,81,false,stim,false,2,639.6000000238419,1,0,1,24779,task2,416987,false,false,265,image-keyboard-response,2
true,2,0,1,0,true,q,false,true,0.0-2.0-0.3-0.28-3.28,0,0,0,81,false,stim,false,2,1081.199999988079,1,0,1,24779,task2,419571,false,false,268,image-keyboard-response,3
true,2,0,1,0,true,q,false,true,0.0-2.0-0.3-0.29-3.29,0,0,0,81,false,stim,false,2,633.0999999940395,1,0,1,24779,task2,421707,false,false,271,image-keyboard-response,4
true,2,2,1,2,true,d,false,false,0.0-2.0-0.3-0.30-3.30,0,0,0,68,false,stim,false,1,1655.800000011921,1,0,0,24779,task2,424866,false,true,274,image-keyboard-response,5
true,2,2,1,0,false,q,false,false,0.0-2.0-0.3-0.31-3.31,0,0,0,68,false,stim,true,2,1097.199999988079,1,0,2,24779,task2,427467,false,false,277,image-keyboard-response,6
true,2,0,1,0,true,q,false,true,0.0-2.0-0.3-0.32-3.32,0,0,0,81,false,stim,false,2,857.9000000059605,1,0,2,24779,task2,429827,false,false,280,image-keyboard-response,7
true,2,0,1,2,false,d,true,false,0.0-2.0-0.3-0.33-3.33,0,0,0,81,false,stim,false,1,820.9000000059605,1,0,0,24779,task2,432154,false,false,283,image-keyboard-response,8
true,2,1,1,2,false,d,false,false,0.0-2.0-0.3-0.34-3.34,0,0,0,90,false,stim,true,1,1162.5999999940395,1,0,0,24779,task2,434826,false,false,286,image-keyboard-response,9
true,2,0,1,0,true,q,false,true,0.0-2.0-0.3-0.35-3.35,0,0,0,81,false,stim,false,2,952.9000000059605,1,0,2,24779,task2,437283,false,false,289,image-keyboard-response,10
true,2,2,1,2,true,d,false,true,0.0-2.0-0.4-0.36-3.36,0,0,0,68,false,stim,false,1,536.1999999880791,1,0,0,24779,task2,439322,false,false,292,image-keyboard-response,11
true,2,0,1,0,true,q,false,true,0.0-2.0-0.4-0.37-3.37,0,0,0,81,false,stim,false,2,1728.4000000059605,1,0,1,24779,task2,442554,false,false,295,image-keyboard-response,12
true,2,0,1,0,true,q,false,true,0.0-2.0-0.4-0.38-3.38,0,0,0,81,false,stim,false,2,760.9000000059605,1,0,1,24779,task2,444818,false,false,298,image-keyboard-response,13
true,2,2,1,2,true,d,false,true,0.0-2.0-0.4-0.39-3.39,0,0,0,68,false,stim,false,1,848.5,1,0,0,24779,task2,447170,false,false,301,image-keyboard-response,14
true,2,0,1,0,true,q,false,true,0.0-2.0-0.4-0.40-3.40,0,0,0,81,false,stim,false,2,860.4000000059605,1,0,1,24779,task2,449538,false,false,304,image-keyboard-response,15
true,2,2,1,0,false,q,false,false,0.0-2.0-0.4-0.41-3.41,0,0,0,68,false,stim,true,2,1999.300000011921,1,0,2,24779,task2,453042,false,false,307,image-keyboard-response,16
true,2,0,1,0,true,q,false,true,0.0-2.0-0.4-0.42-3.42,0,0,0,81,false,stim,false,2,862.2000000178814,1,0,2,24779,task2,455410,false,false,310,image-keyboard-response,17
true,2,0,1,0,true,q,false,true,0.0-2.0-0.4-0.43-3.43,0,0,0,81,false,stim,false,2,751.5999999940395,1,0,2,24779,task2,457666,false,false,313,image-keyboard-response,18
true,2,1,1,2,false,d,false,false,0.0-2.0-0.4-0.44-3.44,0,0,0,90,false,stim,true,1,2160.800000011921,1,0,0,24779,task2,461330,false,false,316,image-keyboard-response,19
true,2,2,1,2,true,d,false,true,0.0-2.0-0.5-0.45-3.45,0,0,0,68,false,stim,false,1,632.6999999880791,1,0,0,24779,task2,463466,false,false,319,image-keyboard-response,20
true,2,0,1,0,true,q,false,true,0.0-2.0-0.5-0.46-3.46,0,0,0,81,false,stim,false,2,1098.800000011921,1,0,1,24779,task2,466074,false,false,322,image-keyboard-response,21
true,2,2,1,0,false,q,false,false,0.0-2.0-0.5-0.47-3.47,0,0,0,68,false,stim,true,2,1576.800000011921,1,0,2,24779,task2,469153,false,false,325,image-keyboard-response,22
true,2,0,1,0,true,q,false,true,0.0-2.0-0.5-0.48-3.48,0,0,0,81,false,stim,false,2,904.5999999940395,1,0,1,24779,task2,471561,false,false,328,image-keyboard-response,23
true,2,0,1,0,true,q,false,true,0.0-2.0-0.5-0.49-3.49,0,0,0,81,false,stim,false,2,724.9000000059605,1,0,1,24779,task2,473794,false,false,331,image-keyboard-response,24
true,2,1,1,0,false,q,true,false,0.0-2.0-0.5-0.50-3.50,0,0,0,90,false,stim,false,2,1137.0,1,0,2,24779,task2,476433,false,false,334,image-keyboard-response,25
true,2,0,1,0,true,q,false,false,0.0-2.0-0.5-0.51-3.51,0,0,0,81,false,stim,false,2,841.0,1,0,2,24779,task2,478777,false,true,337,image-keyboard-response,26
true,2,0,1,2,false,d,true,false,0.0-2.0-0.5-0.52-3.52,0,0,0,81,false,stim,false,1,936.5,1,0,0,24779,task2,481217,false,false,340,image-keyboard-response,27
true,2,1,1,2,false,d,false,false,0.0-2.0-0.5-0.53-3.53,0,0,0,90,false,stim,true,1,726.8000000119209,1,0,0,24779,task2,483449,false,false,343,image-keyboard-response,28
true,2,0,1,0,true,q,false,true,0.0-2.0-0.6-0.54-3.54,0,0,0,81,false,stim,false,2,1256.5,1,0,1,24779,task2,486210,false,false,346,image-keyboard-response,29
true,2,2,1,2,true,d,false,true,0.0-2.0-0.6-0.55-3.55,0,0,0,68,false,stim,false,1,512.0,1,0,0,24779,task2,488225,false,false,349,image-keyboard-response,30
true,2,2,1,2,true,d,false,true,0.0-2.0-0.6-0.56-3.56,0,0,0,68,false,stim,false,1,749.1999999880791,1,0,0,24779,task2,490481,false,false,352,image-keyboard-response,31
true,2,0,1,0,true,q,false,true,0.0-2.0-0.6-0.57-3.57,0,0,0,81,false,stim,false,2,721.0999999940395,1,0,1,24779,task2,492705,false,false,355,image-keyboard-response,32
true,2,2,1,0,false,q,false,false,0.0-2.0-0.6-0.58-3.58,0,0,0,68,false,stim,true,2,876.8000000119209,1,0,2,24779,task2,495089,false,false,358,image-keyboard-response,33
true,2,1,1,0,false,q,true,false,0.0-2.0-0.6-0.59-3.59,0,0,0,90,false,stim,false,2,760.0,1,0,2,24779,task2,497353,false,false,361,image-keyboard-response,34
true,2,2,1,2,true,d,false,true,0.0-2.0-0.6-0.60-3.60,0,0,0,68,false,stim,false,1,654.9000000059605,1,0,0,24779,task2,499513,false,false,364,image-keyboard-response,35
true,2,2,1,0,false,q,false,false,0.0-2.0-0.6-0.61-3.61,0,0,0,68,false,stim,true,2,581.8000000119209,1,0,2,24779,task2,501601,false,false,367,image-keyboard-response,36
true,3,0,1,2,false,d,false,false,0.0-2.0-0.6-0.62-3.62,0,0,0,81,true,stim,true,0,912.9000000059605,1,0,1,24779,task2,504017,false,false,370,image-keyboard-response,1
true,3,0,1,1,false,z,true,false,0.0-2.0-0.7-0.63-3.63,0,0,0,81,false,stim,false,2,1184.300000011921,1,0,0,24779,task2,506705,false,false,373,image-keyboard-response,2
true,3,2,1,2,true,d,false,true,0.0-2.0-0.7-0.64-3.64,0,0,0,68,false,stim,false,0,1696.199999988079,1,0,1,24779,task2,509905,false,false,376,image-keyboard-response,3
true,3,0,1,1,false,z,false,false,0.0-2.0-0.7-0.65-3.65,0,0,0,81,false,stim,true,0,1657.699999988079,1,0,2,24779,task2,513073,false,false,379,image-keyboard-response,4
true,3,1,1,1,true,z,false,false,0.0-2.0-0.7-0.66-3.66,0,0,0,90,false,stim,false,0,1580.5,1,0,2,24779,task2,516160,false,true,382,image-keyboard-response,5
true,3,2,1,1,false,z,false,false,0.0-2.0-0.7-0.67-3.67,0,0,0,68,false,stim,true,2,1649.0,1,0,0,24779,task2,519312,false,false,385,image-keyboard-response,6
true,3,0,1,1,false,z,true,true,0.0-2.0-0.7-0.68-3.68,0,0,0,81,false,stim,false,2,790.8999999761581,1,0,0,24779,task2,521609,false,true,388,image-keyboard-response,7
true,3,2,1,1,false,z,true,false,0.0-2.0-0.7-0.69-3.69,0,0,0,68,false,stim,false,0,731.6999999880791,1,0,2,24779,task2,523848,false,false,391,image-keyboard-response,8
true,3,0,1,2,false,d,false,false,0.0-2.0-0.7-0.70-3.70,0,0,0,81,false,stim,true,0,1523.800000011921,1,0,1,24779,task2,526880,false,false,394,image-keyboard-response,9
true,3,2,1,2,true,d,false,true,0.0-2.0-0.7-0.71-3.71,0,0,0,68,false,stim,false,0,895.5999999940395,1,0,1,24779,task2,529280,false,false,397,image-keyboard-response,10
true,3,2,1,2,true,d,false,true,0.0-2.0-0.8-0.72-3.72,0,0,0,68,false,stim,false,0,1056.300000011921,1,0,1,24779,task2,531840,false,false,400,image-keyboard-response,11
true,3,2,1,2,true,d,false,true,0.0-2.0-0.8-0.73-3.73,0,0,0,68,false,stim,false,0,731.5,1,0,1,24779,task2,534080,false,false,403,image-keyboard-response,12
true,3,1,1,1,true,z,false,true,0.0-2.0-0.8-0.74-3.74,0,0,0,90,false,stim,false,2,1338.800000011921,1,0,0,24779,task2,536928,false,false,406,image-keyboard-response,13
true,3,1,1,1,true,z,false,true,0.0-2.0-0.8-0.75-3.75,0,0,0,90,false,stim,false,0,1272.699999988079,1,0,2,24779,task2,539704,false,false,409,image-keyboard-response,14
true,3,1,1,1,true,z,false,true,0.0-2.0-0.8-0.76-3.76,0,0,0,90,false,stim,false,0,961.1999999880791,1,0,2,24779,task2,542168,false,false,412,image-keyboard-response,15
true,3,1,1,2,false,d,true,false,0.0-2.0-0.8-0.77-3.77,0,0,0,90,false,stim,false,0,903.1000000238419,1,0,1,24779,task2,544576,false,false,415,image-keyboard-response,16
true,3,2,1,1,false,z,false,false,0.0-2.0-0.8-0.78-3.78,0,0,0,68,false,stim,true,2,1864.699999988079,1,0,0,24779,task2,547944,false,false,418,image-keyboard-response,17
true,3,2,1,1,false,z,true,false,0.0-2.0-0.8-0.79-3.79,0,0,0,68,false,stim,false,0,1838.699999988079,1,0,2,24779,task2,551288,false,false,421,image-keyboard-response,18
true,3,1,1,1,true,z,false,true,0.0-2.0-0.8-0.80-3.80,0,0,0,90,false,stim,false,2,1063.8999999761581,1,0,0,24779,task2,553856,false,false,424,image-keyboard-response,19
true,3,0,1,1,false,z,false,false,0.0-2.0-0.9-0.81-3.81,0,0,0,81,false,stim,true,0,1750.0999999940395,1,0,2,24779,task2,557112,false,false,427,image-keyboard-response,20
true,3,1,1,1,true,z,false,true,0.0-2.0-0.9-0.82-3.82,0,0,0,90,false,stim,false,2,680.6999999880791,1,0,0,24779,task2,559295,false,false,430,image-keyboard-response,21
true,3,1,1,1,true,z,false,true,0.0-2.0-0.9-0.83-3.83,0,0,0,90,false,stim,false,2,1228.699999988079,1,0,0,24779,task2,562031,false,false,433,image-keyboard-response,22
true,3,0,1,2,false,d,false,false,0.0-2.0-0.9-0.84-3.84,0,0,0,81,false,stim,true,0,1582.4000000059605,1,0,1,24779,task2,565120,false,false,436,image-keyboard-response,23
true,3,1,1,1,true,z,false,true,0.0-2.0-0.9-0.85-3.85,0,0,0,90,false,stim,false,0,635.5999999940395,1,0,2,24779,task2,567263,false,false,439,image-keyboard-response,24
true,3,1,1,1,true,z,false,true,0.0-2.0-0.9-0.86-3.86,0,0,0,90,false,stim,false,0,740.0,1,0,2,24779,task2,569511,false,false,442,image-keyboard-response,25
true,3,2,1,1,false,z,false,false,0.0-2.0-0.9-0.87-3.87,0,0,0,68,false,stim,true,2,2112.800000011921,1,0,0,24779,task2,573127,false,false,445,image-keyboard-response,26
true,3,1,1,2,false,d,true,false,0.0-2.0-0.9-0.88-3.88,0,0,0,90,false,stim,false,0,1056.7000000178814,1,0,1,24779,task2,575687,false,false,448,image-keyboard-response,27
true,3,2,1,2,true,d,false,true,0.0-2.0-0.9-0.89-3.89,0,0,0,68,false,stim,false,0,652.8000000119209,1,0,1,24779,task2,577847,false,false,451,image-keyboard-response,28
true,3,2,1,2,true,d,false,true,0.0-2.0-0.10-0.90-3.90,0,0,0,68,false,stim,false,0,771.8000000119209,1,0,1,24779,task2,580127,false,false,454,image-keyboard-response,29
true,3,2,1,2,true,d,false,true,0.0-2.0-0.10-0.91-3.91,0,0,0,68,false,stim,false,0,539.0,1,0,1,24779,task2,582175,false,false,457,image-keyboard-response,30
true,3,1,1,1,true,z,false,true,0.0-2.0-0.10-0.92-3.92,0,0,0,90,false,stim,false,2,996.6999999880791,1,0,0,24779,task2,584679,false,false,460,image-keyboard-response,31
true,3,1,1,1,true,z,false,true,0.0-2.0-0.10-0.93-3.93,0,0,0,90,false,stim,false,2,789.1999999880791,1,0,0,24779,task2,586975,false,false,463,image-keyboard-response,32
true,3,2,1,2,true,d,false,true,0.0-2.0-0.10-0.94-3.94,0,0,0,68,false,stim,false,0,760.7999999821186,1,0,1,24779,task2,589239,false,false,466,image-keyboard-response,33
true,3,1,1,1,true,z,false,true,0.0-2.0-0.10-0.95-3.95,0,0,0,90,false,stim,false,2,628.4000000059605,1,0,0,24779,task2,591375,false,false,469,image-keyboard-response,34
true,3,0,1,1,false,z,false,false,0.0-2.0-0.10-0.96-3.96,0,0,0,81,false,stim,true,0,2407.9000000059605,1,1,2,24779,task2,595287,false,false,472,image-keyboard-response,35
true,3,2,1,1,false,z,true,false,0.0-2.0-0.10-0.97-3.97,0,0,0,68,false,stim,false,0,774.8000000119209,1,1,2,24779,task2,597567,false,false,475,image-keyboard-response,36
true,4,1,2,1,true,z,false,true,0.0-2.0-0.10-0.98-3.98,0,0,1,90,true,stim,false,1,621.8000000119209,1,1,2,24779,task2,599694,false,false,478,image-keyboard-response,1
true,4,1,2,2,false,d,false,true,0.0-2.0-0.11-0.99-3.99,0,0,1,90,false,stim,true,1,1029.4000000059605,1,0,0,24779,task2,602231,false,true,481,image-keyboard-response,2
true,4,1,2,1,true,z,false,true,0.0-2.0-0.11-0.100-3.100,0,0,1,90,false,stim,false,1,831.7000000178814,1,1,2,24779,task2,604566,false,false,484,image-keyboard-response,3
true,4,2,2,1,false,z,false,false,0.0-2.0-0.11-0.101-3.101,0,0,1,68,false,stim,true,2,649.3000000119209,1,0,1,24779,task2,606719,false,false,487,image-keyboard-response,4
true,4,1,2,1,true,z,false,true,0.0-2.0-0.11-0.102-3.102,0,0,1,90,false,stim,false,2,549.9000000059605,1,0,1,24779,task2,608775,false,false,490,image-keyboard-response,5
true,4,1,2,1,true,z,false,true,0.0-2.0-0.11-0.103-3.103,0,0,1,90,false,stim,false,1,2937.4000000059605,1,1,2,24779,task2,613215,false,false,493,image-keyboard-response,6
true,4,1,2,1,true,z,false,true,0.0-2.0-0.11-0.104-3.104,0,0,1,90,false,stim,false,2,980.3000000119209,1,0,1,24779,task2,615702,false,false,496,image-keyboard-response,7
true,4,1,2,2,false,d,false,false,0.0-2.0-0.11-0.105-3.105,0,0,1,90,false,stim,true,1,597.0999999940395,1,0,0,24779,task2,617806,false,false,499,image-keyboard-response,8
true,4,2,2,2,true,d,false,true,0.0-2.0-0.11-0.106-3.106,0,0,1,68,false,stim,false,1,655.4000000059605,1,0,0,24779,task2,619966,false,false,502,image-keyboard-response,9
true,4,1,2,1,true,z,false,true,0.0-2.0-0.11-0.107-3.107,0,0,1,90,false,stim,false,1,864.0,1,1,2,24779,task2,622334,false,false,505,image-keyboard-response,10
true,4,1,2,1,true,z,false,true,0.0-2.0-0.12-0.108-3.108,0,0,1,90,false,stim,false,2,1285.199999988079,1,0,1,24779,task2,625126,false,false,508,image-keyboard-response,11
true,4,1,2,1,true,z,false,true,0.0-2.0-0.12-0.109-3.109,0,0,1,90,false,stim,false,1,802.5,1,1,2,24779,task2,627438,false,false,511,image-keyboard-response,12
true,4,1,2,2,false,d,false,false,0.0-2.0-0.12-0.110-3.110,0,0,1,90,false,stim,true,1,884.3000000119209,1,0,0,24779,task2,629830,false,false,514,image-keyboard-response,13
true,4,2,2,2,true,d,false,true,0.0-2.0-0.12-0.111-3.111,0,0,1,68,false,stim,false,1,703.1999999880791,1,0,0,24779,task2,632038,false,false,517,image-keyboard-response,14
true,4,2,2,2,true,d,false,false,0.0-2.0-0.12-0.112-3.112,0,0,1,68,false,stim,false,1,1128.699999988079,1,0,0,24779,task2,634669,false,true,520,image-keyboard-response,15
false,4,-1,2,1,false,z,true,false,0.0-2.0-0.12-0.113-3.113,0,0,1,,false,stim,false,2,,1,0,1,24779,task2,639173,false,false,523,image-keyboard-response,16
true,4,2,2,1,false,z,false,false,0.0-2.0-0.12-0.114-3.114,0,0,1,68,false,stim,true,2,1135.5999999940395,1,0,1,24779,task2,641813,false,false,526,image-keyboard-response,17
true,4,1,2,1,true,z,false,true,0.0-2.0-0.12-0.115-3.115,0,0,1,90,false,stim,false,1,2151.899999976158,1,1,2,24779,task2,645470,false,false,529,image-keyboard-response,18
true,4,1,2,1,true,z,false,false,0.0-2.0-0.12-0.116-3.116,0,0,1,90,false,stim,false,1,735.5,1,1,2,24779,task2,647709,false,true,532,image-keyboard-response,19
true,4,2,2,1,false,z,true,false,0.0-2.0-0.13-0.117-3.117,0,0,1,68,false,stim,false,1,1327.9000000059605,1,1,2,24779,task2,650541,false,false,535,image-keyboard-response,20
true,4,1,2,1,true,z,false,true,0.0-2.0-0.13-0.118-3.118,0,0,1,90,false,stim,false,2,1275.5999999940395,1,0,1,24779,task2,653325,false,false,538,image-keyboard-response,21
true,4,1,2,1,true,z,false,true,0.0-2.0-0.13-0.119-3.119,0,0,1,90,false,stim,false,2,1233.4000000059605,1,0,1,24779,task2,656062,false,false,541,image-keyboard-response,22
true,4,0,2,1,false,z,true,true,0.0-2.0-0.13-0.120-3.120,0,0,1,81,false,stim,false,1,1383.9000000059605,1,1,2,24779,task2,658949,false,true,544,image-keyboard-response,23
true,4,0,2,2,false,d,true,false,0.0-2.0-0.13-0.121-3.121,0,0,1,81,false,stim,false,1,1071.7999999821186,1,0,0,24779,task2,661525,false,false,547,image-keyboard-response,24
true,4,2,2,2,true,d,false,true,0.0-2.0-0.13-0.122-3.122,0,0,1,68,false,stim,false,1,847.7000000178814,1,0,0,24779,task2,663877,false,false,550,image-keyboard-response,25
true,4,1,2,1,true,z,false,false,0.0-2.0-0.13-0.123-3.123,0,0,1,90,false,stim,false,2,913.3000000119209,1,0,1,24779,task2,666293,false,true,553,image-keyboard-response,26
true,4,1,2,1,true,z,false,true,0.0-2.0-0.13-0.124-3.124,0,0,1,90,false,stim,false,1,1503.5999999940395,1,1,2,24779,task2,669301,false,false,556,image-keyboard-response,27
true,4,2,2,2,true,d,false,true,0.0-2.0-0.13-0.125-3.125,0,0,1,68,false,stim,false,1,1236.7000000178814,1,0,0,24779,task2,672045,false,false,559,image-keyboard-response,28
true,4,2,2,2,true,d,false,true,0.0-2.0-0.14-0.126-3.126,0,0,1,68,false,stim,false,1,823.8000000119209,1,0,0,24779,task2,674373,false,false,562,image-keyboard-response,29
true,4,2,2,2,true,d,false,true,0.0-2.0-0.14-0.127-3.127,0,0,1,68,false,stim,false,1,604.3000000119209,1,0,0,24779,task2,676485,false,false,565,image-keyboard-response,30
true,4,0,2,1,false,z,true,false,0.0-2.0-0.14-0.128-3.128,0,0,1,81,false,stim,false,1,977.2999999821186,1,0,2,24779,task2,678965,false,false,568,image-keyboard-response,31
true,4,0,2,1,false,z,true,false,0.0-2.0-0.14-0.129-3.129,0,0,1,81,false,stim,false,2,1151.7000000178814,1,1,1,24779,task2,681621,false,false,571,image-keyboard-response,32
true,4,2,2,1,false,z,true,false,0.0-2.0-0.14-0.130-3.130,0,0,1,68,false,stim,false,1,1100.300000011921,1,0,2,24779,task2,684229,false,false,574,image-keyboard-response,33
true,5,2,2,1,false,z,true,false,0.0-2.0-0.14-0.131-3.131,0,1,0,68,true,stim,false,1,1208.199999988079,1,1,1,24779,task2,686941,false,false,577,image-keyboard-response,1
true,5,2,2,1,false,z,false,false,0.0-2.0-0.14-0.132-3.132,0,1,0,68,false,stim,true,2,1024.0999999940395,1,0,0,24779,task2,689469,false,false,580,image-keyboard-response,2
true,5,1,2,1,true,z,false,true,0.0-2.0-0.14-0.133-3.133,0,1,0,90,false,stim,false,1,648.7999999821186,1,1,1,24779,task2,691620,false,false,583,image-keyboard-response,3
true,5,1,2,2,false,d,false,false,0.0-2.0-0.14-0.134-3.134,0,1,0,90,false,stim,true,1,1207.9000000059605,1,0,2,24779,task2,694332,false,false,586,image-keyboard-response,4
true,5,0,2,1,false,z,true,false,0.0-2.0-0.15-0.135-3.135,0,1,0,81,false,stim,false,2,1488.699999988079,1,0,0,24779,task2,697325,false,false,589,image-keyboard-response,5
true,5,2,2,1,false,z,false,false,0.0-2.0-0.15-0.136-3.136,0,1,0,68,false,stim,true,2,687.6999999880791,1,0,0,24779,task2,699516,false,false,592,image-keyboard-response,6
true,5,1,2,1,true,z,false,true,0.0-2.0-0.15-0.137-3.137,0,1,0,90,false,stim,false,2,458.30000001192093,1,0,0,24779,task2,701485,false,false,595,image-keyboard-response,7
true,5,1,2,1,true,z,false,true,0.0-2.0-0.15-0.138-3.138,0,1,0,90,false,stim,false,1,1896.0,1,1,1,24779,task2,704884,false,false,598,image-keyboard-response,8
true,5,1,2,1,true,z,false,true,0.0-2.0-0.15-0.139-3.139,0,1,0,90,false,stim,false,1,798.5,1,1,1,24779,task2,707188,false,false,601,image-keyboard-response,9
true,5,0,2,2,false,d,true,false,0.0-2.0-0.15-0.140-3.140,0,1,0,81,false,stim,false,1,1785.2999999821186,1,0,2,24779,task2,710477,false,false,604,image-keyboard-response,10
true,5,2,2,2,true,d,false,true,0.0-2.0-0.15-0.141-3.141,0,1,0,68,false,stim,false,1,725.0,1,0,2,24779,task2,712708,false,false,607,image-keyboard-response,11
true,5,1,2,1,true,z,false,true,0.0-2.0-0.15-0.142-3.142,0,1,0,90,false,stim,false,1,923.8000000119209,1,1,1,24779,task2,715140,false,false,610,image-keyboard-response,12
true,5,2,2,2,true,d,false,true,0.0-2.0-0.15-0.143-3.143,0,1,0,68,false,stim,false,1,773.2000000178814,1,0,2,24779,task2,717420,false,false,613,image-keyboard-response,13
true,5,1,2,1,true,z,false,false,0.0-2.0-0.16-0.144-3.144,0,1,0,90,false,stim,false,2,1115.9000000059605,1,0,0,24779,task2,720044,false,true,616,image-keyboard-response,14
true,5,2,2,1,false,z,true,true,0.0-2.0-0.16-0.145-3.145,0,1,0,68,false,stim,false,1,1112.0,1,1,1,24779,task2,722660,false,true,619,image-keyboard-response,15
true,5,2,2,2,true,d,false,true,0.0-2.0-0.16-0.146-3.146,0,1,0,68,false,stim,false,1,837.9000000059605,1,0,2,24779,task2,725003,false,false,622,image-keyboard-response,16
true,5,0,2,1,false,z,true,false,0.0-2.0-0.16-0.147-3.147,0,1,0,81,false,stim,false,2,759.7000000178814,1,0,0,24779,task2,727268,false,false,625,image-keyboard-response,17
true,5,2,2,2,true,d,false,true,0.0-2.0-0.16-0.148-3.148,0,1,0,68,false,stim,false,1,1256.5999999940395,1,0,2,24779,task2,730028,false,false,628,image-keyboard-response,18
true,5,2,2,1,false,z,true,false,0.0-2.0-0.16-0.149-3.149,0,1,0,68,false,stim,false,1,755.5,1,1,1,24779,task2,732291,false,false,631,image-keyboard-response,19
true,5,2,2,1,false,z,false,false,0.0-2.0-0.16-0.150-3.150,0,1,0,68,false,stim,true,2,1296.300000011921,1,0,0,24779,task2,735092,false,false,634,image-keyboard-response,20
true,5,1,2,1,true,z,false,true,0.0-2.0-0.16-0.151-3.151,0,1,0,90,false,stim,false,1,1303.7000000178814,1,1,1,24779,task2,737899,false,false,637,image-keyboard-response,21
true,5,1,2,2,false,d,false,false,0.0-2.0-0.16-0.152-3.152,0,1,0,90,false,stim,true,1,1125.2000000178814,1,0,2,24779,task2,740532,false,false,640,image-keyboard-response,22
true,5,0,2,2,false,d,true,true,0.0-2.0-0.17-0.153-3.153,0,1,0,81,false,stim,false,1,1094.7000000178814,1,0,2,24779,task2,743131,false,true,643,image-keyboard-response,23
true,5,0,2,2,false,d,true,false,0.0-2.0-0.17-0.154-3.154,0,1,0,81,false,stim,false,1,887.7999999821186,1,0,2,24779,task2,745523,false,false,646,image-keyboard-response,24
true,5,1,2,1,true,z,false,true,0.0-2.0-0.17-0.155-3.155,0,1,0,90,false,stim,false,1,1688.0,1,1,1,24779,task2,748715,false,false,649,image-keyboard-response,25
true,5,2,2,1,false,z,false,false,0.0-2.0-0.17-0.156-3.156,0,1,0,68,false,stim,true,2,2175.9000000059605,1,0,0,24779,task2,752395,false,false,652,image-keyboard-response,26
true,5,1,2,1,true,z,false,true,0.0-2.0-0.17-0.157-3.157,0,1,0,90,false,stim,false,1,997.4000000059605,1,1,1,24779,task2,754899,false,false,655,image-keyboard-response,27
true,5,1,2,1,true,z,false,true,0.0-2.0-0.17-0.158-3.158,0,1,0,90,false,stim,false,2,621.4000000059605,1,0,0,24779,task2,757027,false,false,658,image-keyboard-response,28
true,5,1,2,1,true,z,false,true,0.0-2.0-0.17-0.159-3.159,0,1,0,90,false,stim,false,1,758.6999999880791,1,0,1,24779,task2,759291,false,false,661,image-keyboard-response,29
true,5,1,2,1,true,z,false,true,0.0-2.0-0.17-0.160-3.160,0,1,0,90,false,stim,false,2,615.2000000178814,1,0,0,24779,task2,761411,false,false,664,image-keyboard-response,30
true,5,0,2,2,false,d,true,false,0.0-2.0-0.17-0.161-3.161,0,1,0,81,false,stim,false,1,1111.5,1,1,2,24779,task2,764027,false,false,667,image-keyboard-response,31
true,5,1,2,1,true,z,false,true,0.0-2.0-0.18-0.162-3.162,0,1,0,90,false,stim,false,2,912.0999999940395,1,0,0,24779,task2,766443,false,false,670,image-keyboard-response,32
true,6,1,2,2,false,d,true,false,0.0-2.0-0.18-0.163-3.163,0,0,1,90,true,stim,false,2,581.5,1,1,2,24779,task2,768531,false,false,673,image-keyboard-response,1
true,6,1,2,0,false,q,false,false,0.0-2.0-0.18-0.164-3.164,0,0,1,90,false,stim,true,1,885.7000000178814,1,0,1,24779,task2,770922,false,false,676,image-keyboard-response,2
true,6,2,2,0,false,q,true,true,0.0-2.0-0.18-0.165-3.165,0,0,1,68,false,stim,false,1,979.0,1,0,1,24779,task2,773411,false,true,679,image-keyboard-response,3
true,6,1,2,2,false,d,true,false,0.0-2.0-0.18-0.166-3.166,0,0,1,90,false,stim,false,2,1239.5999999940395,1,1,2,24779,task2,776154,false,false,682,image-keyboard-response,4
true,6,0,2,2,false,d,true,false,0.0-2.0-0.18-0.167-3.167,0,0,1,81,false,stim,false,2,1193.0999999940395,1,1,2,24779,task2,778851,false,false,685,image-keyboard-response,5
true,6,0,2,2,false,d,true,false,0.0-2.0-0.18-0.168-3.168,0,0,1,81,false,stim,false,1,1535.800000011921,1,0,0,24779,task2,781890,false,false,688,image-keyboard-response,6
true,6,1,2,2,false,d,false,false,0.0-2.0-0.18-0.169-3.169,0,0,1,90,false,stim,true,1,608.5999999940395,1,0,0,24779,task2,784002,false,false,691,image-keyboard-response,7
true,6,2,2,0,false,q,true,false,0.0-2.0-0.18-0.170-3.170,0,0,1,68,false,stim,false,1,853.0999999940395,1,0,1,24779,task2,786362,false,false,694,image-keyboard-response,8
true,6,0,2,2,false,d,true,false,0.0-2.0-0.19-0.171-3.171,0,0,1,81,false,stim,false,2,701.2000000178814,1,1,2,24779,task2,788571,false,false,697,image-keyboard-response,9
true,6,1,2,2,false,d,true,false,0.0-2.0-0.19-0.172-3.172,0,0,1,90,false,stim,false,2,680.0999999940395,1,1,2,24779,task2,790754,false,false,700,image-keyboard-response,10
true,6,2,2,2,true,d,false,true,0.0-2.0-0.19-0.173-3.173,0,0,1,68,false,stim,false,2,1626.7000000178814,1,1,2,24779,task2,793890,false,false,703,image-keyboard-response,11
true,6,1,2,2,false,d,false,false,0.0-2.0-0.19-0.174-3.174,0,0,1,90,false,stim,true,1,2237.7999999821186,1,0,0,24779,task2,797636,false,false,706,image-keyboard-response,12
true,6,1,2,0,false,q,false,false,0.0-2.0-0.19-0.175-3.175,0,0,1,90,false,stim,true,1,1854.9000000059605,1,0,1,24779,task2,800996,false,false,709,image-keyboard-response,13
true,6,0,2,0,true,q,false,true,0.0-2.0-0.19-0.176-3.176,0,0,1,81,false,stim,false,1,704.2999999821186,1,0,1,24779,task2,803204,false,false,712,image-keyboard-response,14
true,6,0,2,0,true,q,false,true,0.0-2.0-0.19-0.177-3.177,0,0,1,81,false,stim,false,1,1335.7999999821186,1,0,1,24779,task2,806044,false,false,715,image-keyboard-response,15
true,6,2,2,2,true,d,false,true,0.0-2.0-0.19-0.178-3.178,0,0,1,68,false,stim,false,1,1048.0999999940395,1,0,0,24779,task2,808596,false,false,718,image-keyboard-response,16
true,6,2,2,2,true,d,false,true,0.0-2.0-0.19-0.179-3.179,0,0,1,68,false,stim,false,1,1320.300000011921,1,0,0,24779,task2,811420,false,false,721,image-keyboard-response,17
true,6,1,2,2,false,d,true,false,0.0-2.0-0.20-0.180-3.180,0,0,1,90,false,stim,false,2,2065.0999999940395,1,1,2,24779,task2,814996,false,false,724,image-keyboard-response,18
true,6,2,2,0,false,q,true,false,0.0-2.0-0.20-0.181-3.181,0,0,1,68,false,stim,false,1,944.5999999940395,1,0,1,24779,task2,817444,false,false,727,image-keyboard-response,19
true,6,2,2,2,true,d,false,true,0.0-2.0-0.20-0.182-3.182,0,0,1,68,false,stim,false,2,1024.2000000178814,1,1,2,24779,task2,819972,false,false,730,image-keyboard-response,20
true,6,0,2,2,false,d,true,false,0.0-2.0-0.20-0.183-3.183,0,0,1,81,false,stim,false,1,1509.5,1,0,0,24779,task2,822988,false,false,733,image-keyboard-response,21
true,6,1,2,2,false,d,false,false,0.0-2.0-0.20-0.184-3.184,0,0,1,90,false,stim,true,1,801.1999999880791,1,0,0,24779,task2,825300,false,false,736,image-keyboard-response,22
true,6,2,2,0,false,q,true,false,0.0-2.0-0.20-0.185-3.185,0,0,1,68,false,stim,false,1,1141.9000000059605,1,0,1,24779,task2,827948,false,false,739,image-keyboard-response,23
true,6,0,2,0,true,q,false,true,0.0-2.0-0.20-0.186-3.186,0,0,1,81,false,stim,false,1,1816.0999999940395,1,0,1,24779,task2,831267,false,false,742,image-keyboard-response,24
true,6,2,2,2,true,d,false,true,0.0-2.0-0.20-0.187-3.187,0,0,1,68,false,stim,false,2,2098.0999999940395,1,1,2,24779,task2,834876,false,false,745,image-keyboard-response,25
true,6,1,2,2,false,d,false,false,0.0-2.0-0.20-0.188-3.188,0,0,1,90,false,stim,true,1,2264.0,1,0,0,24779,task2,838643,false,false,748,image-keyboard-response,26
true,6,2,2,0,false,q,true,false,0.0-2.0-0.21-0.189-3.189,0,0,1,68,false,stim,false,1,1183.5999999940395,1,0,1,24779,task2,841331,false,false,751,image-keyboard-response,27
true,6,2,2,2,true,d,false,true,0.0-2.0-0.21-0.190-3.190,0,0,1,68,false,stim,false,1,1735.8999999761581,1,0,0,24779,task2,844571,false,false,754,image-keyboard-response,28
true,6,2,2,2,true,d,false,false,0.0-2.0-0.21-0.191-3.191,0,0,1,68,false,stim,false,1,855.2000000178814,1,0,0,24779,task2,846931,false,true,757,image-keyboard-response,29
true,6,2,2,2,true,d,false,true,0.0-2.0-0.21-0.192-3.192,0,0,1,68,false,stim,false,2,2390.2000000178814,1,1,2,24779,task2,850829,false,false,760,image-keyboard-response,30
true,6,0,2,0,true,q,false,true,0.0-2.0-0.21-0.193-3.193,0,0,1,81,false,stim,false,1,895.7999999821186,1,0,1,24779,task2,853229,false,false,763,image-keyboard-response,31
true,6,0,2,2,false,d,true,false,0.0-2.0-0.21-0.194-3.194,0,0,1,81,false,stim,false,1,2252.4000000059605,1,0,0,24779,task2,856989,false,false,766,image-keyboard-response,32
true,6,2,2,2,true,d,false,true,0.0-2.0-0.21-0.195-3.195,0,0,1,68,false,stim,false,2,839.8000000119209,1,1,2,24779,task2,859333,false,false,769,image-keyboard-response,33
true,6,0,2,0,true,q,false,true,0.0-2.0-0.21-0.196-3.196,0,0,1,81,false,stim,false,1,1288.0,1,0,1,24779,task2,862125,false,false,772,image-keyboard-response,34
true,6,2,2,2,true,d,false,true,0.0-2.0-0.21-0.197-3.197,0,0,1,68,false,stim,false,2,1112.4000000059605,1,1,2,24779,task2,864741,false,false,775,image-keyboard-response,35
true,7,2,2,2,true,d,false,true,0.0-2.0-0.22-0.198-3.198,0,0,1,68,true,stim,false,2,896.5999999940395,1,1,2,24779,task2,867141,false,false,778,image-keyboard-response,1
true,7,2,2,2,true,d,false,true,0.0-2.0-0.22-0.199-3.199,0,0,1,68,false,stim,false,2,680.0999999940395,1,1,2,24779,task2,869325,false,false,781,image-keyboard-response,2
true,7,0,2,1,false,z,false,false,0.0-2.0-0.22-0.200-3.200,0,0,1,81,false,stim,true,0,1023.3000000119209,1,0,1,24779,task2,871861,false,false,784,image-keyboard-response,3
true,7,1,2,2,false,d,true,true,0.0-2.0-0.22-0.201-3.201,0,0,1,90,false,stim,false,2,1560.4000000059605,1,1,2,24779,task2,874925,false,true,787,image-keyboard-response,4
true,7,0,2,0,true,q,false,true,0.0-2.0-0.22-0.202-3.202,0,0,1,81,false,stim,false,2,2711.699999988079,1,0,0,24779,task2,879141,false,false,790,image-keyboard-response,5
false,7,-1,2,1,false,z,true,false,0.0-2.0-0.22-0.203-3.203,0,0,1,,false,stim,false,0,,1,0,1,24779,task2,883652,false,false,793,image-keyboard-response,6
true,7,1,2,1,true,z,false,true,0.0-2.0-0.22-0.204-3.204,0,0,1,90,false,stim,false,0,116.19999998807907,1,0,1,24779,task2,885272,false,false,796,image-keyboard-response,7
true,7,1,2,0,false,q,true,false,0.0-2.0-0.22-0.205-3.205,0,0,1,90,false,stim,false,2,1607.5,1,0,0,24779,task2,888383,false,false,799,image-keyboard-response,8
true,7,2,2,0,false,q,false,false,0.0-2.0-0.22-0.206-3.206,0,0,1,68,false,stim,true,2,750.0,1,0,0,24779,task2,890637,false,false,802,image-keyboard-response,9
true,7,2,2,1,false,z,true,false,0.0-2.0-0.23-0.207-3.207,0,0,1,68,false,stim,false,0,1326.5999999940395,1,0,1,24779,task2,893467,false,false,805,image-keyboard-response,10
true,7,0,2,0,true,q,false,false,0.0-2.0-0.23-0.208-3.208,0,0,1,81,false,stim,false,2,1071.300000011921,1,0,0,24779,task2,896042,false,true,808,image-keyboard-response,11
true,7,2,2,2,true,d,false,true,0.0-2.0-0.23-0.209-3.209,0,0,1,68,false,stim,false,2,1423.699999988079,1,1,2,24779,task2,898968,false,false,811,image-keyboard-response,12
true,7,2,2,2,true,d,false,true,0.0-2.0-0.23-0.210-3.210,0,0,1,68,false,stim,false,2,1125.0,1,1,2,24779,task2,901600,false,false,814,image-keyboard-response,13
true,7,2,2,2,true,d,false,true,0.0-2.0-0.23-0.211-3.211,0,0,1,68,false,stim,false,2,447.40000000596046,1,1,2,24779,task2,903551,false,false,817,image-keyboard-response,14
true,7,1,2,1,true,z,false,false,0.0-2.0-0.23-0.212-3.212,0,0,1,90,false,stim,false,0,1323.800000011921,1,0,1,24779,task2,906382,false,true,820,image-keyboard-response,15
true,7,1,2,0,false,q,true,false,0.0-2.0-0.23-0.213-3.213,0,0,1,90,false,stim,false,2,1759.3999999761581,1,0,0,24779,task2,909645,false,false,823,image-keyboard-response,16
true,7,0,2,1,false,z,false,false,0.0-2.0-0.23-0.214-3.214,0,0,1,81,false,stim,true,0,2272.5,1,0,1,24779,task2,913420,false,false,826,image-keyboard-response,17
true,7,1,2,0,false,q,true,false,0.0-2.0-0.23-0.215-3.215,0,0,1,90,false,stim,false,2,1480.5999999940395,1,0,0,24779,task2,916404,false,false,829,image-keyboard-response,18
true,7,2,2,0,false,q,false,false,0.0-2.0-0.24-0.216-3.216,0,0,1,68,false,stim,true,2,1311.4000000059605,1,0,0,24779,task2,919219,false,false,832,image-keyboard-response,19
true,7,0,2,1,false,z,false,false,0.0-2.0-0.24-0.217-3.217,0,0,1,81,false,stim,true,0,1928.2999999821186,1,0,1,24779,task2,922651,false,false,835,image-keyboard-response,20
true,7,2,2,2,true,d,false,true,0.0-2.0-0.24-0.218-3.218,0,0,1,68,false,stim,false,2,1068.4000000059605,1,1,2,24779,task2,925227,false,false,838,image-keyboard-response,21
true,7,2,2,0,false,q,false,false,0.0-2.0-0.24-0.219-3.219,0,0,1,68,false,stim,true,2,1887.4000000059605,1,0,0,24779,task2,928618,false,false,841,image-keyboard-response,22
true,7,0,2,1,false,z,false,false,0.0-2.0-0.24-0.220-3.220,0,0,1,81,false,stim,true,0,1472.5,1,0,1,24779,task2,931594,false,false,844,image-keyboard-response,23
true,7,2,2,1,false,z,true,false,0.0-2.0-0.24-0.221-3.221,0,0,1,68,false,stim,false,0,1115.2999999821186,1,0,1,24779,task2,934218,false,false,847,image-keyboard-response,24
true,7,2,2,2,true,d,false,true,0.0-2.0-0.24-0.222-3.222,0,0,1,68,false,stim,false,2,1408.0,1,1,2,24779,task2,937130,false,false,850,image-keyboard-response,25
true,7,2,2,2,true,d,false,true,0.0-2.0-0.24-0.223-3.223,0,0,1,68,false,stim,false,2,717.6999999880791,1,1,2,24779,task2,939354,false,false,853,image-keyboard-response,26
true,7,1,2,0,false,q,true,false,0.0-2.0-0.24-0.224-3.224,0,0,1,90,false,stim,false,2,1742.5,1,0,0,24779,task2,942601,false,false,856,image-keyboard-response,27
true,7,1,2,1,true,z,false,true,0.0-2.0-0.25-0.225-3.225,0,0,1,90,false,stim,false,0,1264.0,1,0,1,24779,task2,945369,false,false,859,image-keyboard-response,28
true,7,2,2,0,false,q,false,false,0.0-2.0-0.25-0.226-3.226,0,0,1,68,false,stim,true,2,1581.199999988079,1,0,0,24779,task2,948458,false,false,862,image-keyboard-response,29
true,7,0,2,0,true,q,false,true,0.0-2.0-0.25-0.227-3.227,0,0,1,81,false,stim,false,2,1767.4000000059605,1,0,0,24779,task2,951729,false,false,865,image-keyboard-response,30
true,7,2,2,2,true,d,false,true,0.0-2.0-0.25-0.228-3.228,0,0,1,68,false,stim,false,2,952.4000000059605,1,0,2,24779,task2,954185,false,false,868,image-keyboard-response,31
true,7,1,2,0,false,q,true,false,0.0-2.0-0.25-0.229-3.229,0,0,1,90,false,stim,false,2,1038.699999988079,1,0,0,24779,task2,956728,false,false,871,image-keyboard-response,32
true,7,0,2,1,false,z,false,false,0.0-2.0-0.25-0.230-3.230,0,0,1,81,false,stim,true,0,1224.0,1,0,1,24779,task2,959457,false,false,874,image-keyboard-response,33
true,7,2,2,2,true,d,false,true,0.0-2.0-0.25-0.231-3.231,0,0,1,68,false,stim,false,2,925.1000000238419,1,0,2,24779,task2,961888,false,false,877,image-keyboard-response,34
true,8,0,1,0,true,q,false,true,0.0-2.0-0.25-0.232-3.232,0,0,0,81,true,stim,false,1,2459.0,1,0,1,24779,task2,965856,false,false,880,image-keyboard-response,1
true,8,2,1,1,false,z,false,false,0.0-2.0-0.25-0.233-3.233,0,0,0,68,false,stim,true,2,1486.5999999940395,1,0,2,24779,task2,968848,false,false,883,image-keyboard-response,2
true,8,0,1,2,false,d,false,false,0.0-2.0-0.26-0.234-3.234,0,0,0,81,false,stim,true,0,2330.9000000059605,1,0,0,24779,task2,972688,false,false,886,image-keyboard-response,3
false,8,-1,1,1,false,z,true,false,0.0-2.0-0.26-0.235-3.235,0,0,0,,false,stim,false,2,,1,0,2,24779,task2,977196,false,false,889,image-keyboard-response,4
true,8,1,1,1,true,z,false,true,0.0-2.0-0.26-0.236-3.236,0,0,0,90,false,stim,false,2,736.6999999880791,1,0,2,24779,task2,979440,false,false,892,image-keyboard-response,5
true,8,1,1,0,false,q,false,false,0.0-2.0-0.26-0.237-3.237,0,0,0,90,false,stim,true,1,1236.800000011921,1,0,1,24779,task2,982184,false,false,895,image-keyboard-response,6
true,8,2,1,1,false,z,false,false,0.0-2.0-0.26-0.238-3.238,0,0,0,68,false,stim,true,2,816.3000000119209,1,0,2,24779,task2,984504,false,false,898,image-keyboard-response,7
true,8,0,1,2,false,d,false,true,0.0-2.0-0.26-0.239-3.239,0,0,0,81,false,stim,true,0,1205.5999999940395,1,0,0,24779,task2,987216,false,true,901,image-keyboard-response,8
true,8,1,1,0,false,q,false,false,0.0-2.0-0.26-0.240-3.240,0,0,0,90,false,stim,true,1,2332.699999988079,1,0,1,24779,task2,991055,false,false,904,image-keyboard-response,9
true,8,1,1,0,false,q,false,false,0.0-2.0-0.26-0.241-3.241,0,0,0,90,false,stim,true,1,1252.800000011921,1,0,1,24779,task2,993815,false,false,907,image-keyboard-response,10
true,8,0,1,2,false,d,false,false,0.0-2.0-0.26-0.242-3.242,0,0,0,81,false,stim,true,0,1149.8999999761581,1,0,0,24779,task2,996472,false,false,910,image-keyboard-response,11
true,8,0,1,2,false,d,false,false,0.0-2.0-0.27-0.243-3.243,0,0,0,81,false,stim,true,0,1399.0,1,0,0,24779,task2,999375,false,false,913,image-keyboard-response,12
true,8,2,1,1,false,z,false,false,0.0-2.0-0.27-0.244-3.244,0,0,0,68,false,stim,true,2,1631.5999999940395,1,0,2,24779,task2,1002519,false,false,916,image-keyboard-response,13
true,8,0,1,1,false,z,true,false,0.0-2.0-0.27-0.245-3.245,0,0,0,81,false,stim,false,2,941.5,1,0,2,24779,task2,1004967,false,false,919,image-keyboard-response,14
true,8,1,1,2,false,d,true,false,0.0-2.0-0.27-0.246-3.246,0,0,0,90,false,stim,false,0,1820.4000000059605,1,0,0,24779,task2,1008295,false,false,922,image-keyboard-response,15
true,8,0,1,1,false,z,true,false,0.0-2.0-0.27-0.247-3.247,0,0,0,81,false,stim,false,2,1170.699999988079,1,0,2,24779,task2,1010975,false,false,925,image-keyboard-response,16
true,8,2,1,2,true,d,false,false,0.0-2.0-0.27-0.248-3.248,0,0,0,68,false,stim,false,0,1360.7999999821186,1,0,0,24779,task2,1013839,false,true,928,image-keyboard-response,17
true,8,0,1,0,true,q,false,true,0.0-2.0-0.27-0.249-3.249,0,0,0,81,false,stim,false,1,813.5999999940395,1,0,1,24779,task2,1016158,false,false,931,image-keyboard-response,18
true,8,0,1,0,true,q,false,true,0.0-2.0-0.27-0.250-3.250,0,0,0,81,false,stim,false,1,957.2000000178814,1,0,1,24779,task2,1018623,false,false,934,image-keyboard-response,19
true,8,0,1,0,true,q,false,true,0.0-2.0-0.27-0.251-3.251,0,0,0,81,false,stim,false,1,764.5,1,0,1,24779,task2,1020894,false,false,937,image-keyboard-response,20
true,8,0,1,1,false,z,true,false,0.0-2.0-0.28-0.252-3.252,0,0,0,81,false,stim,false,2,1152.0,1,0,2,24779,task2,1023550,false,false,940,image-keyboard-response,21
true,8,1,1,1,true,z,false,true,0.0-2.0-0.28-0.253-3.253,0,0,0,90,false,stim,false,2,871.6999999880791,1,0,2,24779,task2,1025926,false,false,943,image-keyboard-response,22
true,8,2,1,2,true,d,false,true,0.0-2.0-0.28-0.254-3.254,0,0,0,68,false,stim,false,0,2267.2000000178814,1,0,0,24779,task2,1029702,false,false,946,image-keyboard-response,23
true,8,1,1,0,false,q,false,false,0.0-2.0-0.28-0.255-3.255,0,0,0,90,false,stim,true,1,1076.699999988079,1,0,1,24779,task2,1032286,false,false,949,image-keyboard-response,24
true,8,1,1,2,false,d,true,false,0.0-2.0-0.28-0.256-3.256,0,0,0,90,false,stim,false,0,1416.0,1,0,0,24779,task2,1035206,false,false,952,image-keyboard-response,25
true,8,0,1,0,true,q,false,true,0.0-2.0-0.28-0.257-3.257,0,0,0,81,false,stim,false,1,1039.5,1,0,1,24779,task2,1037750,false,false,955,image-keyboard-response,26
true,8,2,1,1,false,z,false,false,0.0-2.0-0.28-0.258-3.258,0,0,0,68,false,stim,true,2,592.5,1,0,2,24779,task2,1039846,false,false,958,image-keyboard-response,27
true,8,2,1,2,true,d,false,true,0.0-2.0-0.28-0.259-3.259,0,0,0,68,false,stim,false,0,1743.0,1,0,0,24779,task2,1043094,false,false,961,image-keyboard-response,28
true,8,1,1,0,false,q,false,false,0.0-2.0-0.28-0.260-3.260,0,0,0,90,false,stim,true,1,1157.9000000059605,1,0,1,24779,task2,1045757,false,false,964,image-keyboard-response,29
true,8,1,1,1,true,z,false,true,0.0-2.0-0.29-0.261-3.261,0,0,0,90,false,stim,false,2,2436.5,1,0,2,24779,task2,1049701,false,false,967,image-keyboard-response,30
true,8,0,1,2,false,d,false,false,0.0-2.0-0.29-0.262-3.262,0,0,0,81,false,stim,true,0,1277.2000000178814,1,0,0,24779,task2,1052486,false,false,970,image-keyboard-response,31
true,8,1,1,0,false,q,false,false,0.0-2.0-0.29-0.263-3.263,0,0,0,90,false,stim,true,1,1326.7000000178814,1,0,1,24779,task2,1055317,false,false,973,image-keyboard-response,32
true,8,2,1,1,false,z,false,false,0.0-2.0-0.29-0.264-3.264,0,0,0,68,false,stim,true,2,1311.5999999940395,1,0,2,24779,task2,1058133,false,false,976,image-keyboard-response,33
true,8,1,1,2,false,d,true,false,0.0-2.0-0.29-0.265-3.265,0,0,0,90,false,stim,false,0,1735.300000011921,1,0,0,24779,task2,1061373,false,false,979,image-keyboard-response,34
true,9,1,1,2,false,d,true,false,0.0-2.0-0.29-0.266-3.266,0,0,0,90,true,stim,false,0,1270.6000000238419,1,0,1,24779,task2,1064149,false,false,982,image-keyboard-response,1
true,9,2,1,2,true,d,false,true,0.0-2.0-0.29-0.267-3.267,0,0,0,68,false,stim,false,1,879.5999999940395,1,0,2,24779,task2,1066533,false,false,985,image-keyboard-response,2
true,9,1,1,0,false,q,true,false,0.0-2.0-0.29-0.268-3.268,0,0,0,90,false,stim,false,2,2183.800000011921,1,0,0,24779,task2,1070221,false,false,988,image-keyboard-response,3
true,9,0,1,2,false,d,false,false,0.0-2.0-0.29-0.269-3.269,0,0,0,81,false,stim,true,0,799.5,1,0,1,24779,task2,1072525,false,false,991,image-keyboard-response,4
true,9,1,1,2,false,d,true,false,0.0-2.0-0.30-0.270-3.270,0,0,0,90,false,stim,false,0,1125.300000011921,1,0,1,24779,task2,1075157,false,false,994,image-keyboard-response,5
true,9,2,1,2,true,d,false,true,0.0-2.0-0.30-0.271-3.271,0,0,0,68,false,stim,false,1,1243.5,1,0,2,24779,task2,1077908,false,false,997,image-keyboard-response,6
true,9,0,1,2,false,d,false,false,0.0-2.0-0.30-0.272-3.272,0,0,0,81,false,stim,true,0,1351.300000011921,1,0,1,24779,task2,1080764,false,false,1000,image-keyboard-response,7
true,9,2,1,2,true,d,false,true,0.0-2.0-0.30-0.273-3.273,0,0,0,68,false,stim,false,1,1010.9000000059605,1,0,2,24779,task2,1083284,false,false,1003,image-keyboard-response,8
true,9,0,1,0,true,q,false,true,0.0-2.0-0.30-0.274-3.274,0,0,0,81,false,stim,false,2,2148.0999999940395,1,0,0,24779,task2,1086940,false,false,1006,image-keyboard-response,9
true,9,2,1,2,true,d,false,false,0.0-2.0-0.30-0.275-3.275,0,0,0,68,false,stim,false,1,1502.9000000059605,1,0,2,24779,task2,1089948,false,true,1009,image-keyboard-response,10
true,9,2,1,2,true,d,false,true,0.0-2.0-0.30-0.276-3.276,0,0,0,68,false,stim,false,0,2950.699999988079,1,0,1,24779,task2,1094404,false,false,1012,image-keyboard-response,11
true,9,1,1,0,false,q,true,false,0.0-2.0-0.30-0.277-3.277,0,0,0,90,false,stim,false,2,1772.0,1,0,0,24779,task2,1097684,false,false,1015,image-keyboard-response,12
true,9,0,1,0,true,q,false,true,0.0-2.0-0.30-0.278-3.278,0,0,0,81,false,stim,false,2,815.8999999761581,1,0,0,24779,task2,1100004,false,false,1018,image-keyboard-response,13
false,9,-1,1,2,false,d,true,false,0.0-2.0-0.31-0.279-3.279,0,0,0,,false,stim,false,0,,1,0,1,24779,task2,1104508,false,false,1021,image-keyboard-response,14
true,9,2,1,0,false,q,false,false,0.0-2.0-0.31-0.280-3.280,0,0,0,68,false,stim,true,2,1265.0,1,0,0,24779,task2,1107281,false,false,1024,image-keyboard-response,15
true,9,1,1,2,false,d,false,false,0.0-2.0-0.31-0.281-3.281,0,0,0,90,false,stim,true,1,1095.5,1,0,2,24779,task2,1109881,false,false,1027,image-keyboard-response,16
true,9,2,1,2,true,d,false,true,0.0-2.0-0.31-0.282-3.282,0,0,0,68,false,stim,false,1,2482.300000011921,1,0,2,24779,task2,1113872,false,false,1030,image-keyboard-response,17
true,9,2,1,2,true,d,false,true,0.0-2.0-0.31-0.283-3.283,0,0,0,68,false,stim,false,1,1983.3999999761581,1,0,2,24779,task2,1117361,false,false,1033,image-keyboard-response,18
true,9,2,1,0,false,q,false,false,0.0-2.0-0.31-0.284-3.284,0,0,0,68,false,stim,true,2,1471.7000000178814,1,0,0,24779,task2,1120337,false,false,1036,image-keyboard-response,19
true,9,1,1,2,false,d,true,false,0.0-2.0-0.31-0.285-3.285,0,0,0,90,false,stim,false,0,1183.7000000178814,1,0,1,24779,task2,1123024,false,false,1039,image-keyboard-response,20
true,9,1,1,2,false,d,true,false,0.0-2.0-0.31-0.286-3.286,0,0,0,90,false,stim,false,0,2527.300000011921,1,0,1,24779,task2,1127055,false,false,1042,image-keyboard-response,21
false,9,-1,1,0,false,q,true,true,0.0-2.0-0.31-0.287-3.287,0,0,0,,false,stim,false,2,,1,0,0,24779,task2,1131563,false,true,1045,image-keyboard-response,22
true,9,2,1,2,true,d,false,true,0.0-2.0-0.32-0.288-3.288,0,0,0,68,false,stim,false,1,826.4000000059605,1,0,2,24779,task2,1133894,false,false,1048,image-keyboard-response,23
true,9,0,1,2,false,d,false,true,0.0-2.0-0.32-0.289-3.289,0,0,0,81,false,stim,true,0,1125.800000011921,1,0,1,24779,task2,1136526,false,true,1051,image-keyboard-response,24
true,9,1,1,0,false,q,true,false,0.0-2.0-0.32-0.290-3.290,0,0,0,90,false,stim,false,2,1367.5999999940395,1,0,0,24779,task2,1139398,false,false,1054,image-keyboard-response,25
true,9,2,1,2,true,d,false,false,0.0-2.0-0.32-0.291-3.291,0,0,0,68,false,stim,false,1,703.5999999940395,1,0,2,24779,task2,1141606,false,true,1057,image-keyboard-response,26
true,9,2,1,0,false,q,false,false,0.0-2.0-0.32-0.292-3.292,0,0,0,68,false,stim,true,2,1270.0999999940395,1,0,0,24779,task2,1144382,false,false,1060,image-keyboard-response,27
true,9,0,1,2,false,d,false,false,0.0-2.0-0.32-0.293-3.293,0,0,0,81,false,stim,true,0,751.5999999940395,1,0,1,24779,task2,1146638,false,false,1063,image-keyboard-response,28
true,9,2,1,2,true,d,false,true,0.0-2.0-0.32-0.294-3.294,0,0,0,68,false,stim,false,1,943.4000000059605,1,0,2,24779,task2,1149086,false,false,1066,image-keyboard-response,29
true,9,1,1,0,false,q,true,false,0.0-2.0-0.32-0.295-3.295,0,0,0,90,false,stim,false,2,1264.0999999940395,1,0,0,24779,task2,1151854,false,false,1069,image-keyboard-response,30
true,9,0,1,2,false,d,false,true,0.0-2.0-0.32-0.296-3.296,0,0,0,81,false,stim,true,0,1316.699999988079,1,0,1,24779,task2,1154678,false,true,1072,image-keyboard-response,31
true,9,0,1,0,true,q,false,true,0.0-2.0-0.33-0.297-3.297,0,0,0,81,false,stim,false,2,1840.7000000178814,1,0,0,24779,task2,1158029,false,false,1075,image-keyboard-response,32
true,9,0,1,0,true,q,false,true,0.0-2.0-0.33-0.298-3.298,0,0,0,81,false,stim,false,2,599.2999999821186,1,0,0,24779,task2,1160133,false,false,1078,image-keyboard-response,33
true,9,2,1,2,true,d,false,true,0.0-2.0-0.33-0.299-3.299,0,0,0,68,false,stim,false,1,843.0,1,0,2,24779,task2,1162485,false,false,1081,image-keyboard-response,34
true,10,2,1,1,false,z,false,false,0.0-2.0-0.33-0.300-3.300,0,0,0,68,true,stim,true,2,790.3000000119209,1,0,2,24779,task2,1164781,false,false,1084,image-keyboard-response,1
true,10,0,1,1,false,z,false,false,0.0-2.0-0.33-0.301-3.301,0,0,0,81,false,stim,true,0,975.1999999880791,1,0,0,24779,task2,1167261,false,false,1087,image-keyboard-response,2
true,10,0,1,0,true,q,false,true,0.0-2.0-0.33-0.302-3.302,0,0,0,81,false,stim,false,2,1048.4000000059605,1,0,1,24779,task2,1169813,false,false,1090,image-keyboard-response,3
true,10,2,1,1,false,z,false,true,0.0-2.0-0.33-0.303-3.303,0,0,0,68,false,stim,true,2,716.9000000059605,1,0,2,24779,task2,1172037,false,true,1093,image-keyboard-response,4
true,10,1,1,0,false,q,true,false,0.0-2.0-0.33-0.304-3.304,0,0,0,90,false,stim,false,2,1958.9000000059605,1,0,1,24779,task2,1175501,false,false,1096,image-keyboard-response,5
true,10,0,1,0,true,q,false,true,0.0-2.0-0.33-0.305-3.305,0,0,0,81,false,stim,false,2,1407.2999999821186,1,0,1,24779,task2,1178413,false,false,1099,image-keyboard-response,6
true,10,0,1,0,true,q,false,false,0.0-2.0-0.34-0.306-3.306,0,0,0,81,false,stim,false,2,863.7000000178814,1,0,1,24779,task2,1180789,false,true,1102,image-keyboard-response,7
true,10,0,1,0,true,q,false,true,0.0-2.0-0.34-0.307-3.307,0,0,0,81,false,stim,false,2,707.7000000178814,1,0,1,24779,task2,1183004,false,false,1105,image-keyboard-response,8
true,10,0,1,0,true,q,false,true,0.0-2.0-0.34-0.308-3.308,0,0,0,81,false,stim,false,2,711.6000000238419,1,0,1,24779,task2,1185220,false,false,1108,image-keyboard-response,9
true,10,2,1,1,false,z,true,false,0.0-2.0-0.34-0.309-3.309,0,0,0,68,false,stim,false,0,2247.800000011921,1,0,0,24779,task2,1188973,false,false,1111,image-keyboard-response,10
true,10,1,1,1,true,z,false,true,0.0-2.0-0.34-0.310-3.310,0,0,0,90,false,stim,false,0,998.5,1,0,0,24779,task2,1191476,false,false,1114,image-keyboard-response,11
true,10,2,1,1,false,z,false,false,0.0-2.0-0.34-0.311-3.311,0,0,0,68,false,stim,true,2,1329.8999999761581,1,0,2,24779,task2,1194316,false,false,1117,image-keyboard-response,12
true,10,1,1,1,true,z,false,false,0.0-2.0-0.34-0.312-3.312,0,0,0,90,false,stim,false,0,1602.5,1,0,0,24779,task2,1197428,false,true,1120,image-keyboard-response,13
true,10,1,1,1,true,z,false,true,0.0-2.0-0.34-0.313-3.313,0,0,0,90,false,stim,false,2,1447.8999999761581,1,0,2,24779,task2,1200380,false,false,1123,image-keyboard-response,14
true,10,1,1,1,true,z,false,true,0.0-2.0-0.34-0.314-3.314,0,0,0,90,false,stim,false,2,855.7000000178814,1,0,2,24779,task2,1202740,false,false,1126,image-keyboard-response,15
true,10,0,1,1,false,z,false,false,0.0-2.0-0.35-0.315-3.315,0,0,0,81,false,stim,true,0,925.5,1,0,0,24779,task2,1205172,false,false,1129,image-keyboard-response,16
true,10,1,1,1,true,z,false,true,0.0-2.0-0.35-0.316-3.316,0,0,0,90,false,stim,false,2,902.5999999940395,1,0,2,24779,task2,1207580,false,false,1132,image-keyboard-response,17
true,10,2,1,1,false,z,true,false,0.0-2.0-0.35-0.317-3.317,0,0,0,68,false,stim,false,0,1509.5999999940395,1,0,0,24779,task2,1210596,false,false,1135,image-keyboard-response,18
true,10,0,1,0,true,q,false,true,0.0-2.0-0.35-0.318-3.318,0,0,0,81,false,stim,false,2,1639.6000000238419,1,0,1,24779,task2,1213739,false,false,1138,image-keyboard-response,19
true,10,0,1,0,true,q,false,true,0.0-2.0-0.35-0.319-3.319,0,0,0,81,false,stim,false,2,757.5,1,0,1,24779,task2,1216003,false,false,1141,image-keyboard-response,20
true,10,1,1,1,true,z,false,true,0.0-2.0-0.35-0.320-3.320,0,0,0,90,false,stim,false,2,2060.7000000178814,1,0,2,24779,task2,1219571,false,false,1144,image-keyboard-response,21
true,10,0,1,0,true,q,false,true,0.0-2.0-0.35-0.321-3.321,0,0,0,81,false,stim,false,2,992.0,1,0,1,24779,task2,1222068,false,false,1147,image-keyboard-response,22
true,10,1,1,1,true,z,false,true,0.0-2.0-0.35-0.322-3.322,0,0,0,90,false,stim,false,0,1591.6000000238419,1,0,0,24779,task2,1225163,false,false,1150,image-keyboard-response,23
true,10,1,1,1,true,z,false,true,0.0-2.0-0.35-0.323-3.323,0,0,0,90,false,stim,false,2,1373.3999999761581,1,0,2,24779,task2,1228043,false,false,1153,image-keyboard-response,24
true,10,1,1,1,true,z,false,true,0.0-2.0-0.36-0.324-3.324,0,0,0,90,false,stim,false,2,684.4000000059605,1,0,2,24779,task2,1230235,false,false,1156,image-keyboard-response,25
true,10,0,1,0,true,q,false,true,0.0-2.0-0.36-0.325-3.325,0,0,0,81,false,stim,false,2,863.8000000119209,1,0,1,24779,task2,1232603,false,false,1159,image-keyboard-response,26
true,10,0,1,0,true,q,false,true,0.0-2.0-0.36-0.326-3.326,0,0,0,81,false,stim,false,2,828.8000000119209,1,0,1,24779,task2,1234939,false,false,1162,image-keyboard-response,27
true,10,1,1,1,true,z,false,true,0.0-2.0-0.36-0.327-3.327,0,0,0,90,false,stim,false,2,1343.7000000178814,1,0,2,24779,task2,1237787,false,false,1165,image-keyboard-response,28
true,10,1,1,0,false,q,true,false,0.0-2.0-0.36-0.328-3.328,0,0,0,90,false,stim,false,2,650.9000000059605,1,0,1,24779,task2,1239946,false,false,1168,image-keyboard-response,29
true,10,1,1,1,true,z,false,true,0.0-2.0-0.36-0.329-3.329,0,0,0,90,false,stim,false,0,1158.9000000059605,1,0,0,24779,task2,1242611,false,false,1171,image-keyboard-response,30
true,10,1,1,1,true,z,false,true,0.0-2.0-0.36-0.330-3.330,0,0,0,90,false,stim,false,0,912.5,1,0,0,24779,task2,1245026,false,false,1174,image-keyboard-response,31
true,10,1,1,1,true,z,false,true,0.0-2.0-0.36-0.331-3.331,0,0,0,90,false,stim,false,0,525.5999999940395,1,0,0,24779,task2,1247058,false,false,1177,image-keyboard-response,32
true,10,2,1,1,false,z,false,false,0.0-2.0-0.36-0.332-3.332,0,0,0,68,false,stim,true,2,1510.5999999940395,1,0,2,24779,task2,1250074,false,false,1180,image-keyboard-response,33
true,10,0,1,1,false,z,true,true,0.0-2.0-0.37-0.333-3.333,0,0,0,81,false,stim,false,2,784.4000000059605,1,0,2,24779,task2,1252362,false,true,1183,image-keyboard-response,34
true,10,1,1,0,false,q,true,false,0.0-2.0-0.37-0.334-3.334,0,0,0,90,false,stim,false,2,1240.699999988079,1,0,1,24779,task2,1255106,false,false,1186,image-keyboard-response,35
true,11,1,1,2,false,d,false,false,0.0-2.0-0.37-0.335-3.335,0,0,0,90,true,stim,true,1,922.7999999821186,1,0,0,24779,task2,1257538,false,false,1189,image-keyboard-response,1
true,11,0,1,2,false,d,false,false,0.0-2.0-0.37-0.336-3.336,0,0,0,81,false,stim,true,0,1523.699999988079,1,0,1,24779,task2,1260570,false,false,1192,image-keyboard-response,2
true,11,1,1,2,false,d,false,false,0.0-2.0-0.37-0.337-3.337,0,0,0,90,false,stim,true,1,1198.6000000238419,1,0,0,24779,task2,1263274,false,false,1195,image-keyboard-response,3
true,11,2,1,2,true,d,false,true,0.0-2.0-0.37-0.338-3.338,0,0,0,68,false,stim,false,0,1903.800000011921,1,0,1,24779,task2,1266682,false,false,1198,image-keyboard-response,4
true,11,2,1,2,true,d,false,true,0.0-2.0-0.37-0.339-3.339,0,0,0,68,false,stim,false,1,2242.5,1,0,0,24779,task2,1270434,false,false,1201,image-keyboard-response,5
true,11,1,1,0,false,q,false,true,0.0-2.0-0.37-0.340-3.340,0,0,0,90,false,stim,true,1,1455.9000000059605,1,0,2,24779,task2,1273394,false,true,1204,image-keyboard-response,6
true,11,1,1,0,false,q,false,false,0.0-2.0-0.37-0.341-3.341,0,0,0,90,false,stim,true,1,851.0,1,0,2,24779,task2,1275754,false,false,1207,image-keyboard-response,7
true,11,1,1,0,false,q,false,false,0.0-2.0-0.38-0.342-3.342,0,0,0,90,false,stim,true,1,1896.9000000059605,1,0,2,24779,task2,1279154,false,false,1210,image-keyboard-response,8
true,11,2,1,2,true,d,false,true,0.0-2.0-0.38-0.343-3.343,0,0,0,68,false,stim,false,0,892.7999999821186,1,0,1,24779,task2,1281553,false,false,1213,image-keyboard-response,9
true,11,2,1,2,true,d,false,true,0.0-2.0-0.38-0.344-3.344,0,0,0,68,false,stim,false,0,939.2999999821186,1,0,1,24779,task2,1284001,false,false,1216,image-keyboard-response,10
true,11,0,1,2,false,d,true,false,0.0-2.0-0.38-0.345-3.345,0,0,0,81,false,stim,false,1,1054.0999999940395,1,0,0,24779,task2,1286561,false,false,1219,image-keyboard-response,11
true,11,2,1,2,true,d,false,true,0.0-2.0-0.38-0.346-3.346,0,0,0,68,false,stim,false,1,799.2000000178814,1,0,0,24779,task2,1288865,false,false,1222,image-keyboard-response,12
true,11,2,1,2,true,d,false,true,0.0-2.0-0.38-0.347-3.347,0,0,0,68,false,stim,false,1,991.5,1,0,0,24779,task2,1291362,false,false,1225,image-keyboard-response,13
true,11,2,1,0,false,q,true,false,0.0-2.0-0.38-0.348-3.348,0,0,0,68,false,stim,false,1,1340.199999988079,1,0,2,24779,task2,1294209,false,false,1228,image-keyboard-response,14
true,11,0,1,0,true,q,false,false,0.0-2.0-0.38-0.349-3.349,0,0,0,81,false,stim,false,1,621.3000000119209,1,0,2,24779,task2,1296337,false,true,1231,image-keyboard-response,15
true,11,2,1,2,true,d,false,true,0.0-2.0-0.38-0.350-3.350,0,0,0,68,false,stim,false,0,719.0999999940395,1,0,1,24779,task2,1298561,false,false,1234,image-keyboard-response,16
true,11,2,1,2,true,d,false,true,0.0-2.0-0.39-0.351-3.351,0,0,0,68,false,stim,false,0,1120.0,1,0,1,24779,task2,1301185,false,false,1237,image-keyboard-response,17
true,11,2,1,0,false,q,true,false,0.0-2.0-0.39-0.352-3.352,0,0,0,68,false,stim,false,1,940.4000000059605,1,0,2,24779,task2,1303633,false,false,1240,image-keyboard-response,18
true,11,1,1,2,false,d,false,true,0.0-2.0-0.39-0.353-3.353,0,0,0,90,false,stim,true,1,733.7999999821186,1,0,0,24779,task2,1305873,false,true,1243,image-keyboard-response,19
true,11,1,1,2,false,d,false,true,0.0-2.0-0.39-0.354-3.354,0,0,0,90,false,stim,true,1,828.8999999761581,1,0,0,24779,task2,1308209,false,true,1246,image-keyboard-response,20
true,11,2,1,0,false,q,true,false,0.0-2.0-0.39-0.355-3.355,0,0,0,68,false,stim,false,1,1044.699999988079,1,0,2,24779,task2,1310760,false,false,1249,image-keyboard-response,21
true,11,1,1,2,false,d,false,false,0.0-2.0-0.39-0.356-3.356,0,0,0,90,false,stim,true,1,896.5999999940395,1,0,0,24779,task2,1313160,false,false,1252,image-keyboard-response,22
true,11,2,1,2,true,d,false,true,0.0-2.0-0.39-0.357-3.357,0,0,0,68,false,stim,false,0,1096.800000011921,1,0,1,24779,task2,1315761,false,false,1255,image-keyboard-response,23
true,11,2,1,2,true,d,false,false,0.0-2.0-0.39-0.358-3.358,0,0,0,68,false,stim,false,0,606.9000000059605,1,0,1,24779,task2,1317872,false,true,1258,image-keyboard-response,24
true,11,0,1,0,true,q,false,true,0.0-2.0-0.39-0.359-3.359,0,0,0,81,false,stim,false,1,192.09999999403954,1,0,2,24779,task2,1319568,false,false,1261,image-keyboard-response,25
true,11,1,1,2,false,d,false,false,0.0-2.0-0.40-0.360-3.360,0,0,0,90,false,stim,true,1,1231.1000000238419,1,0,0,24779,task2,1322304,false,false,1264,image-keyboard-response,26
true,11,2,1,0,false,q,true,true,0.0-2.0-0.40-0.361-3.361,0,0,0,68,false,stim,false,1,1135.0999999940395,1,0,2,24779,task2,1324944,false,true,1267,image-keyboard-response,27
true,11,2,1,0,false,q,true,false,0.0-2.0-0.40-0.362-3.362,0,0,0,68,false,stim,false,1,912.2000000178814,1,0,2,24779,task2,1327360,false,false,1270,image-keyboard-response,28
true,11,0,1,0,true,q,false,true,0.0-2.0-0.40-0.363-3.363,0,0,0,81,false,stim,false,1,754.6999999880791,1,0,2,24779,task2,1329624,false,false,1273,image-keyboard-response,29
true,11,1,1,2,false,d,false,false,0.0-2.0-0.40-0.364-3.364,0,0,0,90,false,stim,true,1,1778.0,1,0,0,24779,task2,1332912,false,false,1276,image-keyboard-response,30
true,11,0,1,2,false,d,false,false,0.0-2.0-0.40-0.365-3.365,0,0,0,81,false,stim,true,0,984.3000000119209,1,0,1,24779,task2,1335400,false,false,1279,image-keyboard-response,31
true,11,2,1,2,true,d,false,true,0.0-2.0-0.40-0.366-3.366,0,0,0,68,false,stim,false,1,967.0999999940395,1,0,0,24779,task2,1337872,false,false,1282,image-keyboard-response,32
true,11,2,1,2,true,d,false,true,0.0-2.0-0.40-0.367-3.367,0,0,0,68,false,stim,false,0,1243.2999999821186,1,0,1,24779,task2,1340623,false,false,1285,image-keyboard-response,33
true,11,2,1,2,true,d,false,false,0.0-2.0-0.40-0.368-3.368,0,0,0,68,false,stim,false,0,968.1999999880791,1,0,1,24779,task2,1343095,false,true,1288,image-keyboard-response,34
true,11,2,1,2,true,d,false,true,0.0-2.0-0.41-0.369-3.369,0,0,0,68,false,stim,false,1,1324.7999999821186,1,0,0,24779,task2,1345927,false,false,1291,image-keyboard-response,35
true,11,2,1,2,true,d,false,false,0.0-2.0-0.41-0.370-3.370,0,0,0,68,false,stim,false,1,991.0,1,0,0,24779,task2,1348423,false,true,1294,image-keyboard-response,36
true,11,2,1,2,true,d,false,true,0.0-2.0-0.41-0.371-3.371,0,0,0,68,false,stim,false,0,1975.1000000238419,1,0,1,24779,task2,1351903,false,false,1297,image-keyboard-response,37
true,12,2,1,2,true,d,false,true,0.0-2.0-0.41-0.372-3.372,0,0,0,68,true,stim,false,0,1518.7999999821186,1,0,2,24779,task2,1354927,false,false,1300,image-keyboard-response,1
true,12,2,1,0,false,q,false,false,0.0-2.0-0.41-0.373-3.373,0,0,0,68,false,stim,true,2,977.8000000119209,1,0,1,24779,task2,1357415,false,false,1303,image-keyboard-response,2
true,12,2,1,2,true,d,false,true,0.0-2.0-0.41-0.374-3.374,0,0,0,68,false,stim,false,0,1191.9000000059605,1,0,2,24779,task2,1360111,false,false,1306,image-keyboard-response,3
true,12,2,1,0,false,q,false,false,0.0-2.0-0.41-0.375-3.375,0,0,0,68,false,stim,true,2,1828.4000000059605,1,0,1,24779,task2,1363446,false,false,1309,image-keyboard-response,4
true,12,1,1,2,false,d,true,false,0.0-2.0-0.41-0.376-3.376,0,0,0,90,false,stim,false,0,736.0999999940395,1,0,2,24779,task2,1365687,false,false,1312,image-keyboard-response,5
true,12,0,1,1,false,z,true,false,0.0-2.0-0.41-0.377-3.377,0,0,0,81,false,stim,false,2,789.0,1,0,0,24779,task2,1367982,false,false,1315,image-keyboard-response,6
true,12,1,1,0,false,q,true,false,0.0-2.0-0.42-0.378-3.378,0,0,0,90,false,stim,false,2,1147.2000000178814,1,0,1,24779,task2,1370639,false,false,1318,image-keyboard-response,7
true,12,0,1,0,true,q,false,true,0.0-2.0-0.42-0.379-3.379,0,0,0,81,false,stim,false,2,899.0,1,0,1,24779,task2,1373046,false,false,1321,image-keyboard-response,8
true,12,2,1,2,true,d,false,true,0.0-2.0-0.42-0.380-3.380,0,0,0,68,false,stim,false,0,2128.5,1,0,2,24779,task2,1376678,false,false,1324,image-keyboard-response,9
true,12,1,1,1,true,z,false,true,0.0-2.0-0.42-0.381-3.381,0,0,0,90,false,stim,false,2,1483.0999999940395,1,0,0,24779,task2,1379670,false,false,1327,image-keyboard-response,10
true,12,1,1,1,true,z,false,true,0.0-2.0-0.42-0.382-3.382,0,0,0,90,false,stim,false,2,960.0999999940395,1,0,0,24779,task2,1382134,false,false,1330,image-keyboard-response,11
true,12,2,1,2,true,d,false,true,0.0-2.0-0.42-0.383-3.383,0,0,0,68,false,stim,false,0,943.6999999880791,1,0,2,24779,task2,1384582,false,false,1333,image-keyboard-response,12
true,12,1,1,1,true,z,false,false,0.0-2.0-0.42-0.384-3.384,0,0,0,90,false,stim,false,2,733.5999999940395,1,0,0,24779,task2,1386822,false,true,1336,image-keyboard-response,13
true,12,2,1,2,true,d,false,true,0.0-2.0-0.42-0.385-3.385,0,0,0,68,false,stim,false,0,861.0999999940395,1,0,2,24779,task2,1389190,false,false,1339,image-keyboard-response,14
true,12,1,1,0,false,q,true,false,0.0-2.0-0.42-0.386-3.386,0,0,0,90,false,stim,false,2,1152.0,1,0,1,24779,task2,1391846,false,false,1342,image-keyboard-response,15
true,12,0,1,1,false,z,true,false,0.0-2.0-0.43-0.387-3.387,0,0,0,81,false,stim,false,2,927.5999999940395,1,0,0,24779,task2,1394278,false,false,1345,image-keyboard-response,16
true,12,2,1,2,true,d,false,true,0.0-2.0-0.43-0.388-3.388,0,0,0,68,false,stim,false,0,798.0,1,0,2,24779,task2,1396581,false,false,1348,image-keyboard-response,17
true,12,0,1,1,false,z,true,false,0.0-2.0-0.43-0.389-3.389,0,0,0,81,false,stim,false,2,773.1000000238419,1,0,0,24779,task2,1398861,false,false,1351,image-keyboard-response,18
true,12,2,1,2,true,d,false,false,0.0-2.0-0.43-0.390-3.390,0,0,0,68,false,stim,false,0,917.2000000178814,1,0,2,24779,task2,1401285,false,true,1354,image-keyboard-response,19
true,12,0,1,0,true,q,false,true,0.0-2.0-0.43-0.391-3.391,0,0,0,81,false,stim,false,2,1426.7999999821186,1,0,1,24779,task2,1404221,false,false,1357,image-keyboard-response,20
true,12,0,1,0,true,q,false,true,0.0-2.0-0.43-0.392-3.392,0,0,0,81,false,stim,false,2,1019.0999999940395,1,0,1,24779,task2,1406749,false,false,1360,image-keyboard-response,21
true,12,2,1,2,true,d,false,true,0.0-2.0-0.43-0.393-3.393,0,0,0,68,false,stim,false,0,1266.300000011921,1,0,2,24779,task2,1409525,false,false,1363,image-keyboard-response,22
true,12,2,1,1,false,z,false,false,0.0-2.0-0.43-0.394-3.394,0,0,0,68,false,stim,true,2,2053.0999999940395,1,0,0,24779,task2,1413085,false,false,1366,image-keyboard-response,23
true,12,1,1,0,false,q,true,false,0.0-2.0-0.43-0.395-3.395,0,0,0,90,false,stim,false,2,1219.9000000059605,1,0,1,24779,task2,1415813,false,false,1369,image-keyboard-response,24
true,12,0,1,1,false,z,true,false,0.0-2.0-0.44-0.396-3.396,0,0,0,81,false,stim,false,2,1488.0999999940395,1,0,0,24779,task2,1418805,false,false,1372,image-keyboard-response,25
true,12,1,1,1,true,z,false,false,0.0-2.0-0.44-0.397-3.397,0,0,0,90,false,stim,false,2,717.3000000119209,1,0,0,24779,task2,1421029,false,true,1375,image-keyboard-response,26
true,12,2,1,1,false,z,false,false,0.0-2.0-0.44-0.398-3.398,0,0,0,68,false,stim,true,2,975.4000000059605,1,0,0,24779,task2,1423509,false,false,1378,image-keyboard-response,27
true,12,0,1,0,true,q,false,false,0.0-2.0-0.44-0.399-3.399,0,0,0,81,false,stim,false,2,1398.5,1,0,1,24779,task2,1426412,false,true,1381,image-keyboard-response,28
true,12,2,1,2,true,d,false,true,0.0-2.0-0.44-0.400-3.400,0,0,0,68,false,stim,false,0,365.59999999403954,1,0,2,24779,task2,1428284,false,false,1384,image-keyboard-response,29
true,12,2,1,2,true,d,false,false,0.0-2.0-0.44-0.401-3.401,0,0,0,68,false,stim,false,0,1254.4000000059605,1,0,2,24779,task2,1431045,false,true,1387,image-keyboard-response,30
true,12,2,1,0,false,q,false,false,0.0-2.0-0.44-0.402-3.402,0,0,0,68,false,stim,true,2,1843.0,1,0,1,24779,task2,1434396,false,false,1390,image-keyboard-response,31
true,12,2,1,2,true,d,false,true,0.0-2.0-0.44-0.403-3.403,0,0,0,68,false,stim,false,0,1663.7999999821186,1,0,2,24779,task2,1437572,false,false,1393,image-keyboard-response,32
true,12,0,1,0,true,q,false,false,0.0-2.0-0.44-0.404-3.404,0,0,0,81,false,stim,false,2,1840.0,1,0,1,24779,task2,1440916,false,true,1396,image-keyboard-response,33
true,12,2,1,2,true,d,false,true,0.0-2.0-0.45-0.405-3.405,0,0,0,68,false,stim,false,0,1162.5,1,0,2,24779,task2,1443588,false,false,1399,image-keyboard-response,34
true,12,2,1,2,true,d,false,true,0.0-2.0-0.45-0.406-3.406,0,0,0,68,false,stim,false,0,1197.7999999821186,1,0,2,24779,task2,1446300,false,false,1402,image-keyboard-response,35
true,12,1,1,0,false,q,true,false,0.0-2.0-0.45-0.407-3.407,0,0,0,90,false,stim,false,2,1439.0999999940395,1,0,1,24779,task2,1449244,false,false,1405,image-keyboard-response,36
true,12,2,1,2,true,d,false,true,0.0-2.0-0.45-0.408-3.408,0,0,0,68,false,stim,false,0,993.9000000059605,1,0,2,24779,task2,1451748,false,false,1408,image-keyboard-response,37
true,12,2,1,0,false,q,false,false,0.0-2.0-0.45-0.409-3.409,0,0,0,68,false,stim,true,2,826.1999999880791,1,0,1,24779,task2,1454084,false,false,1411,image-keyboard-response,38
true,13,0,2,2,false,d,false,false,0.0-2.0-0.45-0.410-3.410,1,0,0,81,true,stim,true,0,838.5999999940395,1,0,1,24779,task2,1456427,false,false,1414,image-keyboard-response,1
true,13,1,2,1,true,z,false,true,0.0-2.0-0.45-0.411-3.411,1,0,0,90,false,stim,false,1,1711.9000000059605,1,1,0,24779,task2,1459643,false,false,1417,image-keyboard-response,2
true,13,1,2,1,true,z,false,true,0.0-2.0-0.45-0.412-3.412,1,0,0,90,false,stim,false,1,842.8000000119209,1,1,0,24779,task2,1461995,false,false,1420,image-keyboard-response,3
true,13,1,2,1,true,z,false,true,0.0-2.0-0.45-0.413-3.413,1,0,0,90,false,stim,false,1,551.0999999940395,1,1,0,24779,task2,1464051,false,false,1423,image-keyboard-response,4
true,13,2,2,2,true,d,false,true,0.0-2.0-0.46-0.414-3.414,1,0,0,68,false,stim,false,0,779.3000000119209,1,0,1,24779,task2,1466339,false,false,1426,image-keyboard-response,5
true,13,1,2,1,true,z,false,true,0.0-2.0-0.46-0.415-3.415,1,0,0,90,false,stim,false,1,983.5,1,1,0,24779,task2,1468827,false,false,1429,image-keyboard-response,6
true,13,2,2,2,true,d,false,true,0.0-2.0-0.46-0.416-3.416,1,0,0,68,false,stim,false,0,814.9000000059605,1,0,1,24779,task2,1471147,false,false,1432,image-keyboard-response,7
true,13,2,2,0,false,q,false,false,0.0-2.0-0.46-0.417-3.417,1,0,0,68,false,stim,true,2,1792.0,1,0,2,24779,task2,1474443,false,false,1435,image-keyboard-response,8
true,13,1,2,0,false,q,true,false,0.0-2.0-0.46-0.418-3.418,1,0,0,90,false,stim,false,2,831.0,1,0,2,24779,task2,1476779,false,false,1438,image-keyboard-response,9
true,13,1,2,2,false,d,true,false,0.0-2.0-0.46-0.419-3.419,1,0,0,90,false,stim,false,0,906.0,1,0,1,24779,task2,1479195,false,false,1441,image-keyboard-response,10
true,13,1,2,1,true,z,false,true,0.0-2.0-0.46-0.420-3.420,1,0,0,90,false,stim,false,1,1518.0,1,1,0,24779,task2,1482218,false,false,1444,image-keyboard-response,11
true,13,1,2,1,true,z,false,true,0.0-2.0-0.46-0.421-3.421,1,0,0,90,false,stim,false,1,802.3999999761581,1,1,0,24779,task2,1484530,false,false,1447,image-keyboard-response,12
true,13,2,2,0,false,q,false,false,0.0-2.0-0.46-0.422-3.422,1,0,0,68,false,stim,true,2,822.1999999880791,1,0,2,24779,task2,1486859,false,false,1450,image-keyboard-response,13
true,13,0,2,0,true,q,false,true,0.0-2.0-0.47-0.423-3.423,1,0,0,81,false,stim,false,2,759.0999999940395,1,0,2,24779,task2,1489122,false,false,1453,image-keyboard-response,14
true,13,0,2,0,true,q,false,true,0.0-2.0-0.47-0.424-3.424,1,0,0,81,false,stim,false,2,606.9000000059605,1,0,2,24779,task2,1491234,false,false,1456,image-keyboard-response,15
true,13,0,2,0,true,q,false,true,0.0-2.0-0.47-0.425-3.425,1,0,0,81,false,stim,false,2,628.0,1,0,2,24779,task2,1493370,false,false,1459,image-keyboard-response,16
true,13,0,2,1,false,z,true,false,0.0-2.0-0.47-0.426-3.426,1,0,0,81,false,stim,false,1,55.30000001192093,1,1,0,24779,task2,1494930,false,false,1462,image-keyboard-response,17
true,13,1,2,1,true,z,false,true,0.0-2.0-0.47-0.427-3.427,1,0,0,90,false,stim,false,1,880.2000000178814,1,1,0,24779,task2,1497314,false,false,1465,image-keyboard-response,18
true,13,1,2,1,true,z,false,true,0.0-2.0-0.47-0.428-3.428,1,0,0,90,false,stim,false,1,828.9000000059605,1,1,0,24779,task2,1499650,false,false,1468,image-keyboard-response,19
true,13,2,2,2,true,d,false,true,0.0-2.0-0.47-0.429-3.429,1,0,0,68,false,stim,false,0,955.5999999940395,1,0,1,24779,task2,1502114,false,false,1471,image-keyboard-response,20
true,13,0,2,2,false,d,false,false,0.0-2.0-0.47-0.430-3.430,1,0,0,81,false,stim,true,0,534.5,1,0,1,24779,task2,1504154,false,false,1474,image-keyboard-response,21
true,13,2,2,2,true,d,false,true,0.0-2.0-0.47-0.431-3.431,1,0,0,68,false,stim,false,0,667.7000000178814,1,0,1,24779,task2,1506330,false,false,1477,image-keyboard-response,22
true,13,0,2,0,true,q,false,true,0.0-2.0-0.48-0.432-3.432,1,0,0,81,false,stim,false,2,1352.300000011921,1,0,2,24779,task2,1509186,false,false,1480,image-keyboard-response,23
true,13,0,2,0,true,q,false,true,0.0-2.0-0.48-0.433-3.433,1,0,0,81,false,stim,false,2,695.0,1,0,2,24779,task2,1511385,false,false,1483,image-keyboard-response,24
true,13,1,2,1,true,z,false,false,0.0-2.0-0.48-0.434-3.434,1,0,0,90,false,stim,false,1,928.2999999821186,1,1,0,24779,task2,1513817,false,true,1486,image-keyboard-response,25
true,13,2,2,1,false,z,true,false,0.0-2.0-0.48-0.435-3.435,1,0,0,68,false,stim,false,1,707.7999999821186,1,1,0,24779,task2,1516033,false,false,1489,image-keyboard-response,26
true,13,2,2,2,true,d,false,true,0.0-2.0-0.48-0.436-3.436,1,0,0,68,false,stim,false,0,871.9000000059605,1,0,1,24779,task2,1518409,false,false,1492,image-keyboard-response,27
true,13,1,2,0,false,q,true,false,0.0-2.0-0.48-0.437-3.437,1,0,0,90,false,stim,false,2,1520.5,1,1,2,24779,task2,1521434,false,false,1495,image-keyboard-response,28
true,13,0,2,1,false,z,true,false,0.0-2.0-0.48-0.438-3.438,1,0,0,81,false,stim,false,1,798.8000000119209,1,0,0,24779,task2,1523737,false,false,1498,image-keyboard-response,29
true,13,2,2,2,true,d,false,true,0.0-2.0-0.48-0.439-3.439,1,0,0,68,false,stim,false,0,1246.0,1,0,1,24779,task2,1526497,false,false,1501,image-keyboard-response,30
true,13,2,2,2,true,d,false,true,0.0-2.0-0.48-0.440-3.440,1,0,0,68,false,stim,false,0,619.9000000059605,1,0,1,24779,task2,1528625,false,false,1504,image-keyboard-response,31
true,13,2,2,2,true,d,false,true,0.0-2.0-0.49-0.441-3.441,1,0,0,68,false,stim,false,0,784.0999999940395,1,0,1,24779,task2,1530913,false,false,1507,image-keyboard-response,32
true,14,1,2,0,false,q,true,false,0.0-2.0-0.49-0.442-3.442,0,0,1,90,true,stim,false,0,992.3000000119209,1,1,2,24779,task2,1533409,false,false,1510,image-keyboard-response,1
true,14,0,2,0,true,q,false,true,0.0-2.0-0.49-0.443-3.443,0,0,1,81,false,stim,false,1,1063.0,1,0,0,24779,task2,1535977,false,false,1513,image-keyboard-response,2
true,14,0,2,0,true,q,false,false,0.0-2.0-0.49-0.444-3.444,0,0,1,81,false,stim,false,1,764.2999999821186,1,0,0,24779,task2,1538249,false,true,1516,image-keyboard-response,3
true,14,1,2,0,false,q,true,false,0.0-2.0-0.49-0.445-3.445,0,0,1,90,false,stim,false,0,1095.0,1,1,2,24779,task2,1540848,false,false,1519,image-keyboard-response,4
true,14,2,2,1,false,z,false,false,0.0-2.0-0.49-0.446-3.446,0,0,1,68,false,stim,true,2,1184.9000000059605,1,0,1,24779,task2,1543537,false,false,1522,image-keyboard-response,5
true,14,1,2,1,true,z,false,true,0.0-2.0-0.49-0.447-3.447,0,0,1,90,false,stim,false,2,1508.5999999940395,1,0,1,24779,task2,1546552,false,false,1525,image-keyboard-response,6
true,14,2,2,0,false,q,true,false,0.0-2.0-0.49-0.448-3.448,0,0,1,68,false,stim,false,0,852.5999999940395,1,1,2,24779,task2,1548912,false,false,1528,image-keyboard-response,7
true,14,1,2,0,false,q,false,false,0.0-2.0-0.49-0.449-3.449,0,0,1,90,false,stim,true,1,888.0,1,0,0,24779,task2,1551312,false,false,1531,image-keyboard-response,8
true,14,0,2,0,true,q,false,true,0.0-2.0-0.50-0.450-3.450,0,0,1,81,false,stim,false,0,925.2999999821186,1,1,2,24779,task2,1553744,false,false,1534,image-keyboard-response,9
true,14,1,2,0,false,q,false,false,0.0-2.0-0.50-0.451-3.451,0,0,1,90,false,stim,true,1,1022.6000000238419,1,0,0,24779,task2,1556272,false,false,1537,image-keyboard-response,10
true,14,0,2,0,true,q,false,true,0.0-2.0-0.50-0.452-3.452,0,0,1,81,false,stim,false,1,719.2000000178814,1,0,0,24779,task2,1558496,false,false,1540,image-keyboard-response,11
true,14,0,2,0,true,q,false,true,0.0-2.0-0.50-0.453-3.453,0,0,1,81,false,stim,false,0,671.1999999880791,1,1,2,24779,task2,1560672,false,false,1543,image-keyboard-response,12
true,14,0,2,0,true,q,false,true,0.0-2.0-0.50-0.454-3.454,0,0,1,81,false,stim,false,1,608.3000000119209,1,0,0,24779,task2,1562784,false,false,1546,image-keyboard-response,13
true,14,0,2,0,true,q,false,false,0.0-2.0-0.50-0.455-3.455,0,0,1,81,false,stim,false,0,686.9000000059605,1,1,2,24779,task2,1564977,false,true,1549,image-keyboard-response,14
true,14,0,2,1,false,z,true,false,0.0-2.0-0.50-0.456-3.456,0,0,1,81,false,stim,false,2,1647.3999999761581,1,0,1,24779,task2,1568128,false,false,1552,image-keyboard-response,15
true,14,2,2,1,false,z,false,true,0.0-2.0-0.50-0.457-3.457,0,0,1,68,false,stim,true,2,896.1999999880791,1,0,1,24779,task2,1570528,false,true,1555,image-keyboard-response,16
true,14,2,2,1,false,z,false,false,0.0-2.0-0.50-0.458-3.458,0,0,1,68,false,stim,true,2,814.9000000059605,1,0,1,24779,task2,1572847,false,false,1558,image-keyboard-response,17
true,14,0,2,0,true,q,false,false,0.0-2.0-0.51-0.459-3.459,0,0,1,81,false,stim,false,1,1880.5,1,0,0,24779,task2,1576232,false,true,1561,image-keyboard-response,18
true,14,0,2,1,false,z,true,false,0.0-2.0-0.51-0.460-3.460,0,0,1,81,false,stim,false,2,1155.5999999940395,1,0,1,24779,task2,1578895,false,false,1564,image-keyboard-response,19
true,14,1,2,0,false,q,false,false,0.0-2.0-0.51-0.461-3.461,0,0,1,90,false,stim,true,1,767.6999999880791,1,0,0,24779,task2,1581167,false,false,1567,image-keyboard-response,20
true,14,2,2,0,false,q,true,false,0.0-2.0-0.51-0.462-3.462,0,0,1,68,false,stim,false,0,1112.699999988079,1,1,2,24779,task2,1583791,false,false,1570,image-keyboard-response,21
true,14,0,2,0,true,q,false,true,0.0-2.0-0.51-0.463-3.463,0,0,1,81,false,stim,false,0,926.9000000059605,1,1,2,24779,task2,1586223,false,false,1573,image-keyboard-response,22
true,14,1,2,1,true,z,false,true,0.0-2.0-0.51-0.464-3.464,0,0,1,90,false,stim,false,2,1836.6000000238419,1,0,1,24779,task2,1589567,false,false,1576,image-keyboard-response,23
true,14,2,2,0,false,q,true,false,0.0-2.0-0.51-0.465-3.465,0,0,1,68,false,stim,false,1,1573.800000011921,1,0,0,24779,task2,1592647,false,false,1579,image-keyboard-response,24
true,14,1,2,1,true,z,false,true,0.0-2.0-0.51-0.466-3.466,0,0,1,90,false,stim,false,2,906.0,1,0,1,24779,task2,1595062,false,false,1582,image-keyboard-response,25
true,14,0,2,0,true,q,false,true,0.0-2.0-0.51-0.467-3.467,0,0,1,81,false,stim,false,0,1834.699999988079,1,1,2,24779,task2,1598406,false,false,1585,image-keyboard-response,26
true,14,0,2,1,false,z,true,false,0.0-2.0-0.52-0.468-3.468,0,0,1,81,false,stim,false,2,892.4000000059605,1,0,1,24779,task2,1600807,false,false,1588,image-keyboard-response,27
true,14,0,2,0,true,q,false,false,0.0-2.0-0.52-0.469-3.469,0,0,1,81,false,stim,false,0,784.7999999821186,1,1,2,24779,task2,1603102,false,true,1591,image-keyboard-response,28
true,14,1,2,1,true,z,false,true,0.0-2.0-0.52-0.470-3.470,0,0,1,90,false,stim,false,2,1398.5,1,0,1,24779,task2,1606006,false,false,1594,image-keyboard-response,29
true,14,0,2,0,true,q,false,true,0.0-2.0-0.52-0.471-3.471,0,0,1,81,false,stim,false,0,1227.699999988079,1,0,2,24779,task2,1608742,false,false,1597,image-keyboard-response,30
true,14,1,2,1,true,z,false,true,0.0-2.0-0.52-0.472-3.472,0,0,1,90,false,stim,false,2,1083.5,1,0,1,24779,task2,1611335,false,false,1600,image-keyboard-response,31
true,14,1,2,0,false,q,false,false,0.0-2.0-0.52-0.473-3.473,0,0,1,90,false,stim,true,1,1926.0,1,1,0,24779,task2,1614774,false,false,1603,image-keyboard-response,32
true,14,0,2,0,true,q,false,true,0.0-2.0-0.52-0.474-3.474,0,0,1,81,false,stim,false,1,952.0,1,1,0,24779,task2,1617230,false,false,1606,image-keyboard-response,33
true,14,0,2,0,true,q,false,true,0.0-2.0-0.52-0.475-3.475,0,0,1,81,false,stim,false,0,1798.1000000238419,1,0,2,24779,task2,1620534,false,false,1609,image-keyboard-response,34
true,15,0,2,0,true,q,false,true,0.0-2.0-0.52-0.476-3.476,1,0,0,81,true,stim,false,0,871.1999999880791,1,1,0,24779,task2,1622910,false,false,1612,image-keyboard-response,1
true,15,0,2,0,true,q,false,true,0.0-2.0-0.53-0.477-3.477,1,0,0,81,false,stim,false,0,656.7999999821186,1,1,0,24779,task2,1625078,false,false,1615,image-keyboard-response,2
true,15,1,2,1,true,z,false,true,0.0-2.0-0.53-0.478-3.478,1,0,0,90,false,stim,false,0,938.1999999880791,1,0,2,24779,task2,1627525,false,false,1618,image-keyboard-response,3
true,15,0,2,0,true,q,false,true,0.0-2.0-0.53-0.479-3.479,1,0,0,81,false,stim,false,1,1776.0,1,0,1,24779,task2,1630805,false,false,1621,image-keyboard-response,4
true,15,1,2,0,false,q,true,false,0.0-2.0-0.53-0.480-3.480,1,0,0,90,false,stim,false,0,1152.0,1,1,0,24779,task2,1633461,false,false,1624,image-keyboard-response,5
true,15,0,2,0,true,q,false,true,0.0-2.0-0.53-0.481-3.481,1,0,0,81,false,stim,false,1,1158.9000000059605,1,0,1,24779,task2,1636125,false,false,1627,image-keyboard-response,6
true,15,0,2,0,true,q,false,true,0.0-2.0-0.53-0.482-3.482,1,0,0,81,false,stim,false,0,620.6999999880791,1,1,0,24779,task2,1638253,false,false,1630,image-keyboard-response,7
true,15,1,2,1,true,z,false,true,0.0-2.0-0.53-0.483-3.483,1,0,0,90,false,stim,false,0,1157.9000000059605,1,0,2,24779,task2,1640917,false,false,1633,image-keyboard-response,8
true,15,1,2,1,true,z,false,true,0.0-2.0-0.53-0.484-3.484,1,0,0,90,false,stim,false,0,840.0,1,0,2,24779,task2,1643261,false,false,1636,image-keyboard-response,9
true,15,0,2,0,true,q,false,false,0.0-2.0-0.53-0.485-3.485,1,0,0,81,false,stim,false,1,812.3000000119209,1,0,1,24779,task2,1645581,false,true,1639,image-keyboard-response,10
false,15,-1,2,0,false,q,true,false,0.0-2.0-0.54-0.486-3.486,1,0,0,,false,stim,false,1,,1,0,1,24779,task2,1650087,false,false,1642,image-keyboard-response,11
true,15,2,2,1,false,z,true,false,0.0-2.0-0.54-0.487-3.487,1,0,0,68,false,stim,false,0,1505.3999999761581,1,0,2,24779,task2,1653101,false,false,1645,image-keyboard-response,12
true,15,1,2,0,false,q,true,false,0.0-2.0-0.54-0.488-3.488,1,0,0,90,false,stim,false,0,1054.800000011921,1,1,0,24779,task2,1655661,false,false,1648,image-keyboard-response,13
true,15,1,2,0,false,q,false,false,0.0-2.0-0.54-0.489-3.489,1,0,0,90,false,stim,true,1,1631.0,1,0,1,24779,task2,1658796,false,false,1651,image-keyboard-response,14
true,15,0,2,0,true,q,false,true,0.0-2.0-0.54-0.490-3.490,1,0,0,81,false,stim,false,1,695.3000000119209,1,0,1,24779,task2,1660997,false,false,1654,image-keyboard-response,15
true,15,2,2,0,false,q,true,true,0.0-2.0-0.54-0.491-3.491,1,0,0,68,false,stim,false,0,1017.9000000059605,1,1,0,24779,task2,1663524,false,true,1657,image-keyboard-response,16
true,15,1,2,1,true,z,false,true,0.0-2.0-0.54-0.492-3.492,1,0,0,90,false,stim,false,0,1822.6000000238419,1,0,2,24779,task2,1666853,false,false,1660,image-keyboard-response,17
true,15,2,2,0,false,q,true,false,0.0-2.0-0.54-0.493-3.493,1,0,0,68,false,stim,false,0,1074.7999999821186,1,1,0,24779,task2,1669436,false,false,1663,image-keyboard-response,18
true,15,1,2,1,true,z,false,true,0.0-2.0-0.54-0.494-3.494,1,0,0,90,false,stim,false,0,1011.2999999821186,1,0,2,24779,task2,1671956,false,false,1666,image-keyboard-response,19
true,15,1,2,0,false,q,true,false,0.0-2.0-0.55-0.495-3.495,1,0,0,90,false,stim,false,0,940.5999999940395,1,1,0,24779,task2,1674404,false,false,1669,image-keyboard-response,20
true,15,0,2,1,false,z,false,false,0.0-2.0-0.55-0.496-3.496,1,0,0,81,false,stim,true,0,1237.4000000059605,1,0,2,24779,task2,1677148,false,false,1672,image-keyboard-response,21
true,15,2,2,1,false,z,true,false,0.0-2.0-0.55-0.497-3.497,1,0,0,68,false,stim,false,0,1126.0,1,0,2,24779,task2,1679780,false,false,1675,image-keyboard-response,22
true,15,1,2,1,true,z,false,false,0.0-2.0-0.55-0.498-3.498,1,0,0,90,false,stim,false,0,567.8000000119209,1,0,2,24779,task2,1681852,false,true,1678,image-keyboard-response,23
true,15,0,2,0,true,q,false,false,0.0-2.0-0.55-0.499-3.499,1,0,0,81,false,stim,false,1,1663.9000000059605,1,0,1,24779,task2,1685020,false,true,1681,image-keyboard-response,24
true,15,2,2,0,false,q,true,false,0.0-2.0-0.55-0.500-3.500,1,0,0,68,false,stim,false,0,1319.0999999940395,1,1,0,24779,task2,1687844,false,false,1684,image-keyboard-response,25
true,15,0,2,0,true,q,false,true,0.0-2.0-0.55-0.501-3.501,1,0,0,81,false,stim,false,0,2094.699999988079,1,1,0,24779,task2,1691443,false,false,1687,image-keyboard-response,26
true,15,1,2,0,false,q,false,false,0.0-2.0-0.55-0.502-3.502,1,0,0,90,false,stim,true,1,1679.7999999821186,1,0,1,24779,task2,1694627,false,false,1690,image-keyboard-response,27
true,15,2,2,0,false,q,true,false,0.0-2.0-0.55-0.503-3.503,1,0,0,68,false,stim,false,1,1744.0,1,0,1,24779,task2,1697875,false,false,1693,image-keyboard-response,28
true,15,0,2,0,true,q,false,true,0.0-2.0-0.56-0.504-3.504,1,0,0,81,false,stim,false,0,1268.300000011921,1,0,0,24779,task2,1700652,false,false,1696,image-keyboard-response,29
true,15,1,2,0,false,q,false,false,0.0-2.0-0.56-0.505-3.505,1,0,0,90,false,stim,true,1,2310.7999999821186,1,0,1,24779,task2,1704467,false,false,1699,image-keyboard-response,30
true,15,2,2,1,false,z,true,false,0.0-2.0-0.56-0.506-3.506,1,0,0,68,false,stim,false,0,1250.0,1,1,2,24779,task2,1707227,false,false,1702,image-keyboard-response,31
true,16,0,2,2,false,d,false,false,0.0-2.0-0.56-0.507-3.507,0,0,1,81,true,stim,true,0,1439.0999999940395,1,0,1,24779,task2,1710171,false,false,1705,image-keyboard-response,1
true,16,0,2,2,false,d,false,true,0.0-2.0-0.56-0.508-3.508,0,0,1,81,false,stim,true,0,1927.0,1,0,0,24779,task2,1713602,false,true,1708,image-keyboard-response,2
true,16,2,2,2,true,d,false,true,0.0-2.0-0.56-0.509-3.509,0,0,1,68,false,stim,false,0,1621.0,1,0,1,24779,task2,1716730,false,false,1711,image-keyboard-response,3
true,16,1,2,1,true,z,false,true,0.0-2.0-0.56-0.510-3.510,0,0,1,90,false,stim,false,1,1390.5,1,1,2,24779,task2,1719626,false,false,1714,image-keyboard-response,4
true,16,0,2,2,false,d,false,false,0.0-2.0-0.56-0.511-3.511,0,0,1,81,false,stim,true,0,1518.2000000178814,1,0,0,24779,task2,1722650,false,false,1717,image-keyboard-response,5
true,16,1,2,1,true,z,false,true,0.0-2.0-0.56-0.512-3.512,0,0,1,90,false,stim,false,1,1508.5,1,1,2,24779,task2,1725666,false,false,1720,image-keyboard-response,6
true,16,2,2,2,true,d,false,true,0.0-2.0-0.57-0.513-3.513,0,0,1,68,false,stim,false,0,863.5999999940395,1,0,0,24779,task2,1728034,false,false,1723,image-keyboard-response,7
true,16,0,2,2,false,d,false,false,0.0-2.0-0.57-0.514-3.514,0,0,1,81,false,stim,true,0,838.3000000119209,1,0,1,24779,task2,1730378,false,false,1726,image-keyboard-response,8
true,16,2,2,2,true,d,false,true,0.0-2.0-0.57-0.515-3.515,0,0,1,68,false,stim,false,0,1404.0,1,0,0,24779,task2,1733291,false,false,1729,image-keyboard-response,9
true,16,2,2,2,true,d,false,true,0.0-2.0-0.57-0.516-3.516,0,0,1,68,false,stim,false,0,1386.7999999821186,1,0,0,24779,task2,1736186,false,false,1732,image-keyboard-response,10
true,16,2,2,1,false,z,true,false,0.0-2.0-0.57-0.517-3.517,0,0,1,68,false,stim,false,1,1095.9000000059605,1,1,2,24779,task2,1738786,false,false,1735,image-keyboard-response,11
true,16,1,2,1,true,z,false,true,0.0-2.0-0.57-0.518-3.518,0,0,1,90,false,stim,false,1,1392.3999999761581,1,1,2,24779,task2,1741682,false,false,1738,image-keyboard-response,12
true,16,2,2,2,true,d,false,true,0.0-2.0-0.57-0.519-3.519,0,0,1,68,false,stim,false,0,1219.5999999940395,1,0,1,24779,task2,1744410,false,false,1741,image-keyboard-response,13
true,16,2,2,2,true,d,false,true,0.0-2.0-0.57-0.520-3.520,0,0,1,68,false,stim,false,0,2392.4000000059605,1,0,1,24779,task2,1748306,false,false,1744,image-keyboard-response,14
true,16,2,2,1,false,z,true,false,0.0-2.0-0.57-0.521-3.521,0,0,1,68,false,stim,false,1,1382.5,1,1,2,24779,task2,1751193,false,false,1747,image-keyboard-response,15
true,16,0,2,2,false,d,false,false,0.0-2.0-0.58-0.522-3.522,0,0,1,81,false,stim,true,0,1071.699999988079,1,0,1,24779,task2,1753769,false,false,1750,image-keyboard-response,16
true,16,1,2,2,false,d,true,false,0.0-2.0-0.58-0.523-3.523,0,0,1,90,false,stim,false,0,1423.0,1,0,0,24779,task2,1756697,false,false,1753,image-keyboard-response,17
true,16,0,2,2,false,d,false,false,0.0-2.0-0.58-0.524-3.524,0,0,1,81,false,stim,true,0,832.0,1,0,0,24779,task2,1759041,false,false,1756,image-keyboard-response,18
false,16,-1,2,1,false,z,true,false,0.0-2.0-0.58-0.525-3.525,0,0,1,,false,stim,false,1,,1,1,2,24779,task2,1763550,false,false,1759,image-keyboard-response,19
true,16,0,2,1,false,z,true,false,0.0-2.0-0.58-0.526-3.526,0,0,1,81,false,stim,false,1,1078.699999988079,1,1,2,24779,task2,1766137,false,false,1762,image-keyboard-response,20
true,16,2,2,1,false,z,true,false,0.0-2.0-0.58-0.527-3.527,0,0,1,68,false,stim,false,1,1799.9000000059605,1,1,2,24779,task2,1769441,false,false,1765,image-keyboard-response,21
true,16,2,2,2,true,d,false,true,0.0-2.0-0.58-0.528-3.528,0,0,1,68,false,stim,false,0,2350.800000011921,1,0,0,24779,task2,1773297,false,false,1768,image-keyboard-response,22
true,16,0,2,2,false,d,false,true,0.0-2.0-0.58-0.529-3.529,0,0,1,81,false,stim,true,0,1518.7000000178814,1,0,1,24779,task2,1776320,false,true,1771,image-keyboard-response,23
true,16,2,2,2,true,d,false,true,0.0-2.0-0.58-0.530-3.530,0,0,1,68,false,stim,false,0,1300.199999988079,1,0,1,24779,task2,1779128,false,false,1774,image-keyboard-response,24
true,16,0,2,2,false,d,false,false,0.0-2.0-0.59-0.531-3.531,0,0,1,81,false,stim,true,0,1439.5,1,0,0,24779,task2,1782072,false,false,1777,image-keyboard-response,25
true,16,2,2,1,false,z,true,true,0.0-2.0-0.59-0.532-3.532,0,0,1,68,false,stim,false,1,871.4000000059605,1,1,2,24779,task2,1784448,false,true,1780,image-keyboard-response,26
true,16,1,2,2,false,d,true,false,0.0-2.0-0.59-0.533-3.533,0,0,1,90,false,stim,false,0,2155.699999988079,1,1,0,24779,task2,1788112,false,false,1783,image-keyboard-response,27
true,16,0,2,2,false,d,false,false,0.0-2.0-0.59-0.534-3.534,0,0,1,81,false,stim,true,0,1201.5999999940395,1,1,1,24779,task2,1790824,false,false,1786,image-keyboard-response,28
true,16,2,2,1,false,z,true,false,0.0-2.0-0.59-0.535-3.535,0,0,1,68,false,stim,false,1,1469.5,1,1,2,24779,task2,1793800,false,false,1789,image-keyboard-response,29
true,16,2,2,2,true,d,false,true,0.0-2.0-0.59-0.536-3.536,0,0,1,68,false,stim,false,0,2487.5999999940395,1,1,0,24779,task2,1797791,false,false,1792,image-keyboard-response,30
true,16,2,2,2,true,d,false,true,0.0-2.0-0.59-0.537-3.537,0,0,1,68,false,stim,false,0,2040.0999999940395,1,1,1,24779,task2,1801336,false,false,1795,image-keyboard-response,31
false,17,-1,0,1,false,z,true,false,0.0-2.0-0.59-0.538-3.538,1,1,1,,true,stim,false,1,,1,1,2,24779,task2,1926182,false,false,1918,image-keyboard-response,1
true,17,1,0,2,false,d,true,false,0.0-2.0-0.59-0.539-3.539,1,1,1,90,false,stim,false,2,1667.800000011921,1,1,1,24779,task2,1929359,false,false,1921,image-keyboard-response,2
true,17,1,0,1,true,z,false,true,0.0-2.0-0.60-0.540-3.540,1,1,1,90,false,stim,false,1,827.4000000059605,1,1,2,24779,task2,1931695,false,false,1924,image-keyboard-response,3
false,17,-1,0,2,false,d,true,false,0.0-2.0-0.60-0.541-3.541,1,1,1,,false,stim,false,2,,1,1,1,24779,task2,1936201,false,false,1927,image-keyboard-response,4
true,17,0,0,1,false,z,true,false,0.0-2.0-0.60-0.542-3.542,1,1,1,81,false,stim,false,1,1016.5999999940395,1,1,2,24779,task2,1938727,false,false,1930,image-keyboard-response,5
true,17,2,0,1,false,z,true,false,0.0-2.0-0.60-0.543-3.543,1,1,1,68,false,stim,false,1,541.2999999821186,1,1,2,24779,task2,1940775,false,false,1933,image-keyboard-response,6
true,17,0,0,2,false,d,true,false,0.0-2.0-0.60-0.544-3.544,1,1,1,81,false,stim,false,2,1009.9000000059605,1,1,1,24779,task2,1943295,false,false,1936,image-keyboard-response,7
true,17,2,0,2,true,d,false,true,0.0-2.0-0.60-0.545-3.545,1,1,1,68,false,stim,false,2,1167.2999999821186,1,1,0,24779,task2,1945967,false,false,1939,image-keyboard-response,8
true,17,1,0,2,false,d,true,false,0.0-2.0-0.60-0.546-3.546,1,1,1,90,false,stim,false,2,1344.7000000178814,1,1,1,24779,task2,1948822,false,false,1942,image-keyboard-response,9
true,17,1,0,2,false,d,true,false,0.0-2.0-0.60-0.547-3.547,1,1,1,90,false,stim,false,2,1178.0,1,0,0,24779,task2,1951510,false,false,1945,image-keyboard-response,10
true,17,2,0,2,true,d,false,true,0.0-2.0-0.60-0.548-3.548,1,1,1,68,false,stim,false,2,940.0999999940395,1,0,0,24779,task2,1953958,false,false,1948,image-keyboard-response,11
true,17,2,0,2,true,d,false,true,0.0-2.0-0.61-0.549-3.549,1,1,1,68,false,stim,false,2,993.6999999880791,1,1,1,24779,task2,1956463,false,false,1951,image-keyboard-response,12
true,17,2,0,1,false,z,true,false,0.0-2.0-0.61-0.550-3.550,1,1,1,68,false,stim,false,1,866.7999999821186,1,0,2,24779,task2,1958838,false,false,1954,image-keyboard-response,13
true,18,2,2,2,true,d,false,true,0.0-2.0-0.61-0.551-3.551,0,1,0,68,true,stim,false,2,922.9000000059605,1,1,1,24779,task2,1961270,false,false,1957,image-keyboard-response,1
true,18,0,2,0,true,q,false,true,0.0-2.0-0.61-0.552-3.552,0,1,0,81,false,stim,false,2,1189.8999999761581,1,0,0,24779,task2,1963966,false,false,1960,image-keyboard-response,2
true,18,2,2,0,false,q,true,false,0.0-2.0-0.61-0.553-3.553,0,1,0,68,false,stim,false,1,900.5999999940395,1,0,2,24779,task2,1966374,false,false,1963,image-keyboard-response,3
true,18,0,2,0,true,q,false,true,0.0-2.0-0.61-0.554-3.554,0,1,0,81,false,stim,false,2,1135.2999999821186,1,0,0,24779,task2,1969014,false,false,1966,image-keyboard-response,4
true,18,0,2,0,true,q,false,true,0.0-2.0-0.61-0.555-3.555,0,1,0,81,false,stim,false,1,1406.800000011921,1,0,2,24779,task2,1971926,false,false,1969,image-keyboard-response,5
true,18,1,2,0,false,q,true,false,0.0-2.0-0.61-0.556-3.556,0,1,0,90,false,stim,false,2,1950.7000000178814,1,0,0,24779,task2,1975390,false,false,1972,image-keyboard-response,6
true,18,0,2,2,false,d,true,false,0.0-2.0-0.61-0.557-3.557,0,1,0,81,false,stim,false,2,877.0,1,1,1,24779,task2,1977773,false,false,1975,image-keyboard-response,7
true,18,2,2,2,true,d,false,true,0.0-2.0-0.62-0.558-3.558,0,1,0,68,false,stim,false,2,692.2999999821186,1,1,1,24779,task2,1979974,false,false,1978,image-keyboard-response,8
true,18,2,2,0,false,q,false,false,0.0-2.0-0.62-0.559-3.559,0,1,0,68,false,stim,true,2,1606.7000000178814,1,0,0,24779,task2,1983085,false,false,1981,image-keyboard-response,9
true,18,2,2,2,true,d,false,true,0.0-2.0-0.62-0.560-3.560,0,1,0,68,false,stim,false,2,994.6999999880791,1,1,1,24779,task2,1985589,false,false,1984,image-keyboard-response,10
true,18,0,2,0,true,q,false,true,0.0-2.0-0.62-0.561-3.561,0,1,0,81,false,stim,false,2,571.5,1,0,0,24779,task2,1987670,false,false,1987,image-keyboard-response,11
true,18,2,2,2,true,d,false,true,0.0-2.0-0.62-0.562-3.562,0,1,0,68,false,stim,false,2,1397.199999988079,1,1,1,24779,task2,1990573,false,false,1990,image-keyboard-response,12
true,18,2,2,0,false,q,true,false,0.0-2.0-0.62-0.563-3.563,0,1,0,68,false,stim,false,1,715.5,1,0,2,24779,task2,1992797,false,false,1993,image-keyboard-response,13
true,18,1,2,0,false,q,false,false,0.0-2.0-0.62-0.564-3.564,0,1,0,90,false,stim,true,1,1111.199999988079,1,0,2,24779,task2,1995413,false,false,1996,image-keyboard-response,14
true,18,0,2,0,true,q,false,true,0.0-2.0-0.62-0.565-3.565,0,1,0,81,false,stim,false,2,1510.0999999940395,1,0,0,24779,task2,1998429,false,false,1999,image-keyboard-response,15
true,18,0,2,0,true,q,false,false,0.0-2.0-0.62-0.566-3.566,0,1,0,81,false,stim,false,1,523.0999999940395,1,0,2,24779,task2,2000469,false,true,2002,image-keyboard-response,16
true,18,2,2,0,false,q,true,false,0.0-2.0-0.63-0.567-3.567,0,1,0,68,false,stim,false,1,618.8000000119209,1,0,2,24779,task2,2002597,false,false,2005,image-keyboard-response,17
true,18,2,2,0,false,q,false,false,0.0-2.0-0.63-0.568-3.568,0,1,0,68,false,stim,true,2,988.1000000238419,1,0,0,24779,task2,2005092,false,false,2008,image-keyboard-response,18
true,18,1,2,0,false,q,false,false,0.0-2.0-0.63-0.569-3.569,0,1,0,90,false,stim,true,1,1332.300000011921,1,0,2,24779,task2,2007932,false,false,2011,image-keyboard-response,19
true,18,0,2,2,false,d,true,false,0.0-2.0-0.63-0.570-3.570,0,1,0,81,false,stim,false,2,980.8000000119209,1,1,1,24779,task2,2010420,false,false,2014,image-keyboard-response,20
true,18,2,2,2,true,d,false,true,0.0-2.0-0.63-0.571-3.571,0,1,0,68,false,stim,false,2,657.0,1,1,1,24779,task2,2012588,false,false,2017,image-keyboard-response,21
true,18,0,2,0,true,q,false,true,0.0-2.0-0.63-0.572-3.572,0,1,0,81,false,stim,false,1,1220.0,1,0,2,24779,task2,2015317,false,false,2020,image-keyboard-response,22
true,18,0,2,2,false,d,true,false,0.0-2.0-0.63-0.573-3.573,0,1,0,81,false,stim,false,2,1174.8999999761581,1,1,1,24779,task2,2017996,false,false,2023,image-keyboard-response,23
true,18,2,2,0,false,q,false,false,0.0-2.0-0.63-0.574-3.574,0,1,0,68,false,stim,true,2,1326.699999988079,1,0,0,24779,task2,2020828,false,false,2026,image-keyboard-response,24
true,18,0,2,0,true,q,false,false,0.0-2.0-0.63-0.575-3.575,0,1,0,81,false,stim,false,2,694.9000000059605,1,0,0,24779,task2,2023028,false,true,2029,image-keyboard-response,25
true,18,2,2,2,true,d,false,true,0.0-2.0-0.64-0.576-3.576,0,1,0,68,false,stim,false,2,1351.3999999761581,1,1,1,24779,task2,2025884,false,false,2032,image-keyboard-response,26
true,18,2,2,2,true,d,false,true,0.0-2.0-0.64-0.577-3.577,0,1,0,68,false,stim,false,2,1206.8999999761581,1,1,1,24779,task2,2028596,false,false,2035,image-keyboard-response,27
true,18,1,2,0,false,q,false,false,0.0-2.0-0.64-0.578-3.578,0,1,0,90,false,stim,true,1,1919.6000000238419,1,0,2,24779,task2,2032023,false,false,2038,image-keyboard-response,28
true,18,2,2,0,false,q,false,false,0.0-2.0-0.64-0.579-3.579,0,1,0,68,false,stim,true,2,1159.5,1,0,0,24779,task2,2034687,false,false,2041,image-keyboard-response,29
true,18,0,2,0,true,q,false,true,0.0-2.0-0.64-0.580-3.580,0,1,0,81,false,stim,false,2,964.5,1,0,0,24779,task2,2037159,false,false,2044,image-keyboard-response,30
true,18,0,2,2,false,d,true,false,0.0-2.0-0.64-0.581-3.581,0,1,0,81,false,stim,false,2,1020.1999999880791,1,0,1,24779,task2,2039686,false,false,2047,image-keyboard-response,31
true,18,2,2,0,false,q,false,false,0.0-2.0-0.64-0.582-3.582,0,1,0,68,false,stim,true,2,943.1999999880791,1,0,0,24779,task2,2042134,false,false,2050,image-keyboard-response,32
true,18,2,2,0,false,q,true,false,0.0-2.0-0.64-0.583-3.583,0,1,0,68,false,stim,false,1,852.0,1,0,2,24779,task2,2044494,false,false,2053,image-keyboard-response,33
true,19,0,1,2,false,d,false,false,0.0-2.0-0.64-0.584-3.584,0,0,0,81,true,stim,true,0,723.1999999880791,1,0,2,24779,task2,2046726,false,false,2056,image-keyboard-response,1
true,19,0,1,1,false,z,true,false,0.0-2.0-0.65-0.585-3.585,0,0,0,81,false,stim,false,2,1704.0999999940395,1,0,1,24779,task2,2049935,false,false,2059,image-keyboard-response,2
true,19,2,1,2,true,d,false,true,0.0-2.0-0.65-0.586-3.586,0,0,0,68,false,stim,false,0,1849.0999999940395,1,0,2,24779,task2,2053294,false,false,2062,image-keyboard-response,3
true,19,2,1,2,true,d,false,true,0.0-2.0-0.65-0.587-3.587,0,0,0,68,false,stim,false,0,1092.0999999940395,1,0,2,24779,task2,2055894,false,false,2065,image-keyboard-response,4
true,19,2,1,2,true,d,false,true,0.0-2.0-0.65-0.588-3.588,0,0,0,68,false,stim,false,0,931.9000000059605,1,0,2,24779,task2,2058334,false,false,2068,image-keyboard-response,5
true,19,2,1,2,true,d,false,true,0.0-2.0-0.65-0.589-3.589,0,0,0,68,false,stim,false,0,2044.2000000178814,1,0,0,24779,task2,2061886,false,false,2071,image-keyboard-response,6
