answered,blockNum,choice,condition,corResp,correct,correct_response,explo,fb,internal_node_id,isStable_1,isStable_2,isStable_3,key_press,newBlock,part,persev,persevResp,rt,sessNum,stableAS,stimulus,subject,task,time_elapsed,training,trap,trial_index,trial_type,trialsInBlock
true,1,2,0,1,false,z,true,false,0.0-2.0-0.0-0.0-3.0,0,0,0,68,true,stim,false,-1,1418.0,2,0,0,25237,task2,111048,false,false,79,image-keyboard-response,1
true,1,0,0,1,false,z,true,false,0.0-2.0-0.0-0.1-3.1,0,0,0,81,false,stim,false,-1,857.3000000000466,2,0,0,25237,task2,113412,false,false,82,image-keyboard-response,2
true,1,0,0,0,true,q,false,true,0.0-2.0-0.0-0.2-3.2,0,0,0,81,false,stim,false,-1,1179.7000000000116,2,0,2,25237,task2,116097,false,false,85,image-keyboard-response,3
true,1,0,0,2,false,d,true,false,0.0-2.0-0.0-0.3-3.3,0,0,0,81,false,stim,false,-1,697.7999999999884,2,0,1,25237,task2,118302,false,false,88,image-keyboard-response,4
true,1,1,0,1,true,z,false,false,0.0-2.0-0.0-0.4-3.4,0,0,0,90,false,stim,false,-1,889.4000000000233,2,0,0,25237,task2,120697,false,true,91,image-keyboard-response,5
true,1,1,0,2,false,d,true,false,0.0-2.0-0.0-0.5-3.5,0,0,0,90,false,stim,false,-1,1802.2999999999884,2,0,1,25237,task2,124006,false,false,94,image-keyboard-response,6
true,1,0,0,0,true,q,false,true,0.0-2.0-0.0-0.6-3.6,0,0,0,81,false,stim,false,-1,855.4000000000233,2,0,2,25237,task2,126368,false,false,97,image-keyboard-response,7
true,1,2,0,2,true,d,false,true,0.0-2.0-0.0-0.7-3.7,0,0,0,68,false,stim,false,-1,784.6000000000349,2,0,1,25237,task2,128658,false,false,100,image-keyboard-response,8
true,1,0,0,0,true,q,false,true,0.0-2.0-0.0-0.8-3.8,0,0,0,81,false,stim,false,-1,793.9000000000233,2,0,2,25237,task2,130959,false,false,103,image-keyboard-response,9
true,1,0,0,0,true,q,false,true,0.0-2.0-0.1-0.9-3.9,0,0,0,81,false,stim,false,-1,515.2999999999884,2,0,2,25237,task2,132981,false,false,106,image-keyboard-response,10
true,1,0,0,0,true,q,false,false,0.0-2.0-0.1-0.10-3.10,0,0,0,81,false,stim,false,-1,421.9000000000233,2,0,2,25237,task2,134908,false,true,109,image-keyboard-response,11
true,1,2,0,2,true,d,false,true,0.0-2.0-0.1-0.11-3.11,0,0,0,68,false,stim,false,-1,732.0999999999767,2,0,1,25237,task2,137145,false,false,112,image-keyboard-response,12
true,1,1,0,1,true,z,false,true,0.0-2.0-0.1-0.12-3.12,0,0,0,90,false,stim,false,-1,972.2000000000116,2,0,0,25237,task2,139624,false,false,115,image-keyboard-response,13
true,1,2,0,2,true,d,false,true,0.0-2.0-0.1-0.13-3.13,0,0,0,68,false,stim,false,-1,1140.899999999965,2,0,1,25237,task2,142271,false,false,118,image-keyboard-response,14
true,1,2,0,2,true,d,false,true,0.0-2.0-0.1-0.14-3.14,0,0,0,68,false,stim,false,-1,912.7999999999884,2,0,1,25237,task2,144691,false,false,121,image-keyboard-response,15
true,1,0,0,0,true,q,false,true,0.0-2.0-0.1-0.15-3.15,0,0,0,81,false,stim,false,-1,1037.0999999999767,2,0,2,25237,task2,147233,false,false,124,image-keyboard-response,16
true,1,1,0,1,true,z,false,true,0.0-2.0-0.1-0.16-3.16,0,0,0,90,false,stim,false,-1,434.4000000000233,2,0,0,25237,task2,149174,false,false,127,image-keyboard-response,17
true,1,1,0,1,true,z,false,true,0.0-2.0-0.1-0.17-3.17,0,0,0,90,false,stim,false,-1,400.5,2,0,0,25237,task2,151080,false,false,130,image-keyboard-response,18
true,1,0,0,0,true,q,false,true,0.0-2.0-0.2-0.18-3.18,0,0,0,81,false,stim,false,-1,1816.7000000000698,2,0,2,25237,task2,154402,false,false,133,image-keyboard-response,19
true,1,2,0,2,true,d,false,true,0.0-2.0-0.2-0.19-3.19,0,0,0,68,false,stim,false,-1,883.9000000000233,2,0,1,25237,task2,156794,false,false,136,image-keyboard-response,20
true,1,0,0,0,true,q,false,true,0.0-2.0-0.2-0.20-3.20,0,0,0,81,false,stim,false,-1,673.1999999999534,2,0,2,25237,task2,158973,false,false,139,image-keyboard-response,21
true,1,1,0,1,true,z,false,true,0.0-2.0-0.2-0.21-3.21,0,0,0,90,false,stim,false,-1,967.2999999999302,2,0,0,25237,task2,161446,false,false,142,image-keyboard-response,22
true,1,2,0,2,true,d,false,true,0.0-2.0-0.2-0.22-3.22,0,0,0,68,false,stim,false,-1,1523.6999999999534,2,1,1,25237,task2,164475,false,false,145,image-keyboard-response,23
true,1,1,0,1,true,z,false,true,0.0-2.0-0.2-0.23-3.23,0,0,0,90,false,stim,false,-1,631.0999999999767,2,0,0,25237,task2,166640,false,false,148,image-keyboard-response,24
true,1,0,0,0,true,q,false,true,0.0-2.0-0.2-0.24-3.24,0,0,0,81,false,stim,false,-1,741.4000000000233,2,0,2,25237,task2,168887,false,false,151,image-keyboard-response,25
true,1,2,0,2,true,d,false,true,0.0-2.0-0.2-0.25-3.25,0,0,0,68,false,stim,false,-1,1315.0,2,1,1,25237,task2,171710,false,false,154,image-keyboard-response,26
true,2,1,2,0,false,q,false,false,0.0-2.0-0.2-0.26-3.26,0,1,0,90,true,stim,true,1,728.8000000000466,2,0,0,25237,task2,173944,false,false,157,image-keyboard-response,1
true,2,2,2,2,true,d,false,true,0.0-2.0-0.3-0.27-3.27,0,1,0,68,false,stim,false,2,1030.9000000000233,2,1,1,25237,task2,176481,false,false,160,image-keyboard-response,2
true,2,1,2,0,false,q,false,false,0.0-2.0-0.3-0.28-3.28,0,1,0,90,false,stim,true,1,428.70000000006985,2,0,0,25237,task2,178416,false,false,163,image-keyboard-response,3
true,2,0,2,2,false,d,false,false,0.0-2.0-0.3-0.29-3.29,0,1,0,81,false,stim,true,0,762.5999999999767,2,0,2,25237,task2,180684,false,false,166,image-keyboard-response,4
true,2,1,2,2,false,d,true,false,0.0-2.0-0.3-0.30-3.30,0,1,0,90,false,stim,false,0,1520.6999999999534,2,0,2,25237,task2,183710,false,false,169,image-keyboard-response,5
true,2,2,2,2,true,d,false,true,0.0-2.0-0.3-0.31-3.31,0,1,0,68,false,stim,false,2,1075.5,2,1,1,25237,task2,186291,false,false,172,image-keyboard-response,6
true,2,0,2,2,false,d,false,false,0.0-2.0-0.3-0.32-3.32,0,1,0,81,false,stim,true,0,1464.0999999999767,2,0,2,25237,task2,189263,false,false,175,image-keyboard-response,7
true,2,0,2,0,true,q,false,true,0.0-2.0-0.3-0.33-3.33,0,1,0,81,false,stim,false,1,1081.5,2,0,0,25237,task2,191850,false,false,178,image-keyboard-response,8
true,2,0,2,0,true,q,false,true,0.0-2.0-0.3-0.34-3.34,0,1,0,81,false,stim,false,1,586.0,2,0,0,25237,task2,193943,false,false,181,image-keyboard-response,9
true,2,2,2,2,true,d,false,true,0.0-2.0-0.3-0.35-3.35,0,1,0,68,false,stim,false,2,668.7999999999302,2,1,1,25237,task2,196119,false,false,184,image-keyboard-response,10
true,2,2,2,2,true,d,false,true,0.0-2.0-0.4-0.36-3.36,0,1,0,68,false,stim,false,2,486.0,2,1,1,25237,task2,198112,false,false,187,image-keyboard-response,11
true,2,2,2,2,true,d,false,true,0.0-2.0-0.4-0.37-3.37,0,1,0,68,false,stim,false,2,508.80000000004657,2,1,1,25237,task2,200126,false,false,190,image-keyboard-response,12
true,2,0,2,0,true,q,false,true,0.0-2.0-0.4-0.38-3.38,0,1,0,81,false,stim,false,1,870.5,2,0,0,25237,task2,202503,false,false,193,image-keyboard-response,13
true,2,2,2,2,true,d,false,true,0.0-2.0-0.4-0.39-3.39,0,1,0,68,false,stim,false,0,496.5999999999767,2,0,2,25237,task2,204505,false,false,196,image-keyboard-response,14
true,2,2,2,2,true,d,false,true,0.0-2.0-0.4-0.40-3.40,0,1,0,68,false,stim,false,2,576.0999999999767,2,1,1,25237,task2,206587,false,false,199,image-keyboard-response,15
true,2,0,2,0,true,q,false,true,0.0-2.0-0.4-0.41-3.41,0,1,0,81,false,stim,false,1,853.0,2,0,0,25237,task2,208949,false,false,202,image-keyboard-response,16
true,2,0,2,0,true,q,false,true,0.0-2.0-0.4-0.42-3.42,0,1,0,81,false,stim,false,1,392.39999999990687,2,0,0,25237,task2,210847,false,false,205,image-keyboard-response,17
true,2,2,2,2,true,d,false,true,0.0-2.0-0.4-0.43-3.43,0,1,0,68,false,stim,false,0,619.8000000000466,2,0,2,25237,task2,212972,false,false,208,image-keyboard-response,18
true,2,2,2,2,true,d,false,true,0.0-2.0-0.4-0.44-3.44,0,1,0,68,false,stim,false,0,446.70000000006985,2,0,2,25237,task2,214924,false,false,211,image-keyboard-response,19
true,2,2,2,2,true,d,false,true,0.0-2.0-0.5-0.45-3.45,0,1,0,68,false,stim,false,0,484.5,2,0,2,25237,task2,216914,false,false,214,image-keyboard-response,20
true,2,0,2,0,true,q,false,true,0.0-2.0-0.5-0.46-3.46,0,1,0,81,false,stim,false,1,640.0,2,0,0,25237,task2,219061,false,false,217,image-keyboard-response,21
true,2,2,2,2,true,d,false,true,0.0-2.0-0.5-0.47-3.47,0,1,0,68,false,stim,false,2,542.3000000000466,2,1,1,25237,task2,221108,false,false,220,image-keyboard-response,22
true,2,0,2,0,true,q,false,true,0.0-2.0-0.5-0.48-3.48,0,1,0,81,false,stim,false,1,675.0,2,0,0,25237,task2,223290,false,false,223,image-keyboard-response,23
true,2,2,2,2,true,d,false,true,0.0-2.0-0.5-0.49-3.49,0,1,0,68,false,stim,false,2,639.0999999999767,2,1,1,25237,task2,225435,false,false,226,image-keyboard-response,24
true,2,2,2,2,true,d,false,false,0.0-2.0-0.5-0.50-3.50,0,1,0,68,false,stim,false,2,586.0,2,1,1,25237,task2,227526,false,true,229,image-keyboard-response,25
true,2,2,2,2,true,d,false,true,0.0-2.0-0.5-0.51-3.51,0,1,0,68,false,stim,false,0,901.0,2,0,2,25237,task2,227189,false,false,232,image-keyboard-response,26
true,2,0,2,0,true,q,false,true,0.0-2.0-0.5-0.52-3.52,0,1,0,81,false,stim,false,1,696.6999999999534,2,0,0,25237,task2,229393,false,false,235,image-keyboard-response,27
true,2,2,2,2,true,d,false,false,0.0-2.0-0.5-0.53-3.53,0,1,0,68,false,stim,false,0,615.5999999999767,2,1,2,25237,task2,231516,false,true,238,image-keyboard-response,28
true,2,1,2,2,false,d,true,false,0.0-2.0-0.6-0.54-3.54,0,1,0,90,false,stim,false,2,1463.5,2,0,1,25237,task2,234486,false,false,241,image-keyboard-response,29
true,2,2,2,2,true,d,false,true,0.0-2.0-0.6-0.55-3.55,0,1,0,68,false,stim,false,0,730.9000000000233,2,1,2,25237,task2,236722,false,false,244,image-keyboard-response,30
true,2,2,2,2,true,d,false,true,0.0-2.0-0.6-0.56-3.56,0,1,0,68,false,stim,false,0,680.7999999999302,2,1,2,25237,task2,238909,false,false,247,image-keyboard-response,31
true,2,0,2,2,false,d,true,false,0.0-2.0-0.6-0.57-3.57,0,1,0,81,false,stim,false,2,773.0,2,0,1,25237,task2,241187,false,false,250,image-keyboard-response,32
true,3,0,2,2,false,d,false,false,0.0-2.0-0.6-0.58-3.58,0,0,1,81,true,stim,true,0,951.0999999999767,2,0,0,25237,task2,243646,false,false,253,image-keyboard-response,1
true,3,0,2,2,false,d,false,false,0.0-2.0-0.6-0.59-3.59,0,0,1,81,false,stim,true,0,444.5999999999767,2,0,0,25237,task2,245596,false,false,256,image-keyboard-response,2
true,3,2,2,2,true,d,false,false,0.0-2.0-0.6-0.60-3.60,0,0,1,68,false,stim,false,0,668.5,2,0,0,25237,task2,247770,false,true,259,image-keyboard-response,3
true,3,0,2,1,false,z,true,false,0.0-2.0-0.6-0.61-3.61,0,0,1,81,false,stim,false,2,1424.5,2,0,1,25237,task2,250701,false,false,262,image-keyboard-response,4
true,3,2,2,2,true,d,false,true,0.0-2.0-0.6-0.62-3.62,0,0,1,68,false,stim,false,2,1011.5999999999767,2,1,2,25237,task2,253219,false,false,265,image-keyboard-response,5
true,3,2,2,1,false,z,false,false,0.0-2.0-0.7-0.63-3.63,0,0,1,68,false,stim,true,2,564.9000000000233,2,0,1,25237,task2,255291,false,false,268,image-keyboard-response,6
true,3,2,2,2,true,d,false,true,0.0-2.0-0.7-0.64-3.64,0,0,1,68,false,stim,false,0,1259.2999999999302,2,0,0,25237,task2,258056,false,false,271,image-keyboard-response,7
true,3,2,2,2,true,d,false,true,0.0-2.0-0.7-0.65-3.65,0,0,1,68,false,stim,false,0,402.19999999995343,2,0,0,25237,task2,259964,false,false,274,image-keyboard-response,8
true,3,2,2,2,true,d,false,true,0.0-2.0-0.7-0.66-3.66,0,0,1,68,false,stim,false,2,1056.0,2,1,2,25237,task2,262526,false,false,277,image-keyboard-response,9
true,3,1,2,1,true,z,false,true,0.0-2.0-0.7-0.67-3.67,0,0,1,90,false,stim,false,2,828.1999999999534,2,0,1,25237,task2,264859,false,false,280,image-keyboard-response,10
true,3,2,2,2,true,d,false,true,0.0-2.0-0.7-0.68-3.68,0,0,1,68,false,stim,false,2,718.5,2,1,2,25237,task2,267085,false,false,283,image-keyboard-response,11
true,3,1,2,1,true,z,false,true,0.0-2.0-0.7-0.69-3.69,0,0,1,90,false,stim,false,2,745.8000000000466,2,0,1,25237,task2,269336,false,false,286,image-keyboard-response,12
true,3,2,2,2,true,d,false,false,0.0-2.0-0.7-0.70-3.70,0,0,1,68,false,stim,false,2,694.1000000000931,2,1,2,25237,task2,271537,false,true,289,image-keyboard-response,13
true,3,2,2,2,true,d,false,false,0.0-2.0-0.7-0.71-3.71,0,0,1,68,false,stim,false,0,840.4000000000233,2,0,0,25237,task2,273882,false,true,292,image-keyboard-response,14
true,3,1,2,1,true,z,false,true,0.0-2.0-0.8-0.72-3.72,0,0,1,90,false,stim,false,2,862.0999999999767,2,0,1,25237,task2,276250,false,false,295,image-keyboard-response,15
true,3,2,2,2,true,d,false,true,0.0-2.0-0.8-0.73-3.73,0,0,1,68,false,stim,false,0,836.2999999999302,2,0,0,25237,task2,278593,false,false,298,image-keyboard-response,16
true,3,2,2,2,true,d,false,true,0.0-2.0-0.8-0.74-3.74,0,0,1,68,false,stim,false,2,768.5999999999767,2,1,2,25237,task2,280936,false,false,301,image-keyboard-response,17
true,3,1,2,2,false,d,true,false,0.0-2.0-0.8-0.75-3.75,0,0,1,90,false,stim,false,0,1096.9000000000233,2,0,0,25237,task2,283539,false,false,304,image-keyboard-response,18
true,3,1,2,1,true,z,false,true,0.0-2.0-0.8-0.76-3.76,0,0,1,90,false,stim,false,2,674.0,2,0,1,25237,task2,285720,false,false,307,image-keyboard-response,19
true,3,2,2,2,true,d,false,true,0.0-2.0-0.8-0.77-3.77,0,0,1,68,false,stim,false,2,841.6999999999534,2,1,2,25237,task2,288071,false,false,310,image-keyboard-response,20
true,3,1,2,1,true,z,false,true,0.0-2.0-0.8-0.78-3.78,0,0,1,90,false,stim,false,2,703.5,2,0,1,25237,task2,290280,false,false,313,image-keyboard-response,21
true,3,2,2,2,true,d,false,true,0.0-2.0-0.8-0.79-3.79,0,0,1,68,false,stim,false,0,705.9000000000233,2,0,0,25237,task2,292492,false,false,316,image-keyboard-response,22
true,3,2,2,2,true,d,false,true,0.0-2.0-0.8-0.80-3.80,0,0,1,68,false,stim,false,2,908.7000000000698,2,1,2,25237,task2,294906,false,false,319,image-keyboard-response,23
true,3,1,2,1,true,z,false,false,0.0-2.0-0.9-0.81-3.81,0,0,1,90,false,stim,false,2,625.9000000000233,2,0,1,25237,task2,297039,false,true,322,image-keyboard-response,24
true,3,1,2,1,true,z,false,true,0.0-2.0-0.9-0.82-3.82,0,0,1,90,false,stim,false,2,664.5999999999767,2,0,1,25237,task2,299209,false,false,325,image-keyboard-response,25
true,3,2,2,2,true,d,false,true,0.0-2.0-0.9-0.83-3.83,0,0,1,68,false,stim,false,2,514.5,2,1,2,25237,task2,301230,false,false,328,image-keyboard-response,26
true,3,2,2,2,true,d,false,false,0.0-2.0-0.9-0.84-3.84,0,0,1,68,false,stim,false,0,897.8999999999069,2,0,0,25237,task2,303634,false,true,331,image-keyboard-response,27
true,3,1,2,1,true,z,false,false,0.0-2.0-0.9-0.85-3.85,0,0,1,90,false,stim,false,2,784.0,2,0,1,25237,task2,305924,false,true,334,image-keyboard-response,28
true,3,2,2,2,true,d,false,true,0.0-2.0-0.9-0.86-3.86,0,0,1,68,false,stim,false,0,1159.8000000000466,2,0,0,25237,task2,308590,false,false,337,image-keyboard-response,29
true,3,2,2,2,true,d,false,true,0.0-2.0-0.9-0.87-3.87,0,0,1,68,false,stim,false,2,562.7000000000698,2,0,2,25237,task2,310659,false,false,340,image-keyboard-response,30
true,3,2,2,2,true,d,false,true,0.0-2.0-0.9-0.88-3.88,0,0,1,68,false,stim,false,0,644.9000000000233,2,0,0,25237,task2,312810,false,false,343,image-keyboard-response,31
true,4,2,1,1,false,z,false,false,0.0-2.0-0.9-0.89-3.89,0,0,0,68,true,stim,true,2,728.0999999999767,2,0,2,25237,task2,315043,false,false,346,image-keyboard-response,1
true,4,2,1,1,false,z,false,false,0.0-2.0-0.10-0.90-3.90,0,0,0,68,false,stim,true,2,691.5,2,0,0,25237,task2,317243,false,false,349,image-keyboard-response,2
true,4,1,1,0,false,q,false,false,0.0-2.0-0.10-0.91-3.91,0,0,0,90,false,stim,true,1,883.8000000000466,2,0,1,25237,task2,319635,false,false,352,image-keyboard-response,3
true,4,2,1,1,false,z,false,false,0.0-2.0-0.10-0.92-3.92,0,0,0,68,false,stim,true,2,679.5999999999767,2,0,2,25237,task2,321820,false,false,355,image-keyboard-response,4
true,4,0,1,0,true,q,false,true,0.0-2.0-0.10-0.93-3.93,0,0,0,81,false,stim,false,1,767.6999999999534,2,0,1,25237,task2,324094,false,false,358,image-keyboard-response,5
true,4,0,1,0,true,q,false,true,0.0-2.0-0.10-0.94-3.94,0,0,0,81,false,stim,false,1,570.5999999999767,2,0,1,25237,task2,326170,false,false,361,image-keyboard-response,6
true,4,0,1,1,false,z,true,false,0.0-2.0-0.10-0.95-3.95,0,0,0,81,false,stim,false,2,480.4000000000233,2,0,2,25237,task2,328156,false,false,364,image-keyboard-response,7
true,4,1,1,1,true,z,false,true,0.0-2.0-0.10-0.96-3.96,0,0,0,90,false,stim,false,2,434.0,2,0,2,25237,task2,330097,false,false,367,image-keyboard-response,8
true,4,1,1,1,true,z,false,true,0.0-2.0-0.10-0.97-3.97,0,0,0,90,false,stim,false,2,2094.0999999999767,2,0,0,25237,task2,333696,false,false,370,image-keyboard-response,9
true,4,1,1,1,true,z,false,true,0.0-2.0-0.10-0.98-3.98,0,0,0,90,false,stim,false,2,465.5999999999767,2,0,0,25237,task2,335669,false,false,373,image-keyboard-response,10
true,4,1,1,1,true,z,false,true,0.0-2.0-0.11-0.99-3.99,0,0,0,90,false,stim,false,2,469.9000000000233,2,0,0,25237,task2,337645,false,false,376,image-keyboard-response,11
true,4,1,1,1,true,z,false,true,0.0-2.0-0.11-0.100-3.100,0,0,0,90,false,stim,false,2,617.0999999999767,2,0,2,25237,task2,339768,false,false,379,image-keyboard-response,12
true,4,1,1,1,true,z,false,true,0.0-2.0-0.11-0.101-3.101,0,0,0,90,false,stim,false,2,724.7999999999302,2,0,0,25237,task2,341999,false,false,382,image-keyboard-response,13
true,4,1,1,1,true,z,false,true,0.0-2.0-0.11-0.102-3.102,0,0,0,90,false,stim,false,2,413.79999999993015,2,0,0,25237,task2,343919,false,false,385,image-keyboard-response,14
true,4,1,1,1,true,z,false,true,0.0-2.0-0.11-0.103-3.103,0,0,0,90,false,stim,false,2,757.2999999999302,2,0,2,25237,task2,346182,false,false,388,image-keyboard-response,15
true,4,1,1,1,true,z,false,true,0.0-2.0-0.11-0.104-3.104,0,0,0,90,false,stim,false,2,416.69999999995343,2,0,2,25237,task2,348107,false,false,391,image-keyboard-response,16
true,4,0,1,0,true,q,false,true,0.0-2.0-0.11-0.105-3.105,0,0,0,81,false,stim,false,1,562.5,2,0,1,25237,task2,350175,false,false,394,image-keyboard-response,17
true,4,0,1,0,true,q,false,false,0.0-2.0-0.11-0.106-3.106,0,0,0,81,false,stim,false,1,365.29999999993015,2,0,1,25237,task2,352046,false,true,397,image-keyboard-response,18
true,4,0,1,0,true,q,false,true,0.0-2.0-0.11-0.107-3.107,0,0,0,81,false,stim,false,1,371.5,2,0,1,25237,task2,353924,false,false,400,image-keyboard-response,19
true,4,1,1,1,true,z,false,true,0.0-2.0-0.12-0.108-3.108,0,0,0,90,false,stim,false,2,853.0,2,0,2,25237,task2,356287,false,false,403,image-keyboard-response,20
true,4,1,1,1,true,z,false,true,0.0-2.0-0.12-0.109-3.109,0,0,0,90,false,stim,false,2,461.0,2,0,2,25237,task2,358254,false,false,406,image-keyboard-response,21
true,4,0,1,0,true,q,false,true,0.0-2.0-0.12-0.110-3.110,0,0,0,81,false,stim,false,1,612.2999999999302,2,0,1,25237,task2,360373,false,false,409,image-keyboard-response,22
true,4,1,1,1,true,z,false,true,0.0-2.0-0.12-0.111-3.111,0,0,0,90,false,stim,false,2,654.1999999999534,2,0,0,25237,task2,362533,false,false,412,image-keyboard-response,23
true,4,1,1,1,true,z,false,true,0.0-2.0-0.12-0.112-3.112,0,0,0,90,false,stim,false,2,473.19999999995343,2,0,0,25237,task2,364512,false,false,415,image-keyboard-response,24
true,4,1,1,1,true,z,false,true,0.0-2.0-0.12-0.113-3.113,0,0,0,90,false,stim,false,2,467.0999999999767,2,0,0,25237,task2,366486,false,false,418,image-keyboard-response,25
true,4,0,1,0,true,q,false,false,0.0-2.0-0.12-0.114-3.114,0,0,0,81,false,stim,false,1,840.9000000000233,2,0,1,25237,task2,368834,false,true,421,image-keyboard-response,26
true,4,0,1,0,true,q,false,true,0.0-2.0-0.12-0.115-3.115,0,0,0,81,false,stim,false,1,684.5999999999767,2,0,1,25237,task2,371026,false,false,424,image-keyboard-response,27
true,4,1,1,1,true,z,false,true,0.0-2.0-0.12-0.116-3.116,0,0,0,90,false,stim,false,2,536.5,2,0,2,25237,task2,373067,false,false,427,image-keyboard-response,28
true,4,1,1,1,true,z,false,true,0.0-2.0-0.13-0.117-3.117,0,0,0,90,false,stim,false,2,895.8000000000466,2,0,0,25237,task2,375468,false,false,430,image-keyboard-response,29
true,4,1,1,1,true,z,false,true,0.0-2.0-0.13-0.118-3.118,0,0,0,90,false,stim,false,2,679.1999999999534,2,0,2,25237,task2,377655,false,false,433,image-keyboard-response,30
true,4,1,1,1,true,z,false,true,0.0-2.0-0.13-0.119-3.119,0,0,0,90,false,stim,false,2,567.3000000000466,2,0,2,25237,task2,379729,false,false,436,image-keyboard-response,31
true,4,1,1,1,true,z,false,false,0.0-2.0-0.13-0.120-3.120,0,0,0,90,false,stim,false,2,649.7000000000698,2,0,0,25237,task2,381885,false,true,439,image-keyboard-response,32
true,4,0,1,0,true,q,false,true,0.0-2.0-0.13-0.121-3.121,0,0,0,81,false,stim,false,1,694.5999999999767,2,0,1,25237,task2,384085,false,false,442,image-keyboard-response,33
true,4,0,1,0,true,q,false,true,0.0-2.0-0.13-0.122-3.122,0,0,0,81,false,stim,false,1,528.7000000000698,2,0,1,25237,task2,386119,false,false,445,image-keyboard-response,34
true,4,1,1,1,true,z,false,true,0.0-2.0-0.13-0.123-3.123,0,0,0,90,false,stim,false,2,578.5999999999767,2,0,0,25237,task2,388204,false,false,448,image-keyboard-response,35
true,4,1,1,1,true,z,false,false,0.0-2.0-0.13-0.124-3.124,0,0,0,90,false,stim,false,2,748.5,2,0,2,25237,task2,390458,false,true,451,image-keyboard-response,36
true,4,0,1,0,true,q,false,true,0.0-2.0-0.13-0.125-3.125,0,0,0,81,false,stim,false,1,539.9000000000233,2,0,1,25237,task2,392503,false,false,454,image-keyboard-response,37
true,4,1,1,1,true,z,false,true,0.0-2.0-0.14-0.126-3.126,0,0,0,90,false,stim,false,2,537.2000000000698,2,0,2,25237,task2,394547,false,false,457,image-keyboard-response,38
true,5,0,1,2,false,d,false,false,0.0-2.0-0.14-0.127-3.127,0,0,0,81,true,stim,true,0,547.1999999999534,2,0,1,25237,task2,396601,false,false,460,image-keyboard-response,1
true,5,1,1,0,false,q,false,false,0.0-2.0-0.14-0.128-3.128,0,0,0,90,false,stim,true,1,1054.6000000000931,2,0,2,25237,task2,399161,false,false,463,image-keyboard-response,2
true,5,0,1,2,false,d,false,false,0.0-2.0-0.14-0.129-3.129,0,0,0,81,false,stim,true,0,643.6999999999534,2,0,1,25237,task2,401313,false,false,466,image-keyboard-response,3
true,5,1,1,0,false,q,false,true,0.0-2.0-0.14-0.130-3.130,0,0,0,90,false,stim,true,1,920.5999999999767,2,0,0,25237,task2,403739,false,true,469,image-keyboard-response,4
true,5,1,1,0,false,q,false,false,0.0-2.0-0.14-0.131-3.131,0,0,0,90,false,stim,true,1,504.4000000000233,2,0,0,25237,task2,405749,false,false,472,image-keyboard-response,5
true,5,1,1,0,false,q,false,false,0.0-2.0-0.14-0.132-3.132,0,0,0,90,false,stim,true,1,639.1999999999534,2,0,2,25237,task2,407895,false,false,475,image-keyboard-response,6
true,5,0,1,2,false,d,false,false,0.0-2.0-0.14-0.133-3.133,0,0,0,81,false,stim,true,0,1050.0,2,0,1,25237,task2,410451,false,false,478,image-keyboard-response,7
true,5,0,1,0,true,q,false,false,0.0-2.0-0.14-0.134-3.134,0,0,0,81,false,stim,false,1,855.3000000000466,2,0,0,25237,task2,412812,false,true,481,image-keyboard-response,8
true,5,2,1,0,false,q,true,false,0.0-2.0-0.15-0.135-3.135,0,0,0,68,false,stim,false,1,801.8000000000466,2,0,2,25237,task2,415120,false,false,484,image-keyboard-response,9
true,5,0,1,0,true,q,false,true,0.0-2.0-0.15-0.136-3.136,0,0,0,81,false,stim,false,1,444.19999999995343,2,0,2,25237,task2,417070,false,false,487,image-keyboard-response,10
true,5,1,1,0,false,q,false,false,0.0-2.0-0.15-0.137-3.137,0,0,0,90,false,stim,true,1,1179.1000000000931,2,0,0,25237,task2,419754,false,false,490,image-keyboard-response,11
true,5,0,1,0,true,q,false,true,0.0-2.0-0.15-0.138-3.138,0,0,0,81,false,stim,false,1,743.3000000000466,2,0,0,25237,task2,422005,false,false,493,image-keyboard-response,12
true,5,2,1,2,true,d,false,false,0.0-2.0-0.15-0.139-3.139,0,0,0,68,false,stim,false,0,840.7000000000698,2,0,1,25237,task2,424352,false,true,496,image-keyboard-response,13
true,5,0,1,0,true,q,false,true,0.0-2.0-0.15-0.140-3.140,0,0,0,81,false,stim,false,1,714.0999999999767,2,0,0,25237,task2,426571,false,false,499,image-keyboard-response,14
true,5,1,1,2,false,d,true,false,0.0-2.0-0.15-0.141-3.141,0,0,0,90,false,stim,false,0,895.5999999999767,2,0,1,25237,task2,428979,false,false,502,image-keyboard-response,15
true,5,0,1,0,true,q,false,true,0.0-2.0-0.15-0.142-3.142,0,0,0,81,false,stim,false,1,692.5999999999767,2,0,2,25237,task2,431178,false,false,505,image-keyboard-response,16
true,5,0,1,2,false,d,false,false,0.0-2.0-0.15-0.143-3.143,0,0,0,81,false,stim,true,0,624.1999999999534,2,0,1,25237,task2,433309,false,false,508,image-keyboard-response,17
true,5,0,1,0,true,q,false,false,0.0-2.0-0.16-0.144-3.144,0,0,0,81,false,stim,false,1,821.0999999999767,2,0,2,25237,task2,435637,false,true,511,image-keyboard-response,18
true,5,0,1,0,true,q,false,true,0.0-2.0-0.16-0.145-3.145,0,0,0,81,false,stim,false,1,761.3000000000466,2,0,0,25237,task2,437904,false,false,514,image-keyboard-response,19
true,5,2,1,2,true,d,false,true,0.0-2.0-0.16-0.146-3.146,0,0,0,68,false,stim,false,0,687.2999999999302,2,0,1,25237,task2,440098,false,false,517,image-keyboard-response,20
true,5,2,1,0,false,q,true,false,0.0-2.0-0.16-0.147-3.147,0,0,0,68,false,stim,false,1,576.7000000000698,2,0,2,25237,task2,442180,false,false,520,image-keyboard-response,21
true,5,2,1,2,true,d,false,true,0.0-2.0-0.16-0.148-3.148,0,0,0,68,false,stim,false,0,772.6000000000931,2,0,1,25237,task2,444458,false,false,523,image-keyboard-response,22
true,5,0,1,0,true,q,false,true,0.0-2.0-0.16-0.149-3.149,0,0,0,81,false,stim,false,1,557.8999999999069,2,0,0,25237,task2,446522,false,false,526,image-keyboard-response,23
true,5,0,1,2,false,d,false,false,0.0-2.0-0.16-0.150-3.150,0,0,0,81,false,stim,true,0,773.0999999999767,2,0,1,25237,task2,448801,false,false,529,image-keyboard-response,24
true,5,0,1,0,true,q,false,true,0.0-2.0-0.16-0.151-3.151,0,0,0,81,false,stim,false,1,613.5999999999767,2,0,0,25237,task2,450920,false,false,532,image-keyboard-response,25
true,5,1,1,0,false,q,false,false,0.0-2.0-0.16-0.152-3.152,0,0,0,90,false,stim,true,1,1274.5999999999767,2,0,2,25237,task2,453701,false,false,535,image-keyboard-response,26
true,5,0,1,0,true,q,false,false,0.0-2.0-0.17-0.153-3.153,0,0,0,81,false,stim,false,1,594.9000000000233,2,0,0,25237,task2,455803,false,true,538,image-keyboard-response,27
true,5,0,1,0,true,q,false,true,0.0-2.0-0.17-0.154-3.154,0,0,0,81,false,stim,false,1,446.10000000009313,2,0,0,25237,task2,457757,false,false,541,image-keyboard-response,28
true,5,0,1,0,true,q,false,true,0.0-2.0-0.17-0.155-3.155,0,0,0,81,false,stim,false,1,1190.0,2,0,2,25237,task2,460454,false,false,544,image-keyboard-response,29
true,5,0,1,0,true,q,false,true,0.0-2.0-0.17-0.156-3.156,0,0,0,81,false,stim,false,1,690.5,2,0,0,25237,task2,462650,false,false,547,image-keyboard-response,30
true,5,2,1,2,true,d,false,true,0.0-2.0-0.17-0.157-3.157,0,0,0,68,false,stim,false,0,515.6999999999534,2,0,1,25237,task2,464671,false,false,550,image-keyboard-response,31
true,5,0,1,0,true,q,false,true,0.0-2.0-0.17-0.158-3.158,0,0,0,81,false,stim,false,1,551.2999999999302,2,1,2,25237,task2,466729,false,false,553,image-keyboard-response,32
true,5,2,1,2,true,d,false,true,0.0-2.0-0.17-0.159-3.159,0,0,0,68,false,stim,false,0,552.2999999999302,2,0,1,25237,task2,468790,false,false,556,image-keyboard-response,33
true,5,0,1,0,true,q,false,true,0.0-2.0-0.17-0.160-3.160,0,0,0,81,false,stim,false,1,530.0,2,1,2,25237,task2,470826,false,false,559,image-keyboard-response,34
true,5,2,1,2,true,d,false,false,0.0-2.0-0.17-0.161-3.161,0,0,0,68,false,stim,false,0,690.0999999999767,2,0,1,25237,task2,473022,false,true,562,image-keyboard-response,35
true,5,0,1,0,true,q,false,true,0.0-2.0-0.18-0.162-3.162,0,0,0,81,false,stim,false,1,593.0,2,1,2,25237,task2,475122,false,false,565,image-keyboard-response,36
true,6,0,2,1,false,z,false,false,0.0-2.0-0.18-0.163-3.163,0,0,1,81,true,stim,true,0,668.7000000000698,2,0,0,25237,task2,477298,false,false,568,image-keyboard-response,1
true,6,2,2,1,false,z,false,false,0.0-2.0-0.18-0.164-3.164,0,0,1,68,false,stim,true,2,639.9000000000233,2,0,1,25237,task2,479444,false,false,571,image-keyboard-response,2
true,6,0,2,1,false,z,false,false,0.0-2.0-0.18-0.165-3.165,0,0,1,81,false,stim,true,0,603.9000000000233,2,0,0,25237,task2,481554,false,false,574,image-keyboard-response,3
true,6,0,2,1,false,z,false,false,0.0-2.0-0.18-0.166-3.166,0,0,1,81,false,stim,true,0,432.0999999999767,2,0,0,25237,task2,483493,false,false,577,image-keyboard-response,4
true,6,2,2,0,false,q,true,false,0.0-2.0-0.18-0.167-3.167,0,0,1,68,false,stim,false,0,1120.6999999999534,2,1,2,25237,task2,486121,false,false,580,image-keyboard-response,5
true,6,2,2,1,false,z,false,false,0.0-2.0-0.18-0.168-3.168,0,0,1,68,false,stim,true,2,1102.0,2,0,1,25237,task2,488728,false,false,583,image-keyboard-response,6
true,6,1,2,0,false,q,true,false,0.0-2.0-0.18-0.169-3.169,0,0,1,90,false,stim,false,0,910.1999999999534,2,1,2,25237,task2,491144,false,false,586,image-keyboard-response,7
true,6,1,2,1,true,z,false,true,0.0-2.0-0.18-0.170-3.170,0,0,1,90,false,stim,false,2,1310.3000000000466,2,0,1,25237,task2,493960,false,false,589,image-keyboard-response,8
true,6,1,2,1,true,z,false,false,0.0-2.0-0.19-0.171-3.171,0,0,1,90,false,stim,false,2,504.30000000004657,2,0,1,25237,task2,495972,false,true,592,image-keyboard-response,9
true,6,1,2,1,true,z,false,true,0.0-2.0-0.19-0.172-3.172,0,0,1,90,false,stim,false,2,483.70000000006985,2,0,1,25237,task2,497963,false,false,595,image-keyboard-response,10
true,6,2,2,1,false,z,true,true,0.0-2.0-0.19-0.173-3.173,0,0,1,68,false,stim,false,0,994.3000000000466,2,0,0,25237,task2,500463,false,true,598,image-keyboard-response,11
true,6,1,2,0,false,q,true,true,0.0-2.0-0.19-0.174-3.174,0,0,1,90,false,stim,false,0,1689.5999999999767,2,1,2,25237,task2,503665,false,true,601,image-keyboard-response,12
true,6,2,2,1,false,z,true,false,0.0-2.0-0.19-0.175-3.175,0,0,1,68,false,stim,false,0,648.2000000000698,2,0,0,25237,task2,505824,false,false,604,image-keyboard-response,13
true,6,1,2,0,false,q,true,false,0.0-2.0-0.19-0.176-3.176,0,0,1,90,false,stim,false,0,636.6999999999534,2,1,2,25237,task2,507966,false,false,607,image-keyboard-response,14
true,6,1,2,0,false,q,true,false,0.0-2.0-0.19-0.177-3.177,0,0,1,90,false,stim,false,0,419.0,2,1,2,25237,task2,509891,false,false,610,image-keyboard-response,15
true,6,2,2,1,false,z,true,false,0.0-2.0-0.19-0.178-3.178,0,0,1,68,false,stim,false,0,1188.2999999999302,2,0,0,25237,task2,512586,false,false,613,image-keyboard-response,16
true,6,1,2,1,true,z,false,true,0.0-2.0-0.19-0.179-3.179,0,0,1,90,false,stim,false,2,893.5999999999767,2,0,1,25237,task2,514990,false,false,616,image-keyboard-response,17
true,6,0,2,1,false,z,false,true,0.0-2.0-0.20-0.180-3.180,0,0,1,81,false,stim,true,0,847.7000000000698,2,0,0,25237,task2,517343,false,true,619,image-keyboard-response,18
true,6,0,2,1,false,z,false,false,0.0-2.0-0.20-0.181-3.181,0,0,1,81,false,stim,true,0,472.19999999995343,2,0,0,25237,task2,519323,false,false,622,image-keyboard-response,19
true,6,1,2,1,true,z,false,true,0.0-2.0-0.20-0.182-3.182,0,0,1,90,false,stim,false,2,1016.2000000000698,2,0,1,25237,task2,521845,false,false,625,image-keyboard-response,20
true,6,0,2,0,true,q,false,true,0.0-2.0-0.20-0.183-3.183,0,0,1,81,false,stim,false,0,1370.2000000000698,2,1,2,25237,task2,524722,false,false,628,image-keyboard-response,21
true,6,0,2,0,true,q,false,true,0.0-2.0-0.20-0.184-3.184,0,0,1,81,false,stim,false,0,499.79999999993015,2,1,2,25237,task2,526727,false,false,631,image-keyboard-response,22
true,6,0,2,0,true,q,false,false,0.0-2.0-0.20-0.185-3.185,0,0,1,81,false,stim,false,0,477.4000000000233,2,1,2,25237,task2,528712,false,true,634,image-keyboard-response,23
true,6,1,2,1,true,z,false,true,0.0-2.0-0.20-0.186-3.186,0,0,1,90,false,stim,false,2,711.1999999999534,2,0,1,25237,task2,531019,false,false,637,image-keyboard-response,24
true,6,1,2,1,true,z,false,true,0.0-2.0-0.20-0.187-3.187,0,0,1,90,false,stim,false,2,617.0999999999767,2,0,1,25237,task2,533143,false,false,640,image-keyboard-response,25
true,6,0,2,1,false,z,false,false,0.0-2.0-0.20-0.188-3.188,0,0,1,81,false,stim,true,0,867.0999999999767,2,0,0,25237,task2,535516,false,false,643,image-keyboard-response,26
true,6,0,2,0,true,q,false,true,0.0-2.0-0.21-0.189-3.189,0,0,1,81,false,stim,false,0,1143.2999999999302,2,1,2,25237,task2,538167,false,false,646,image-keyboard-response,27
true,6,1,2,1,true,z,false,true,0.0-2.0-0.21-0.190-3.190,0,0,1,90,false,stim,false,2,671.1000000000931,2,0,1,25237,task2,540345,false,false,649,image-keyboard-response,28
true,6,1,2,1,true,z,false,true,0.0-2.0-0.21-0.191-3.191,0,0,1,90,false,stim,false,2,409.5999999999767,2,0,1,25237,task2,542261,false,false,652,image-keyboard-response,29
true,6,0,2,0,true,q,false,true,0.0-2.0-0.21-0.192-3.192,0,0,1,81,false,stim,false,0,691.5,2,0,2,25237,task2,544458,false,false,655,image-keyboard-response,30
true,6,0,2,1,false,z,false,false,0.0-2.0-0.21-0.193-3.193,0,0,1,81,false,stim,true,0,797.6999999999534,2,0,0,25237,task2,546762,false,false,658,image-keyboard-response,31
true,6,1,2,1,true,z,false,true,0.0-2.0-0.21-0.194-3.194,0,0,1,90,false,stim,false,2,763.0,2,0,1,25237,task2,549032,false,false,661,image-keyboard-response,32
true,6,2,2,1,false,z,true,false,0.0-2.0-0.21-0.195-3.195,0,0,1,68,false,stim,false,0,548.5999999999767,2,0,0,25237,task2,551087,false,false,664,image-keyboard-response,33
true,6,2,2,1,false,z,true,false,0.0-2.0-0.21-0.196-3.196,0,0,1,68,false,stim,false,0,1252.5,2,0,0,25237,task2,553845,false,false,667,image-keyboard-response,34
true,7,0,1,1,false,z,false,false,0.0-2.0-0.21-0.197-3.197,0,0,0,81,true,stim,true,0,932.3999999999069,2,0,2,25237,task2,556285,false,false,670,image-keyboard-response,1
true,7,1,1,0,false,q,false,false,0.0-2.0-0.22-0.198-3.198,0,0,0,90,false,stim,true,1,739.8000000000466,2,0,1,25237,task2,558531,false,false,673,image-keyboard-response,2
true,7,1,1,1,true,z,false,true,0.0-2.0-0.22-0.199-3.199,0,0,0,90,false,stim,false,0,1057.5,2,0,2,25237,task2,561095,false,false,676,image-keyboard-response,3
true,7,1,1,2,false,d,false,false,0.0-2.0-0.22-0.200-3.200,0,0,0,90,false,stim,true,1,1196.6999999999534,2,0,0,25237,task2,563797,false,false,679,image-keyboard-response,4
true,7,0,1,2,false,d,true,false,0.0-2.0-0.22-0.201-3.201,0,0,0,81,false,stim,false,1,536.6999999999534,2,0,0,25237,task2,565842,false,false,682,image-keyboard-response,5
true,7,1,1,1,true,z,false,true,0.0-2.0-0.22-0.202-3.202,0,0,0,90,false,stim,false,0,759.1999999999534,2,0,2,25237,task2,568108,false,false,685,image-keyboard-response,6
true,7,2,1,0,false,q,true,true,0.0-2.0-0.22-0.203-3.203,0,0,0,68,false,stim,false,1,1128.4000000000233,2,0,1,25237,task2,570742,false,true,688,image-keyboard-response,7
true,7,1,1,2,false,d,false,false,0.0-2.0-0.22-0.204-3.204,0,0,0,90,false,stim,true,1,812.4000000000233,2,0,0,25237,task2,573061,false,false,691,image-keyboard-response,8
true,7,1,1,1,true,z,false,true,0.0-2.0-0.22-0.205-3.205,0,0,0,90,false,stim,false,0,1244.0999999999767,2,0,2,25237,task2,575812,false,false,694,image-keyboard-response,9
true,7,2,1,0,false,q,true,false,0.0-2.0-0.22-0.206-3.206,0,0,0,68,false,stim,false,1,388.29999999993015,2,0,1,25237,task2,577707,false,false,697,image-keyboard-response,10
true,7,2,1,0,false,q,true,false,0.0-2.0-0.23-0.207-3.207,0,0,0,68,false,stim,false,1,394.0999999999767,2,0,1,25237,task2,579609,false,false,700,image-keyboard-response,11
true,7,1,1,0,false,q,false,false,0.0-2.0-0.23-0.208-3.208,0,0,0,90,false,stim,true,1,1159.8000000000466,2,0,1,25237,task2,582286,false,false,703,image-keyboard-response,12
true,7,0,1,2,false,d,true,false,0.0-2.0-0.23-0.209-3.209,0,0,0,81,false,stim,false,1,1132.6000000000931,2,0,0,25237,task2,584926,false,false,706,image-keyboard-response,13
true,7,1,1,1,true,z,false,true,0.0-2.0-0.23-0.210-3.210,0,0,0,90,false,stim,false,0,941.5999999999767,2,0,2,25237,task2,587373,false,false,709,image-keyboard-response,14
true,7,1,1,2,false,d,false,false,0.0-2.0-0.23-0.211-3.211,0,0,0,90,false,stim,true,1,1294.0,2,0,0,25237,task2,590176,false,false,712,image-keyboard-response,15
true,7,1,1,1,true,z,false,false,0.0-2.0-0.23-0.212-3.212,0,0,0,90,false,stim,false,0,731.0999999999767,2,0,2,25237,task2,592413,false,true,715,image-keyboard-response,16
true,7,2,1,2,true,d,false,false,0.0-2.0-0.23-0.213-3.213,0,0,0,68,false,stim,false,1,577.6999999999534,2,0,0,25237,task2,594497,false,true,718,image-keyboard-response,17
true,7,1,1,1,true,z,false,true,0.0-2.0-0.23-0.214-3.214,0,0,0,90,false,stim,false,0,784.5,2,0,2,25237,task2,596788,false,false,721,image-keyboard-response,18
true,7,0,1,0,true,q,false,true,0.0-2.0-0.23-0.215-3.215,0,0,0,81,false,stim,false,1,779.9000000000233,2,0,1,25237,task2,599075,false,false,724,image-keyboard-response,19
true,7,0,1,2,false,d,true,false,0.0-2.0-0.24-0.216-3.216,0,0,0,81,false,stim,false,1,716.7000000000698,2,0,0,25237,task2,601299,false,false,727,image-keyboard-response,20
true,7,1,1,1,true,z,false,true,0.0-2.0-0.24-0.217-3.217,0,0,0,90,false,stim,false,0,890.0999999999767,2,0,2,25237,task2,603697,false,false,730,image-keyboard-response,21
true,7,2,1,2,true,d,false,true,0.0-2.0-0.24-0.218-3.218,0,0,0,68,false,stim,false,1,2429.5,2,0,0,25237,task2,607633,false,false,733,image-keyboard-response,22
true,7,2,1,2,true,d,false,true,0.0-2.0-0.24-0.219-3.219,0,0,0,68,false,stim,false,1,428.9000000000233,2,0,0,25237,task2,609570,false,false,736,image-keyboard-response,23
true,7,1,1,1,true,z,false,true,0.0-2.0-0.24-0.220-3.220,0,0,0,90,false,stim,false,0,661.7999999999302,2,0,2,25237,task2,611738,false,false,739,image-keyboard-response,24
true,7,0,1,0,true,q,false,true,0.0-2.0-0.24-0.221-3.221,0,0,0,81,false,stim,false,1,530.5,2,0,1,25237,task2,613776,false,false,742,image-keyboard-response,25
true,7,1,1,1,true,z,false,true,0.0-2.0-0.24-0.222-3.222,0,0,0,90,false,stim,false,0,1096.7999999999302,2,0,2,25237,task2,616379,false,false,745,image-keyboard-response,26
true,7,0,1,0,true,q,false,true,0.0-2.0-0.24-0.223-3.223,0,0,0,81,false,stim,false,1,564.4000000000233,2,0,1,25237,task2,618451,false,false,748,image-keyboard-response,27
true,7,0,1,0,true,q,false,true,0.0-2.0-0.24-0.224-3.224,0,0,0,81,false,stim,false,1,543.3000000000466,2,0,1,25237,task2,620500,false,false,751,image-keyboard-response,28
true,7,1,1,1,true,z,false,true,0.0-2.0-0.25-0.225-3.225,0,0,0,90,false,stim,false,0,635.1000000000931,2,0,2,25237,task2,622643,false,false,754,image-keyboard-response,29
true,7,0,1,0,true,q,false,true,0.0-2.0-0.25-0.226-3.226,0,0,0,81,false,stim,false,1,698.5999999999767,2,0,1,25237,task2,624850,false,false,757,image-keyboard-response,30
true,7,2,1,2,true,d,false,false,0.0-2.0-0.25-0.227-3.227,0,0,0,68,false,stim,false,1,593.0,2,0,0,25237,task2,626949,false,true,760,image-keyboard-response,31
true,7,1,1,1,true,z,false,true,0.0-2.0-0.25-0.228-3.228,0,0,0,90,false,stim,false,0,1166.0,2,0,2,25237,task2,629621,false,false,763,image-keyboard-response,32
true,7,0,1,0,true,q,false,true,0.0-2.0-0.25-0.229-3.229,0,0,0,81,false,stim,false,1,517.0,2,0,1,25237,task2,631646,false,false,766,image-keyboard-response,33
true,7,1,1,1,true,z,false,true,0.0-2.0-0.25-0.230-3.230,0,0,0,90,false,stim,false,0,691.8000000000466,2,0,2,25237,task2,633845,false,false,769,image-keyboard-response,34
true,7,0,1,0,true,q,false,false,0.0-2.0-0.25-0.231-3.231,0,0,0,81,false,stim,false,1,809.8000000000466,2,0,1,25237,task2,636162,false,true,772,image-keyboard-response,35
true,7,2,1,2,true,d,false,true,0.0-2.0-0.25-0.232-3.232,0,0,0,68,false,stim,false,1,733.3000000000466,2,0,0,25237,task2,638401,false,false,775,image-keyboard-response,36
true,7,2,1,2,true,d,false,true,0.0-2.0-0.25-0.233-3.233,0,0,0,68,false,stim,false,1,709.0999999999767,2,0,0,25237,task2,640616,false,false,778,image-keyboard-response,37
true,7,0,1,0,true,q,false,true,0.0-2.0-0.26-0.234-3.234,0,0,0,81,false,stim,false,1,569.8000000000466,2,0,1,25237,task2,642694,false,false,781,image-keyboard-response,38
true,8,1,1,2,false,d,false,false,0.0-2.0-0.26-0.235-3.235,0,0,0,90,true,stim,true,1,777.4000000000233,2,0,2,25237,task2,644979,false,false,784,image-keyboard-response,1
true,8,1,1,2,false,d,false,false,0.0-2.0-0.26-0.236-3.236,0,0,0,90,false,stim,true,1,480.0,2,0,2,25237,task2,646966,false,false,787,image-keyboard-response,2
true,8,0,1,1,false,z,false,false,0.0-2.0-0.26-0.237-3.237,0,0,0,81,false,stim,true,0,754.6999999999534,2,0,1,25237,task2,649230,false,false,790,image-keyboard-response,3
true,8,2,1,1,false,z,false,false,0.0-2.0-0.26-0.238-3.238,0,0,0,68,false,stim,true,2,915.7000000000698,2,0,0,25237,task2,651653,false,false,793,image-keyboard-response,4
true,8,2,1,1,false,z,false,true,0.0-2.0-0.26-0.239-3.239,0,0,0,68,false,stim,true,2,376.4000000000233,2,0,0,25237,task2,653537,false,true,796,image-keyboard-response,5
true,8,2,1,1,false,z,false,false,0.0-2.0-0.26-0.240-3.240,0,0,0,68,false,stim,true,2,606.3000000000466,2,0,0,25237,task2,655650,false,false,799,image-keyboard-response,6
true,8,2,1,1,false,z,true,false,0.0-2.0-0.26-0.241-3.241,0,0,0,68,false,stim,false,0,742.0,2,0,1,25237,task2,657907,false,false,802,image-keyboard-response,7
true,8,2,1,2,true,d,false,true,0.0-2.0-0.26-0.242-3.242,0,0,0,68,false,stim,false,1,1761.9000000000233,2,0,2,25237,task2,661176,false,false,805,image-keyboard-response,8
true,8,2,1,1,false,z,false,false,0.0-2.0-0.27-0.243-3.243,0,0,0,68,false,stim,true,2,1231.1999999999534,2,0,0,25237,task2,663917,false,false,808,image-keyboard-response,9
true,8,2,1,1,false,z,true,false,0.0-2.0-0.27-0.244-3.244,0,0,0,68,false,stim,false,0,1096.1999999999534,2,0,1,25237,task2,666522,false,false,811,image-keyboard-response,10
true,8,0,1,1,false,z,true,true,0.0-2.0-0.27-0.245-3.245,0,0,0,81,false,stim,false,2,706.5,2,0,0,25237,task2,668738,false,true,814,image-keyboard-response,11
true,8,2,1,2,true,d,false,true,0.0-2.0-0.27-0.246-3.246,0,0,0,68,false,stim,false,1,651.6999999999534,2,0,2,25237,task2,670897,false,false,817,image-keyboard-response,12
true,8,1,1,1,true,z,false,true,0.0-2.0-0.27-0.247-3.247,0,0,0,90,false,stim,false,0,507.80000000004657,2,0,1,25237,task2,672911,false,false,820,image-keyboard-response,13
true,8,2,1,2,true,d,false,true,0.0-2.0-0.27-0.248-3.248,0,0,0,68,false,stim,false,1,515.6999999999534,2,0,2,25237,task2,674934,false,false,823,image-keyboard-response,14
true,8,0,1,1,false,z,true,false,0.0-2.0-0.27-0.249-3.249,0,0,0,81,false,stim,false,2,597.8999999999069,2,0,0,25237,task2,677039,false,false,826,image-keyboard-response,15
true,8,2,1,2,true,d,false,false,0.0-2.0-0.27-0.250-3.250,0,0,0,68,false,stim,false,1,807.0999999998603,2,0,2,25237,task2,679353,false,true,829,image-keyboard-response,16
true,8,1,1,1,true,z,false,true,0.0-2.0-0.27-0.251-3.251,0,0,0,90,false,stim,false,0,440.0999999998603,2,0,1,25237,task2,681302,false,false,832,image-keyboard-response,17
true,8,0,1,1,false,z,true,false,0.0-2.0-0.28-0.252-3.252,0,0,0,81,false,stim,false,2,656.0999999998603,2,0,0,25237,task2,683465,false,false,835,image-keyboard-response,18
true,8,1,1,1,true,z,false,true,0.0-2.0-0.28-0.253-3.253,0,0,0,90,false,stim,false,0,584.6000000000931,2,0,1,25237,task2,685557,false,false,838,image-keyboard-response,19
true,8,2,1,2,true,d,false,true,0.0-2.0-0.28-0.254-3.254,0,0,0,68,false,stim,false,1,1035.8000000000466,2,0,2,25237,task2,688100,false,false,841,image-keyboard-response,20
true,8,2,1,2,true,d,false,true,0.0-2.0-0.28-0.255-3.255,0,0,0,68,false,stim,false,1,607.3999999999069,2,0,2,25237,task2,690215,false,false,844,image-keyboard-response,21
true,8,2,1,1,false,z,false,false,0.0-2.0-0.28-0.256-3.256,0,0,0,68,false,stim,true,2,446.5,2,0,0,25237,task2,692169,false,false,847,image-keyboard-response,22
true,8,2,1,2,true,d,false,false,0.0-2.0-0.28-0.257-3.257,0,0,0,68,false,stim,false,1,686.3000000000466,2,0,2,25237,task2,694363,false,true,850,image-keyboard-response,23
true,8,1,1,1,true,z,false,true,0.0-2.0-0.28-0.258-3.258,0,0,0,90,false,stim,false,0,741.1000000000931,2,0,1,25237,task2,696611,false,false,853,image-keyboard-response,24
true,8,1,1,1,true,z,false,true,0.0-2.0-0.28-0.259-3.259,0,0,0,90,false,stim,false,0,603.9000000001397,2,0,1,25237,task2,698722,false,false,856,image-keyboard-response,25
true,8,1,1,1,true,z,false,true,0.0-2.0-0.28-0.260-3.260,0,0,0,90,false,stim,false,2,557.8999999999069,2,0,0,25237,task2,700787,false,false,859,image-keyboard-response,26
true,8,1,1,1,true,z,false,false,0.0-2.0-0.29-0.261-3.261,0,0,0,90,false,stim,false,2,513.5999999998603,2,0,0,25237,task2,702807,false,true,862,image-keyboard-response,27
true,8,2,1,1,false,z,true,false,0.0-2.0-0.29-0.262-3.262,0,0,0,68,false,stim,false,0,695.5,2,0,1,25237,task2,705009,false,false,865,image-keyboard-response,28
true,8,1,1,1,true,z,false,true,0.0-2.0-0.29-0.263-3.263,0,0,0,90,false,stim,false,2,692.8000000000466,2,0,0,25237,task2,707210,false,false,868,image-keyboard-response,29
true,8,2,1,2,true,d,false,true,0.0-2.0-0.29-0.264-3.264,0,0,0,68,false,stim,false,1,884.1000000000931,2,0,2,25237,task2,709604,false,false,871,image-keyboard-response,30
true,8,2,1,2,true,d,false,true,0.0-2.0-0.29-0.265-3.265,0,0,0,68,false,stim,false,1,652.0999999998603,2,0,2,25237,task2,711763,false,false,874,image-keyboard-response,31
true,8,2,1,2,true,d,false,true,0.0-2.0-0.29-0.266-3.266,0,0,0,68,false,stim,false,1,487.19999999995343,2,0,2,25237,task2,713757,false,false,877,image-keyboard-response,32
true,8,1,1,1,true,z,false,true,0.0-2.0-0.29-0.267-3.267,0,0,0,90,false,stim,false,2,738.0,2,0,0,25237,task2,716002,false,false,880,image-keyboard-response,33
true,8,1,1,1,true,z,false,true,0.0-2.0-0.29-0.268-3.268,0,0,0,90,false,stim,false,0,1099.6999999999534,2,0,1,25237,task2,718609,false,false,883,image-keyboard-response,34
true,8,1,1,1,true,z,false,false,0.0-2.0-0.29-0.269-3.269,0,0,0,90,false,stim,false,0,438.30000000004657,2,0,1,25237,task2,720555,false,true,886,image-keyboard-response,35
true,8,2,1,2,true,d,false,true,0.0-2.0-0.30-0.270-3.270,0,0,0,68,false,stim,false,1,752.1999999999534,2,0,2,25237,task2,722813,false,false,889,image-keyboard-response,36
true,9,2,1,1,false,z,false,false,0.0-2.0-0.30-0.271-3.271,0,0,0,68,true,stim,true,2,448.0,2,0,2,25237,task2,724769,false,false,892,image-keyboard-response,1
true,9,1,1,2,false,d,false,true,0.0-2.0-0.30-0.272-3.272,0,0,0,90,false,stim,true,1,535.5,2,0,1,25237,task2,726811,false,true,895,image-keyboard-response,2
true,9,1,1,2,false,d,false,false,0.0-2.0-0.30-0.273-3.273,0,0,0,90,false,stim,true,1,507.0,2,0,0,25237,task2,728824,false,false,898,image-keyboard-response,3
true,9,2,1,1,false,z,false,false,0.0-2.0-0.30-0.274-3.274,0,0,0,68,false,stim,true,2,612.5,2,0,2,25237,task2,730955,false,false,901,image-keyboard-response,4
true,9,1,1,2,false,d,false,false,0.0-2.0-0.30-0.275-3.275,0,0,0,90,false,stim,true,1,699.3999999999069,2,0,1,25237,task2,733213,false,false,904,image-keyboard-response,5
true,9,0,1,2,false,d,true,false,0.0-2.0-0.30-0.276-3.276,0,0,0,81,false,stim,false,1,1125.8999999999069,2,0,0,25237,task2,735847,false,false,907,image-keyboard-response,6
true,9,2,1,2,true,d,false,true,0.0-2.0-0.30-0.277-3.277,0,0,0,68,false,stim,false,1,1790.0,2,0,1,25237,task2,739144,false,false,910,image-keyboard-response,7
true,9,2,1,2,true,d,false,true,0.0-2.0-0.30-0.278-3.278,0,0,0,68,false,stim,false,1,546.2999999998137,2,0,0,25237,task2,741197,false,false,913,image-keyboard-response,8
true,9,2,1,2,true,d,false,false,0.0-2.0-0.31-0.279-3.279,0,0,0,68,false,stim,false,1,485.30000000004657,2,0,0,25237,task2,743229,false,true,916,image-keyboard-response,9
true,9,2,1,2,true,d,false,true,0.0-2.0-0.31-0.280-3.280,0,0,0,68,false,stim,false,1,460.0,2,0,0,25237,task2,745196,false,false,919,image-keyboard-response,10
true,9,2,1,2,true,d,false,true,0.0-2.0-0.31-0.281-3.281,0,0,0,68,false,stim,false,1,443.5,2,0,1,25237,task2,747147,false,false,922,image-keyboard-response,11
true,9,2,1,2,true,d,false,true,0.0-2.0-0.31-0.282-3.282,0,0,0,68,false,stim,false,1,932.0,2,0,0,25237,task2,749587,false,false,925,image-keyboard-response,12
true,9,1,1,1,true,z,false,true,0.0-2.0-0.31-0.283-3.283,0,0,0,90,false,stim,false,2,521.3999999999069,2,0,2,25237,task2,751617,false,false,928,image-keyboard-response,13
true,9,2,1,2,true,d,false,true,0.0-2.0-0.31-0.284-3.284,0,0,0,68,false,stim,false,1,527.7000000001863,2,0,1,25237,task2,753652,false,false,931,image-keyboard-response,14
true,9,1,1,1,true,z,false,true,0.0-2.0-0.31-0.285-3.285,0,0,0,90,false,stim,false,2,642.0,2,0,2,25237,task2,755801,false,false,934,image-keyboard-response,15
true,9,1,1,1,true,z,false,true,0.0-2.0-0.31-0.286-3.286,0,0,0,90,false,stim,false,2,462.80000000004657,2,0,2,25237,task2,757772,false,false,937,image-keyboard-response,16
true,9,2,1,2,true,d,false,true,0.0-2.0-0.31-0.287-3.287,0,0,0,68,false,stim,false,1,534.0,2,0,1,25237,task2,759813,false,false,940,image-keyboard-response,17
true,9,1,1,1,true,z,false,true,0.0-2.0-0.32-0.288-3.288,0,0,0,90,false,stim,false,2,585.6000000000931,2,0,2,25237,task2,761906,false,false,943,image-keyboard-response,18
true,9,2,1,2,true,d,false,true,0.0-2.0-0.32-0.289-3.289,0,0,0,68,false,stim,false,1,553.0,2,0,1,25237,task2,763966,false,false,946,image-keyboard-response,19
true,9,2,1,2,true,d,false,true,0.0-2.0-0.32-0.290-3.290,0,0,0,68,false,stim,false,1,490.0,2,0,1,25237,task2,765963,false,false,949,image-keyboard-response,20
true,9,2,1,1,false,z,false,false,0.0-2.0-0.32-0.291-3.291,0,0,0,68,false,stim,true,2,1262.4000000001397,2,0,2,25237,task2,768735,false,false,952,image-keyboard-response,21
true,9,2,1,2,true,d,false,true,0.0-2.0-0.32-0.292-3.292,0,0,0,68,false,stim,false,1,598.0,2,0,0,25237,task2,770842,false,false,955,image-keyboard-response,22
true,9,2,1,2,true,d,false,true,0.0-2.0-0.32-0.293-3.293,0,0,0,68,false,stim,false,1,649.2000000001863,2,0,1,25237,task2,772998,false,false,958,image-keyboard-response,23
true,9,2,1,2,true,d,false,false,0.0-2.0-0.32-0.294-3.294,0,0,0,68,false,stim,false,1,477.0,2,0,0,25237,task2,774983,false,true,961,image-keyboard-response,24
true,9,2,1,2,true,d,false,false,0.0-2.0-0.32-0.295-3.295,0,0,0,68,false,stim,false,1,468.10000000009313,2,0,0,25237,task2,776958,false,true,964,image-keyboard-response,25
true,9,1,1,1,true,z,false,true,0.0-2.0-0.32-0.296-3.296,0,0,0,90,false,stim,false,2,459.19999999995343,2,0,2,25237,task2,778926,false,false,967,image-keyboard-response,26
true,9,1,1,1,true,z,false,false,0.0-2.0-0.33-0.297-3.297,0,0,0,90,false,stim,false,2,736.0,2,0,2,25237,task2,781169,false,true,970,image-keyboard-response,27
true,9,2,1,2,true,d,false,true,0.0-2.0-0.33-0.298-3.298,0,0,0,68,false,stim,false,1,937.1999999999534,2,0,1,25237,task2,783614,false,false,973,image-keyboard-response,28
true,9,0,1,2,false,d,true,false,0.0-2.0-0.33-0.299-3.299,0,0,0,81,false,stim,false,1,488.5,2,0,0,25237,task2,785612,false,false,976,image-keyboard-response,29
true,9,0,1,2,false,d,true,false,0.0-2.0-0.33-0.300-3.300,0,0,0,81,false,stim,false,1,672.6000000000931,2,0,0,25237,task2,787792,false,false,979,image-keyboard-response,30
true,9,1,1,1,true,z,false,true,0.0-2.0-0.33-0.301-3.301,0,0,0,90,false,stim,false,2,1031.0,2,0,2,25237,task2,790331,false,false,982,image-keyboard-response,31
true,9,1,1,1,true,z,false,true,0.0-2.0-0.33-0.302-3.302,0,0,0,90,false,stim,false,2,614.3000000000466,2,0,2,25237,task2,792452,false,false,985,image-keyboard-response,32
true,9,1,1,2,false,d,false,false,0.0-2.0-0.33-0.303-3.303,0,0,0,90,false,stim,true,1,563.7000000001863,2,1,0,25237,task2,794524,false,false,988,image-keyboard-response,33
true,9,2,1,2,true,d,false,true,0.0-2.0-0.33-0.304-3.304,0,0,0,68,false,stim,false,1,914.5,2,0,1,25237,task2,796946,false,false,991,image-keyboard-response,34
true,9,2,1,2,true,d,false,true,0.0-2.0-0.33-0.305-3.305,0,0,0,68,false,stim,false,1,614.4000000001397,2,0,1,25237,task2,799068,false,false,994,image-keyboard-response,35
true,9,1,1,2,false,d,false,false,0.0-2.0-0.34-0.306-3.306,0,0,0,90,false,stim,true,1,404.39999999990687,2,1,0,25237,task2,800980,false,false,997,image-keyboard-response,36
true,10,1,2,2,false,d,false,false,0.0-2.0-0.34-0.307-3.307,1,0,0,90,true,stim,true,1,1133.8999999999069,2,0,2,25237,task2,803621,false,false,1000,image-keyboard-response,1
true,10,1,2,2,false,d,false,false,0.0-2.0-0.34-0.308-3.308,1,0,0,90,false,stim,true,1,464.10000000009313,2,0,2,25237,task2,805644,false,false,1003,image-keyboard-response,2
true,10,2,2,0,false,q,false,false,0.0-2.0-0.34-0.309-3.309,1,0,0,68,false,stim,true,2,863.3000000000466,2,0,1,25237,task2,808015,false,false,1006,image-keyboard-response,3
true,10,2,2,0,false,q,false,false,0.0-2.0-0.34-0.310-3.310,1,0,0,68,false,stim,true,2,508.5,2,0,1,25237,task2,810031,false,false,1009,image-keyboard-response,4
true,10,2,2,2,true,d,false,true,0.0-2.0-0.34-0.311-3.311,1,0,0,68,false,stim,false,1,1513.7999999998137,2,0,2,25237,task2,813053,false,false,1012,image-keyboard-response,5
true,10,1,2,0,false,q,true,false,0.0-2.0-0.34-0.312-3.312,1,0,0,90,false,stim,false,2,959.5,2,0,1,25237,task2,815552,false,false,1015,image-keyboard-response,6
true,10,2,2,2,true,d,false,true,0.0-2.0-0.34-0.313-3.313,1,0,0,68,false,stim,false,2,770.1999999999534,2,1,0,25237,task2,817831,false,false,1018,image-keyboard-response,7
true,10,2,2,2,true,d,false,true,0.0-2.0-0.34-0.314-3.314,1,0,0,68,false,stim,false,2,592.3999999999069,2,1,0,25237,task2,819932,false,false,1021,image-keyboard-response,8
true,10,2,2,2,true,d,false,false,0.0-2.0-0.35-0.315-3.315,1,0,0,68,false,stim,false,1,951.7999999998137,2,0,2,25237,task2,822392,false,true,1024,image-keyboard-response,9
true,10,2,2,2,true,d,false,true,0.0-2.0-0.35-0.316-3.316,1,0,0,68,false,stim,false,2,1067.5,2,1,0,25237,task2,824967,false,false,1027,image-keyboard-response,10
true,10,2,2,2,true,d,false,true,0.0-2.0-0.35-0.317-3.317,1,0,0,68,false,stim,false,2,441.80000000004657,2,1,0,25237,task2,826916,false,false,1030,image-keyboard-response,11
true,10,0,2,0,true,q,false,true,0.0-2.0-0.35-0.318-3.318,1,0,0,81,false,stim,false,2,488.30000000004657,2,0,1,25237,task2,828913,false,false,1033,image-keyboard-response,12
true,10,2,2,2,true,d,false,false,0.0-2.0-0.35-0.319-3.319,1,0,0,68,false,stim,false,1,503.5,2,0,2,25237,task2,830925,false,true,1036,image-keyboard-response,13
true,10,1,2,2,false,d,false,false,0.0-2.0-0.35-0.320-3.320,1,0,0,90,false,stim,true,1,975.5,2,0,2,25237,task2,833408,false,false,1039,image-keyboard-response,14
true,10,2,2,2,true,d,false,true,0.0-2.0-0.35-0.321-3.321,1,0,0,68,false,stim,false,2,607.7999999998137,2,1,0,25237,task2,835525,false,false,1042,image-keyboard-response,15
true,10,0,2,0,true,q,false,true,0.0-2.0-0.35-0.322-3.322,1,0,0,81,false,stim,false,2,908.5,2,0,1,25237,task2,837941,false,false,1045,image-keyboard-response,16
true,10,0,2,0,true,q,false,true,0.0-2.0-0.35-0.323-3.323,1,0,0,81,false,stim,false,2,528.1000000000931,2,0,1,25237,task2,839976,false,false,1048,image-keyboard-response,17
true,10,0,2,0,true,q,false,true,0.0-2.0-0.36-0.324-3.324,1,0,0,81,false,stim,false,2,486.60000000009313,2,0,1,25237,task2,841972,false,false,1051,image-keyboard-response,18
true,10,0,2,2,false,d,true,false,0.0-2.0-0.36-0.325-3.325,1,0,0,81,false,stim,false,1,437.79999999981374,2,0,2,25237,task2,843917,false,false,1054,image-keyboard-response,19
true,10,0,2,0,true,q,false,true,0.0-2.0-0.36-0.326-3.326,1,0,0,81,false,stim,false,2,685.8000000000466,2,0,1,25237,task2,846111,false,false,1057,image-keyboard-response,20
true,10,0,2,2,false,d,true,false,0.0-2.0-0.36-0.327-3.327,1,0,0,81,false,stim,false,1,450.0,2,0,2,25237,task2,848068,false,false,1060,image-keyboard-response,21
true,10,0,2,0,true,q,false,true,0.0-2.0-0.36-0.328-3.328,1,0,0,81,false,stim,false,2,443.30000000004657,2,0,1,25237,task2,850019,false,false,1063,image-keyboard-response,22
true,10,2,2,2,true,d,false,true,0.0-2.0-0.36-0.329-3.329,1,0,0,68,false,stim,false,2,614.8000000000466,2,1,0,25237,task2,852142,false,false,1066,image-keyboard-response,23
true,10,2,2,2,true,d,false,false,0.0-2.0-0.36-0.330-3.330,1,0,0,68,false,stim,false,1,596.0,2,0,2,25237,task2,854245,false,true,1069,image-keyboard-response,24
true,10,2,2,2,true,d,false,true,0.0-2.0-0.36-0.331-3.331,1,0,0,68,false,stim,false,2,1047.9000000001397,2,1,0,25237,task2,856801,false,false,1072,image-keyboard-response,25
true,10,2,2,2,true,d,false,true,0.0-2.0-0.36-0.332-3.332,1,0,0,68,false,stim,false,2,560.3000000000466,2,1,0,25237,task2,858868,false,false,1075,image-keyboard-response,26
true,10,2,2,2,true,d,false,true,0.0-2.0-0.37-0.333-3.333,1,0,0,68,false,stim,false,2,537.2999999998137,2,1,0,25237,task2,860913,false,false,1078,image-keyboard-response,27
true,10,1,2,0,false,q,true,false,0.0-2.0-0.37-0.334-3.334,1,0,0,90,false,stim,false,2,448.30000000004657,2,0,1,25237,task2,862869,false,false,1081,image-keyboard-response,28
true,10,1,2,2,false,d,false,true,0.0-2.0-0.37-0.335-3.335,1,0,0,90,false,stim,true,1,711.6999999999534,2,1,2,25237,task2,865088,false,true,1084,image-keyboard-response,29
true,10,2,2,2,true,d,false,true,0.0-2.0-0.37-0.336-3.336,1,0,0,68,false,stim,false,2,611.5,2,0,0,25237,task2,867209,false,false,1087,image-keyboard-response,30
true,10,2,2,2,true,d,false,true,0.0-2.0-0.37-0.337-3.337,1,0,0,68,false,stim,false,2,630.1999999999534,2,0,0,25237,task2,869346,false,false,1090,image-keyboard-response,31
true,10,0,2,0,true,q,false,true,0.0-2.0-0.37-0.338-3.338,1,0,0,81,false,stim,false,2,455.30000000004657,2,0,1,25237,task2,871310,false,false,1093,image-keyboard-response,32
true,11,1,2,2,false,d,true,true,0.0-2.0-0.37-0.339-3.339,0,0,1,90,true,stim,false,2,560.8000000000466,2,1,2,25237,task2,873379,false,true,1096,image-keyboard-response,1
true,11,0,2,1,false,z,false,true,0.0-2.0-0.37-0.340-3.340,0,0,1,81,false,stim,true,0,578.6999999999534,2,0,1,25237,task2,875465,false,true,1099,image-keyboard-response,2
true,11,1,2,2,false,d,true,false,0.0-2.0-0.37-0.341-3.341,0,0,1,90,false,stim,false,2,847.0,2,1,2,25237,task2,877835,false,false,1102,image-keyboard-response,3
true,11,1,2,2,false,d,true,false,0.0-2.0-0.38-0.342-3.342,0,0,1,90,false,stim,false,2,418.39999999990687,2,1,2,25237,task2,879792,false,false,1105,image-keyboard-response,4
true,11,0,2,2,false,d,true,false,0.0-2.0-0.38-0.343-3.343,0,0,1,81,false,stim,false,2,1387.5,2,1,2,25237,task2,882698,false,false,1108,image-keyboard-response,5
true,11,2,2,0,false,q,false,false,0.0-2.0-0.38-0.344-3.344,0,0,1,68,false,stim,true,2,1021.0,2,0,0,25237,task2,885226,false,false,1111,image-keyboard-response,6
true,11,2,2,2,true,d,false,true,0.0-2.0-0.38-0.345-3.345,0,0,1,68,false,stim,false,2,755.8000000000466,2,1,2,25237,task2,887489,false,false,1114,image-keyboard-response,7
true,11,0,2,0,true,q,false,true,0.0-2.0-0.38-0.346-3.346,0,0,1,81,false,stim,false,2,763.0,2,0,0,25237,task2,889764,false,false,1117,image-keyboard-response,8
true,11,1,2,1,true,z,false,true,0.0-2.0-0.38-0.347-3.347,0,0,1,90,false,stim,false,0,691.0,2,0,1,25237,task2,891962,false,false,1120,image-keyboard-response,9
true,11,1,2,1,true,z,false,false,0.0-2.0-0.38-0.348-3.348,0,0,1,90,false,stim,false,0,416.80000000004657,2,0,1,25237,task2,893887,false,true,1123,image-keyboard-response,10
true,11,1,2,1,true,z,false,true,0.0-2.0-0.38-0.349-3.349,0,0,1,90,false,stim,false,0,598.9000000001397,2,0,1,25237,task2,895993,false,false,1126,image-keyboard-response,11
true,11,0,2,0,true,q,false,true,0.0-2.0-0.38-0.350-3.350,0,0,1,81,false,stim,false,2,586.0,2,0,0,25237,task2,898087,false,false,1129,image-keyboard-response,12
true,11,2,2,2,true,d,false,false,0.0-2.0-0.39-0.351-3.351,0,0,1,68,false,stim,false,2,774.8000000000466,2,1,2,25237,task2,900369,false,true,1132,image-keyboard-response,13
true,11,1,2,1,true,z,false,false,0.0-2.0-0.39-0.352-3.352,0,0,1,90,false,stim,false,0,722.5999999998603,2,0,1,25237,task2,902599,false,true,1135,image-keyboard-response,14
true,11,0,2,0,true,q,false,true,0.0-2.0-0.39-0.353-3.353,0,0,1,81,false,stim,false,2,583.1999999999534,2,0,0,25237,task2,904690,false,false,1138,image-keyboard-response,15
true,11,1,2,1,true,z,false,true,0.0-2.0-0.39-0.354-3.354,0,0,1,90,false,stim,false,0,634.5,2,0,1,25237,task2,906832,false,false,1141,image-keyboard-response,16
true,11,0,2,0,true,q,false,true,0.0-2.0-0.39-0.355-3.355,0,0,1,81,false,stim,false,2,735.3999999999069,2,0,0,25237,task2,909079,false,false,1144,image-keyboard-response,17
true,11,0,2,0,true,q,false,true,0.0-2.0-0.39-0.356-3.356,0,0,1,81,false,stim,false,2,604.8999999999069,2,0,0,25237,task2,911192,false,false,1147,image-keyboard-response,18
true,11,2,2,2,true,d,false,false,0.0-2.0-0.39-0.357-3.357,0,0,1,68,false,stim,false,2,633.5,2,1,2,25237,task2,913333,false,true,1150,image-keyboard-response,19
true,11,1,2,1,true,z,false,true,0.0-2.0-0.39-0.358-3.358,0,0,1,90,false,stim,false,0,1117.9000000001397,2,0,1,25237,task2,915959,false,false,1153,image-keyboard-response,20
true,11,2,2,2,true,d,false,true,0.0-2.0-0.39-0.359-3.359,0,0,1,68,false,stim,false,2,625.5999999998603,2,1,2,25237,task2,918095,false,false,1156,image-keyboard-response,21
true,11,1,2,1,true,z,false,true,0.0-2.0-0.40-0.360-3.360,0,0,1,90,false,stim,false,0,673.3000000000466,2,0,1,25237,task2,920275,false,false,1159,image-keyboard-response,22
true,11,0,2,0,true,q,false,true,0.0-2.0-0.40-0.361-3.361,0,0,1,81,false,stim,false,2,641.6999999999534,2,0,0,25237,task2,922426,false,false,1162,image-keyboard-response,23
true,11,2,2,2,true,d,false,true,0.0-2.0-0.40-0.362-3.362,0,0,1,68,false,stim,false,2,716.9000000001397,2,1,2,25237,task2,924650,false,false,1165,image-keyboard-response,24
true,11,0,2,0,true,q,false,true,0.0-2.0-0.40-0.363-3.363,0,0,1,81,false,stim,false,2,717.4000000001397,2,0,0,25237,task2,926876,false,false,1168,image-keyboard-response,25
true,11,2,2,2,true,d,false,true,0.0-2.0-0.40-0.364-3.364,0,0,1,68,false,stim,false,2,1287.3000000000466,2,1,2,25237,task2,929671,false,false,1171,image-keyboard-response,26
true,11,2,2,2,true,d,false,true,0.0-2.0-0.40-0.365-3.365,0,0,1,68,false,stim,false,2,484.0999999998603,2,1,2,25237,task2,931664,false,false,1174,image-keyboard-response,27
true,11,1,2,1,true,z,false,true,0.0-2.0-0.40-0.366-3.366,0,0,1,90,false,stim,false,0,522.0,2,0,1,25237,task2,933693,false,false,1177,image-keyboard-response,28
true,11,1,2,1,true,z,false,true,0.0-2.0-0.40-0.367-3.367,0,0,1,90,false,stim,false,0,445.0999999998603,2,0,1,25237,task2,935646,false,false,1180,image-keyboard-response,29
true,11,0,2,0,true,q,false,true,0.0-2.0-0.40-0.368-3.368,0,0,1,81,false,stim,false,2,879.6999999999534,2,0,0,25237,task2,938032,false,false,1183,image-keyboard-response,30
true,11,2,2,2,true,d,false,true,0.0-2.0-0.41-0.369-3.369,0,0,1,68,false,stim,false,2,621.3999999999069,2,0,2,25237,task2,940162,false,false,1186,image-keyboard-response,31
true,11,2,2,2,true,d,false,true,0.0-2.0-0.41-0.370-3.370,0,0,1,68,false,stim,false,2,400.79999999981374,2,0,2,25237,task2,942071,false,false,1189,image-keyboard-response,32
true,12,0,1,0,true,q,false,true,0.0-2.0-0.41-0.371-3.371,0,0,0,81,true,stim,false,1,662.8999999999069,2,0,1,25237,task2,944241,false,false,1192,image-keyboard-response,1
true,12,1,1,1,true,z,false,true,0.0-2.0-0.41-0.372-3.372,0,0,0,90,false,stim,false,0,1118.1000000000931,2,0,0,25237,task2,946867,false,false,1195,image-keyboard-response,2
true,12,1,1,1,true,z,false,true,0.0-2.0-0.41-0.373-3.373,0,0,0,90,false,stim,false,0,399.0,2,0,0,25237,task2,948774,false,false,1198,image-keyboard-response,3
true,12,0,1,0,true,q,false,false,0.0-2.0-0.41-0.374-3.374,0,0,0,81,false,stim,false,1,572.3999999999069,2,0,1,25237,task2,950872,false,true,1201,image-keyboard-response,4
true,12,2,1,0,false,q,false,false,0.0-2.0-0.41-0.375-3.375,0,0,0,68,false,stim,true,2,745.6999999999534,2,0,2,25237,task2,953161,false,false,1204,image-keyboard-response,5
true,12,1,1,1,true,z,false,true,0.0-2.0-0.41-0.376-3.376,0,0,0,90,false,stim,false,0,693.0,2,0,0,25237,task2,955415,false,false,1207,image-keyboard-response,6
true,12,0,1,0,true,q,false,true,0.0-2.0-0.41-0.377-3.377,0,0,0,81,false,stim,false,1,705.7000000001863,2,0,1,25237,task2,957630,false,false,1210,image-keyboard-response,7
true,12,1,1,1,true,z,false,true,0.0-2.0-0.42-0.378-3.378,0,0,0,90,false,stim,false,0,691.6999999999534,2,0,0,25237,task2,959832,false,false,1213,image-keyboard-response,8
true,12,1,1,1,true,z,false,false,0.0-2.0-0.42-0.379-3.379,0,0,0,90,false,stim,false,0,510.29999999981374,2,0,0,25237,task2,961850,false,true,1216,image-keyboard-response,9
true,12,1,1,0,false,q,true,false,0.0-2.0-0.42-0.380-3.380,0,0,0,90,false,stim,false,2,1119.8999999999069,2,0,2,25237,task2,964478,false,false,1219,image-keyboard-response,10
true,12,1,1,0,false,q,true,false,0.0-2.0-0.42-0.381-3.381,0,0,0,90,false,stim,false,2,414.79999999981374,2,0,2,25237,task2,966400,false,false,1222,image-keyboard-response,11
true,12,0,1,0,true,q,false,true,0.0-2.0-0.42-0.382-3.382,0,0,0,81,false,stim,false,1,708.5999999998603,2,0,1,25237,task2,968617,false,false,1225,image-keyboard-response,12
true,12,1,1,1,true,z,false,true,0.0-2.0-0.42-0.383-3.383,0,0,0,90,false,stim,false,0,733.0999999998603,2,0,0,25237,task2,970858,false,false,1228,image-keyboard-response,13
true,12,0,1,0,true,q,false,true,0.0-2.0-0.42-0.384-3.384,0,0,0,81,false,stim,false,1,835.8000000000466,2,0,1,25237,task2,973202,false,false,1231,image-keyboard-response,14
true,12,0,1,0,true,q,false,true,0.0-2.0-0.42-0.385-3.385,0,0,0,81,false,stim,false,1,483.9000000001397,2,0,1,25237,task2,975193,false,false,1234,image-keyboard-response,15
true,12,0,1,0,true,q,false,true,0.0-2.0-0.42-0.386-3.386,0,0,0,81,false,stim,false,2,546.5999999998603,2,0,2,25237,task2,977248,false,false,1237,image-keyboard-response,16
true,12,1,1,1,true,z,false,true,0.0-2.0-0.43-0.387-3.387,0,0,0,90,false,stim,false,0,1075.8999999999069,2,0,0,25237,task2,979834,false,false,1240,image-keyboard-response,17
true,12,0,1,0,true,q,false,true,0.0-2.0-0.43-0.388-3.388,0,0,0,81,false,stim,false,2,988.8000000000466,2,0,2,25237,task2,982331,false,false,1243,image-keyboard-response,18
true,12,0,1,0,true,q,false,true,0.0-2.0-0.43-0.389-3.389,0,0,0,81,false,stim,false,2,605.5,2,0,2,25237,task2,984444,false,false,1246,image-keyboard-response,19
true,12,0,1,0,true,q,false,true,0.0-2.0-0.43-0.390-3.390,0,0,0,81,false,stim,false,2,482.39999999990687,2,0,2,25237,task2,986434,false,false,1249,image-keyboard-response,20
true,12,1,1,0,false,q,false,true,0.0-2.0-0.43-0.391-3.391,0,0,0,90,false,stim,true,1,707.8000000000466,2,0,1,25237,task2,988650,false,true,1252,image-keyboard-response,21
true,12,1,1,1,true,z,false,true,0.0-2.0-0.43-0.392-3.392,0,0,0,90,false,stim,false,0,951.4000000001397,2,0,0,25237,task2,991109,false,false,1255,image-keyboard-response,22
true,12,1,1,0,false,q,false,false,0.0-2.0-0.43-0.393-3.393,0,0,0,90,false,stim,true,1,833.3000000000466,2,0,1,25237,task2,993450,false,false,1258,image-keyboard-response,23
true,12,1,1,1,true,z,false,true,0.0-2.0-0.43-0.394-3.394,0,0,0,90,false,stim,false,0,635.9000000001397,2,0,0,25237,task2,995595,false,false,1261,image-keyboard-response,24
true,12,1,1,0,false,q,false,false,0.0-2.0-0.43-0.395-3.395,0,0,0,90,false,stim,true,1,452.4000000001397,2,0,1,25237,task2,997555,false,false,1264,image-keyboard-response,25
true,12,2,1,0,false,q,true,false,0.0-2.0-0.44-0.396-3.396,0,0,0,68,false,stim,false,1,404.69999999995343,2,0,1,25237,task2,999469,false,false,1267,image-keyboard-response,26
true,12,0,1,0,true,q,false,true,0.0-2.0-0.44-0.397-3.397,0,0,0,81,false,stim,false,2,1152.0,2,0,2,25237,task2,1002129,false,false,1270,image-keyboard-response,27
true,12,1,1,1,true,z,false,true,0.0-2.0-0.44-0.398-3.398,0,0,0,90,false,stim,false,0,709.1999999999534,2,0,0,25237,task2,1004345,false,false,1273,image-keyboard-response,28
true,12,1,1,0,false,q,true,false,0.0-2.0-0.44-0.399-3.399,0,0,0,90,false,stim,false,2,564.0999999998603,2,0,2,25237,task2,1006419,false,false,1276,image-keyboard-response,29
true,12,0,1,0,true,q,false,true,0.0-2.0-0.44-0.400-3.400,0,0,0,81,false,stim,false,1,463.30000000004657,2,0,1,25237,task2,1008391,false,false,1279,image-keyboard-response,30
true,12,1,1,1,true,z,false,true,0.0-2.0-0.44-0.401-3.401,0,0,0,90,false,stim,false,0,685.4000000001397,2,0,0,25237,task2,1010587,false,false,1282,image-keyboard-response,31
true,12,0,1,0,true,q,false,false,0.0-2.0-0.44-0.402-3.402,0,0,0,81,false,stim,false,2,392.4000000001397,2,1,2,25237,task2,1012487,false,true,1285,image-keyboard-response,32
true,12,0,1,0,true,q,false,false,0.0-2.0-0.44-0.403-3.403,0,0,0,81,false,stim,false,1,779.6999999999534,2,0,1,25237,task2,1014775,false,true,1288,image-keyboard-response,33
true,12,1,1,1,true,z,false,true,0.0-2.0-0.44-0.404-3.404,0,0,0,90,false,stim,false,0,627.6000000000931,2,0,0,25237,task2,1016911,false,false,1291,image-keyboard-response,34
true,12,0,1,0,true,q,false,true,0.0-2.0-0.45-0.405-3.405,0,0,0,81,false,stim,false,2,930.5,2,1,2,25237,task2,1019351,false,false,1294,image-keyboard-response,35
true,13,0,2,1,false,z,false,false,0.0-2.0-0.45-0.406-3.406,0,0,1,81,true,stim,true,0,639.6000000002095,2,0,1,25237,task2,1021499,false,false,1297,image-keyboard-response,1
true,13,1,2,2,false,d,false,false,0.0-2.0-0.45-0.407-3.407,0,0,1,90,false,stim,true,1,966.7999999998137,2,0,0,25237,task2,1023975,false,false,1300,image-keyboard-response,2
true,13,0,2,1,false,z,false,false,0.0-2.0-0.45-0.408-3.408,0,0,1,81,false,stim,true,0,719.8999999999069,2,0,1,25237,task2,1026253,false,false,1303,image-keyboard-response,3
true,13,0,2,0,true,q,false,true,0.0-2.0-0.45-0.409-3.409,0,0,1,81,false,stim,false,0,1714.6000000000931,2,1,2,25237,task2,1029508,false,false,1306,image-keyboard-response,4
true,13,2,2,2,true,d,false,true,0.0-2.0-0.45-0.410-3.410,0,0,1,68,false,stim,false,1,1200.5,2,0,0,25237,task2,1032218,false,false,1309,image-keyboard-response,5
true,13,2,2,1,false,z,true,false,0.0-2.0-0.45-0.411-3.411,0,0,1,68,false,stim,false,0,1034.5,2,0,1,25237,task2,1034759,false,false,1312,image-keyboard-response,6
true,13,0,2,0,true,q,false,true,0.0-2.0-0.45-0.412-3.412,0,0,1,81,false,stim,false,0,872.5,2,1,2,25237,task2,1037140,false,false,1315,image-keyboard-response,7
true,13,2,2,2,true,d,false,true,0.0-2.0-0.45-0.413-3.413,0,0,1,68,false,stim,false,1,752.3999999999069,2,0,0,25237,task2,1039401,false,false,1318,image-keyboard-response,8
true,13,0,2,0,true,q,false,true,0.0-2.0-0.46-0.414-3.414,0,0,1,81,false,stim,false,0,866.0,2,1,2,25237,task2,1041777,false,false,1321,image-keyboard-response,9
true,13,0,2,0,true,q,false,false,0.0-2.0-0.46-0.415-3.415,0,0,1,81,false,stim,false,0,748.3999999999069,2,1,2,25237,task2,1044034,false,true,1324,image-keyboard-response,10
true,13,1,2,1,true,z,false,true,0.0-2.0-0.46-0.416-3.416,0,0,1,90,false,stim,false,0,934.5,2,0,1,25237,task2,1046476,false,false,1327,image-keyboard-response,11
true,13,1,2,1,true,z,false,true,0.0-2.0-0.46-0.417-3.417,0,0,1,90,false,stim,false,0,480.10000000009313,2,0,1,25237,task2,1048463,false,false,1330,image-keyboard-response,12
true,13,2,2,2,true,d,false,true,0.0-2.0-0.46-0.418-3.418,0,0,1,68,false,stim,false,1,1303.1000000000931,2,0,0,25237,task2,1051275,false,false,1333,image-keyboard-response,13
true,13,1,2,1,true,z,false,true,0.0-2.0-0.46-0.419-3.419,0,0,1,90,false,stim,false,0,845.8999999999069,2,0,1,25237,task2,1053630,false,false,1336,image-keyboard-response,14
true,13,2,2,2,true,d,false,true,0.0-2.0-0.46-0.420-3.420,0,0,1,68,false,stim,false,1,1119.5999999996275,2,0,0,25237,task2,1056258,false,false,1339,image-keyboard-response,15
true,13,2,2,2,true,d,false,true,0.0-2.0-0.46-0.421-3.421,0,0,1,68,false,stim,false,1,452.60000000009313,2,0,0,25237,task2,1058218,false,false,1342,image-keyboard-response,16
true,13,0,2,0,true,q,false,true,0.0-2.0-0.46-0.422-3.422,0,0,1,81,false,stim,false,0,1152.3000000002794,2,1,2,25237,task2,1060878,false,false,1345,image-keyboard-response,17
true,13,0,2,0,true,q,false,true,0.0-2.0-0.47-0.423-3.423,0,0,1,81,false,stim,false,0,493.79999999981374,2,1,2,25237,task2,1062881,false,false,1348,image-keyboard-response,18
true,13,1,2,1,true,z,false,true,0.0-2.0-0.47-0.424-3.424,0,0,1,90,false,stim,false,0,646.3000000002794,2,0,1,25237,task2,1065035,false,false,1351,image-keyboard-response,19
true,13,2,2,2,true,d,false,true,0.0-2.0-0.47-0.425-3.425,0,0,1,68,false,stim,false,1,1020.6999999997206,2,0,0,25237,task2,1067565,false,false,1354,image-keyboard-response,20
true,13,2,2,2,true,d,false,true,0.0-2.0-0.47-0.426-3.426,0,0,1,68,false,stim,false,1,499.20000000018626,2,0,0,25237,task2,1069574,false,false,1357,image-keyboard-response,21
true,13,1,2,1,true,z,false,true,0.0-2.0-0.47-0.427-3.427,0,0,1,90,false,stim,false,0,889.5999999996275,2,0,1,25237,task2,1071974,false,false,1360,image-keyboard-response,22
true,13,0,2,0,true,q,false,true,0.0-2.0-0.47-0.428-3.428,0,0,1,81,false,stim,false,0,595.1999999997206,2,1,2,25237,task2,1074077,false,false,1363,image-keyboard-response,23
true,13,0,2,0,true,q,false,true,0.0-2.0-0.47-0.429-3.429,0,0,1,81,false,stim,false,0,436.09999999962747,2,1,2,25237,task2,1076022,false,false,1366,image-keyboard-response,24
true,13,2,2,2,true,d,false,false,0.0-2.0-0.47-0.430-3.430,0,0,1,68,false,stim,false,1,1308.1999999997206,2,0,0,25237,task2,1078839,false,true,1369,image-keyboard-response,25
true,13,2,2,1,false,z,true,false,0.0-2.0-0.47-0.431-3.431,0,0,1,68,false,stim,false,0,1066.0,2,0,1,25237,task2,1081413,false,false,1372,image-keyboard-response,26
true,13,0,2,0,true,q,false,true,0.0-2.0-0.48-0.432-3.432,0,0,1,81,false,stim,false,0,1063.1000000000931,2,1,2,25237,task2,1083986,false,false,1375,image-keyboard-response,27
true,13,1,2,2,false,d,false,false,0.0-2.0-0.48-0.433-3.433,0,0,1,90,false,stim,true,1,711.0,2,0,0,25237,task2,1086206,false,false,1378,image-keyboard-response,28
true,13,0,2,0,true,q,false,true,0.0-2.0-0.48-0.434-3.434,0,0,1,81,false,stim,false,0,1013.8999999999069,2,1,2,25237,task2,1088728,false,false,1381,image-keyboard-response,29
true,13,2,2,1,false,z,true,false,0.0-2.0-0.48-0.435-3.435,0,0,1,68,false,stim,false,0,1157.3999999999069,2,0,1,25237,task2,1091394,false,false,1384,image-keyboard-response,30
true,13,0,2,2,false,d,true,false,0.0-2.0-0.48-0.436-3.436,0,0,1,81,false,stim,false,1,1191.1000000000931,2,0,0,25237,task2,1094095,false,false,1387,image-keyboard-response,31
true,13,1,2,2,false,d,false,false,0.0-2.0-0.48-0.437-3.437,0,0,1,90,false,stim,true,1,1228.5,2,0,0,25237,task2,1096832,false,false,1390,image-keyboard-response,32
true,13,0,2,0,true,q,false,true,0.0-2.0-0.48-0.438-3.438,0,0,1,81,false,stim,false,0,981.6000000000931,2,0,2,25237,task2,1099322,false,false,1393,image-keyboard-response,33
true,13,0,2,1,false,z,false,false,0.0-2.0-0.48-0.439-3.439,0,0,1,81,false,stim,true,0,1409.1000000000931,2,1,1,25237,task2,1102240,false,false,1396,image-keyboard-response,34
true,13,2,2,1,false,z,true,false,0.0-2.0-0.48-0.440-3.440,0,0,1,68,false,stim,false,0,411.10000000009313,2,1,1,25237,task2,1104159,false,false,1399,image-keyboard-response,35
true,14,0,2,1,false,z,false,false,0.0-2.0-0.49-0.441-3.441,0,1,0,81,true,stim,true,0,741.5,2,0,2,25237,task2,1106428,false,false,1402,image-keyboard-response,1
true,14,1,2,1,true,z,false,true,0.0-2.0-0.49-0.442-3.442,0,1,0,90,false,stim,false,1,755.3999999999069,2,1,1,25237,task2,1108721,false,false,1405,image-keyboard-response,2
true,14,2,2,1,false,z,true,false,0.0-2.0-0.49-0.443-3.443,0,1,0,68,false,stim,false,0,996.1000000000931,2,0,2,25237,task2,1111226,false,false,1408,image-keyboard-response,3
true,14,1,2,1,true,z,false,true,0.0-2.0-0.49-0.444-3.444,0,1,0,90,false,stim,false,1,536.8999999999069,2,1,1,25237,task2,1113273,false,false,1411,image-keyboard-response,4
true,14,1,2,0,false,q,true,false,0.0-2.0-0.49-0.445-3.445,0,1,0,90,false,stim,false,2,834.6999999997206,2,0,0,25237,task2,1115651,false,false,1414,image-keyboard-response,5
true,14,0,2,1,false,z,false,true,0.0-2.0-0.49-0.446-3.446,0,1,0,81,false,stim,true,0,1223.6000000000931,2,0,2,25237,task2,1118385,false,true,1417,image-keyboard-response,6
true,14,0,2,0,true,q,false,true,0.0-2.0-0.49-0.447-3.447,0,1,0,81,false,stim,false,2,1003.8000000002794,2,0,0,25237,task2,1120896,false,false,1420,image-keyboard-response,7
true,14,0,2,0,true,q,false,true,0.0-2.0-0.49-0.448-3.448,0,1,0,81,false,stim,false,2,445.0,2,0,0,25237,task2,1122850,false,false,1423,image-keyboard-response,8
true,14,1,2,1,true,z,false,true,0.0-2.0-0.49-0.449-3.449,0,1,0,90,false,stim,false,1,547.0,2,1,1,25237,task2,1124905,false,false,1426,image-keyboard-response,9
true,14,0,2,1,false,z,false,false,0.0-2.0-0.50-0.450-3.450,0,1,0,81,false,stim,true,0,525.2999999998137,2,0,2,25237,task2,1126942,false,false,1429,image-keyboard-response,10
true,14,0,2,0,true,q,false,true,0.0-2.0-0.50-0.451-3.451,0,1,0,81,false,stim,false,2,709.2000000001863,2,0,0,25237,task2,1129159,false,false,1432,image-keyboard-response,11
true,14,1,2,1,true,z,false,true,0.0-2.0-0.50-0.452-3.452,0,1,0,90,false,stim,false,1,677.1000000000931,2,1,1,25237,task2,1131348,false,false,1435,image-keyboard-response,12
true,14,1,2,1,true,z,false,true,0.0-2.0-0.50-0.453-3.453,0,1,0,90,false,stim,false,1,460.79999999981374,2,1,1,25237,task2,1133320,false,false,1438,image-keyboard-response,13
true,14,0,2,1,false,z,false,false,0.0-2.0-0.50-0.454-3.454,0,1,0,81,false,stim,true,0,1030.1999999997206,2,0,2,25237,task2,1135859,false,false,1441,image-keyboard-response,14
true,14,0,2,0,true,q,false,true,0.0-2.0-0.50-0.455-3.455,0,1,0,81,false,stim,false,2,619.9000000003725,2,0,0,25237,task2,1137988,false,false,1444,image-keyboard-response,15
true,14,0,2,0,true,q,false,true,0.0-2.0-0.50-0.456-3.456,0,1,0,81,false,stim,false,2,442.8000000002794,2,0,0,25237,task2,1139938,false,false,1447,image-keyboard-response,16
true,14,1,2,1,true,z,false,true,0.0-2.0-0.50-0.457-3.457,0,1,0,90,false,stim,false,1,775.7000000001863,2,1,1,25237,task2,1142222,false,false,1450,image-keyboard-response,17
true,14,0,2,1,false,z,false,false,0.0-2.0-0.50-0.458-3.458,0,1,0,81,false,stim,true,0,631.0,2,0,2,25237,task2,1144361,false,false,1453,image-keyboard-response,18
true,14,1,2,1,true,z,false,true,0.0-2.0-0.51-0.459-3.459,0,1,0,90,false,stim,false,1,827.0,2,1,1,25237,task2,1146700,false,false,1456,image-keyboard-response,19
true,14,0,2,1,false,z,false,false,0.0-2.0-0.51-0.460-3.460,0,1,0,81,false,stim,true,0,666.7999999998137,2,0,2,25237,task2,1148876,false,false,1459,image-keyboard-response,20
true,14,1,2,1,true,z,false,true,0.0-2.0-0.51-0.461-3.461,0,1,0,90,false,stim,false,1,586.5,2,1,1,25237,task2,1150971,false,false,1462,image-keyboard-response,21
true,14,1,2,1,true,z,false,true,0.0-2.0-0.51-0.462-3.462,0,1,0,90,false,stim,false,1,678.5,2,1,1,25237,task2,1153158,false,false,1465,image-keyboard-response,22
true,14,0,2,0,true,q,false,true,0.0-2.0-0.51-0.463-3.463,0,1,0,81,false,stim,false,2,1308.7999999998137,2,0,0,25237,task2,1155976,false,false,1468,image-keyboard-response,23
true,14,0,2,1,false,z,false,false,0.0-2.0-0.51-0.464-3.464,0,1,0,81,false,stim,true,0,965.0999999996275,2,0,2,25237,task2,1158451,false,false,1471,image-keyboard-response,24
true,14,2,2,1,false,z,true,false,0.0-2.0-0.51-0.465-3.465,0,1,0,68,false,stim,false,0,494.70000000018626,2,0,2,25237,task2,1160455,false,false,1474,image-keyboard-response,25
true,14,0,2,0,true,q,false,true,0.0-2.0-0.51-0.466-3.466,0,1,0,81,false,stim,false,2,935.8999999999069,2,0,0,25237,task2,1162900,false,false,1477,image-keyboard-response,26
true,14,0,2,0,true,q,false,true,0.0-2.0-0.51-0.467-3.467,0,1,0,81,false,stim,false,2,672.8999999999069,2,0,0,25237,task2,1165082,false,false,1480,image-keyboard-response,27
true,14,0,2,0,true,q,false,true,0.0-2.0-0.52-0.468-3.468,0,1,0,81,false,stim,false,2,492.5,2,0,0,25237,task2,1167086,false,false,1483,image-keyboard-response,28
true,14,1,2,1,true,z,false,true,0.0-2.0-0.52-0.469-3.469,0,1,0,90,false,stim,false,1,864.1999999997206,2,1,1,25237,task2,1169459,false,false,1486,image-keyboard-response,29
true,14,1,2,1,true,z,false,true,0.0-2.0-0.52-0.470-3.470,0,1,0,90,false,stim,false,0,629.6999999997206,2,1,2,25237,task2,1171599,false,false,1489,image-keyboard-response,30
true,14,1,2,0,false,q,true,false,0.0-2.0-0.52-0.471-3.471,0,1,0,90,false,stim,false,2,528.2999999998137,2,0,0,25237,task2,1173636,false,false,1492,image-keyboard-response,31
true,14,1,2,1,true,z,false,false,0.0-2.0-0.52-0.472-3.472,0,1,0,90,false,stim,false,0,590.7999999998137,2,1,2,25237,task2,1175736,false,true,1495,image-keyboard-response,32
true,14,1,2,1,true,z,false,true,0.0-2.0-0.52-0.473-3.473,0,1,0,90,false,stim,false,0,452.3000000002794,2,1,2,25237,task2,1177697,false,false,1498,image-keyboard-response,33
true,14,1,2,1,true,z,false,true,0.0-2.0-0.52-0.474-3.474,0,1,0,90,false,stim,false,1,703.5,2,0,1,25237,task2,1179924,false,false,1501,image-keyboard-response,34
true,15,0,2,1,false,z,false,false,0.0-2.0-0.52-0.475-3.475,0,0,1,81,true,stim,true,0,718.3000000002794,2,0,0,25237,task2,1182182,false,false,1504,image-keyboard-response,1
true,15,1,2,2,false,d,false,false,0.0-2.0-0.52-0.476-3.476,0,0,1,90,false,stim,true,1,669.0,2,0,1,25237,task2,1184360,false,false,1507,image-keyboard-response,2
true,15,1,2,1,true,z,false,false,0.0-2.0-0.53-0.477-3.477,0,0,1,90,false,stim,false,1,1007.6000000000931,2,1,2,25237,task2,1186876,false,true,1510,image-keyboard-response,3
true,15,2,2,1,false,z,true,false,0.0-2.0-0.53-0.478-3.478,0,0,1,68,false,stim,false,1,625.1000000000931,2,1,2,25237,task2,1189011,false,false,1513,image-keyboard-response,4
true,15,1,2,2,false,d,false,false,0.0-2.0-0.53-0.479-3.479,0,0,1,90,false,stim,true,1,1270.0,2,0,1,25237,task2,1191792,false,false,1516,image-keyboard-response,5
true,15,2,2,1,false,z,true,false,0.0-2.0-0.53-0.480-3.480,0,0,1,68,false,stim,false,1,553.3999999999069,2,1,2,25237,task2,1193856,false,false,1519,image-keyboard-response,6
true,15,0,2,2,false,d,true,false,0.0-2.0-0.53-0.481-3.481,0,0,1,81,false,stim,false,1,667.5,2,0,1,25237,task2,1196033,false,false,1522,image-keyboard-response,7
true,15,0,2,1,false,z,false,false,0.0-2.0-0.53-0.482-3.482,0,0,1,81,false,stim,true,0,1123.2000000001863,2,0,0,25237,task2,1198665,false,false,1525,image-keyboard-response,8
true,15,1,2,1,true,z,false,true,0.0-2.0-0.53-0.483-3.483,0,0,1,90,false,stim,false,0,923.5,2,0,0,25237,task2,1201098,false,false,1528,image-keyboard-response,9
true,15,1,2,1,true,z,false,true,0.0-2.0-0.53-0.484-3.484,0,0,1,90,false,stim,false,0,489.5,2,0,0,25237,task2,1203097,false,false,1531,image-keyboard-response,10
true,15,0,2,2,false,d,true,true,0.0-2.0-0.53-0.485-3.485,0,0,1,81,false,stim,false,1,851.3999999999069,2,0,1,25237,task2,1205457,false,true,1534,image-keyboard-response,11
true,15,0,2,1,false,z,true,false,0.0-2.0-0.54-0.486-3.486,0,0,1,81,false,stim,false,1,675.4000000003725,2,1,2,25237,task2,1207642,false,false,1537,image-keyboard-response,12
true,15,0,2,2,false,d,true,false,0.0-2.0-0.54-0.487-3.487,0,0,1,81,false,stim,false,1,885.6999999997206,2,0,1,25237,task2,1210036,false,false,1540,image-keyboard-response,13
true,15,1,2,1,true,z,false,true,0.0-2.0-0.54-0.488-3.488,0,0,1,90,false,stim,false,0,921.5,2,0,0,25237,task2,1212469,false,false,1543,image-keyboard-response,14
true,15,1,2,1,true,z,false,true,0.0-2.0-0.54-0.489-3.489,0,0,1,90,false,stim,false,1,1008.0,2,1,2,25237,task2,1214986,false,false,1546,image-keyboard-response,15
true,15,0,2,2,false,d,true,false,0.0-2.0-0.54-0.490-3.490,0,0,1,81,false,stim,false,1,733.3999999999069,2,0,1,25237,task2,1217228,false,false,1549,image-keyboard-response,16
true,15,1,2,1,true,z,false,true,0.0-2.0-0.54-0.491-3.491,0,0,1,90,false,stim,false,0,768.8000000002794,2,0,0,25237,task2,1219506,false,false,1552,image-keyboard-response,17
true,15,1,2,1,true,z,false,true,0.0-2.0-0.54-0.492-3.492,0,0,1,90,false,stim,false,1,744.4000000003725,2,1,2,25237,task2,1221762,false,false,1555,image-keyboard-response,18
true,15,2,2,2,true,d,false,true,0.0-2.0-0.54-0.493-3.493,0,0,1,68,false,stim,false,1,597.9000000003725,2,0,1,25237,task2,1223869,false,false,1558,image-keyboard-response,19
true,15,1,2,1,true,z,false,true,0.0-2.0-0.54-0.494-3.494,0,0,1,90,false,stim,false,0,589.0,2,0,0,25237,task2,1226002,false,false,1561,image-keyboard-response,20
true,15,1,2,1,true,z,false,true,0.0-2.0-0.55-0.495-3.495,0,0,1,90,false,stim,false,1,739.2999999998137,2,1,2,25237,task2,1228250,false,false,1564,image-keyboard-response,21
true,15,1,2,1,true,z,false,true,0.0-2.0-0.55-0.496-3.496,0,0,1,90,false,stim,false,0,642.2999999998137,2,0,0,25237,task2,1230402,false,false,1567,image-keyboard-response,22
true,15,2,2,2,true,d,false,true,0.0-2.0-0.55-0.497-3.497,0,0,1,68,false,stim,false,1,969.3999999999069,2,0,1,25237,task2,1232881,false,false,1570,image-keyboard-response,23
true,15,2,2,2,true,d,false,true,0.0-2.0-0.55-0.498-3.498,0,0,1,68,false,stim,false,1,789.2999999998137,2,0,1,25237,task2,1235179,false,false,1573,image-keyboard-response,24
true,15,1,2,1,true,z,false,true,0.0-2.0-0.55-0.499-3.499,0,0,1,90,false,stim,false,0,861.6000000000931,2,0,0,25237,task2,1237551,false,false,1576,image-keyboard-response,25
true,15,1,2,1,true,z,false,true,0.0-2.0-0.55-0.500-3.500,0,0,1,90,false,stim,false,1,1033.7000000001863,2,1,2,25237,task2,1240094,false,false,1579,image-keyboard-response,26
true,15,1,2,1,true,z,false,true,0.0-2.0-0.55-0.501-3.501,0,0,1,90,false,stim,false,1,773.5,2,1,2,25237,task2,1242377,false,false,1582,image-keyboard-response,27
true,15,1,2,1,true,z,false,true,0.0-2.0-0.55-0.502-3.502,0,0,1,90,false,stim,false,0,651.6000000000931,2,1,0,25237,task2,1244538,false,false,1585,image-keyboard-response,28
true,15,2,2,2,true,d,false,true,0.0-2.0-0.55-0.503-3.503,0,0,1,68,false,stim,false,1,464.70000000018626,2,1,1,25237,task2,1246511,false,false,1588,image-keyboard-response,29
true,15,1,2,1,true,z,false,true,0.0-2.0-0.56-0.504-3.504,0,0,1,90,false,stim,false,0,676.5,2,1,0,25237,task2,1248697,false,false,1591,image-keyboard-response,30
true,15,2,2,2,true,d,false,true,0.0-2.0-0.56-0.505-3.505,0,0,1,68,false,stim,false,1,601.7999999998137,2,1,1,25237,task2,1250807,false,false,1594,image-keyboard-response,31
true,16,1,0,1,true,z,false,true,0.0-2.0-0.56-0.506-3.506,1,1,1,90,true,stim,false,1,1097.5,2,1,2,25237,task2,1281157,false,false,1625,image-keyboard-response,1
true,16,1,0,1,true,z,false,true,0.0-2.0-0.56-0.507-3.507,1,1,1,90,false,stim,false,1,553.5,2,1,2,25237,task2,1283220,false,false,1628,image-keyboard-response,2
true,16,1,0,2,false,d,true,false,0.0-2.0-0.56-0.508-3.508,1,1,1,90,false,stim,false,2,499.3000000002794,2,1,1,25237,task2,1285227,false,false,1631,image-keyboard-response,3
true,16,1,0,1,true,z,false,false,0.0-2.0-0.56-0.509-3.509,1,1,1,90,false,stim,false,1,568.2999999998137,2,1,2,25237,task2,1287305,false,true,1634,image-keyboard-response,4
true,16,1,0,1,true,z,false,true,0.0-2.0-0.56-0.510-3.510,1,1,1,90,false,stim,false,1,751.8000000002794,2,1,0,25237,task2,1289570,false,false,1637,image-keyboard-response,5
true,16,1,0,1,true,z,false,true,0.0-2.0-0.56-0.511-3.511,1,1,1,90,false,stim,false,1,424.60000000009313,2,1,0,25237,task2,1291503,false,false,1640,image-keyboard-response,6
true,16,2,0,2,true,d,false,true,0.0-2.0-0.56-0.512-3.512,1,1,1,68,false,stim,false,2,847.8999999999069,2,1,1,25237,task2,1293860,false,false,1643,image-keyboard-response,7
true,16,1,0,1,true,z,false,true,0.0-2.0-0.57-0.513-3.513,1,1,1,90,false,stim,false,1,752.8999999999069,2,1,2,25237,task2,1296124,false,false,1646,image-keyboard-response,8
true,16,1,0,1,true,z,false,true,0.0-2.0-0.57-0.514-3.514,1,1,1,90,false,stim,false,1,727.0999999996275,2,0,0,25237,task2,1298361,false,false,1649,image-keyboard-response,9
true,16,1,0,1,true,z,false,false,0.0-2.0-0.57-0.515-3.515,1,1,1,90,false,stim,false,1,655.5,2,0,2,25237,task2,1300526,false,true,1652,image-keyboard-response,10
true,16,1,0,1,true,z,false,true,0.0-2.0-0.57-0.516-3.516,1,1,1,90,false,stim,false,1,446.5,2,0,2,25237,task2,1302483,false,false,1655,image-keyboard-response,11
true,16,2,0,2,true,d,false,true,0.0-2.0-0.57-0.517-3.517,1,1,1,68,false,stim,false,2,404.90000000037253,2,0,1,25237,task2,1304396,false,false,1658,image-keyboard-response,12
true,16,2,0,2,true,d,false,true,0.0-2.0-0.57-0.518-3.518,1,1,1,68,false,stim,false,2,419.60000000009313,2,0,1,25237,task2,1306327,false,false,1661,image-keyboard-response,13
true,17,2,1,0,false,q,false,false,0.0-2.0-0.57-0.519-3.519,0,0,0,68,true,stim,true,2,420.60000000009313,2,0,1,25237,task2,1308256,false,false,1664,image-keyboard-response,1
true,17,1,1,2,false,d,false,false,0.0-2.0-0.57-0.520-3.520,0,0,0,90,false,stim,true,1,538.7999999998137,2,0,0,25237,task2,1310337,false,false,1667,image-keyboard-response,2
true,17,1,1,2,false,d,false,false,0.0-2.0-0.57-0.521-3.521,0,0,0,90,false,stim,true,1,345.59999999962747,2,0,0,25237,task2,1312193,false,false,1670,image-keyboard-response,3
true,17,2,1,0,false,q,false,false,0.0-2.0-0.58-0.522-3.522,0,0,0,68,false,stim,true,2,1186.5,2,0,1,25237,task2,1314889,false,false,1673,image-keyboard-response,4
true,17,1,1,0,false,q,false,false,0.0-2.0-0.58-0.523-3.523,0,0,0,90,false,stim,true,1,1509.8999999999069,2,0,2,25237,task2,1317910,false,false,1676,image-keyboard-response,5
true,17,1,1,0,false,q,false,false,0.0-2.0-0.58-0.524-3.524,0,0,0,90,false,stim,true,1,1097.7000000001863,2,0,2,25237,task2,1320518,false,false,1679,image-keyboard-response,6
true,17,0,1,2,false,d,true,true,0.0-2.0-0.58-0.525-3.525,0,0,0,81,false,stim,false,1,689.7000000001863,2,0,0,25237,task2,1322718,false,true,1682,image-keyboard-response,7
true,17,0,1,2,false,d,true,false,0.0-2.0-0.58-0.526-3.526,0,0,0,81,false,stim,false,1,525.5,2,0,0,25237,task2,1324753,false,false,1685,image-keyboard-response,8
true,17,2,1,0,false,q,false,false,0.0-2.0-0.58-0.527-3.527,0,0,0,68,false,stim,true,2,772.2000000001863,2,0,1,25237,task2,1327034,false,false,1688,image-keyboard-response,9
true,17,2,1,0,false,q,true,true,0.0-2.0-0.58-0.528-3.528,0,0,0,68,false,stim,false,1,905.0,2,0,2,25237,task2,1329449,false,true,1691,image-keyboard-response,10
true,17,1,1,0,false,q,true,true,0.0-2.0-0.58-0.529-3.529,0,0,0,90,false,stim,false,2,1441.0,2,0,1,25237,task2,1332400,false,true,1694,image-keyboard-response,11
true,17,0,1,2,false,d,true,false,0.0-2.0-0.58-0.530-3.530,0,0,0,81,false,stim,false,1,639.6999999997206,2,0,0,25237,task2,1334550,false,false,1697,image-keyboard-response,12
true,17,0,1,2,false,d,true,false,0.0-2.0-0.59-0.531-3.531,0,0,0,81,false,stim,false,1,440.6999999997206,2,0,0,25237,task2,1336502,false,false,1700,image-keyboard-response,13
true,17,1,1,0,false,q,true,false,0.0-2.0-0.59-0.532-3.532,0,0,0,90,false,stim,false,2,657.7000000001863,2,0,1,25237,task2,1338768,false,false,1703,image-keyboard-response,14
true,17,1,1,0,false,q,true,false,0.0-2.0-0.59-0.533-3.533,0,0,0,90,false,stim,false,2,500.5,2,0,1,25237,task2,1340778,false,false,1706,image-keyboard-response,15
true,17,2,1,0,false,q,true,false,0.0-2.0-0.59-0.534-3.534,0,0,0,68,false,stim,false,1,1448.7999999998137,2,0,2,25237,task2,1343737,false,false,1709,image-keyboard-response,16
true,17,2,1,0,false,q,true,false,0.0-2.0-0.59-0.535-3.535,0,0,0,68,false,stim,false,1,410.5,2,0,2,25237,task2,1345657,false,false,1712,image-keyboard-response,17
true,17,2,1,2,true,d,false,true,0.0-2.0-0.59-0.536-3.536,0,0,0,68,false,stim,false,1,1145.8000000002794,2,0,0,25237,task2,1348312,false,false,1715,image-keyboard-response,18
true,17,0,1,0,true,q,false,true,0.0-2.0-0.59-0.537-3.537,0,0,0,81,false,stim,false,1,753.5,2,0,2,25237,task2,1350575,false,false,1718,image-keyboard-response,19
true,17,2,1,2,true,d,false,true,0.0-2.0-0.59-0.538-3.538,0,0,0,68,false,stim,false,1,707.7000000001863,2,0,0,25237,task2,1352793,false,false,1721,image-keyboard-response,20
true,17,0,1,0,true,q,false,true,0.0-2.0-0.59-0.539-3.539,0,0,0,81,false,stim,false,2,1147.6000000000931,2,0,1,25237,task2,1355453,false,false,1724,image-keyboard-response,21
true,17,0,1,0,true,q,false,true,0.0-2.0-0.60-0.540-3.540,0,0,0,81,false,stim,false,2,759.8999999999069,2,0,1,25237,task2,1357724,false,false,1727,image-keyboard-response,22
true,17,0,1,0,true,q,false,true,0.0-2.0-0.60-0.541-3.541,0,0,0,81,false,stim,false,2,502.79999999981374,2,0,1,25237,task2,1359737,false,false,1730,image-keyboard-response,23
true,17,0,1,0,true,q,false,true,0.0-2.0-0.60-0.542-3.542,0,0,0,81,false,stim,false,1,711.3000000002794,2,0,2,25237,task2,1361958,false,false,1733,image-keyboard-response,24
true,17,0,1,0,true,q,false,true,0.0-2.0-0.60-0.543-3.543,0,0,0,81,false,stim,false,1,614.1000000000931,2,0,2,25237,task2,1364081,false,false,1736,image-keyboard-response,25
true,17,2,1,2,true,d,false,true,0.0-2.0-0.60-0.544-3.544,0,0,0,68,false,stim,false,1,741.7000000001863,2,0,0,25237,task2,1366333,false,false,1739,image-keyboard-response,26
true,17,0,1,0,true,q,false,true,0.0-2.0-0.60-0.545-3.545,0,0,0,81,false,stim,false,2,862.7000000001863,2,0,1,25237,task2,1368707,false,false,1742,image-keyboard-response,27
true,17,0,1,0,true,q,false,true,0.0-2.0-0.60-0.546-3.546,0,0,0,81,false,stim,false,1,813.0,2,0,2,25237,task2,1371029,false,false,1745,image-keyboard-response,28
true,17,0,1,2,false,d,true,false,0.0-2.0-0.60-0.547-3.547,0,0,0,81,false,stim,false,1,1289.2000000001863,2,0,0,25237,task2,1373830,false,false,1748,image-keyboard-response,29
true,17,2,1,2,true,d,false,true,0.0-2.0-0.60-0.548-3.548,0,0,0,68,false,stim,false,1,437.60000000009313,2,0,0,25237,task2,1375778,false,false,1751,image-keyboard-response,30
true,17,0,1,0,true,q,false,true,0.0-2.0-0.61-0.549-3.549,0,0,0,81,false,stim,false,1,681.6000000000931,2,0,2,25237,task2,1377971,false,false,1754,image-keyboard-response,31
true,17,0,1,0,true,q,false,true,0.0-2.0-0.61-0.550-3.550,0,0,0,81,false,stim,false,1,472.09999999962747,2,0,2,25237,task2,1379953,false,false,1757,image-keyboard-response,32
true,17,0,1,0,true,q,false,true,0.0-2.0-0.61-0.551-3.551,0,0,0,81,false,stim,false,1,511.09999999962747,2,0,2,25237,task2,1381972,false,false,1760,image-keyboard-response,33
true,17,2,1,2,true,d,false,true,0.0-2.0-0.61-0.552-3.552,0,0,0,68,false,stim,false,1,1226.3000000002794,2,0,0,25237,task2,1384710,false,false,1763,image-keyboard-response,34
true,17,0,1,0,true,q,false,true,0.0-2.0-0.61-0.553-3.553,0,0,0,81,false,stim,false,2,581.2000000001863,2,1,1,25237,task2,1386801,false,false,1766,image-keyboard-response,35
true,17,0,1,0,true,q,false,true,0.0-2.0-0.61-0.554-3.554,0,0,0,81,false,stim,false,2,458.8000000002794,2,1,1,25237,task2,1388768,false,false,1769,image-keyboard-response,36
true,18,0,2,0,true,q,false,true,0.0-2.0-0.61-0.555-3.555,0,1,0,81,true,stim,false,0,457.20000000018626,2,1,1,25237,task2,1390736,false,false,1772,image-keyboard-response,1
true,18,2,2,0,false,q,false,false,0.0-2.0-0.61-0.556-3.556,0,1,0,68,false,stim,true,2,1147.5,2,0,0,25237,task2,1393395,false,false,1775,image-keyboard-response,2
true,18,2,2,0,false,q,false,true,0.0-2.0-0.61-0.557-3.557,0,1,0,68,false,stim,true,2,486.0,2,0,0,25237,task2,1395391,false,true,1778,image-keyboard-response,3
true,18,0,2,1,false,z,false,false,0.0-2.0-0.62-0.558-3.558,0,1,0,81,false,stim,true,0,734.0,2,0,2,25237,task2,1397636,false,false,1781,image-keyboard-response,4
true,18,0,2,0,true,q,false,false,0.0-2.0-0.62-0.559-3.559,0,1,0,81,false,stim,false,0,503.89999999990687,2,1,1,25237,task2,1399650,false,true,1784,image-keyboard-response,5
true,18,0,2,0,true,q,false,true,0.0-2.0-0.62-0.560-3.560,0,1,0,81,false,stim,false,0,548.6999999997206,2,1,1,25237,task2,1401708,false,false,1787,image-keyboard-response,6
true,18,2,2,0,false,q,false,false,0.0-2.0-0.62-0.561-3.561,0,1,0,68,false,stim,true,2,680.6000000000931,2,0,0,25237,task2,1403899,false,false,1790,image-keyboard-response,7
true,18,2,2,0,false,q,false,false,0.0-2.0-0.62-0.562-3.562,0,1,0,68,false,stim,true,2,367.20000000018626,2,0,0,25237,task2,1405776,false,false,1793,image-keyboard-response,8
true,18,1,2,0,false,q,true,false,0.0-2.0-0.62-0.563-3.563,0,1,0,90,false,stim,false,2,568.5,2,0,0,25237,task2,1407854,false,false,1796,image-keyboard-response,9
true,18,0,2,1,false,z,false,false,0.0-2.0-0.62-0.564-3.564,0,1,0,81,false,stim,true,0,1279.0,2,0,2,25237,task2,1410642,false,false,1799,image-keyboard-response,10
true,18,0,2,0,true,q,false,true,0.0-2.0-0.62-0.565-3.565,0,1,0,81,false,stim,false,0,933.7000000001863,2,1,1,25237,task2,1413108,false,false,1802,image-keyboard-response,11
true,18,2,2,1,false,z,true,false,0.0-2.0-0.62-0.566-3.566,0,1,0,68,false,stim,false,0,843.1000000000931,2,0,2,25237,task2,1415494,false,false,1805,image-keyboard-response,12
true,18,2,2,1,false,z,true,false,0.0-2.0-0.63-0.567-3.567,0,1,0,68,false,stim,false,0,413.10000000009313,2,0,2,25237,task2,1417449,false,false,1808,image-keyboard-response,13
true,18,0,2,0,true,q,false,true,0.0-2.0-0.63-0.568-3.568,0,1,0,81,false,stim,false,2,649.0999999996275,2,0,0,25237,task2,1419607,false,false,1811,image-keyboard-response,14
true,18,0,2,0,true,q,false,true,0.0-2.0-0.63-0.569-3.569,0,1,0,81,false,stim,false,0,381.70000000018626,2,1,1,25237,task2,1421498,false,false,1814,image-keyboard-response,15
true,18,1,2,1,true,z,false,true,0.0-2.0-0.63-0.570-3.570,0,1,0,90,false,stim,false,0,447.20000000018626,2,0,2,25237,task2,1423456,false,false,1817,image-keyboard-response,16
true,18,0,2,0,true,q,false,true,0.0-2.0-0.63-0.571-3.571,0,1,0,81,false,stim,false,0,622.3999999999069,2,1,1,25237,task2,1425587,false,false,1820,image-keyboard-response,17
true,18,0,2,1,false,z,false,false,0.0-2.0-0.63-0.572-3.572,0,1,0,81,false,stim,true,0,822.8999999999069,2,0,2,25237,task2,1427921,false,false,1823,image-keyboard-response,18
true,18,1,2,0,false,q,true,true,0.0-2.0-0.63-0.573-3.573,0,1,0,90,false,stim,false,2,892.5,2,0,0,25237,task2,1430323,false,true,1826,image-keyboard-response,19
true,18,0,2,0,true,q,false,true,0.0-2.0-0.63-0.574-3.574,0,1,0,81,false,stim,false,0,595.0999999996275,2,1,1,25237,task2,1432429,false,false,1829,image-keyboard-response,20
true,18,1,2,0,false,q,true,false,0.0-2.0-0.63-0.575-3.575,0,1,0,90,false,stim,false,2,628.0,2,0,0,25237,task2,1434570,false,false,1832,image-keyboard-response,21
true,18,1,2,0,false,q,true,false,0.0-2.0-0.64-0.576-3.576,0,1,0,90,false,stim,false,2,423.5,2,0,0,25237,task2,1436505,false,false,1835,image-keyboard-response,22
true,18,1,2,1,true,z,false,true,0.0-2.0-0.64-0.577-3.577,0,1,0,90,false,stim,false,0,1347.6999999997206,2,0,2,25237,task2,1439364,false,false,1838,image-keyboard-response,23
true,18,0,2,0,true,q,false,true,0.0-2.0-0.64-0.578-3.578,0,1,0,81,false,stim,false,0,662.8999999999069,2,1,1,25237,task2,1441537,false,false,1841,image-keyboard-response,24
true,18,1,2,1,true,z,false,true,0.0-2.0-0.64-0.579-3.579,0,1,0,90,false,stim,false,0,1058.8000000002794,2,0,2,25237,task2,1444106,false,false,1844,image-keyboard-response,25
true,18,0,2,0,true,q,false,true,0.0-2.0-0.64-0.580-3.580,0,1,0,81,false,stim,false,0,982.1000000000931,2,1,1,25237,task2,1446599,false,false,1847,image-keyboard-response,26
true,18,0,2,0,true,q,false,true,0.0-2.0-0.64-0.581-3.581,0,1,0,81,false,stim,false,2,711.8999999999069,2,0,0,25237,task2,1448821,false,false,1850,image-keyboard-response,27
true,18,0,2,0,true,q,false,false,0.0-2.0-0.64-0.582-3.582,0,1,0,81,false,stim,false,0,583.7000000001863,2,1,1,25237,task2,1450917,false,true,1853,image-keyboard-response,28
true,18,1,2,1,true,z,false,true,0.0-2.0-0.64-0.583-3.583,0,1,0,90,false,stim,false,0,714.3999999999069,2,0,2,25237,task2,1453143,false,false,1856,image-keyboard-response,29
true,18,0,2,0,true,q,false,true,0.0-2.0-0.64-0.584-3.584,0,1,0,81,false,stim,false,2,557.8000000002794,2,0,0,25237,task2,1455209,false,false,1859,image-keyboard-response,30
true,18,0,2,0,true,q,false,true,0.0-2.0-0.65-0.585-3.585,0,1,0,81,false,stim,false,2,477.6999999997206,2,0,0,25237,task2,1457198,false,false,1862,image-keyboard-response,31
true,18,1,2,1,true,z,false,true,0.0-2.0-0.65-0.586-3.586,0,1,0,90,false,stim,false,0,883.6000000000931,2,0,2,25237,task2,1459592,false,false,1865,image-keyboard-response,32
true,18,1,2,1,true,z,false,true,0.0-2.0-0.65-0.587-3.587,0,1,0,90,false,stim,false,0,471.5,2,0,2,25237,task2,1461575,false,false,1868,image-keyboard-response,33
true,18,0,2,0,true,q,false,true,0.0-2.0-0.65-0.588-3.588,0,1,0,81,false,stim,false,0,773.0999999996275,2,0,1,25237,task2,1463859,false,false,1871,image-keyboard-response,34
true,19,1,1,1,true,z,false,true,0.0-2.0-0.65-0.589-3.589,0,0,0,90,true,stim,false,0,1088.8000000002794,2,0,0,25237,task2,1466459,false,false,1874,image-keyboard-response,1
true,19,1,1,1,true,z,false,true,0.0-2.0-0.65-0.590-3.590,0,0,0,90,false,stim,false,0,629.8000000002794,2,0,0,25237,task2,1468599,false,false,1877,image-keyboard-response,2
true,19,0,1,2,false,d,false,false,0.0-2.0-0.65-0.591-3.591,0,0,0,81,false,stim,true,0,822.3999999999069,2,0,1,25237,task2,1470932,false,false,1880,image-keyboard-response,3
true,19,0,1,2,false,d,true,true,0.0-2.0-0.65-0.592-3.592,0,0,0,81,false,stim,false,1,1144.6000000000931,2,0,2,25237,task2,1473587,false,true,1883,image-keyboard-response,4
