answered,blockNum,choice,condition,corResp,correct,correct_response,explo,fb,internal_node_id,isStable_1,isStable_2,isStable_3,key_press,newBlock,part,persev,persevResp,rt,sessNum,stableAS,stimulus,subject,task,time_elapsed,training,trap,trial_index,trial_type,trialsInBlock
true,1,1,0,0,false,q,true,false,0.0-2.0-0.0-0.0-3.0,0,0,0,90,true,stim,false,-1,1227.5999999999767,1,0,1,25237,task3,167530,false,false,79,image-keyboard-response,1
true,1,1,0,0,false,q,true,false,0.0-2.0-0.0-0.1-3.1,0,0,0,90,false,stim,false,-1,1016.6999999999534,1,0,2,25237,task3,170053,false,false,82,image-keyboard-response,2
true,1,1,0,2,false,d,true,false,0.0-2.0-0.0-0.2-3.2,0,0,0,90,false,stim,false,-1,468.0,1,0,0,25237,task3,172028,false,false,85,image-keyboard-response,3
true,1,0,0,0,true,q,false,true,0.0-2.0-0.0-0.3-3.3,0,0,0,81,false,stim,false,-1,843.5,1,0,1,25237,task3,174376,false,false,88,image-keyboard-response,4
true,1,0,0,0,true,q,false,true,0.0-2.0-0.0-0.4-3.4,0,0,0,81,false,stim,false,-1,486.79999999993015,1,0,1,25237,task3,176370,false,false,91,image-keyboard-response,5
true,1,0,0,2,false,d,true,false,0.0-2.0-0.0-0.5-3.5,0,0,0,81,false,stim,false,-1,733.6999999999534,1,0,0,25237,task3,178610,false,false,94,image-keyboard-response,6
true,1,0,0,0,true,q,false,true,0.0-2.0-0.0-0.6-3.6,0,0,0,81,false,stim,false,-1,859.7999999999302,1,0,2,25237,task3,180975,false,false,97,image-keyboard-response,7
true,1,2,0,2,true,d,false,true,0.0-2.0-0.0-0.7-3.7,0,0,0,68,false,stim,false,-1,486.30000000004657,1,0,0,25237,task3,182966,false,false,100,image-keyboard-response,8
true,1,0,0,0,true,q,false,true,0.0-2.0-0.0-0.8-3.8,0,0,0,81,false,stim,false,-1,639.2000000000698,1,0,2,25237,task3,185112,false,false,103,image-keyboard-response,9
true,1,0,0,0,true,q,false,false,0.0-2.0-0.1-0.9-3.9,0,0,0,81,false,stim,false,-1,688.3000000000466,1,0,1,25237,task3,187308,false,true,106,image-keyboard-response,10
true,1,2,0,2,true,d,false,true,0.0-2.0-0.1-0.10-3.10,0,0,0,68,false,stim,false,-1,964.0,1,0,0,25237,task3,189777,false,false,109,image-keyboard-response,11
true,1,0,0,0,true,q,false,true,0.0-2.0-0.1-0.11-3.11,0,0,0,81,false,stim,false,-1,558.5999999999767,1,0,1,25237,task3,191841,false,false,112,image-keyboard-response,12
true,1,2,0,0,false,q,true,false,0.0-2.0-0.1-0.12-3.12,0,0,0,68,false,stim,false,-1,681.4000000000233,1,0,2,25237,task3,194030,false,false,115,image-keyboard-response,13
true,1,0,0,0,true,q,false,false,0.0-2.0-0.1-0.13-3.13,0,0,0,81,false,stim,false,-1,419.5,1,0,2,25237,task3,195955,false,true,118,image-keyboard-response,14
true,1,2,0,2,true,d,false,true,0.0-2.0-0.1-0.14-3.14,0,0,0,68,false,stim,false,-1,784.3000000000466,1,0,0,25237,task3,198245,false,false,121,image-keyboard-response,15
true,1,0,0,0,true,q,false,true,0.0-2.0-0.1-0.15-3.15,0,0,0,81,false,stim,false,-1,446.0,1,0,2,25237,task3,200197,false,false,124,image-keyboard-response,16
true,1,0,0,0,true,q,false,true,0.0-2.0-0.1-0.16-3.16,0,0,0,81,false,stim,false,-1,491.0,1,0,1,25237,task3,202193,false,false,127,image-keyboard-response,17
true,1,2,0,2,true,d,false,true,0.0-2.0-0.1-0.17-3.17,0,0,0,68,false,stim,false,-1,722.2999999999302,1,0,0,25237,task3,204421,false,false,130,image-keyboard-response,18
true,1,0,0,0,true,q,false,true,0.0-2.0-0.2-0.18-3.18,0,0,0,81,false,stim,false,-1,554.5,1,0,2,25237,task3,206481,false,false,133,image-keyboard-response,19
true,1,0,0,0,true,q,false,true,0.0-2.0-0.2-0.19-3.19,0,0,0,81,false,stim,false,-1,960.6999999999534,1,1,1,25237,task3,208948,false,false,136,image-keyboard-response,20
true,1,0,0,0,true,q,false,true,0.0-2.0-0.2-0.20-3.20,0,0,0,81,false,stim,false,-1,1197.4000000000233,1,1,2,25237,task3,211652,false,false,139,image-keyboard-response,21
true,1,0,0,0,true,q,false,true,0.0-2.0-0.2-0.21-3.21,0,0,0,81,false,stim,false,-1,630.0,1,1,2,25237,task3,213787,false,false,142,image-keyboard-response,22
true,1,2,0,2,true,d,false,true,0.0-2.0-0.2-0.22-3.22,0,0,0,68,false,stim,false,-1,608.5999999999767,1,0,0,25237,task3,215902,false,false,145,image-keyboard-response,23
true,1,2,0,2,true,d,false,true,0.0-2.0-0.2-0.23-3.23,0,0,0,68,false,stim,false,-1,466.9000000000233,1,0,0,25237,task3,217875,false,false,148,image-keyboard-response,24
true,2,0,2,0,true,q,false,true,0.0-2.0-0.2-0.24-3.24,0,1,1,81,true,stim,false,0,565.5,1,1,1,25237,task3,219946,false,false,151,image-keyboard-response,1
true,2,0,2,0,true,q,false,true,0.0-2.0-0.2-0.25-3.25,0,1,1,81,false,stim,false,0,453.19999999995343,1,1,1,25237,task3,221905,false,false,154,image-keyboard-response,2
true,2,2,2,1,false,z,false,false,0.0-2.0-0.2-0.26-3.26,0,1,1,68,false,stim,true,2,700.0,1,0,0,25237,task3,224110,false,false,157,image-keyboard-response,3
true,2,2,2,1,false,z,false,false,0.0-2.0-0.3-0.27-3.27,0,1,1,68,false,stim,true,2,1499.5,1,0,0,25237,task3,227115,false,false,160,image-keyboard-response,4
true,2,1,2,1,true,z,false,true,0.0-2.0-0.3-0.28-3.28,0,1,1,90,false,stim,false,2,465.5,1,0,0,25237,task3,229087,false,false,163,image-keyboard-response,5
true,2,0,2,0,true,q,false,false,0.0-2.0-0.3-0.29-3.29,0,1,1,81,false,stim,false,0,662.8000000000466,1,1,1,25237,task3,231255,false,true,166,image-keyboard-response,6
true,2,0,2,0,true,q,false,true,0.0-2.0-0.3-0.30-3.30,0,1,1,81,false,stim,false,0,557.5999999999767,1,1,2,25237,task3,233318,false,false,169,image-keyboard-response,7
true,2,0,2,0,true,q,false,true,0.0-2.0-0.3-0.31-3.31,0,1,1,81,false,stim,false,0,701.8000000000466,1,1,2,25237,task3,235525,false,false,172,image-keyboard-response,8
true,2,0,2,0,true,q,false,true,0.0-2.0-0.3-0.32-3.32,0,1,1,81,false,stim,false,0,1046.8000000000466,1,1,2,25237,task3,238077,false,false,175,image-keyboard-response,9
true,2,1,2,1,true,z,false,true,0.0-2.0-0.3-0.33-3.33,0,1,1,90,false,stim,false,2,619.6999999999534,1,1,0,25237,task3,240203,false,false,178,image-keyboard-response,10
true,2,0,2,0,true,q,false,false,0.0-2.0-0.3-0.34-3.34,0,1,1,81,false,stim,false,0,759.0999999999767,1,0,1,25237,task3,242468,false,true,181,image-keyboard-response,11
true,2,1,2,0,false,q,true,false,0.0-2.0-0.3-0.35-3.35,0,1,1,90,false,stim,false,0,1329.4000000000233,1,0,1,25237,task3,245303,false,false,184,image-keyboard-response,12
true,3,2,2,2,true,d,false,true,0.0-2.0-0.4-0.36-3.36,1,0,1,68,true,stim,false,0,558.4000000000233,1,0,1,25237,task3,247368,false,false,187,image-keyboard-response,1
true,3,0,2,0,true,q,false,true,0.0-2.0-0.4-0.37-3.37,1,0,1,81,false,stim,false,0,1476.9000000000233,1,1,2,25237,task3,250351,false,false,190,image-keyboard-response,2
true,3,1,2,1,true,z,false,true,0.0-2.0-0.4-0.38-3.38,1,0,1,90,false,stim,false,1,685.9000000000233,1,1,0,25237,task3,252544,false,false,193,image-keyboard-response,3
true,3,2,2,2,true,d,false,true,0.0-2.0-0.4-0.39-3.39,1,0,1,68,false,stim,false,0,636.7999999999302,1,0,1,25237,task3,254686,false,false,196,image-keyboard-response,4
true,3,0,2,0,true,q,false,true,0.0-2.0-0.4-0.40-3.40,1,0,1,81,false,stim,false,0,891.5,1,1,2,25237,task3,257083,false,false,199,image-keyboard-response,5
true,3,0,2,0,true,q,false,true,0.0-2.0-0.4-0.41-3.41,1,0,1,81,false,stim,false,0,536.5999999999767,1,1,2,25237,task3,259129,false,false,202,image-keyboard-response,6
true,3,1,2,1,true,z,false,true,0.0-2.0-0.4-0.42-3.42,1,0,1,90,false,stim,false,1,1197.0999999999767,1,1,0,25237,task3,261831,false,false,205,image-keyboard-response,7
true,3,1,2,1,true,z,false,true,0.0-2.0-0.4-0.43-3.43,1,0,1,90,false,stim,false,1,430.19999999995343,1,1,0,25237,task3,263769,false,false,208,image-keyboard-response,8
true,3,2,2,2,true,d,false,true,0.0-2.0-0.4-0.44-3.44,1,0,1,68,false,stim,false,0,1086.8999999999069,1,1,1,25237,task3,266361,false,false,211,image-keyboard-response,9
true,3,0,2,0,true,q,false,true,0.0-2.0-0.5-0.45-3.45,1,0,1,81,false,stim,false,0,701.6000000000931,1,0,2,25237,task3,268569,false,false,214,image-keyboard-response,10
true,3,1,2,1,true,z,false,true,0.0-2.0-0.5-0.46-3.46,1,0,1,90,false,stim,false,1,675.4000000000233,1,1,0,25237,task3,270752,false,false,217,image-keyboard-response,11
true,3,1,2,1,true,z,false,true,0.0-2.0-0.5-0.47-3.47,1,0,1,90,false,stim,false,1,492.20000000006985,1,1,0,25237,task3,272750,false,false,220,image-keyboard-response,12
true,4,1,2,1,true,z,false,true,0.0-2.0-0.5-0.48-3.48,1,1,0,90,true,stim,false,1,468.79999999993015,1,1,0,25237,task3,274725,false,false,223,image-keyboard-response,1
true,4,2,2,2,true,d,false,true,0.0-2.0-0.5-0.49-3.49,1,1,0,68,false,stim,false,2,1344.6999999999534,1,1,1,25237,task3,277575,false,false,226,image-keyboard-response,2
true,4,2,2,2,true,d,false,true,0.0-2.0-0.5-0.50-3.50,1,1,0,68,false,stim,false,2,415.30000000004657,1,1,1,25237,task3,279496,false,false,229,image-keyboard-response,3
true,4,2,2,2,true,d,false,true,0.0-2.0-0.5-0.51-3.51,1,1,0,68,false,stim,false,2,446.5999999999767,1,1,1,25237,task3,281449,false,false,232,image-keyboard-response,4
true,4,0,2,2,false,d,false,false,0.0-2.0-0.5-0.52-3.52,1,1,0,81,false,stim,true,0,622.8000000000466,1,0,2,25237,task3,283578,false,false,235,image-keyboard-response,5
true,4,0,2,2,false,d,false,false,0.0-2.0-0.5-0.53-3.53,1,1,0,81,false,stim,true,0,399.0,1,0,2,25237,task3,285482,false,false,238,image-keyboard-response,6
true,4,1,2,2,false,d,true,false,0.0-2.0-0.6-0.54-3.54,1,1,0,90,false,stim,false,0,655.5999999999767,1,0,2,25237,task3,287645,false,false,241,image-keyboard-response,7
true,4,2,2,2,true,d,false,true,0.0-2.0-0.6-0.55-3.55,1,1,0,68,false,stim,false,2,734.7999999999302,1,1,1,25237,task3,289885,false,false,244,image-keyboard-response,8
true,4,2,2,2,true,d,false,true,0.0-2.0-0.6-0.56-3.56,1,1,0,68,false,stim,false,0,439.5,1,0,2,25237,task3,291831,false,false,247,image-keyboard-response,9
true,4,1,2,1,true,z,false,true,0.0-2.0-0.6-0.57-3.57,1,1,0,90,false,stim,false,1,577.0,1,1,0,25237,task3,293914,false,false,250,image-keyboard-response,10
true,4,1,2,1,true,z,false,true,0.0-2.0-0.6-0.58-3.58,1,1,0,90,false,stim,false,1,447.4000000000233,1,1,0,25237,task3,295866,false,false,253,image-keyboard-response,11
true,4,2,2,2,true,d,false,true,0.0-2.0-0.6-0.59-3.59,1,1,0,68,false,stim,false,2,673.0999999999767,1,0,1,25237,task3,298045,false,false,256,image-keyboard-response,12
true,4,1,2,1,true,z,false,true,0.0-2.0-0.6-0.60-3.60,1,1,0,90,false,stim,false,1,617.4000000000233,1,1,0,25237,task3,300168,false,false,259,image-keyboard-response,13
true,4,2,2,2,true,d,false,true,0.0-2.0-0.6-0.61-3.61,1,1,0,68,false,stim,false,2,615.8000000000466,1,0,1,25237,task3,302289,false,false,262,image-keyboard-response,14
true,5,2,2,2,true,d,false,false,0.0-2.0-0.6-0.62-3.62,1,0,1,68,true,stim,false,2,777.1999999999534,1,1,2,25237,task3,304572,false,true,265,image-keyboard-response,1
true,5,2,2,2,true,d,false,true,0.0-2.0-0.7-0.63-3.63,1,0,1,68,false,stim,false,2,455.0,1,1,2,25237,task3,306533,false,false,268,image-keyboard-response,2
true,5,1,2,1,true,z,false,true,0.0-2.0-0.7-0.64-3.64,1,0,1,90,false,stim,false,1,597.5999999999767,1,1,0,25237,task3,308636,false,false,271,image-keyboard-response,3
true,5,2,2,2,true,d,false,true,0.0-2.0-0.7-0.65-3.65,1,0,1,68,false,stim,false,2,517.0,1,1,2,25237,task3,310658,false,false,274,image-keyboard-response,4
true,5,1,2,1,true,z,false,true,0.0-2.0-0.7-0.66-3.66,1,0,1,90,false,stim,false,1,572.2999999999302,1,1,0,25237,task3,312736,false,false,277,image-keyboard-response,5
true,5,1,2,1,true,z,false,true,0.0-2.0-0.7-0.67-3.67,1,0,1,90,false,stim,false,1,626.9000000000233,1,1,0,25237,task3,314869,false,false,280,image-keyboard-response,6
true,5,2,2,2,true,d,false,true,0.0-2.0-0.7-0.68-3.68,1,0,1,68,false,stim,false,2,522.0,1,1,2,25237,task3,316898,false,false,283,image-keyboard-response,7
true,5,2,2,1,false,z,false,false,0.0-2.0-0.7-0.69-3.69,1,0,1,68,false,stim,true,2,595.9000000000233,1,1,1,25237,task3,319000,false,false,286,image-keyboard-response,8
true,5,2,2,1,false,z,false,false,0.0-2.0-0.7-0.70-3.70,1,0,1,68,false,stim,true,2,391.0999999999767,1,1,1,25237,task3,320896,false,false,289,image-keyboard-response,9
true,5,0,2,1,false,z,true,false,0.0-2.0-0.7-0.71-3.71,1,0,1,81,false,stim,false,2,787.7000000000698,1,1,1,25237,task3,323189,false,false,292,image-keyboard-response,10
true,5,1,2,1,true,z,false,true,0.0-2.0-0.8-0.72-3.72,1,0,1,90,false,stim,false,1,686.5999999999767,1,1,0,25237,task3,325382,false,false,295,image-keyboard-response,11
true,5,1,2,1,true,z,false,true,0.0-2.0-0.8-0.73-3.73,1,0,1,90,false,stim,false,2,457.0,1,1,1,25237,task3,327345,false,false,298,image-keyboard-response,12
true,6,1,2,1,true,z,false,true,0.0-2.0-0.8-0.74-3.74,1,1,0,90,true,stim,false,1,807.4000000000233,1,1,0,25237,task3,329726,false,false,301,image-keyboard-response,1
true,6,1,2,1,true,z,false,true,0.0-2.0-0.8-0.75-3.75,1,1,0,90,false,stim,false,1,536.5999999999767,1,1,1,25237,task3,331769,false,false,304,image-keyboard-response,2
true,6,1,2,1,true,z,false,false,0.0-2.0-0.8-0.76-3.76,1,1,0,90,false,stim,false,1,611.3000000000466,1,1,0,25237,task3,333887,false,true,307,image-keyboard-response,3
true,6,1,2,1,true,z,false,true,0.0-2.0-0.8-0.77-3.77,1,1,0,90,false,stim,false,1,723.2999999999302,1,1,1,25237,task3,336117,false,false,310,image-keyboard-response,4
true,6,2,2,0,false,q,false,false,0.0-2.0-0.8-0.78-3.78,1,1,0,68,false,stim,true,2,787.5,1,0,2,25237,task3,338429,false,false,313,image-keyboard-response,5
true,6,2,2,0,false,q,false,false,0.0-2.0-0.8-0.79-3.79,1,1,0,68,false,stim,true,2,435.70000000006985,1,0,2,25237,task3,340373,false,false,316,image-keyboard-response,6
true,6,1,2,0,false,q,true,false,0.0-2.0-0.8-0.80-3.80,1,1,0,90,false,stim,false,2,654.3000000000466,1,0,2,25237,task3,342533,false,false,319,image-keyboard-response,7
true,6,1,2,1,true,z,false,true,0.0-2.0-0.9-0.81-3.81,1,1,0,90,false,stim,false,1,963.0999999999767,1,1,1,25237,task3,345003,false,false,322,image-keyboard-response,8
true,6,1,2,0,false,q,true,true,0.0-2.0-0.9-0.82-3.82,1,1,0,90,false,stim,false,2,648.2999999999302,1,0,2,25237,task3,347157,false,true,325,image-keyboard-response,9
true,6,1,2,1,true,z,false,true,0.0-2.0-0.9-0.83-3.83,1,1,0,90,false,stim,false,1,547.6999999999534,1,1,1,25237,task3,349211,false,false,328,image-keyboard-response,10
true,6,0,2,1,false,z,true,false,0.0-2.0-0.9-0.84-3.84,1,1,0,81,false,stim,false,1,986.3999999999069,1,1,0,25237,task3,351703,false,false,331,image-keyboard-response,11
true,6,2,2,1,false,z,true,true,0.0-2.0-0.9-0.85-3.85,1,1,0,68,false,stim,false,1,2130.1999999999534,1,1,0,25237,task3,355339,false,true,334,image-keyboard-response,12
true,6,1,2,0,false,q,true,false,0.0-2.0-0.9-0.86-3.86,1,1,0,90,false,stim,false,2,659.7999999999302,1,0,2,25237,task3,357506,false,false,337,image-keyboard-response,13
true,6,1,2,0,false,q,true,false,0.0-2.0-0.9-0.87-3.87,1,1,0,90,false,stim,false,2,452.0999999999767,1,0,2,25237,task3,359465,false,false,340,image-keyboard-response,14
true,6,2,2,1,false,z,true,false,0.0-2.0-0.9-0.88-3.88,1,1,0,68,false,stim,false,1,817.5999999999767,1,1,0,25237,task3,361788,false,false,343,image-keyboard-response,15
true,6,1,2,1,true,z,false,true,0.0-2.0-0.9-0.89-3.89,1,1,0,90,false,stim,false,1,1020.6999999999534,1,1,1,25237,task3,364314,false,false,346,image-keyboard-response,16
true,6,2,2,1,false,z,true,false,0.0-2.0-0.10-0.90-3.90,1,1,0,68,false,stim,false,1,486.0,1,1,0,25237,task3,366308,false,false,349,image-keyboard-response,17
true,6,0,2,1,false,z,true,false,0.0-2.0-0.10-0.91-3.91,1,1,0,81,false,stim,false,1,776.1999999999534,1,1,0,25237,task3,368593,false,false,352,image-keyboard-response,18
true,6,0,2,0,true,q,false,true,0.0-2.0-0.10-0.92-3.92,1,1,0,81,false,stim,false,2,2543.4000000000233,1,0,2,25237,task3,372643,false,false,355,image-keyboard-response,19
true,6,0,2,0,true,q,false,true,0.0-2.0-0.10-0.93-3.93,1,1,0,81,false,stim,false,2,643.2999999999302,1,0,2,25237,task3,374793,false,false,358,image-keyboard-response,20
true,6,1,2,1,true,z,false,true,0.0-2.0-0.10-0.94-3.94,1,1,0,90,false,stim,false,1,414.0999999999767,1,1,1,25237,task3,376713,false,false,361,image-keyboard-response,21
true,6,0,2,0,true,q,false,true,0.0-2.0-0.10-0.95-3.95,1,1,0,81,false,stim,false,2,1317.4000000000233,1,0,2,25237,task3,379538,false,false,364,image-keyboard-response,22
true,6,1,2,1,true,z,false,true,0.0-2.0-0.10-0.96-3.96,1,1,0,90,false,stim,false,1,707.8000000000466,1,1,1,25237,task3,381752,false,false,367,image-keyboard-response,23
true,6,1,2,1,true,z,false,false,0.0-2.0-0.10-0.97-3.97,1,1,0,90,false,stim,false,1,972.5,1,1,1,25237,task3,384230,false,true,370,image-keyboard-response,24
true,6,1,2,1,true,z,false,true,0.0-2.0-0.10-0.98-3.98,1,1,0,90,false,stim,false,1,551.6999999999534,1,1,0,25237,task3,386288,false,false,373,image-keyboard-response,25
true,6,1,2,1,true,z,false,true,0.0-2.0-0.11-0.99-3.99,1,1,0,90,false,stim,false,1,671.0999999999767,1,1,1,25237,task3,388465,false,false,376,image-keyboard-response,26
true,6,1,2,1,true,z,false,true,0.0-2.0-0.11-0.100-3.100,1,1,0,90,false,stim,false,1,778.8000000000466,1,0,0,25237,task3,390750,false,false,379,image-keyboard-response,27
true,6,1,2,1,true,z,false,true,0.0-2.0-0.11-0.101-3.101,1,1,0,90,false,stim,false,1,465.4000000000233,1,0,0,25237,task3,392723,false,false,382,image-keyboard-response,28
true,6,0,2,0,true,q,false,true,0.0-2.0-0.11-0.102-3.102,1,1,0,81,false,stim,false,2,681.1000000000931,1,0,2,25237,task3,394909,false,false,385,image-keyboard-response,29
true,6,1,2,1,true,z,false,true,0.0-2.0-0.11-0.103-3.103,1,1,0,90,false,stim,false,1,830.9000000000233,1,1,1,25237,task3,397246,false,false,388,image-keyboard-response,30
true,7,1,1,0,false,q,false,false,0.0-2.0-0.11-0.104-3.104,0,1,0,90,true,stim,true,1,672.7999999999302,1,0,0,25237,task3,399424,false,false,391,image-keyboard-response,1
true,7,0,1,2,false,d,false,false,0.0-2.0-0.11-0.105-3.105,0,1,0,81,false,stim,true,0,981.9000000000233,1,0,2,25237,task3,401913,false,false,394,image-keyboard-response,2
true,7,0,1,2,false,d,false,false,0.0-2.0-0.11-0.106-3.106,0,1,0,81,false,stim,true,0,1573.2000000000698,1,0,2,25237,task3,404993,false,false,397,image-keyboard-response,3
true,7,0,1,1,false,z,true,false,0.0-2.0-0.11-0.107-3.107,0,1,0,81,false,stim,false,1,960.5,1,1,1,25237,task3,407460,false,false,400,image-keyboard-response,4
true,7,1,1,1,true,z,false,true,0.0-2.0-0.12-0.108-3.108,0,1,0,90,false,stim,false,1,449.89999999990687,1,1,1,25237,task3,409421,false,false,403,image-keyboard-response,5
true,7,1,1,0,false,q,false,false,0.0-2.0-0.12-0.109-3.109,0,1,0,90,false,stim,true,1,784.5999999999767,1,0,0,25237,task3,411712,false,false,406,image-keyboard-response,6
true,7,2,1,2,true,d,false,true,0.0-2.0-0.12-0.110-3.110,0,1,0,68,false,stim,false,0,1066.9000000000233,1,0,2,25237,task3,414285,false,false,409,image-keyboard-response,7
true,7,1,1,1,true,z,false,true,0.0-2.0-0.12-0.111-3.111,0,1,0,90,false,stim,false,1,851.4000000000233,1,1,1,25237,task3,416644,false,false,412,image-keyboard-response,8
true,7,0,1,0,true,q,false,true,0.0-2.0-0.12-0.112-3.112,0,1,0,81,false,stim,false,1,503.5999999999767,1,0,0,25237,task3,418653,false,false,415,image-keyboard-response,9
true,7,1,1,1,true,z,false,false,0.0-2.0-0.12-0.113-3.113,0,1,0,90,false,stim,false,1,589.4000000000233,1,1,1,25237,task3,420749,false,true,418,image-keyboard-response,10
true,7,0,1,0,true,q,false,true,0.0-2.0-0.12-0.114-3.114,0,1,0,81,false,stim,false,1,804.8999999999069,1,0,0,25237,task3,423059,false,false,421,image-keyboard-response,11
true,7,2,1,2,true,d,false,true,0.0-2.0-0.12-0.115-3.115,0,1,0,68,false,stim,false,0,678.7999999999302,1,0,2,25237,task3,425244,false,false,424,image-keyboard-response,12
true,7,2,1,2,true,d,false,true,0.0-2.0-0.12-0.116-3.116,0,1,0,68,false,stim,false,0,825.0999999999767,1,0,2,25237,task3,427575,false,false,427,image-keyboard-response,13
true,7,2,1,2,true,d,false,true,0.0-2.0-0.13-0.117-3.117,0,1,0,68,false,stim,false,0,551.0999999999767,1,0,2,25237,task3,429632,false,false,430,image-keyboard-response,14
true,7,2,1,2,true,d,false,true,0.0-2.0-0.13-0.118-3.118,0,1,0,68,false,stim,false,0,630.0999999999767,1,0,2,25237,task3,431769,false,false,433,image-keyboard-response,15
true,7,1,1,1,true,z,false,true,0.0-2.0-0.13-0.119-3.119,0,1,0,90,false,stim,false,1,1083.7000000000698,1,1,1,25237,task3,434359,false,false,436,image-keyboard-response,16
true,7,0,1,0,true,q,false,true,0.0-2.0-0.13-0.120-3.120,0,1,0,81,false,stim,false,1,672.2999999998137,1,0,0,25237,task3,436538,false,false,439,image-keyboard-response,17
true,7,2,1,2,true,d,false,false,0.0-2.0-0.13-0.121-3.121,0,1,0,68,false,stim,false,0,728.8000000000466,1,0,2,25237,task3,438773,false,true,442,image-keyboard-response,18
true,7,0,1,0,true,q,false,true,0.0-2.0-0.13-0.122-3.122,0,1,0,81,false,stim,false,1,1089.1999999999534,1,0,0,25237,task3,441368,false,false,445,image-keyboard-response,19
true,7,1,1,1,true,z,false,true,0.0-2.0-0.13-0.123-3.123,0,1,0,90,false,stim,false,1,989.1999999999534,1,1,1,25237,task3,443864,false,false,448,image-keyboard-response,20
true,7,1,1,1,true,z,false,true,0.0-2.0-0.13-0.124-3.124,0,1,0,90,false,stim,false,1,384.0,1,1,1,25237,task3,445754,false,false,451,image-keyboard-response,21
true,7,0,1,0,true,q,false,true,0.0-2.0-0.13-0.125-3.125,0,1,0,81,false,stim,false,1,652.0,1,1,0,25237,task3,447912,false,false,454,image-keyboard-response,22
true,7,2,1,2,true,d,false,true,0.0-2.0-0.14-0.126-3.126,0,1,0,68,false,stim,false,0,685.3000000000466,1,0,2,25237,task3,450104,false,false,457,image-keyboard-response,23
true,7,1,1,1,true,z,false,true,0.0-2.0-0.14-0.127-3.127,0,1,0,90,false,stim,false,1,850.5,1,1,1,25237,task3,452462,false,false,460,image-keyboard-response,24
true,7,0,1,0,true,q,false,true,0.0-2.0-0.14-0.128-3.128,0,1,0,81,false,stim,false,1,804.6999999999534,1,1,0,25237,task3,454773,false,false,463,image-keyboard-response,25
true,7,1,1,1,true,z,false,true,0.0-2.0-0.14-0.129-3.129,0,1,0,90,false,stim,false,1,1010.8000000000466,1,1,1,25237,task3,457291,false,false,466,image-keyboard-response,26
true,8,1,2,1,true,z,false,true,0.0-2.0-0.14-0.130-3.130,1,1,0,90,true,stim,false,1,518.6999999999534,1,1,1,25237,task3,459316,false,false,469,image-keyboard-response,1
true,8,0,2,0,true,q,false,true,0.0-2.0-0.14-0.131-3.131,1,1,0,81,false,stim,false,0,462.60000000009313,1,1,0,25237,task3,461284,false,false,472,image-keyboard-response,2
true,8,0,2,0,true,q,false,true,0.0-2.0-0.14-0.132-3.132,1,1,0,81,false,stim,false,0,577.7000000001863,1,1,0,25237,task3,463368,false,false,475,image-keyboard-response,3
true,8,2,2,1,false,z,false,false,0.0-2.0-0.14-0.133-3.133,1,1,0,68,false,stim,true,2,613.1999999999534,1,0,2,25237,task3,465490,false,false,478,image-keyboard-response,4
true,8,2,2,1,false,z,false,false,0.0-2.0-0.14-0.134-3.134,1,1,0,68,false,stim,true,2,400.5999999998603,1,0,2,25237,task3,467397,false,false,481,image-keyboard-response,5
true,8,1,2,0,false,q,true,false,0.0-2.0-0.15-0.135-3.135,1,1,0,90,false,stim,false,0,837.0999999998603,1,1,0,25237,task3,469740,false,false,484,image-keyboard-response,6
true,8,1,2,1,true,z,false,true,0.0-2.0-0.15-0.136-3.136,1,1,0,90,false,stim,false,1,725.8000000000466,1,1,1,25237,task3,471972,false,false,487,image-keyboard-response,7
true,8,1,2,1,true,z,false,true,0.0-2.0-0.15-0.137-3.137,1,1,0,90,false,stim,false,1,555.0999999998603,1,0,1,25237,task3,474033,false,false,490,image-keyboard-response,8
true,8,1,2,1,true,z,false,true,0.0-2.0-0.15-0.138-3.138,1,1,0,90,false,stim,false,2,544.6999999999534,1,1,2,25237,task3,476085,false,false,493,image-keyboard-response,9
true,8,1,2,1,true,z,false,true,0.0-2.0-0.15-0.139-3.139,1,1,0,90,false,stim,false,1,627.4000000001397,1,0,1,25237,task3,478218,false,false,496,image-keyboard-response,10
true,8,0,2,0,true,q,false,true,0.0-2.0-0.15-0.140-3.140,1,1,0,81,false,stim,false,0,685.3999999999069,1,1,0,25237,task3,480410,false,false,499,image-keyboard-response,11
true,8,1,2,1,true,z,false,false,0.0-2.0-0.15-0.141-3.141,1,1,0,90,false,stim,false,2,693.9000000001397,1,1,2,25237,task3,482617,false,true,502,image-keyboard-response,12
true,9,0,2,0,true,q,false,true,0.0-2.0-0.15-0.142-3.142,1,0,1,81,true,stim,false,0,734.5,1,1,0,25237,task3,484858,false,false,505,image-keyboard-response,1
true,9,1,2,1,true,z,false,false,0.0-2.0-0.15-0.143-3.143,1,0,1,90,false,stim,false,1,425.0999999998603,1,1,2,25237,task3,486791,false,true,508,image-keyboard-response,2
true,9,0,2,0,true,q,false,true,0.0-2.0-0.16-0.144-3.144,1,0,1,81,false,stim,false,0,660.1000000000931,1,1,0,25237,task3,488957,false,false,511,image-keyboard-response,3
true,9,0,2,0,true,q,false,true,0.0-2.0-0.16-0.145-3.145,1,0,1,81,false,stim,false,0,795.1999999999534,1,1,0,25237,task3,491258,false,false,514,image-keyboard-response,4
true,9,1,2,2,false,d,false,false,0.0-2.0-0.16-0.146-3.146,1,0,1,90,false,stim,true,1,673.6999999999534,1,0,1,25237,task3,493438,false,false,517,image-keyboard-response,5
true,9,0,2,1,false,z,true,false,0.0-2.0-0.16-0.147-3.147,1,0,1,81,false,stim,false,1,603.8999999999069,1,1,2,25237,task3,495548,false,false,520,image-keyboard-response,6
true,9,2,2,1,false,z,true,false,0.0-2.0-0.16-0.148-3.148,1,0,1,68,false,stim,false,1,1204.2000000001863,1,1,2,25237,task3,498258,false,false,523,image-keyboard-response,7
true,9,1,2,2,false,d,false,false,0.0-2.0-0.16-0.149-3.149,1,0,1,90,false,stim,true,1,1369.0,1,0,1,25237,task3,501134,false,false,526,image-keyboard-response,8
true,9,0,2,0,true,q,false,true,0.0-2.0-0.16-0.150-3.150,1,0,1,81,false,stim,false,0,755.1000000000931,1,0,0,25237,task3,503396,false,false,529,image-keyboard-response,9
true,9,0,2,2,false,d,true,false,0.0-2.0-0.16-0.151-3.151,1,0,1,81,false,stim,false,1,521.3000000000466,1,1,1,25237,task3,505423,false,false,532,image-keyboard-response,10
true,9,1,2,1,true,z,false,true,0.0-2.0-0.16-0.152-3.152,1,0,1,90,false,stim,false,1,1347.5,1,1,2,25237,task3,508276,false,false,535,image-keyboard-response,11
true,9,1,2,1,true,z,false,true,0.0-2.0-0.17-0.153-3.153,1,0,1,90,false,stim,false,1,515.0,1,1,2,25237,task3,510298,false,false,538,image-keyboard-response,12
true,9,0,2,0,true,q,false,true,0.0-2.0-0.17-0.154-3.154,1,0,1,81,false,stim,false,0,650.8999999999069,1,0,0,25237,task3,512456,false,false,541,image-keyboard-response,13
true,10,2,2,2,true,d,false,true,0.0-2.0-0.17-0.155-3.155,0,1,1,68,true,stim,false,2,605.8999999999069,1,1,1,25237,task3,514568,false,false,544,image-keyboard-response,1
true,10,0,2,2,false,d,false,false,0.0-2.0-0.17-0.156-3.156,0,1,1,81,false,stim,true,0,679.3999999999069,1,0,0,25237,task3,516754,false,false,547,image-keyboard-response,2
true,10,1,2,1,true,z,false,true,0.0-2.0-0.17-0.157-3.157,0,1,1,90,false,stim,false,1,573.6999999999534,1,1,2,25237,task3,518833,false,false,550,image-keyboard-response,3
true,10,1,2,1,true,z,false,true,0.0-2.0-0.17-0.158-3.158,0,1,1,90,false,stim,false,1,845.0999999998603,1,1,2,25237,task3,521183,false,false,553,image-keyboard-response,4
true,10,2,2,2,true,d,false,true,0.0-2.0-0.17-0.159-3.159,0,1,1,68,false,stim,false,2,787.9000000001397,1,1,1,25237,task3,523477,false,false,556,image-keyboard-response,5
true,10,2,2,2,true,d,false,true,0.0-2.0-0.17-0.160-3.160,0,1,1,68,false,stim,false,2,434.89999999990687,1,1,1,25237,task3,525418,false,false,559,image-keyboard-response,6
true,10,0,2,2,false,d,false,false,0.0-2.0-0.17-0.161-3.161,0,1,1,81,false,stim,true,0,616.5,1,0,0,25237,task3,527542,false,false,562,image-keyboard-response,7
true,10,1,2,2,false,d,true,false,0.0-2.0-0.18-0.162-3.162,0,1,1,90,false,stim,false,0,577.6999999999534,1,1,0,25237,task3,529628,false,false,565,image-keyboard-response,8
true,10,2,2,2,true,d,false,true,0.0-2.0-0.18-0.163-3.163,0,1,1,68,false,stim,false,2,746.9000000001397,1,1,1,25237,task3,531881,false,false,568,image-keyboard-response,9
true,10,1,2,1,true,z,false,true,0.0-2.0-0.18-0.164-3.164,0,1,1,90,false,stim,false,1,811.6999999999534,1,0,2,25237,task3,534200,false,false,571,image-keyboard-response,10
true,10,1,2,1,true,z,false,false,0.0-2.0-0.18-0.165-3.165,0,1,1,90,false,stim,false,1,769.1000000000931,1,0,2,25237,task3,536477,false,true,574,image-keyboard-response,11
true,10,2,2,2,true,d,false,true,0.0-2.0-0.18-0.166-3.166,0,1,1,68,false,stim,false,0,643.0,1,1,0,25237,task3,538626,false,false,577,image-keyboard-response,12
true,11,2,2,2,true,d,false,true,0.0-2.0-0.18-0.167-3.167,1,1,0,68,true,stim,false,2,799.3999999999069,1,1,1,25237,task3,540932,false,false,580,image-keyboard-response,1
true,11,1,2,0,false,q,false,false,0.0-2.0-0.18-0.168-3.168,1,1,0,90,false,stim,true,1,642.1000000000931,1,0,2,25237,task3,543080,false,false,583,image-keyboard-response,2
true,11,2,2,2,true,d,false,false,0.0-2.0-0.18-0.169-3.169,1,1,0,68,false,stim,false,2,653.7000000001863,1,1,0,25237,task3,545240,false,true,586,image-keyboard-response,3
true,11,2,2,2,true,d,false,true,0.0-2.0-0.18-0.170-3.170,1,1,0,68,false,stim,false,2,910.6999999999534,1,1,1,25237,task3,547657,false,false,589,image-keyboard-response,4
true,11,2,2,2,true,d,false,true,0.0-2.0-0.19-0.171-3.171,1,1,0,68,false,stim,false,2,447.69999999995343,1,1,0,25237,task3,549612,false,false,592,image-keyboard-response,5
true,11,0,2,0,true,q,false,true,0.0-2.0-0.19-0.172-3.172,1,1,0,81,false,stim,false,1,500.69999999995343,1,0,2,25237,task3,551618,false,false,595,image-keyboard-response,6
true,11,2,2,2,true,d,false,true,0.0-2.0-0.19-0.173-3.173,1,1,0,68,false,stim,false,2,826.0999999998603,1,1,0,25237,task3,553949,false,false,598,image-keyboard-response,7
true,11,2,2,2,true,d,false,true,0.0-2.0-0.19-0.174-3.174,1,1,0,68,false,stim,false,2,474.20000000018626,1,1,0,25237,task3,555938,false,false,601,image-keyboard-response,8
true,11,0,2,0,true,q,false,true,0.0-2.0-0.19-0.175-3.175,1,1,0,81,false,stim,false,1,535.3000000000466,1,0,2,25237,task3,557981,false,false,604,image-keyboard-response,9
true,11,2,2,2,true,d,false,true,0.0-2.0-0.19-0.176-3.176,1,1,0,68,false,stim,false,2,967.5,1,1,1,25237,task3,560455,false,false,607,image-keyboard-response,10
true,11,2,2,2,true,d,false,false,0.0-2.0-0.19-0.177-3.177,1,1,0,68,false,stim,false,2,435.79999999981374,1,1,1,25237,task3,562397,false,true,610,image-keyboard-response,11
true,11,2,2,0,false,q,true,false,0.0-2.0-0.19-0.178-3.178,1,1,0,68,false,stim,false,1,956.1000000000931,1,0,2,25237,task3,564859,false,false,613,image-keyboard-response,12
true,11,2,2,2,true,d,false,true,0.0-2.0-0.19-0.179-3.179,1,1,0,68,false,stim,false,2,589.5,1,1,1,25237,task3,566954,false,false,616,image-keyboard-response,13
true,11,2,2,2,true,d,false,true,0.0-2.0-0.20-0.180-3.180,1,1,0,68,false,stim,false,2,530.1999999999534,1,1,1,25237,task3,568991,false,false,619,image-keyboard-response,14
true,11,0,2,0,true,q,false,true,0.0-2.0-0.20-0.181-3.181,1,1,0,81,false,stim,false,1,472.60000000009313,1,0,2,25237,task3,570970,false,false,622,image-keyboard-response,15
true,11,2,2,2,true,d,false,true,0.0-2.0-0.20-0.182-3.182,1,1,0,68,false,stim,false,2,796.6999999999534,1,1,0,25237,task3,573274,false,false,625,image-keyboard-response,16
true,11,2,2,2,true,d,false,true,0.0-2.0-0.20-0.183-3.183,1,1,0,68,false,stim,false,2,533.1999999999534,1,1,0,25237,task3,575312,false,false,628,image-keyboard-response,17
true,11,0,2,0,true,q,false,true,0.0-2.0-0.20-0.184-3.184,1,1,0,81,false,stim,false,1,750.1000000000931,1,0,2,25237,task3,577568,false,false,631,image-keyboard-response,18
true,11,2,2,2,true,d,false,true,0.0-2.0-0.20-0.185-3.185,1,1,0,68,false,stim,false,2,532.3999999999069,1,1,1,25237,task3,579609,false,false,634,image-keyboard-response,19
true,11,0,2,2,false,d,true,false,0.0-2.0-0.20-0.186-3.186,1,1,0,81,false,stim,false,2,1133.5,1,1,0,25237,task3,582250,false,false,637,image-keyboard-response,20
true,11,0,2,0,true,q,false,false,0.0-2.0-0.20-0.187-3.187,1,1,0,81,false,stim,false,1,901.5,1,0,2,25237,task3,584660,false,true,640,image-keyboard-response,21
true,11,2,2,2,true,d,false,true,0.0-2.0-0.20-0.188-3.188,1,1,0,68,false,stim,false,2,538.7999999998137,1,1,1,25237,task3,586705,false,false,643,image-keyboard-response,22
true,11,2,2,2,true,d,false,true,0.0-2.0-0.21-0.189-3.189,1,1,0,68,false,stim,false,2,784.0,1,1,0,25237,task3,588997,false,false,646,image-keyboard-response,23
true,11,0,2,0,true,q,false,true,0.0-2.0-0.21-0.190-3.190,1,1,0,81,false,stim,false,1,366.5,1,0,2,25237,task3,590870,false,false,649,image-keyboard-response,24
true,11,2,2,2,true,d,false,false,0.0-2.0-0.21-0.191-3.191,1,1,0,68,false,stim,false,2,794.6999999999534,1,1,1,25237,task3,593171,false,true,652,image-keyboard-response,25
true,11,2,2,2,true,d,false,true,0.0-2.0-0.21-0.192-3.192,1,1,0,68,false,stim,false,2,418.30000000004657,1,0,1,25237,task3,595095,false,false,655,image-keyboard-response,26
true,11,2,2,2,true,d,false,true,0.0-2.0-0.21-0.193-3.193,1,1,0,68,false,stim,false,2,1542.3000000000466,1,1,0,25237,task3,598144,false,false,658,image-keyboard-response,27
true,11,0,2,0,true,q,false,true,0.0-2.0-0.21-0.194-3.194,1,1,0,81,false,stim,false,1,764.8000000000466,1,0,2,25237,task3,600416,false,false,661,image-keyboard-response,28
true,11,2,2,2,true,d,false,true,0.0-2.0-0.21-0.195-3.195,1,1,0,68,false,stim,false,2,543.6000000000931,1,0,1,25237,task3,602466,false,false,664,image-keyboard-response,29
true,11,0,2,2,false,d,true,false,0.0-2.0-0.21-0.196-3.196,1,1,0,81,false,stim,false,2,581.6000000000931,1,1,0,25237,task3,604553,false,false,667,image-keyboard-response,30
true,12,0,1,2,false,d,false,false,0.0-2.0-0.21-0.197-3.197,1,0,0,81,true,stim,true,0,840.6000000000931,1,0,2,25237,task3,606901,false,false,670,image-keyboard-response,1
true,12,2,1,2,true,d,false,true,0.0-2.0-0.22-0.198-3.198,1,0,0,68,false,stim,false,2,633.6000000000931,1,1,0,25237,task3,609041,false,false,673,image-keyboard-response,2
true,12,0,1,2,false,d,false,false,0.0-2.0-0.22-0.199-3.199,1,0,0,81,false,stim,true,0,601.8999999999069,1,0,2,25237,task3,611148,false,false,676,image-keyboard-response,3
true,12,2,1,1,false,z,false,true,0.0-2.0-0.22-0.200-3.200,1,0,0,68,false,stim,true,2,588.1000000000931,1,0,1,25237,task3,613242,false,true,679,image-keyboard-response,4
true,12,1,1,1,true,z,false,true,0.0-2.0-0.22-0.201-3.201,1,0,0,90,false,stim,false,2,527.8000000000466,1,0,1,25237,task3,615277,false,false,682,image-keyboard-response,5
true,12,1,1,1,true,z,false,true,0.0-2.0-0.22-0.202-3.202,1,0,0,90,false,stim,false,2,375.89999999990687,1,0,1,25237,task3,617159,false,false,685,image-keyboard-response,6
true,12,2,1,2,true,d,false,false,0.0-2.0-0.22-0.203-3.203,1,0,0,68,false,stim,false,2,599.7000000001863,1,1,0,25237,task3,619270,false,true,688,image-keyboard-response,7
true,12,2,1,2,true,d,false,true,0.0-2.0-0.22-0.204-3.204,1,0,0,68,false,stim,false,2,429.29999999981374,1,1,0,25237,task3,621205,false,false,691,image-keyboard-response,8
true,12,1,1,2,false,d,true,false,0.0-2.0-0.22-0.205-3.205,1,0,0,90,false,stim,false,0,615.8999999999069,1,0,2,25237,task3,623328,false,false,694,image-keyboard-response,9
true,12,1,1,2,false,d,true,false,0.0-2.0-0.22-0.206-3.206,1,0,0,90,false,stim,false,0,520.5999999998603,1,0,2,25237,task3,625354,false,false,697,image-keyboard-response,10
true,12,2,1,2,true,d,false,true,0.0-2.0-0.23-0.207-3.207,1,0,0,68,false,stim,false,0,1190.1999999999534,1,0,2,25237,task3,628052,false,false,700,image-keyboard-response,11
true,12,2,1,1,false,z,false,false,0.0-2.0-0.23-0.208-3.208,1,0,0,68,false,stim,true,2,456.80000000004657,1,0,1,25237,task3,630028,false,false,703,image-keyboard-response,12
true,12,2,1,2,true,d,false,true,0.0-2.0-0.23-0.209-3.209,1,0,0,68,false,stim,false,0,834.8000000000466,1,0,2,25237,task3,632369,false,false,706,image-keyboard-response,13
true,12,2,1,2,true,d,false,true,0.0-2.0-0.23-0.210-3.210,1,0,0,68,false,stim,false,0,518.3999999999069,1,0,2,25237,task3,634394,false,false,709,image-keyboard-response,14
true,12,2,1,2,true,d,false,true,0.0-2.0-0.23-0.211-3.211,1,0,0,68,false,stim,false,2,565.0,1,1,0,25237,task3,636467,false,false,712,image-keyboard-response,15
true,12,2,1,2,true,d,false,false,0.0-2.0-0.23-0.212-3.212,1,0,0,68,false,stim,false,2,457.79999999981374,1,1,0,25237,task3,638432,false,true,715,image-keyboard-response,16
true,12,1,1,1,true,z,false,true,0.0-2.0-0.23-0.213-3.213,1,0,0,90,false,stim,false,2,1093.3000000000466,1,0,1,25237,task3,641032,false,false,718,image-keyboard-response,17
true,12,2,1,2,true,d,false,true,0.0-2.0-0.23-0.214-3.214,1,0,0,68,false,stim,false,2,781.4000000001397,1,1,0,25237,task3,643320,false,false,721,image-keyboard-response,18
true,12,1,1,1,true,z,false,true,0.0-2.0-0.23-0.215-3.215,1,0,0,90,false,stim,false,2,479.5,1,0,1,25237,task3,645306,false,false,724,image-keyboard-response,19
true,12,2,1,2,true,d,false,true,0.0-2.0-0.24-0.216-3.216,1,0,0,68,false,stim,false,2,611.1000000000931,1,1,0,25237,task3,647424,false,false,727,image-keyboard-response,20
true,12,1,1,1,true,z,false,true,0.0-2.0-0.24-0.217-3.217,1,0,0,90,false,stim,false,2,713.4000000001397,1,0,1,25237,task3,649644,false,false,730,image-keyboard-response,21
true,12,2,1,2,true,d,false,true,0.0-2.0-0.24-0.218-3.218,1,0,0,68,false,stim,false,2,654.0,1,1,0,25237,task3,651806,false,false,733,image-keyboard-response,22
true,12,2,1,2,true,d,false,true,0.0-2.0-0.24-0.219-3.219,1,0,0,68,false,stim,false,0,1936.8999999999069,1,0,2,25237,task3,655249,false,false,736,image-keyboard-response,23
true,12,2,1,2,true,d,false,true,0.0-2.0-0.24-0.220-3.220,1,0,0,68,false,stim,false,2,719.4000000001397,1,1,0,25237,task3,657476,false,false,739,image-keyboard-response,24
true,12,2,1,2,true,d,false,true,0.0-2.0-0.24-0.221-3.221,1,0,0,68,false,stim,false,0,591.6999999999534,1,0,2,25237,task3,659575,false,false,742,image-keyboard-response,25
true,12,2,1,2,true,d,false,true,0.0-2.0-0.24-0.222-3.222,1,0,0,68,false,stim,false,0,452.9000000001397,1,0,2,25237,task3,661534,false,false,745,image-keyboard-response,26
true,12,1,1,1,true,z,false,true,0.0-2.0-0.24-0.223-3.223,1,0,0,90,false,stim,false,2,570.6999999999534,1,1,1,25237,task3,663612,false,false,748,image-keyboard-response,27
true,12,1,1,1,true,z,false,true,0.0-2.0-0.24-0.224-3.224,1,0,0,90,false,stim,false,2,657.0,1,1,1,25237,task3,665777,false,false,751,image-keyboard-response,28
true,12,2,1,2,true,d,false,true,0.0-2.0-0.25-0.225-3.225,1,0,0,68,false,stim,false,0,613.4000000001397,1,0,2,25237,task3,667897,false,false,754,image-keyboard-response,29
true,13,2,2,1,false,z,false,false,0.0-2.0-0.25-0.226-3.226,1,1,0,68,true,stim,true,2,537.6000000000931,1,0,2,25237,task3,669943,false,false,757,image-keyboard-response,1
true,13,1,2,1,true,z,false,true,0.0-2.0-0.25-0.227-3.227,1,1,0,90,false,stim,false,1,974.6999999999534,1,1,1,25237,task3,672425,false,false,760,image-keyboard-response,2
true,13,2,2,1,false,z,false,false,0.0-2.0-0.25-0.228-3.228,1,1,0,68,false,stim,true,2,524.4000000001397,1,0,2,25237,task3,674457,false,false,763,image-keyboard-response,3
true,13,2,2,2,true,d,false,true,0.0-2.0-0.25-0.229-3.229,1,1,0,68,false,stim,false,2,823.9000000001397,1,1,0,25237,task3,676787,false,false,766,image-keyboard-response,4
true,13,1,2,1,true,z,false,true,0.0-2.0-0.25-0.230-3.230,1,1,0,90,false,stim,false,1,565.3999999999069,1,1,1,25237,task3,678861,false,false,769,image-keyboard-response,5
true,13,2,2,2,true,d,false,true,0.0-2.0-0.25-0.231-3.231,1,1,0,68,false,stim,false,2,856.8000000000466,1,1,0,25237,task3,681226,false,false,772,image-keyboard-response,6
true,13,2,2,2,true,d,false,true,0.0-2.0-0.25-0.232-3.232,1,1,0,68,false,stim,false,2,577.7999999998137,1,1,0,25237,task3,683310,false,false,775,image-keyboard-response,7
true,13,1,2,1,true,z,false,true,0.0-2.0-0.25-0.233-3.233,1,1,0,90,false,stim,false,1,642.1000000000931,1,1,1,25237,task3,685460,false,false,778,image-keyboard-response,8
true,13,1,2,2,false,d,true,true,0.0-2.0-0.26-0.234-3.234,1,1,0,90,false,stim,false,2,515.6000000000931,1,1,0,25237,task3,687483,false,true,781,image-keyboard-response,9
true,13,1,2,2,false,d,true,false,0.0-2.0-0.26-0.235-3.235,1,1,0,90,false,stim,false,2,489.79999999981374,1,1,0,25237,task3,689481,false,false,784,image-keyboard-response,10
true,13,1,2,2,false,d,true,false,0.0-2.0-0.26-0.236-3.236,1,1,0,90,false,stim,false,2,576.5,1,0,0,25237,task3,691564,false,false,787,image-keyboard-response,11
true,13,1,2,1,true,z,false,true,0.0-2.0-0.26-0.237-3.237,1,1,0,90,false,stim,false,1,1130.0,1,0,1,25237,task3,694203,false,false,790,image-keyboard-response,12
true,13,0,2,1,false,z,true,false,0.0-2.0-0.26-0.238-3.238,1,1,0,81,false,stim,false,2,953.0999999998603,1,1,2,25237,task3,696664,false,false,793,image-keyboard-response,13
true,13,2,2,1,false,z,false,false,0.0-2.0-0.26-0.239-3.239,1,1,0,68,false,stim,true,2,506.69999999995343,1,1,2,25237,task3,698677,false,false,796,image-keyboard-response,14
true,13,1,2,1,true,z,false,true,0.0-2.0-0.26-0.240-3.240,1,1,0,90,false,stim,false,2,432.9000000001397,1,1,2,25237,task3,700617,false,false,799,image-keyboard-response,15
true,14,1,1,0,false,q,false,false,0.0-2.0-0.26-0.241-3.241,0,0,1,90,true,stim,true,1,423.60000000009313,1,0,1,25237,task3,702558,false,false,802,image-keyboard-response,1
true,14,1,1,0,false,q,false,false,0.0-2.0-0.26-0.242-3.242,0,0,1,90,false,stim,true,1,395.4000000001397,1,0,1,25237,task3,704462,false,false,805,image-keyboard-response,2
true,14,0,1,0,true,q,false,true,0.0-2.0-0.27-0.243-3.243,0,0,1,81,false,stim,false,1,418.10000000009313,1,0,1,25237,task3,706388,false,false,808,image-keyboard-response,3
true,14,1,1,1,true,z,false,false,0.0-2.0-0.27-0.244-3.244,0,0,1,90,false,stim,false,1,1162.1999999999534,1,1,2,25237,task3,709057,false,true,811,image-keyboard-response,4
true,14,1,1,1,true,z,false,true,0.0-2.0-0.27-0.245-3.245,0,0,1,90,false,stim,false,2,451.30000000004657,1,0,0,25237,task3,711015,false,false,814,image-keyboard-response,5
true,14,1,1,1,true,z,false,true,0.0-2.0-0.27-0.246-3.246,0,0,1,90,false,stim,false,2,502.69999999995343,1,0,0,25237,task3,713025,false,false,817,image-keyboard-response,6
true,14,0,1,1,false,z,true,false,0.0-2.0-0.27-0.247-3.247,0,0,1,81,false,stim,false,1,877.3000000000466,1,1,2,25237,task3,715409,false,false,820,image-keyboard-response,7
true,14,0,1,0,true,q,false,true,0.0-2.0-0.27-0.248-3.248,0,0,1,81,false,stim,false,1,730.0,1,0,1,25237,task3,717647,false,false,823,image-keyboard-response,8
true,14,2,1,1,false,z,true,false,0.0-2.0-0.27-0.249-3.249,0,0,1,68,false,stim,false,1,520.3999999999069,1,1,2,25237,task3,719675,false,false,826,image-keyboard-response,9
true,14,1,1,1,true,z,false,false,0.0-2.0-0.27-0.250-3.250,0,0,1,90,false,stim,false,2,808.5,1,0,0,25237,task3,721990,false,true,829,image-keyboard-response,10
true,14,0,1,0,true,q,false,true,0.0-2.0-0.27-0.251-3.251,0,0,1,81,false,stim,false,1,773.6999999999534,1,0,1,25237,task3,724272,false,false,832,image-keyboard-response,11
true,14,0,1,0,true,q,false,true,0.0-2.0-0.28-0.252-3.252,0,0,1,81,false,stim,false,1,665.4000000001397,1,0,1,25237,task3,726447,false,false,835,image-keyboard-response,12
true,14,1,1,1,true,z,false,true,0.0-2.0-0.28-0.253-3.253,0,0,1,90,false,stim,false,2,649.6999999999534,1,0,0,25237,task3,728602,false,false,838,image-keyboard-response,13
true,14,1,1,1,true,z,false,true,0.0-2.0-0.28-0.254-3.254,0,0,1,90,false,stim,false,2,471.39999999990687,1,0,0,25237,task3,730581,false,false,841,image-keyboard-response,14
true,14,1,1,1,true,z,false,true,0.0-2.0-0.28-0.255-3.255,0,0,1,90,false,stim,false,1,517.3000000000466,1,1,2,25237,task3,732606,false,false,844,image-keyboard-response,15
true,14,0,1,0,true,q,false,true,0.0-2.0-0.28-0.256-3.256,0,0,1,81,false,stim,false,1,686.9000000001397,1,0,1,25237,task3,734800,false,false,847,image-keyboard-response,16
true,14,0,1,0,true,q,false,false,0.0-2.0-0.28-0.257-3.257,0,0,1,81,false,stim,false,1,548.6999999999534,1,0,1,25237,task3,736856,false,true,850,image-keyboard-response,17
true,14,1,1,1,true,z,false,true,0.0-2.0-0.28-0.258-3.258,0,0,1,90,false,stim,false,2,520.9000000001397,1,0,0,25237,task3,738884,false,false,853,image-keyboard-response,18
true,14,1,1,1,true,z,false,true,0.0-2.0-0.28-0.259-3.259,0,0,1,90,false,stim,false,1,792.5999999998603,1,1,2,25237,task3,741184,false,false,856,image-keyboard-response,19
true,14,1,1,1,true,z,false,true,0.0-2.0-0.28-0.260-3.260,0,0,1,90,false,stim,false,1,466.69999999995343,1,1,2,25237,task3,743158,false,false,859,image-keyboard-response,20
true,14,1,1,1,true,z,false,true,0.0-2.0-0.29-0.261-3.261,0,0,1,90,false,stim,false,1,503.69999999995343,1,1,2,25237,task3,745169,false,false,862,image-keyboard-response,21
true,14,1,1,1,true,z,false,true,0.0-2.0-0.29-0.262-3.262,0,0,1,90,false,stim,false,1,630.0999999998603,1,1,2,25237,task3,747306,false,false,865,image-keyboard-response,22
true,14,0,1,0,true,q,false,true,0.0-2.0-0.29-0.263-3.263,0,0,1,81,false,stim,false,1,698.0,1,0,1,25237,task3,749511,false,false,868,image-keyboard-response,23
true,14,0,1,0,true,q,false,true,0.0-2.0-0.29-0.264-3.264,0,0,1,81,false,stim,false,1,467.4000000001397,1,0,1,25237,task3,751486,false,false,871,image-keyboard-response,24
true,14,1,1,1,true,z,false,true,0.0-2.0-0.29-0.265-3.265,0,0,1,90,false,stim,false,2,597.7000000001863,1,0,0,25237,task3,753591,false,false,874,image-keyboard-response,25
true,14,1,1,1,true,z,false,true,0.0-2.0-0.29-0.266-3.266,0,0,1,90,false,stim,false,1,854.1000000000931,1,1,2,25237,task3,755953,false,false,877,image-keyboard-response,26
true,14,1,1,1,true,z,false,true,0.0-2.0-0.29-0.267-3.267,0,0,1,90,false,stim,false,2,649.1000000000931,1,0,0,25237,task3,758110,false,false,880,image-keyboard-response,27
true,14,0,1,0,true,q,false,true,0.0-2.0-0.29-0.268-3.268,0,0,1,81,false,stim,false,1,825.4000000001397,1,1,1,25237,task3,760443,false,false,883,image-keyboard-response,28
true,14,1,1,1,true,z,false,false,0.0-2.0-0.29-0.269-3.269,0,0,1,90,false,stim,false,2,535.5,1,0,0,25237,task3,762486,false,true,886,image-keyboard-response,29
true,15,1,2,1,true,z,false,true,0.0-2.0-0.30-0.270-3.270,0,1,1,90,true,stim,false,1,973.3999999999069,1,1,2,25237,task3,764966,false,false,889,image-keyboard-response,1
true,15,0,2,0,true,q,false,true,0.0-2.0-0.30-0.271-3.271,0,1,1,81,false,stim,false,0,620.8999999999069,1,1,1,25237,task3,767095,false,false,892,image-keyboard-response,2
true,15,1,2,1,true,z,false,false,0.0-2.0-0.30-0.272-3.272,0,1,1,90,false,stim,false,1,661.1000000000931,1,1,2,25237,task3,769263,false,true,895,image-keyboard-response,3
true,15,1,2,0,false,q,false,false,0.0-2.0-0.30-0.273-3.273,0,1,1,90,false,stim,true,1,627.1999999999534,1,0,0,25237,task3,771397,false,false,898,image-keyboard-response,4
true,15,1,2,0,false,q,false,false,0.0-2.0-0.30-0.274-3.274,0,1,1,90,false,stim,true,1,584.6000000000931,1,0,0,25237,task3,773499,false,false,901,image-keyboard-response,5
true,15,0,2,0,true,q,false,true,0.0-2.0-0.30-0.275-3.275,0,1,1,81,false,stim,false,0,879.6999999999534,1,1,1,25237,task3,775904,false,false,904,image-keyboard-response,6
true,15,0,2,0,true,q,false,true,0.0-2.0-0.30-0.276-3.276,0,1,1,81,false,stim,false,1,989.8999999999069,1,0,0,25237,task3,778403,false,false,907,image-keyboard-response,7
true,15,1,2,1,true,z,false,true,0.0-2.0-0.30-0.277-3.277,0,1,1,90,false,stim,false,1,1056.0,1,1,2,25237,task3,780966,false,false,910,image-keyboard-response,8
true,15,0,2,0,true,q,false,true,0.0-2.0-0.30-0.278-3.278,0,1,1,81,false,stim,false,0,819.0,1,1,1,25237,task3,783293,false,false,913,image-keyboard-response,9
true,15,0,2,0,true,q,false,false,0.0-2.0-0.31-0.279-3.279,0,1,1,81,false,stim,false,1,1292.8000000000466,1,0,0,25237,task3,786093,false,true,916,image-keyboard-response,10
true,15,0,2,0,true,q,false,true,0.0-2.0-0.31-0.280-3.280,0,1,1,81,false,stim,false,0,741.1000000000931,1,1,1,25237,task3,788342,false,false,919,image-keyboard-response,11
true,15,0,2,0,true,q,false,true,0.0-2.0-0.31-0.281-3.281,0,1,1,81,false,stim,false,1,401.39999999990687,1,0,0,25237,task3,790252,false,false,922,image-keyboard-response,12
true,15,0,2,0,true,q,false,true,0.0-2.0-0.31-0.282-3.282,0,1,1,81,false,stim,false,0,923.6000000000931,1,1,1,25237,task3,792683,false,false,925,image-keyboard-response,13
true,15,0,2,0,true,q,false,true,0.0-2.0-0.31-0.283-3.283,0,1,1,81,false,stim,false,1,894.1999999999534,1,0,0,25237,task3,795085,false,false,928,image-keyboard-response,14
true,15,1,2,1,true,z,false,true,0.0-2.0-0.31-0.284-3.284,0,1,1,90,false,stim,false,1,1189.6000000000931,1,1,2,25237,task3,797782,false,false,931,image-keyboard-response,15
true,15,1,2,1,true,z,false,true,0.0-2.0-0.31-0.285-3.285,0,1,1,90,false,stim,false,1,478.39999999990687,1,1,2,25237,task3,799768,false,false,934,image-keyboard-response,16
true,15,1,2,1,true,z,false,true,0.0-2.0-0.31-0.286-3.286,0,1,1,90,false,stim,false,1,469.80000000004657,1,1,2,25237,task3,801744,false,false,937,image-keyboard-response,17
true,15,0,2,0,true,q,false,true,0.0-2.0-0.31-0.287-3.287,0,1,1,81,false,stim,false,0,805.6999999999534,1,1,1,25237,task3,804058,false,false,940,image-keyboard-response,18
true,15,1,2,1,true,z,false,true,0.0-2.0-0.32-0.288-3.288,0,1,1,90,false,stim,false,1,742.5,1,1,2,25237,task3,806309,false,false,943,image-keyboard-response,19
true,15,0,2,0,true,q,false,true,0.0-2.0-0.32-0.289-3.289,0,1,1,81,false,stim,false,0,599.0,1,1,1,25237,task3,808416,false,false,946,image-keyboard-response,20
true,15,1,2,1,true,z,false,true,0.0-2.0-0.32-0.290-3.290,0,1,1,90,false,stim,false,1,662.6999999999534,1,1,2,25237,task3,810586,false,false,949,image-keyboard-response,21
true,15,0,2,0,true,q,false,true,0.0-2.0-0.32-0.291-3.291,0,1,1,81,false,stim,false,1,908.8000000000466,1,0,0,25237,task3,813000,false,false,952,image-keyboard-response,22
true,15,0,2,0,true,q,false,true,0.0-2.0-0.32-0.292-3.292,0,1,1,81,false,stim,false,0,615.8000000000466,1,1,1,25237,task3,815124,false,false,955,image-keyboard-response,23
true,15,1,2,1,true,z,false,true,0.0-2.0-0.32-0.293-3.293,0,1,1,90,false,stim,false,1,620.8000000000466,1,0,2,25237,task3,817253,false,false,958,image-keyboard-response,24
true,15,0,2,0,true,q,false,true,0.0-2.0-0.32-0.294-3.294,0,1,1,81,false,stim,false,1,518.2999999998137,1,0,0,25237,task3,819279,false,false,961,image-keyboard-response,25
true,15,0,2,0,true,q,false,true,0.0-2.0-0.32-0.295-3.295,0,1,1,81,false,stim,false,1,450.80000000004657,1,0,0,25237,task3,821237,false,false,964,image-keyboard-response,26
true,15,1,2,0,false,q,true,true,0.0-2.0-0.32-0.296-3.296,0,1,1,90,false,stim,false,0,868.5999999998603,1,1,1,25237,task3,823614,false,true,967,image-keyboard-response,27
true,16,1,1,0,false,q,true,false,0.0-2.0-0.33-0.297-3.297,0,1,0,90,true,stim,false,0,426.0,1,1,1,25237,task3,825547,false,false,970,image-keyboard-response,1
true,16,1,1,2,false,d,false,false,0.0-2.0-0.33-0.298-3.298,0,1,0,90,false,stim,true,1,852.8999999999069,1,0,2,25237,task3,827908,false,false,973,image-keyboard-response,2
true,16,1,1,2,false,d,false,false,0.0-2.0-0.33-0.299-3.299,0,1,0,90,false,stim,true,1,860.4000000001397,1,0,2,25237,task3,830277,false,false,976,image-keyboard-response,3
true,16,1,1,1,true,z,false,true,0.0-2.0-0.33-0.300-3.300,0,1,0,90,false,stim,false,0,1086.0,1,0,0,25237,task3,832871,false,false,979,image-keyboard-response,4
true,16,0,1,0,true,q,false,true,0.0-2.0-0.33-0.301-3.301,0,1,0,81,false,stim,false,0,691.3000000000466,1,1,1,25237,task3,835069,false,false,982,image-keyboard-response,5
true,16,1,1,1,true,z,false,true,0.0-2.0-0.33-0.302-3.302,0,1,0,90,false,stim,false,0,543.8000000000466,1,0,0,25237,task3,837119,false,false,985,image-keyboard-response,6
true,16,1,1,1,true,z,false,false,0.0-2.0-0.33-0.303-3.303,0,1,0,90,false,stim,false,0,853.4000000001397,1,0,0,25237,task3,839480,false,true,988,image-keyboard-response,7
true,16,0,1,0,true,q,false,false,0.0-2.0-0.33-0.304-3.304,0,1,0,81,false,stim,false,0,632.8999999999069,1,1,1,25237,task3,841622,false,true,991,image-keyboard-response,8
true,16,2,1,2,true,d,false,true,0.0-2.0-0.33-0.305-3.305,0,1,0,68,false,stim,false,1,1339.4000000001397,1,0,2,25237,task3,844469,false,false,994,image-keyboard-response,9
true,16,1,1,0,false,q,true,false,0.0-2.0-0.34-0.306-3.306,0,1,0,90,false,stim,false,0,1040.3999999999069,1,1,1,25237,task3,847018,false,false,997,image-keyboard-response,10
true,16,0,1,0,true,q,false,true,0.0-2.0-0.34-0.307-3.307,0,1,0,81,false,stim,false,0,1197.3000000000466,1,1,1,25237,task3,849723,false,false,1000,image-keyboard-response,11
true,16,2,1,2,true,d,false,true,0.0-2.0-0.34-0.308-3.308,0,1,0,68,false,stim,false,1,995.9000000001397,1,0,2,25237,task3,852240,false,false,1003,image-keyboard-response,12
true,16,1,1,1,true,z,false,true,0.0-2.0-0.34-0.309-3.309,0,1,0,90,false,stim,false,0,548.5,1,0,0,25237,task3,854299,false,false,1006,image-keyboard-response,13
true,16,0,1,0,true,q,false,true,0.0-2.0-0.34-0.310-3.310,0,1,0,81,false,stim,false,0,661.0,1,1,1,25237,task3,856467,false,false,1009,image-keyboard-response,14
true,16,2,1,2,true,d,false,true,0.0-2.0-0.34-0.311-3.311,0,1,0,68,false,stim,false,1,482.89999999990687,1,0,2,25237,task3,858458,false,false,1012,image-keyboard-response,15
true,16,1,1,1,true,z,false,false,0.0-2.0-0.34-0.312-3.312,0,1,0,90,false,stim,false,0,628.7000000001863,1,0,0,25237,task3,860593,false,true,1015,image-keyboard-response,16
true,16,2,1,2,true,d,false,true,0.0-2.0-0.34-0.313-3.313,0,1,0,68,false,stim,false,1,734.7000000001863,1,0,2,25237,task3,862836,false,false,1018,image-keyboard-response,17
true,16,1,1,1,true,z,false,true,0.0-2.0-0.34-0.314-3.314,0,1,0,90,false,stim,false,0,440.19999999995343,1,0,0,25237,task3,864783,false,false,1021,image-keyboard-response,18
true,16,0,1,0,true,q,false,true,0.0-2.0-0.35-0.315-3.315,0,1,0,81,false,stim,false,0,786.8999999999069,1,1,1,25237,task3,867080,false,false,1024,image-keyboard-response,19
true,16,1,1,1,true,z,false,true,0.0-2.0-0.35-0.316-3.316,0,1,0,90,false,stim,false,0,647.0,1,0,0,25237,task3,869235,false,false,1027,image-keyboard-response,20
true,16,0,1,0,true,q,false,false,0.0-2.0-0.35-0.317-3.317,0,1,0,81,false,stim,false,0,816.4000000001397,1,1,1,25237,task3,871559,false,true,1030,image-keyboard-response,21
true,16,0,1,0,true,q,false,true,0.0-2.0-0.35-0.318-3.318,0,1,0,81,false,stim,false,0,526.3000000000466,1,1,1,25237,task3,873594,false,false,1033,image-keyboard-response,22
true,16,1,1,1,true,z,false,true,0.0-2.0-0.35-0.319-3.319,0,1,0,90,false,stim,false,0,629.8000000000466,1,0,0,25237,task3,875733,false,false,1036,image-keyboard-response,23
true,16,2,1,2,true,d,false,true,0.0-2.0-0.35-0.320-3.320,0,1,0,68,false,stim,false,1,808.6999999999534,1,0,2,25237,task3,878049,false,false,1039,image-keyboard-response,24
true,16,1,1,1,true,z,false,true,0.0-2.0-0.35-0.321-3.321,0,1,0,90,false,stim,false,0,700.9000000001397,1,1,0,25237,task3,880259,false,false,1042,image-keyboard-response,25
true,16,2,1,2,true,d,false,false,0.0-2.0-0.35-0.322-3.322,0,1,0,68,false,stim,false,1,799.3000000000466,1,0,2,25237,task3,882565,false,true,1045,image-keyboard-response,26
true,16,2,1,2,true,d,false,true,0.0-2.0-0.35-0.323-3.323,0,1,0,68,false,stim,false,1,593.2000000001863,1,0,2,25237,task3,884665,false,false,1048,image-keyboard-response,27
true,16,1,1,1,true,z,false,true,0.0-2.0-0.36-0.324-3.324,0,1,0,90,false,stim,false,0,956.3000000000466,1,1,0,25237,task3,887130,false,false,1051,image-keyboard-response,28
true,16,0,1,0,true,q,false,true,0.0-2.0-0.36-0.325-3.325,0,1,0,81,false,stim,false,0,688.3000000000466,1,0,1,25237,task3,889325,false,false,1054,image-keyboard-response,29
true,17,0,1,2,false,d,false,false,0.0-2.0-0.36-0.326-3.326,1,0,0,81,true,stim,true,0,488.19999999995343,1,0,1,25237,task3,891320,false,false,1057,image-keyboard-response,1
true,17,2,1,1,false,z,false,false,0.0-2.0-0.36-0.327-3.327,1,0,0,68,false,stim,true,2,779.5999999998603,1,0,2,25237,task3,893607,false,false,1060,image-keyboard-response,2
true,17,1,1,1,true,z,false,true,0.0-2.0-0.36-0.328-3.328,1,0,0,90,false,stim,false,1,605.1999999999534,1,1,0,25237,task3,895720,false,false,1063,image-keyboard-response,3
true,17,2,1,1,false,z,false,false,0.0-2.0-0.36-0.329-3.329,1,0,0,68,false,stim,true,2,659.2000000001863,1,0,2,25237,task3,897886,false,false,1066,image-keyboard-response,4
true,17,1,1,1,true,z,false,true,0.0-2.0-0.36-0.330-3.330,1,0,0,90,false,stim,false,1,815.3000000000466,1,1,0,25237,task3,900210,false,false,1069,image-keyboard-response,5
true,17,1,1,1,true,z,false,true,0.0-2.0-0.36-0.331-3.331,1,0,0,90,false,stim,false,2,457.89999999990687,1,0,2,25237,task3,902176,false,false,1072,image-keyboard-response,6
true,17,0,1,2,false,d,false,false,0.0-2.0-0.36-0.332-3.332,1,0,0,81,false,stim,true,0,726.4000000001397,1,0,1,25237,task3,904409,false,false,1075,image-keyboard-response,7
true,17,0,1,2,false,d,false,false,0.0-2.0-0.37-0.333-3.333,1,0,0,81,false,stim,true,0,451.0,1,0,1,25237,task3,906367,false,false,1078,image-keyboard-response,8
true,17,1,1,1,true,z,false,true,0.0-2.0-0.37-0.334-3.334,1,0,0,90,false,stim,false,1,719.6999999999534,1,1,0,25237,task3,908602,false,false,1081,image-keyboard-response,9
true,17,2,1,2,true,d,false,true,0.0-2.0-0.37-0.335-3.335,1,0,0,68,false,stim,false,0,797.8999999999069,1,0,1,25237,task3,910907,false,false,1084,image-keyboard-response,10
true,17,1,1,1,true,z,false,true,0.0-2.0-0.37-0.336-3.336,1,0,0,90,false,stim,false,1,625.7999999998137,1,1,0,25237,task3,913041,false,false,1087,image-keyboard-response,11
true,17,1,1,1,true,z,false,false,0.0-2.0-0.37-0.337-3.337,1,0,0,90,false,stim,false,2,800.8999999999069,1,0,2,25237,task3,915349,false,true,1090,image-keyboard-response,12
true,17,1,1,1,true,z,false,true,0.0-2.0-0.37-0.338-3.338,1,0,0,90,false,stim,false,2,391.29999999981374,1,0,2,25237,task3,917248,false,false,1093,image-keyboard-response,13
true,17,1,1,1,true,z,false,true,0.0-2.0-0.37-0.339-3.339,1,0,0,90,false,stim,false,2,524.3000000000466,1,0,2,25237,task3,919280,false,false,1096,image-keyboard-response,14
true,17,2,1,2,true,d,false,true,0.0-2.0-0.37-0.340-3.340,1,0,0,68,false,stim,false,0,776.3000000000466,1,0,1,25237,task3,921563,false,false,1099,image-keyboard-response,15
true,17,1,1,1,true,z,false,true,0.0-2.0-0.37-0.341-3.341,1,0,0,90,false,stim,false,1,554.1999999999534,1,1,0,25237,task3,923641,false,false,1102,image-keyboard-response,16
true,17,1,1,1,true,z,false,true,0.0-2.0-0.38-0.342-3.342,1,0,0,90,false,stim,false,2,853.5,1,0,2,25237,task3,926006,false,false,1105,image-keyboard-response,17
true,17,2,1,2,true,d,false,true,0.0-2.0-0.38-0.343-3.343,1,0,0,68,false,stim,false,0,782.0,1,0,1,25237,task3,928297,false,false,1108,image-keyboard-response,18
true,17,2,1,2,true,d,false,false,0.0-2.0-0.38-0.344-3.344,1,0,0,68,false,stim,false,0,473.10000000009313,1,0,1,25237,task3,930278,false,true,1111,image-keyboard-response,19
true,17,1,1,1,true,z,false,true,0.0-2.0-0.38-0.345-3.345,1,0,0,90,false,stim,false,2,1237.5,1,1,2,25237,task3,933022,false,false,1114,image-keyboard-response,20
true,17,1,1,1,true,z,false,true,0.0-2.0-0.38-0.346-3.346,1,0,0,90,false,stim,false,1,805.1000000000931,1,0,0,25237,task3,935338,false,false,1117,image-keyboard-response,21
true,17,1,1,1,true,z,false,true,0.0-2.0-0.38-0.347-3.347,1,0,0,90,false,stim,false,2,768.8000000000466,1,1,2,25237,task3,937614,false,false,1120,image-keyboard-response,22
true,17,1,1,1,true,z,false,true,0.0-2.0-0.38-0.348-3.348,1,0,0,90,false,stim,false,1,598.0999999998603,1,0,0,25237,task3,939720,false,false,1123,image-keyboard-response,23
true,17,2,1,2,true,d,false,true,0.0-2.0-0.38-0.349-3.349,1,0,0,68,false,stim,false,0,579.3999999999069,1,0,1,25237,task3,941808,false,false,1126,image-keyboard-response,24
true,18,1,1,2,false,d,false,false,0.0-2.0-0.38-0.350-3.350,0,0,1,90,true,stim,true,1,1296.9000000001397,1,0,0,25237,task3,944613,false,false,1129,image-keyboard-response,1
true,18,1,1,2,false,d,false,false,0.0-2.0-0.39-0.351-3.351,0,0,1,90,false,stim,true,1,404.30000000004657,1,0,0,25237,task3,946526,false,false,1132,image-keyboard-response,2
true,18,2,1,1,false,z,true,false,0.0-2.0-0.39-0.352-3.352,0,0,1,68,false,stim,false,1,1117.8000000000466,1,1,2,25237,task3,949151,false,false,1135,image-keyboard-response,3
true,18,2,1,1,false,z,true,false,0.0-2.0-0.39-0.353-3.353,0,0,1,68,false,stim,false,1,977.8000000000466,1,1,2,25237,task3,951637,false,false,1138,image-keyboard-response,4
true,18,0,1,0,true,q,false,false,0.0-2.0-0.39-0.354-3.354,0,0,1,81,false,stim,false,2,1343.0999999998603,1,0,1,25237,task3,954488,false,true,1141,image-keyboard-response,5
true,18,1,1,0,false,q,true,false,0.0-2.0-0.39-0.355-3.355,0,0,1,90,false,stim,false,2,405.5,1,0,1,25237,task3,956402,false,false,1144,image-keyboard-response,6
true,18,1,1,2,false,d,false,false,0.0-2.0-0.39-0.356-3.356,0,0,1,90,false,stim,true,1,1039.3000000000466,1,0,0,25237,task3,958948,false,false,1147,image-keyboard-response,7
true,18,0,1,1,false,z,true,false,0.0-2.0-0.39-0.357-3.357,0,0,1,81,false,stim,false,1,1116.5,1,1,2,25237,task3,961573,false,false,1150,image-keyboard-response,8
true,18,2,1,0,false,q,false,false,0.0-2.0-0.39-0.358-3.358,0,0,1,68,false,stim,true,2,716.6000000000931,1,0,1,25237,task3,963797,false,false,1153,image-keyboard-response,9
true,18,0,1,2,false,d,true,false,0.0-2.0-0.39-0.359-3.359,0,0,1,81,false,stim,false,1,1043.0999999998603,1,0,0,25237,task3,966348,false,false,1156,image-keyboard-response,10
true,18,2,1,2,true,d,false,true,0.0-2.0-0.40-0.360-3.360,0,0,1,68,false,stim,false,1,461.39999999990687,1,1,0,25237,task3,968318,false,false,1159,image-keyboard-response,11
true,18,2,1,2,true,d,false,true,0.0-2.0-0.40-0.361-3.361,0,0,1,68,false,stim,false,1,589.5999999998603,1,1,0,25237,task3,970416,false,false,1162,image-keyboard-response,12
true,18,1,1,1,true,z,false,true,0.0-2.0-0.40-0.362-3.362,0,0,1,90,false,stim,false,1,1219.3000000000466,1,0,2,25237,task3,973143,false,false,1165,image-keyboard-response,13
true,18,1,1,1,true,z,false,true,0.0-2.0-0.40-0.363-3.363,0,0,1,90,false,stim,false,1,459.0999999998603,1,0,2,25237,task3,975110,false,false,1168,image-keyboard-response,14
true,18,1,1,0,false,q,true,false,0.0-2.0-0.40-0.364-3.364,0,0,1,90,false,stim,false,2,1136.6999999999534,1,1,1,25237,task3,977754,false,false,1171,image-keyboard-response,15
true,19,2,2,2,true,d,false,true,0.0-2.0-0.40-0.365-3.365,1,1,0,68,true,stim,false,1,878.7000000001863,1,0,2,25237,task3,980142,false,false,1174,image-keyboard-response,1
true,19,1,2,2,false,d,true,false,0.0-2.0-0.40-0.366-3.366,1,1,0,90,false,stim,false,2,480.19999999995343,1,1,0,25237,task3,982131,false,false,1177,image-keyboard-response,2
true,19,0,2,0,true,q,false,true,0.0-2.0-0.40-0.367-3.367,1,1,0,81,false,stim,false,0,1162.3999999999069,1,1,1,25237,task3,984801,false,false,1180,image-keyboard-response,3
true,19,0,2,0,true,q,false,false,0.0-2.0-0.40-0.368-3.368,1,1,0,81,false,stim,false,0,445.5999999998603,1,1,1,25237,task3,986755,false,true,1183,image-keyboard-response,4
true,19,1,2,2,false,d,true,false,0.0-2.0-0.41-0.369-3.369,1,1,0,90,false,stim,false,2,727.5,1,1,0,25237,task3,988991,false,false,1186,image-keyboard-response,5
true,19,0,2,0,true,q,false,true,0.0-2.0-0.41-0.370-3.370,1,1,0,81,false,stim,false,0,715.6999999999534,1,1,1,25237,task3,991214,false,false,1189,image-keyboard-response,6
true,19,1,2,2,false,d,false,true,0.0-2.0-0.41-0.371-3.371,1,1,0,90,false,stim,true,1,460.30000000004657,1,0,2,25237,task3,993182,false,true,1192,image-keyboard-response,7
true,19,1,2,2,false,d,false,true,0.0-2.0-0.41-0.372-3.372,1,1,0,90,false,stim,true,1,480.30000000004657,1,0,2,25237,task3,995169,false,true,1195,image-keyboard-response,8
true,19,2,2,2,true,d,false,true,0.0-2.0-0.41-0.373-3.373,1,1,0,68,false,stim,false,2,611.8000000000466,1,1,0,25237,task3,997288,false,false,1198,image-keyboard-response,9
true,19,0,2,0,true,q,false,true,0.0-2.0-0.41-0.374-3.374,1,1,0,81,false,stim,false,0,677.6000000000931,1,1,1,25237,task3,999490,false,false,1201,image-keyboard-response,10
true,19,1,2,2,false,d,true,true,0.0-2.0-0.41-0.375-3.375,1,1,0,90,false,stim,false,2,776.5999999998603,1,1,0,25237,task3,1001785,false,true,1204,image-keyboard-response,11
true,19,0,2,0,true,q,false,true,0.0-2.0-0.41-0.376-3.376,1,1,0,81,false,stim,false,0,594.1999999999534,1,1,1,25237,task3,1003887,false,false,1207,image-keyboard-response,12
true,19,2,2,2,true,d,false,true,0.0-2.0-0.41-0.377-3.377,1,1,0,68,false,stim,false,1,729.6999999999534,1,0,2,25237,task3,1006126,false,false,1210,image-keyboard-response,13
true,19,1,2,2,false,d,true,false,0.0-2.0-0.42-0.378-3.378,1,1,0,90,false,stim,false,2,647.6000000000931,1,1,0,25237,task3,1008343,false,false,1213,image-keyboard-response,14
true,19,2,2,2,true,d,false,true,0.0-2.0-0.42-0.379-3.379,1,1,0,68,false,stim,false,1,834.6999999999534,1,0,2,25237,task3,1010686,false,false,1216,image-keyboard-response,15
true,19,1,2,2,false,d,true,false,0.0-2.0-0.42-0.380-3.380,1,1,0,90,false,stim,false,2,1123.3999999999069,1,1,0,25237,task3,1013317,false,false,1219,image-keyboard-response,16
true,19,2,2,2,true,d,false,true,0.0-2.0-0.42-0.381-3.381,1,1,0,68,false,stim,false,1,1093.4000000001397,1,0,2,25237,task3,1015919,false,false,1222,image-keyboard-response,17
true,19,0,2,0,true,q,false,false,0.0-2.0-0.42-0.382-3.382,1,1,0,81,false,stim,false,0,666.3999999999069,1,1,1,25237,task3,1018095,false,true,1225,image-keyboard-response,18
true,19,0,2,0,true,q,false,false,0.0-2.0-0.42-0.383-3.383,1,1,0,81,false,stim,false,0,573.3000000000466,1,1,1,25237,task3,1020176,false,true,1228,image-keyboard-response,19
true,19,1,2,2,false,d,true,false,0.0-2.0-0.42-0.384-3.384,1,1,0,90,false,stim,false,2,1453.6000000000931,1,1,0,25237,task3,1023138,false,false,1231,image-keyboard-response,20
true,19,0,2,0,true,q,false,false,0.0-2.0-0.42-0.385-3.385,1,1,0,81,false,stim,false,0,1474.6000000000931,1,0,1,25237,task3,1026120,false,true,1234,image-keyboard-response,21
true,19,2,2,2,true,d,false,true,0.0-2.0-0.42-0.386-3.386,1,1,0,68,false,stim,false,1,897.6000000000931,1,0,2,25237,task3,1028528,false,false,1237,image-keyboard-response,22
true,19,2,2,2,true,d,false,true,0.0-2.0-0.43-0.387-3.387,1,1,0,68,false,stim,false,1,744.5999999998603,1,0,2,25237,task3,1030784,false,false,1240,image-keyboard-response,23
true,19,2,2,2,true,d,false,false,0.0-2.0-0.43-0.388-3.388,1,1,0,68,false,stim,false,1,742.4000000001397,1,0,2,25237,task3,1033034,false,true,1243,image-keyboard-response,24
true,19,2,2,2,true,d,false,false,0.0-2.0-0.43-0.389-3.389,1,1,0,68,false,stim,false,2,708.1000000000931,1,1,0,25237,task3,1035249,false,true,1246,image-keyboard-response,25
true,20,2,1,0,false,q,false,false,0.0-2.0-0.43-0.390-3.390,1,0,0,68,true,stim,true,2,1581.6000000000931,1,0,2,25237,task3,1038339,false,false,1249,image-keyboard-response,1
true,20,0,1,1,false,z,false,false,0.0-2.0-0.43-0.391-3.391,1,0,0,81,false,stim,true,0,927.5,1,0,1,25237,task3,1040776,false,false,1252,image-keyboard-response,2
true,20,0,1,2,false,d,true,false,0.0-2.0-0.43-0.392-3.392,1,0,0,81,false,stim,false,2,1635.0,1,1,0,25237,task3,1043918,false,false,1255,image-keyboard-response,3
true,20,2,1,2,true,d,false,true,0.0-2.0-0.43-0.393-3.393,1,0,0,68,false,stim,false,2,666.3999999999069,1,1,0,25237,task3,1046186,false,false,1258,image-keyboard-response,4
true,20,1,1,1,true,z,false,true,0.0-2.0-0.43-0.394-3.394,1,0,0,90,false,stim,false,0,1561.0,1,0,1,25237,task3,1049254,false,false,1261,image-keyboard-response,5
true,20,1,1,1,true,z,false,true,0.0-2.0-0.43-0.395-3.395,1,0,0,90,false,stim,false,0,527.2000000001863,1,0,1,25237,task3,1051289,false,false,1264,image-keyboard-response,6
true,20,2,1,0,false,q,false,false,0.0-2.0-0.44-0.396-3.396,1,0,0,68,false,stim,true,2,835.5,1,0,2,25237,task3,1053635,false,false,1267,image-keyboard-response,7
true,20,2,1,0,false,q,false,false,0.0-2.0-0.44-0.397-3.397,1,0,0,68,false,stim,true,2,531.5,1,0,2,25237,task3,1055676,false,false,1270,image-keyboard-response,8
true,20,1,1,1,true,z,false,true,0.0-2.0-0.44-0.398-3.398,1,0,0,90,false,stim,false,0,1046.7000000001863,1,0,1,25237,task3,1058231,false,false,1273,image-keyboard-response,9
true,20,0,1,0,true,q,false,true,0.0-2.0-0.44-0.399-3.399,1,0,0,81,false,stim,false,2,959.6000000000931,1,0,2,25237,task3,1060700,false,false,1276,image-keyboard-response,10
true,20,2,1,2,true,d,false,false,0.0-2.0-0.44-0.400-3.400,1,0,0,68,false,stim,false,2,817.8000000002794,1,1,0,25237,task3,1063026,false,true,1279,image-keyboard-response,11
true,20,1,1,1,true,z,false,true,0.0-2.0-0.44-0.401-3.401,1,0,0,90,false,stim,false,0,1074.3999999999069,1,0,1,25237,task3,1065609,false,false,1282,image-keyboard-response,12
true,20,1,1,1,true,z,false,true,0.0-2.0-0.44-0.402-3.402,1,0,0,90,false,stim,false,0,559.1000000000931,1,0,1,25237,task3,1067675,false,false,1285,image-keyboard-response,13
true,20,0,1,2,false,d,true,false,0.0-2.0-0.44-0.403-3.403,1,0,0,81,false,stim,false,2,1319.5,1,1,0,25237,task3,1070504,false,false,1288,image-keyboard-response,14
true,20,1,1,2,false,d,true,true,0.0-2.0-0.44-0.404-3.404,1,0,0,90,false,stim,false,2,490.6999999997206,1,1,0,25237,task3,1072504,false,true,1291,image-keyboard-response,15
true,20,1,1,2,false,d,true,false,0.0-2.0-0.45-0.405-3.405,1,0,0,90,false,stim,false,2,422.70000000018626,1,1,0,25237,task3,1074435,false,false,1294,image-keyboard-response,16
true,20,1,1,2,false,d,true,true,0.0-2.0-0.45-0.406-3.406,1,0,0,90,false,stim,false,2,387.40000000037253,1,1,0,25237,task3,1076330,false,true,1297,image-keyboard-response,17
true,20,1,1,2,false,d,true,false,0.0-2.0-0.45-0.407-3.407,1,0,0,90,false,stim,false,2,521.5,1,1,0,25237,task3,1078360,false,false,1300,image-keyboard-response,18
true,20,1,1,1,true,z,false,true,0.0-2.0-0.45-0.408-3.408,1,0,0,90,false,stim,false,0,659.7000000001863,1,0,1,25237,task3,1080597,false,false,1303,image-keyboard-response,19
true,20,1,1,1,true,z,false,true,0.0-2.0-0.45-0.409-3.409,1,0,0,90,false,stim,false,0,613.8999999999069,1,0,1,25237,task3,1082718,false,false,1306,image-keyboard-response,20
true,20,0,1,0,true,q,false,true,0.0-2.0-0.45-0.410-3.410,1,0,0,81,false,stim,false,2,750.3999999999069,1,0,2,25237,task3,1084976,false,false,1309,image-keyboard-response,21
true,20,0,1,0,true,q,false,true,0.0-2.0-0.45-0.411-3.411,1,0,0,81,false,stim,false,2,498.40000000037253,1,0,2,25237,task3,1086984,false,false,1312,image-keyboard-response,22
true,20,0,1,1,false,z,false,false,0.0-2.0-0.45-0.412-3.412,1,0,0,81,false,stim,true,0,500.5,1,0,1,25237,task3,1088992,false,false,1315,image-keyboard-response,23
true,20,1,1,0,false,q,true,false,0.0-2.0-0.45-0.413-3.413,1,0,0,90,false,stim,false,2,1565.6000000000931,1,0,2,25237,task3,1092068,false,false,1318,image-keyboard-response,24
true,20,1,1,0,false,q,true,true,0.0-2.0-0.46-0.414-3.414,1,0,0,90,false,stim,false,2,559.3999999999069,1,0,2,25237,task3,1094139,false,true,1321,image-keyboard-response,25
true,20,1,1,2,false,d,true,false,0.0-2.0-0.46-0.415-3.415,1,0,0,90,false,stim,false,2,892.2999999998137,1,0,0,25237,task3,1096540,false,false,1324,image-keyboard-response,26
true,20,1,1,2,false,d,true,false,0.0-2.0-0.46-0.416-3.416,1,0,0,90,false,stim,false,2,404.60000000009313,1,0,0,25237,task3,1098452,false,false,1327,image-keyboard-response,27
true,20,0,1,1,false,z,false,false,0.0-2.0-0.46-0.417-3.417,1,0,0,81,false,stim,true,0,706.5,1,0,1,25237,task3,1100669,false,false,1330,image-keyboard-response,28
true,20,1,1,0,false,q,true,false,0.0-2.0-0.46-0.418-3.418,1,0,0,90,false,stim,false,2,805.5,1,1,2,25237,task3,1102982,false,false,1333,image-keyboard-response,29
true,20,1,1,1,true,z,false,true,0.0-2.0-0.46-0.419-3.419,1,0,0,90,false,stim,false,0,1818.5,1,0,1,25237,task3,1106310,false,false,1336,image-keyboard-response,30
true,21,1,1,2,false,d,false,false,0.0-2.0-0.46-0.420-3.420,0,0,1,90,true,stim,true,1,429.60000000009313,1,0,1,25237,task3,1108248,false,false,1339,image-keyboard-response,1
true,21,0,1,0,true,q,false,true,0.0-2.0-0.46-0.421-3.421,0,0,1,81,false,stim,false,0,1246.1999999997206,1,1,2,25237,task3,1111004,false,false,1342,image-keyboard-response,2
true,21,2,1,0,false,q,false,true,0.0-2.0-0.46-0.422-3.422,0,0,1,68,false,stim,true,2,1994.7000000001863,1,0,0,25237,task3,1114506,false,true,1345,image-keyboard-response,3
true,21,2,1,0,false,q,false,false,0.0-2.0-0.47-0.423-3.423,0,0,1,68,false,stim,true,2,492.10000000009313,1,0,0,25237,task3,1116508,false,false,1348,image-keyboard-response,4
true,21,0,1,0,true,q,false,true,0.0-2.0-0.47-0.424-3.424,0,0,1,81,false,stim,false,0,1021.6000000000931,1,1,2,25237,task3,1119038,false,false,1351,image-keyboard-response,5
true,21,1,1,2,false,d,false,true,0.0-2.0-0.47-0.425-3.425,0,0,1,90,false,stim,true,1,411.89999999990687,1,0,1,25237,task3,1120959,false,true,1354,image-keyboard-response,6
true,21,1,1,2,false,d,false,false,0.0-2.0-0.47-0.426-3.426,0,0,1,90,false,stim,true,1,624.6999999997206,1,0,1,25237,task3,1123092,false,false,1357,image-keyboard-response,7
true,21,1,1,2,false,d,false,false,0.0-2.0-0.47-0.427-3.427,0,0,1,90,false,stim,true,1,447.8000000002794,1,0,1,25237,task3,1125049,false,false,1360,image-keyboard-response,8
true,21,2,1,0,false,q,false,false,0.0-2.0-0.47-0.428-3.428,0,0,1,68,false,stim,true,2,1224.8999999999069,1,0,0,25237,task3,1127782,false,false,1363,image-keyboard-response,9
true,21,0,1,0,true,q,false,true,0.0-2.0-0.47-0.429-3.429,0,0,1,81,false,stim,false,0,1015.1999999997206,1,1,2,25237,task3,1130307,false,false,1366,image-keyboard-response,10
true,21,0,1,0,true,q,false,true,0.0-2.0-0.47-0.430-3.430,0,0,1,81,false,stim,false,0,584.6000000000931,1,1,2,25237,task3,1132403,false,false,1369,image-keyboard-response,11
true,21,2,1,0,false,q,false,false,0.0-2.0-0.47-0.431-3.431,0,0,1,68,false,stim,true,2,1457.9000000003725,1,0,0,25237,task3,1135409,false,false,1372,image-keyboard-response,12
true,21,0,1,0,true,q,false,true,0.0-2.0-0.48-0.432-3.432,0,0,1,81,false,stim,false,0,1041.3999999999069,1,1,2,25237,task3,1137961,false,false,1375,image-keyboard-response,13
true,21,1,1,0,false,q,true,false,0.0-2.0-0.48-0.433-3.433,0,0,1,90,false,stim,false,2,564.3000000002794,1,0,0,25237,task3,1140035,false,false,1378,image-keyboard-response,14
true,21,0,1,0,true,q,false,true,0.0-2.0-0.48-0.434-3.434,0,0,1,81,false,stim,false,2,762.7000000001863,1,0,0,25237,task3,1142306,false,false,1381,image-keyboard-response,15
true,21,1,1,2,false,d,false,false,0.0-2.0-0.48-0.435-3.435,0,0,1,90,false,stim,true,1,1393.0999999996275,1,0,1,25237,task3,1145207,false,false,1384,image-keyboard-response,16
true,21,0,1,0,true,q,false,false,0.0-2.0-0.48-0.436-3.436,0,0,1,81,false,stim,false,2,1003.6000000000931,1,0,0,25237,task3,1147719,false,true,1387,image-keyboard-response,17
true,21,0,1,0,true,q,false,false,0.0-2.0-0.48-0.437-3.437,0,0,1,81,false,stim,false,0,812.8000000002794,1,1,2,25237,task3,1150040,false,true,1390,image-keyboard-response,18
true,21,2,1,2,true,d,false,true,0.0-2.0-0.48-0.438-3.438,0,0,1,68,false,stim,false,1,1041.0999999996275,1,0,1,25237,task3,1152590,false,false,1393,image-keyboard-response,19
true,21,2,1,2,true,d,false,true,0.0-2.0-0.48-0.439-3.439,0,0,1,68,false,stim,false,1,428.5,1,0,1,25237,task3,1154528,false,false,1396,image-keyboard-response,20
true,21,0,1,0,true,q,false,true,0.0-2.0-0.48-0.440-3.440,0,0,1,81,false,stim,false,0,800.1999999997206,1,0,2,25237,task3,1156836,false,false,1399,image-keyboard-response,21
true,21,2,1,2,true,d,false,true,0.0-2.0-0.49-0.441-3.441,0,0,1,68,false,stim,false,1,793.3999999999069,1,0,1,25237,task3,1159160,false,false,1402,image-keyboard-response,22
true,21,2,1,2,true,d,false,true,0.0-2.0-0.49-0.442-3.442,0,0,1,68,false,stim,false,1,777.5,1,0,1,25237,task3,1161483,false,false,1405,image-keyboard-response,23
true,21,0,1,0,true,q,false,true,0.0-2.0-0.49-0.443-3.443,0,0,1,81,false,stim,false,0,966.1000000000931,1,0,2,25237,task3,1163992,false,false,1408,image-keyboard-response,24
true,22,0,1,0,true,q,false,true,0.0-2.0-0.49-0.444-3.444,1,0,0,81,true,stim,false,0,579.2000000001863,1,1,0,25237,task3,1166080,false,false,1411,image-keyboard-response,1
true,22,0,1,0,true,q,false,true,0.0-2.0-0.49-0.445-3.445,1,0,0,81,false,stim,false,0,457.60000000009313,1,1,0,25237,task3,1168047,false,false,1414,image-keyboard-response,2
true,22,0,1,0,true,q,false,true,0.0-2.0-0.49-0.446-3.446,1,0,0,81,false,stim,false,0,447.89999999990687,1,1,0,25237,task3,1170004,false,false,1417,image-keyboard-response,3
true,22,0,1,2,false,d,false,false,0.0-2.0-0.49-0.447-3.447,1,0,0,81,false,stim,true,0,876.7000000001863,1,0,2,25237,task3,1172391,false,false,1420,image-keyboard-response,4
true,22,2,1,0,false,q,false,false,0.0-2.0-0.49-0.448-3.448,1,0,0,68,false,stim,true,2,474.5,1,0,1,25237,task3,1174373,false,false,1423,image-keyboard-response,5
true,22,0,1,2,false,d,false,false,0.0-2.0-0.49-0.449-3.449,1,0,0,81,false,stim,true,0,633.3999999999069,1,0,2,25237,task3,1176516,false,false,1426,image-keyboard-response,6
true,22,0,1,0,true,q,false,true,0.0-2.0-0.50-0.450-3.450,1,0,0,81,false,stim,false,0,1077.2999999998137,1,1,0,25237,task3,1179103,false,false,1429,image-keyboard-response,7
true,22,1,1,2,false,d,true,false,0.0-2.0-0.50-0.451-3.451,1,0,0,90,false,stim,false,0,965.3999999999069,1,0,2,25237,task3,1181577,false,false,1432,image-keyboard-response,8
true,22,2,1,2,true,d,false,false,0.0-2.0-0.50-0.452-3.452,1,0,0,68,false,stim,false,0,468.39999999990687,1,0,2,25237,task3,1183554,false,true,1435,image-keyboard-response,9
true,22,2,1,0,false,q,false,false,0.0-2.0-0.50-0.453-3.453,1,0,0,68,false,stim,true,2,927.2000000001863,1,0,1,25237,task3,1185990,false,false,1438,image-keyboard-response,10
true,22,1,1,2,false,d,true,false,0.0-2.0-0.50-0.454-3.454,1,0,0,90,false,stim,false,0,1179.6000000000931,1,0,2,25237,task3,1188681,false,false,1441,image-keyboard-response,11
true,22,0,1,0,true,q,false,true,0.0-2.0-0.50-0.455-3.455,1,0,0,81,false,stim,false,0,687.6000000000931,1,1,0,25237,task3,1190878,false,false,1444,image-keyboard-response,12
true,22,0,1,0,true,q,false,true,0.0-2.0-0.50-0.456-3.456,1,0,0,81,false,stim,false,2,1113.7999999998137,1,0,1,25237,task3,1193501,false,false,1447,image-keyboard-response,13
true,22,0,1,0,true,q,false,false,0.0-2.0-0.50-0.457-3.457,1,0,0,81,false,stim,false,2,463.1999999997206,1,0,1,25237,task3,1195474,false,true,1450,image-keyboard-response,14
true,22,0,1,0,true,q,false,true,0.0-2.0-0.50-0.458-3.458,1,0,0,81,false,stim,false,0,730.3999999999069,1,1,0,25237,task3,1197713,false,false,1453,image-keyboard-response,15
true,22,0,1,2,false,d,false,false,0.0-2.0-0.51-0.459-3.459,1,0,0,81,false,stim,true,0,800.0,1,0,2,25237,task3,1200026,false,false,1456,image-keyboard-response,16
true,22,0,1,0,true,q,false,true,0.0-2.0-0.51-0.460-3.460,1,0,0,81,false,stim,false,0,723.5,1,1,0,25237,task3,1202262,false,false,1459,image-keyboard-response,17
true,22,0,1,0,true,q,false,true,0.0-2.0-0.51-0.461-3.461,1,0,0,81,false,stim,false,2,731.6000000000931,1,0,1,25237,task3,1204503,false,false,1462,image-keyboard-response,18
true,22,2,1,2,true,d,false,true,0.0-2.0-0.51-0.462-3.462,1,0,0,68,false,stim,false,0,779.1999999997206,1,0,2,25237,task3,1206790,false,false,1465,image-keyboard-response,19
true,22,0,1,0,true,q,false,true,0.0-2.0-0.51-0.463-3.463,1,0,0,81,false,stim,false,2,630.1000000000931,1,0,1,25237,task3,1208930,false,false,1468,image-keyboard-response,20
true,22,0,1,0,true,q,false,true,0.0-2.0-0.51-0.464-3.464,1,0,0,81,false,stim,false,0,552.2000000001863,1,0,0,25237,task3,1210991,false,false,1471,image-keyboard-response,21
true,22,0,1,0,true,q,false,true,0.0-2.0-0.51-0.465-3.465,1,0,0,81,false,stim,false,2,698.8999999999069,1,1,1,25237,task3,1213199,false,false,1474,image-keyboard-response,22
true,22,2,1,2,true,d,false,false,0.0-2.0-0.51-0.466-3.466,1,0,0,68,false,stim,false,0,547.5,1,0,2,25237,task3,1215255,false,true,1477,image-keyboard-response,23
true,22,0,1,0,true,q,false,true,0.0-2.0-0.51-0.467-3.467,1,0,0,81,false,stim,false,0,548.2999999998137,1,0,0,25237,task3,1217312,false,false,1480,image-keyboard-response,24
true,22,2,1,2,true,d,false,true,0.0-2.0-0.52-0.468-3.468,1,0,0,68,false,stim,false,0,477.0,1,0,2,25237,task3,1219306,false,false,1483,image-keyboard-response,25
true,23,0,1,0,true,q,false,true,0.0-2.0-0.52-0.469-3.469,0,1,0,81,true,stim,false,0,575.2000000001863,1,1,1,25237,task3,1221391,false,false,1486,image-keyboard-response,1
true,23,0,1,0,true,q,false,true,0.0-2.0-0.52-0.470-3.470,0,1,0,81,false,stim,false,0,563.3999999999069,1,1,1,25237,task3,1223463,false,false,1489,image-keyboard-response,2
true,23,0,1,1,false,z,false,false,0.0-2.0-0.52-0.471-3.471,0,1,0,81,false,stim,true,0,712.5,1,0,0,25237,task3,1225686,false,false,1492,image-keyboard-response,3
true,23,2,1,0,false,q,false,false,0.0-2.0-0.52-0.472-3.472,0,1,0,68,false,stim,true,2,745.1000000000931,1,0,2,25237,task3,1227941,false,false,1495,image-keyboard-response,4
true,23,0,1,1,false,z,false,false,0.0-2.0-0.52-0.473-3.473,0,1,0,81,false,stim,true,0,566.7999999998137,1,0,0,25237,task3,1230020,false,false,1498,image-keyboard-response,5
true,23,0,1,0,true,q,false,true,0.0-2.0-0.52-0.474-3.474,0,1,0,81,false,stim,false,0,1041.7999999998137,1,1,1,25237,task3,1232592,false,false,1501,image-keyboard-response,6
true,23,2,1,0,false,q,false,false,0.0-2.0-0.52-0.475-3.475,0,1,0,68,false,stim,true,2,666.6999999997206,1,0,2,25237,task3,1234807,false,false,1504,image-keyboard-response,7
true,23,1,1,1,true,z,false,false,0.0-2.0-0.52-0.476-3.476,0,1,0,90,false,stim,false,0,1130.3999999999069,1,0,0,25237,task3,1237447,false,true,1507,image-keyboard-response,8
true,23,2,1,0,false,q,true,false,0.0-2.0-0.53-0.477-3.477,0,1,0,68,false,stim,false,0,1015.3999999999069,1,1,1,25237,task3,1240006,false,false,1510,image-keyboard-response,9
true,23,0,1,0,true,q,false,true,0.0-2.0-0.53-0.478-3.478,0,1,0,81,false,stim,false,0,484.5,1,1,1,25237,task3,1242000,false,false,1513,image-keyboard-response,10
true,23,1,1,0,false,q,true,false,0.0-2.0-0.53-0.479-3.479,0,1,0,90,false,stim,false,2,1108.2999999998137,1,0,2,25237,task3,1244618,false,false,1516,image-keyboard-response,11
true,23,0,1,0,true,q,false,true,0.0-2.0-0.53-0.480-3.480,0,1,0,81,false,stim,false,2,828.7000000001863,1,0,2,25237,task3,1246956,false,false,1519,image-keyboard-response,12
true,23,2,1,1,false,z,true,false,0.0-2.0-0.53-0.481-3.481,0,1,0,68,false,stim,false,0,1392.1000000000931,1,0,0,25237,task3,1249857,false,false,1522,image-keyboard-response,13
true,23,1,1,1,true,z,false,true,0.0-2.0-0.53-0.482-3.482,0,1,0,90,false,stim,false,0,412.1999999997206,1,0,0,25237,task3,1251778,false,false,1525,image-keyboard-response,14
true,23,0,1,0,true,q,false,true,0.0-2.0-0.53-0.483-3.483,0,1,0,81,false,stim,false,2,1017.5999999996275,1,0,2,25237,task3,1254305,false,false,1528,image-keyboard-response,15
true,23,0,1,0,true,q,false,true,0.0-2.0-0.53-0.484-3.484,0,1,0,81,false,stim,false,0,789.2000000001863,1,1,1,25237,task3,1256605,false,false,1531,image-keyboard-response,16
true,23,1,1,1,true,z,false,true,0.0-2.0-0.53-0.485-3.485,0,1,0,90,false,stim,false,0,561.2999999998137,1,0,0,25237,task3,1258675,false,false,1534,image-keyboard-response,17
true,23,0,1,0,true,q,false,true,0.0-2.0-0.54-0.486-3.486,0,1,0,81,false,stim,false,0,512.7000000001863,1,1,1,25237,task3,1260697,false,false,1537,image-keyboard-response,18
true,23,1,1,1,true,z,false,false,0.0-2.0-0.54-0.487-3.487,0,1,0,90,false,stim,false,0,515.3999999999069,1,0,0,25237,task3,1262722,false,true,1540,image-keyboard-response,19
true,23,1,1,1,true,z,false,true,0.0-2.0-0.54-0.488-3.488,0,1,0,90,false,stim,false,0,399.6999999997206,1,0,0,25237,task3,1264630,false,false,1543,image-keyboard-response,20
true,23,1,1,1,true,z,false,true,0.0-2.0-0.54-0.489-3.489,0,1,0,90,false,stim,false,0,414.09999999962747,1,0,0,25237,task3,1266553,false,false,1546,image-keyboard-response,21
true,23,0,1,0,true,q,false,true,0.0-2.0-0.54-0.490-3.490,0,1,0,81,false,stim,false,0,691.4000000003725,1,0,1,25237,task3,1268755,false,false,1549,image-keyboard-response,22
true,23,1,1,0,false,q,true,false,0.0-2.0-0.54-0.491-3.491,0,1,0,90,false,stim,false,2,790.6000000000931,1,1,2,25237,task3,1271056,false,false,1552,image-keyboard-response,23
true,23,0,1,0,true,q,false,true,0.0-2.0-0.54-0.492-3.492,0,1,0,81,false,stim,false,2,586.1000000000931,1,1,2,25237,task3,1273151,false,false,1555,image-keyboard-response,24
true,23,0,1,0,true,q,false,true,0.0-2.0-0.54-0.493-3.493,0,1,0,81,false,stim,false,2,523.5,1,1,2,25237,task3,1275185,false,false,1558,image-keyboard-response,25
true,24,0,1,1,false,z,false,false,0.0-2.0-0.54-0.494-3.494,0,0,1,81,true,stim,true,0,485.6999999997206,1,0,1,25237,task3,1277179,false,false,1561,image-keyboard-response,1
true,24,0,1,0,true,q,false,true,0.0-2.0-0.55-0.495-3.495,0,0,1,81,false,stim,false,0,859.1999999997206,1,1,2,25237,task3,1279547,false,false,1564,image-keyboard-response,2
true,24,0,1,0,true,q,false,true,0.0-2.0-0.55-0.496-3.496,0,0,1,81,false,stim,false,1,520.8000000002794,1,0,0,25237,task3,1281577,false,false,1567,image-keyboard-response,3
true,24,0,1,1,false,z,false,false,0.0-2.0-0.55-0.497-3.497,0,0,1,81,false,stim,true,0,579.8999999999069,1,0,1,25237,task3,1283666,false,false,1570,image-keyboard-response,4
true,24,0,1,1,false,z,false,false,0.0-2.0-0.55-0.498-3.498,0,0,1,81,false,stim,true,0,870.2999999998137,1,0,1,25237,task3,1286047,false,false,1573,image-keyboard-response,5
true,24,1,1,1,true,z,false,true,0.0-2.0-0.55-0.499-3.499,0,0,1,90,false,stim,false,0,725.2000000001863,1,0,1,25237,task3,1288282,false,false,1576,image-keyboard-response,6
true,24,0,1,0,true,q,false,true,0.0-2.0-0.55-0.500-3.500,0,0,1,81,false,stim,false,1,838.3999999999069,1,0,0,25237,task3,1290630,false,false,1579,image-keyboard-response,7
true,24,0,1,0,true,q,false,true,0.0-2.0-0.55-0.501-3.501,0,0,1,81,false,stim,false,1,478.5,1,0,0,25237,task3,1292617,false,false,1582,image-keyboard-response,8
true,24,0,1,0,true,q,false,true,0.0-2.0-0.55-0.502-3.502,0,0,1,81,false,stim,false,0,692.2000000001863,1,1,2,25237,task3,1294819,false,false,1585,image-keyboard-response,9
true,24,0,1,0,true,q,false,true,0.0-2.0-0.55-0.503-3.503,0,0,1,81,false,stim,false,0,478.89999999990687,1,1,2,25237,task3,1296810,false,false,1588,image-keyboard-response,10
true,24,0,1,0,true,q,false,true,0.0-2.0-0.56-0.504-3.504,0,0,1,81,false,stim,false,0,471.39999999990687,1,1,2,25237,task3,1298790,false,false,1591,image-keyboard-response,11
true,24,0,1,0,true,q,false,true,0.0-2.0-0.56-0.505-3.505,0,0,1,81,false,stim,false,0,506.29999999981374,1,1,2,25237,task3,1300806,false,false,1594,image-keyboard-response,12
true,24,0,1,0,true,q,false,true,0.0-2.0-0.56-0.506-3.506,0,0,1,81,false,stim,false,1,773.7999999998137,1,0,0,25237,task3,1303089,false,false,1597,image-keyboard-response,13
true,24,1,1,1,true,z,false,true,0.0-2.0-0.56-0.507-3.507,0,0,1,90,false,stim,false,0,850.8999999999069,1,0,1,25237,task3,1305449,false,false,1600,image-keyboard-response,14
true,24,0,1,0,true,q,false,true,0.0-2.0-0.56-0.508-3.508,0,0,1,81,false,stim,false,0,599.6000000000931,1,1,2,25237,task3,1307609,false,false,1603,image-keyboard-response,15
true,24,1,1,1,true,z,false,true,0.0-2.0-0.56-0.509-3.509,0,0,1,90,false,stim,false,0,401.39999999990687,1,0,1,25237,task3,1309520,false,false,1606,image-keyboard-response,16
true,24,0,1,0,true,q,false,true,0.0-2.0-0.56-0.510-3.510,0,0,1,81,false,stim,false,1,511.0,1,0,0,25237,task3,1311541,false,false,1609,image-keyboard-response,17
true,24,1,1,1,true,z,false,true,0.0-2.0-0.56-0.511-3.511,0,0,1,90,false,stim,false,0,727.1999999997206,1,0,1,25237,task3,1313777,false,false,1612,image-keyboard-response,18
true,24,0,1,0,true,q,false,true,0.0-2.0-0.56-0.512-3.512,0,0,1,81,false,stim,false,1,619.1000000000931,1,0,0,25237,task3,1315905,false,false,1615,image-keyboard-response,19
true,24,0,1,0,true,q,false,true,0.0-2.0-0.57-0.513-3.513,0,0,1,81,false,stim,false,0,1041.7999999998137,1,1,2,25237,task3,1318459,false,false,1618,image-keyboard-response,20
true,24,0,1,0,true,q,false,true,0.0-2.0-0.57-0.514-3.514,0,0,1,81,false,stim,false,1,735.6999999997206,1,0,0,25237,task3,1320704,false,false,1621,image-keyboard-response,21
true,24,1,1,1,true,z,false,true,0.0-2.0-0.57-0.515-3.515,0,0,1,90,false,stim,false,0,1034.2000000001863,1,0,1,25237,task3,1323248,false,false,1624,image-keyboard-response,22
true,24,0,1,0,true,q,false,true,0.0-2.0-0.57-0.516-3.516,0,0,1,81,false,stim,false,0,844.8000000002794,1,1,2,25237,task3,1325602,false,false,1627,image-keyboard-response,23
true,24,0,1,0,true,q,false,true,0.0-2.0-0.57-0.517-3.517,0,0,1,81,false,stim,false,1,714.7000000001863,1,0,0,25237,task3,1327826,false,false,1630,image-keyboard-response,24
true,24,0,1,0,true,q,false,true,0.0-2.0-0.57-0.518-3.518,0,0,1,81,false,stim,false,1,526.5,1,1,0,25237,task3,1329863,false,false,1633,image-keyboard-response,25
true,24,0,1,0,true,q,false,true,0.0-2.0-0.57-0.519-3.519,0,0,1,81,false,stim,false,0,749.1000000000931,1,0,2,25237,task3,1332121,false,false,1636,image-keyboard-response,26
true,24,0,1,1,false,z,false,false,0.0-2.0-0.57-0.520-3.520,0,0,1,81,false,stim,true,0,526.0,1,0,1,25237,task3,1334158,false,false,1639,image-keyboard-response,27
true,24,1,1,1,true,z,false,false,0.0-2.0-0.57-0.521-3.521,0,0,1,90,false,stim,false,0,386.89999999990687,1,0,1,25237,task3,1336054,false,true,1642,image-keyboard-response,28
true,24,0,1,0,true,q,false,true,0.0-2.0-0.58-0.522-3.522,0,0,1,81,false,stim,false,1,789.6999999997206,1,1,0,25237,task3,1338353,false,false,1645,image-keyboard-response,29
true,25,0,1,2,false,d,false,false,0.0-2.0-0.58-0.523-3.523,1,0,0,81,true,stim,true,0,746.2000000001863,1,0,2,25237,task3,1340609,false,false,1648,image-keyboard-response,1
true,25,2,1,2,true,d,false,true,0.0-2.0-0.58-0.524-3.524,1,0,0,68,false,stim,false,1,747.8999999999069,1,0,1,25237,task3,1342867,false,false,1651,image-keyboard-response,2
true,25,0,1,0,true,q,false,true,0.0-2.0-0.58-0.525-3.525,1,0,0,81,false,stim,false,0,649.8000000002794,1,1,0,25237,task3,1345027,false,false,1654,image-keyboard-response,3
true,25,2,1,2,true,d,false,true,0.0-2.0-0.58-0.526-3.526,1,0,0,68,false,stim,false,1,703.6999999997206,1,0,1,25237,task3,1347242,false,false,1657,image-keyboard-response,4
true,25,0,1,0,true,q,false,true,0.0-2.0-0.58-0.527-3.527,1,0,0,81,false,stim,false,0,673.0,1,1,0,25237,task3,1349469,false,false,1660,image-keyboard-response,5
true,25,0,1,2,false,d,false,false,0.0-2.0-0.58-0.528-3.528,1,0,0,81,false,stim,true,0,1266.5,1,0,2,25237,task3,1352245,false,false,1663,image-keyboard-response,6
true,25,1,1,2,false,d,true,false,0.0-2.0-0.58-0.529-3.529,1,0,0,90,false,stim,false,0,416.79999999981374,1,0,2,25237,task3,1354172,false,false,1666,image-keyboard-response,7
true,25,2,1,2,true,d,false,true,0.0-2.0-0.58-0.530-3.530,1,0,0,68,false,stim,false,1,511.0,1,0,1,25237,task3,1356193,false,false,1669,image-keyboard-response,8
true,25,2,1,2,true,d,false,true,0.0-2.0-0.59-0.531-3.531,1,0,0,68,false,stim,false,1,778.3999999999069,1,0,1,25237,task3,1358483,false,false,1672,image-keyboard-response,9
true,25,2,1,2,true,d,false,true,0.0-2.0-0.59-0.532-3.532,1,0,0,68,false,stim,false,0,544.5,1,0,2,25237,task3,1360538,false,false,1675,image-keyboard-response,10
true,25,0,1,0,true,q,false,true,0.0-2.0-0.59-0.533-3.533,1,0,0,81,false,stim,false,0,997.1999999997206,1,1,0,25237,task3,1363044,false,false,1678,image-keyboard-response,11
true,25,2,1,2,true,d,false,true,0.0-2.0-0.59-0.534-3.534,1,0,0,68,false,stim,false,1,628.9000000003725,1,1,1,25237,task3,1365182,false,false,1681,image-keyboard-response,12
true,25,0,1,0,true,q,false,true,0.0-2.0-0.59-0.535-3.535,1,0,0,81,false,stim,false,0,721.2999999998137,1,1,0,25237,task3,1367413,false,false,1684,image-keyboard-response,13
true,25,0,1,0,true,q,false,false,0.0-2.0-0.59-0.536-3.536,1,0,0,81,false,stim,false,0,455.20000000018626,1,1,0,25237,task3,1369379,false,true,1687,image-keyboard-response,14
true,25,2,1,2,true,d,false,true,0.0-2.0-0.59-0.537-3.537,1,0,0,68,false,stim,false,1,542.2999999998137,1,1,1,25237,task3,1371430,false,false,1690,image-keyboard-response,15
true,25,2,1,2,true,d,false,true,0.0-2.0-0.59-0.538-3.538,1,0,0,68,false,stim,false,0,754.5999999996275,1,1,2,25237,task3,1373695,false,false,1693,image-keyboard-response,16
true,26,2,0,2,true,d,false,true,0.0-2.0-0.59-0.539-3.539,1,1,1,68,true,stim,false,2,1011.5999999996275,1,1,2,25237,task3,1402409,false,false,1722,image-keyboard-response,1
true,26,2,0,2,true,d,false,true,0.0-2.0-0.60-0.540-3.540,1,1,1,68,false,stim,false,2,533.0,1,1,2,25237,task3,1404456,false,false,1725,image-keyboard-response,2
true,26,0,0,0,true,q,false,true,0.0-2.0-0.60-0.541-3.541,1,1,1,81,false,stim,false,0,547.5,1,1,0,25237,task3,1406513,false,false,1728,image-keyboard-response,3
true,26,2,0,2,true,d,false,true,0.0-2.0-0.60-0.542-3.542,1,1,1,68,false,stim,false,2,849.8999999999069,1,1,2,25237,task3,1408872,false,false,1731,image-keyboard-response,4
true,26,0,0,0,true,q,false,true,0.0-2.0-0.60-0.543-3.543,1,1,1,81,false,stim,false,0,574.1999999997206,1,1,0,25237,task3,1410956,false,false,1734,image-keyboard-response,5
true,26,2,0,2,true,d,false,true,0.0-2.0-0.60-0.544-3.544,1,1,1,68,false,stim,false,2,459.70000000018626,1,1,1,25237,task3,1412925,false,false,1737,image-keyboard-response,6
true,26,2,0,2,true,d,false,true,0.0-2.0-0.60-0.545-3.545,1,1,1,68,false,stim,false,2,617.3000000002794,1,1,1,25237,task3,1415051,false,false,1740,image-keyboard-response,7
true,26,0,0,0,true,q,false,true,0.0-2.0-0.60-0.546-3.546,1,1,1,81,false,stim,false,0,819.3999999999069,1,0,0,25237,task3,1417382,false,false,1743,image-keyboard-response,8
true,26,2,0,2,true,d,false,true,0.0-2.0-0.60-0.547-3.547,1,1,1,68,false,stim,false,2,887.6000000000931,1,1,1,25237,task3,1419779,false,false,1746,image-keyboard-response,9
true,26,2,0,2,true,d,false,false,0.0-2.0-0.60-0.548-3.548,1,1,1,68,false,stim,false,2,907.6000000000931,1,0,2,25237,task3,1422195,false,true,1749,image-keyboard-response,10
true,26,2,0,2,true,d,false,true,0.0-2.0-0.61-0.549-3.549,1,1,1,68,false,stim,false,2,443.1999999997206,1,0,2,25237,task3,1424151,false,false,1752,image-keyboard-response,11
true,26,2,0,2,true,d,false,true,0.0-2.0-0.61-0.550-3.550,1,1,1,68,false,stim,false,2,519.0,1,0,2,25237,task3,1426183,false,false,1755,image-keyboard-response,12
true,27,2,1,2,true,d,false,true,0.0-2.0-0.61-0.551-3.551,0,1,0,68,true,stim,false,2,459.70000000018626,1,1,1,25237,task3,1428153,false,false,1758,image-keyboard-response,1
true,27,2,1,2,true,d,false,true,0.0-2.0-0.61-0.552-3.552,0,1,0,68,false,stim,false,2,446.89999999990687,1,1,1,25237,task3,1430110,false,false,1761,image-keyboard-response,2
true,27,2,1,2,true,d,false,true,0.0-2.0-0.61-0.553-3.553,0,1,0,68,false,stim,false,2,451.10000000009313,1,1,1,25237,task3,1432071,false,false,1764,image-keyboard-response,3
true,27,0,1,1,false,z,false,false,0.0-2.0-0.61-0.554-3.554,0,1,0,81,false,stim,true,0,793.1999999997206,1,0,0,25237,task3,1434374,false,false,1767,image-keyboard-response,4
true,27,0,1,1,false,z,false,false,0.0-2.0-0.61-0.555-3.555,0,1,0,81,false,stim,true,0,466.8000000002794,1,0,0,25237,task3,1436351,false,false,1770,image-keyboard-response,5
true,27,2,1,0,false,q,false,false,0.0-2.0-0.61-0.556-3.556,0,1,0,68,false,stim,true,2,788.6000000000931,1,0,2,25237,task3,1438649,false,false,1773,image-keyboard-response,6
true,27,1,1,1,true,z,false,true,0.0-2.0-0.61-0.557-3.557,0,1,0,90,false,stim,false,0,711.3999999999069,1,0,0,25237,task3,1440871,false,false,1776,image-keyboard-response,7
true,27,1,1,1,true,z,false,true,0.0-2.0-0.62-0.558-3.558,0,1,0,90,false,stim,false,0,510.0,1,0,0,25237,task3,1442893,false,false,1779,image-keyboard-response,8
true,27,2,1,2,true,d,false,true,0.0-2.0-0.62-0.559-3.559,0,1,0,68,false,stim,false,2,826.6000000000931,1,1,1,25237,task3,1445228,false,false,1782,image-keyboard-response,9
true,27,1,1,1,true,z,false,true,0.0-2.0-0.62-0.560-3.560,0,1,0,90,false,stim,false,0,858.5,1,0,0,25237,task3,1447596,false,false,1785,image-keyboard-response,10
true,27,0,1,0,true,q,false,true,0.0-2.0-0.62-0.561-3.561,0,1,0,81,false,stim,false,2,1450.2000000001863,1,0,2,25237,task3,1450557,false,false,1788,image-keyboard-response,11
true,27,0,1,0,true,q,false,true,0.0-2.0-0.62-0.562-3.562,0,1,0,81,false,stim,false,2,560.1000000000931,1,0,2,25237,task3,1452628,false,false,1791,image-keyboard-response,12
true,27,2,1,2,true,d,false,true,0.0-2.0-0.62-0.563-3.563,0,1,0,68,false,stim,false,2,778.0,1,1,1,25237,task3,1454916,false,false,1794,image-keyboard-response,13
true,27,2,1,2,true,d,false,true,0.0-2.0-0.62-0.564-3.564,0,1,0,68,false,stim,false,2,441.60000000009313,1,1,1,25237,task3,1456868,false,false,1797,image-keyboard-response,14
true,27,1,1,1,true,z,false,true,0.0-2.0-0.62-0.565-3.565,0,1,0,90,false,stim,false,0,724.5,1,0,0,25237,task3,1459104,false,false,1800,image-keyboard-response,15
true,27,0,1,0,true,q,false,true,0.0-2.0-0.62-0.566-3.566,0,1,0,81,false,stim,false,2,1307.8999999999069,1,0,2,25237,task3,1461977,false,false,1803,image-keyboard-response,16
true,27,2,1,2,true,d,false,true,0.0-2.0-0.63-0.567-3.567,0,1,0,68,false,stim,false,2,589.3999999999069,1,1,1,25237,task3,1464079,false,false,1806,image-keyboard-response,17
true,27,1,1,1,true,z,false,true,0.0-2.0-0.63-0.568-3.568,0,1,0,90,false,stim,false,0,621.1999999997206,1,0,0,25237,task3,1466213,false,false,1809,image-keyboard-response,18
true,27,2,1,2,true,d,false,true,0.0-2.0-0.63-0.569-3.569,0,1,0,68,false,stim,false,2,1268.2999999998137,1,1,1,25237,task3,1468994,false,false,1812,image-keyboard-response,19
true,27,0,1,0,true,q,false,true,0.0-2.0-0.63-0.570-3.570,0,1,0,81,false,stim,false,2,866.3999999999069,1,0,2,25237,task3,1471370,false,false,1815,image-keyboard-response,20
true,27,1,1,1,true,z,false,true,0.0-2.0-0.63-0.571-3.571,0,1,0,90,false,stim,false,0,631.7000000001863,1,0,0,25237,task3,1473514,false,false,1818,image-keyboard-response,21
true,27,0,1,0,true,q,false,true,0.0-2.0-0.63-0.572-3.572,0,1,0,81,false,stim,false,2,870.2000000001863,1,0,2,25237,task3,1475894,false,false,1821,image-keyboard-response,22
true,27,1,1,1,true,z,false,true,0.0-2.0-0.63-0.573-3.573,0,1,0,90,false,stim,false,0,682.5,1,0,0,25237,task3,1478087,false,false,1824,image-keyboard-response,23
true,27,2,1,2,true,d,false,true,0.0-2.0-0.63-0.574-3.574,0,1,0,68,false,stim,false,2,599.7999999998137,1,0,1,25237,task3,1480198,false,false,1827,image-keyboard-response,24
true,27,0,1,0,true,q,false,true,0.0-2.0-0.63-0.575-3.575,0,1,0,81,false,stim,false,2,549.3000000002794,1,1,2,25237,task3,1482260,false,false,1830,image-keyboard-response,25
true,27,1,1,1,true,z,false,true,0.0-2.0-0.64-0.576-3.576,0,1,0,90,false,stim,false,0,715.0000000004657,1,0,0,25237,task3,1484486,false,false,1833,image-keyboard-response,26
true,27,2,1,2,true,d,false,true,0.0-2.0-0.64-0.577-3.577,0,1,0,68,false,stim,false,2,1101.0,1,0,1,25237,task3,1487097,false,false,1836,image-keyboard-response,27
true,28,1,1,2,false,d,false,false,0.0-2.0-0.64-0.578-3.578,0,0,1,90,true,stim,true,1,694.3000000002794,1,0,0,25237,task3,1489300,false,false,1839,image-keyboard-response,1
true,28,2,1,0,false,q,false,false,0.0-2.0-0.64-0.579-3.579,0,0,1,68,false,stim,true,2,706.8999999999069,1,0,1,25237,task3,1491518,false,false,1842,image-keyboard-response,2
true,28,0,1,0,true,q,false,true,0.0-2.0-0.64-0.580-3.580,0,0,1,81,false,stim,false,0,764.3999999999069,1,1,2,25237,task3,1493792,false,false,1845,image-keyboard-response,3
true,28,0,1,0,true,q,false,true,0.0-2.0-0.64-0.581-3.581,0,0,1,81,false,stim,false,0,541.5,1,1,2,25237,task3,1495845,false,false,1848,image-keyboard-response,4
true,28,1,1,2,false,d,false,false,0.0-2.0-0.64-0.582-3.582,0,0,1,90,false,stim,true,1,562.1999999997206,1,0,0,25237,task3,1497918,false,false,1851,image-keyboard-response,5
true,28,2,1,0,false,q,false,false,0.0-2.0-0.64-0.583-3.583,0,0,1,68,false,stim,true,2,856.2999999998137,1,0,1,25237,task3,1500288,false,false,1854,image-keyboard-response,6
true,28,0,1,0,true,q,false,true,0.0-2.0-0.64-0.584-3.584,0,0,1,81,false,stim,false,0,1315.3999999999069,1,1,2,25237,task3,1503152,false,false,1857,image-keyboard-response,7
true,28,0,1,0,true,q,false,true,0.0-2.0-0.65-0.585-3.585,0,0,1,81,false,stim,false,2,658.1000000000931,1,0,1,25237,task3,1505322,false,false,1860,image-keyboard-response,8
true,28,0,1,0,true,q,false,true,0.0-2.0-0.65-0.586-3.586,0,0,1,81,false,stim,false,0,1589.1999999997206,1,1,2,25237,task3,1508420,false,false,1863,image-keyboard-response,9
true,28,1,1,2,false,d,false,false,0.0-2.0-0.65-0.587-3.587,0,0,1,90,false,stim,true,1,991.5,1,0,0,25237,task3,1510923,false,false,1866,image-keyboard-response,10
true,28,2,1,2,true,d,false,true,0.0-2.0-0.65-0.588-3.588,0,0,1,68,false,stim,false,1,602.2000000001863,1,0,0,25237,task3,1513035,false,false,1869,image-keyboard-response,11
true,28,0,1,0,true,q,false,false,0.0-2.0-0.65-0.589-3.589,0,0,1,81,false,stim,false,2,611.3999999999069,1,0,1,25237,task3,1515157,false,true,1872,image-keyboard-response,12
