answered,blockNum,choice,condition,corResp,correct,correct_response,explo,fb,internal_node_id,isStable_1,isStable_2,isStable_3,key_press,newBlock,part,persev,persevResp,rt,sessNum,stableAS,stimulus,subject,task,time_elapsed,training,trap,trial_index,trial_type,trialsInBlock
true,1,0,0,2,false,d,true,false,0.0-2.0-0.0-0.0-3.0,0,0,0,81,true,stim,false,-1,1623.6000000000931,0,0,1,25237,task1,211110,false,false,82,image-keyboard-response,1
true,1,0,0,1,false,z,true,false,0.0-2.0-0.0-0.1-3.1,0,0,0,81,false,stim,false,-1,1381.4000000001397,0,0,0,25237,task1,213998,false,false,85,image-keyboard-response,2
true,1,1,0,1,true,z,false,true,0.0-2.0-0.0-0.2-3.2,0,0,0,90,false,stim,false,-1,1273.5,0,0,0,25237,task1,216778,false,false,88,image-keyboard-response,3
true,1,1,0,2,false,d,true,false,0.0-2.0-0.0-0.3-3.3,0,0,0,90,false,stim,false,-1,2276.9000000001397,0,0,1,25237,task1,220560,false,false,91,image-keyboard-response,4
true,1,2,0,1,false,z,true,false,0.0-2.0-0.0-0.4-3.4,0,0,0,68,false,stim,false,-1,1953.6999999999534,0,0,2,25237,task1,224020,false,false,94,image-keyboard-response,5
true,1,1,0,2,false,d,true,false,0.0-2.0-0.0-0.5-3.5,0,0,0,90,false,stim,false,-1,2120.5,0,0,1,25237,task1,227648,false,false,97,image-keyboard-response,6
true,1,1,0,1,true,z,false,true,0.0-2.0-0.0-0.6-3.6,0,0,0,90,false,stim,false,-1,1215.6999999999534,0,0,2,25237,task1,230369,false,false,100,image-keyboard-response,7
true,1,0,0,1,false,z,true,false,0.0-2.0-0.0-0.7-3.7,0,0,0,81,false,stim,false,-1,697.8999999999069,0,0,0,25237,task1,232575,false,false,103,image-keyboard-response,8
true,1,0,0,1,false,z,true,false,0.0-2.0-0.0-0.8-3.8,0,0,0,81,false,stim,false,-1,579.5,0,0,2,25237,task1,234660,false,false,106,image-keyboard-response,9
true,1,1,0,2,false,d,true,false,0.0-2.0-0.1-0.9-3.9,0,0,0,90,false,stim,false,-1,2813.9000000001397,0,0,1,25237,task1,238981,false,false,109,image-keyboard-response,10
true,1,1,0,1,true,z,false,true,0.0-2.0-0.1-0.10-3.10,0,0,0,90,false,stim,false,-1,1529.5999999998603,0,0,0,25237,task1,242016,false,false,112,image-keyboard-response,11
false,1,-1,0,1,false,z,false,false,0.0-2.0-0.1-0.11-3.11,0,0,0,,false,stim,true,-1,,0,0,2,25237,task1,246523,false,false,115,image-keyboard-response,12
true,1,2,0,2,true,d,false,true,0.0-2.0-0.1-0.12-3.12,0,0,0,68,false,stim,false,-1,1535.8000000000466,0,0,1,25237,task1,249568,false,false,118,image-keyboard-response,13
true,1,2,0,2,true,d,false,true,0.0-2.0-0.1-0.13-3.13,0,0,0,68,false,stim,false,-1,985.8000000000466,0,0,1,25237,task1,252061,false,false,121,image-keyboard-response,14
true,1,2,0,1,false,z,true,false,0.0-2.0-0.1-0.14-3.14,0,0,0,68,false,stim,false,-1,1445.5,0,0,0,25237,task1,255013,false,false,124,image-keyboard-response,15
true,1,0,0,1,false,z,true,false,0.0-2.0-0.1-0.15-3.15,0,0,0,81,false,stim,false,-1,1179.5,0,0,0,25237,task1,257698,false,false,127,image-keyboard-response,16
true,1,1,0,1,true,z,false,true,0.0-2.0-0.1-0.16-3.16,0,0,0,90,false,stim,false,-1,1398.6999999999534,0,0,2,25237,task1,260603,false,false,130,image-keyboard-response,17
true,1,1,0,1,true,z,false,true,0.0-2.0-0.1-0.17-3.17,0,0,0,90,false,stim,false,-1,876.3000000000466,0,0,2,25237,task1,262986,false,false,133,image-keyboard-response,18
true,1,0,0,2,false,d,true,false,0.0-2.0-0.2-0.18-3.18,0,0,0,81,false,stim,false,-1,1265.9000000001397,0,0,1,25237,task1,265759,false,false,136,image-keyboard-response,19
true,1,1,0,1,true,z,false,true,0.0-2.0-0.2-0.19-3.19,0,0,0,90,false,stim,false,-1,1112.2999999998137,0,0,0,25237,task1,268377,false,false,139,image-keyboard-response,20
true,1,2,0,1,false,z,true,false,0.0-2.0-0.2-0.20-3.20,0,0,0,68,false,stim,false,-1,929.8000000000466,0,0,2,25237,task1,270814,false,false,142,image-keyboard-response,21
true,1,1,0,1,true,z,false,true,0.0-2.0-0.2-0.21-3.21,0,0,0,90,false,stim,false,-1,2505.6999999999534,0,0,0,25237,task1,274825,false,false,145,image-keyboard-response,22
true,1,0,0,1,false,z,true,false,0.0-2.0-0.2-0.22-3.22,0,0,0,81,false,stim,false,-1,1690.6000000000931,0,0,2,25237,task1,278023,false,false,148,image-keyboard-response,23
true,1,1,0,1,true,z,false,true,0.0-2.0-0.2-0.23-3.23,0,0,0,90,false,stim,false,-1,758.1999999999534,0,0,2,25237,task1,280289,false,false,151,image-keyboard-response,24
true,1,1,0,2,false,d,true,false,0.0-2.0-0.2-0.24-3.24,0,0,0,90,false,stim,false,-1,1738.0,0,0,1,25237,task1,283533,false,false,154,image-keyboard-response,25
true,1,2,0,2,true,d,false,true,0.0-2.0-0.2-0.25-3.25,0,0,0,68,false,stim,false,-1,644.5999999998603,0,0,1,25237,task1,285683,false,false,157,image-keyboard-response,26
true,2,1,1,0,false,q,false,false,0.0-2.0-0.2-0.26-3.26,0,0,0,90,true,stim,true,1,1044.0999999998603,0,0,0,25237,task1,288233,false,false,160,image-keyboard-response,1
true,2,0,1,0,true,q,false,true,0.0-2.0-0.3-0.27-3.27,0,0,0,81,false,stim,false,1,1184.1999999999534,0,0,0,25237,task1,290924,false,false,163,image-keyboard-response,2
true,2,1,1,0,false,q,true,false,0.0-2.0-0.3-0.28-3.28,0,0,0,90,false,stim,false,2,2186.4000000001397,0,0,1,25237,task1,294617,false,false,166,image-keyboard-response,3
true,2,2,1,0,false,q,false,false,0.0-2.0-0.3-0.29-3.29,0,0,0,68,false,stim,true,2,950.0,0,0,1,25237,task1,297074,false,false,169,image-keyboard-response,4
true,2,1,1,0,false,q,false,false,0.0-2.0-0.3-0.30-3.30,0,0,0,90,false,stim,true,1,1229.2000000001863,0,0,0,25237,task1,299809,false,false,172,image-keyboard-response,5
true,2,0,1,0,true,q,false,true,0.0-2.0-0.3-0.31-3.31,0,0,0,81,false,stim,false,1,467.69999999995343,0,0,0,25237,task1,301782,false,false,175,image-keyboard-response,6
true,2,1,1,2,false,d,false,true,0.0-2.0-0.3-0.32-3.32,0,0,0,90,false,stim,true,1,1638.6999999999534,0,0,2,25237,task1,304927,false,true,178,image-keyboard-response,7
true,2,1,1,2,false,d,false,false,0.0-2.0-0.3-0.33-3.33,0,0,0,90,false,stim,true,1,936.8000000000466,0,0,2,25237,task1,307370,false,false,181,image-keyboard-response,8
true,2,1,1,2,false,d,false,false,0.0-2.0-0.3-0.34-3.34,0,0,0,90,false,stim,true,1,1086.9000000001397,0,0,2,25237,task1,309963,false,false,184,image-keyboard-response,9
true,2,2,1,0,false,q,false,false,0.0-2.0-0.3-0.35-3.35,0,0,0,68,false,stim,true,2,2529.399999999907,0,0,1,25237,task1,313998,false,false,187,image-keyboard-response,10
true,2,0,1,0,true,q,false,true,0.0-2.0-0.4-0.36-3.36,0,0,0,81,false,stim,false,2,889.5,0,0,1,25237,task1,316396,false,false,190,image-keyboard-response,11
true,2,0,1,2,false,d,true,false,0.0-2.0-0.4-0.37-3.37,0,0,0,81,false,stim,false,1,1869.6000000000931,0,0,2,25237,task1,319772,false,false,193,image-keyboard-response,12
true,2,0,1,0,true,q,false,true,0.0-2.0-0.4-0.38-3.38,0,0,0,81,false,stim,false,2,1634.1000000000931,0,0,1,25237,task1,322912,false,false,196,image-keyboard-response,13
true,2,2,1,2,true,d,false,true,0.0-2.0-0.4-0.39-3.39,0,0,0,68,false,stim,false,1,1689.3000000000466,0,0,2,25237,task1,326108,false,false,199,image-keyboard-response,14
true,2,0,1,0,true,q,false,true,0.0-2.0-0.4-0.40-3.40,0,0,0,81,false,stim,false,1,1525.0,0,0,0,25237,task1,329143,false,false,202,image-keyboard-response,15
true,2,0,1,0,true,q,false,true,0.0-2.0-0.4-0.41-3.41,0,0,0,81,false,stim,false,2,2038.3000000000466,0,0,1,25237,task1,332686,false,false,205,image-keyboard-response,16
true,2,0,1,0,true,q,false,true,0.0-2.0-0.4-0.42-3.42,0,0,0,81,false,stim,false,1,1419.8000000000466,0,0,0,25237,task1,335615,false,false,208,image-keyboard-response,17
true,2,2,1,2,true,d,false,true,0.0-2.0-0.4-0.43-3.43,0,0,0,68,false,stim,false,1,698.3999999999069,0,0,2,25237,task1,337819,false,false,211,image-keyboard-response,18
true,2,0,1,0,true,q,false,true,0.0-2.0-0.4-0.44-3.44,0,0,0,81,false,stim,false,1,599.7000000001863,0,0,0,25237,task1,339924,false,false,214,image-keyboard-response,19
true,2,2,1,2,true,d,false,true,0.0-2.0-0.5-0.45-3.45,0,0,0,68,false,stim,false,1,1293.0,0,0,2,25237,task1,342721,false,false,217,image-keyboard-response,20
true,2,0,1,0,true,q,false,true,0.0-2.0-0.5-0.46-3.46,0,0,0,81,false,stim,false,2,964.1999999999534,0,0,1,25237,task1,345192,false,false,220,image-keyboard-response,21
true,2,2,1,0,false,q,false,true,0.0-2.0-0.5-0.47-3.47,0,0,0,68,false,stim,true,2,399.5,0,0,1,25237,task1,347096,false,true,223,image-keyboard-response,22
true,2,0,1,0,true,q,false,true,0.0-2.0-0.5-0.48-3.48,0,0,0,81,false,stim,false,1,2737.6999999999534,0,0,0,25237,task1,351339,false,false,226,image-keyboard-response,23
true,2,0,1,0,true,q,false,true,0.0-2.0-0.5-0.49-3.49,0,0,0,81,false,stim,false,1,750.5,0,0,0,25237,task1,353596,false,false,229,image-keyboard-response,24
true,2,0,1,0,true,q,false,true,0.0-2.0-0.5-0.50-3.50,0,0,0,81,false,stim,false,1,673.4000000001397,0,0,0,25237,task1,355776,false,false,232,image-keyboard-response,25
true,2,2,1,2,true,d,false,true,0.0-2.0-0.5-0.51-3.51,0,0,0,68,false,stim,false,1,737.0,0,0,2,25237,task1,358019,false,false,235,image-keyboard-response,26
false,2,-1,1,0,false,q,true,false,0.0-2.0-0.5-0.52-3.52,0,0,0,,false,stim,false,2,,0,0,1,25237,task1,362525,false,false,238,image-keyboard-response,27
true,2,2,1,2,true,d,false,true,0.0-2.0-0.5-0.53-3.53,0,0,0,68,false,stim,false,1,2478.5,0,0,2,25237,task1,366509,false,false,241,image-keyboard-response,28
true,2,0,1,0,true,q,false,true,0.0-2.0-0.6-0.54-3.54,0,0,0,81,false,stim,false,2,1974.8999999999069,0,0,1,25237,task1,369990,false,false,244,image-keyboard-response,29
true,2,2,1,0,false,q,true,true,0.0-2.0-0.6-0.55-3.55,0,0,0,68,false,stim,false,1,673.2999999998137,0,0,0,25237,task1,372168,false,true,247,image-keyboard-response,30
true,2,0,1,2,false,d,true,false,0.0-2.0-0.6-0.56-3.56,0,0,0,81,false,stim,false,1,921.9000000001397,0,0,2,25237,task1,374595,false,false,250,image-keyboard-response,31
true,2,0,1,0,true,q,false,true,0.0-2.0-0.6-0.57-3.57,0,0,0,81,false,stim,false,2,2907.8000000000466,0,0,1,25237,task1,379008,false,false,253,image-keyboard-response,32
true,2,0,1,0,true,q,false,true,0.0-2.0-0.6-0.58-3.58,0,0,0,81,false,stim,false,2,603.1999999999534,0,0,1,25237,task1,381117,false,false,256,image-keyboard-response,33
true,2,1,1,0,false,q,false,false,0.0-2.0-0.6-0.59-3.59,0,0,0,90,false,stim,true,1,1454.1000000000931,0,0,0,25237,task1,384076,false,false,259,image-keyboard-response,34
true,2,2,1,0,false,q,true,false,0.0-2.0-0.6-0.60-3.60,0,0,0,68,false,stim,false,1,659.0,0,0,0,25237,task1,386241,false,false,262,image-keyboard-response,35
true,2,2,1,2,true,d,false,true,0.0-2.0-0.6-0.61-3.61,0,0,0,68,false,stim,false,1,2024.1000000000931,0,0,2,25237,task1,389770,false,false,265,image-keyboard-response,36
true,2,2,1,2,true,d,false,true,0.0-2.0-0.6-0.62-3.62,0,0,0,68,false,stim,false,1,639.6999999999534,0,0,2,25237,task1,391915,false,false,268,image-keyboard-response,37
true,2,0,1,0,true,q,false,true,0.0-2.0-0.7-0.63-3.63,0,0,0,81,false,stim,false,1,721.6000000000931,0,0,0,25237,task1,394142,false,false,271,image-keyboard-response,38
true,2,2,1,2,true,d,false,true,0.0-2.0-0.7-0.64-3.64,0,0,0,68,false,stim,false,1,1494.3000000000466,0,0,2,25237,task1,397141,false,false,274,image-keyboard-response,39
true,2,0,1,0,true,q,false,true,0.0-2.0-0.7-0.65-3.65,0,0,0,81,false,stim,false,1,1076.6000000000931,0,0,0,25237,task1,399723,false,false,277,image-keyboard-response,40
true,2,2,1,2,true,d,false,true,0.0-2.0-0.7-0.66-3.66,0,0,0,68,false,stim,false,1,541.6000000000931,0,0,2,25237,task1,401770,false,false,280,image-keyboard-response,41
true,2,0,1,0,true,q,false,true,0.0-2.0-0.7-0.67-3.67,0,0,0,81,false,stim,false,2,935.0,0,0,1,25237,task1,404212,false,false,283,image-keyboard-response,42
true,3,0,1,1,false,z,false,true,0.0-2.0-0.7-0.68-3.68,0,0,0,81,true,stim,true,0,850.3000000000466,0,0,0,25237,task1,406568,false,true,286,image-keyboard-response,1
true,3,0,1,2,false,d,false,false,0.0-2.0-0.7-0.69-3.69,0,0,0,81,false,stim,true,0,583.7999999998137,0,0,1,25237,task1,408657,false,false,289,image-keyboard-response,2
true,3,0,1,2,false,d,false,true,0.0-2.0-0.7-0.70-3.70,0,0,0,81,false,stim,true,0,508.0,0,0,1,25237,task1,410670,false,true,292,image-keyboard-response,3
true,3,2,1,0,false,q,false,false,0.0-2.0-0.7-0.71-3.71,0,0,0,68,false,stim,true,2,866.3999999999069,0,0,2,25237,task1,413042,false,false,295,image-keyboard-response,4
true,3,2,1,0,false,q,false,false,0.0-2.0-0.8-0.72-3.72,0,0,0,68,false,stim,true,2,410.0999999998603,0,0,2,25237,task1,414957,false,false,298,image-keyboard-response,5
true,3,0,1,2,false,d,false,false,0.0-2.0-0.8-0.73-3.73,0,0,0,81,false,stim,true,0,1227.7999999998137,0,0,1,25237,task1,417696,false,false,301,image-keyboard-response,6
true,3,0,1,2,false,d,false,true,0.0-2.0-0.8-0.74-3.74,0,0,0,81,false,stim,true,0,1752.6000000000931,0,0,1,25237,task1,420955,false,true,304,image-keyboard-response,7
true,3,0,1,0,true,q,false,true,0.0-2.0-0.8-0.75-3.75,0,0,0,81,false,stim,false,2,2379.5,0,0,2,25237,task1,424840,false,false,307,image-keyboard-response,8
true,3,0,1,2,false,d,false,false,0.0-2.0-0.8-0.76-3.76,0,0,0,81,false,stim,true,0,1012.1999999999534,0,0,1,25237,task1,427357,false,false,310,image-keyboard-response,9
true,3,0,1,0,true,q,false,true,0.0-2.0-0.8-0.77-3.77,0,0,0,81,false,stim,false,2,803.7000000001863,0,0,2,25237,task1,429667,false,false,313,image-keyboard-response,10
true,3,0,1,1,false,z,false,false,0.0-2.0-0.8-0.78-3.78,0,0,0,81,false,stim,true,0,1641.2000000001863,0,0,0,25237,task1,432813,false,false,316,image-keyboard-response,11
true,3,0,1,1,false,z,false,false,0.0-2.0-0.8-0.79-3.79,0,0,0,81,false,stim,true,0,351.19999999995343,0,0,0,25237,task1,434670,false,false,319,image-keyboard-response,12
true,3,2,1,1,false,z,true,false,0.0-2.0-0.8-0.80-3.80,0,0,0,68,false,stim,false,0,434.39999999990687,0,0,0,25237,task1,436609,false,false,322,image-keyboard-response,13
true,3,1,1,1,true,z,false,true,0.0-2.0-0.9-0.81-3.81,0,0,0,90,false,stim,false,0,425.69999999995343,0,0,0,25237,task1,438540,false,false,325,image-keyboard-response,14
true,3,0,1,2,false,d,false,false,0.0-2.0-0.9-0.82-3.82,0,0,0,81,false,stim,true,0,973.2000000001863,0,0,1,25237,task1,441019,false,false,328,image-keyboard-response,15
true,3,0,1,0,true,q,false,true,0.0-2.0-0.9-0.83-3.83,0,0,0,81,false,stim,false,2,1175.5,0,0,2,25237,task1,443700,false,false,331,image-keyboard-response,16
true,3,1,1,2,false,d,true,false,0.0-2.0-0.9-0.84-3.84,0,0,0,90,false,stim,false,0,624.8999999999069,0,0,1,25237,task1,445830,false,false,334,image-keyboard-response,17
true,3,0,1,1,false,z,false,false,0.0-2.0-0.9-0.85-3.85,0,0,0,81,false,stim,true,0,2408.1999999999534,0,0,0,25237,task1,449744,false,false,337,image-keyboard-response,18
true,3,2,1,0,false,q,false,false,0.0-2.0-0.9-0.86-3.86,0,0,0,68,false,stim,true,2,529.6000000000931,0,0,2,25237,task1,451779,false,false,340,image-keyboard-response,19
true,3,1,1,0,false,q,true,false,0.0-2.0-0.9-0.87-3.87,0,0,0,90,false,stim,false,2,1306.5,0,0,2,25237,task1,454591,false,false,343,image-keyboard-response,20
true,3,2,1,1,false,z,true,false,0.0-2.0-0.9-0.88-3.88,0,0,0,68,false,stim,false,0,1651.5999999998603,0,0,0,25237,task1,457749,false,false,346,image-keyboard-response,21
true,3,2,1,2,true,d,false,true,0.0-2.0-0.9-0.89-3.89,0,0,0,68,false,stim,false,0,2248.399999999907,0,0,1,25237,task1,461504,false,false,349,image-keyboard-response,22
true,3,1,1,0,false,q,true,false,0.0-2.0-0.10-0.90-3.90,0,0,0,90,false,stim,false,2,1478.8999999999069,0,0,2,25237,task1,464490,false,false,352,image-keyboard-response,23
true,3,0,1,1,false,z,false,false,0.0-2.0-0.10-0.91-3.91,0,0,0,81,false,stim,true,0,1237.7999999998137,0,0,0,25237,task1,467233,false,false,355,image-keyboard-response,24
true,3,2,1,2,true,d,false,true,0.0-2.0-0.10-0.92-3.92,0,0,0,68,false,stim,false,0,1202.1999999999534,0,0,1,25237,task1,469941,false,false,358,image-keyboard-response,25
true,3,2,1,2,true,d,false,true,0.0-2.0-0.10-0.93-3.93,0,0,0,68,false,stim,false,0,742.6000000000931,0,0,1,25237,task1,472189,false,false,361,image-keyboard-response,26
true,3,2,1,0,false,q,false,false,0.0-2.0-0.10-0.94-3.94,0,0,0,68,false,stim,true,2,1246.3000000000466,0,0,2,25237,task1,474953,false,false,364,image-keyboard-response,27
true,3,2,1,1,false,z,true,false,0.0-2.0-0.10-0.95-3.95,0,0,0,68,false,stim,false,0,1070.0,0,0,0,25237,task1,477531,false,false,367,image-keyboard-response,28
true,3,1,1,1,true,z,false,false,0.0-2.0-0.10-0.96-3.96,0,0,0,90,false,stim,false,0,780.5999999998603,0,0,0,25237,task1,479817,false,true,370,image-keyboard-response,29
true,3,0,1,0,true,q,false,true,0.0-2.0-0.10-0.97-3.97,0,0,0,81,false,stim,false,2,1888.6999999999534,0,0,2,25237,task1,483211,false,false,373,image-keyboard-response,30
true,3,2,1,2,true,d,false,true,0.0-2.0-0.10-0.98-3.98,0,0,0,68,false,stim,false,0,931.5999999998603,0,0,1,25237,task1,485649,false,false,376,image-keyboard-response,31
true,3,0,1,0,true,q,false,true,0.0-2.0-0.11-0.99-3.99,0,0,0,81,false,stim,false,2,1056.6999999999534,0,0,2,25237,task1,488211,false,false,379,image-keyboard-response,32
true,3,2,1,2,true,d,false,true,0.0-2.0-0.11-0.100-3.100,0,0,0,68,false,stim,false,0,891.6999999999534,0,0,1,25237,task1,490610,false,false,382,image-keyboard-response,33
true,3,2,1,2,true,d,false,true,0.0-2.0-0.11-0.101-3.101,0,0,0,68,false,stim,false,0,1014.5,0,0,1,25237,task1,493129,false,false,385,image-keyboard-response,34
true,3,0,1,1,false,z,false,false,0.0-2.0-0.11-0.102-3.102,0,0,0,81,false,stim,true,0,1399.1000000000931,0,0,0,25237,task1,496035,false,false,388,image-keyboard-response,35
true,3,1,1,1,true,z,false,false,0.0-2.0-0.11-0.103-3.103,0,0,0,90,false,stim,false,0,2916.2000000001863,0,0,0,25237,task1,500458,false,true,391,image-keyboard-response,36
true,3,2,1,1,false,z,true,false,0.0-2.0-0.11-0.104-3.104,0,0,0,68,false,stim,false,0,764.0999999998603,0,0,0,25237,task1,502730,false,false,394,image-keyboard-response,37
true,3,0,1,0,true,q,false,true,0.0-2.0-0.11-0.105-3.105,0,0,0,81,false,stim,false,2,2121.5999999998603,0,0,2,25237,task1,506357,false,false,397,image-keyboard-response,38
true,3,2,1,2,true,d,false,true,0.0-2.0-0.11-0.106-3.106,0,0,0,68,false,stim,false,0,1929.2999999998137,0,0,1,25237,task1,509794,false,false,400,image-keyboard-response,39
true,4,0,1,1,false,z,false,false,0.0-2.0-0.11-0.107-3.107,0,0,0,81,true,stim,true,0,1488.6999999999534,0,0,2,25237,task1,512792,false,false,403,image-keyboard-response,1
true,4,0,1,0,true,q,false,true,0.0-2.0-0.12-0.108-3.108,0,0,0,81,false,stim,false,1,2066.3000000000466,0,0,0,25237,task1,516369,false,false,406,image-keyboard-response,2
true,4,0,1,1,false,z,false,false,0.0-2.0-0.12-0.109-3.109,0,0,0,81,false,stim,true,0,2004.5,0,0,2,25237,task1,519881,false,false,409,image-keyboard-response,3
true,4,0,1,0,true,q,false,true,0.0-2.0-0.12-0.110-3.110,0,0,0,81,false,stim,false,1,1342.0,0,0,0,25237,task1,522729,false,false,412,image-keyboard-response,4
true,4,2,1,1,false,z,false,false,0.0-2.0-0.12-0.111-3.111,0,0,0,68,false,stim,true,2,901.3999999999069,0,0,1,25237,task1,525138,false,false,415,image-keyboard-response,5
true,4,1,1,1,true,z,false,true,0.0-2.0-0.12-0.112-3.112,0,0,0,90,false,stim,false,0,924.6000000000931,0,0,2,25237,task1,527568,false,false,418,image-keyboard-response,6
true,4,0,1,1,false,z,true,false,0.0-2.0-0.12-0.113-3.113,0,0,0,81,false,stim,false,2,1216.5,0,0,1,25237,task1,530292,false,false,421,image-keyboard-response,7
true,4,1,1,1,true,z,false,true,0.0-2.0-0.12-0.114-3.114,0,0,0,90,false,stim,false,0,1130.6000000000931,0,0,2,25237,task1,532929,false,false,424,image-keyboard-response,8
true,4,0,1,0,true,q,false,true,0.0-2.0-0.12-0.115-3.115,0,0,0,81,false,stim,false,1,1086.5999999998603,0,0,0,25237,task1,535522,false,false,427,image-keyboard-response,9
true,4,1,1,1,true,z,false,true,0.0-2.0-0.12-0.116-3.116,0,0,0,90,false,stim,false,2,1230.7000000001863,0,0,1,25237,task1,538259,false,false,430,image-keyboard-response,10
true,4,1,1,1,true,z,false,true,0.0-2.0-0.13-0.117-3.117,0,0,0,90,false,stim,false,2,672.0,0,0,1,25237,task1,540439,false,false,433,image-keyboard-response,11
true,4,0,1,0,true,q,false,true,0.0-2.0-0.13-0.118-3.118,0,0,0,81,false,stim,false,1,1753.6000000000931,0,0,0,25237,task1,543699,false,false,436,image-keyboard-response,12
true,4,1,1,1,true,z,false,true,0.0-2.0-0.13-0.119-3.119,0,0,0,90,false,stim,false,0,728.1000000000931,0,0,2,25237,task1,545933,false,false,439,image-keyboard-response,13
true,4,1,1,1,true,z,false,true,0.0-2.0-0.13-0.120-3.120,0,0,0,90,false,stim,false,2,558.0,0,0,1,25237,task1,547997,false,false,442,image-keyboard-response,14
true,4,1,1,1,true,z,false,true,0.0-2.0-0.13-0.121-3.121,0,0,0,90,false,stim,false,0,1756.0,0,0,2,25237,task1,551259,false,false,445,image-keyboard-response,15
true,4,0,1,0,true,q,false,true,0.0-2.0-0.13-0.122-3.122,0,0,0,81,false,stim,false,1,991.0999999998603,0,0,0,25237,task1,553757,false,false,448,image-keyboard-response,16
true,4,1,1,1,true,z,false,true,0.0-2.0-0.13-0.123-3.123,0,0,0,90,false,stim,false,0,830.5999999998603,0,0,2,25237,task1,556094,false,false,451,image-keyboard-response,17
true,4,1,1,1,true,z,false,true,0.0-2.0-0.13-0.124-3.124,0,0,0,90,false,stim,false,2,1336.1000000000931,0,0,1,25237,task1,558937,false,false,454,image-keyboard-response,18
true,4,0,1,0,true,q,false,true,0.0-2.0-0.13-0.125-3.125,0,0,0,81,false,stim,false,1,1286.2000000001863,0,0,0,25237,task1,561730,false,false,457,image-keyboard-response,19
true,4,1,1,1,true,z,false,true,0.0-2.0-0.14-0.126-3.126,0,0,0,90,false,stim,false,0,819.2999999998137,0,0,2,25237,task1,564059,false,false,460,image-keyboard-response,20
true,4,0,1,0,true,q,false,true,0.0-2.0-0.14-0.127-3.127,0,0,0,81,false,stim,false,1,686.1999999999534,0,0,0,25237,task1,566253,false,false,463,image-keyboard-response,21
true,4,0,1,0,true,q,false,true,0.0-2.0-0.14-0.128-3.128,0,0,0,81,false,stim,false,1,563.5,0,0,0,25237,task1,568325,false,false,466,image-keyboard-response,22
true,4,0,1,0,true,q,false,true,0.0-2.0-0.14-0.129-3.129,0,0,0,81,false,stim,false,1,433.4000000001397,0,0,0,25237,task1,570264,false,false,469,image-keyboard-response,23
true,4,1,1,1,true,z,false,true,0.0-2.0-0.14-0.130-3.130,0,0,0,90,false,stim,false,0,615.0,0,0,2,25237,task1,572386,false,false,472,image-keyboard-response,24
true,4,1,1,1,true,z,false,true,0.0-2.0-0.14-0.131-3.131,0,0,0,90,false,stim,false,2,393.19999999995343,0,0,1,25237,task1,574286,false,false,475,image-keyboard-response,25
true,4,1,1,1,true,z,false,true,0.0-2.0-0.14-0.132-3.132,0,0,0,90,false,stim,false,2,494.69999999995343,0,0,1,25237,task1,576288,false,false,478,image-keyboard-response,26
true,4,1,1,1,true,z,false,true,0.0-2.0-0.14-0.133-3.133,0,0,0,90,false,stim,false,2,399.60000000009313,0,0,1,25237,task1,578195,false,false,481,image-keyboard-response,27
true,4,1,1,1,true,z,false,true,0.0-2.0-0.14-0.134-3.134,0,0,0,90,false,stim,false,0,2630.899999999907,0,0,2,25237,task1,582332,false,false,484,image-keyboard-response,28
true,4,1,1,1,true,z,false,true,0.0-2.0-0.15-0.135-3.135,0,0,0,90,false,stim,false,2,902.6000000000931,0,0,1,25237,task1,584743,false,false,487,image-keyboard-response,29
true,4,0,1,0,true,q,false,true,0.0-2.0-0.15-0.136-3.136,0,0,0,81,false,stim,false,1,608.1999999999534,0,0,0,25237,task1,586858,false,false,490,image-keyboard-response,30
true,4,1,1,1,true,z,false,true,0.0-2.0-0.15-0.137-3.137,0,0,0,90,false,stim,false,0,779.5,0,0,2,25237,task1,589144,false,false,493,image-keyboard-response,31
true,4,1,1,1,true,z,false,true,0.0-2.0-0.15-0.138-3.138,0,0,0,90,false,stim,false,2,1067.3999999999069,0,0,1,25237,task1,591717,false,false,496,image-keyboard-response,32
true,4,0,1,0,true,q,false,true,0.0-2.0-0.15-0.139-3.139,0,0,0,81,false,stim,false,1,835.5999999998603,0,0,0,25237,task1,594059,false,false,499,image-keyboard-response,33
true,4,1,1,1,true,z,false,true,0.0-2.0-0.15-0.140-3.140,0,0,0,90,false,stim,false,2,662.0,0,0,1,25237,task1,596238,false,false,502,image-keyboard-response,34
true,4,1,1,1,true,z,false,false,0.0-2.0-0.15-0.141-3.141,0,0,0,90,false,stim,false,0,758.5,0,0,2,25237,task1,598505,false,true,505,image-keyboard-response,35
true,4,1,1,1,true,z,false,true,0.0-2.0-0.15-0.142-3.142,0,0,0,90,false,stim,false,0,418.5,0,0,2,25237,task1,600430,false,false,508,image-keyboard-response,36
true,4,0,1,0,true,q,false,true,0.0-2.0-0.15-0.143-3.143,0,0,0,81,false,stim,false,1,988.0,0,0,0,25237,task1,602924,false,false,511,image-keyboard-response,37
true,4,0,1,0,true,q,false,false,0.0-2.0-0.16-0.144-3.144,0,0,0,81,false,stim,false,1,707.1999999999534,0,0,0,25237,task1,605138,false,true,514,image-keyboard-response,38
true,4,0,1,0,true,q,false,true,0.0-2.0-0.16-0.145-3.145,0,0,0,81,false,stim,false,1,330.0999999998603,0,0,0,25237,task1,606977,false,false,517,image-keyboard-response,39
true,4,1,1,1,true,z,false,true,0.0-2.0-0.16-0.146-3.146,0,0,0,90,false,stim,false,2,520.6999999999534,0,0,1,25237,task1,609003,false,false,520,image-keyboard-response,40
true,4,1,1,1,true,z,false,true,0.0-2.0-0.16-0.147-3.147,0,0,0,90,false,stim,false,0,786.0,0,0,2,25237,task1,611296,false,false,523,image-keyboard-response,41
true,4,1,1,1,true,z,false,true,0.0-2.0-0.16-0.148-3.148,0,0,0,90,false,stim,false,0,510.80000000004657,0,0,2,25237,task1,613313,false,false,526,image-keyboard-response,42
true,4,1,1,1,true,z,false,true,0.0-2.0-0.16-0.149-3.149,0,0,0,90,false,stim,false,2,709.8999999999069,0,0,1,25237,task1,615531,false,false,529,image-keyboard-response,43
true,4,1,1,1,true,z,false,false,0.0-2.0-0.16-0.150-3.150,0,0,0,90,false,stim,false,0,829.5,0,0,2,25237,task1,617868,false,true,532,image-keyboard-response,44
true,5,0,2,1,false,z,false,false,0.0-2.0-0.16-0.151-3.151,0,0,0,81,true,stim,true,0,759.1000000000931,0,0,0,25237,task1,620133,false,false,535,image-keyboard-response,1
true,5,1,2,2,false,d,false,false,0.0-2.0-0.16-0.152-3.152,0,0,0,90,false,stim,true,1,1552.1000000000931,0,0,1,25237,task1,623195,false,false,538,image-keyboard-response,2
true,5,1,2,0,false,q,false,false,0.0-2.0-0.17-0.153-3.153,0,0,0,90,false,stim,true,1,1611.5,0,0,2,25237,task1,626312,false,false,541,image-keyboard-response,3
true,5,1,2,2,false,d,false,false,0.0-2.0-0.17-0.154-3.154,0,0,0,90,false,stim,true,1,1273.0,0,0,1,25237,task1,629092,false,false,544,image-keyboard-response,4
true,5,2,2,0,false,q,true,false,0.0-2.0-0.17-0.155-3.155,0,0,0,68,false,stim,false,1,1556.8000000000466,0,0,2,25237,task1,632154,false,false,547,image-keyboard-response,5
true,5,0,2,1,false,z,false,false,0.0-2.0-0.17-0.156-3.156,0,0,0,81,false,stim,true,0,893.5,0,0,0,25237,task1,634554,false,false,550,image-keyboard-response,6
true,5,0,2,2,false,d,true,false,0.0-2.0-0.17-0.157-3.157,0,0,0,81,false,stim,false,1,2203.5,0,0,1,25237,task1,638263,false,false,553,image-keyboard-response,7
true,5,0,2,1,false,z,false,false,0.0-2.0-0.17-0.158-3.158,0,0,0,81,false,stim,true,0,1752.1999999999534,0,0,0,25237,task1,641524,false,false,556,image-keyboard-response,8
true,5,2,2,0,false,q,true,true,0.0-2.0-0.17-0.159-3.159,0,0,0,68,false,stim,false,1,1370.6999999999534,0,0,2,25237,task1,644400,false,true,559,image-keyboard-response,9
true,5,1,2,1,true,z,false,true,0.0-2.0-0.17-0.160-3.160,0,0,0,90,false,stim,false,0,1170.6999999999534,0,0,0,25237,task1,647078,false,false,562,image-keyboard-response,10
true,5,1,2,2,false,d,false,false,0.0-2.0-0.17-0.161-3.161,0,0,0,90,false,stim,true,1,2428.5,0,0,1,25237,task1,651013,false,false,565,image-keyboard-response,11
true,5,2,2,2,true,d,false,true,0.0-2.0-0.18-0.162-3.162,0,0,0,68,false,stim,false,1,727.3000000000466,0,0,1,25237,task1,653249,false,false,568,image-keyboard-response,12
true,5,1,2,1,true,z,false,true,0.0-2.0-0.18-0.163-3.163,0,0,0,90,false,stim,false,0,1435.6000000000931,0,0,0,25237,task1,656191,false,false,571,image-keyboard-response,13
true,5,1,2,1,true,z,false,true,0.0-2.0-0.18-0.164-3.164,0,0,0,90,false,stim,false,0,624.8999999999069,0,0,0,25237,task1,658324,false,false,574,image-keyboard-response,14
true,5,2,2,0,false,q,true,false,0.0-2.0-0.18-0.165-3.165,0,0,0,68,false,stim,false,1,455.69999999995343,0,0,2,25237,task1,660287,false,false,577,image-keyboard-response,15
true,5,2,2,0,false,q,true,false,0.0-2.0-0.18-0.166-3.166,0,0,0,68,false,stim,false,1,510.10000000009313,0,0,2,25237,task1,662303,false,false,580,image-keyboard-response,16
true,5,2,2,2,true,d,false,true,0.0-2.0-0.18-0.167-3.167,0,0,0,68,false,stim,false,1,1211.5,0,0,1,25237,task1,665019,false,false,583,image-keyboard-response,17
true,5,2,2,0,false,q,true,false,0.0-2.0-0.18-0.168-3.168,0,0,0,68,false,stim,false,1,847.8999999999069,0,0,2,25237,task1,667374,false,false,586,image-keyboard-response,18
true,5,1,2,1,true,z,false,true,0.0-2.0-0.18-0.169-3.169,0,0,0,90,false,stim,false,0,931.5999999998603,0,0,0,25237,task1,669813,false,false,589,image-keyboard-response,19
true,5,2,2,2,true,d,false,true,0.0-2.0-0.18-0.170-3.170,0,0,0,68,false,stim,false,1,1029.1999999999534,0,0,1,25237,task1,672350,false,false,592,image-keyboard-response,20
true,5,0,2,0,true,q,false,true,0.0-2.0-0.19-0.171-3.171,0,0,0,81,false,stim,false,1,1385.1999999999534,0,0,2,25237,task1,675243,false,false,595,image-keyboard-response,21
true,5,2,2,2,true,d,false,true,0.0-2.0-0.19-0.172-3.172,0,0,0,68,false,stim,false,1,1594.1999999999534,0,0,1,25237,task1,678345,false,false,598,image-keyboard-response,22
true,5,1,2,1,true,z,false,true,0.0-2.0-0.19-0.173-3.173,0,0,0,90,false,stim,false,0,544.9000000001397,0,0,0,25237,task1,680404,false,false,601,image-keyboard-response,23
true,5,0,2,0,true,q,false,true,0.0-2.0-0.19-0.174-3.174,0,0,0,81,false,stim,false,1,813.8000000000466,0,0,2,25237,task1,682726,false,false,604,image-keyboard-response,24
true,5,1,2,1,true,z,false,true,0.0-2.0-0.19-0.175-3.175,0,0,0,90,false,stim,false,0,661.5999999998603,0,0,0,25237,task1,684895,false,false,607,image-keyboard-response,25
true,5,2,2,2,true,d,false,false,0.0-2.0-0.19-0.176-3.176,0,0,0,68,false,stim,false,1,657.1000000000931,0,0,1,25237,task1,687058,false,true,610,image-keyboard-response,26
true,5,2,2,2,true,d,false,true,0.0-2.0-0.19-0.177-3.177,0,0,0,68,false,stim,false,1,359.0,0,0,1,25237,task1,688924,false,false,613,image-keyboard-response,27
true,5,1,2,1,true,z,false,true,0.0-2.0-0.19-0.178-3.178,0,0,0,90,false,stim,false,0,2048.3000000000466,0,0,0,25237,task1,692479,false,false,616,image-keyboard-response,28
true,5,0,2,0,true,q,false,true,0.0-2.0-0.19-0.179-3.179,0,0,0,81,false,stim,false,1,1194.7000000001863,0,0,2,25237,task1,695182,false,false,619,image-keyboard-response,29
true,5,2,2,2,true,d,false,true,0.0-2.0-0.20-0.180-3.180,0,0,0,68,false,stim,false,1,830.6999999999534,0,0,1,25237,task1,697520,false,false,622,image-keyboard-response,30
true,5,2,2,2,true,d,false,true,0.0-2.0-0.20-0.181-3.181,0,0,0,68,false,stim,false,1,568.9000000001397,0,0,1,25237,task1,699597,false,false,625,image-keyboard-response,31
true,5,0,2,0,true,q,false,true,0.0-2.0-0.20-0.182-3.182,0,0,0,81,false,stim,false,1,942.0,0,0,2,25237,task1,702046,false,false,628,image-keyboard-response,32
true,5,1,2,1,true,z,false,true,0.0-2.0-0.20-0.183-3.183,0,0,0,90,false,stim,false,0,575.3999999999069,0,0,0,25237,task1,704128,false,false,631,image-keyboard-response,33
true,5,1,2,1,true,z,false,true,0.0-2.0-0.20-0.184-3.184,0,0,0,90,false,stim,false,0,538.5,0,0,0,25237,task1,706173,false,false,634,image-keyboard-response,34
true,5,1,2,1,true,z,false,true,0.0-2.0-0.20-0.185-3.185,0,0,0,90,false,stim,false,0,582.8999999999069,0,0,0,25237,task1,708265,false,false,637,image-keyboard-response,35
true,5,2,2,2,true,d,false,true,0.0-2.0-0.20-0.186-3.186,0,0,0,68,false,stim,false,1,2118.5,0,0,1,25237,task1,711890,false,false,640,image-keyboard-response,36
true,5,0,2,0,true,q,false,true,0.0-2.0-0.20-0.187-3.187,0,0,0,81,false,stim,false,1,496.60000000009313,0,0,2,25237,task1,713894,false,false,643,image-keyboard-response,37
true,5,0,2,0,true,q,false,true,0.0-2.0-0.20-0.188-3.188,0,0,0,81,false,stim,false,1,456.9000000001397,0,0,2,25237,task1,715857,false,false,646,image-keyboard-response,38
true,5,0,2,0,true,q,false,true,0.0-2.0-0.21-0.189-3.189,0,0,0,81,false,stim,false,1,408.10000000009313,0,0,2,25237,task1,717773,false,false,649,image-keyboard-response,39
true,6,2,2,1,false,z,false,false,0.0-2.0-0.21-0.190-3.190,0,0,0,68,true,stim,true,2,492.5,0,0,1,25237,task1,719773,false,false,652,image-keyboard-response,1
true,6,1,2,0,false,q,false,false,0.0-2.0-0.21-0.191-3.191,0,0,0,90,false,stim,true,1,825.8999999999069,0,0,0,25237,task1,722105,false,false,655,image-keyboard-response,2
false,6,-1,2,1,false,z,true,false,0.0-2.0-0.21-0.192-3.192,0,0,0,,false,stim,false,2,,0,0,1,25237,task1,726615,false,false,658,image-keyboard-response,3
true,6,1,2,1,true,z,false,false,0.0-2.0-0.21-0.193-3.193,0,0,0,90,false,stim,false,2,1302.0999999998603,0,0,1,25237,task1,729425,false,true,661,image-keyboard-response,4
true,6,2,2,1,false,z,true,false,0.0-2.0-0.21-0.194-3.194,0,0,0,68,false,stim,false,0,2149.2000000001863,0,0,2,25237,task1,733079,false,false,664,image-keyboard-response,5
true,6,0,2,1,false,z,false,false,0.0-2.0-0.21-0.195-3.195,0,0,0,81,false,stim,true,0,1185.6999999999534,0,0,2,25237,task1,735773,false,false,667,image-keyboard-response,6
true,6,0,2,0,true,q,false,true,0.0-2.0-0.21-0.196-3.196,0,0,0,81,false,stim,false,1,1183.1999999999534,0,0,0,25237,task1,738462,false,false,670,image-keyboard-response,7
true,6,0,2,0,true,q,false,true,0.0-2.0-0.21-0.197-3.197,0,0,0,81,false,stim,false,1,587.5,0,0,0,25237,task1,740557,false,false,673,image-keyboard-response,8
true,6,0,2,0,true,q,false,true,0.0-2.0-0.22-0.198-3.198,0,0,0,81,false,stim,false,1,559.1999999999534,0,0,0,25237,task1,742623,false,false,676,image-keyboard-response,9
true,6,0,2,0,true,q,false,true,0.0-2.0-0.22-0.199-3.199,0,0,0,81,false,stim,false,1,462.69999999995343,0,0,0,25237,task1,744593,false,false,679,image-keyboard-response,10
true,6,1,2,1,true,z,false,false,0.0-2.0-0.22-0.200-3.200,0,0,0,90,false,stim,false,2,1189.6000000000931,0,0,1,25237,task1,747290,false,true,682,image-keyboard-response,11
true,6,0,2,0,true,q,false,true,0.0-2.0-0.22-0.201-3.201,0,0,0,81,false,stim,false,1,703.1000000000931,0,0,0,25237,task1,749499,false,false,685,image-keyboard-response,12
true,6,0,2,1,false,z,false,false,0.0-2.0-0.22-0.202-3.202,0,0,0,81,false,stim,true,0,719.1000000000931,0,0,2,25237,task1,751726,false,false,688,image-keyboard-response,13
true,6,2,2,1,false,z,true,false,0.0-2.0-0.22-0.203-3.203,0,0,0,68,false,stim,false,0,1097.0,0,0,2,25237,task1,754329,false,false,691,image-keyboard-response,14
true,6,2,2,1,false,z,false,false,0.0-2.0-0.22-0.204-3.204,0,0,0,68,false,stim,true,2,2074.1999999999534,0,0,1,25237,task1,757913,false,false,694,image-keyboard-response,15
true,6,0,2,1,false,z,false,false,0.0-2.0-0.22-0.205-3.205,0,0,0,81,false,stim,true,0,1148.3999999999069,0,0,2,25237,task1,760567,false,false,697,image-keyboard-response,16
true,6,0,2,1,false,z,true,false,0.0-2.0-0.22-0.206-3.206,0,0,0,81,false,stim,false,2,1463.6000000000931,0,0,1,25237,task1,763541,false,false,700,image-keyboard-response,17
true,6,0,2,1,false,z,false,false,0.0-2.0-0.23-0.207-3.207,0,0,0,81,false,stim,true,0,1652.9000000001397,0,0,2,25237,task1,766711,false,false,703,image-keyboard-response,18
true,6,0,2,0,true,q,false,true,0.0-2.0-0.23-0.208-3.208,0,0,0,81,false,stim,false,1,812.6999999999534,0,0,0,25237,task1,769031,false,false,706,image-keyboard-response,19
true,6,0,2,0,true,q,false,false,0.0-2.0-0.23-0.209-3.209,0,0,0,81,false,stim,false,1,792.0,0,0,0,25237,task1,771330,false,true,709,image-keyboard-response,20
true,6,1,2,1,true,z,false,true,0.0-2.0-0.23-0.210-3.210,0,0,0,90,false,stim,false,0,934.0999999998603,0,0,2,25237,task1,773774,false,false,712,image-keyboard-response,21
true,6,1,2,1,true,z,false,false,0.0-2.0-0.23-0.211-3.211,0,0,0,90,false,stim,false,0,502.30000000004657,0,0,2,25237,task1,775783,false,true,715,image-keyboard-response,22
true,6,0,2,0,true,q,false,true,0.0-2.0-0.23-0.212-3.212,0,0,0,81,false,stim,false,1,1286.3000000000466,0,0,0,25237,task1,778578,false,false,718,image-keyboard-response,23
true,6,1,2,1,true,z,false,true,0.0-2.0-0.23-0.213-3.213,0,0,0,90,false,stim,false,2,1194.6999999999534,0,0,1,25237,task1,781282,false,false,721,image-keyboard-response,24
true,6,1,2,1,true,z,false,true,0.0-2.0-0.23-0.214-3.214,0,0,0,90,false,stim,false,2,644.5999999998603,0,0,1,25237,task1,783434,false,false,724,image-keyboard-response,25
true,6,1,2,1,true,z,false,true,0.0-2.0-0.23-0.215-3.215,0,0,0,90,false,stim,false,2,547.8000000000466,0,0,1,25237,task1,785487,false,false,727,image-keyboard-response,26
true,6,1,2,1,true,z,false,true,0.0-2.0-0.24-0.216-3.216,0,0,0,90,false,stim,false,2,471.60000000009313,0,0,1,25237,task1,787466,false,false,730,image-keyboard-response,27
true,6,1,2,1,true,z,false,true,0.0-2.0-0.24-0.217-3.217,0,0,0,90,false,stim,false,0,844.5,0,0,2,25237,task1,789818,false,false,733,image-keyboard-response,28
true,6,1,2,1,true,z,false,true,0.0-2.0-0.24-0.218-3.218,0,0,0,90,false,stim,false,0,567.5,0,0,2,25237,task1,791893,false,false,736,image-keyboard-response,29
true,6,0,2,0,true,q,false,true,0.0-2.0-0.24-0.219-3.219,0,0,0,81,false,stim,false,1,571.3000000000466,0,0,0,25237,task1,793973,false,false,739,image-keyboard-response,30
true,6,1,2,1,true,z,false,true,0.0-2.0-0.24-0.220-3.220,0,0,0,90,false,stim,false,2,782.0999999998603,0,0,1,25237,task1,796261,false,false,742,image-keyboard-response,31
true,6,1,2,1,true,z,false,true,0.0-2.0-0.24-0.221-3.221,0,0,0,90,false,stim,false,0,590.0999999998603,0,0,2,25237,task1,798360,false,false,745,image-keyboard-response,32
true,6,0,2,0,true,q,false,true,0.0-2.0-0.24-0.222-3.222,0,0,0,81,false,stim,false,1,499.9000000001397,0,0,0,25237,task1,800367,false,false,748,image-keyboard-response,33
true,6,1,2,1,true,z,false,true,0.0-2.0-0.24-0.223-3.223,0,0,0,90,false,stim,false,2,523.6999999999534,0,0,1,25237,task1,802398,false,false,751,image-keyboard-response,34
true,6,0,2,0,true,q,false,true,0.0-2.0-0.24-0.224-3.224,0,0,0,81,false,stim,false,1,678.1000000000931,0,0,0,25237,task1,804583,false,false,754,image-keyboard-response,35
true,6,0,2,0,true,q,false,false,0.0-2.0-0.25-0.225-3.225,0,0,0,81,false,stim,false,1,471.4000000001397,0,0,0,25237,task1,806562,false,true,757,image-keyboard-response,36
true,6,1,2,1,true,z,false,true,0.0-2.0-0.25-0.226-3.226,0,0,0,90,false,stim,false,0,609.1999999999534,0,0,2,25237,task1,808676,false,false,760,image-keyboard-response,37
true,6,1,2,1,true,z,false,true,0.0-2.0-0.25-0.227-3.227,0,0,0,90,false,stim,false,0,496.60000000009313,0,0,2,25237,task1,810681,false,false,763,image-keyboard-response,38
true,6,1,2,1,true,z,false,true,0.0-2.0-0.25-0.228-3.228,0,0,0,90,false,stim,false,2,466.0,0,0,1,25237,task1,812654,false,false,766,image-keyboard-response,39
true,6,1,2,1,true,z,false,true,0.0-2.0-0.25-0.229-3.229,0,0,0,90,false,stim,false,2,458.89999999990687,0,0,1,25237,task1,814619,false,false,769,image-keyboard-response,40
true,6,0,2,0,true,q,false,true,0.0-2.0-0.25-0.230-3.230,0,0,0,81,false,stim,false,1,590.6999999999534,0,0,0,25237,task1,816718,false,false,772,image-keyboard-response,41
true,6,1,2,1,true,z,false,true,0.0-2.0-0.25-0.231-3.231,0,0,0,90,false,stim,false,2,623.0,0,0,1,25237,task1,818848,false,false,775,image-keyboard-response,42
true,7,1,1,0,false,q,false,false,0.0-2.0-0.25-0.232-3.232,0,0,0,90,true,stim,true,1,810.3999999999069,0,0,2,25237,task1,821165,false,false,778,image-keyboard-response,1
true,7,0,1,1,false,z,false,false,0.0-2.0-0.25-0.233-3.233,0,0,0,81,false,stim,true,0,713.1000000000931,0,0,0,25237,task1,823385,false,false,781,image-keyboard-response,2
true,7,1,1,0,false,q,false,false,0.0-2.0-0.26-0.234-3.234,0,0,0,90,false,stim,true,1,515.5,0,0,2,25237,task1,825407,false,false,784,image-keyboard-response,3
true,7,1,1,0,false,q,false,false,0.0-2.0-0.26-0.235-3.235,0,0,0,90,false,stim,true,1,661.4000000001397,0,0,2,25237,task1,827575,false,false,787,image-keyboard-response,4
true,7,0,1,0,true,q,false,true,0.0-2.0-0.26-0.236-3.236,0,0,0,81,false,stim,false,1,974.5,0,0,1,25237,task1,830058,false,false,790,image-keyboard-response,5
true,7,0,1,1,false,z,false,false,0.0-2.0-0.26-0.237-3.237,0,0,0,81,false,stim,true,0,1015.7000000001863,0,0,0,25237,task1,832580,false,false,793,image-keyboard-response,6
true,7,0,1,0,true,q,false,true,0.0-2.0-0.26-0.238-3.238,0,0,0,81,false,stim,false,1,592.0,0,0,1,25237,task1,834681,false,false,796,image-keyboard-response,7
true,7,0,1,0,true,q,false,true,0.0-2.0-0.26-0.239-3.239,0,0,0,81,false,stim,false,1,735.1999999999534,0,0,2,25237,task1,836924,false,false,799,image-keyboard-response,8
true,7,2,1,0,false,q,true,false,0.0-2.0-0.26-0.240-3.240,0,0,0,68,false,stim,false,1,1300.1000000000931,0,0,1,25237,task1,839740,false,false,802,image-keyboard-response,9
true,7,2,1,1,false,z,true,false,0.0-2.0-0.26-0.241-3.241,0,0,0,68,false,stim,false,0,928.5999999998603,0,0,0,25237,task1,842175,false,false,805,image-keyboard-response,10
true,7,1,1,1,true,z,false,true,0.0-2.0-0.26-0.242-3.242,0,0,0,90,false,stim,false,0,1569.3999999999069,0,0,0,25237,task1,845253,false,false,808,image-keyboard-response,11
true,7,1,1,1,true,z,false,true,0.0-2.0-0.27-0.243-3.243,0,0,0,90,false,stim,false,0,626.1000000000931,0,0,0,25237,task1,847385,false,false,811,image-keyboard-response,12
true,7,0,1,0,true,q,false,true,0.0-2.0-0.27-0.244-3.244,0,0,0,81,false,stim,false,1,677.1999999999534,0,0,2,25237,task1,849567,false,false,814,image-keyboard-response,13
true,7,0,1,0,true,q,false,true,0.0-2.0-0.27-0.245-3.245,0,0,0,81,false,stim,false,1,475.10000000009313,0,0,1,25237,task1,851548,false,false,817,image-keyboard-response,14
true,7,0,1,0,true,q,false,true,0.0-2.0-0.27-0.246-3.246,0,0,0,81,false,stim,false,1,451.9000000001397,0,0,1,25237,task1,853506,false,false,820,image-keyboard-response,15
true,7,0,1,0,true,q,false,true,0.0-2.0-0.27-0.247-3.247,0,0,0,81,false,stim,false,1,395.80000000004657,0,0,1,25237,task1,855407,false,false,823,image-keyboard-response,16
true,7,0,1,0,true,q,false,false,0.0-2.0-0.27-0.248-3.248,0,0,0,81,false,stim,false,1,966.3000000000466,0,0,2,25237,task1,857880,false,true,826,image-keyboard-response,17
true,7,1,1,1,true,z,false,true,0.0-2.0-0.27-0.249-3.249,0,0,0,90,false,stim,false,0,423.9000000001397,0,0,0,25237,task1,859810,false,false,829,image-keyboard-response,18
true,7,0,1,0,true,q,false,true,0.0-2.0-0.27-0.250-3.250,0,0,0,81,false,stim,false,1,409.60000000009313,0,0,2,25237,task1,861726,false,false,832,image-keyboard-response,19
true,7,1,1,1,true,z,false,true,0.0-2.0-0.27-0.251-3.251,0,0,0,90,false,stim,false,0,534.1999999999534,0,0,0,25237,task1,863767,false,false,835,image-keyboard-response,20
true,7,0,1,0,true,q,false,true,0.0-2.0-0.28-0.252-3.252,0,0,0,81,false,stim,false,1,483.80000000004657,0,0,2,25237,task1,865758,false,false,838,image-keyboard-response,21
true,7,0,1,0,true,q,false,true,0.0-2.0-0.28-0.253-3.253,0,0,0,81,false,stim,false,1,455.60000000009313,0,0,2,25237,task1,867719,false,false,841,image-keyboard-response,22
true,7,0,1,0,true,q,false,false,0.0-2.0-0.28-0.254-3.254,0,0,0,81,false,stim,false,1,467.0,0,0,1,25237,task1,869692,false,true,844,image-keyboard-response,23
true,7,0,1,0,true,q,false,false,0.0-2.0-0.28-0.255-3.255,0,0,0,81,false,stim,false,1,420.10000000009313,0,0,1,25237,task1,871619,false,true,847,image-keyboard-response,24
true,7,0,1,0,true,q,false,true,0.0-2.0-0.28-0.256-3.256,0,0,0,81,false,stim,false,1,1022.0999999998603,0,0,2,25237,task1,874147,false,false,850,image-keyboard-response,25
true,7,1,1,1,true,z,false,true,0.0-2.0-0.28-0.257-3.257,0,0,0,90,false,stim,false,0,945.6000000000931,0,0,0,25237,task1,876601,false,false,853,image-keyboard-response,26
true,7,1,1,1,true,z,false,true,0.0-2.0-0.28-0.258-3.258,0,0,0,90,false,stim,false,0,429.39999999990687,0,0,0,25237,task1,878539,false,false,856,image-keyboard-response,27
true,7,2,1,0,false,q,true,false,0.0-2.0-0.28-0.259-3.259,0,0,0,68,false,stim,false,1,833.3999999999069,0,0,1,25237,task1,880880,false,false,859,image-keyboard-response,28
true,7,1,1,1,true,z,false,true,0.0-2.0-0.28-0.260-3.260,0,0,0,90,false,stim,false,0,726.9000000001397,0,0,0,25237,task1,883114,false,false,862,image-keyboard-response,29
true,7,1,1,1,true,z,false,true,0.0-2.0-0.29-0.261-3.261,0,0,0,90,false,stim,false,0,1046.8000000000466,0,0,0,25237,task1,885668,false,false,865,image-keyboard-response,30
true,7,2,1,0,false,q,true,false,0.0-2.0-0.29-0.262-3.262,0,0,0,68,false,stim,false,1,1490.6000000000931,0,0,1,25237,task1,888667,false,false,868,image-keyboard-response,31
true,7,1,1,0,false,q,false,false,0.0-2.0-0.29-0.263-3.263,0,0,0,90,false,stim,true,1,946.9000000001397,0,0,2,25237,task1,891124,false,false,871,image-keyboard-response,32
true,7,0,1,0,true,q,false,false,0.0-2.0-0.29-0.264-3.264,0,0,0,81,false,stim,false,1,409.0999999998603,0,0,2,25237,task1,893040,false,true,874,image-keyboard-response,33
true,7,1,1,0,false,q,false,false,0.0-2.0-0.29-0.265-3.265,0,0,0,90,false,stim,true,1,1374.6999999999534,0,0,1,25237,task1,895922,false,false,877,image-keyboard-response,34
true,7,0,1,0,true,q,false,false,0.0-2.0-0.29-0.266-3.266,0,0,0,81,false,stim,false,1,1974.2000000001863,0,0,2,25237,task1,899406,false,true,880,image-keyboard-response,35
true,7,1,1,1,true,z,false,false,0.0-2.0-0.29-0.267-3.267,0,0,0,90,false,stim,false,0,814.0999999998603,0,0,0,25237,task1,901728,false,true,883,image-keyboard-response,36
true,7,2,1,0,false,q,true,false,0.0-2.0-0.29-0.268-3.268,0,0,0,68,false,stim,false,1,1753.3000000000466,0,0,1,25237,task1,904990,false,false,886,image-keyboard-response,37
true,7,0,1,1,false,z,false,false,0.0-2.0-0.29-0.269-3.269,0,0,0,81,false,stim,true,0,1182.6999999999534,0,0,0,25237,task1,907681,false,false,889,image-keyboard-response,38
true,7,2,1,0,false,q,true,true,0.0-2.0-0.30-0.270-3.270,0,0,0,68,false,stim,false,1,1487.6000000000931,0,0,1,25237,task1,910675,false,true,892,image-keyboard-response,39
true,7,0,1,1,false,z,false,true,0.0-2.0-0.30-0.271-3.271,0,0,0,81,false,stim,true,0,1419.0999999998603,0,0,0,25237,task1,913603,false,true,895,image-keyboard-response,40
true,7,2,1,0,false,q,true,false,0.0-2.0-0.30-0.272-3.272,0,0,0,68,false,stim,false,1,1043.3999999999069,0,0,1,25237,task1,916153,false,false,898,image-keyboard-response,41
true,7,2,1,0,false,q,true,false,0.0-2.0-0.30-0.273-3.273,0,0,0,68,false,stim,false,1,551.8999999999069,0,0,2,25237,task1,918219,false,false,901,image-keyboard-response,42
true,7,2,1,0,false,q,true,false,0.0-2.0-0.30-0.274-3.274,0,0,0,68,false,stim,false,1,501.0999999998603,0,0,2,25237,task1,920228,false,false,904,image-keyboard-response,43
true,7,0,1,1,false,z,false,false,0.0-2.0-0.30-0.275-3.275,0,0,0,81,false,stim,true,0,717.5,0,0,0,25237,task1,922453,false,false,907,image-keyboard-response,44
true,8,2,2,1,false,z,true,false,0.0-2.0-0.30-0.276-3.276,0,0,0,68,true,stim,false,0,1942.8000000000466,0,0,1,25237,task1,925903,false,false,910,image-keyboard-response,1
true,8,2,2,1,false,z,true,false,0.0-2.0-0.30-0.277-3.277,0,0,0,68,false,stim,false,0,1036.8999999999069,0,0,2,25237,task1,928448,false,false,913,image-keyboard-response,2
true,8,0,2,0,true,q,false,true,0.0-2.0-0.30-0.278-3.278,0,0,0,81,false,stim,false,1,1702.1999999999534,0,0,0,25237,task1,931661,false,false,916,image-keyboard-response,3
true,8,1,2,1,true,z,false,true,0.0-2.0-0.31-0.279-3.279,0,0,0,90,false,stim,false,0,1741.1000000000931,0,0,2,25237,task1,934910,false,false,919,image-keyboard-response,4
true,8,1,2,1,true,z,false,false,0.0-2.0-0.31-0.280-3.280,0,0,0,90,false,stim,false,0,591.0,0,0,2,25237,task1,937010,false,true,922,image-keyboard-response,5
true,8,1,2,1,true,z,false,true,0.0-2.0-0.31-0.281-3.281,0,0,0,90,false,stim,false,0,920.5,0,0,1,25237,task1,939438,false,false,925,image-keyboard-response,6
true,8,1,2,1,true,z,false,true,0.0-2.0-0.31-0.282-3.282,0,0,0,90,false,stim,false,0,733.8999999999069,0,0,2,25237,task1,941679,false,false,928,image-keyboard-response,7
true,8,0,2,0,true,q,false,true,0.0-2.0-0.31-0.283-3.283,0,0,0,81,false,stim,false,1,532.5999999998603,0,0,0,25237,task1,943721,false,false,931,image-keyboard-response,8
true,8,0,2,0,true,q,false,true,0.0-2.0-0.31-0.284-3.284,0,0,0,81,false,stim,false,1,467.0,0,0,0,25237,task1,945697,false,false,934,image-keyboard-response,9
true,8,1,2,1,true,z,false,true,0.0-2.0-0.31-0.285-3.285,0,0,0,90,false,stim,false,0,554.6000000000931,0,0,1,25237,task1,947759,false,false,937,image-keyboard-response,10
true,8,1,2,0,false,q,false,false,0.0-2.0-0.31-0.286-3.286,0,0,0,90,false,stim,true,1,488.69999999995343,0,0,0,25237,task1,949754,false,false,940,image-keyboard-response,11
true,8,1,2,1,true,z,false,true,0.0-2.0-0.31-0.287-3.287,0,0,0,90,false,stim,false,0,722.8000000000466,0,0,1,25237,task1,951984,false,false,943,image-keyboard-response,12
true,8,1,2,1,true,z,false,true,0.0-2.0-0.32-0.288-3.288,0,0,0,90,false,stim,false,0,393.0,0,0,1,25237,task1,953884,false,false,946,image-keyboard-response,13
true,8,1,2,1,true,z,false,true,0.0-2.0-0.32-0.289-3.289,0,0,0,90,false,stim,false,0,685.7000000001863,0,0,2,25237,task1,956077,false,false,949,image-keyboard-response,14
true,8,1,2,1,true,z,false,true,0.0-2.0-0.32-0.290-3.290,0,0,0,90,false,stim,false,0,466.4000000001397,0,0,1,25237,task1,958051,false,false,952,image-keyboard-response,15
true,8,1,2,1,true,z,false,false,0.0-2.0-0.32-0.291-3.291,0,0,0,90,false,stim,false,0,446.4000000001397,0,0,1,25237,task1,960006,false,true,955,image-keyboard-response,16
true,8,1,2,1,true,z,false,true,0.0-2.0-0.32-0.292-3.292,0,0,0,90,false,stim,false,0,601.6999999999534,0,0,2,25237,task1,962115,false,false,958,image-keyboard-response,17
true,8,0,2,0,true,q,false,true,0.0-2.0-0.32-0.293-3.293,0,0,0,81,false,stim,false,1,626.5,0,0,0,25237,task1,964249,false,false,961,image-keyboard-response,18
true,8,0,2,0,true,q,false,true,0.0-2.0-0.32-0.294-3.294,0,0,0,81,false,stim,false,1,449.39999999990687,0,0,0,25237,task1,966208,false,false,964,image-keyboard-response,19
true,8,0,2,0,true,q,false,true,0.0-2.0-0.32-0.295-3.295,0,0,0,81,false,stim,false,1,408.5999999998603,0,0,0,25237,task1,968124,false,false,967,image-keyboard-response,20
true,8,1,2,1,true,z,false,true,0.0-2.0-0.32-0.296-3.296,0,0,0,90,false,stim,false,0,676.3000000000466,0,0,2,25237,task1,970308,false,false,970,image-keyboard-response,21
true,8,1,2,1,true,z,false,true,0.0-2.0-0.33-0.297-3.297,0,0,0,90,false,stim,false,0,442.80000000004657,0,0,1,25237,task1,972258,false,false,973,image-keyboard-response,22
true,8,1,2,1,true,z,false,true,0.0-2.0-0.33-0.298-3.298,0,0,0,90,false,stim,false,0,530.8999999999069,0,0,1,25237,task1,974296,false,false,976,image-keyboard-response,23
true,8,0,2,0,true,q,false,true,0.0-2.0-0.33-0.299-3.299,0,0,0,81,false,stim,false,1,686.3000000000466,0,0,0,25237,task1,976490,false,false,979,image-keyboard-response,24
true,8,1,2,1,true,z,false,false,0.0-2.0-0.33-0.300-3.300,0,0,0,90,false,stim,false,0,807.3000000000466,0,0,2,25237,task1,978805,false,true,982,image-keyboard-response,25
true,8,1,2,1,true,z,false,true,0.0-2.0-0.33-0.301-3.301,0,0,0,90,false,stim,false,0,599.3000000000466,0,0,2,25237,task1,980911,false,false,985,image-keyboard-response,26
true,8,0,2,0,true,q,false,true,0.0-2.0-0.33-0.302-3.302,0,0,0,81,false,stim,false,1,963.2000000001863,0,0,0,25237,task1,983381,false,false,988,image-keyboard-response,27
true,8,1,2,1,true,z,false,true,0.0-2.0-0.33-0.303-3.303,0,0,0,90,false,stim,false,0,655.4000000001397,0,0,2,25237,task1,985543,false,false,991,image-keyboard-response,28
true,8,0,2,0,true,q,false,true,0.0-2.0-0.33-0.304-3.304,0,0,0,81,false,stim,false,1,734.5,0,0,0,25237,task1,987785,false,false,994,image-keyboard-response,29
true,8,1,2,1,true,z,false,true,0.0-2.0-0.33-0.305-3.305,0,0,0,90,false,stim,false,0,583.6000000000931,0,0,1,25237,task1,989877,false,false,997,image-keyboard-response,30
true,8,0,2,0,true,q,false,true,0.0-2.0-0.34-0.306-3.306,0,0,0,81,false,stim,false,1,720.6000000000931,0,0,0,25237,task1,992106,false,false,1000,image-keyboard-response,31
true,8,1,2,1,true,z,false,true,0.0-2.0-0.34-0.307-3.307,0,0,0,90,false,stim,false,0,523.7000000001863,0,0,2,25237,task1,994149,false,false,1003,image-keyboard-response,32
true,8,1,2,1,true,z,false,false,0.0-2.0-0.34-0.308-3.308,0,0,0,90,false,stim,false,0,553.3000000000466,0,0,1,25237,task1,996212,false,true,1006,image-keyboard-response,33
true,8,1,2,1,true,z,false,true,0.0-2.0-0.34-0.309-3.309,0,0,0,90,false,stim,false,0,351.5,0,0,2,25237,task1,998071,false,false,1009,image-keyboard-response,34
true,8,1,2,1,true,z,false,true,0.0-2.0-0.34-0.310-3.310,0,0,0,90,false,stim,false,0,408.0,0,0,1,25237,task1,999987,false,false,1012,image-keyboard-response,35
true,8,0,2,0,true,q,false,false,0.0-2.0-0.34-0.311-3.311,0,0,0,81,false,stim,false,1,688.6999999999534,0,0,0,25237,task1,1002182,false,true,1015,image-keyboard-response,36
true,8,1,2,1,true,z,false,true,0.0-2.0-0.34-0.312-3.312,0,0,0,90,false,stim,false,0,655.5,0,0,1,25237,task1,1004346,false,false,1018,image-keyboard-response,37
true,8,0,2,0,true,q,false,true,0.0-2.0-0.34-0.313-3.313,0,0,0,81,false,stim,false,1,618.6000000000931,0,0,0,25237,task1,1006473,false,false,1021,image-keyboard-response,38
true,8,1,2,1,true,z,false,true,0.0-2.0-0.34-0.314-3.314,0,0,0,90,false,stim,false,0,711.0,0,0,2,25237,task1,1008692,false,false,1024,image-keyboard-response,39
true,8,1,2,1,true,z,false,true,0.0-2.0-0.35-0.315-3.315,0,0,0,90,false,stim,false,0,568.4000000001397,0,0,1,25237,task1,1010767,false,false,1027,image-keyboard-response,40
true,8,1,2,0,false,q,false,false,0.0-2.0-0.35-0.316-3.316,0,0,0,90,false,stim,true,1,606.8999999999069,0,0,0,25237,task1,1012882,false,false,1030,image-keyboard-response,41
true,8,1,2,1,true,z,false,true,0.0-2.0-0.35-0.317-3.317,0,0,0,90,false,stim,false,0,533.0,0,0,2,25237,task1,1014922,false,false,1033,image-keyboard-response,42
true,8,1,2,1,true,z,false,true,0.0-2.0-0.35-0.318-3.318,0,0,0,90,false,stim,false,0,469.80000000004657,0,0,1,25237,task1,1016900,false,false,1036,image-keyboard-response,43
true,8,1,2,1,true,z,false,true,0.0-2.0-0.35-0.319-3.319,0,0,0,90,false,stim,false,0,533.8000000000466,0,0,2,25237,task1,1018941,false,false,1039,image-keyboard-response,44
true,8,1,2,1,true,z,false,true,0.0-2.0-0.35-0.320-3.320,0,0,0,90,false,stim,false,0,580.1999999999534,0,0,1,25237,task1,1021030,false,false,1042,image-keyboard-response,45
true,9,1,1,0,false,q,false,false,0.0-2.0-0.35-0.321-3.321,0,0,0,90,true,stim,true,1,457.60000000009313,0,0,2,25237,task1,1022995,false,false,1045,image-keyboard-response,1
true,9,0,1,2,false,d,false,false,0.0-2.0-0.35-0.322-3.322,0,0,0,81,false,stim,true,0,471.5,0,0,0,25237,task1,1024974,false,false,1048,image-keyboard-response,2
true,9,0,1,2,false,d,false,false,0.0-2.0-0.35-0.323-3.323,0,0,0,81,false,stim,true,0,415.89999999990687,0,0,0,25237,task1,1026899,false,false,1051,image-keyboard-response,3
true,9,1,1,2,false,d,true,false,0.0-2.0-0.36-0.324-3.324,0,0,0,90,false,stim,false,0,470.30000000004657,0,0,0,25237,task1,1028876,false,false,1054,image-keyboard-response,4
true,9,1,1,0,false,q,false,false,0.0-2.0-0.36-0.325-3.325,0,0,0,90,false,stim,true,1,2070.1999999999534,0,0,1,25237,task1,1032454,false,false,1057,image-keyboard-response,5
true,9,0,1,0,true,q,false,true,0.0-2.0-0.36-0.326-3.326,0,0,0,81,false,stim,false,1,1756.4000000001397,0,0,2,25237,task1,1035720,false,false,1060,image-keyboard-response,6
true,9,2,1,2,true,d,false,true,0.0-2.0-0.36-0.327-3.327,0,0,0,68,false,stim,false,0,1500.6999999999534,0,0,0,25237,task1,1038728,false,false,1063,image-keyboard-response,7
true,9,0,1,0,true,q,false,true,0.0-2.0-0.36-0.328-3.328,0,0,0,81,false,stim,false,1,1017.6999999999534,0,0,1,25237,task1,1041255,false,false,1066,image-keyboard-response,8
true,9,0,1,0,true,q,false,true,0.0-2.0-0.36-0.329-3.329,0,0,0,81,false,stim,false,1,897.1999999999534,0,0,2,25237,task1,1043660,false,false,1069,image-keyboard-response,9
true,9,0,1,0,true,q,false,true,0.0-2.0-0.36-0.330-3.330,0,0,0,81,false,stim,false,1,690.5,0,0,1,25237,task1,1045859,false,false,1072,image-keyboard-response,10
true,9,0,1,0,true,q,false,true,0.0-2.0-0.36-0.331-3.331,0,0,0,81,false,stim,false,1,608.0999999998603,0,0,2,25237,task1,1047974,false,false,1075,image-keyboard-response,11
true,9,2,1,2,true,d,false,true,0.0-2.0-0.36-0.332-3.332,0,0,0,68,false,stim,false,0,519.2000000001863,0,0,0,25237,task1,1050000,false,false,1078,image-keyboard-response,12
true,9,0,1,0,true,q,false,true,0.0-2.0-0.37-0.333-3.333,0,0,0,81,false,stim,false,1,561.6000000000931,0,0,2,25237,task1,1052069,false,false,1081,image-keyboard-response,13
true,9,0,1,0,true,q,false,true,0.0-2.0-0.37-0.334-3.334,0,0,0,81,false,stim,false,1,558.6999999999534,0,0,1,25237,task1,1054135,false,false,1084,image-keyboard-response,14
true,9,0,1,0,true,q,false,true,0.0-2.0-0.37-0.335-3.335,0,0,0,81,false,stim,false,1,635.0,0,0,2,25237,task1,1056280,false,false,1087,image-keyboard-response,15
true,9,0,1,0,true,q,false,true,0.0-2.0-0.37-0.336-3.336,0,0,0,81,false,stim,false,1,703.0,0,0,1,25237,task1,1058491,false,false,1090,image-keyboard-response,16
true,9,2,1,2,true,d,false,true,0.0-2.0-0.37-0.337-3.337,0,0,0,68,false,stim,false,0,736.6000000000931,0,0,0,25237,task1,1060734,false,false,1093,image-keyboard-response,17
true,9,0,1,0,true,q,false,false,0.0-2.0-0.37-0.338-3.338,0,0,0,81,false,stim,false,1,527.3000000000466,0,0,2,25237,task1,1062771,false,true,1096,image-keyboard-response,18
true,9,0,1,0,true,q,false,true,0.0-2.0-0.37-0.339-3.339,0,0,0,81,false,stim,false,1,517.3000000000466,0,0,1,25237,task1,1064795,false,false,1099,image-keyboard-response,19
true,9,2,1,2,true,d,false,true,0.0-2.0-0.37-0.340-3.340,0,0,0,68,false,stim,false,0,591.7000000001863,0,0,0,25237,task1,1066916,false,false,1102,image-keyboard-response,20
true,9,2,1,2,true,d,false,true,0.0-2.0-0.37-0.341-3.341,0,0,0,68,false,stim,false,0,400.89999999990687,0,0,0,25237,task1,1068824,false,false,1105,image-keyboard-response,21
true,9,2,1,2,true,d,false,true,0.0-2.0-0.38-0.342-3.342,0,0,0,68,false,stim,false,0,413.19999999995343,0,0,0,25237,task1,1070745,false,false,1108,image-keyboard-response,22
true,9,0,1,0,true,q,false,true,0.0-2.0-0.38-0.343-3.343,0,0,0,81,false,stim,false,1,535.0,0,0,2,25237,task1,1072788,false,false,1111,image-keyboard-response,23
true,9,0,1,0,true,q,false,false,0.0-2.0-0.38-0.344-3.344,0,0,0,81,false,stim,false,1,437.5,0,0,1,25237,task1,1074733,false,true,1114,image-keyboard-response,24
true,9,0,1,0,true,q,false,true,0.0-2.0-0.38-0.345-3.345,0,0,0,81,false,stim,false,1,869.1000000000931,0,0,2,25237,task1,1077111,false,false,1117,image-keyboard-response,25
true,9,0,1,0,true,q,false,true,0.0-2.0-0.38-0.346-3.346,0,0,0,81,false,stim,false,1,442.9000000001397,0,0,1,25237,task1,1079061,false,false,1120,image-keyboard-response,26
true,9,0,1,0,true,q,false,true,0.0-2.0-0.38-0.347-3.347,0,0,0,81,false,stim,false,1,500.4000000001397,0,0,1,25237,task1,1081071,false,false,1123,image-keyboard-response,27
true,9,2,1,2,true,d,false,true,0.0-2.0-0.38-0.348-3.348,0,0,0,68,false,stim,false,0,535.1000000000931,0,0,0,25237,task1,1083113,false,false,1126,image-keyboard-response,28
true,9,2,1,2,true,d,false,true,0.0-2.0-0.38-0.349-3.349,0,0,0,68,false,stim,false,0,419.19999999995343,0,0,0,25237,task1,1085039,false,false,1129,image-keyboard-response,29
true,9,0,1,0,true,q,false,true,0.0-2.0-0.38-0.350-3.350,0,0,0,81,false,stim,false,1,699.3000000000466,0,0,2,25237,task1,1087247,false,false,1132,image-keyboard-response,30
true,9,0,1,0,true,q,false,true,0.0-2.0-0.39-0.351-3.351,0,0,0,81,false,stim,false,1,550.5,0,0,2,25237,task1,1089307,false,false,1135,image-keyboard-response,31
true,9,0,1,0,true,q,false,true,0.0-2.0-0.39-0.352-3.352,0,0,0,81,false,stim,false,1,411.80000000004657,0,0,1,25237,task1,1091227,false,false,1138,image-keyboard-response,32
true,9,0,1,0,true,q,false,true,0.0-2.0-0.39-0.353-3.353,0,0,0,81,false,stim,false,1,406.10000000009313,0,0,2,25237,task1,1093140,false,false,1141,image-keyboard-response,33
true,9,2,1,2,true,d,false,true,0.0-2.0-0.39-0.354-3.354,0,0,0,68,false,stim,false,0,445.5999999998603,0,0,0,25237,task1,1095094,false,false,1144,image-keyboard-response,34
true,9,2,1,2,true,d,false,true,0.0-2.0-0.39-0.355-3.355,0,0,0,68,false,stim,false,0,461.5,0,0,0,25237,task1,1097063,false,false,1147,image-keyboard-response,35
true,9,0,1,0,true,q,false,true,0.0-2.0-0.39-0.356-3.356,0,0,0,81,false,stim,false,1,590.6999999999534,0,0,1,25237,task1,1099160,false,false,1150,image-keyboard-response,36
true,9,0,1,0,true,q,false,true,0.0-2.0-0.39-0.357-3.357,0,0,0,81,false,stim,false,1,394.60000000009313,0,0,1,25237,task1,1101062,false,false,1153,image-keyboard-response,37
true,9,0,1,0,true,q,false,true,0.0-2.0-0.39-0.358-3.358,0,0,0,81,false,stim,false,1,1085.5999999998603,0,0,2,25237,task1,1103655,false,false,1156,image-keyboard-response,38
true,9,2,1,2,true,d,false,true,0.0-2.0-0.39-0.359-3.359,0,0,0,68,false,stim,false,0,531.0999999996275,0,0,0,25237,task1,1105697,false,false,1159,image-keyboard-response,39
true,9,0,1,0,true,q,false,true,0.0-2.0-0.40-0.360-3.360,0,0,0,81,false,stim,false,1,453.79999999981374,0,0,1,25237,task1,1107658,false,false,1162,image-keyboard-response,40
true,9,2,1,2,true,d,false,true,0.0-2.0-0.40-0.361-3.361,0,0,0,68,false,stim,false,0,578.6000000000931,0,0,0,25237,task1,1109745,false,false,1165,image-keyboard-response,41
true,10,0,2,1,false,z,false,true,0.0-2.0-0.40-0.362-3.362,0,0,0,81,true,stim,true,0,506.09999999962747,0,0,2,25237,task1,1111758,false,true,1168,image-keyboard-response,1
true,10,2,2,0,false,q,false,false,0.0-2.0-0.40-0.363-3.363,0,0,0,68,false,stim,true,2,611.1999999997206,0,0,0,25237,task1,1113877,false,false,1171,image-keyboard-response,2
true,10,0,2,1,false,z,false,false,0.0-2.0-0.40-0.364-3.364,0,0,0,81,false,stim,true,0,546.3000000002794,0,0,2,25237,task1,1115930,false,false,1174,image-keyboard-response,3
true,10,0,2,1,false,z,false,false,0.0-2.0-0.40-0.365-3.365,0,0,0,81,false,stim,true,0,651.1000000000931,0,0,1,25237,task1,1118091,false,false,1177,image-keyboard-response,4
true,10,0,2,1,false,z,false,false,0.0-2.0-0.40-0.366-3.366,0,0,0,81,false,stim,true,0,637.5,0,0,1,25237,task1,1120236,false,false,1180,image-keyboard-response,5
true,10,2,2,0,false,q,false,false,0.0-2.0-0.40-0.367-3.367,0,0,0,68,false,stim,true,2,842.6000000000931,0,0,0,25237,task1,1122587,false,false,1183,image-keyboard-response,6
true,10,2,2,1,false,z,true,false,0.0-2.0-0.40-0.368-3.368,0,0,0,68,false,stim,false,0,2038.8999999999069,0,0,2,25237,task1,1126136,false,false,1186,image-keyboard-response,7
true,10,2,2,1,false,z,true,false,0.0-2.0-0.41-0.369-3.369,0,0,0,68,false,stim,false,0,1550.6000000000931,0,0,2,25237,task1,1129197,false,false,1189,image-keyboard-response,8
true,10,1,2,1,true,z,false,true,0.0-2.0-0.41-0.370-3.370,0,0,0,90,false,stim,false,0,2486.399999999907,0,0,1,25237,task1,1133191,false,false,1192,image-keyboard-response,9
true,10,0,2,0,true,q,false,true,0.0-2.0-0.41-0.371-3.371,0,0,0,81,false,stim,false,2,1072.8999999999069,0,0,0,25237,task1,1135773,false,false,1195,image-keyboard-response,10
true,10,1,2,1,true,z,false,true,0.0-2.0-0.41-0.372-3.372,0,0,0,90,false,stim,false,0,686.0999999996275,0,0,2,25237,task1,1137968,false,false,1198,image-keyboard-response,11
true,10,0,2,0,true,q,false,true,0.0-2.0-0.41-0.373-3.373,0,0,0,81,false,stim,false,2,710.7000000001863,0,0,0,25237,task1,1140198,false,false,1201,image-keyboard-response,12
true,10,1,2,1,true,z,false,true,0.0-2.0-0.41-0.374-3.374,0,0,0,90,false,stim,false,0,561.2999999998137,0,0,2,25237,task1,1142268,false,false,1204,image-keyboard-response,13
true,10,1,2,1,true,z,false,true,0.0-2.0-0.41-0.375-3.375,0,0,0,90,false,stim,false,0,610.2999999998137,0,0,1,25237,task1,1144385,false,false,1207,image-keyboard-response,14
true,10,1,2,1,true,z,false,true,0.0-2.0-0.41-0.376-3.376,0,0,0,90,false,stim,false,0,473.89999999990687,0,0,1,25237,task1,1146367,false,false,1210,image-keyboard-response,15
true,10,0,2,0,true,q,false,true,0.0-2.0-0.41-0.377-3.377,0,0,0,81,false,stim,false,2,440.20000000018626,0,0,0,25237,task1,1148316,false,false,1213,image-keyboard-response,16
true,10,1,2,1,true,z,false,true,0.0-2.0-0.42-0.378-3.378,0,0,0,90,false,stim,false,0,557.4000000003725,0,0,1,25237,task1,1150382,false,false,1216,image-keyboard-response,17
true,10,1,2,1,true,z,false,true,0.0-2.0-0.42-0.379-3.379,0,0,0,90,false,stim,false,0,528.7999999998137,0,0,1,25237,task1,1152418,false,false,1219,image-keyboard-response,18
true,10,0,2,0,true,q,false,true,0.0-2.0-0.42-0.380-3.380,0,0,0,81,false,stim,false,2,516.5999999996275,0,0,0,25237,task1,1154443,false,false,1222,image-keyboard-response,19
true,10,0,2,0,true,q,false,true,0.0-2.0-0.42-0.381-3.381,0,0,0,81,false,stim,false,2,424.1999999997206,0,0,0,25237,task1,1156375,false,false,1225,image-keyboard-response,20
true,10,1,2,1,true,z,false,true,0.0-2.0-0.42-0.382-3.382,0,0,0,90,false,stim,false,0,483.0,0,0,1,25237,task1,1158367,false,false,1228,image-keyboard-response,21
true,10,1,2,1,true,z,false,true,0.0-2.0-0.42-0.383-3.383,0,0,0,90,false,stim,false,0,882.6000000000931,0,0,2,25237,task1,1160756,false,false,1231,image-keyboard-response,22
true,10,1,2,1,true,z,false,true,0.0-2.0-0.42-0.384-3.384,0,0,0,90,false,stim,false,0,417.5,0,0,2,25237,task1,1162682,false,false,1234,image-keyboard-response,23
true,10,0,2,0,true,q,false,true,0.0-2.0-0.42-0.385-3.385,0,0,0,81,false,stim,false,2,498.29999999981374,0,0,0,25237,task1,1164688,false,false,1237,image-keyboard-response,24
true,10,1,2,1,true,z,false,true,0.0-2.0-0.42-0.386-3.386,0,0,0,90,false,stim,false,0,472.1999999997206,0,0,2,25237,task1,1166669,false,false,1240,image-keyboard-response,25
true,10,1,2,1,true,z,false,true,0.0-2.0-0.43-0.387-3.387,0,0,0,90,false,stim,false,0,643.3000000002794,0,0,1,25237,task1,1168822,false,false,1243,image-keyboard-response,26
true,10,1,2,1,true,z,false,true,0.0-2.0-0.43-0.388-3.388,0,0,0,90,false,stim,false,0,776.8999999999069,0,0,1,25237,task1,1171109,false,false,1246,image-keyboard-response,27
true,10,1,2,1,true,z,false,true,0.0-2.0-0.43-0.389-3.389,0,0,0,90,false,stim,false,0,735.3000000002794,0,0,2,25237,task1,1173353,false,false,1249,image-keyboard-response,28
true,10,1,2,1,true,z,false,true,0.0-2.0-0.43-0.390-3.390,0,0,0,90,false,stim,false,0,397.5,0,0,2,25237,task1,1175258,false,false,1252,image-keyboard-response,29
true,10,0,2,0,true,q,false,true,0.0-2.0-0.43-0.391-3.391,0,0,0,81,false,stim,false,2,411.6999999997206,0,0,0,25237,task1,1177177,false,false,1255,image-keyboard-response,30
true,10,0,2,0,true,q,false,true,0.0-2.0-0.43-0.392-3.392,0,0,0,81,false,stim,false,2,379.29999999981374,0,0,0,25237,task1,1179065,false,false,1258,image-keyboard-response,31
true,10,1,2,1,true,z,false,true,0.0-2.0-0.43-0.393-3.393,0,0,0,90,false,stim,false,0,501.1999999997206,0,0,1,25237,task1,1181075,false,false,1261,image-keyboard-response,32
true,10,1,2,1,true,z,false,true,0.0-2.0-0.43-0.394-3.394,0,0,0,90,false,stim,false,0,461.60000000009313,0,0,2,25237,task1,1183045,false,false,1264,image-keyboard-response,33
true,10,0,2,0,true,q,false,true,0.0-2.0-0.43-0.395-3.395,0,0,0,81,false,stim,false,2,544.8000000002794,0,0,0,25237,task1,1185100,false,false,1267,image-keyboard-response,34
true,10,0,2,0,true,q,false,false,0.0-2.0-0.44-0.396-3.396,0,0,0,81,false,stim,false,2,407.60000000009313,0,0,0,25237,task1,1187015,false,true,1270,image-keyboard-response,35
true,10,0,2,0,true,q,false,true,0.0-2.0-0.44-0.397-3.397,0,0,0,81,false,stim,false,2,392.60000000009313,0,0,0,25237,task1,1188915,false,false,1273,image-keyboard-response,36
true,10,1,2,1,true,z,false,true,0.0-2.0-0.44-0.398-3.398,0,0,0,90,false,stim,false,0,520.7999999998137,0,0,1,25237,task1,1190944,false,false,1276,image-keyboard-response,37
true,10,0,2,0,true,q,false,true,0.0-2.0-0.44-0.399-3.399,0,0,0,81,false,stim,false,2,682.5,0,0,0,25237,task1,1193135,false,false,1279,image-keyboard-response,38
true,10,1,2,1,true,z,false,true,0.0-2.0-0.44-0.400-3.400,0,0,0,90,false,stim,false,0,431.6999999997206,0,0,1,25237,task1,1195075,false,false,1282,image-keyboard-response,39
true,10,1,2,1,true,z,false,true,0.0-2.0-0.44-0.401-3.401,0,0,0,90,false,stim,false,0,532.5,0,0,2,25237,task1,1197116,false,false,1285,image-keyboard-response,40
true,10,1,2,1,true,z,false,true,0.0-2.0-0.44-0.402-3.402,0,0,0,90,false,stim,false,0,367.10000000009313,0,0,2,25237,task1,1198990,false,false,1288,image-keyboard-response,41
true,10,1,2,1,true,z,false,true,0.0-2.0-0.44-0.403-3.403,0,0,0,90,false,stim,false,0,377.29999999981374,0,0,2,25237,task1,1200878,false,false,1291,image-keyboard-response,42
true,10,1,2,1,true,z,false,true,0.0-2.0-0.44-0.404-3.404,0,0,0,90,false,stim,false,0,403.79999999981374,0,0,1,25237,task1,1202791,false,false,1294,image-keyboard-response,43
true,11,1,2,2,false,d,false,false,0.0-2.0-0.45-0.405-3.405,0,0,0,90,true,stim,true,1,324.5,0,0,1,25237,task1,1204625,false,false,1297,image-keyboard-response,1
true,11,1,2,0,false,q,false,false,0.0-2.0-0.45-0.406-3.406,0,0,0,90,false,stim,true,1,645.2000000001863,0,0,2,25237,task1,1206778,false,false,1300,image-keyboard-response,2
true,11,0,2,1,false,z,false,false,0.0-2.0-0.45-0.407-3.407,0,0,0,81,false,stim,true,0,536.7999999998137,0,0,0,25237,task1,1208840,false,false,1303,image-keyboard-response,3
true,11,1,2,2,false,d,false,false,0.0-2.0-0.45-0.408-3.408,0,0,0,90,false,stim,true,1,544.3000000002794,0,0,1,25237,task1,1210893,false,false,1306,image-keyboard-response,4
true,11,0,2,1,false,z,false,false,0.0-2.0-0.45-0.409-3.409,0,0,0,81,false,stim,true,0,735.1000000000931,0,0,0,25237,task1,1213137,false,false,1309,image-keyboard-response,5
true,11,0,2,0,true,q,false,true,0.0-2.0-0.45-0.410-3.410,0,0,0,81,false,stim,false,1,1162.6000000000931,0,0,2,25237,task1,1215808,false,false,1312,image-keyboard-response,6
true,11,0,2,0,true,q,false,true,0.0-2.0-0.45-0.411-3.411,0,0,0,81,false,stim,false,1,679.1999999997206,0,0,2,25237,task1,1217996,false,false,1315,image-keyboard-response,7
true,11,0,2,2,false,d,true,false,0.0-2.0-0.45-0.412-3.412,0,0,0,81,false,stim,false,1,428.0,0,0,1,25237,task1,1219932,false,false,1318,image-keyboard-response,8
true,11,1,2,1,true,z,false,false,0.0-2.0-0.45-0.413-3.413,0,0,0,90,false,stim,false,0,862.0,0,0,0,25237,task1,1222302,false,true,1321,image-keyboard-response,9
true,11,0,2,2,false,d,true,false,0.0-2.0-0.46-0.414-3.414,0,0,0,81,false,stim,false,1,948.7999999998137,0,0,1,25237,task1,1224762,false,false,1324,image-keyboard-response,10
true,11,2,2,1,false,z,true,false,0.0-2.0-0.46-0.415-3.415,0,0,0,68,false,stim,false,0,1696.3999999999069,0,0,0,25237,task1,1227967,false,false,1327,image-keyboard-response,11
true,11,2,2,1,false,z,true,false,0.0-2.0-0.46-0.416-3.416,0,0,0,68,false,stim,false,0,641.0,0,0,0,25237,task1,1230116,false,false,1330,image-keyboard-response,12
true,11,0,2,1,false,z,false,false,0.0-2.0-0.46-0.417-3.417,0,0,0,81,false,stim,true,0,410.6999999997206,0,0,0,25237,task1,1232036,false,false,1333,image-keyboard-response,13
true,11,0,2,0,true,q,false,true,0.0-2.0-0.46-0.418-3.418,0,0,0,81,false,stim,false,1,1176.1999999997206,0,0,2,25237,task1,1234721,false,false,1336,image-keyboard-response,14
true,11,0,2,0,true,q,false,true,0.0-2.0-0.46-0.419-3.419,0,0,0,81,false,stim,false,1,647.6999999997206,0,0,2,25237,task1,1236877,false,false,1339,image-keyboard-response,15
true,11,2,2,2,true,d,false,true,0.0-2.0-0.46-0.420-3.420,0,0,0,68,false,stim,false,1,1094.3999999999069,0,0,1,25237,task1,1239479,false,false,1342,image-keyboard-response,16
true,11,2,2,2,true,d,false,true,0.0-2.0-0.46-0.421-3.421,0,0,0,68,false,stim,false,1,663.3999999999069,0,0,1,25237,task1,1241651,false,false,1345,image-keyboard-response,17
true,11,0,2,0,true,q,false,true,0.0-2.0-0.46-0.422-3.422,0,0,0,81,false,stim,false,1,790.7000000001863,0,0,2,25237,task1,1243949,false,false,1348,image-keyboard-response,18
true,11,2,2,2,true,d,false,true,0.0-2.0-0.47-0.423-3.423,0,0,0,68,false,stim,false,1,565.0,0,0,1,25237,task1,1246023,false,false,1351,image-keyboard-response,19
true,11,2,2,2,true,d,false,false,0.0-2.0-0.47-0.424-3.424,0,0,0,68,false,stim,false,1,411.5,0,0,1,25237,task1,1247942,false,true,1354,image-keyboard-response,20
true,11,2,2,2,true,d,false,true,0.0-2.0-0.47-0.425-3.425,0,0,0,68,false,stim,false,1,479.20000000018626,0,0,1,25237,task1,1249930,false,false,1357,image-keyboard-response,21
true,11,0,2,0,true,q,false,false,0.0-2.0-0.47-0.426-3.426,0,0,0,81,false,stim,false,1,1242.3000000002794,0,0,2,25237,task1,1252681,false,true,1360,image-keyboard-response,22
true,11,0,2,1,false,z,false,false,0.0-2.0-0.47-0.427-3.427,0,0,0,81,false,stim,true,0,1915.5,0,0,0,25237,task1,1256107,false,false,1363,image-keyboard-response,23
true,11,0,2,0,true,q,false,true,0.0-2.0-0.47-0.428-3.428,0,0,0,81,false,stim,false,1,1041.2999999998137,0,0,2,25237,task1,1258657,false,false,1366,image-keyboard-response,24
true,11,0,2,1,false,z,false,false,0.0-2.0-0.47-0.429-3.429,0,0,0,81,false,stim,true,0,497.20000000018626,0,0,0,25237,task1,1260665,false,false,1369,image-keyboard-response,25
true,11,0,2,0,true,q,false,true,0.0-2.0-0.47-0.430-3.430,0,0,0,81,false,stim,false,1,1598.9000000003725,0,0,2,25237,task1,1263773,false,false,1372,image-keyboard-response,26
true,11,2,2,1,false,z,true,true,0.0-2.0-0.47-0.431-3.431,0,0,0,68,false,stim,false,0,1079.3000000002794,0,0,0,25237,task1,1266361,false,true,1375,image-keyboard-response,27
true,11,0,2,0,true,q,false,false,0.0-2.0-0.48-0.432-3.432,0,0,0,81,false,stim,false,1,867.5,0,0,2,25237,task1,1268740,false,true,1378,image-keyboard-response,28
true,11,2,2,2,true,d,false,true,0.0-2.0-0.48-0.433-3.433,0,0,0,68,false,stim,false,1,545.1000000000931,0,0,1,25237,task1,1270793,false,false,1381,image-keyboard-response,29
true,11,2,2,1,false,z,true,false,0.0-2.0-0.48-0.434-3.434,0,0,0,68,false,stim,false,0,659.3999999999069,0,0,0,25237,task1,1272962,false,false,1384,image-keyboard-response,30
true,11,2,2,2,true,d,false,true,0.0-2.0-0.48-0.435-3.435,0,0,0,68,false,stim,false,1,758.6999999997206,0,0,1,25237,task1,1275230,false,false,1387,image-keyboard-response,31
true,11,2,2,1,false,z,true,false,0.0-2.0-0.48-0.436-3.436,0,0,0,68,false,stim,false,0,1012.2999999998137,0,0,0,25237,task1,1277751,false,false,1390,image-keyboard-response,32
true,11,2,2,2,true,d,false,true,0.0-2.0-0.48-0.437-3.437,0,0,0,68,false,stim,false,1,1232.3000000002794,0,0,1,25237,task1,1280492,false,false,1393,image-keyboard-response,33
true,11,2,2,0,false,q,true,false,0.0-2.0-0.48-0.438-3.438,0,0,0,68,false,stim,false,1,1412.0,0,0,2,25237,task1,1283414,false,false,1396,image-keyboard-response,34
true,11,0,2,0,true,q,false,true,0.0-2.0-0.48-0.439-3.439,0,0,0,81,false,stim,false,1,433.5,0,0,2,25237,task1,1285357,false,false,1399,image-keyboard-response,35
true,11,0,2,1,false,z,false,false,0.0-2.0-0.48-0.440-3.440,0,0,0,81,false,stim,true,0,985.8000000002794,0,0,0,25237,task1,1287874,false,false,1402,image-keyboard-response,36
true,11,0,2,0,true,q,false,false,0.0-2.0-0.49-0.441-3.441,0,0,0,81,false,stim,false,1,910.3000000002794,0,0,2,25237,task1,1290294,false,true,1405,image-keyboard-response,37
true,11,2,2,2,true,d,false,true,0.0-2.0-0.49-0.442-3.442,0,0,0,68,false,stim,false,1,692.5,0,0,1,25237,task1,1292496,false,false,1408,image-keyboard-response,38
true,11,0,2,0,true,q,false,true,0.0-2.0-0.49-0.443-3.443,0,0,0,81,false,stim,false,1,1027.6000000000931,0,0,2,25237,task1,1295032,false,false,1411,image-keyboard-response,39
true,11,1,2,1,true,z,false,true,0.0-2.0-0.49-0.444-3.444,0,0,0,90,false,stim,false,0,1139.5999999996275,0,0,0,25237,task1,1297681,false,false,1414,image-keyboard-response,40
true,11,2,2,2,true,d,false,true,0.0-2.0-0.49-0.445-3.445,0,0,0,68,false,stim,false,1,1854.8999999999069,0,0,1,25237,task1,1301045,false,false,1417,image-keyboard-response,41
true,11,2,2,2,true,d,false,true,0.0-2.0-0.49-0.446-3.446,0,0,0,68,false,stim,false,1,541.5999999996275,0,0,1,25237,task1,1303098,false,false,1420,image-keyboard-response,42
true,11,1,2,1,true,z,false,true,0.0-2.0-0.49-0.447-3.447,0,0,0,90,false,stim,false,0,687.6000000000931,0,0,0,25237,task1,1305294,false,false,1423,image-keyboard-response,43
true,12,1,1,2,false,d,false,false,0.0-2.0-0.49-0.448-3.448,0,0,0,90,true,stim,true,1,431.20000000018626,0,0,0,25237,task1,1307234,false,false,1426,image-keyboard-response,1
true,12,0,1,1,false,z,false,false,0.0-2.0-0.49-0.449-3.449,0,0,0,81,false,stim,true,0,990.1000000000931,0,0,2,25237,task1,1309734,false,false,1429,image-keyboard-response,2
true,12,0,1,1,false,z,false,false,0.0-2.0-0.50-0.450-3.450,0,0,0,81,false,stim,true,0,530.8999999999069,0,0,2,25237,task1,1311774,false,false,1432,image-keyboard-response,3
true,12,2,1,1,false,z,false,false,0.0-2.0-0.50-0.451-3.451,0,0,0,68,false,stim,true,2,570.8999999999069,0,0,1,25237,task1,1313853,false,false,1435,image-keyboard-response,4
true,12,1,1,2,false,d,false,false,0.0-2.0-0.50-0.452-3.452,0,0,0,90,false,stim,true,1,928.3000000002794,0,0,0,25237,task1,1316290,false,false,1438,image-keyboard-response,5
true,12,1,1,2,false,d,false,false,0.0-2.0-0.50-0.453-3.453,0,0,0,90,false,stim,true,1,403.59999999962747,0,0,0,25237,task1,1318204,false,false,1441,image-keyboard-response,6
true,12,1,1,1,true,z,false,true,0.0-2.0-0.50-0.454-3.454,0,0,0,90,false,stim,false,2,1027.1000000000931,0,0,1,25237,task1,1320741,false,false,1444,image-keyboard-response,7
true,12,1,1,1,true,z,false,true,0.0-2.0-0.50-0.455-3.455,0,0,0,90,false,stim,false,0,502.39999999990687,0,0,2,25237,task1,1322752,false,false,1447,image-keyboard-response,8
true,12,1,1,1,true,z,false,false,0.0-2.0-0.50-0.456-3.456,0,0,0,90,false,stim,false,2,661.7999999998137,0,0,1,25237,task1,1324923,false,true,1450,image-keyboard-response,9
true,12,1,1,1,true,z,false,true,0.0-2.0-0.50-0.457-3.457,0,0,0,90,false,stim,false,0,769.7999999998137,0,0,2,25237,task1,1327201,false,false,1453,image-keyboard-response,10
true,12,1,1,2,false,d,false,false,0.0-2.0-0.50-0.458-3.458,0,0,0,90,false,stim,true,1,414.0,0,0,0,25237,task1,1329123,false,false,1456,image-keyboard-response,11
true,12,1,1,1,true,z,false,true,0.0-2.0-0.51-0.459-3.459,0,0,0,90,false,stim,false,2,630.4000000003725,0,0,1,25237,task1,1331262,false,false,1459,image-keyboard-response,12
true,12,1,1,1,true,z,false,true,0.0-2.0-0.51-0.460-3.460,0,0,0,90,false,stim,false,0,530.6000000000931,0,0,2,25237,task1,1333303,false,false,1462,image-keyboard-response,13
true,12,1,1,1,true,z,false,true,0.0-2.0-0.51-0.461-3.461,0,0,0,90,false,stim,false,2,620.1999999997206,0,0,1,25237,task1,1335432,false,false,1465,image-keyboard-response,14
true,12,0,1,2,false,d,true,false,0.0-2.0-0.51-0.462-3.462,0,0,0,81,false,stim,false,1,406.5,0,0,0,25237,task1,1337348,false,false,1468,image-keyboard-response,15
true,12,1,1,1,true,z,false,true,0.0-2.0-0.51-0.463-3.463,0,0,0,90,false,stim,false,0,711.3999999999069,0,0,2,25237,task1,1339568,false,false,1471,image-keyboard-response,16
true,12,2,1,2,true,d,false,true,0.0-2.0-0.51-0.464-3.464,0,0,0,68,false,stim,false,1,1209.5,0,0,0,25237,task1,1342286,false,false,1474,image-keyboard-response,17
true,12,1,1,1,true,z,false,true,0.0-2.0-0.51-0.465-3.465,0,0,0,90,false,stim,false,2,611.6000000000931,0,0,1,25237,task1,1344409,false,false,1477,image-keyboard-response,18
true,12,1,1,1,true,z,false,true,0.0-2.0-0.51-0.466-3.466,0,0,0,90,false,stim,false,0,601.6000000000931,0,0,2,25237,task1,1346519,false,false,1480,image-keyboard-response,19
true,12,2,1,2,true,d,false,false,0.0-2.0-0.51-0.467-3.467,0,0,0,68,false,stim,false,1,427.39999999990687,0,0,0,25237,task1,1348455,false,true,1483,image-keyboard-response,20
true,12,1,1,1,true,z,false,true,0.0-2.0-0.52-0.468-3.468,0,0,0,90,false,stim,false,0,506.39999999990687,0,0,2,25237,task1,1350470,false,false,1486,image-keyboard-response,21
true,12,1,1,1,true,z,false,true,0.0-2.0-0.52-0.469-3.469,0,0,0,90,false,stim,false,0,449.29999999981374,0,0,2,25237,task1,1352431,false,false,1489,image-keyboard-response,22
true,12,2,1,2,true,d,false,true,0.0-2.0-0.52-0.470-3.470,0,0,0,68,false,stim,false,1,501.39999999990687,0,0,0,25237,task1,1354441,false,false,1492,image-keyboard-response,23
true,12,1,1,1,true,z,false,true,0.0-2.0-0.52-0.471-3.471,0,0,0,90,false,stim,false,2,412.5,0,0,1,25237,task1,1356364,false,false,1495,image-keyboard-response,24
true,12,2,1,2,true,d,false,true,0.0-2.0-0.52-0.472-3.472,0,0,0,68,false,stim,false,1,668.6000000000931,0,0,0,25237,task1,1358541,false,false,1498,image-keyboard-response,25
true,12,1,1,1,true,z,false,true,0.0-2.0-0.52-0.473-3.473,0,0,0,90,false,stim,false,2,591.4000000003725,0,0,1,25237,task1,1360659,false,false,1501,image-keyboard-response,26
true,12,1,1,1,true,z,false,true,0.0-2.0-0.52-0.474-3.474,0,0,0,90,false,stim,false,0,646.1000000000931,0,0,2,25237,task1,1362815,false,false,1504,image-keyboard-response,27
true,12,1,1,1,true,z,false,true,0.0-2.0-0.52-0.475-3.475,0,0,0,90,false,stim,false,2,827.5,0,0,1,25237,task1,1365153,false,false,1507,image-keyboard-response,28
true,12,2,1,2,true,d,false,true,0.0-2.0-0.52-0.476-3.476,0,0,0,68,false,stim,false,1,679.1999999997206,0,0,0,25237,task1,1367341,false,false,1510,image-keyboard-response,29
true,12,1,1,1,true,z,false,true,0.0-2.0-0.53-0.477-3.477,0,0,0,90,false,stim,false,0,783.8999999999069,0,0,2,25237,task1,1369635,false,false,1513,image-keyboard-response,30
true,12,1,1,1,true,z,false,true,0.0-2.0-0.53-0.478-3.478,0,0,0,90,false,stim,false,2,639.3000000002794,0,0,1,25237,task1,1371783,false,false,1516,image-keyboard-response,31
true,12,1,1,1,true,z,false,true,0.0-2.0-0.53-0.479-3.479,0,0,0,90,false,stim,false,0,522.0,0,0,2,25237,task1,1373814,false,false,1519,image-keyboard-response,32
true,12,2,1,2,true,d,false,true,0.0-2.0-0.53-0.480-3.480,0,0,0,68,false,stim,false,1,483.39999999990687,0,0,0,25237,task1,1375806,false,false,1522,image-keyboard-response,33
true,12,2,1,2,true,d,false,true,0.0-2.0-0.53-0.481-3.481,0,0,0,68,false,stim,false,1,441.0,0,0,0,25237,task1,1377756,false,false,1525,image-keyboard-response,34
true,12,1,1,1,true,z,false,true,0.0-2.0-0.53-0.482-3.482,0,0,0,90,false,stim,false,0,608.5,0,0,2,25237,task1,1379874,false,false,1528,image-keyboard-response,35
true,12,1,1,2,false,d,false,false,0.0-2.0-0.53-0.483-3.483,0,0,0,90,false,stim,true,1,449.60000000009313,0,0,0,25237,task1,1381834,false,false,1531,image-keyboard-response,36
true,12,1,1,1,true,z,false,true,0.0-2.0-0.53-0.484-3.484,0,0,0,90,false,stim,false,2,539.7999999998137,0,0,1,25237,task1,1383884,false,false,1534,image-keyboard-response,37
true,12,1,1,1,true,z,false,false,0.0-2.0-0.53-0.485-3.485,0,0,0,90,false,stim,false,2,446.79999999981374,0,0,1,25237,task1,1385839,false,true,1537,image-keyboard-response,38
true,12,1,1,1,true,z,false,true,0.0-2.0-0.54-0.486-3.486,0,0,0,90,false,stim,false,2,432.3000000002794,0,0,1,25237,task1,1387781,false,false,1540,image-keyboard-response,39
true,13,2,2,1,false,z,false,false,0.0-2.0-0.54-0.487-3.487,0,0,0,68,true,stim,true,2,563.2000000001863,0,0,0,25237,task1,1389853,false,false,1543,image-keyboard-response,1
true,13,1,2,0,false,q,false,false,0.0-2.0-0.54-0.488-3.488,0,0,0,90,false,stim,true,1,545.0,0,0,2,25237,task1,1391908,false,false,1546,image-keyboard-response,2
true,13,1,2,0,false,q,false,false,0.0-2.0-0.54-0.489-3.489,0,0,0,90,false,stim,true,1,420.79999999981374,0,0,2,25237,task1,1393837,false,false,1549,image-keyboard-response,3
true,13,0,2,0,true,q,false,true,0.0-2.0-0.54-0.490-3.490,0,0,0,81,false,stim,false,1,1208.3000000002794,0,0,2,25237,task1,1396554,false,false,1552,image-keyboard-response,4
true,13,2,2,1,false,z,false,false,0.0-2.0-0.54-0.491-3.491,0,0,0,68,false,stim,true,2,750.0,0,0,0,25237,task1,1398815,false,false,1555,image-keyboard-response,5
true,13,1,2,2,false,d,false,false,0.0-2.0-0.54-0.492-3.492,0,0,0,90,false,stim,true,1,1600.7000000001863,0,0,1,25237,task1,1401926,false,false,1558,image-keyboard-response,6
true,13,0,2,2,false,d,true,false,0.0-2.0-0.54-0.493-3.493,0,0,0,81,false,stim,false,1,478.20000000018626,0,0,1,25237,task1,1403913,false,false,1561,image-keyboard-response,7
true,13,1,2,1,true,z,false,true,0.0-2.0-0.54-0.494-3.494,0,0,0,90,false,stim,false,2,856.6000000000931,0,0,0,25237,task1,1406279,false,false,1564,image-keyboard-response,8
true,13,0,2,2,false,d,true,false,0.0-2.0-0.55-0.495-3.495,0,0,0,81,false,stim,false,1,1588.1000000000931,0,0,1,25237,task1,1409378,false,false,1567,image-keyboard-response,9
true,13,1,2,2,false,d,false,false,0.0-2.0-0.55-0.496-3.496,0,0,0,90,false,stim,true,1,1258.7000000001863,0,0,1,25237,task1,1412145,false,false,1570,image-keyboard-response,10
true,13,1,2,1,true,z,false,true,0.0-2.0-0.55-0.497-3.497,0,0,0,90,false,stim,false,2,1043.3999999999069,0,0,0,25237,task1,1414698,false,false,1573,image-keyboard-response,11
true,13,0,2,0,true,q,false,true,0.0-2.0-0.55-0.498-3.498,0,0,0,81,false,stim,false,1,598.7000000001863,0,0,2,25237,task1,1416808,false,false,1576,image-keyboard-response,12
true,13,2,2,2,true,d,false,true,0.0-2.0-0.55-0.499-3.499,0,0,0,68,false,stim,false,1,745.0,0,0,1,25237,task1,1419062,false,false,1579,image-keyboard-response,13
true,13,1,2,1,true,z,false,true,0.0-2.0-0.55-0.500-3.500,0,0,0,90,false,stim,false,2,583.7999999998137,0,0,0,25237,task1,1421156,false,false,1582,image-keyboard-response,14
true,13,1,2,1,true,z,false,true,0.0-2.0-0.55-0.501-3.501,0,0,0,90,false,stim,false,2,689.1999999997206,0,0,0,25237,task1,1423354,false,false,1585,image-keyboard-response,15
true,13,0,2,0,true,q,false,true,0.0-2.0-0.55-0.502-3.502,0,0,0,81,false,stim,false,1,1164.5,0,0,2,25237,task1,1426028,false,false,1588,image-keyboard-response,16
true,13,0,2,0,true,q,false,false,0.0-2.0-0.55-0.503-3.503,0,0,0,81,false,stim,false,1,640.9000000003725,0,0,2,25237,task1,1428178,false,true,1591,image-keyboard-response,17
true,13,1,2,1,true,z,false,true,0.0-2.0-0.56-0.504-3.504,0,0,0,90,false,stim,false,2,688.5,0,0,0,25237,task1,1430377,false,false,1594,image-keyboard-response,18
true,13,0,2,0,true,q,false,true,0.0-2.0-0.56-0.505-3.505,0,0,0,81,false,stim,false,1,436.89999999990687,0,0,2,25237,task1,1432324,false,false,1597,image-keyboard-response,19
true,13,2,2,2,true,d,false,true,0.0-2.0-0.56-0.506-3.506,0,0,0,68,false,stim,false,1,429.1999999997206,0,0,1,25237,task1,1434262,false,false,1600,image-keyboard-response,20
true,13,1,2,1,true,z,false,true,0.0-2.0-0.56-0.507-3.507,0,0,0,90,false,stim,false,2,643.6999999997206,0,0,0,25237,task1,1436437,false,false,1603,image-keyboard-response,21
true,13,0,2,0,true,q,false,true,0.0-2.0-0.56-0.508-3.508,0,0,0,81,false,stim,false,1,481.59999999962747,0,0,2,25237,task1,1438428,false,false,1606,image-keyboard-response,22
true,13,2,2,2,true,d,false,true,0.0-2.0-0.56-0.509-3.509,0,0,0,68,false,stim,false,1,361.5,0,0,1,25237,task1,1440298,false,false,1609,image-keyboard-response,23
true,13,2,2,2,true,d,false,true,0.0-2.0-0.56-0.510-3.510,0,0,0,68,false,stim,false,1,641.7000000001863,0,0,1,25237,task1,1442449,false,false,1612,image-keyboard-response,24
true,13,1,2,1,true,z,false,true,0.0-2.0-0.56-0.511-3.511,0,0,0,90,false,stim,false,2,531.8999999999069,0,0,0,25237,task1,1444492,false,false,1615,image-keyboard-response,25
true,13,0,2,0,true,q,false,true,0.0-2.0-0.56-0.512-3.512,0,0,0,81,false,stim,false,1,740.1999999997206,0,0,2,25237,task1,1446741,false,false,1618,image-keyboard-response,26
true,13,0,2,0,true,q,false,true,0.0-2.0-0.57-0.513-3.513,0,0,0,81,false,stim,false,1,418.09999999962747,0,0,2,25237,task1,1448669,false,false,1621,image-keyboard-response,27
true,13,1,2,1,true,z,false,true,0.0-2.0-0.57-0.514-3.514,0,0,0,90,false,stim,false,2,734.6999999997206,0,0,0,25237,task1,1450915,false,false,1624,image-keyboard-response,28
true,13,1,2,1,true,z,false,true,0.0-2.0-0.57-0.515-3.515,0,0,0,90,false,stim,false,2,411.3000000002794,0,0,0,25237,task1,1452835,false,false,1627,image-keyboard-response,29
true,13,2,2,2,true,d,false,true,0.0-2.0-0.57-0.516-3.516,0,0,0,68,false,stim,false,1,789.2000000001863,0,0,1,25237,task1,1455136,false,false,1630,image-keyboard-response,30
true,13,0,2,0,true,q,false,true,0.0-2.0-0.57-0.517-3.517,0,0,0,81,false,stim,false,1,679.2999999998137,0,0,2,25237,task1,1457328,false,false,1633,image-keyboard-response,31
true,13,2,2,2,true,d,false,true,0.0-2.0-0.57-0.518-3.518,0,0,0,68,false,stim,false,1,587.8000000002794,0,0,1,25237,task1,1459424,false,false,1636,image-keyboard-response,32
true,13,2,2,2,true,d,false,true,0.0-2.0-0.57-0.519-3.519,0,0,0,68,false,stim,false,1,475.70000000018626,0,0,1,25237,task1,1461413,false,false,1639,image-keyboard-response,33
true,13,0,2,0,true,q,false,true,0.0-2.0-0.57-0.520-3.520,0,0,0,81,false,stim,false,1,968.0,0,0,2,25237,task1,1463889,false,false,1642,image-keyboard-response,34
true,13,1,2,1,true,z,false,false,0.0-2.0-0.57-0.521-3.521,0,0,0,90,false,stim,false,2,1385.5,0,0,0,25237,task1,1466785,false,true,1645,image-keyboard-response,35
true,13,1,2,1,true,z,false,true,0.0-2.0-0.58-0.522-3.522,0,0,0,90,false,stim,false,2,408.5,0,0,0,25237,task1,1468706,false,false,1648,image-keyboard-response,36
true,13,1,2,1,true,z,false,true,0.0-2.0-0.58-0.523-3.523,0,0,0,90,false,stim,false,2,489.3000000002794,0,0,0,25237,task1,1470705,false,false,1651,image-keyboard-response,37
true,13,0,2,0,true,q,false,true,0.0-2.0-0.58-0.524-3.524,0,0,0,81,false,stim,false,1,1037.2999999998137,0,0,2,25237,task1,1473253,false,false,1654,image-keyboard-response,38
true,13,2,2,2,true,d,false,true,0.0-2.0-0.58-0.525-3.525,0,0,0,68,false,stim,false,1,399.6999999997206,0,0,1,25237,task1,1475161,false,false,1657,image-keyboard-response,39
true,13,2,2,2,true,d,false,true,0.0-2.0-0.58-0.526-3.526,0,0,0,68,false,stim,false,1,462.89999999990687,0,0,1,25237,task1,1477137,false,false,1660,image-keyboard-response,40
true,13,0,2,0,true,q,false,true,0.0-2.0-0.58-0.527-3.527,0,0,0,81,false,stim,false,1,646.2999999998137,0,1,2,25237,task1,1479293,false,false,1663,image-keyboard-response,41
true,13,0,2,0,true,q,false,false,0.0-2.0-0.58-0.528-3.528,0,0,0,81,false,stim,false,1,469.8000000002794,0,1,2,25237,task1,1481274,false,true,1666,image-keyboard-response,42
true,13,1,2,1,true,z,false,true,0.0-2.0-0.58-0.529-3.529,0,0,0,90,false,stim,false,2,637.7999999998137,0,1,0,25237,task1,1483422,false,false,1669,image-keyboard-response,43
true,13,2,2,2,true,d,false,true,0.0-2.0-0.58-0.530-3.530,0,0,0,68,false,stim,false,1,670.6000000000931,0,1,1,25237,task1,1485602,false,false,1672,image-keyboard-response,44
true,13,1,2,1,true,z,false,true,0.0-2.0-0.59-0.531-3.531,0,0,0,90,false,stim,false,2,591.0,0,1,0,25237,task1,1487703,false,false,1675,image-keyboard-response,45
true,14,2,0,2,true,d,false,false,0.0-2.0-0.59-0.532-3.532,1,1,1,68,true,stim,false,2,2483.0,0,1,1,25237,task1,1606136,false,true,1793,image-keyboard-response,1
true,14,0,0,2,false,d,true,false,0.0-2.0-0.59-0.533-3.533,1,1,1,81,false,stim,false,2,1450.2000000001863,0,1,1,25237,task1,1609100,false,false,1796,image-keyboard-response,2
true,14,1,0,0,false,q,true,false,0.0-2.0-0.59-0.534-3.534,1,1,1,90,false,stim,false,0,1854.6999999997206,0,1,2,25237,task1,1612467,false,false,1799,image-keyboard-response,3
true,14,2,0,0,false,q,true,false,0.0-2.0-0.59-0.535-3.535,1,1,1,68,false,stim,false,0,1162.6000000000931,0,1,2,25237,task1,1615163,false,false,1802,image-keyboard-response,4
true,14,0,0,1,false,z,true,false,0.0-2.0-0.59-0.536-3.536,1,1,1,81,false,stim,false,1,1196.7999999998137,0,1,0,25237,task1,1617871,false,false,1805,image-keyboard-response,5
true,14,0,0,0,true,q,false,true,0.0-2.0-0.59-0.537-3.537,1,1,1,81,false,stim,false,0,1942.2999999998137,0,1,2,25237,task1,1621324,false,false,1808,image-keyboard-response,6
true,14,0,0,2,false,d,true,false,0.0-2.0-0.59-0.538-3.538,1,1,1,81,false,stim,false,2,490.89999999990687,0,1,1,25237,task1,1623328,false,false,1811,image-keyboard-response,7
true,14,1,0,1,true,z,false,true,0.0-2.0-0.59-0.539-3.539,1,1,1,90,false,stim,false,1,1146.3000000002794,0,1,0,25237,task1,1625987,false,false,1814,image-keyboard-response,8
true,14,0,0,0,true,q,false,true,0.0-2.0-0.60-0.540-3.540,1,1,1,81,false,stim,false,0,1509.0,0,0,2,25237,task1,1629007,false,false,1817,image-keyboard-response,9
true,14,2,0,2,true,d,false,true,0.0-2.0-0.60-0.541-3.541,1,1,1,68,false,stim,false,2,432.79999999981374,0,0,1,25237,task1,1630951,false,false,1820,image-keyboard-response,10
true,14,1,0,1,true,z,false,true,0.0-2.0-0.60-0.542-3.542,1,1,1,90,false,stim,false,1,733.7999999998137,0,0,0,25237,task1,1633195,false,false,1823,image-keyboard-response,11
true,14,0,0,0,true,q,false,true,0.0-2.0-0.60-0.543-3.543,1,1,1,81,false,stim,false,0,1100.1999999997206,0,0,2,25237,task1,1635807,false,false,1826,image-keyboard-response,12
true,14,2,0,2,true,d,false,true,0.0-2.0-0.60-0.544-3.544,1,1,1,68,false,stim,false,2,651.5,0,0,1,25237,task1,1637969,false,false,1829,image-keyboard-response,13
true,15,0,2,1,false,z,false,false,0.0-2.0-0.60-0.545-3.545,0,0,0,81,true,stim,true,0,1089.8000000002794,0,0,2,25237,task1,1640571,false,false,1832,image-keyboard-response,1
true,15,2,2,1,false,z,false,false,0.0-2.0-0.60-0.546-3.546,0,0,0,68,false,stim,true,2,778.7000000001863,0,0,1,25237,task1,1642862,false,false,1835,image-keyboard-response,2
true,15,1,2,0,false,q,false,false,0.0-2.0-0.60-0.547-3.547,0,0,0,90,false,stim,true,1,637.0,0,0,0,25237,task1,1645009,false,false,1838,image-keyboard-response,3
true,15,1,2,0,false,q,false,false,0.0-2.0-0.60-0.548-3.548,0,0,0,90,false,stim,true,1,688.1999999997206,0,0,0,25237,task1,1647208,false,false,1841,image-keyboard-response,4
true,15,2,2,1,false,z,false,false,0.0-2.0-0.61-0.549-3.549,0,0,0,68,false,stim,true,2,1403.4000000003725,0,0,1,25237,task1,1650121,false,false,1844,image-keyboard-response,5
true,15,1,2,1,true,z,false,true,0.0-2.0-0.61-0.550-3.550,0,0,0,90,false,stim,false,0,1354.2000000001863,0,0,2,25237,task1,1652985,false,false,1847,image-keyboard-response,6
true,15,1,2,1,true,z,false,true,0.0-2.0-0.61-0.551-3.551,0,0,0,90,false,stim,false,2,419.5,0,0,1,25237,task1,1654916,false,false,1850,image-keyboard-response,7
true,15,0,2,0,true,q,false,true,0.0-2.0-0.61-0.552-3.552,0,0,0,81,false,stim,false,1,417.40000000037253,0,0,0,25237,task1,1656844,false,false,1853,image-keyboard-response,8
true,15,1,2,1,true,z,false,true,0.0-2.0-0.61-0.553-3.553,0,0,0,90,false,stim,false,2,633.5,0,0,1,25237,task1,1658987,false,false,1856,image-keyboard-response,9
true,15,1,2,1,true,z,false,true,0.0-2.0-0.61-0.554-3.554,0,0,0,90,false,stim,false,0,505.79999999981374,0,0,2,25237,task1,1661002,false,false,1859,image-keyboard-response,10
true,15,0,2,0,true,q,false,true,0.0-2.0-0.61-0.555-3.555,0,0,0,81,false,stim,false,1,1026.8999999999069,0,0,0,25237,task1,1663540,false,false,1862,image-keyboard-response,11
true,15,0,2,0,true,q,false,false,0.0-2.0-0.61-0.556-3.556,0,0,0,81,false,stim,false,1,439.59999999962747,0,0,0,25237,task1,1665489,false,true,1865,image-keyboard-response,12
true,15,1,2,1,true,z,false,true,0.0-2.0-0.61-0.557-3.557,0,0,0,90,false,stim,false,0,733.4000000003725,0,0,2,25237,task1,1667731,false,false,1868,image-keyboard-response,13
true,15,0,2,0,true,q,false,true,0.0-2.0-0.62-0.558-3.558,0,0,0,81,false,stim,false,1,831.8000000002794,0,0,0,25237,task1,1670075,false,false,1871,image-keyboard-response,14
true,15,1,2,1,true,z,false,true,0.0-2.0-0.62-0.559-3.559,0,0,0,90,false,stim,false,2,1376.5999999996275,0,0,1,25237,task1,1672961,false,false,1874,image-keyboard-response,15
true,15,1,2,1,true,z,false,true,0.0-2.0-0.62-0.560-3.560,0,0,0,90,false,stim,false,0,847.6000000000931,0,0,2,25237,task1,1675320,false,false,1877,image-keyboard-response,16
true,15,0,2,0,true,q,false,true,0.0-2.0-0.62-0.561-3.561,0,0,0,81,false,stim,false,1,2292.899999999907,0,0,0,25237,task1,1679123,false,false,1880,image-keyboard-response,17
true,15,1,2,1,true,z,false,false,0.0-2.0-0.62-0.562-3.562,0,0,0,90,false,stim,false,2,558.5,0,0,1,25237,task1,1681192,false,true,1883,image-keyboard-response,18
true,15,0,2,0,true,q,false,true,0.0-2.0-0.62-0.563-3.563,0,0,0,81,false,stim,false,1,644.5999999996275,0,0,0,25237,task1,1683351,false,false,1886,image-keyboard-response,19
true,15,1,2,1,true,z,false,true,0.0-2.0-0.62-0.564-3.564,0,0,0,90,false,stim,false,0,535.2999999998137,0,0,2,25237,task1,1685396,false,false,1889,image-keyboard-response,20
true,15,1,2,1,true,z,false,true,0.0-2.0-0.62-0.565-3.565,0,0,0,90,false,stim,false,0,522.0999999996275,0,0,2,25237,task1,1687429,false,false,1892,image-keyboard-response,21
true,15,1,2,1,true,z,false,true,0.0-2.0-0.62-0.566-3.566,0,0,0,90,false,stim,false,2,488.89999999990687,0,0,1,25237,task1,1689427,false,false,1895,image-keyboard-response,22
true,15,0,2,0,true,q,false,true,0.0-2.0-0.63-0.567-3.567,0,0,0,81,false,stim,false,1,664.6999999997206,0,0,0,25237,task1,1691603,false,false,1898,image-keyboard-response,23
true,15,1,2,1,true,z,false,true,0.0-2.0-0.63-0.568-3.568,0,0,0,90,false,stim,false,2,734.8999999999069,0,0,1,25237,task1,1693870,false,false,1901,image-keyboard-response,24
true,15,1,2,1,true,z,false,true,0.0-2.0-0.63-0.569-3.569,0,0,0,90,false,stim,false,2,475.0,0,0,1,25237,task1,1695856,false,false,1904,image-keyboard-response,25
true,15,1,2,1,true,z,false,true,0.0-2.0-0.63-0.570-3.570,0,0,0,90,false,stim,false,0,624.1000000000931,0,0,2,25237,task1,1697991,false,false,1907,image-keyboard-response,26
true,15,1,2,1,true,z,false,true,0.0-2.0-0.63-0.571-3.571,0,0,0,90,false,stim,false,2,481.6999999997206,0,0,1,25237,task1,1699984,false,false,1910,image-keyboard-response,27
true,15,0,2,0,true,q,false,true,0.0-2.0-0.63-0.572-3.572,0,0,0,81,false,stim,false,1,724.6000000000931,0,0,0,25237,task1,1702219,false,false,1913,image-keyboard-response,28
true,15,1,2,1,true,z,false,true,0.0-2.0-0.63-0.573-3.573,0,0,0,90,false,stim,false,0,603.7999999998137,0,0,2,25237,task1,1704332,false,false,1916,image-keyboard-response,29
true,15,0,2,0,true,q,false,true,0.0-2.0-0.63-0.574-3.574,0,0,0,81,false,stim,false,1,903.3999999999069,0,0,0,25237,task1,1706742,false,false,1919,image-keyboard-response,30
true,15,1,2,1,true,z,false,true,0.0-2.0-0.63-0.575-3.575,0,0,0,90,false,stim,false,0,1263.6999999997206,0,0,2,25237,task1,1709514,false,false,1922,image-keyboard-response,31
true,15,1,2,1,true,z,false,true,0.0-2.0-0.64-0.576-3.576,0,0,0,90,false,stim,false,0,578.3000000002794,0,0,2,25237,task1,1711604,false,false,1925,image-keyboard-response,32
true,15,1,2,1,true,z,false,true,0.0-2.0-0.64-0.577-3.577,0,0,0,90,false,stim,false,0,506.60000000009313,0,0,2,25237,task1,1713621,false,false,1928,image-keyboard-response,33
true,15,0,2,0,true,q,false,false,0.0-2.0-0.64-0.578-3.578,0,0,0,81,false,stim,false,1,734.2000000001863,0,0,0,25237,task1,1715867,false,true,1931,image-keyboard-response,34
true,15,0,2,0,true,q,false,true,0.0-2.0-0.64-0.579-3.579,0,0,0,81,false,stim,false,1,492.6999999997206,0,0,0,25237,task1,1717872,false,false,1934,image-keyboard-response,35
true,15,1,2,1,true,z,false,true,0.0-2.0-0.64-0.580-3.580,0,0,0,90,false,stim,false,2,587.5,0,0,1,25237,task1,1719970,false,false,1937,image-keyboard-response,36
true,15,0,2,0,true,q,false,true,0.0-2.0-0.64-0.581-3.581,0,0,0,81,false,stim,false,1,780.6000000000931,0,0,0,25237,task1,1722261,false,false,1940,image-keyboard-response,37
true,15,1,2,1,true,z,false,true,0.0-2.0-0.64-0.582-3.582,0,0,0,90,false,stim,false,0,890.8999999999069,0,0,2,25237,task1,1724664,false,false,1943,image-keyboard-response,38
true,15,1,2,1,true,z,false,true,0.0-2.0-0.64-0.583-3.583,0,0,0,90,false,stim,false,2,781.8999999999069,0,0,1,25237,task1,1726956,false,false,1946,image-keyboard-response,39
true,15,1,2,1,true,z,false,true,0.0-2.0-0.64-0.584-3.584,0,0,0,90,false,stim,false,2,702.5,0,0,1,25237,task1,1729169,false,false,1949,image-keyboard-response,40
true,15,0,2,0,true,q,false,true,0.0-2.0-0.65-0.585-3.585,0,0,0,81,false,stim,false,1,709.0999999996275,0,0,0,25237,task1,1731389,false,false,1952,image-keyboard-response,41
true,15,1,2,1,true,z,false,true,0.0-2.0-0.65-0.586-3.586,0,0,0,90,false,stim,false,0,844.4000000003725,0,0,2,25237,task1,1733744,false,false,1955,image-keyboard-response,42
true,15,1,2,1,true,z,false,true,0.0-2.0-0.65-0.587-3.587,0,0,0,90,false,stim,false,0,451.0,0,0,2,25237,task1,1735706,false,false,1958,image-keyboard-response,43
true,15,1,2,1,true,z,false,true,0.0-2.0-0.65-0.588-3.588,0,0,0,90,false,stim,false,2,668.3999999999069,0,0,1,25237,task1,1737885,false,false,1961,image-keyboard-response,44
true,15,1,2,1,true,z,false,false,0.0-2.0-0.65-0.589-3.589,0,0,0,90,false,stim,false,0,795.2000000001863,0,0,2,25237,task1,1740190,false,true,1964,image-keyboard-response,45
true,16,1,2,2,false,d,false,false,0.0-2.0-0.65-0.590-3.590,0,0,0,90,true,stim,true,1,641.5,0,0,1,25237,task1,1742341,false,false,1967,image-keyboard-response,1
