answered,blockNum,choice,condition,corResp,correct,correct_response,explo,fb,internal_node_id,isStable_1,isStable_2,isStable_3,key_press,newBlock,part,persev,persevResp,rt,sessNum,stableAS,stimulus,subject,task,time_elapsed,training,trap,trial_index,trial_type,trialsInBlock
true,1,0,0,2,false,d,true,true,0.0-2.0-0.0-0.0-3.0,0,0,0,81,true,stim,false,-1,922.1000000238419,0,0,1,29097,task2,425193,false,true,285,image-keyboard-response,1
true,1,1,0,0,false,q,true,false,0.0-2.0-0.0-0.1-3.1,0,0,0,90,false,stim,false,-1,935.8999999761581,0,0,0,29097,task2,427656,false,false,288,image-keyboard-response,2
true,1,1,0,1,true,z,false,true,0.0-2.0-0.0-0.2-3.2,0,0,0,90,false,stim,false,-1,856.7000000476837,0,0,2,29097,task2,430027,false,false,291,image-keyboard-response,3
true,1,1,0,1,true,z,false,true,0.0-2.0-0.0-0.3-3.3,0,0,0,90,false,stim,false,-1,737.1999999284744,0,0,2,29097,task2,432291,false,false,294,image-keyboard-response,4
true,1,1,0,1,true,z,false,true,0.0-2.0-0.0-0.4-3.4,0,0,0,90,false,stim,false,-1,569.8999999761581,0,0,2,29097,task2,434380,false,false,297,image-keyboard-response,5
true,1,0,0,2,false,d,true,false,0.0-2.0-0.0-0.5-3.5,0,0,0,81,false,stim,false,-1,819.7000000476837,0,0,1,29097,task2,436714,false,false,300,image-keyboard-response,6
true,1,0,0,0,true,q,false,true,0.0-2.0-0.0-0.6-3.6,0,0,0,81,false,stim,false,-1,1131.6999999284744,0,0,0,29097,task2,439380,false,false,303,image-keyboard-response,7
true,1,1,0,2,false,d,true,false,0.0-2.0-0.0-0.7-3.7,0,0,0,90,false,stim,false,-1,1694.5,0,0,1,29097,task2,442597,false,false,306,image-keyboard-response,8
true,1,0,0,0,true,q,false,true,0.0-2.0-0.0-0.8-3.8,0,0,0,81,false,stim,false,-1,2661.5,0,0,0,29097,task2,446781,false,false,309,image-keyboard-response,9
true,1,2,0,2,true,d,false,true,0.0-2.0-0.1-0.9-3.9,0,0,0,68,false,stim,false,-1,1323.6000000238419,0,0,1,29097,task2,449632,false,false,312,image-keyboard-response,10
true,1,0,0,0,true,q,false,true,0.0-2.0-0.1-0.10-3.10,0,0,0,81,false,stim,false,-1,2330.2000000476837,0,0,0,29097,task2,453480,false,false,315,image-keyboard-response,11
true,1,2,0,2,true,d,false,true,0.0-2.0-0.1-0.11-3.11,0,0,0,68,false,stim,false,-1,583.3000000715256,0,0,1,29097,task2,455581,false,false,318,image-keyboard-response,12
true,1,0,0,0,true,q,false,true,0.0-2.0-0.1-0.12-3.12,0,0,0,81,false,stim,false,-1,417.5,0,0,0,29097,task2,457526,false,false,321,image-keyboard-response,13
true,1,1,0,1,true,z,false,true,0.0-2.0-0.1-0.13-3.13,0,0,0,90,false,stim,false,-1,1011.7000000476837,0,0,2,29097,task2,460067,false,false,324,image-keyboard-response,14
true,1,1,0,1,true,z,false,true,0.0-2.0-0.1-0.14-3.14,0,0,0,90,false,stim,false,-1,621.7999999523163,0,0,2,29097,task2,462213,false,false,327,image-keyboard-response,15
true,1,1,0,1,true,z,false,true,0.0-2.0-0.1-0.15-3.15,0,0,0,90,false,stim,false,-1,399.5,0,0,2,29097,task2,464139,false,false,330,image-keyboard-response,16
true,1,0,0,0,true,q,false,true,0.0-2.0-0.1-0.16-3.16,0,0,0,81,false,stim,false,-1,592.5,0,0,0,29097,task2,466266,false,false,333,image-keyboard-response,17
true,1,2,0,2,true,d,false,true,0.0-2.0-0.1-0.17-3.17,0,0,0,68,false,stim,false,-1,560.2000000476837,0,0,1,29097,task2,468360,false,false,336,image-keyboard-response,18
true,1,1,0,1,true,z,false,true,0.0-2.0-0.2-0.18-3.18,0,0,0,90,false,stim,false,-1,972.1999999284744,0,0,2,29097,task2,470849,false,false,339,image-keyboard-response,19
true,1,0,0,0,true,q,false,true,0.0-2.0-0.2-0.19-3.19,0,0,0,81,false,stim,false,-1,1108.8999999761581,0,0,0,29097,task2,473479,false,false,342,image-keyboard-response,20
true,1,2,0,2,true,d,false,true,0.0-2.0-0.2-0.20-3.20,0,0,0,68,false,stim,false,-1,445.1999999284744,0,0,1,29097,task2,475448,false,false,345,image-keyboard-response,21
true,1,0,0,0,true,q,false,true,0.0-2.0-0.2-0.21-3.21,0,0,0,81,false,stim,false,-1,1416.6999999284744,0,0,0,29097,task2,478386,false,false,348,image-keyboard-response,22
true,1,2,0,2,true,d,false,true,0.0-2.0-0.2-0.22-3.22,0,0,0,68,false,stim,false,-1,813.8999999761581,0,0,1,29097,task2,480735,false,false,351,image-keyboard-response,23
true,1,1,0,1,true,z,false,true,0.0-2.0-0.2-0.23-3.23,0,0,0,90,false,stim,false,-1,1086.2999999523163,0,0,2,29097,task2,483334,false,false,354,image-keyboard-response,24
true,1,0,0,0,true,q,false,true,0.0-2.0-0.2-0.24-3.24,0,0,0,81,false,stim,false,-1,672.0,0,0,0,29097,task2,485532,false,false,357,image-keyboard-response,25
true,1,2,0,2,true,d,false,true,0.0-2.0-0.2-0.25-3.25,0,0,0,68,false,stim,false,-1,571.1000000238419,0,0,1,29097,task2,487617,false,false,360,image-keyboard-response,26
true,2,1,1,0,false,q,false,false,0.0-2.0-0.2-0.26-3.26,0,0,0,90,true,stim,true,1,1159.7999999523163,0,0,2,29097,task2,490301,false,false,363,image-keyboard-response,1
true,2,0,1,2,false,d,false,false,0.0-2.0-0.3-0.27-3.27,0,0,0,81,false,stim,true,0,903.5,0,0,0,29097,task2,492729,false,false,366,image-keyboard-response,2
true,2,2,1,0,false,q,false,false,0.0-2.0-0.3-0.28-3.28,0,0,0,68,false,stim,true,2,1242.0,0,0,1,29097,task2,495504,false,false,369,image-keyboard-response,3
true,2,1,1,2,false,d,true,false,0.0-2.0-0.3-0.29-3.29,0,0,0,90,false,stim,false,0,1810.2000000476837,0,0,0,29097,task2,498837,false,false,372,image-keyboard-response,4
true,2,0,1,0,true,q,false,true,0.0-2.0-0.3-0.30-3.30,0,0,0,81,false,stim,false,1,2385.399999976158,0,0,2,29097,task2,502749,false,false,375,image-keyboard-response,5
true,2,0,1,0,true,q,false,false,0.0-2.0-0.3-0.31-3.31,0,0,0,81,false,stim,false,2,1036.0,0,0,1,29097,task2,505299,false,true,378,image-keyboard-response,6
true,2,1,1,0,false,q,true,false,0.0-2.0-0.3-0.32-3.32,0,0,0,90,false,stim,false,2,762.6000000238419,0,0,1,29097,task2,507584,false,false,381,image-keyboard-response,7
true,2,0,1,0,true,q,false,true,0.0-2.0-0.3-0.33-3.33,0,0,0,81,false,stim,false,1,2386.100000023842,0,0,2,29097,task2,511486,false,false,384,image-keyboard-response,8
true,2,0,1,0,true,q,false,true,0.0-2.0-0.3-0.34-3.34,0,0,0,81,false,stim,false,1,832.2000000476837,0,0,2,29097,task2,513839,false,false,387,image-keyboard-response,9
true,2,1,1,2,false,d,true,false,0.0-2.0-0.3-0.35-3.35,0,0,0,90,false,stim,false,0,1455.6999999284744,0,0,0,29097,task2,516813,false,false,390,image-keyboard-response,10
true,2,0,1,0,true,q,false,true,0.0-2.0-0.4-0.36-3.36,0,0,0,81,false,stim,false,1,1215.5,0,0,2,29097,task2,519555,false,false,393,image-keyboard-response,11
true,2,2,1,0,false,q,false,false,0.0-2.0-0.4-0.37-3.37,0,0,0,68,false,stim,true,2,631.1000000238419,0,0,1,29097,task2,521715,false,false,396,image-keyboard-response,12
true,2,2,1,2,true,d,false,true,0.0-2.0-0.4-0.38-3.38,0,0,0,68,false,stim,false,0,1150.5,0,0,0,29097,task2,524388,false,false,399,image-keyboard-response,13
true,2,0,1,0,true,q,false,true,0.0-2.0-0.4-0.39-3.39,0,0,0,81,false,stim,false,2,751.0,0,0,1,29097,task2,526654,false,false,402,image-keyboard-response,14
true,2,2,1,2,true,d,false,true,0.0-2.0-0.4-0.40-3.40,0,0,0,68,false,stim,false,0,962.0,0,0,0,29097,task2,529135,false,false,405,image-keyboard-response,15
true,2,0,1,0,true,q,false,true,0.0-2.0-0.4-0.41-3.41,0,0,0,81,false,stim,false,1,702.3999999761581,0,0,2,29097,task2,531359,false,false,408,image-keyboard-response,16
true,2,0,1,0,true,q,false,true,0.0-2.0-0.4-0.42-3.42,0,0,0,81,false,stim,false,2,502.2999999523163,0,0,1,29097,task2,533390,false,false,411,image-keyboard-response,17
true,2,2,1,2,true,d,false,true,0.0-2.0-0.4-0.43-3.43,0,0,0,68,false,stim,false,0,456.89999997615814,0,0,0,29097,task2,535373,false,false,414,image-keyboard-response,18
true,2,0,1,0,true,q,false,true,0.0-2.0-0.4-0.44-3.44,0,0,0,81,false,stim,false,1,1040.3999999761581,0,0,2,29097,task2,537945,false,false,417,image-keyboard-response,19
true,2,0,1,0,true,q,false,true,0.0-2.0-0.5-0.45-3.45,0,0,0,81,false,stim,false,2,557.6000000238419,0,0,1,29097,task2,540020,false,false,420,image-keyboard-response,20
false,2,-1,1,0,false,q,true,false,0.0-2.0-0.5-0.46-3.46,0,0,0,,false,stim,false,1,,0,0,2,29097,task2,544542,false,false,423,image-keyboard-response,21
true,2,2,1,2,true,d,false,true,0.0-2.0-0.5-0.47-3.47,0,0,0,68,false,stim,false,0,1469.5,0,0,0,29097,task2,547536,false,false,426,image-keyboard-response,22
true,2,2,1,2,true,d,false,true,0.0-2.0-0.5-0.48-3.48,0,0,0,68,false,stim,false,0,789.3000000715256,0,0,0,29097,task2,549846,false,false,429,image-keyboard-response,23
true,2,0,1,0,true,q,false,true,0.0-2.0-0.5-0.49-3.49,0,0,0,81,false,stim,false,1,690.7999999523163,0,0,2,29097,task2,552059,false,false,432,image-keyboard-response,24
true,2,0,1,0,true,q,false,true,0.0-2.0-0.5-0.50-3.50,0,0,0,81,false,stim,false,1,388.59999990463257,0,0,2,29097,task2,553967,false,false,435,image-keyboard-response,25
true,2,2,1,2,true,d,false,true,0.0-2.0-0.5-0.51-3.51,0,0,0,68,false,stim,false,0,899.2999999523163,0,0,0,29097,task2,556379,false,false,438,image-keyboard-response,26
true,2,0,1,0,true,q,false,true,0.0-2.0-0.5-0.52-3.52,0,0,0,81,false,stim,false,2,1068.8999999761581,0,0,1,29097,task2,558980,false,false,441,image-keyboard-response,27
true,2,0,1,0,true,q,false,true,0.0-2.0-0.5-0.53-3.53,0,0,0,81,false,stim,false,2,642.3999999761581,0,0,1,29097,task2,561136,false,false,444,image-keyboard-response,28
true,2,2,1,0,false,q,true,false,0.0-2.0-0.6-0.54-3.54,0,0,0,68,false,stim,false,1,1277.1999999284744,0,0,2,29097,task2,563940,false,false,447,image-keyboard-response,29
true,2,0,1,0,true,q,false,true,0.0-2.0-0.6-0.55-3.55,0,0,0,81,false,stim,false,1,796.6000000238419,0,0,2,29097,task2,566243,false,false,450,image-keyboard-response,30
true,2,0,1,0,true,q,false,true,0.0-2.0-0.6-0.56-3.56,0,0,0,81,false,stim,false,2,2281.7000000476837,0,0,1,29097,task2,570042,false,false,453,image-keyboard-response,31
true,2,2,1,2,true,d,false,true,0.0-2.0-0.6-0.57-3.57,0,0,0,68,false,stim,false,0,641.2000000476837,0,0,0,29097,task2,572214,false,false,456,image-keyboard-response,32
true,2,2,1,2,true,d,false,true,0.0-2.0-0.6-0.58-3.58,0,0,0,68,false,stim,false,0,690.2000000476837,0,0,0,29097,task2,574414,false,false,459,image-keyboard-response,33
true,2,2,1,2,true,d,false,true,0.0-2.0-0.6-0.59-3.59,0,0,0,68,false,stim,false,0,599.0,0,0,0,29097,task2,576538,false,false,462,image-keyboard-response,34
true,2,0,1,0,true,q,false,false,0.0-2.0-0.6-0.60-3.60,0,0,0,81,false,stim,false,2,619.0,0,0,1,29097,task2,578682,false,true,465,image-keyboard-response,35
true,2,1,1,0,false,q,true,false,0.0-2.0-0.6-0.61-3.61,0,0,0,90,false,stim,false,2,555.6999999284744,0,0,1,29097,task2,580761,false,false,468,image-keyboard-response,36
true,2,0,1,0,true,q,false,false,0.0-2.0-0.6-0.62-3.62,0,0,0,81,false,stim,false,1,1446.7999999523163,0,1,2,29097,task2,583719,false,true,471,image-keyboard-response,37
true,3,2,2,1,false,z,false,false,0.0-2.0-0.7-0.63-3.63,0,0,1,68,true,stim,true,2,804.6000000238419,0,0,0,29097,task2,586047,false,false,474,image-keyboard-response,1
true,3,2,2,2,true,d,false,true,0.0-2.0-0.7-0.64-3.64,0,0,1,68,false,stim,false,0,504.89999997615814,0,0,1,29097,task2,588071,false,false,477,image-keyboard-response,2
true,3,1,2,1,true,z,false,true,0.0-2.0-0.7-0.65-3.65,0,0,1,90,false,stim,false,2,445.39999997615814,0,0,0,29097,task2,590030,false,false,480,image-keyboard-response,3
true,3,0,2,0,true,q,false,true,0.0-2.0-0.7-0.66-3.66,0,0,1,81,false,stim,false,0,638.0,0,1,2,29097,task2,592186,false,false,483,image-keyboard-response,4
true,3,1,2,1,true,z,false,false,0.0-2.0-0.7-0.67-3.67,0,0,1,90,false,stim,false,2,911.0,0,0,0,29097,task2,594624,false,true,486,image-keyboard-response,5
true,3,2,2,2,true,d,false,true,0.0-2.0-0.7-0.68-3.68,0,0,1,68,false,stim,false,0,1389.9000000953674,0,0,1,29097,task2,597527,false,false,489,image-keyboard-response,6
true,3,2,2,2,true,d,false,true,0.0-2.0-0.7-0.69-3.69,0,0,1,68,false,stim,false,0,849.1000000238419,0,0,1,29097,task2,599891,false,false,492,image-keyboard-response,7
true,3,0,2,0,true,q,false,true,0.0-2.0-0.7-0.70-3.70,0,0,1,81,false,stim,false,0,1842.8999999761581,0,1,2,29097,task2,603251,false,false,495,image-keyboard-response,8
true,3,0,2,0,true,q,false,true,0.0-2.0-0.7-0.71-3.71,0,0,1,81,false,stim,false,0,651.6999999284744,0,1,2,29097,task2,605424,false,false,498,image-keyboard-response,9
true,3,1,2,1,true,z,false,true,0.0-2.0-0.8-0.72-3.72,0,0,1,90,false,stim,false,2,2532.6999999284744,0,0,0,29097,task2,609482,false,false,501,image-keyboard-response,10
true,3,1,2,1,true,z,false,false,0.0-2.0-0.8-0.73-3.73,0,0,1,90,false,stim,false,2,495.0,0,0,0,29097,task2,611502,false,true,504,image-keyboard-response,11
true,3,2,2,2,true,d,false,true,0.0-2.0-0.8-0.74-3.74,0,0,1,68,false,stim,false,0,1373.6000000238419,0,0,1,29097,task2,614401,false,false,507,image-keyboard-response,12
true,3,2,2,2,true,d,false,true,0.0-2.0-0.8-0.75-3.75,0,0,1,68,false,stim,false,0,422.0,0,0,1,29097,task2,616347,false,false,510,image-keyboard-response,13
true,3,2,2,2,true,d,false,true,0.0-2.0-0.8-0.76-3.76,0,0,1,68,false,stim,false,0,296.2000000476837,0,0,1,29097,task2,618175,false,false,513,image-keyboard-response,14
true,3,2,2,0,false,q,true,false,0.0-2.0-0.8-0.77-3.77,0,0,1,68,false,stim,false,0,2153.5999999046326,0,1,2,29097,task2,621851,false,false,516,image-keyboard-response,15
true,3,1,2,0,false,q,true,false,0.0-2.0-0.8-0.78-3.78,0,0,1,90,false,stim,false,0,641.2999999523163,0,1,2,29097,task2,624012,false,false,519,image-keyboard-response,16
true,3,0,2,1,false,z,true,false,0.0-2.0-0.8-0.79-3.79,0,0,1,81,false,stim,false,2,930.1000000238419,0,0,0,29097,task2,626467,false,false,522,image-keyboard-response,17
true,3,0,2,0,true,q,false,true,0.0-2.0-0.8-0.80-3.80,0,0,1,81,false,stim,false,0,624.2999999523163,0,1,2,29097,task2,628626,false,false,525,image-keyboard-response,18
true,3,2,2,1,false,z,false,false,0.0-2.0-0.9-0.81-3.81,0,0,1,68,false,stim,true,2,1169.3999999761581,0,0,0,29097,task2,631317,false,false,528,image-keyboard-response,19
true,3,2,2,2,true,d,false,false,0.0-2.0-0.9-0.82-3.82,0,0,1,68,false,stim,false,0,1128.6999999284744,0,0,1,29097,task2,633971,false,true,531,image-keyboard-response,20
true,3,0,2,0,true,q,false,true,0.0-2.0-0.9-0.83-3.83,0,0,1,81,false,stim,false,0,1533.6999999284744,0,1,2,29097,task2,637029,false,false,534,image-keyboard-response,21
true,3,1,2,1,true,z,false,true,0.0-2.0-0.9-0.84-3.84,0,0,1,90,false,stim,false,2,632.2999999523163,0,0,0,29097,task2,639183,false,false,537,image-keyboard-response,22
true,3,0,2,0,true,q,false,true,0.0-2.0-0.9-0.85-3.85,0,0,1,81,false,stim,false,0,1101.5,0,1,2,29097,task2,641821,false,false,540,image-keyboard-response,23
true,3,0,2,0,true,q,false,true,0.0-2.0-0.9-0.86-3.86,0,0,1,81,false,stim,false,0,733.6000000238419,0,1,2,29097,task2,644082,false,false,543,image-keyboard-response,24
true,3,1,2,2,false,d,true,false,0.0-2.0-0.9-0.87-3.87,0,0,1,90,false,stim,false,0,1668.7000000476837,0,0,1,29097,task2,647272,false,false,546,image-keyboard-response,25
true,3,0,2,2,false,d,false,false,0.0-2.0-0.9-0.88-3.88,0,0,1,81,false,stim,true,0,468.39999997615814,0,0,1,29097,task2,649264,false,false,549,image-keyboard-response,26
true,3,1,2,1,true,z,false,true,0.0-2.0-0.9-0.89-3.89,0,0,1,90,false,stim,false,2,1042.7999999523163,0,0,0,29097,task2,651832,false,false,552,image-keyboard-response,27
true,3,1,2,1,true,z,false,true,0.0-2.0-0.10-0.90-3.90,0,0,1,90,false,stim,false,2,866.3000000715256,0,1,0,29097,task2,654227,false,false,555,image-keyboard-response,28
true,3,0,2,0,true,q,false,true,0.0-2.0-0.10-0.91-3.91,0,0,1,81,false,stim,false,0,1967.7000000476837,0,0,2,29097,task2,657724,false,false,558,image-keyboard-response,29
true,3,0,2,0,true,q,false,false,0.0-2.0-0.10-0.92-3.92,0,0,1,81,false,stim,false,0,1010.3999999761581,0,0,2,29097,task2,660268,false,true,561,image-keyboard-response,30
true,3,1,2,1,true,z,false,true,0.0-2.0-0.10-0.93-3.93,0,0,1,90,false,stim,false,2,765.7999999523163,0,1,0,29097,task2,662565,false,false,564,image-keyboard-response,31
true,3,1,2,0,false,q,true,false,0.0-2.0-0.10-0.94-3.94,0,0,1,90,false,stim,false,0,522.2000000476837,0,0,2,29097,task2,664611,false,false,567,image-keyboard-response,32
true,4,1,2,1,true,z,false,true,0.0-2.0-0.10-0.95-3.95,1,0,0,90,true,stim,false,1,1916.6000000238419,0,1,0,29097,task2,668059,false,false,570,image-keyboard-response,1
true,4,2,2,0,false,q,false,false,0.0-2.0-0.10-0.96-3.96,1,0,0,68,false,stim,true,2,901.3999999761581,0,0,1,29097,task2,670473,false,false,573,image-keyboard-response,2
true,4,0,2,0,true,q,false,true,0.0-2.0-0.10-0.97-3.97,1,0,0,81,false,stim,false,2,794.6000000238419,0,0,1,29097,task2,672781,false,false,576,image-keyboard-response,3
true,4,0,2,0,true,q,false,false,0.0-2.0-0.10-0.98-3.98,1,0,0,81,false,stim,false,2,649.8000000715256,0,0,1,29097,task2,674969,false,true,579,image-keyboard-response,4
true,4,1,2,0,false,q,true,true,0.0-2.0-0.11-0.99-3.99,1,0,0,90,false,stim,false,2,575.8999999761581,0,0,1,29097,task2,677060,false,true,582,image-keyboard-response,5
true,4,1,2,0,false,q,true,false,0.0-2.0-0.11-0.100-3.100,1,0,0,90,false,stim,false,2,977.8999999761581,0,0,1,29097,task2,679562,false,false,585,image-keyboard-response,6
true,4,0,2,1,false,z,true,false,0.0-2.0-0.11-0.101-3.101,1,0,0,81,false,stim,false,1,283.8000000715256,0,1,0,29097,task2,681375,false,false,588,image-keyboard-response,7
true,4,1,2,1,true,z,false,true,0.0-2.0-0.11-0.102-3.102,1,0,0,90,false,stim,false,1,1082.5,0,1,0,29097,task2,683969,false,false,591,image-keyboard-response,8
true,4,2,2,1,false,z,true,false,0.0-2.0-0.11-0.103-3.103,1,0,0,68,false,stim,false,0,874.0,0,0,2,29097,task2,686377,false,false,594,image-keyboard-response,9
true,4,1,2,0,false,q,true,false,0.0-2.0-0.11-0.104-3.104,1,0,0,90,false,stim,false,2,801.0,0,0,1,29097,task2,688698,false,false,597,image-keyboard-response,10
true,4,1,2,1,true,z,false,true,0.0-2.0-0.11-0.105-3.105,1,0,0,90,false,stim,false,1,1402.3000000715256,0,1,0,29097,task2,691633,false,false,600,image-keyboard-response,11
true,4,0,2,1,false,z,false,false,0.0-2.0-0.11-0.106-3.106,1,0,0,81,false,stim,true,0,1236.8999999761581,0,0,2,29097,task2,694389,false,false,603,image-keyboard-response,12
true,4,1,2,1,true,z,false,true,0.0-2.0-0.11-0.107-3.107,1,0,0,90,false,stim,false,0,441.39999997615814,0,0,2,29097,task2,696359,false,false,606,image-keyboard-response,13
true,4,1,2,1,true,z,false,true,0.0-2.0-0.12-0.108-3.108,1,0,0,90,false,stim,false,0,427.90000009536743,0,0,2,29097,task2,698313,false,false,609,image-keyboard-response,14
true,4,2,2,0,false,q,false,false,0.0-2.0-0.12-0.109-3.109,1,0,0,68,false,stim,true,2,1130.0,0,0,1,29097,task2,700957,false,false,612,image-keyboard-response,15
true,4,1,2,0,false,q,true,false,0.0-2.0-0.12-0.110-3.110,1,0,0,90,false,stim,false,2,328.0,0,0,1,29097,task2,702806,false,false,615,image-keyboard-response,16
true,4,1,2,1,true,z,false,true,0.0-2.0-0.12-0.111-3.111,1,0,0,90,false,stim,false,0,1031.4000000953674,0,0,2,29097,task2,705363,false,false,618,image-keyboard-response,17
true,4,1,2,1,true,z,false,true,0.0-2.0-0.12-0.112-3.112,1,0,0,90,false,stim,false,1,2616.399999976158,0,1,0,29097,task2,709514,false,false,621,image-keyboard-response,18
true,4,1,2,1,true,z,false,true,0.0-2.0-0.12-0.113-3.113,1,0,0,90,false,stim,false,1,386.90000009536743,0,1,0,29097,task2,711427,false,false,624,image-keyboard-response,19
true,4,1,2,1,true,z,false,true,0.0-2.0-0.12-0.114-3.114,1,0,0,90,false,stim,false,0,1999.2000000476837,0,0,2,29097,task2,714958,false,false,627,image-keyboard-response,20
true,4,0,2,0,true,q,false,true,0.0-2.0-0.12-0.115-3.115,1,0,0,81,false,stim,false,2,974.5,0,0,1,29097,task2,717465,false,false,630,image-keyboard-response,21
true,4,1,2,1,true,z,false,true,0.0-2.0-0.12-0.116-3.116,1,0,0,90,false,stim,false,1,1160.7000000476837,0,1,0,29097,task2,720150,false,false,633,image-keyboard-response,22
true,4,1,2,1,true,z,false,true,0.0-2.0-0.13-0.117-3.117,1,0,0,90,false,stim,false,0,674.6999999284744,0,0,2,29097,task2,722350,false,false,636,image-keyboard-response,23
true,4,1,2,1,true,z,false,true,0.0-2.0-0.13-0.118-3.118,1,0,0,90,false,stim,false,1,1166.2999999523163,0,1,0,29097,task2,725038,false,false,639,image-keyboard-response,24
true,4,1,2,1,true,z,false,true,0.0-2.0-0.13-0.119-3.119,1,0,0,90,false,stim,false,1,488.10000002384186,0,1,0,29097,task2,727049,false,false,642,image-keyboard-response,25
true,4,1,2,1,true,z,false,true,0.0-2.0-0.13-0.120-3.120,1,0,0,90,false,stim,false,0,501.0,0,0,2,29097,task2,729070,false,false,645,image-keyboard-response,26
true,4,1,2,1,true,z,false,false,0.0-2.0-0.13-0.121-3.121,1,0,0,90,false,stim,false,1,452.7000000476837,0,1,0,29097,task2,731038,false,true,648,image-keyboard-response,27
true,4,0,2,0,true,q,false,true,0.0-2.0-0.13-0.122-3.122,1,0,0,81,false,stim,false,2,756.2999999523163,0,0,1,29097,task2,733316,false,false,651,image-keyboard-response,28
true,4,0,2,0,true,q,false,true,0.0-2.0-0.13-0.123-3.123,1,0,0,81,false,stim,false,2,681.3999999761581,0,0,1,29097,task2,735523,false,false,654,image-keyboard-response,29
true,4,1,2,1,true,z,false,true,0.0-2.0-0.13-0.124-3.124,1,0,0,90,false,stim,false,0,1299.0,0,1,2,29097,task2,738343,false,false,657,image-keyboard-response,30
true,4,0,2,0,true,q,false,true,0.0-2.0-0.13-0.125-3.125,1,0,0,81,false,stim,false,2,1006.7000000476837,0,0,1,29097,task2,740878,false,false,660,image-keyboard-response,31
true,4,2,2,1,false,z,true,false,0.0-2.0-0.14-0.126-3.126,1,0,0,68,false,stim,false,1,1023.0,0,0,0,29097,task2,743420,false,false,663,image-keyboard-response,32
true,4,1,2,1,true,z,false,true,0.0-2.0-0.14-0.127-3.127,1,0,0,90,false,stim,false,0,1523.5,0,1,2,29097,task2,746470,false,false,666,image-keyboard-response,33
true,5,1,2,1,true,z,false,true,0.0-2.0-0.14-0.128-3.128,0,0,1,90,true,stim,false,1,720.8000000715256,0,1,2,29097,task2,748705,false,false,669,image-keyboard-response,1
true,5,0,2,2,false,d,false,true,0.0-2.0-0.14-0.129-3.129,0,0,1,81,false,stim,true,0,854.1999999284744,0,0,1,29097,task2,751069,false,true,672,image-keyboard-response,2
true,5,1,2,1,true,z,false,true,0.0-2.0-0.14-0.130-3.130,0,0,1,90,false,stim,false,1,1417.0,0,1,2,29097,task2,754012,false,false,675,image-keyboard-response,3
true,5,0,2,2,false,d,false,false,0.0-2.0-0.14-0.131-3.131,0,0,1,81,false,stim,true,0,1832.2999999523163,0,0,1,29097,task2,757381,false,false,678,image-keyboard-response,4
true,5,0,2,2,false,d,true,false,0.0-2.0-0.14-0.132-3.132,0,0,1,81,false,stim,false,1,1846.4000000953674,0,0,0,29097,task2,760759,false,false,681,image-keyboard-response,5
true,5,2,2,2,true,d,false,true,0.0-2.0-0.14-0.133-3.133,0,0,1,68,false,stim,false,1,852.1000000238419,0,0,0,29097,task2,763128,false,false,684,image-keyboard-response,6
true,5,1,2,2,false,d,true,false,0.0-2.0-0.14-0.134-3.134,0,0,1,90,false,stim,false,0,1298.5,0,0,1,29097,task2,765950,false,false,687,image-keyboard-response,7
true,5,1,2,1,true,z,false,true,0.0-2.0-0.15-0.135-3.135,0,0,1,90,false,stim,false,1,698.1000000238419,0,1,2,29097,task2,768187,false,false,690,image-keyboard-response,8
true,5,2,2,2,true,d,false,true,0.0-2.0-0.15-0.136-3.136,0,0,1,68,false,stim,false,0,787.8000000715256,0,0,1,29097,task2,770498,false,false,693,image-keyboard-response,9
true,5,2,2,2,true,d,false,true,0.0-2.0-0.15-0.137-3.137,0,0,1,68,false,stim,false,1,445.7999999523163,0,0,0,29097,task2,772471,false,false,696,image-keyboard-response,10
true,5,1,2,1,true,z,false,true,0.0-2.0-0.15-0.138-3.138,0,0,1,90,false,stim,false,1,706.5999999046326,0,1,2,29097,task2,774693,false,false,699,image-keyboard-response,11
true,5,1,2,1,true,z,false,true,0.0-2.0-0.15-0.139-3.139,0,0,1,90,false,stim,false,1,654.8999999761581,0,1,2,29097,task2,776874,false,false,702,image-keyboard-response,12
true,5,2,2,2,true,d,false,true,0.0-2.0-0.15-0.140-3.140,0,0,1,68,false,stim,false,0,1375.5,0,0,1,29097,task2,779777,false,false,705,image-keyboard-response,13
true,5,2,2,2,true,d,false,true,0.0-2.0-0.15-0.141-3.141,0,0,1,68,false,stim,false,0,518.0,0,0,1,29097,task2,781817,false,false,708,image-keyboard-response,14
true,5,1,2,2,false,d,false,false,0.0-2.0-0.15-0.142-3.142,0,0,1,90,false,stim,true,1,2479.8000000715256,0,0,0,29097,task2,785817,false,false,711,image-keyboard-response,15
true,5,2,2,2,true,d,false,false,0.0-2.0-0.15-0.143-3.143,0,0,1,68,false,stim,false,1,422.0,0,0,0,29097,task2,787773,false,true,714,image-keyboard-response,16
true,5,1,2,1,true,z,false,true,0.0-2.0-0.16-0.144-3.144,0,0,1,90,false,stim,false,1,2147.399999976158,0,1,2,29097,task2,791434,false,false,717,image-keyboard-response,17
true,5,1,2,2,false,d,false,false,0.0-2.0-0.16-0.145-3.145,0,0,1,90,false,stim,true,1,2773.399999976158,0,0,0,29097,task2,795722,false,false,720,image-keyboard-response,18
true,5,2,2,2,true,d,false,false,0.0-2.0-0.16-0.146-3.146,0,0,1,68,false,stim,false,0,920.6000000238419,0,0,1,29097,task2,798166,false,true,723,image-keyboard-response,19
true,5,1,2,1,true,z,false,false,0.0-2.0-0.16-0.147-3.147,0,0,1,90,false,stim,false,1,897.5999999046326,0,1,2,29097,task2,800577,false,true,726,image-keyboard-response,20
true,5,0,2,2,false,d,false,false,0.0-2.0-0.16-0.148-3.148,0,0,1,81,false,stim,true,0,668.3999999761581,0,0,1,29097,task2,802771,false,false,729,image-keyboard-response,21
true,5,1,2,2,false,d,false,false,0.0-2.0-0.16-0.149-3.149,0,0,1,90,false,stim,true,1,1861.0999999046326,0,0,0,29097,task2,806158,false,false,732,image-keyboard-response,22
true,5,1,2,1,true,z,false,true,0.0-2.0-0.16-0.150-3.150,0,0,1,90,false,stim,false,1,964.0,0,1,2,29097,task2,808647,false,false,735,image-keyboard-response,23
true,5,2,2,2,true,d,false,false,0.0-2.0-0.16-0.151-3.151,0,0,1,68,false,stim,false,1,1304.7999999523163,0,0,0,29097,task2,811483,false,true,738,image-keyboard-response,24
true,5,2,2,2,true,d,false,true,0.0-2.0-0.16-0.152-3.152,0,0,1,68,false,stim,false,0,1164.7000000476837,0,0,1,29097,task2,814169,false,false,741,image-keyboard-response,25
true,5,0,2,2,false,d,true,false,0.0-2.0-0.17-0.153-3.153,0,0,1,81,false,stim,false,1,1063.1999999284744,0,0,0,29097,task2,816743,false,false,744,image-keyboard-response,26
true,5,2,2,2,true,d,false,true,0.0-2.0-0.17-0.154-3.154,0,0,1,68,false,stim,false,0,965.1000000238419,0,0,1,29097,task2,819238,false,false,747,image-keyboard-response,27
true,5,2,2,2,true,d,false,true,0.0-2.0-0.17-0.155-3.155,0,0,1,68,false,stim,false,0,672.3999999761581,0,0,1,29097,task2,821437,false,false,750,image-keyboard-response,28
true,5,1,2,2,false,d,false,false,0.0-2.0-0.17-0.156-3.156,0,0,1,90,false,stim,true,1,1016.6000000238419,0,0,0,29097,task2,823977,false,false,753,image-keyboard-response,29
true,5,1,2,1,true,z,false,true,0.0-2.0-0.17-0.157-3.157,0,0,1,90,false,stim,false,1,1296.8000000715256,0,1,2,29097,task2,826799,false,false,756,image-keyboard-response,30
true,5,2,2,2,true,d,false,true,0.0-2.0-0.17-0.158-3.158,0,0,1,68,false,stim,false,0,984.0,0,0,1,29097,task2,829304,false,false,759,image-keyboard-response,31
true,5,1,2,1,true,z,false,true,0.0-2.0-0.17-0.159-3.159,0,0,1,90,false,stim,false,1,1107.4000000953674,0,0,2,29097,task2,831934,false,false,762,image-keyboard-response,32
true,5,2,2,2,true,d,false,true,0.0-2.0-0.17-0.160-3.160,0,0,1,68,false,stim,false,1,1430.5999999046326,0,0,0,29097,task2,834898,false,false,765,image-keyboard-response,33
true,5,1,2,1,true,z,false,false,0.0-2.0-0.17-0.161-3.161,0,0,1,90,false,stim,false,1,677.1999999284744,0,0,2,29097,task2,837101,false,true,768,image-keyboard-response,34
true,5,0,2,1,false,z,true,false,0.0-2.0-0.18-0.162-3.162,0,0,1,81,false,stim,false,1,741.3999999761581,0,0,2,29097,task2,839372,false,false,771,image-keyboard-response,35
true,6,2,1,0,false,q,false,false,0.0-2.0-0.18-0.163-3.163,0,0,0,68,true,stim,true,2,1219.7000000476837,0,0,1,29097,task2,842117,false,false,774,image-keyboard-response,1
true,6,2,1,0,false,q,false,false,0.0-2.0-0.18-0.164-3.164,0,0,0,68,false,stim,true,2,779.2000000476837,0,0,0,29097,task2,844426,false,false,777,image-keyboard-response,2
true,6,1,1,0,false,q,true,false,0.0-2.0-0.18-0.165-3.165,0,0,0,90,false,stim,false,2,1650.2000000476837,0,0,1,29097,task2,847574,false,false,780,image-keyboard-response,3
true,6,2,1,0,false,q,false,false,0.0-2.0-0.18-0.166-3.166,0,0,0,68,false,stim,true,2,1617.3000000715256,0,0,0,29097,task2,850724,false,false,783,image-keyboard-response,4
true,6,1,1,2,false,d,false,false,0.0-2.0-0.18-0.167-3.167,0,0,0,90,false,stim,true,1,606.5,0,0,2,29097,task2,852862,false,false,786,image-keyboard-response,5
true,6,2,1,2,true,d,false,true,0.0-2.0-0.18-0.168-3.168,0,0,0,68,false,stim,false,1,2559.5,0,0,2,29097,task2,856941,false,false,789,image-keyboard-response,6
true,6,1,1,0,false,q,true,false,0.0-2.0-0.18-0.169-3.169,0,0,0,90,false,stim,false,2,2120.9000000953674,0,0,0,29097,task2,860584,false,false,792,image-keyboard-response,7
true,6,1,1,0,false,q,true,false,0.0-2.0-0.18-0.170-3.170,0,0,0,90,false,stim,false,2,1613.5,0,0,1,29097,task2,863725,false,false,795,image-keyboard-response,8
true,6,2,1,2,true,d,false,true,0.0-2.0-0.19-0.171-3.171,0,0,0,68,false,stim,false,1,821.3999999761581,0,0,2,29097,task2,866070,false,false,798,image-keyboard-response,9
true,6,0,1,0,true,q,false,true,0.0-2.0-0.19-0.172-3.172,0,0,0,81,false,stim,false,2,597.0,0,0,1,29097,task2,868193,false,false,801,image-keyboard-response,10
true,6,1,1,0,false,q,true,false,0.0-2.0-0.19-0.173-3.173,0,0,0,90,false,stim,false,2,1349.3999999761581,0,0,0,29097,task2,871055,false,false,804,image-keyboard-response,11
true,6,0,1,0,true,q,false,true,0.0-2.0-0.19-0.174-3.174,0,0,0,81,false,stim,false,2,696.5,0,0,0,29097,task2,873263,false,false,807,image-keyboard-response,12
true,6,2,1,0,false,q,false,false,0.0-2.0-0.19-0.175-3.175,0,0,0,68,false,stim,true,2,2009.2000000476837,0,0,1,29097,task2,876793,false,false,810,image-keyboard-response,13
true,6,2,1,2,true,d,false,false,0.0-2.0-0.19-0.176-3.176,0,0,0,68,false,stim,false,1,1076.1000000238419,0,0,2,29097,task2,879381,false,true,813,image-keyboard-response,14
true,6,1,1,0,false,q,true,false,0.0-2.0-0.19-0.177-3.177,0,0,0,90,false,stim,false,2,780.3999999761581,0,0,0,29097,task2,881687,false,false,816,image-keyboard-response,15
true,6,0,1,2,false,d,true,false,0.0-2.0-0.19-0.178-3.178,0,0,0,81,false,stim,false,1,1204.5999999046326,0,0,2,29097,task2,884415,false,false,819,image-keyboard-response,16
true,6,0,1,0,true,q,false,true,0.0-2.0-0.19-0.179-3.179,0,0,0,81,false,stim,false,2,992.6999999284744,0,0,1,29097,task2,886934,false,false,822,image-keyboard-response,17
true,6,0,1,0,true,q,false,true,0.0-2.0-0.20-0.180-3.180,0,0,0,81,false,stim,false,2,1101.1000000238419,0,0,0,29097,task2,889559,false,false,825,image-keyboard-response,18
true,6,0,1,0,true,q,false,true,0.0-2.0-0.20-0.181-3.181,0,0,0,81,false,stim,false,2,1022.2999999523163,0,0,1,29097,task2,892100,false,false,828,image-keyboard-response,19
true,6,2,1,2,true,d,false,true,0.0-2.0-0.20-0.182-3.182,0,0,0,68,false,stim,false,1,473.59999990463257,0,0,2,29097,task2,894089,false,false,831,image-keyboard-response,20
true,6,0,1,0,true,q,false,true,0.0-2.0-0.20-0.183-3.183,0,0,0,81,false,stim,false,2,1616.7999999523163,0,0,1,29097,task2,897235,false,false,834,image-keyboard-response,21
true,6,2,1,2,true,d,false,true,0.0-2.0-0.20-0.184-3.184,0,0,0,68,false,stim,false,1,820.2000000476837,0,0,2,29097,task2,899583,false,false,837,image-keyboard-response,22
true,6,0,1,0,true,q,false,true,0.0-2.0-0.20-0.185-3.185,0,0,0,81,false,stim,false,2,1111.2000000476837,0,0,0,29097,task2,902221,false,false,840,image-keyboard-response,23
true,6,0,1,0,true,q,false,true,0.0-2.0-0.20-0.186-3.186,0,0,0,81,false,stim,false,2,1813.3000000715256,0,0,1,29097,task2,905559,false,false,843,image-keyboard-response,24
true,6,0,1,0,true,q,false,false,0.0-2.0-0.20-0.187-3.187,0,0,0,81,false,stim,false,2,594.0,0,0,0,29097,task2,907682,false,true,846,image-keyboard-response,25
true,6,2,1,2,true,d,false,true,0.0-2.0-0.20-0.188-3.188,0,0,0,68,false,stim,false,1,684.5,0,0,2,29097,task2,909905,false,false,849,image-keyboard-response,26
true,6,0,1,0,true,q,false,true,0.0-2.0-0.21-0.189-3.189,0,0,0,81,false,stim,false,2,594.6999999284744,0,0,1,29097,task2,912026,false,false,852,image-keyboard-response,27
true,6,2,1,0,false,q,false,false,0.0-2.0-0.21-0.190-3.190,0,0,0,68,false,stim,true,2,895.6000000238419,0,0,0,29097,task2,914446,false,false,855,image-keyboard-response,28
true,6,2,1,2,true,d,false,true,0.0-2.0-0.21-0.191-3.191,0,0,0,68,false,stim,false,1,1809.5,0,0,2,29097,task2,917768,false,false,858,image-keyboard-response,29
true,6,0,1,0,true,q,false,true,0.0-2.0-0.21-0.192-3.192,0,0,0,81,false,stim,false,2,1197.6000000238419,0,0,1,29097,task2,920497,false,false,861,image-keyboard-response,30
true,6,0,1,0,true,q,false,true,0.0-2.0-0.21-0.193-3.193,0,0,0,81,false,stim,false,2,614.7999999523163,0,0,1,29097,task2,922631,false,false,864,image-keyboard-response,31
true,6,2,1,2,true,d,false,false,0.0-2.0-0.21-0.194-3.194,0,0,0,68,false,stim,false,1,863.8999999761581,0,0,2,29097,task2,925020,false,true,867,image-keyboard-response,32
true,6,1,1,0,false,q,true,false,0.0-2.0-0.21-0.195-3.195,0,0,0,90,false,stim,false,2,565.7999999523163,0,0,0,29097,task2,927111,false,false,870,image-keyboard-response,33
true,6,2,1,2,true,d,false,true,0.0-2.0-0.21-0.196-3.196,0,0,0,68,false,stim,false,1,1351.1999999284744,0,0,2,29097,task2,929982,false,false,873,image-keyboard-response,34
true,6,1,1,0,false,q,true,false,0.0-2.0-0.21-0.197-3.197,0,0,0,90,false,stim,false,2,1011.5,0,0,0,29097,task2,932511,false,false,876,image-keyboard-response,35
true,6,2,1,2,true,d,false,true,0.0-2.0-0.22-0.198-3.198,0,0,0,68,false,stim,false,1,752.8999999761581,0,0,2,29097,task2,934785,false,false,879,image-keyboard-response,36
true,7,0,1,2,false,d,false,false,0.0-2.0-0.22-0.199-3.199,0,0,0,81,true,stim,true,0,816.5,0,0,0,29097,task2,937127,false,false,882,image-keyboard-response,1
true,7,0,1,2,false,d,false,false,0.0-2.0-0.22-0.200-3.200,0,0,0,81,false,stim,true,0,534.3999999761581,0,0,1,29097,task2,939193,false,false,885,image-keyboard-response,2
true,7,1,1,2,false,d,true,false,0.0-2.0-0.22-0.201-3.201,0,0,0,90,false,stim,false,0,866.9000000953674,0,0,0,29097,task2,941588,false,false,888,image-keyboard-response,3
true,7,2,1,0,false,q,false,false,0.0-2.0-0.22-0.202-3.202,0,0,0,68,false,stim,true,2,650.3999999761581,0,0,2,29097,task2,943763,false,false,891,image-keyboard-response,4
true,7,0,1,2,false,d,false,true,0.0-2.0-0.22-0.203-3.203,0,0,0,81,false,stim,true,0,797.3000000715256,0,0,0,29097,task2,946072,false,true,894,image-keyboard-response,5
true,7,1,1,2,false,d,true,false,0.0-2.0-0.22-0.204-3.204,0,0,0,90,false,stim,false,0,1588.9000000953674,0,0,1,29097,task2,949178,false,false,897,image-keyboard-response,6
true,7,2,1,2,true,d,false,true,0.0-2.0-0.22-0.205-3.205,0,0,0,68,false,stim,false,0,785.3999999761581,0,0,1,29097,task2,951485,false,false,900,image-keyboard-response,7
true,7,1,1,0,false,q,true,false,0.0-2.0-0.22-0.206-3.206,0,0,0,90,false,stim,false,2,980.0999999046326,0,0,2,29097,task2,953997,false,false,903,image-keyboard-response,8
true,7,2,1,2,true,d,false,true,0.0-2.0-0.23-0.207-3.207,0,0,0,68,false,stim,false,0,788.1999999284744,0,0,1,29097,task2,956305,false,false,906,image-keyboard-response,9
true,7,2,1,2,true,d,false,true,0.0-2.0-0.23-0.208-3.208,0,0,0,68,false,stim,false,0,648.2000000476837,0,0,1,29097,task2,958462,false,false,909,image-keyboard-response,10
true,7,0,1,2,false,d,false,false,0.0-2.0-0.23-0.209-3.209,0,0,0,81,false,stim,true,0,412.89999997615814,0,0,0,29097,task2,960398,false,false,912,image-keyboard-response,11
true,7,1,1,2,false,d,true,true,0.0-2.0-0.23-0.210-3.210,0,0,0,90,false,stim,false,0,826.7999999523163,0,0,0,29097,task2,962736,false,true,915,image-keyboard-response,12
true,7,0,1,0,true,q,false,true,0.0-2.0-0.23-0.211-3.211,0,0,0,81,false,stim,false,2,1580.1999999284744,0,0,2,29097,task2,965830,false,false,918,image-keyboard-response,13
true,7,0,1,0,true,q,false,false,0.0-2.0-0.23-0.212-3.212,0,0,0,81,false,stim,false,2,665.0,0,0,2,29097,task2,968020,false,true,921,image-keyboard-response,14
true,7,1,1,0,false,q,true,false,0.0-2.0-0.23-0.213-3.213,0,0,0,90,false,stim,false,2,1092.0,0,0,2,29097,task2,970624,false,false,924,image-keyboard-response,15
true,7,2,1,2,true,d,false,true,0.0-2.0-0.23-0.214-3.214,0,0,0,68,false,stim,false,0,939.8999999761581,0,0,0,29097,task2,973078,false,false,927,image-keyboard-response,16
true,7,2,1,2,true,d,false,true,0.0-2.0-0.23-0.215-3.215,0,0,0,68,false,stim,false,0,1267.0,0,0,1,29097,task2,975875,false,false,930,image-keyboard-response,17
true,7,2,1,2,true,d,false,false,0.0-2.0-0.24-0.216-3.216,0,0,0,68,false,stim,false,0,825.7999999523163,0,0,0,29097,task2,978223,false,true,933,image-keyboard-response,18
true,7,1,1,0,false,q,true,false,0.0-2.0-0.24-0.217-3.217,0,0,0,90,false,stim,false,2,403.2000000476837,0,0,2,29097,task2,980152,false,false,936,image-keyboard-response,19
true,7,0,1,2,false,d,false,false,0.0-2.0-0.24-0.218-3.218,0,0,0,81,false,stim,true,0,436.1999999284744,0,0,0,29097,task2,982114,false,false,939,image-keyboard-response,20
true,7,1,1,2,false,d,true,false,0.0-2.0-0.24-0.219-3.219,0,0,0,90,false,stim,false,0,1060.1999999284744,0,0,0,29097,task2,984691,false,false,942,image-keyboard-response,21
true,7,2,1,0,false,q,false,false,0.0-2.0-0.24-0.220-3.220,0,0,0,68,false,stim,true,2,982.5999999046326,0,0,2,29097,task2,987195,false,false,945,image-keyboard-response,22
true,7,2,1,2,true,d,false,true,0.0-2.0-0.24-0.221-3.221,0,0,0,68,false,stim,false,0,1648.3999999761581,0,0,1,29097,task2,990360,false,false,948,image-keyboard-response,23
true,7,2,1,2,true,d,false,true,0.0-2.0-0.24-0.222-3.222,0,0,0,68,false,stim,false,0,569.6000000238419,0,0,1,29097,task2,992454,false,false,951,image-keyboard-response,24
true,7,2,1,0,false,q,false,false,0.0-2.0-0.24-0.223-3.223,0,0,0,68,false,stim,true,2,634.3999999761581,0,0,2,29097,task2,994626,false,false,954,image-keyboard-response,25
true,7,1,1,2,false,d,true,false,0.0-2.0-0.24-0.224-3.224,0,0,0,90,false,stim,false,0,654.8999999761581,0,0,1,29097,task2,996804,false,false,957,image-keyboard-response,26
true,7,0,1,2,false,d,false,false,0.0-2.0-0.25-0.225-3.225,0,0,0,81,false,stim,true,0,964.8000000715256,0,0,0,29097,task2,999296,false,false,960,image-keyboard-response,27
true,7,1,1,2,false,d,true,false,0.0-2.0-0.25-0.226-3.226,0,0,0,90,false,stim,false,0,436.60000002384186,0,0,0,29097,task2,1001251,false,false,963,image-keyboard-response,28
true,7,0,1,2,false,d,false,true,0.0-2.0-0.25-0.227-3.227,0,0,0,81,false,stim,true,0,1044.2999999523163,0,0,1,29097,task2,1003818,false,true,966,image-keyboard-response,29
true,7,0,1,2,false,d,false,false,0.0-2.0-0.25-0.228-3.228,0,0,0,81,false,stim,true,0,602.8000000715256,0,0,1,29097,task2,1005939,false,false,969,image-keyboard-response,30
true,7,1,1,2,false,d,true,false,0.0-2.0-0.25-0.229-3.229,0,0,0,90,false,stim,false,0,682.8999999761581,0,0,0,29097,task2,1008153,false,false,972,image-keyboard-response,31
true,7,2,1,2,true,d,false,true,0.0-2.0-0.25-0.230-3.230,0,0,0,68,false,stim,false,0,734.3999999761581,0,0,1,29097,task2,1010423,false,false,975,image-keyboard-response,32
true,7,1,1,0,false,q,true,false,0.0-2.0-0.25-0.231-3.231,0,0,0,90,false,stim,false,2,826.4000000953674,0,0,2,29097,task2,1012778,false,false,978,image-keyboard-response,33
true,7,0,1,0,true,q,false,true,0.0-2.0-0.25-0.232-3.232,0,0,0,81,false,stim,false,2,719.9000000953674,0,0,2,29097,task2,1015022,false,false,981,image-keyboard-response,34
true,7,0,1,0,true,q,false,true,0.0-2.0-0.25-0.233-3.233,0,0,0,81,false,stim,false,2,605.0,0,0,2,29097,task2,1017139,false,false,984,image-keyboard-response,35
true,7,1,1,2,false,d,true,false,0.0-2.0-0.26-0.234-3.234,0,0,0,90,false,stim,false,0,1182.9000000953674,0,0,0,29097,task2,1019841,false,false,987,image-keyboard-response,36
true,7,2,1,0,false,q,false,true,0.0-2.0-0.26-0.235-3.235,0,0,0,68,false,stim,true,2,1149.6000000238419,0,0,2,29097,task2,1022507,false,true,990,image-keyboard-response,37
true,8,2,1,1,false,z,false,false,0.0-2.0-0.26-0.236-3.236,0,0,0,68,true,stim,true,2,2031.7999999523163,0,0,0,29097,task2,1026067,false,false,993,image-keyboard-response,1
true,8,0,1,1,false,z,true,true,0.0-2.0-0.26-0.237-3.237,0,0,0,81,false,stim,false,2,616.3999999761581,0,0,0,29097,task2,1028202,false,true,996,image-keyboard-response,2
true,8,2,1,0,false,q,false,true,0.0-2.0-0.26-0.238-3.238,0,0,0,68,false,stim,true,2,1284.3999999761581,0,0,1,29097,task2,1031018,false,true,999,image-keyboard-response,3
true,8,2,1,0,false,q,false,false,0.0-2.0-0.26-0.239-3.239,0,0,0,68,false,stim,true,2,922.0999999046326,0,0,1,29097,task2,1033477,false,false,1002,image-keyboard-response,4
true,8,0,1,2,false,d,false,false,0.0-2.0-0.26-0.240-3.240,0,0,0,81,false,stim,true,0,2553.899999976158,0,0,2,29097,task2,1037551,false,false,1005,image-keyboard-response,5
true,8,1,1,0,false,q,true,false,0.0-2.0-0.26-0.241-3.241,0,0,0,90,false,stim,false,2,1203.3000000715256,0,0,1,29097,task2,1040271,false,false,1008,image-keyboard-response,6
true,8,0,1,2,false,d,false,false,0.0-2.0-0.26-0.242-3.242,0,0,0,81,false,stim,true,0,753.2000000476837,0,0,2,29097,task2,1042550,false,false,1011,image-keyboard-response,7
true,8,0,1,0,true,q,false,true,0.0-2.0-0.27-0.243-3.243,0,0,0,81,false,stim,false,2,743.2999999523163,0,0,1,29097,task2,1044818,false,false,1014,image-keyboard-response,8
true,8,1,1,2,false,d,true,true,0.0-2.0-0.27-0.244-3.244,0,0,0,90,false,stim,false,0,701.2999999523163,0,0,2,29097,task2,1047046,false,true,1017,image-keyboard-response,9
true,8,0,1,1,false,z,true,false,0.0-2.0-0.27-0.245-3.245,0,0,0,81,false,stim,false,2,954.7999999523163,0,0,0,29097,task2,1049533,false,false,1020,image-keyboard-response,10
true,8,1,1,2,false,d,true,false,0.0-2.0-0.27-0.246-3.246,0,0,0,90,false,stim,false,0,728.5999999046326,0,0,2,29097,task2,1051773,false,false,1023,image-keyboard-response,11
true,8,0,1,0,true,q,false,true,0.0-2.0-0.27-0.247-3.247,0,0,0,81,false,stim,false,2,521.5,0,0,1,29097,task2,1053817,false,false,1026,image-keyboard-response,12
true,8,0,1,0,true,q,false,true,0.0-2.0-0.27-0.248-3.248,0,0,0,81,false,stim,false,2,755.3000000715256,0,0,1,29097,task2,1056099,false,false,1029,image-keyboard-response,13
true,8,1,1,1,true,z,false,true,0.0-2.0-0.27-0.249-3.249,0,0,0,90,false,stim,false,2,797.6000000238419,0,0,0,29097,task2,1058423,false,false,1032,image-keyboard-response,14
true,8,2,1,2,true,d,false,true,0.0-2.0-0.27-0.250-3.250,0,0,0,68,false,stim,false,0,1418.7000000476837,0,0,2,29097,task2,1061360,false,false,1035,image-keyboard-response,15
true,8,1,1,1,true,z,false,true,0.0-2.0-0.27-0.251-3.251,0,0,0,90,false,stim,false,2,834.6000000238419,0,0,0,29097,task2,1063709,false,false,1038,image-keyboard-response,16
true,8,2,1,2,true,d,false,true,0.0-2.0-0.28-0.252-3.252,0,0,0,68,false,stim,false,0,1189.0,0,0,2,29097,task2,1066430,false,false,1041,image-keyboard-response,17
true,8,0,1,0,true,q,false,true,0.0-2.0-0.28-0.253-3.253,0,0,0,81,false,stim,false,2,1013.2000000476837,0,0,1,29097,task2,1068968,false,false,1044,image-keyboard-response,18
true,8,1,1,1,true,z,false,true,0.0-2.0-0.28-0.254-3.254,0,0,0,90,false,stim,false,2,2323.2999999523163,0,0,0,29097,task2,1072815,false,false,1047,image-keyboard-response,19
true,8,1,1,1,true,z,false,true,0.0-2.0-0.28-0.255-3.255,0,0,0,90,false,stim,false,2,434.2000000476837,0,0,0,29097,task2,1074776,false,false,1050,image-keyboard-response,20
true,8,2,1,0,false,q,false,false,0.0-2.0-0.28-0.256-3.256,0,0,0,68,false,stim,true,2,1122.3000000715256,0,0,1,29097,task2,1077413,false,false,1053,image-keyboard-response,21
true,8,2,1,2,true,d,false,true,0.0-2.0-0.28-0.257-3.257,0,0,0,68,false,stim,false,0,1208.1000000238419,0,0,2,29097,task2,1080144,false,false,1056,image-keyboard-response,22
true,8,2,1,2,true,d,false,true,0.0-2.0-0.28-0.258-3.258,0,0,0,68,false,stim,false,0,577.1000000238419,0,0,2,29097,task2,1082244,false,false,1059,image-keyboard-response,23
true,8,0,1,0,true,q,false,true,0.0-2.0-0.28-0.259-3.259,0,0,0,81,false,stim,false,2,578.7000000476837,0,0,1,29097,task2,1084335,false,false,1062,image-keyboard-response,24
true,8,1,1,1,true,z,false,true,0.0-2.0-0.28-0.260-3.260,0,0,0,90,false,stim,false,2,795.1999999284744,0,0,0,29097,task2,1086651,false,false,1065,image-keyboard-response,25
true,8,1,1,1,true,z,false,true,0.0-2.0-0.29-0.261-3.261,0,0,0,90,false,stim,false,2,850.2000000476837,0,0,0,29097,task2,1089027,false,false,1068,image-keyboard-response,26
true,8,0,1,0,true,q,false,false,0.0-2.0-0.29-0.262-3.262,0,0,0,81,false,stim,false,2,1013.1000000238419,0,0,1,29097,task2,1091557,false,true,1071,image-keyboard-response,27
true,8,1,1,1,true,z,false,true,0.0-2.0-0.29-0.263-3.263,0,0,0,90,false,stim,false,2,836.8999999761581,0,0,0,29097,task2,1093905,false,false,1074,image-keyboard-response,28
true,8,2,1,2,true,d,false,true,0.0-2.0-0.29-0.264-3.264,0,0,0,68,false,stim,false,0,685.7999999523163,0,0,2,29097,task2,1096116,false,false,1077,image-keyboard-response,29
true,8,2,1,2,true,d,false,true,0.0-2.0-0.29-0.265-3.265,0,0,0,68,false,stim,false,0,896.8000000715256,0,0,2,29097,task2,1098550,false,false,1080,image-keyboard-response,30
true,8,1,1,0,false,q,true,false,0.0-2.0-0.29-0.266-3.266,0,0,0,90,false,stim,false,2,830.0,0,0,1,29097,task2,1100902,false,false,1083,image-keyboard-response,31
true,8,2,1,2,true,d,false,true,0.0-2.0-0.29-0.267-3.267,0,0,0,68,false,stim,false,0,1210.8999999761581,0,0,2,29097,task2,1103642,false,false,1086,image-keyboard-response,32
true,8,1,1,1,true,z,false,true,0.0-2.0-0.29-0.268-3.268,0,0,0,90,false,stim,false,2,449.89999997615814,0,0,0,29097,task2,1105613,false,false,1089,image-keyboard-response,33
true,8,2,1,0,false,q,false,false,0.0-2.0-0.29-0.269-3.269,0,0,0,68,false,stim,true,2,400.7999999523163,0,0,1,29097,task2,1107549,false,false,1092,image-keyboard-response,34
true,8,0,1,0,true,q,false,true,0.0-2.0-0.30-0.270-3.270,0,0,0,81,false,stim,false,2,384.0,0,0,1,29097,task2,1109469,false,false,1095,image-keyboard-response,35
true,9,0,1,1,false,z,false,false,0.0-2.0-0.30-0.271-3.271,0,0,0,81,true,stim,true,0,635.1000000238419,0,0,1,29097,task2,1111630,false,false,1098,image-keyboard-response,1
true,9,1,1,2,false,d,false,false,0.0-2.0-0.30-0.272-3.272,0,0,0,90,false,stim,true,1,1012.0,0,0,0,29097,task2,1114157,false,false,1101,image-keyboard-response,2
true,9,2,1,0,false,q,false,false,0.0-2.0-0.30-0.273-3.273,0,0,0,68,false,stim,true,2,905.2000000476837,0,0,2,29097,task2,1116585,false,false,1104,image-keyboard-response,3
true,9,2,1,0,false,q,false,false,0.0-2.0-0.30-0.274-3.274,0,0,0,68,false,stim,true,2,810.5999999046326,0,0,2,29097,task2,1118919,false,false,1107,image-keyboard-response,4
true,9,1,1,2,false,d,false,false,0.0-2.0-0.30-0.275-3.275,0,0,0,90,false,stim,true,1,577.1000000238419,0,0,0,29097,task2,1121023,false,false,1110,image-keyboard-response,5
true,9,0,1,1,false,z,false,false,0.0-2.0-0.30-0.276-3.276,0,0,0,81,false,stim,true,0,1212.2000000476837,0,0,1,29097,task2,1123752,false,false,1113,image-keyboard-response,6
true,9,1,1,0,false,q,true,false,0.0-2.0-0.30-0.277-3.277,0,0,0,90,false,stim,false,2,1187.8999999761581,0,0,2,29097,task2,1126466,false,false,1116,image-keyboard-response,7
true,9,2,1,2,true,d,false,true,0.0-2.0-0.30-0.278-3.278,0,0,0,68,false,stim,false,1,1160.2999999523163,0,0,0,29097,task2,1129151,false,false,1119,image-keyboard-response,8
true,9,1,1,1,true,z,false,true,0.0-2.0-0.31-0.279-3.279,0,0,0,90,false,stim,false,0,2250.0999999046326,0,0,1,29097,task2,1132925,false,false,1122,image-keyboard-response,9
true,9,0,1,2,false,d,true,false,0.0-2.0-0.31-0.280-3.280,0,0,0,81,false,stim,false,1,1135.1000000238419,0,0,0,29097,task2,1135588,false,false,1125,image-keyboard-response,10
true,9,0,1,0,true,q,false,true,0.0-2.0-0.31-0.281-3.281,0,0,0,81,false,stim,false,2,1340.6000000238419,0,0,2,29097,task2,1138449,false,false,1128,image-keyboard-response,11
true,9,1,1,1,true,z,false,false,0.0-2.0-0.31-0.282-3.282,0,0,0,90,false,stim,false,0,1713.7000000476837,0,0,1,29097,task2,1141682,false,true,1131,image-keyboard-response,12
true,9,0,1,0,true,q,false,true,0.0-2.0-0.31-0.283-3.283,0,0,0,81,false,stim,false,2,1108.7999999523163,0,0,2,29097,task2,1144311,false,false,1134,image-keyboard-response,13
true,9,2,1,2,true,d,false,true,0.0-2.0-0.31-0.284-3.284,0,0,0,68,false,stim,false,1,498.89999997615814,0,0,0,29097,task2,1146325,false,false,1137,image-keyboard-response,14
true,9,0,1,0,true,q,false,true,0.0-2.0-0.31-0.285-3.285,0,0,0,81,false,stim,false,2,569.2000000476837,0,0,2,29097,task2,1148414,false,false,1140,image-keyboard-response,15
true,9,2,1,1,false,z,true,false,0.0-2.0-0.31-0.286-3.286,0,0,0,68,false,stim,false,0,521.6999999284744,0,0,1,29097,task2,1150480,false,false,1143,image-keyboard-response,16
true,9,2,1,2,true,d,false,false,0.0-2.0-0.31-0.287-3.287,0,0,0,68,false,stim,false,1,1363.5,0,0,0,29097,task2,1153370,false,true,1146,image-keyboard-response,17
true,9,2,1,1,false,z,true,false,0.0-2.0-0.32-0.288-3.288,0,0,0,68,false,stim,false,0,1357.6000000238419,0,0,1,29097,task2,1156252,false,false,1149,image-keyboard-response,18
true,9,0,1,0,true,q,false,true,0.0-2.0-0.32-0.289-3.289,0,0,0,81,false,stim,false,2,1051.8000000715256,0,0,2,29097,task2,1158838,false,false,1152,image-keyboard-response,19
true,9,1,1,1,true,z,false,true,0.0-2.0-0.32-0.290-3.290,0,0,0,90,false,stim,false,0,871.2999999523163,0,0,1,29097,task2,1161225,false,false,1155,image-keyboard-response,20
true,9,1,1,1,true,z,false,true,0.0-2.0-0.32-0.291-3.291,0,0,0,90,false,stim,false,0,678.6000000238419,0,0,1,29097,task2,1163433,false,false,1158,image-keyboard-response,21
true,9,0,1,0,true,q,false,false,0.0-2.0-0.32-0.292-3.292,0,0,0,81,false,stim,false,2,466.0,0,0,2,29097,task2,1165419,false,true,1161,image-keyboard-response,22
true,9,0,1,2,false,d,true,false,0.0-2.0-0.32-0.293-3.293,0,0,0,81,false,stim,false,1,2187.0,0,0,0,29097,task2,1169125,false,false,1164,image-keyboard-response,23
true,9,2,1,0,false,q,false,false,0.0-2.0-0.32-0.294-3.294,0,0,0,68,false,stim,true,2,875.6000000238419,0,0,2,29097,task2,1171526,false,false,1167,image-keyboard-response,24
true,9,1,1,2,false,d,false,false,0.0-2.0-0.32-0.295-3.295,0,0,0,90,false,stim,true,1,625.3999999761581,0,0,0,29097,task2,1173672,false,false,1170,image-keyboard-response,25
true,9,0,1,2,false,d,true,true,0.0-2.0-0.32-0.296-3.296,0,0,0,81,false,stim,false,1,771.9000000953674,0,0,0,29097,task2,1175974,false,true,1173,image-keyboard-response,26
true,9,1,1,1,true,z,false,false,0.0-2.0-0.33-0.297-3.297,0,0,0,90,false,stim,false,0,875.2999999523163,0,0,1,29097,task2,1178374,false,true,1176,image-keyboard-response,27
true,9,2,1,1,false,z,true,false,0.0-2.0-0.33-0.298-3.298,0,0,0,68,false,stim,false,0,896.8999999761581,0,0,1,29097,task2,1180781,false,false,1179,image-keyboard-response,28
true,9,0,1,2,false,d,true,false,0.0-2.0-0.33-0.299-3.299,0,0,0,81,false,stim,false,1,942.1000000238419,0,0,0,29097,task2,1183244,false,false,1182,image-keyboard-response,29
true,9,1,1,2,false,d,false,false,0.0-2.0-0.33-0.300-3.300,0,0,0,90,false,stim,true,1,449.89999997615814,0,0,0,29097,task2,1185226,false,false,1185,image-keyboard-response,30
true,9,2,1,2,true,d,false,true,0.0-2.0-0.33-0.301-3.301,0,0,0,68,false,stim,false,1,506.7000000476837,0,0,0,29097,task2,1187265,false,false,1188,image-keyboard-response,31
true,9,1,1,0,false,q,true,false,0.0-2.0-0.33-0.302-3.302,0,0,0,90,false,stim,false,2,1021.8999999761581,0,0,2,29097,task2,1189808,false,false,1191,image-keyboard-response,32
true,9,0,1,1,false,z,false,false,0.0-2.0-0.33-0.303-3.303,0,0,0,81,false,stim,true,0,834.0,0,0,1,29097,task2,1192171,false,false,1194,image-keyboard-response,33
true,9,2,1,0,false,q,false,false,0.0-2.0-0.33-0.304-3.304,0,0,0,68,false,stim,true,2,576.1000000238419,0,0,2,29097,task2,1194270,false,false,1197,image-keyboard-response,34
true,9,2,1,0,false,q,false,false,0.0-2.0-0.33-0.305-3.305,0,0,0,68,false,stim,true,2,808.6000000238419,0,0,2,29097,task2,1196598,false,false,1200,image-keyboard-response,35
true,10,2,1,1,false,z,false,false,0.0-2.0-0.34-0.306-3.306,0,0,0,68,true,stim,true,2,738.8000000715256,0,0,0,29097,task2,1198863,false,false,1203,image-keyboard-response,1
true,10,1,1,2,false,d,false,false,0.0-2.0-0.34-0.307-3.307,0,0,0,90,false,stim,true,1,589.0999999046326,0,0,1,29097,task2,1200977,false,false,1206,image-keyboard-response,2
true,10,0,1,2,false,d,true,true,0.0-2.0-0.34-0.308-3.308,0,0,0,81,false,stim,false,1,431.0,0,0,1,29097,task2,1202931,false,true,1209,image-keyboard-response,3
true,10,1,1,1,true,z,false,true,0.0-2.0-0.34-0.309-3.309,0,0,0,90,false,stim,false,0,1003.1000000238419,0,0,2,29097,task2,1205458,false,false,1212,image-keyboard-response,4
true,10,2,1,2,true,d,false,true,0.0-2.0-0.34-0.310-3.310,0,0,0,68,false,stim,false,1,884.2000000476837,0,0,1,29097,task2,1207875,false,false,1215,image-keyboard-response,5
true,10,0,1,1,false,z,true,false,0.0-2.0-0.34-0.311-3.311,0,0,0,81,false,stim,false,2,1453.2000000476837,0,0,0,29097,task2,1210844,false,false,1218,image-keyboard-response,6
true,10,2,1,1,false,z,true,false,0.0-2.0-0.34-0.312-3.312,0,0,0,68,false,stim,false,0,723.5,0,0,2,29097,task2,1213095,false,false,1221,image-keyboard-response,7
true,10,1,1,1,true,z,false,true,0.0-2.0-0.34-0.313-3.313,0,0,0,90,false,stim,false,0,554.6000000238419,0,0,2,29097,task2,1215172,false,false,1224,image-keyboard-response,8
true,10,0,1,1,false,z,true,false,0.0-2.0-0.34-0.314-3.314,0,0,0,81,false,stim,false,2,1256.5,0,0,0,29097,task2,1217962,false,false,1227,image-keyboard-response,9
true,10,1,1,1,true,z,false,true,0.0-2.0-0.35-0.315-3.315,0,0,0,90,false,stim,false,2,590.6000000238419,0,0,0,29097,task2,1220079,false,false,1230,image-keyboard-response,10
true,10,1,1,1,true,z,false,true,0.0-2.0-0.35-0.316-3.316,0,0,0,90,false,stim,false,0,632.3999999761581,0,0,2,29097,task2,1222237,false,false,1233,image-keyboard-response,11
true,10,2,1,2,true,d,false,true,0.0-2.0-0.35-0.317-3.317,0,0,0,68,false,stim,false,1,548.6000000238419,0,0,1,29097,task2,1224314,false,false,1236,image-keyboard-response,12
true,10,1,1,1,true,z,false,true,0.0-2.0-0.35-0.318-3.318,0,0,0,90,false,stim,false,2,629.1000000238419,0,0,0,29097,task2,1226457,false,false,1239,image-keyboard-response,13
true,10,2,1,2,true,d,false,true,0.0-2.0-0.35-0.319-3.319,0,0,0,68,false,stim,false,1,719.5,0,0,1,29097,task2,1228699,false,false,1242,image-keyboard-response,14
true,10,1,1,1,true,z,false,true,0.0-2.0-0.35-0.320-3.320,0,0,0,90,false,stim,false,0,803.5,0,0,2,29097,task2,1231039,false,false,1245,image-keyboard-response,15
true,10,1,1,1,true,z,false,true,0.0-2.0-0.35-0.321-3.321,0,0,0,90,false,stim,false,0,858.2000000476837,0,0,2,29097,task2,1233410,false,false,1248,image-keyboard-response,16
true,10,2,1,2,true,d,false,false,0.0-2.0-0.35-0.322-3.322,0,0,0,68,false,stim,false,1,1212.3000000715256,0,0,1,29097,task2,1236146,false,true,1251,image-keyboard-response,17
true,10,1,1,1,true,z,false,true,0.0-2.0-0.35-0.323-3.323,0,0,0,90,false,stim,false,2,787.6999999284744,0,0,0,29097,task2,1238453,false,false,1254,image-keyboard-response,18
true,10,1,1,1,true,z,false,true,0.0-2.0-0.36-0.324-3.324,0,0,0,90,false,stim,false,0,967.8999999761581,0,0,2,29097,task2,1240952,false,false,1257,image-keyboard-response,19
true,10,0,1,2,false,d,true,false,0.0-2.0-0.36-0.325-3.325,0,0,0,81,false,stim,false,1,560.0,0,0,1,29097,task2,1243041,false,false,1260,image-keyboard-response,20
true,10,1,1,1,true,z,false,true,0.0-2.0-0.36-0.326-3.326,0,0,0,90,false,stim,false,2,561.0,0,0,0,29097,task2,1245127,false,false,1263,image-keyboard-response,21
true,10,1,1,2,false,d,false,false,0.0-2.0-0.36-0.327-3.327,0,0,0,90,false,stim,true,1,692.3999999761581,0,0,1,29097,task2,1247355,false,false,1266,image-keyboard-response,22
true,10,1,1,2,false,d,false,false,0.0-2.0-0.36-0.328-3.328,0,0,0,90,false,stim,true,1,1130.3000000715256,0,0,1,29097,task2,1250008,false,false,1269,image-keyboard-response,23
true,10,2,1,1,false,z,false,false,0.0-2.0-0.36-0.329-3.329,0,0,0,68,false,stim,true,2,562.9000000953674,0,0,0,29097,task2,1252092,false,false,1272,image-keyboard-response,24
true,10,1,1,1,true,z,false,true,0.0-2.0-0.36-0.330-3.330,0,0,0,90,false,stim,false,0,384.0,0,0,2,29097,task2,1253995,false,false,1275,image-keyboard-response,25
true,10,0,1,1,false,z,true,false,0.0-2.0-0.36-0.331-3.331,0,0,0,81,false,stim,false,2,349.3000000715256,0,0,0,29097,task2,1255879,false,false,1278,image-keyboard-response,26
true,10,2,1,1,false,z,true,false,0.0-2.0-0.36-0.332-3.332,0,0,0,68,false,stim,false,0,1557.1999999284744,0,0,2,29097,task2,1258966,false,false,1281,image-keyboard-response,27
true,10,1,1,1,true,z,false,true,0.0-2.0-0.37-0.333-3.333,0,0,0,90,false,stim,false,2,401.40000009536743,0,0,0,29097,task2,1260882,false,false,1284,image-keyboard-response,28
true,10,1,1,1,true,z,false,true,0.0-2.0-0.37-0.334-3.334,0,0,0,90,false,stim,false,0,722.0,0,0,2,29097,task2,1263130,false,false,1287,image-keyboard-response,29
true,10,0,1,2,false,d,true,true,0.0-2.0-0.37-0.335-3.335,0,0,0,81,false,stim,false,1,2313.399999976158,0,0,1,29097,task2,1266971,false,true,1290,image-keyboard-response,30
true,10,2,1,1,false,z,false,false,0.0-2.0-0.37-0.336-3.336,0,0,0,68,false,stim,true,2,1645.7000000476837,0,0,0,29097,task2,1270137,false,false,1293,image-keyboard-response,31
true,10,0,1,2,false,d,true,false,0.0-2.0-0.37-0.337-3.337,0,0,0,81,false,stim,false,1,1096.8000000715256,0,0,1,29097,task2,1272756,false,false,1296,image-keyboard-response,32
true,10,1,1,1,true,z,false,true,0.0-2.0-0.37-0.338-3.338,0,0,0,90,false,stim,false,0,661.5,0,1,2,29097,task2,1274927,false,false,1299,image-keyboard-response,33
true,10,1,1,1,true,z,false,true,0.0-2.0-0.37-0.339-3.339,0,0,0,90,false,stim,false,0,1386.3999999761581,0,1,2,29097,task2,1277837,false,false,1302,image-keyboard-response,34
true,10,1,1,2,false,d,false,false,0.0-2.0-0.37-0.340-3.340,0,0,0,90,false,stim,true,1,732.6000000238419,0,0,1,29097,task2,1280097,false,false,1305,image-keyboard-response,35
true,10,0,1,1,false,z,true,false,0.0-2.0-0.37-0.341-3.341,0,0,0,81,false,stim,false,2,560.7999999523163,0,0,0,29097,task2,1282178,false,false,1308,image-keyboard-response,36
true,10,2,1,1,false,z,false,false,0.0-2.0-0.38-0.342-3.342,0,0,0,68,false,stim,true,2,387.89999997615814,0,0,0,29097,task2,1284082,false,false,1311,image-keyboard-response,37
true,11,1,2,1,true,z,false,true,0.0-2.0-0.38-0.343-3.343,0,0,1,90,true,stim,false,2,279.89999997615814,0,0,1,29097,task2,1285894,false,false,1314,image-keyboard-response,1
true,11,1,2,1,true,z,false,true,0.0-2.0-0.38-0.344-3.344,0,0,1,90,false,stim,false,2,1608.1999999284744,0,0,1,29097,task2,1289024,false,false,1317,image-keyboard-response,2
true,11,2,2,1,false,z,true,false,0.0-2.0-0.38-0.345-3.345,0,0,1,68,false,stim,false,1,943.6999999284744,0,1,2,29097,task2,1291491,false,false,1320,image-keyboard-response,3
true,11,0,2,0,true,q,false,true,0.0-2.0-0.38-0.346-3.346,0,0,1,81,false,stim,false,1,456.2999999523163,0,0,0,29097,task2,1293465,false,false,1323,image-keyboard-response,4
true,11,0,2,1,false,z,true,false,0.0-2.0-0.38-0.347-3.347,0,0,1,81,false,stim,false,1,904.6000000238419,0,1,2,29097,task2,1295898,false,false,1326,image-keyboard-response,5
true,11,1,2,1,true,z,false,true,0.0-2.0-0.38-0.348-3.348,0,0,1,90,false,stim,false,1,795.7999999523163,0,1,2,29097,task2,1298223,false,false,1329,image-keyboard-response,6
true,11,2,2,1,false,z,false,false,0.0-2.0-0.38-0.349-3.349,0,0,1,68,false,stim,true,2,1199.5999999046326,0,0,1,29097,task2,1300943,false,false,1332,image-keyboard-response,7
true,11,1,2,0,false,q,false,false,0.0-2.0-0.38-0.350-3.350,0,0,1,90,false,stim,true,1,398.2999999523163,0,0,0,29097,task2,1302874,false,false,1335,image-keyboard-response,8
true,11,0,2,0,true,q,false,true,0.0-2.0-0.39-0.351-3.351,0,0,1,81,false,stim,false,1,1157.0,0,0,0,29097,task2,1305545,false,false,1338,image-keyboard-response,9
true,11,1,2,1,true,z,false,true,0.0-2.0-0.39-0.352-3.352,0,0,1,90,false,stim,false,2,2077.8000000715256,0,0,1,29097,task2,1309148,false,false,1341,image-keyboard-response,10
true,11,0,2,1,false,z,true,false,0.0-2.0-0.39-0.353-3.353,0,0,1,81,false,stim,false,2,807.5,0,0,1,29097,task2,1311475,false,false,1344,image-keyboard-response,11
true,11,1,2,1,true,z,false,true,0.0-2.0-0.39-0.354-3.354,0,0,1,90,false,stim,false,1,366.5,0,1,2,29097,task2,1313352,false,false,1347,image-keyboard-response,12
true,11,2,2,1,false,z,false,false,0.0-2.0-0.39-0.355-3.355,0,0,1,68,false,stim,true,2,1113.3999999761581,0,0,1,29097,task2,1315988,false,false,1350,image-keyboard-response,13
true,11,1,2,1,true,z,false,true,0.0-2.0-0.39-0.356-3.356,0,0,1,90,false,stim,false,1,435.89999997615814,0,1,2,29097,task2,1317955,false,false,1353,image-keyboard-response,14
true,11,1,2,1,true,z,false,true,0.0-2.0-0.39-0.357-3.357,0,0,1,90,false,stim,false,1,1282.3999999761581,0,1,2,29097,task2,1320750,false,false,1356,image-keyboard-response,15
true,11,2,2,0,false,q,true,false,0.0-2.0-0.39-0.358-3.358,0,0,1,68,false,stim,false,1,2558.600000023842,0,0,0,29097,task2,1324831,false,false,1359,image-keyboard-response,16
true,11,1,2,0,false,q,false,false,0.0-2.0-0.39-0.359-3.359,0,0,1,90,false,stim,true,1,306.2999999523163,0,0,0,29097,task2,1326661,false,false,1362,image-keyboard-response,17
true,11,0,2,0,true,q,false,true,0.0-2.0-0.40-0.360-3.360,0,0,1,81,false,stim,false,1,524.5,0,0,0,29097,task2,1328703,false,false,1365,image-keyboard-response,18
true,11,1,2,1,true,z,false,true,0.0-2.0-0.40-0.361-3.361,0,0,1,90,false,stim,false,1,957.0,0,1,2,29097,task2,1331181,false,false,1368,image-keyboard-response,19
true,11,0,2,1,false,z,true,false,0.0-2.0-0.40-0.362-3.362,0,0,1,81,false,stim,false,1,505.2999999523163,0,1,2,29097,task2,1333210,false,false,1371,image-keyboard-response,20
true,11,1,2,0,false,q,false,false,0.0-2.0-0.40-0.363-3.363,0,0,1,90,false,stim,true,1,1321.5999999046326,0,0,0,29097,task2,1336063,false,false,1374,image-keyboard-response,21
true,11,1,2,1,true,z,false,true,0.0-2.0-0.40-0.364-3.364,0,0,1,90,false,stim,false,1,938.2000000476837,0,1,2,29097,task2,1338525,false,false,1377,image-keyboard-response,22
true,11,2,2,1,false,z,false,false,0.0-2.0-0.40-0.365-3.365,0,0,1,68,false,stim,true,2,933.2999999523163,0,0,1,29097,task2,1340981,false,false,1380,image-keyboard-response,23
true,11,1,2,1,true,z,false,true,0.0-2.0-0.40-0.366-3.366,0,0,1,90,false,stim,false,2,769.1000000238419,0,0,1,29097,task2,1343273,false,false,1383,image-keyboard-response,24
true,11,0,2,0,true,q,false,true,0.0-2.0-0.40-0.367-3.367,0,0,1,81,false,stim,false,1,776.0999999046326,0,0,0,29097,task2,1345565,false,false,1386,image-keyboard-response,25
true,11,1,2,1,true,z,false,true,0.0-2.0-0.40-0.368-3.368,0,0,1,90,false,stim,false,2,2187.2999999523163,0,0,1,29097,task2,1349278,false,false,1389,image-keyboard-response,26
true,11,1,2,1,true,z,false,true,0.0-2.0-0.41-0.369-3.369,0,0,1,90,false,stim,false,1,682.0,0,1,2,29097,task2,1351482,false,false,1392,image-keyboard-response,27
true,11,0,2,0,true,q,false,true,0.0-2.0-0.41-0.370-3.370,0,0,1,81,false,stim,false,1,726.0999999046326,0,0,0,29097,task2,1353720,false,false,1395,image-keyboard-response,28
true,11,1,2,1,true,z,false,true,0.0-2.0-0.41-0.371-3.371,0,0,1,90,false,stim,false,1,524.2000000476837,0,0,2,29097,task2,1355776,false,false,1398,image-keyboard-response,29
true,11,1,2,1,true,z,false,true,0.0-2.0-0.41-0.372-3.372,0,0,1,90,false,stim,false,1,400.1999999284744,0,0,2,29097,task2,1357704,false,false,1401,image-keyboard-response,30
true,11,0,2,0,true,q,false,true,0.0-2.0-0.41-0.373-3.373,0,0,1,81,false,stim,false,1,659.7000000476837,0,0,0,29097,task2,1359889,false,false,1404,image-keyboard-response,31
true,11,1,2,0,false,q,false,false,0.0-2.0-0.41-0.374-3.374,0,0,1,90,false,stim,true,1,547.7999999523163,0,0,0,29097,task2,1361960,false,false,1407,image-keyboard-response,32
true,11,0,2,1,false,z,true,false,0.0-2.0-0.41-0.375-3.375,0,0,1,81,false,stim,false,2,439.7000000476837,0,1,1,29097,task2,1363931,false,false,1410,image-keyboard-response,33
true,12,1,2,1,true,z,false,true,0.0-2.0-0.41-0.376-3.376,0,1,0,90,true,stim,false,1,636.3000000715256,0,1,1,29097,task2,1366098,false,false,1413,image-keyboard-response,1
true,12,1,2,1,true,z,false,true,0.0-2.0-0.41-0.377-3.377,0,1,0,90,false,stim,false,1,471.39999997615814,0,1,1,29097,task2,1368105,false,false,1416,image-keyboard-response,2
true,12,1,2,1,true,z,false,true,0.0-2.0-0.42-0.378-3.378,0,1,0,90,false,stim,false,1,643.8999999761581,0,1,1,29097,task2,1370276,false,false,1419,image-keyboard-response,3
true,12,0,2,1,false,z,false,false,0.0-2.0-0.42-0.379-3.379,0,1,0,81,false,stim,true,0,1197.6000000238419,0,0,0,29097,task2,1372995,false,false,1422,image-keyboard-response,4
true,12,1,2,1,true,z,false,false,0.0-2.0-0.42-0.380-3.380,0,1,0,90,false,stim,false,1,507.5,0,1,1,29097,task2,1375032,false,true,1425,image-keyboard-response,5
true,12,1,2,0,false,q,false,false,0.0-2.0-0.42-0.381-3.381,0,1,0,90,false,stim,true,1,1004.7000000476837,0,0,2,29097,task2,1377562,false,false,1428,image-keyboard-response,6
true,12,2,2,1,false,z,true,false,0.0-2.0-0.42-0.382-3.382,0,1,0,68,false,stim,false,1,477.1999999284744,0,1,1,29097,task2,1379566,false,false,1431,image-keyboard-response,7
true,12,1,2,1,true,z,false,true,0.0-2.0-0.42-0.383-3.383,0,1,0,90,false,stim,false,0,917.0,0,0,0,29097,task2,1382014,false,false,1434,image-keyboard-response,8
true,12,0,2,0,true,q,false,true,0.0-2.0-0.42-0.384-3.384,0,1,0,81,false,stim,false,1,1040.8999999761581,0,0,2,29097,task2,1384588,false,false,1437,image-keyboard-response,9
true,12,0,2,0,true,q,false,true,0.0-2.0-0.42-0.385-3.385,0,1,0,81,false,stim,false,1,616.6000000238419,0,0,2,29097,task2,1386743,false,false,1440,image-keyboard-response,10
true,12,1,2,1,true,z,false,true,0.0-2.0-0.42-0.386-3.386,0,1,0,90,false,stim,false,0,388.39999997615814,0,0,0,29097,task2,1388643,false,false,1443,image-keyboard-response,11
true,12,0,2,1,false,z,true,false,0.0-2.0-0.43-0.387-3.387,0,1,0,81,false,stim,false,1,1307.0999999046326,0,1,1,29097,task2,1391488,false,false,1446,image-keyboard-response,12
true,12,0,2,1,false,z,false,false,0.0-2.0-0.43-0.388-3.388,0,1,0,81,false,stim,true,0,673.0,0,0,0,29097,task2,1393684,false,false,1449,image-keyboard-response,13
true,12,1,2,1,true,z,false,true,0.0-2.0-0.43-0.389-3.389,0,1,0,90,false,stim,false,1,738.0,0,1,1,29097,task2,1395944,false,false,1452,image-keyboard-response,14
true,12,0,2,0,true,q,false,true,0.0-2.0-0.43-0.390-3.390,0,1,0,81,false,stim,false,1,831.3999999761581,0,0,2,29097,task2,1398304,false,false,1455,image-keyboard-response,15
true,12,1,2,1,true,z,false,true,0.0-2.0-0.43-0.391-3.391,0,1,0,90,false,stim,false,1,810.6000000238419,0,1,1,29097,task2,1400639,false,false,1458,image-keyboard-response,16
true,12,1,2,1,true,z,false,false,0.0-2.0-0.43-0.392-3.392,0,1,0,90,false,stim,false,0,623.2000000476837,0,0,0,29097,task2,1402785,false,true,1461,image-keyboard-response,17
true,12,0,2,0,true,q,false,true,0.0-2.0-0.43-0.393-3.393,0,1,0,81,false,stim,false,1,1313.0,0,0,2,29097,task2,1405621,false,false,1464,image-keyboard-response,18
true,12,1,2,0,false,q,false,false,0.0-2.0-0.43-0.394-3.394,0,1,0,90,false,stim,true,1,2173.2000000476837,0,0,2,29097,task2,1409312,false,false,1467,image-keyboard-response,19
true,12,0,2,1,false,z,false,false,0.0-2.0-0.43-0.395-3.395,0,1,0,81,false,stim,true,0,484.0,0,0,0,29097,task2,1411319,false,false,1470,image-keyboard-response,20
true,12,2,2,0,false,q,true,false,0.0-2.0-0.44-0.396-3.396,0,1,0,68,false,stim,false,1,509.60000002384186,0,0,2,29097,task2,1413349,false,false,1473,image-keyboard-response,21
true,12,1,2,1,true,z,false,true,0.0-2.0-0.44-0.397-3.397,0,1,0,90,false,stim,false,0,365.8000000715256,0,0,0,29097,task2,1415236,false,false,1476,image-keyboard-response,22
true,12,0,2,0,true,q,false,true,0.0-2.0-0.44-0.398-3.398,0,1,0,81,false,stim,false,1,632.2999999523163,0,0,2,29097,task2,1417391,false,false,1479,image-keyboard-response,23
true,12,1,2,1,true,z,false,true,0.0-2.0-0.44-0.399-3.399,0,1,0,90,false,stim,false,1,476.90000009536743,0,1,1,29097,task2,1419395,false,false,1482,image-keyboard-response,24
true,12,0,2,1,false,z,true,false,0.0-2.0-0.44-0.400-3.400,0,1,0,81,false,stim,false,1,804.5,0,1,1,29097,task2,1421738,false,false,1485,image-keyboard-response,25
true,12,2,2,0,false,q,true,false,0.0-2.0-0.44-0.401-3.401,0,1,0,68,false,stim,false,1,364.10000002384186,0,0,2,29097,task2,1423631,false,false,1488,image-keyboard-response,26
true,12,1,2,1,true,z,false,true,0.0-2.0-0.44-0.402-3.402,0,1,0,90,false,stim,false,0,1579.5,0,0,0,29097,task2,1426744,false,false,1491,image-keyboard-response,27
true,12,0,2,1,false,z,true,false,0.0-2.0-0.44-0.403-3.403,0,1,0,81,false,stim,false,1,1978.6000000238419,0,1,1,29097,task2,1430240,false,false,1494,image-keyboard-response,28
true,12,1,2,1,true,z,false,true,0.0-2.0-0.44-0.404-3.404,0,1,0,90,false,stim,false,0,539.4000000953674,0,0,0,29097,task2,1432302,false,false,1497,image-keyboard-response,29
false,12,-1,2,1,false,z,true,false,0.0-2.0-0.45-0.405-3.405,0,1,0,,false,stim,false,0,,0,0,0,29097,task2,1436846,false,false,1500,image-keyboard-response,30
true,12,2,2,0,false,q,true,false,0.0-2.0-0.45-0.406-3.406,0,1,0,68,false,stim,false,1,899.1999999284744,0,0,2,29097,task2,1439280,false,false,1503,image-keyboard-response,31
true,12,0,2,1,false,z,true,false,0.0-2.0-0.45-0.407-3.407,0,1,0,81,false,stim,false,1,821.3999999761581,0,1,1,29097,task2,1441630,false,false,1506,image-keyboard-response,32
true,12,1,2,1,true,z,false,true,0.0-2.0-0.45-0.408-3.408,0,1,0,90,false,stim,false,1,498.60000002384186,0,1,1,29097,task2,1443645,false,false,1509,image-keyboard-response,33
true,12,0,2,1,false,z,false,false,0.0-2.0-0.45-0.409-3.409,0,1,0,81,false,stim,true,0,596.3999999761581,0,0,0,29097,task2,1445756,false,false,1512,image-keyboard-response,34
true,13,1,2,0,false,q,false,false,0.0-2.0-0.45-0.410-3.410,0,1,0,90,true,stim,true,1,1177.5,0,0,0,29097,task2,1448466,false,false,1515,image-keyboard-response,1
true,13,1,2,1,true,z,false,true,0.0-2.0-0.45-0.411-3.411,0,1,0,90,false,stim,false,1,800.0,0,1,1,29097,task2,1450790,false,false,1518,image-keyboard-response,2
true,13,2,2,2,true,d,false,true,0.0-2.0-0.45-0.412-3.412,0,1,0,68,false,stim,false,0,674.1999999284744,0,0,2,29097,task2,1452995,false,false,1521,image-keyboard-response,3
true,13,2,2,2,true,d,false,true,0.0-2.0-0.45-0.413-3.413,0,1,0,68,false,stim,false,0,599.3999999761581,0,0,2,29097,task2,1455108,false,false,1524,image-keyboard-response,4
true,13,2,2,2,true,d,false,true,0.0-2.0-0.46-0.414-3.414,0,1,0,68,false,stim,false,0,651.3999999761581,0,0,2,29097,task2,1457292,false,false,1527,image-keyboard-response,5
true,13,1,2,0,false,q,false,false,0.0-2.0-0.46-0.415-3.415,0,1,0,90,false,stim,true,1,1014.5,0,0,0,29097,task2,1459818,false,false,1530,image-keyboard-response,6
true,13,2,2,2,true,d,false,true,0.0-2.0-0.46-0.416-3.416,0,1,0,68,false,stim,false,0,1192.2999999523163,0,0,2,29097,task2,1462534,false,false,1533,image-keyboard-response,7
true,13,1,2,1,true,z,false,true,0.0-2.0-0.46-0.417-3.417,0,1,0,90,false,stim,false,1,2294.7999999523163,0,1,1,29097,task2,1466358,false,false,1536,image-keyboard-response,8
true,13,2,2,2,true,d,false,true,0.0-2.0-0.46-0.418-3.418,0,1,0,68,false,stim,false,0,666.1999999284744,0,0,2,29097,task2,1468552,false,false,1539,image-keyboard-response,9
true,13,1,2,0,false,q,false,false,0.0-2.0-0.46-0.419-3.419,0,1,0,90,false,stim,true,1,774.1000000238419,0,0,0,29097,task2,1470859,false,false,1542,image-keyboard-response,10
true,13,2,2,1,false,z,true,false,0.0-2.0-0.46-0.420-3.420,0,1,0,68,false,stim,false,1,402.39999997615814,0,1,1,29097,task2,1472785,false,false,1545,image-keyboard-response,11
true,13,0,2,1,false,z,true,false,0.0-2.0-0.46-0.421-3.421,0,1,0,81,false,stim,false,1,307.0,0,1,1,29097,task2,1474607,false,false,1548,image-keyboard-response,12
true,13,1,2,0,false,q,false,false,0.0-2.0-0.46-0.422-3.422,0,1,0,90,false,stim,true,1,308.6999999284744,0,0,0,29097,task2,1476446,false,false,1551,image-keyboard-response,13
true,13,2,2,2,true,d,false,true,0.0-2.0-0.47-0.423-3.423,0,1,0,68,false,stim,false,0,1142.3000000715256,0,0,2,29097,task2,1479107,false,false,1554,image-keyboard-response,14
true,13,1,2,1,true,z,false,true,0.0-2.0-0.47-0.424-3.424,0,1,0,90,false,stim,false,1,373.7999999523163,0,1,1,29097,task2,1481004,false,false,1557,image-keyboard-response,15
true,13,2,2,0,false,q,true,false,0.0-2.0-0.47-0.425-3.425,0,1,0,68,false,stim,false,1,738.7000000476837,0,0,0,29097,task2,1483259,false,false,1560,image-keyboard-response,16
true,13,2,2,2,true,d,false,true,0.0-2.0-0.47-0.426-3.426,0,1,0,68,false,stim,false,0,848.5999999046326,0,0,2,29097,task2,1485639,false,false,1563,image-keyboard-response,17
true,13,1,2,0,false,q,false,true,0.0-2.0-0.47-0.427-3.427,0,1,0,90,false,stim,true,1,817.2000000476837,0,0,0,29097,task2,1487980,false,true,1566,image-keyboard-response,18
true,13,1,2,1,true,z,false,true,0.0-2.0-0.47-0.428-3.428,0,1,0,90,false,stim,false,1,403.09999990463257,0,1,1,29097,task2,1489913,false,false,1569,image-keyboard-response,19
true,13,2,2,2,true,d,false,true,0.0-2.0-0.47-0.429-3.429,0,1,0,68,false,stim,false,0,466.39999997615814,0,0,2,29097,task2,1491913,false,false,1572,image-keyboard-response,20
true,13,1,2,0,false,q,false,false,0.0-2.0-0.47-0.430-3.430,0,1,0,90,false,stim,true,1,507.0,0,0,0,29097,task2,1493950,false,false,1575,image-keyboard-response,21
true,13,0,2,1,false,z,true,false,0.0-2.0-0.47-0.431-3.431,0,1,0,81,false,stim,false,1,468.7000000476837,0,1,1,29097,task2,1495932,false,false,1578,image-keyboard-response,22
true,13,1,2,1,true,z,false,false,0.0-2.0-0.48-0.432-3.432,0,1,0,90,false,stim,false,1,519.7999999523163,0,1,1,29097,task2,1497978,false,true,1581,image-keyboard-response,23
true,13,2,2,1,false,z,true,false,0.0-2.0-0.48-0.433-3.433,0,1,0,68,false,stim,false,1,430.89999997615814,0,1,1,29097,task2,1499937,false,false,1584,image-keyboard-response,24
true,13,1,2,0,false,q,false,true,0.0-2.0-0.48-0.434-3.434,0,1,0,90,false,stim,true,1,290.10000002384186,0,0,0,29097,task2,1501746,false,true,1587,image-keyboard-response,25
true,13,1,2,0,false,q,false,false,0.0-2.0-0.48-0.435-3.435,0,1,0,90,false,stim,true,1,476.10000002384186,0,0,0,29097,task2,1503748,false,false,1590,image-keyboard-response,26
true,13,2,2,2,true,d,false,true,0.0-2.0-0.48-0.436-3.436,0,1,0,68,false,stim,false,0,574.6000000238419,0,0,2,29097,task2,1505848,false,false,1593,image-keyboard-response,27
true,13,0,2,1,false,z,true,false,0.0-2.0-0.48-0.437-3.437,0,1,0,81,false,stim,false,1,1045.6000000238419,0,1,1,29097,task2,1508418,false,false,1596,image-keyboard-response,28
true,13,2,2,2,true,d,false,true,0.0-2.0-0.48-0.438-3.438,0,1,0,68,false,stim,false,0,817.5,0,0,2,29097,task2,1510756,false,false,1599,image-keyboard-response,29
true,13,1,2,0,false,q,false,false,0.0-2.0-0.48-0.439-3.439,0,1,0,90,false,stim,true,1,346.5,0,0,0,29097,task2,1512632,false,false,1602,image-keyboard-response,30
true,13,2,2,2,true,d,false,true,0.0-2.0-0.48-0.440-3.440,0,1,0,68,false,stim,false,0,1192.3999999761581,0,1,2,29097,task2,1515350,false,false,1605,image-keyboard-response,31
true,13,2,2,2,true,d,false,true,0.0-2.0-0.49-0.441-3.441,0,1,0,68,false,stim,false,0,482.10000002384186,0,1,2,29097,task2,1517356,false,false,1608,image-keyboard-response,32
true,13,2,2,2,true,d,false,true,0.0-2.0-0.49-0.442-3.442,0,1,0,68,false,stim,false,0,540.0999999046326,0,1,2,29097,task2,1519426,false,false,1611,image-keyboard-response,33
true,13,1,2,0,false,q,false,false,0.0-2.0-0.49-0.443-3.443,0,1,0,90,false,stim,true,1,830.1999999284744,0,0,0,29097,task2,1521780,false,false,1614,image-keyboard-response,34
true,13,0,2,2,false,d,false,false,0.0-2.0-0.49-0.444-3.444,0,1,0,81,false,stim,true,0,286.6999999284744,0,1,2,29097,task2,1523589,false,false,1617,image-keyboard-response,35
true,14,1,2,2,false,d,true,false,0.0-2.0-0.49-0.445-3.445,0,0,1,90,true,stim,false,0,110.10000002384186,0,0,0,29097,task2,1525225,false,false,1620,image-keyboard-response,1
true,14,1,2,0,false,q,false,false,0.0-2.0-0.49-0.446-3.446,0,0,1,90,false,stim,true,1,824.7000000476837,0,0,1,29097,task2,1527571,false,false,1623,image-keyboard-response,2
true,14,0,2,2,false,d,false,false,0.0-2.0-0.49-0.447-3.447,0,0,1,81,false,stim,true,0,671.8000000715256,0,0,0,29097,task2,1529775,false,false,1626,image-keyboard-response,3
true,14,2,2,0,false,q,true,false,0.0-2.0-0.49-0.448-3.448,0,0,1,68,false,stim,false,1,705.3000000715256,0,0,1,29097,task2,1532002,false,false,1629,image-keyboard-response,4
true,14,1,2,0,false,q,false,false,0.0-2.0-0.49-0.449-3.449,0,0,1,90,false,stim,true,1,857.6000000238419,0,0,1,29097,task2,1534384,false,false,1632,image-keyboard-response,5
true,14,2,2,2,true,d,false,true,0.0-2.0-0.50-0.450-3.450,0,0,1,68,false,stim,false,2,900.3999999761581,0,1,2,29097,task2,1536817,false,false,1635,image-keyboard-response,6
true,14,0,2,2,false,d,false,false,0.0-2.0-0.50-0.451-3.451,0,0,1,81,false,stim,true,0,778.2999999523163,0,0,0,29097,task2,1539126,false,false,1638,image-keyboard-response,7
true,14,1,2,2,false,d,true,false,0.0-2.0-0.50-0.452-3.452,0,0,1,90,false,stim,false,0,641.3000000715256,0,0,0,29097,task2,1541302,false,false,1641,image-keyboard-response,8
true,14,1,2,0,false,q,false,true,0.0-2.0-0.50-0.453-3.453,0,0,1,90,false,stim,true,1,1222.7000000476837,0,0,1,29097,task2,1544050,false,true,1644,image-keyboard-response,9
true,14,2,2,2,true,d,false,true,0.0-2.0-0.50-0.454-3.454,0,0,1,68,false,stim,false,2,1222.6999999284744,0,1,2,29097,task2,1546802,false,false,1647,image-keyboard-response,10
true,14,2,2,2,true,d,false,true,0.0-2.0-0.50-0.455-3.455,0,0,1,68,false,stim,false,2,674.5,0,1,2,29097,task2,1548996,false,false,1650,image-keyboard-response,11
true,14,1,2,2,false,d,true,false,0.0-2.0-0.50-0.456-3.456,0,0,1,90,false,stim,false,0,865.7999999523163,0,0,0,29097,task2,1551384,false,false,1653,image-keyboard-response,12
true,14,0,2,0,true,q,false,true,0.0-2.0-0.50-0.457-3.457,0,0,1,81,false,stim,false,1,465.7000000476837,0,0,1,29097,task2,1553376,false,false,1656,image-keyboard-response,13
true,14,0,2,0,true,q,false,true,0.0-2.0-0.50-0.458-3.458,0,0,1,81,false,stim,false,1,820.1000000238419,0,0,1,29097,task2,1555727,false,false,1659,image-keyboard-response,14
true,14,2,2,2,true,d,false,true,0.0-2.0-0.51-0.459-3.459,0,0,1,68,false,stim,false,0,907.1000000238419,0,0,0,29097,task2,1558163,false,false,1662,image-keyboard-response,15
true,14,2,2,2,true,d,false,true,0.0-2.0-0.51-0.460-3.460,0,0,1,68,false,stim,false,2,1831.3999999761581,0,1,2,29097,task2,1561523,false,false,1665,image-keyboard-response,16
true,14,2,2,2,true,d,false,true,0.0-2.0-0.51-0.461-3.461,0,0,1,68,false,stim,false,2,618.7999999523163,0,1,2,29097,task2,1563666,false,false,1668,image-keyboard-response,17
true,14,2,2,0,false,q,true,false,0.0-2.0-0.51-0.462-3.462,0,0,1,68,false,stim,false,1,906.2999999523163,0,0,1,29097,task2,1566095,false,false,1671,image-keyboard-response,18
true,14,0,2,2,false,d,false,false,0.0-2.0-0.51-0.463-3.463,0,0,1,81,false,stim,true,0,260.2000000476837,0,0,0,29097,task2,1567878,false,false,1674,image-keyboard-response,19
true,14,1,2,2,false,d,true,false,0.0-2.0-0.51-0.464-3.464,0,0,1,90,false,stim,false,2,323.0,0,1,2,29097,task2,1569723,false,false,1677,image-keyboard-response,20
true,14,1,2,2,false,d,true,false,0.0-2.0-0.51-0.465-3.465,0,0,1,90,false,stim,false,0,1800.4000000953674,0,0,0,29097,task2,1573042,false,false,1680,image-keyboard-response,21
true,14,0,2,0,true,q,false,true,0.0-2.0-0.51-0.466-3.466,0,0,1,81,false,stim,false,1,2438.4000000953674,0,0,1,29097,task2,1576999,false,false,1683,image-keyboard-response,22
true,14,0,2,0,true,q,false,false,0.0-2.0-0.51-0.467-3.467,0,0,1,81,false,stim,false,1,526.5999999046326,0,0,1,29097,task2,1579050,false,true,1686,image-keyboard-response,23
true,14,2,2,2,true,d,false,true,0.0-2.0-0.52-0.468-3.468,0,0,1,68,false,stim,false,2,1046.2000000476837,0,1,2,29097,task2,1581619,false,false,1689,image-keyboard-response,24
true,14,2,2,2,true,d,false,true,0.0-2.0-0.52-0.469-3.469,0,0,1,68,false,stim,false,2,587.6000000238419,0,1,2,29097,task2,1583731,false,false,1692,image-keyboard-response,25
true,14,1,2,2,false,d,true,false,0.0-2.0-0.52-0.470-3.470,0,0,1,90,false,stim,false,0,713.2000000476837,0,0,0,29097,task2,1585966,false,false,1695,image-keyboard-response,26
true,14,0,2,2,false,d,false,false,0.0-2.0-0.52-0.471-3.471,0,0,1,81,false,stim,true,0,624.1000000238419,0,1,0,29097,task2,1588116,false,false,1698,image-keyboard-response,27
true,14,1,2,0,false,q,false,false,0.0-2.0-0.52-0.472-3.472,0,0,1,90,false,stim,true,1,919.7999999523163,0,0,1,29097,task2,1590563,false,false,1701,image-keyboard-response,28
true,14,2,2,2,true,d,false,true,0.0-2.0-0.52-0.473-3.473,0,0,1,68,false,stim,false,2,1029.8999999761581,0,0,2,29097,task2,1593106,false,false,1704,image-keyboard-response,29
true,14,2,2,0,false,q,true,false,0.0-2.0-0.52-0.474-3.474,0,0,1,68,false,stim,false,1,711.2999999523163,0,0,1,29097,task2,1595349,false,false,1707,image-keyboard-response,30
true,14,1,2,0,false,q,false,false,0.0-2.0-0.52-0.475-3.475,0,0,1,90,false,stim,true,1,312.39999997615814,0,0,1,29097,task2,1597186,false,false,1710,image-keyboard-response,31
true,15,0,2,2,false,d,true,false,0.0-2.0-0.52-0.476-3.476,1,0,0,81,true,stim,false,2,784.3999999761581,0,1,0,29097,task2,1599499,false,false,1713,image-keyboard-response,1
true,15,2,2,1,false,z,false,false,0.0-2.0-0.53-0.477-3.477,1,0,0,68,false,stim,true,2,841.3999999761581,0,0,2,29097,task2,1601867,false,false,1716,image-keyboard-response,2
true,15,1,2,2,false,d,true,false,0.0-2.0-0.53-0.478-3.478,1,0,0,90,false,stim,false,2,756.6000000238419,0,1,0,29097,task2,1604155,false,false,1719,image-keyboard-response,3
true,15,0,2,1,false,z,false,false,0.0-2.0-0.53-0.479-3.479,1,0,0,81,false,stim,true,0,611.8999999761581,0,0,1,29097,task2,1606281,false,false,1722,image-keyboard-response,4
true,15,1,2,1,true,z,false,true,0.0-2.0-0.53-0.480-3.480,1,0,0,90,false,stim,false,0,516.0999999046326,0,0,1,29097,task2,1608324,false,false,1725,image-keyboard-response,5
true,15,1,2,1,true,z,false,true,0.0-2.0-0.53-0.481-3.481,1,0,0,90,false,stim,false,2,695.4000000953674,0,0,2,29097,task2,1610550,false,false,1728,image-keyboard-response,6
true,15,1,2,1,true,z,false,true,0.0-2.0-0.53-0.482-3.482,1,0,0,90,false,stim,false,0,819.4000000953674,0,0,1,29097,task2,1612883,false,false,1731,image-keyboard-response,7
true,15,0,2,2,false,d,true,false,0.0-2.0-0.53-0.483-3.483,1,0,0,81,false,stim,false,2,780.5,0,1,0,29097,task2,1615193,false,false,1734,image-keyboard-response,8
true,15,2,2,2,true,d,false,true,0.0-2.0-0.53-0.484-3.484,1,0,0,68,false,stim,false,2,570.4000000953674,0,1,0,29097,task2,1617297,false,false,1737,image-keyboard-response,9
true,15,1,2,1,true,z,false,false,0.0-2.0-0.53-0.485-3.485,1,0,0,90,false,stim,false,2,1802.0,0,0,2,29097,task2,1620621,false,true,1740,image-keyboard-response,10
true,15,2,2,1,false,z,false,false,0.0-2.0-0.54-0.486-3.486,1,0,0,68,false,stim,true,2,1108.1000000238419,0,0,2,29097,task2,1623254,false,false,1743,image-keyboard-response,11
true,15,1,2,1,true,z,false,true,0.0-2.0-0.54-0.487-3.487,1,0,0,90,false,stim,false,0,1098.2999999523163,0,0,1,29097,task2,1625884,false,false,1746,image-keyboard-response,12
true,15,1,2,1,true,z,false,true,0.0-2.0-0.54-0.488-3.488,1,0,0,90,false,stim,false,0,457.2999999523163,0,0,1,29097,task2,1627865,false,false,1749,image-keyboard-response,13
true,15,2,2,2,true,d,false,true,0.0-2.0-0.54-0.489-3.489,1,0,0,68,false,stim,false,2,1190.5999999046326,0,1,0,29097,task2,1630582,false,false,1752,image-keyboard-response,14
true,15,2,2,2,true,d,false,true,0.0-2.0-0.54-0.490-3.490,1,0,0,68,false,stim,false,2,503.60000002384186,0,1,0,29097,task2,1632616,false,false,1755,image-keyboard-response,15
true,15,0,2,1,false,z,true,false,0.0-2.0-0.54-0.491-3.491,1,0,0,81,false,stim,false,2,2021.6000000238419,0,0,2,29097,task2,1636156,false,false,1758,image-keyboard-response,16
true,15,1,2,2,false,d,true,false,0.0-2.0-0.54-0.492-3.492,1,0,0,90,false,stim,false,2,764.1000000238419,0,1,0,29097,task2,1638441,false,false,1761,image-keyboard-response,17
true,15,2,2,1,false,z,false,false,0.0-2.0-0.54-0.493-3.493,1,0,0,68,false,stim,true,2,865.1999999284744,0,0,2,29097,task2,1640842,false,false,1764,image-keyboard-response,18
true,15,1,2,1,true,z,false,true,0.0-2.0-0.54-0.494-3.494,1,0,0,90,false,stim,false,0,1516.1000000238419,0,0,1,29097,task2,1643892,false,false,1767,image-keyboard-response,19
true,15,0,2,2,false,d,true,false,0.0-2.0-0.55-0.495-3.495,1,0,0,81,false,stim,false,2,1658.8000000715256,0,1,0,29097,task2,1647070,false,false,1770,image-keyboard-response,20
true,15,1,2,2,false,d,true,false,0.0-2.0-0.55-0.496-3.496,1,0,0,90,false,stim,false,2,635.0,0,1,0,29097,task2,1649242,false,false,1773,image-keyboard-response,21
true,15,2,2,1,false,z,false,false,0.0-2.0-0.55-0.497-3.497,1,0,0,68,false,stim,true,2,327.2999999523163,0,0,2,29097,task2,1651100,false,false,1776,image-keyboard-response,22
true,15,1,2,1,true,z,false,false,0.0-2.0-0.55-0.498-3.498,1,0,0,90,false,stim,false,0,644.2000000476837,0,0,1,29097,task2,1653268,false,true,1779,image-keyboard-response,23
true,15,0,2,1,false,z,true,false,0.0-2.0-0.55-0.499-3.499,1,0,0,81,false,stim,false,2,751.3999999761581,0,0,2,29097,task2,1655535,false,false,1782,image-keyboard-response,24
false,15,-1,2,2,false,d,true,false,0.0-2.0-0.55-0.500-3.500,1,0,0,,false,stim,false,2,,0,1,0,29097,task2,1660073,false,false,1785,image-keyboard-response,25
true,15,1,2,1,true,z,false,true,0.0-2.0-0.55-0.501-3.501,1,0,0,90,false,stim,false,0,449.59999990463257,0,0,1,29097,task2,1662049,false,false,1788,image-keyboard-response,26
true,15,1,2,1,true,z,false,true,0.0-2.0-0.55-0.502-3.502,1,0,0,90,false,stim,false,0,574.5,0,1,1,29097,task2,1664146,false,false,1791,image-keyboard-response,27
true,15,2,2,1,false,z,false,false,0.0-2.0-0.55-0.503-3.503,1,0,0,68,false,stim,true,2,810.2999999523163,0,1,2,29097,task2,1666481,false,false,1794,image-keyboard-response,28
true,15,1,2,2,false,d,true,false,0.0-2.0-0.56-0.504-3.504,1,0,0,90,false,stim,false,2,827.0999999046326,0,1,0,29097,task2,1668825,false,false,1797,image-keyboard-response,29
true,15,0,2,1,false,z,true,false,0.0-2.0-0.56-0.505-3.505,1,0,0,81,false,stim,false,2,717.8000000715256,0,1,2,29097,task2,1671068,false,false,1800,image-keyboard-response,30
true,15,0,2,2,false,d,true,false,0.0-2.0-0.56-0.506-3.506,1,0,0,81,false,stim,false,2,753.3000000715256,0,1,0,29097,task2,1673352,false,false,1803,image-keyboard-response,31
true,16,2,0,1,false,z,true,false,0.0-2.0-0.56-0.507-3.507,1,1,1,68,true,stim,false,1,2107.0999999046326,0,1,2,29097,task2,1798246,false,false,1926,image-keyboard-response,1
true,16,1,0,1,true,z,false,true,0.0-2.0-0.56-0.508-3.508,1,1,1,90,false,stim,false,1,1329.5,0,1,1,29097,task2,1801098,false,false,1929,image-keyboard-response,2
true,16,1,0,2,false,d,true,false,0.0-2.0-0.56-0.509-3.509,1,1,1,90,false,stim,false,2,1004.3000000715256,0,1,0,29097,task2,1803619,false,false,1932,image-keyboard-response,3
true,16,1,0,1,true,z,false,true,0.0-2.0-0.56-0.510-3.510,1,1,1,90,false,stim,false,1,807.6999999284744,0,1,1,29097,task2,1805952,false,false,1935,image-keyboard-response,4
true,16,0,0,1,false,z,true,false,0.0-2.0-0.56-0.511-3.511,1,1,1,81,false,stim,false,1,467.5,0,1,2,29097,task2,1807937,false,false,1938,image-keyboard-response,5
true,16,1,0,1,true,z,false,true,0.0-2.0-0.56-0.512-3.512,1,1,1,90,false,stim,false,1,727.0,0,1,1,29097,task2,1810198,false,false,1941,image-keyboard-response,6
true,16,2,0,1,false,z,true,false,0.0-2.0-0.57-0.513-3.513,1,1,1,68,false,stim,false,1,633.0,0,1,2,29097,task2,1812354,false,false,1944,image-keyboard-response,7
true,16,1,0,1,true,z,false,true,0.0-2.0-0.57-0.514-3.514,1,1,1,90,false,stim,false,1,680.5,0,1,1,29097,task2,1814557,false,false,1947,image-keyboard-response,8
true,16,1,0,2,false,d,true,false,0.0-2.0-0.57-0.515-3.515,1,1,1,90,false,stim,false,2,759.6000000238419,0,0,0,29097,task2,1816844,false,false,1950,image-keyboard-response,9
true,16,0,0,2,false,d,true,false,0.0-2.0-0.57-0.516-3.516,1,1,1,81,false,stim,false,2,610.1000000238419,0,0,0,29097,task2,1818981,false,false,1953,image-keyboard-response,10
true,16,1,0,1,true,z,false,true,0.0-2.0-0.57-0.517-3.517,1,1,1,90,false,stim,false,1,1226.0,0,1,1,29097,task2,1821726,false,false,1956,image-keyboard-response,11
true,16,2,0,1,false,z,true,true,0.0-2.0-0.57-0.518-3.518,1,1,1,68,false,stim,false,1,859.9000000953674,0,0,2,29097,task2,1824113,false,true,1959,image-keyboard-response,12
true,16,2,0,1,false,z,true,false,0.0-2.0-0.57-0.519-3.519,1,1,1,68,false,stim,false,1,2397.3000000715256,0,0,2,29097,task2,1828031,false,false,1962,image-keyboard-response,13
true,17,0,2,0,true,q,false,true,0.0-2.0-0.57-0.520-3.520,0,1,0,81,true,stim,false,2,1649.3999999761581,0,0,0,29097,task2,1831202,false,false,1965,image-keyboard-response,1
true,17,1,2,1,true,z,false,true,0.0-2.0-0.57-0.521-3.521,0,1,0,90,false,stim,false,1,762.3999999761581,0,1,1,29097,task2,1833481,false,false,1968,image-keyboard-response,2
true,17,1,2,1,true,z,false,true,0.0-2.0-0.58-0.522-3.522,0,1,0,90,false,stim,false,1,1046.0999999046326,0,1,1,29097,task2,1836053,false,false,1971,image-keyboard-response,3
false,17,-1,2,0,false,q,true,false,0.0-2.0-0.58-0.523-3.523,0,1,0,,false,stim,false,1,,0,0,2,29097,task2,1840600,false,false,1974,image-keyboard-response,4
true,17,1,2,0,false,q,false,false,0.0-2.0-0.58-0.524-3.524,0,1,0,90,false,stim,true,1,869.0,0,0,2,29097,task2,1843001,false,false,1977,image-keyboard-response,5
true,17,0,2,0,true,q,false,true,0.0-2.0-0.58-0.525-3.525,0,1,0,81,false,stim,false,1,996.5,0,0,2,29097,task2,1845523,false,false,1980,image-keyboard-response,6
true,17,0,2,0,true,q,false,true,0.0-2.0-0.58-0.526-3.526,0,1,0,81,false,stim,false,2,834.3999999761581,0,0,0,29097,task2,1847885,false,false,1983,image-keyboard-response,7
true,17,0,2,0,true,q,false,true,0.0-2.0-0.58-0.527-3.527,0,1,0,81,false,stim,false,2,521.2000000476837,0,0,0,29097,task2,1849927,false,false,1986,image-keyboard-response,8
true,17,0,2,0,true,q,false,true,0.0-2.0-0.58-0.528-3.528,0,1,0,81,false,stim,false,2,442.59999990463257,0,0,0,29097,task2,1851897,false,false,1989,image-keyboard-response,9
true,17,1,2,1,true,z,false,true,0.0-2.0-0.58-0.529-3.529,0,1,0,90,false,stim,false,1,883.3999999761581,0,1,1,29097,task2,1854305,false,false,1992,image-keyboard-response,10
true,17,1,2,1,true,z,false,true,0.0-2.0-0.58-0.530-3.530,0,1,0,90,false,stim,false,1,573.1000000238419,0,1,1,29097,task2,1856402,false,false,1995,image-keyboard-response,11
true,17,0,2,0,true,q,false,false,0.0-2.0-0.59-0.531-3.531,0,1,0,81,false,stim,false,1,842.2000000476837,0,0,2,29097,task2,1858780,false,true,1998,image-keyboard-response,12
true,17,1,2,0,false,q,false,true,0.0-2.0-0.59-0.532-3.532,0,1,0,90,false,stim,true,1,410.60000002384186,0,0,2,29097,task2,1860722,false,true,2001,image-keyboard-response,13
true,17,1,2,1,true,z,false,true,0.0-2.0-0.59-0.533-3.533,0,1,0,90,false,stim,false,1,716.7999999523163,0,1,1,29097,task2,1862967,false,false,2004,image-keyboard-response,14
true,17,0,2,0,true,q,false,true,0.0-2.0-0.59-0.534-3.534,0,1,0,81,false,stim,false,2,762.0,0,0,0,29097,task2,1865267,false,false,2007,image-keyboard-response,15
true,17,0,2,0,true,q,false,true,0.0-2.0-0.59-0.535-3.535,0,1,0,81,false,stim,false,2,762.1999999284744,0,0,0,29097,task2,1867566,false,false,2010,image-keyboard-response,16
true,17,1,2,1,true,z,false,true,0.0-2.0-0.59-0.536-3.536,0,1,0,90,false,stim,false,1,814.0,0,1,1,29097,task2,1869917,false,false,2013,image-keyboard-response,17
true,17,1,2,1,true,z,false,true,0.0-2.0-0.59-0.537-3.537,0,1,0,90,false,stim,false,1,369.7999999523163,0,1,1,29097,task2,1871801,false,false,2016,image-keyboard-response,18
true,17,1,2,0,false,q,false,false,0.0-2.0-0.59-0.538-3.538,0,1,0,90,false,stim,true,1,1282.7000000476837,0,0,2,29097,task2,1874615,false,false,2019,image-keyboard-response,19
true,17,0,2,0,true,q,false,false,0.0-2.0-0.59-0.539-3.539,0,1,0,81,false,stim,false,2,916.8999999761581,0,0,0,29097,task2,1877062,false,true,2022,image-keyboard-response,20
true,17,1,2,0,false,q,false,true,0.0-2.0-0.60-0.540-3.540,0,1,0,90,false,stim,true,1,754.8000000715256,0,0,2,29097,task2,1879333,false,true,2025,image-keyboard-response,21
true,17,1,2,0,false,q,false,false,0.0-2.0-0.60-0.541-3.541,0,1,0,90,false,stim,true,1,489.10000002384186,0,0,2,29097,task2,1881341,false,false,2028,image-keyboard-response,22
true,17,2,2,0,false,q,true,false,0.0-2.0-0.60-0.542-3.542,0,1,0,68,false,stim,false,1,453.7000000476837,0,0,2,29097,task2,1883321,false,false,2031,image-keyboard-response,23
true,17,1,2,0,false,q,true,false,0.0-2.0-0.60-0.543-3.543,0,1,0,90,false,stim,false,2,633.3999999761581,0,0,0,29097,task2,1885478,false,false,2034,image-keyboard-response,24
true,17,2,2,0,false,q,false,false,0.0-2.0-0.60-0.544-3.544,0,1,0,68,false,stim,true,2,435.89999997615814,0,0,0,29097,task2,1887442,false,false,2037,image-keyboard-response,25
true,17,1,2,1,true,z,false,false,0.0-2.0-0.60-0.545-3.545,0,1,0,90,false,stim,false,1,700.7999999523163,0,1,1,29097,task2,1889665,false,true,2040,image-keyboard-response,26
true,17,1,2,1,true,z,false,true,0.0-2.0-0.60-0.546-3.546,0,1,0,90,false,stim,false,1,503.10000002384186,0,1,1,29097,task2,1891683,false,false,2043,image-keyboard-response,27
true,17,1,2,1,true,z,false,false,0.0-2.0-0.60-0.547-3.547,0,1,0,90,false,stim,false,1,919.8999999761581,0,1,1,29097,task2,1894117,false,true,2046,image-keyboard-response,28
true,17,0,2,0,true,q,false,false,0.0-2.0-0.60-0.548-3.548,0,1,0,81,false,stim,false,2,644.6999999284744,0,0,0,29097,task2,1896277,false,true,2049,image-keyboard-response,29
true,17,1,2,0,false,q,true,false,0.0-2.0-0.61-0.549-3.549,0,1,0,90,false,stim,false,2,512.3000000715256,0,0,0,29097,task2,1898312,false,false,2052,image-keyboard-response,30
true,17,2,2,1,false,z,true,false,0.0-2.0-0.61-0.550-3.550,0,1,0,68,false,stim,false,1,164.60000002384186,0,1,1,29097,task2,1900001,false,false,2055,image-keyboard-response,31
true,18,1,2,2,false,d,true,false,0.0-2.0-0.61-0.551-3.551,0,1,0,90,true,stim,false,0,301.0,0,0,0,29097,task2,1901831,false,false,2058,image-keyboard-response,1
true,18,0,2,1,false,z,true,false,0.0-2.0-0.61-0.552-3.552,0,1,0,81,false,stim,false,1,1152.3000000715256,0,1,1,29097,task2,1904506,false,false,2061,image-keyboard-response,2
true,18,1,2,2,false,d,true,false,0.0-2.0-0.61-0.553-3.553,0,1,0,90,false,stim,false,0,878.3999999761581,0,0,2,29097,task2,1906902,false,false,2064,image-keyboard-response,3
true,18,2,2,1,false,z,true,false,0.0-2.0-0.61-0.554-3.554,0,1,0,68,false,stim,false,1,765.1999999284744,0,1,1,29097,task2,1909202,false,false,2067,image-keyboard-response,4
true,18,1,2,2,false,d,true,false,0.0-2.0-0.61-0.555-3.555,0,1,0,90,false,stim,false,0,77.70000004768372,0,0,2,29097,task2,1910814,false,false,2070,image-keyboard-response,5
true,18,0,2,2,false,d,false,false,0.0-2.0-0.61-0.556-3.556,0,1,0,81,false,stim,true,0,213.39999997615814,0,0,2,29097,task2,1912547,false,false,2073,image-keyboard-response,6
true,18,1,2,2,false,d,true,false,0.0-2.0-0.61-0.557-3.557,0,1,0,90,false,stim,false,0,677.0,0,0,0,29097,task2,1914755,false,false,2076,image-keyboard-response,7
true,18,2,2,2,true,d,false,true,0.0-2.0-0.62-0.558-3.558,0,1,0,68,false,stim,false,0,806.2999999523163,0,0,2,29097,task2,1917092,false,false,2079,image-keyboard-response,8
true,18,0,2,1,false,z,true,false,0.0-2.0-0.62-0.559-3.559,0,1,0,81,false,stim,false,1,848.0,0,1,1,29097,task2,1919461,false,false,2082,image-keyboard-response,9
true,18,1,2,1,true,z,false,true,0.0-2.0-0.62-0.560-3.560,0,1,0,90,false,stim,false,1,598.1999999284744,0,1,1,29097,task2,1921588,false,false,2085,image-keyboard-response,10
true,18,0,2,2,false,d,false,false,0.0-2.0-0.62-0.561-3.561,0,1,0,81,false,stim,true,0,824.9000000953674,0,0,0,29097,task2,1923945,false,false,2088,image-keyboard-response,11
true,18,1,2,1,true,z,false,true,0.0-2.0-0.62-0.562-3.562,0,1,0,90,false,stim,false,1,671.8000000715256,0,1,1,29097,task2,1926151,false,false,2091,image-keyboard-response,12
true,18,1,2,2,false,d,true,true,0.0-2.0-0.62-0.563-3.563,0,1,0,90,false,stim,false,0,602.7000000476837,0,0,0,29097,task2,1928282,false,true,2094,image-keyboard-response,13
true,18,2,2,2,true,d,false,true,0.0-2.0-0.62-0.564-3.564,0,1,0,68,false,stim,false,0,1861.8999999761581,0,0,2,29097,task2,1931657,false,false,2097,image-keyboard-response,14
true,18,1,2,2,false,d,true,false,0.0-2.0-0.62-0.565-3.565,0,1,0,90,false,stim,false,0,418.10000002384186,0,0,0,29097,task2,1933598,false,false,2100,image-keyboard-response,15
true,18,2,2,2,true,d,false,true,0.0-2.0-0.62-0.566-3.566,0,1,0,68,false,stim,false,0,674.7999999523163,0,0,2,29097,task2,1935799,false,false,2103,image-keyboard-response,16
true,18,1,2,1,true,z,false,true,0.0-2.0-0.63-0.567-3.567,0,1,0,90,false,stim,false,1,1404.8000000715256,0,1,1,29097,task2,1938727,false,false,2106,image-keyboard-response,17
true,18,2,2,2,true,d,false,true,0.0-2.0-0.63-0.568-3.568,0,1,0,68,false,stim,false,0,757.6000000238419,0,0,2,29097,task2,1941011,false,false,2109,image-keyboard-response,18
true,18,1,2,2,false,d,true,false,0.0-2.0-0.63-0.569-3.569,0,1,0,90,false,stim,false,0,422.7999999523163,0,0,0,29097,task2,1942959,false,false,2112,image-keyboard-response,19
true,18,2,2,1,false,z,true,false,0.0-2.0-0.63-0.570-3.570,0,1,0,68,false,stim,false,1,370.60000002384186,0,1,1,29097,task2,1944859,false,false,2115,image-keyboard-response,20
true,18,0,2,2,false,d,false,false,0.0-2.0-0.63-0.571-3.571,0,1,0,81,false,stim,true,0,323.1999999284744,0,0,0,29097,task2,1946709,false,false,2118,image-keyboard-response,21
true,18,1,2,2,false,d,true,false,0.0-2.0-0.63-0.572-3.572,0,1,0,90,false,stim,false,0,330.5,0,0,2,29097,task2,1948568,false,false,2121,image-keyboard-response,22
true,18,2,2,1,false,z,true,false,0.0-2.0-0.63-0.573-3.573,0,1,0,68,false,stim,false,1,454.0,0,1,1,29097,task2,1950548,false,false,2124,image-keyboard-response,23
true,18,1,2,2,false,d,true,false,0.0-2.0-0.63-0.574-3.574,0,1,0,90,false,stim,false,0,1890.6000000238419,0,0,0,29097,task2,1953954,false,false,2127,image-keyboard-response,24
true,18,2,2,2,true,d,false,true,0.0-2.0-0.63-0.575-3.575,0,1,0,68,false,stim,false,0,1275.5,0,0,2,29097,task2,1956749,false,false,2130,image-keyboard-response,25
true,18,1,2,2,false,d,true,false,0.0-2.0-0.64-0.576-3.576,0,1,0,90,false,stim,false,0,2220.5,0,0,0,29097,task2,1960501,false,false,2133,image-keyboard-response,26
true,18,1,2,1,true,z,false,true,0.0-2.0-0.64-0.577-3.577,0,1,0,90,false,stim,false,1,375.2999999523163,0,0,1,29097,task2,1962401,false,false,2136,image-keyboard-response,27
true,18,2,2,2,true,d,false,true,0.0-2.0-0.64-0.578-3.578,0,1,0,68,false,stim,false,0,604.8000000715256,0,0,2,29097,task2,1964536,false,false,2139,image-keyboard-response,28
true,18,2,2,2,true,d,false,true,0.0-2.0-0.64-0.579-3.579,0,1,0,68,false,stim,false,0,1059.5999999046326,0,0,0,29097,task2,1967121,false,false,2142,image-keyboard-response,29
true,18,2,2,2,true,d,false,true,0.0-2.0-0.64-0.580-3.580,0,1,0,68,false,stim,false,0,911.4000000953674,0,0,2,29097,task2,1969558,false,false,2145,image-keyboard-response,30
true,18,2,2,2,true,d,false,true,0.0-2.0-0.64-0.581-3.581,0,1,0,68,false,stim,false,0,403.60000002384186,0,0,2,29097,task2,1971477,false,false,2148,image-keyboard-response,31
true,19,1,1,2,false,d,false,false,0.0-2.0-0.64-0.582-3.582,0,0,0,90,true,stim,true,1,672.7000000476837,0,0,1,29097,task2,1973664,false,false,2151,image-keyboard-response,1
true,19,2,1,0,false,q,false,false,0.0-2.0-0.64-0.583-3.583,0,0,0,68,false,stim,true,2,937.8000000715256,0,0,0,29097,task2,1976130,false,false,2154,image-keyboard-response,2
true,19,0,1,2,false,d,true,false,0.0-2.0-0.64-0.584-3.584,0,0,0,81,false,stim,false,1,750.2000000476837,0,0,1,29097,task2,1978407,false,false,2157,image-keyboard-response,3
true,19,2,1,2,true,d,false,true,0.0-2.0-0.65-0.585-3.585,0,0,0,68,false,stim,false,1,376.60000002384186,0,0,1,29097,task2,1980303,false,false,2160,image-keyboard-response,4
true,19,2,1,2,true,d,false,true,0.0-2.0-0.65-0.586-3.586,0,0,0,68,false,stim,false,1,456.6999999284744,0,0,1,29097,task2,1982288,false,false,2163,image-keyboard-response,5
true,19,1,1,0,false,q,true,false,0.0-2.0-0.65-0.587-3.587,0,0,0,90,false,stim,false,2,2469.5999999046326,0,0,0,29097,task2,1986291,false,false,2166,image-keyboard-response,6
true,19,2,1,0,false,q,false,false,0.0-2.0-0.65-0.588-3.588,0,0,0,68,false,stim,true,2,557.7999999523163,0,0,2,29097,task2,1988372,false,false,2169,image-keyboard-response,7
