answered,blockNum,choice,condition,corResp,correct,correct_response,explo,fb,internal_node_id,isStable_1,isStable_2,isStable_3,key_press,newBlock,part,persev,persevResp,rt,sessNum,stableAS,stimulus,subject,task,time_elapsed,training,trap,trial_index,trial_type,trialsInBlock
true,1,0,0,1,false,z,true,true,0.0-2.0-0.0-0.0-3.0,0,0,0,81,true,stim,false,-1,1173.8000000715256,1,0,0,29097,task3,166976,false,true,79,image-keyboard-response,1
true,1,0,0,0,true,q,false,true,0.0-2.0-0.0-0.1-3.1,0,0,0,81,false,stim,false,-1,689.8999999761581,1,0,1,29097,task3,169176,false,false,82,image-keyboard-response,2
true,1,0,0,1,false,z,true,false,0.0-2.0-0.0-0.2-3.2,0,0,0,81,false,stim,false,-1,594.7000000476837,1,0,0,29097,task3,171298,false,false,85,image-keyboard-response,3
true,1,1,0,2,false,d,true,false,0.0-2.0-0.0-0.3-3.3,0,0,0,90,false,stim,false,-1,626.3000000715256,1,0,2,29097,task3,173443,false,false,88,image-keyboard-response,4
true,1,2,0,2,true,d,false,true,0.0-2.0-0.0-0.4-3.4,0,0,0,68,false,stim,false,-1,481.10000002384186,1,0,2,29097,task3,175446,false,false,91,image-keyboard-response,5
true,1,2,0,2,true,d,false,true,0.0-2.0-0.0-0.5-3.5,0,0,0,68,false,stim,false,-1,353.39999997615814,1,0,2,29097,task3,177320,false,false,94,image-keyboard-response,6
true,1,0,0,1,false,z,true,true,0.0-2.0-0.0-0.6-3.6,0,0,0,81,false,stim,false,-1,499.8000000715256,1,0,0,29097,task3,179350,false,true,97,image-keyboard-response,7
true,1,0,0,0,true,q,false,true,0.0-2.0-0.0-0.7-3.7,0,0,0,81,false,stim,false,-1,552.7999999523163,1,0,1,29097,task3,181421,false,false,100,image-keyboard-response,8
true,1,0,0,0,true,q,false,true,0.0-2.0-0.0-0.8-3.8,0,0,0,81,false,stim,false,-1,425.2999999523163,1,0,1,29097,task3,183373,false,false,103,image-keyboard-response,9
true,1,0,0,0,true,q,false,true,0.0-2.0-0.1-0.9-3.9,0,0,0,81,false,stim,false,-1,372.39999997615814,1,0,1,29097,task3,185271,false,false,106,image-keyboard-response,10
true,1,0,0,1,false,z,true,false,0.0-2.0-0.1-0.10-3.10,0,0,0,81,false,stim,false,-1,610.8000000715256,1,0,0,29097,task3,187406,false,false,109,image-keyboard-response,11
true,1,2,0,2,true,d,false,true,0.0-2.0-0.1-0.11-3.11,0,0,0,68,false,stim,false,-1,582.2000000476837,1,0,2,29097,task3,189513,false,false,112,image-keyboard-response,12
true,1,0,0,1,false,z,true,false,0.0-2.0-0.1-0.12-3.12,0,0,0,81,false,stim,false,-1,828.6999999284744,1,0,0,29097,task3,191872,false,false,115,image-keyboard-response,13
true,1,0,0,0,true,q,false,true,0.0-2.0-0.1-0.13-3.13,0,0,0,81,false,stim,false,-1,686.1000000238419,1,0,1,29097,task3,194081,false,false,118,image-keyboard-response,14
true,1,0,0,0,true,q,false,true,0.0-2.0-0.1-0.14-3.14,0,0,0,81,false,stim,false,-1,764.3999999761581,1,0,1,29097,task3,196364,false,false,121,image-keyboard-response,15
true,1,1,0,1,true,z,false,true,0.0-2.0-0.1-0.15-3.15,0,0,0,90,false,stim,false,-1,1343.1000000238419,1,0,0,29097,task3,199229,false,false,124,image-keyboard-response,16
true,1,2,0,2,true,d,false,true,0.0-2.0-0.1-0.16-3.16,0,0,0,68,false,stim,false,-1,489.3000000715256,1,0,2,29097,task3,201247,false,false,127,image-keyboard-response,17
true,1,2,0,2,true,d,false,true,0.0-2.0-0.1-0.17-3.17,0,0,0,68,false,stim,false,-1,665.6000000238419,1,0,2,29097,task3,203443,false,false,130,image-keyboard-response,18
true,1,2,0,2,true,d,false,true,0.0-2.0-0.2-0.18-3.18,0,0,0,68,false,stim,false,-1,435.2999999523163,1,0,2,29097,task3,205410,false,false,133,image-keyboard-response,19
true,1,2,0,2,true,d,false,true,0.0-2.0-0.2-0.19-3.19,0,0,0,68,false,stim,false,-1,448.40000009536743,1,1,2,29097,task3,207387,false,false,136,image-keyboard-response,20
true,1,2,0,2,true,d,false,true,0.0-2.0-0.2-0.20-3.20,0,0,0,68,false,stim,false,-1,355.0,1,1,2,29097,task3,209263,false,false,139,image-keyboard-response,21
true,1,1,0,0,false,q,true,false,0.0-2.0-0.2-0.21-3.21,0,0,0,90,false,stim,false,-1,416.7999999523163,1,0,1,29097,task3,211204,false,false,142,image-keyboard-response,22
true,1,0,0,1,false,z,true,false,0.0-2.0-0.2-0.22-3.22,0,0,0,81,false,stim,false,-1,596.0,1,1,0,29097,task3,213317,false,false,145,image-keyboard-response,23
true,1,1,0,1,true,z,false,true,0.0-2.0-0.2-0.23-3.23,0,0,0,90,false,stim,false,-1,964.0,1,1,0,29097,task3,215797,false,false,148,image-keyboard-response,24
true,2,1,2,1,true,z,false,false,0.0-2.0-0.2-0.24-3.24,1,0,1,90,true,stim,false,1,527.0,1,1,0,29097,task3,217856,false,true,151,image-keyboard-response,1
true,2,0,2,1,false,z,false,false,0.0-2.0-0.2-0.25-3.25,1,0,1,81,false,stim,true,0,969.7000000476837,1,0,1,29097,task3,220357,false,false,154,image-keyboard-response,2
true,2,1,2,1,true,z,false,true,0.0-2.0-0.2-0.26-3.26,1,0,1,90,false,stim,false,0,557.5,1,0,1,29097,task3,222446,false,false,157,image-keyboard-response,3
true,2,1,2,1,true,z,false,true,0.0-2.0-0.3-0.27-3.27,1,0,1,90,false,stim,false,1,896.8999999761581,1,1,0,29097,task3,224864,false,false,160,image-keyboard-response,4
true,2,2,2,2,true,d,false,false,0.0-2.0-0.3-0.28-3.28,1,0,1,68,false,stim,false,2,446.5,1,1,2,29097,task3,226833,false,true,163,image-keyboard-response,5
true,2,1,2,1,true,z,false,true,0.0-2.0-0.3-0.29-3.29,1,0,1,90,false,stim,false,1,578.6000000238419,1,1,0,29097,task3,228929,false,false,166,image-keyboard-response,6
true,2,1,2,1,true,z,false,true,0.0-2.0-0.3-0.30-3.30,1,0,1,90,false,stim,false,0,644.3000000715256,1,0,1,29097,task3,231098,false,false,169,image-keyboard-response,7
true,2,1,2,1,true,z,false,true,0.0-2.0-0.3-0.31-3.31,1,0,1,90,false,stim,false,0,622.3999999761581,1,0,1,29097,task3,233255,false,false,172,image-keyboard-response,8
true,2,1,2,1,true,z,false,true,0.0-2.0-0.3-0.32-3.32,1,0,1,90,false,stim,false,1,521.3999999761581,1,1,0,29097,task3,235289,false,false,175,image-keyboard-response,9
true,2,1,2,1,true,z,false,true,0.0-2.0-0.3-0.33-3.33,1,0,1,90,false,stim,false,0,583.8999999761581,1,0,1,29097,task3,237395,false,false,178,image-keyboard-response,10
true,2,2,2,2,true,d,false,true,0.0-2.0-0.3-0.34-3.34,1,0,1,68,false,stim,false,2,573.1000000238419,1,1,2,29097,task3,239483,false,false,181,image-keyboard-response,11
true,2,2,2,2,true,d,false,true,0.0-2.0-0.3-0.35-3.35,1,0,1,68,false,stim,false,2,475.3000000715256,1,1,2,29097,task3,241485,false,false,184,image-keyboard-response,12
true,2,2,2,2,true,d,false,true,0.0-2.0-0.4-0.36-3.36,1,0,1,68,false,stim,false,2,408.0,1,1,2,29097,task3,243422,false,false,187,image-keyboard-response,13
true,2,1,2,1,true,z,false,true,0.0-2.0-0.4-0.37-3.37,1,0,1,90,false,stim,false,1,703.1000000238419,1,1,0,29097,task3,245645,false,false,190,image-keyboard-response,14
true,2,1,2,1,true,z,false,true,0.0-2.0-0.4-0.38-3.38,1,0,1,90,false,stim,false,0,522.7000000476837,1,0,1,29097,task3,247692,false,false,193,image-keyboard-response,15
true,2,1,2,2,false,d,true,false,0.0-2.0-0.4-0.39-3.39,1,0,1,90,false,stim,false,2,325.0,1,1,2,29097,task3,249548,false,false,196,image-keyboard-response,16
true,2,2,2,2,true,d,false,true,0.0-2.0-0.4-0.40-3.40,1,0,1,68,false,stim,false,2,328.3000000715256,1,1,2,29097,task3,251385,false,false,199,image-keyboard-response,17
true,2,2,2,1,false,z,true,false,0.0-2.0-0.4-0.41-3.41,1,0,1,68,false,stim,false,1,428.89999997615814,1,1,0,29097,task3,253327,false,false,202,image-keyboard-response,18
true,2,1,2,1,true,z,false,true,0.0-2.0-0.4-0.42-3.42,1,0,1,90,false,stim,false,0,556.5,1,0,1,29097,task3,255416,false,false,205,image-keyboard-response,19
true,2,1,2,1,true,z,false,true,0.0-2.0-0.4-0.43-3.43,1,0,1,90,false,stim,false,0,353.60000002384186,1,0,1,29097,task3,257293,false,false,208,image-keyboard-response,20
true,2,1,2,1,true,z,false,true,0.0-2.0-0.4-0.44-3.44,1,0,1,90,false,stim,false,1,557.1000000238419,1,1,0,29097,task3,259377,false,false,211,image-keyboard-response,21
true,2,1,2,1,true,z,false,true,0.0-2.0-0.5-0.45-3.45,1,0,1,90,false,stim,false,0,497.8000000715256,1,0,1,29097,task3,261405,false,false,214,image-keyboard-response,22
true,2,2,2,2,true,d,false,true,0.0-2.0-0.5-0.46-3.46,1,0,1,68,false,stim,false,2,654.6000000238419,1,1,2,29097,task3,263584,false,false,217,image-keyboard-response,23
true,2,1,2,1,true,z,false,true,0.0-2.0-0.5-0.47-3.47,1,0,1,90,false,stim,false,0,1280.0999999046326,1,0,1,29097,task3,266383,false,false,220,image-keyboard-response,24
true,2,1,2,1,true,z,false,true,0.0-2.0-0.5-0.48-3.48,1,0,1,90,false,stim,false,1,903.5,1,0,0,29097,task3,268806,false,false,223,image-keyboard-response,25
true,2,2,2,2,true,d,false,true,0.0-2.0-0.5-0.49-3.49,1,0,1,68,false,stim,false,2,438.59999990463257,1,1,2,29097,task3,270768,false,false,226,image-keyboard-response,26
true,2,1,2,1,true,z,false,true,0.0-2.0-0.5-0.50-3.50,1,0,1,90,false,stim,false,0,549.0,1,0,1,29097,task3,272837,false,false,229,image-keyboard-response,27
true,2,1,2,1,true,z,false,true,0.0-2.0-0.5-0.51-3.51,1,0,1,90,false,stim,false,1,671.8000000715256,1,0,0,29097,task3,275044,false,false,232,image-keyboard-response,28
true,2,2,2,2,true,d,false,true,0.0-2.0-0.5-0.52-3.52,1,0,1,68,false,stim,false,2,776.6999999284744,1,1,2,29097,task3,277348,false,false,235,image-keyboard-response,29
true,3,1,1,0,false,q,false,false,0.0-2.0-0.5-0.53-3.53,0,0,1,90,true,stim,true,1,556.2999999523163,1,0,0,29097,task3,279427,false,false,238,image-keyboard-response,1
true,3,2,1,0,false,q,true,false,0.0-2.0-0.6-0.54-3.54,0,0,1,68,false,stim,false,1,856.6000000238419,1,0,1,29097,task3,281807,false,false,241,image-keyboard-response,2
true,3,1,1,0,false,q,false,false,0.0-2.0-0.6-0.55-3.55,0,0,1,90,false,stim,true,1,538.1000000238419,1,0,0,29097,task3,283861,false,false,244,image-keyboard-response,3
true,3,1,1,0,false,q,false,false,0.0-2.0-0.6-0.56-3.56,0,0,1,90,false,stim,true,1,1365.0,1,0,1,29097,task3,286757,false,false,247,image-keyboard-response,4
true,3,0,1,0,true,q,false,true,0.0-2.0-0.6-0.57-3.57,0,0,1,81,false,stim,false,1,749.5,1,0,1,29097,task3,289020,false,false,250,image-keyboard-response,5
true,3,2,1,2,true,d,false,true,0.0-2.0-0.6-0.58-3.58,0,0,1,68,false,stim,false,2,610.4000000953674,1,1,2,29097,task3,291161,false,false,253,image-keyboard-response,6
true,3,0,1,0,true,q,false,true,0.0-2.0-0.6-0.59-3.59,0,0,1,81,false,stim,false,1,554.1000000238419,1,0,0,29097,task3,293226,false,false,256,image-keyboard-response,7
true,3,0,1,0,true,q,false,true,0.0-2.0-0.6-0.60-3.60,0,0,1,81,false,stim,false,1,373.8000000715256,1,1,0,29097,task3,295126,false,false,259,image-keyboard-response,8
true,3,2,1,2,true,d,false,true,0.0-2.0-0.6-0.61-3.61,0,0,1,68,false,stim,false,2,802.7000000476837,1,0,2,29097,task3,297439,false,false,262,image-keyboard-response,9
true,3,2,1,2,true,d,false,true,0.0-2.0-0.6-0.62-3.62,0,0,1,68,false,stim,false,2,545.6999999284744,1,0,2,29097,task3,299511,false,false,265,image-keyboard-response,10
true,3,0,1,0,true,q,false,true,0.0-2.0-0.7-0.63-3.63,0,0,1,81,false,stim,false,1,646.4000000953674,1,1,0,29097,task3,301683,false,false,268,image-keyboard-response,11
true,3,2,1,2,true,d,false,true,0.0-2.0-0.7-0.64-3.64,0,0,1,68,false,stim,false,2,677.6000000238419,1,0,2,29097,task3,303892,false,false,271,image-keyboard-response,12
true,4,0,2,0,true,q,false,true,0.0-2.0-0.7-0.65-3.65,1,1,0,81,true,stim,false,0,770.0,1,1,0,29097,task3,306181,false,false,274,image-keyboard-response,1
true,4,2,2,1,false,z,false,false,0.0-2.0-0.7-0.66-3.66,1,1,0,68,false,stim,true,2,332.5,1,0,2,29097,task3,308027,false,false,277,image-keyboard-response,2
true,4,0,2,0,true,q,false,true,0.0-2.0-0.7-0.67-3.67,1,1,0,81,false,stim,false,0,251.40000009536743,1,1,1,29097,task3,309796,false,false,280,image-keyboard-response,3
true,4,2,2,0,false,q,true,false,0.0-2.0-0.7-0.68-3.68,1,1,0,68,false,stim,false,0,390.60000002384186,1,1,1,29097,task3,311703,false,false,283,image-keyboard-response,4
true,4,0,2,0,true,q,false,true,0.0-2.0-0.7-0.69-3.69,1,1,0,81,false,stim,false,0,24.700000047683716,1,1,1,29097,task3,313248,false,false,286,image-keyboard-response,5
true,4,2,2,0,false,q,true,false,0.0-2.0-0.7-0.70-3.70,1,1,0,68,false,stim,false,0,828.3999999761581,1,1,0,29097,task3,315600,false,false,289,image-keyboard-response,6
true,4,2,2,1,false,z,false,false,0.0-2.0-0.7-0.71-3.71,1,1,0,68,false,stim,true,2,491.89999997615814,1,0,2,29097,task3,317623,false,false,292,image-keyboard-response,7
true,4,2,2,1,false,z,false,false,0.0-2.0-0.8-0.72-3.72,1,1,0,68,false,stim,true,2,338.7000000476837,1,1,2,29097,task3,319480,false,false,295,image-keyboard-response,8
true,4,1,2,1,true,z,false,true,0.0-2.0-0.8-0.73-3.73,1,1,0,90,false,stim,false,2,346.2000000476837,1,1,2,29097,task3,321344,false,false,298,image-keyboard-response,9
true,4,0,2,0,true,q,false,true,0.0-2.0-0.8-0.74-3.74,1,1,0,81,false,stim,false,0,659.8999999761581,1,0,1,29097,task3,323527,false,false,301,image-keyboard-response,10
true,4,0,2,0,true,q,false,true,0.0-2.0-0.8-0.75-3.75,1,1,0,81,false,stim,false,0,1386.1999999284744,1,0,0,29097,task3,326426,false,false,304,image-keyboard-response,11
true,4,0,2,0,true,q,false,true,0.0-2.0-0.8-0.76-3.76,1,1,0,81,false,stim,false,0,404.60000002384186,1,0,0,29097,task3,328359,false,false,307,image-keyboard-response,12
true,5,0,1,1,false,z,false,false,0.0-2.0-0.8-0.77-3.77,0,0,1,81,true,stim,true,0,453.2000000476837,1,0,0,29097,task3,330338,false,false,310,image-keyboard-response,1
true,5,1,1,2,false,d,true,false,0.0-2.0-0.8-0.78-3.78,0,0,1,90,false,stim,false,0,1178.5,1,0,1,29097,task3,333034,false,false,313,image-keyboard-response,2
true,5,1,1,1,true,z,false,true,0.0-2.0-0.8-0.79-3.79,0,0,1,90,false,stim,false,1,660.1000000238419,1,1,2,29097,task3,335228,false,false,316,image-keyboard-response,3
true,5,0,1,2,false,d,false,false,0.0-2.0-0.8-0.80-3.80,0,0,1,81,false,stim,true,0,722.3999999761581,1,0,1,29097,task3,337484,false,false,319,image-keyboard-response,4
true,5,0,1,1,false,z,false,true,0.0-2.0-0.9-0.81-3.81,0,0,1,81,false,stim,true,0,721.7999999523163,1,0,0,29097,task3,339729,false,true,322,image-keyboard-response,5
true,5,1,1,1,true,z,false,true,0.0-2.0-0.9-0.82-3.82,0,0,1,90,false,stim,false,1,344.3000000715256,1,1,2,29097,task3,341607,false,false,325,image-keyboard-response,6
true,5,2,1,2,true,d,false,true,0.0-2.0-0.9-0.83-3.83,0,0,1,68,false,stim,false,0,1224.9000000953674,1,0,1,29097,task3,344362,false,false,328,image-keyboard-response,7
true,5,0,1,1,false,z,false,false,0.0-2.0-0.9-0.84-3.84,0,0,1,81,false,stim,true,0,660.0,1,0,0,29097,task3,346535,false,false,331,image-keyboard-response,8
true,5,1,1,1,true,z,false,true,0.0-2.0-0.9-0.85-3.85,0,0,1,90,false,stim,false,0,370.60000002384186,1,0,0,29097,task3,348424,false,false,334,image-keyboard-response,9
true,5,1,1,1,true,z,false,true,0.0-2.0-0.9-0.86-3.86,0,0,1,90,false,stim,false,1,317.2000000476837,1,1,2,29097,task3,350260,false,false,337,image-keyboard-response,10
true,5,2,1,2,true,d,false,true,0.0-2.0-0.9-0.87-3.87,0,0,1,68,false,stim,false,0,716.1000000238419,1,0,1,29097,task3,352497,false,false,340,image-keyboard-response,11
true,5,1,1,2,false,d,true,false,0.0-2.0-0.9-0.88-3.88,0,0,1,90,false,stim,false,0,400.7000000476837,1,0,1,29097,task3,354420,false,false,343,image-keyboard-response,12
true,5,2,1,1,false,z,true,false,0.0-2.0-0.9-0.89-3.89,0,0,1,68,false,stim,false,1,596.5999999046326,1,1,2,29097,task3,356537,false,false,346,image-keyboard-response,13
true,5,1,1,1,true,z,false,true,0.0-2.0-0.10-0.90-3.90,0,0,1,90,false,stim,false,0,254.60000002384186,1,0,0,29097,task3,358314,false,false,349,image-keyboard-response,14
true,5,2,1,2,true,d,false,true,0.0-2.0-0.10-0.91-3.91,0,0,1,68,false,stim,false,0,936.2000000476837,1,0,1,29097,task3,360781,false,false,352,image-keyboard-response,15
true,5,2,1,2,true,d,false,true,0.0-2.0-0.10-0.92-3.92,0,0,1,68,false,stim,false,0,1299.2999999523163,1,0,1,29097,task3,363602,false,false,355,image-keyboard-response,16
true,5,1,1,1,true,z,false,true,0.0-2.0-0.10-0.93-3.93,0,0,1,90,false,stim,false,0,2052.1999999284744,1,0,0,29097,task3,367178,false,false,358,image-keyboard-response,17
true,5,1,1,1,true,z,false,true,0.0-2.0-0.10-0.94-3.94,0,0,1,90,false,stim,false,1,586.1000000238419,1,1,2,29097,task3,369286,false,false,361,image-keyboard-response,18
true,5,2,1,1,false,z,true,false,0.0-2.0-0.10-0.95-3.95,0,0,1,68,false,stim,false,1,363.60000002384186,1,1,2,29097,task3,371176,false,false,364,image-keyboard-response,19
true,5,1,1,2,false,d,true,false,0.0-2.0-0.10-0.96-3.96,0,0,1,90,false,stim,false,0,270.7999999523163,1,0,1,29097,task3,372973,false,false,367,image-keyboard-response,20
true,5,0,1,1,false,z,false,false,0.0-2.0-0.10-0.97-3.97,0,0,1,81,false,stim,true,0,529.8999999761581,1,0,0,29097,task3,375014,false,false,370,image-keyboard-response,21
true,5,1,1,1,true,z,false,false,0.0-2.0-0.10-0.98-3.98,0,0,1,90,false,stim,false,1,265.0,1,1,2,29097,task3,376798,false,true,373,image-keyboard-response,22
true,5,2,1,2,true,d,false,true,0.0-2.0-0.11-0.99-3.99,0,0,1,68,false,stim,false,0,475.1999999284744,1,0,1,29097,task3,378790,false,false,376,image-keyboard-response,23
true,5,2,1,1,false,z,true,false,0.0-2.0-0.11-0.100-3.100,0,0,1,68,false,stim,false,1,1383.1000000238419,1,1,2,29097,task3,381700,false,false,379,image-keyboard-response,24
true,5,2,1,1,false,z,true,false,0.0-2.0-0.11-0.101-3.101,0,0,1,68,false,stim,false,0,1614.6000000238419,1,1,0,29097,task3,384838,false,false,382,image-keyboard-response,25
true,5,1,1,1,true,z,false,true,0.0-2.0-0.11-0.102-3.102,0,0,1,90,false,stim,false,0,464.59999990463257,1,1,0,29097,task3,386826,false,false,385,image-keyboard-response,26
true,5,2,1,2,true,d,false,false,0.0-2.0-0.11-0.103-3.103,0,0,1,68,false,stim,false,0,724.5,1,0,1,29097,task3,389070,false,true,388,image-keyboard-response,27
true,6,1,2,1,true,z,false,true,0.0-2.0-0.11-0.104-3.104,1,0,1,90,true,stim,false,1,778.2999999523163,1,1,2,29097,task3,391372,false,false,391,image-keyboard-response,1
true,6,1,2,1,true,z,false,true,0.0-2.0-0.11-0.105-3.105,1,0,1,90,false,stim,false,1,971.1000000238419,1,1,2,29097,task3,393870,false,false,394,image-keyboard-response,2
true,6,1,2,0,false,q,true,false,0.0-2.0-0.11-0.106-3.106,1,0,1,90,false,stim,false,2,1082.1000000238419,1,0,1,29097,task3,396473,false,false,397,image-keyboard-response,3
true,6,2,2,1,false,z,true,false,0.0-2.0-0.11-0.107-3.107,1,0,1,68,false,stim,false,1,501.40000009536743,1,1,0,29097,task3,398507,false,false,400,image-keyboard-response,4
true,6,2,2,1,false,z,true,false,0.0-2.0-0.12-0.108-3.108,1,0,1,68,false,stim,false,1,507.89999997615814,1,1,2,29097,task3,400535,false,false,403,image-keyboard-response,5
true,6,1,2,0,false,q,true,false,0.0-2.0-0.12-0.109-3.109,1,0,1,90,false,stim,false,2,743.0,1,0,1,29097,task3,402827,false,false,406,image-keyboard-response,6
true,6,0,2,1,false,z,true,false,0.0-2.0-0.12-0.110-3.110,1,0,1,81,false,stim,false,1,946.2000000476837,1,1,0,29097,task3,405294,false,false,409,image-keyboard-response,7
true,6,1,2,1,true,z,false,true,0.0-2.0-0.12-0.111-3.111,1,0,1,90,false,stim,false,1,126.60000002384186,1,1,2,29097,task3,406942,false,false,412,image-keyboard-response,8
true,6,1,2,0,false,q,true,false,0.0-2.0-0.12-0.112-3.112,1,0,1,90,false,stim,false,2,739.6000000238419,1,0,1,29097,task3,409198,false,false,415,image-keyboard-response,9
true,6,1,2,0,false,q,true,false,0.0-2.0-0.12-0.113-3.113,1,0,1,90,false,stim,false,2,393.39999997615814,1,0,1,29097,task3,411112,false,false,418,image-keyboard-response,10
true,6,2,2,1,false,z,true,false,0.0-2.0-0.12-0.114-3.114,1,0,1,68,false,stim,false,1,486.5,1,1,2,29097,task3,413128,false,false,421,image-keyboard-response,11
true,6,2,2,1,false,z,true,false,0.0-2.0-0.12-0.115-3.115,1,0,1,68,false,stim,false,1,504.90000009536743,1,1,0,29097,task3,415157,false,false,424,image-keyboard-response,12
true,6,0,2,1,false,z,true,false,0.0-2.0-0.12-0.116-3.116,1,0,1,81,false,stim,false,1,533.5,1,1,0,29097,task3,417216,false,false,427,image-keyboard-response,13
true,6,1,2,1,true,z,false,true,0.0-2.0-0.13-0.117-3.117,1,0,1,90,false,stim,false,1,242.80000007152557,1,1,2,29097,task3,418980,false,false,430,image-keyboard-response,14
true,6,1,2,0,false,q,true,false,0.0-2.0-0.13-0.118-3.118,1,0,1,90,false,stim,false,2,60.299999952316284,1,0,1,29097,task3,420564,false,false,433,image-keyboard-response,15
true,6,1,2,1,true,z,false,true,0.0-2.0-0.13-0.119-3.119,1,0,1,90,false,stim,false,1,1132.9000000953674,1,1,0,29097,task3,423225,false,false,436,image-keyboard-response,16
true,6,0,2,0,true,q,false,true,0.0-2.0-0.13-0.120-3.120,1,0,1,81,false,stim,false,2,1416.2000000476837,1,0,1,29097,task3,426163,false,false,439,image-keyboard-response,17
true,6,1,2,1,true,z,false,true,0.0-2.0-0.13-0.121-3.121,1,0,1,90,false,stim,false,1,230.60000002384186,1,1,2,29097,task3,427912,false,false,442,image-keyboard-response,18
true,6,0,2,0,true,q,false,true,0.0-2.0-0.13-0.122-3.122,1,0,1,81,false,stim,false,2,299.60000002384186,1,0,1,29097,task3,429729,false,false,445,image-keyboard-response,19
true,6,1,2,1,true,z,false,true,0.0-2.0-0.13-0.123-3.123,1,0,1,90,false,stim,false,1,291.10000002384186,1,0,0,29097,task3,431542,false,false,448,image-keyboard-response,20
true,6,0,2,1,false,z,true,false,0.0-2.0-0.13-0.124-3.124,1,0,1,81,false,stim,false,1,280.89999997615814,1,0,0,29097,task3,433343,false,false,451,image-keyboard-response,21
true,6,1,2,1,true,z,false,true,0.0-2.0-0.13-0.125-3.125,1,0,1,90,false,stim,false,1,197.29999995231628,1,1,2,29097,task3,435066,false,false,454,image-keyboard-response,22
true,6,2,2,1,false,z,true,false,0.0-2.0-0.14-0.126-3.126,1,0,1,68,false,stim,false,1,222.30000007152557,1,1,2,29097,task3,436815,false,false,457,image-keyboard-response,23
true,7,1,1,2,false,d,false,false,0.0-2.0-0.14-0.127-3.127,0,0,1,90,true,stim,true,1,252.70000004768372,1,0,0,29097,task3,438577,false,false,460,image-keyboard-response,1
true,7,0,1,1,false,z,true,false,0.0-2.0-0.14-0.128-3.128,0,0,1,81,false,stim,false,1,371.6999999284744,1,1,2,29097,task3,440473,false,false,463,image-keyboard-response,2
true,7,1,1,2,false,d,true,true,0.0-2.0-0.14-0.129-3.129,0,0,1,90,false,stim,false,0,340.0,1,0,1,29097,task3,442348,false,true,466,image-keyboard-response,3
true,7,2,1,2,true,d,false,true,0.0-2.0-0.14-0.130-3.130,0,0,1,68,false,stim,false,1,407.40000009536743,1,0,0,29097,task3,444289,false,false,469,image-keyboard-response,4
true,7,1,1,1,true,z,false,true,0.0-2.0-0.14-0.131-3.131,0,0,1,90,false,stim,false,1,343.39999997615814,1,1,2,29097,task3,446159,false,false,472,image-keyboard-response,5
true,7,1,1,2,false,d,false,false,0.0-2.0-0.14-0.132-3.132,0,0,1,90,false,stim,true,1,437.7000000476837,1,0,0,29097,task3,448128,false,false,475,image-keyboard-response,6
true,7,0,1,2,false,d,false,false,0.0-2.0-0.14-0.133-3.133,0,0,1,81,false,stim,true,0,345.6999999284744,1,0,1,29097,task3,450002,false,false,478,image-keyboard-response,7
true,7,2,1,2,true,d,false,true,0.0-2.0-0.14-0.134-3.134,0,0,1,68,false,stim,false,0,619.3999999761581,1,0,1,29097,task3,452146,false,false,481,image-keyboard-response,8
true,7,1,1,2,false,d,true,false,0.0-2.0-0.15-0.135-3.135,0,0,1,90,false,stim,false,0,613.8000000715256,1,0,1,29097,task3,454286,false,false,484,image-keyboard-response,9
true,7,2,1,2,true,d,false,true,0.0-2.0-0.15-0.136-3.136,0,0,1,68,false,stim,false,1,1070.8000000715256,1,0,0,29097,task3,456887,false,false,487,image-keyboard-response,10
true,7,1,1,1,true,z,false,true,0.0-2.0-0.15-0.137-3.137,0,0,1,90,false,stim,false,1,235.5,1,1,2,29097,task3,458654,false,false,490,image-keyboard-response,11
true,7,1,1,1,true,z,false,true,0.0-2.0-0.15-0.138-3.138,0,0,1,90,false,stim,false,1,897.5999999046326,1,1,2,29097,task3,461072,false,false,493,image-keyboard-response,12
false,7,-1,1,2,false,d,true,false,0.0-2.0-0.15-0.139-3.139,0,0,1,,false,stim,false,1,,1,0,0,29097,task3,465608,false,false,496,image-keyboard-response,13
true,7,1,1,2,false,d,true,true,0.0-2.0-0.15-0.140-3.140,0,0,1,90,false,stim,false,0,118.39999997615814,1,0,1,29097,task3,467254,false,true,499,image-keyboard-response,14
true,7,1,1,1,true,z,false,true,0.0-2.0-0.15-0.141-3.141,0,0,1,90,false,stim,false,1,1561.5,1,1,2,29097,task3,470344,false,false,502,image-keyboard-response,15
true,7,1,1,2,false,d,false,false,0.0-2.0-0.15-0.142-3.142,0,0,1,90,false,stim,true,1,130.59999990463257,1,0,0,29097,task3,472006,false,false,505,image-keyboard-response,16
true,7,0,1,2,false,d,false,false,0.0-2.0-0.15-0.143-3.143,0,0,1,81,false,stim,true,0,736.6000000238419,1,0,1,29097,task3,474268,false,false,508,image-keyboard-response,17
true,7,1,1,2,false,d,true,false,0.0-2.0-0.16-0.144-3.144,0,0,1,90,false,stim,false,0,438.39999997615814,1,0,1,29097,task3,476231,false,false,511,image-keyboard-response,18
true,7,1,1,1,true,z,false,true,0.0-2.0-0.16-0.145-3.145,0,0,1,90,false,stim,false,1,944.0999999046326,1,0,2,29097,task3,478710,false,false,514,image-keyboard-response,19
true,7,2,1,2,true,d,false,true,0.0-2.0-0.16-0.146-3.146,0,0,1,68,false,stim,false,1,2070.600000023842,1,0,0,29097,task3,482290,false,false,517,image-keyboard-response,20
true,7,1,1,2,false,d,true,false,0.0-2.0-0.16-0.147-3.147,0,0,1,90,false,stim,false,0,2806.100000023842,1,1,1,29097,task3,486620,false,false,520,image-keyboard-response,21
true,7,0,1,2,false,d,true,false,0.0-2.0-0.16-0.148-3.148,0,0,1,81,false,stim,false,1,56.89999997615814,1,0,0,29097,task3,488195,false,false,523,image-keyboard-response,22
true,7,1,1,2,false,d,false,false,0.0-2.0-0.16-0.149-3.149,0,0,1,90,false,stim,true,1,1458.8999999761581,1,0,0,29097,task3,491185,false,false,526,image-keyboard-response,23
true,8,1,1,2,false,d,true,false,0.0-2.0-0.16-0.150-3.150,0,1,0,90,true,stim,false,2,936.7999999523163,1,1,1,29097,task3,493644,false,false,529,image-keyboard-response,1
true,8,0,1,2,false,d,true,false,0.0-2.0-0.16-0.151-3.151,0,1,0,81,false,stim,false,1,1631.1999999284744,1,0,2,29097,task3,496809,false,false,532,image-keyboard-response,2
false,8,-1,1,2,false,d,true,false,0.0-2.0-0.16-0.152-3.152,0,1,0,,false,stim,false,1,,1,0,2,29097,task3,501330,false,false,535,image-keyboard-response,3
true,8,1,1,0,false,q,true,false,0.0-2.0-0.17-0.153-3.153,0,1,0,90,false,stim,false,2,663.6999999284744,1,0,0,29097,task3,503509,false,false,538,image-keyboard-response,4
true,8,0,1,0,true,q,false,true,0.0-2.0-0.17-0.154-3.154,0,1,0,81,false,stim,false,2,502.0,1,0,0,29097,task3,505539,false,false,541,image-keyboard-response,5
true,8,2,1,2,true,d,false,true,0.0-2.0-0.17-0.155-3.155,0,1,0,68,false,stim,false,2,1249.8999999761581,1,1,1,29097,task3,508315,false,false,544,image-keyboard-response,6
true,8,2,1,2,true,d,false,true,0.0-2.0-0.17-0.156-3.156,0,1,0,68,false,stim,false,1,283.40000009536743,1,0,2,29097,task3,510128,false,false,547,image-keyboard-response,7
true,8,2,1,2,true,d,false,true,0.0-2.0-0.17-0.157-3.157,0,1,0,68,false,stim,false,1,467.7999999523163,1,0,2,29097,task3,512120,false,false,550,image-keyboard-response,8
true,8,2,1,2,true,d,false,true,0.0-2.0-0.17-0.158-3.158,0,1,0,68,false,stim,false,2,76.0,1,1,1,29097,task3,513726,false,false,553,image-keyboard-response,9
true,8,2,1,2,true,d,false,true,0.0-2.0-0.17-0.159-3.159,0,1,0,68,false,stim,false,2,310.10000002384186,1,1,1,29097,task3,515561,false,false,556,image-keyboard-response,10
true,8,2,1,0,false,q,false,false,0.0-2.0-0.17-0.160-3.160,0,1,0,68,false,stim,true,2,440.2000000476837,1,0,0,29097,task3,517524,false,false,559,image-keyboard-response,11
true,8,2,1,2,true,d,false,true,0.0-2.0-0.17-0.161-3.161,0,1,0,68,false,stim,false,1,365.0,1,0,2,29097,task3,519402,false,false,562,image-keyboard-response,12
true,8,1,1,2,false,d,true,false,0.0-2.0-0.18-0.162-3.162,0,1,0,90,false,stim,false,2,35.700000047683716,1,1,1,29097,task3,520955,false,false,565,image-keyboard-response,13
true,8,0,1,0,true,q,false,true,0.0-2.0-0.18-0.163-3.163,0,1,0,81,false,stim,false,2,313.7999999523163,1,0,0,29097,task3,522783,false,false,568,image-keyboard-response,14
true,8,2,1,2,true,d,false,true,0.0-2.0-0.18-0.164-3.164,0,1,0,68,false,stim,false,1,680.8000000715256,1,0,2,29097,task3,524979,false,false,571,image-keyboard-response,15
true,8,2,1,2,true,d,false,true,0.0-2.0-0.18-0.165-3.165,0,1,0,68,false,stim,false,1,290.3000000715256,1,0,2,29097,task3,526783,false,false,574,image-keyboard-response,16
true,8,1,1,0,false,q,true,false,0.0-2.0-0.18-0.166-3.166,0,1,0,90,false,stim,false,2,571.7000000476837,1,0,0,29097,task3,528869,false,false,577,image-keyboard-response,17
true,8,0,1,2,false,d,true,true,0.0-2.0-0.18-0.167-3.167,0,1,0,81,false,stim,false,2,434.6999999284744,1,1,1,29097,task3,530831,false,true,580,image-keyboard-response,18
true,8,0,1,2,false,d,true,true,0.0-2.0-0.18-0.168-3.168,0,1,0,81,false,stim,false,2,448.39999997615814,1,1,1,29097,task3,532808,false,true,583,image-keyboard-response,19
true,8,1,1,0,false,q,true,false,0.0-2.0-0.18-0.169-3.169,0,1,0,90,false,stim,false,2,566.5,1,1,0,29097,task3,534896,false,false,586,image-keyboard-response,20
true,8,2,1,2,true,d,false,true,0.0-2.0-0.18-0.170-3.170,0,1,0,68,false,stim,false,1,486.3000000715256,1,0,2,29097,task3,536912,false,false,589,image-keyboard-response,21
true,8,2,1,2,true,d,false,true,0.0-2.0-0.19-0.171-3.171,0,1,0,68,false,stim,false,2,788.1999999284744,1,1,1,29097,task3,539231,false,false,592,image-keyboard-response,22
true,8,0,1,0,true,q,false,true,0.0-2.0-0.19-0.172-3.172,0,1,0,81,false,stim,false,2,1467.5,1,1,0,29097,task3,542227,false,false,595,image-keyboard-response,23
true,9,2,2,2,true,d,false,true,0.0-2.0-0.19-0.173-3.173,1,1,0,68,true,stim,false,2,726.3000000715256,1,1,1,29097,task3,544484,false,false,598,image-keyboard-response,1
true,9,0,2,0,true,q,false,true,0.0-2.0-0.19-0.174-3.174,1,1,0,81,false,stim,false,0,545.3000000715256,1,1,0,29097,task3,546553,false,false,601,image-keyboard-response,2
true,9,0,2,0,true,q,false,true,0.0-2.0-0.19-0.175-3.175,1,1,0,81,false,stim,false,0,515.0999999046326,1,1,0,29097,task3,548593,false,false,604,image-keyboard-response,3
true,9,2,2,0,false,q,false,false,0.0-2.0-0.19-0.176-3.176,1,1,0,68,false,stim,true,2,532.3999999761581,1,0,2,29097,task3,550655,false,false,607,image-keyboard-response,4
true,9,0,2,0,true,q,false,true,0.0-2.0-0.19-0.177-3.177,1,1,0,81,false,stim,false,2,342.89999997615814,1,0,2,29097,task3,552517,false,false,610,image-keyboard-response,5
true,9,0,2,0,true,q,false,true,0.0-2.0-0.19-0.178-3.178,1,1,0,81,false,stim,false,2,396.5,1,0,2,29097,task3,554448,false,false,613,image-keyboard-response,6
true,9,0,2,2,false,d,true,false,0.0-2.0-0.19-0.179-3.179,1,1,0,81,false,stim,false,2,318.0,1,1,1,29097,task3,556289,false,false,616,image-keyboard-response,7
true,9,0,2,0,true,q,false,true,0.0-2.0-0.20-0.180-3.180,1,1,0,81,false,stim,false,2,676.8000000715256,1,1,2,29097,task3,558490,false,false,619,image-keyboard-response,8
true,9,1,2,0,false,q,true,true,0.0-2.0-0.20-0.181-3.181,1,1,0,90,false,stim,false,0,750.6000000238419,1,0,0,29097,task3,560767,false,true,622,image-keyboard-response,9
true,9,2,2,2,true,d,false,true,0.0-2.0-0.20-0.182-3.182,1,1,0,68,false,stim,false,2,354.5,1,1,1,29097,task3,562643,false,false,625,image-keyboard-response,10
true,9,0,2,2,false,d,true,false,0.0-2.0-0.20-0.183-3.183,1,1,0,81,false,stim,false,2,222.70000004768372,1,1,1,29097,task3,564392,false,false,628,image-keyboard-response,11
true,10,1,2,1,true,z,false,true,0.0-2.0-0.20-0.184-3.184,0,1,1,90,true,stim,false,0,270.7000000476837,1,0,0,29097,task3,566192,false,false,631,image-keyboard-response,1
true,10,2,2,0,false,q,true,false,0.0-2.0-0.20-0.185-3.185,0,1,1,68,false,stim,false,0,331.89999997615814,1,1,2,29097,task3,568047,false,false,634,image-keyboard-response,2
true,10,0,2,2,false,d,true,false,0.0-2.0-0.20-0.186-3.186,0,1,1,81,false,stim,false,2,618.1000000238419,1,1,1,29097,task3,570187,false,false,637,image-keyboard-response,3
true,10,1,2,1,true,z,false,false,0.0-2.0-0.20-0.187-3.187,0,1,1,90,false,stim,false,0,529.1000000238419,1,0,0,29097,task3,572237,false,true,640,image-keyboard-response,4
true,10,0,2,0,true,q,false,true,0.0-2.0-0.20-0.188-3.188,0,1,1,81,false,stim,false,0,537.7999999523163,1,1,2,29097,task3,574302,false,false,643,image-keyboard-response,5
true,10,0,2,1,false,z,false,false,0.0-2.0-0.21-0.189-3.189,0,1,1,81,false,stim,true,0,1441.0999999046326,1,0,0,29097,task3,577265,false,false,646,image-keyboard-response,6
true,10,2,2,2,true,d,false,true,0.0-2.0-0.21-0.190-3.190,0,1,1,68,false,stim,false,2,522.1000000238419,1,1,1,29097,task3,579298,false,false,649,image-keyboard-response,7
true,10,2,2,0,false,q,true,false,0.0-2.0-0.21-0.191-3.191,0,1,1,68,false,stim,false,0,574.2999999523163,1,1,2,29097,task3,581398,false,false,652,image-keyboard-response,8
true,10,0,2,2,false,d,true,false,0.0-2.0-0.21-0.192-3.192,0,1,1,81,false,stim,false,2,190.10000002384186,1,1,1,29097,task3,583118,false,false,655,image-keyboard-response,9
true,10,1,2,0,false,q,true,false,0.0-2.0-0.21-0.193-3.193,0,1,1,90,false,stim,false,0,378.7000000476837,1,1,2,29097,task3,585022,false,false,658,image-keyboard-response,10
true,10,2,2,2,true,d,false,true,0.0-2.0-0.21-0.194-3.194,0,1,1,68,false,stim,false,2,302.40000009536743,1,1,1,29097,task3,586847,false,false,661,image-keyboard-response,11
true,10,2,2,0,false,q,true,false,0.0-2.0-0.21-0.195-3.195,0,1,1,68,false,stim,false,0,354.0,1,1,2,29097,task3,588736,false,false,664,image-keyboard-response,12
true,10,1,2,1,true,z,false,true,0.0-2.0-0.21-0.196-3.196,0,1,1,90,false,stim,false,0,271.7000000476837,1,0,0,29097,task3,590539,false,false,667,image-keyboard-response,13
true,10,1,2,1,true,z,false,true,0.0-2.0-0.21-0.197-3.197,0,1,1,90,false,stim,false,0,347.10000002384186,1,0,0,29097,task3,592406,false,false,670,image-keyboard-response,14
true,10,1,2,0,false,q,true,false,0.0-2.0-0.22-0.198-3.198,0,1,1,90,false,stim,false,0,946.2000000476837,1,1,2,29097,task3,594874,false,false,673,image-keyboard-response,15
true,10,0,2,0,true,q,false,true,0.0-2.0-0.22-0.199-3.199,0,1,1,81,false,stim,false,0,340.6999999284744,1,1,2,29097,task3,596730,false,false,676,image-keyboard-response,16
true,10,1,2,2,false,d,true,false,0.0-2.0-0.22-0.200-3.200,0,1,1,90,false,stim,false,2,1762.0,1,1,1,29097,task3,600005,false,false,679,image-keyboard-response,17
true,10,1,2,1,true,z,false,true,0.0-2.0-0.22-0.201-3.201,0,1,1,90,false,stim,false,0,2266.1999999284744,1,0,0,29097,task3,603805,false,false,682,image-keyboard-response,18
true,10,0,2,2,false,d,true,false,0.0-2.0-0.22-0.202-3.202,0,1,1,81,false,stim,false,2,510.5,1,1,1,29097,task3,605832,false,false,685,image-keyboard-response,19
true,10,1,2,2,false,d,true,true,0.0-2.0-0.22-0.203-3.203,0,1,1,90,false,stim,false,2,1286.0,1,1,1,29097,task3,608630,false,true,688,image-keyboard-response,20
true,10,2,2,1,false,z,true,false,0.0-2.0-0.22-0.204-3.204,0,1,1,68,false,stim,false,0,272.0,1,0,0,29097,task3,610429,false,false,691,image-keyboard-response,21
true,10,1,2,1,true,z,false,true,0.0-2.0-0.22-0.205-3.205,0,1,1,90,false,stim,false,0,362.2999999523163,1,0,0,29097,task3,612315,false,false,694,image-keyboard-response,22
true,10,1,2,0,false,q,true,false,0.0-2.0-0.22-0.206-3.206,0,1,1,90,false,stim,false,0,1426.3000000715256,1,1,2,29097,task3,615270,false,false,697,image-keyboard-response,23
true,10,1,2,2,false,d,true,false,0.0-2.0-0.23-0.207-3.207,0,1,1,90,false,stim,false,2,395.89999997615814,1,0,1,29097,task3,617191,false,false,700,image-keyboard-response,24
true,10,2,2,0,false,q,true,false,0.0-2.0-0.23-0.208-3.208,0,1,1,68,false,stim,false,0,61.799999952316284,1,1,2,29097,task3,618794,false,false,703,image-keyboard-response,25
true,10,1,2,0,false,q,true,false,0.0-2.0-0.23-0.209-3.209,0,1,1,90,false,stim,false,0,404.2999999523163,1,1,2,29097,task3,620723,false,false,706,image-keyboard-response,26
true,10,0,2,2,false,d,true,false,0.0-2.0-0.23-0.210-3.210,0,1,1,81,false,stim,false,2,639.2000000476837,1,0,1,29097,task3,622887,false,false,709,image-keyboard-response,27
true,11,1,1,0,false,q,true,false,0.0-2.0-0.23-0.211-3.211,0,0,1,90,true,stim,false,2,203.10000002384186,1,0,1,29097,task3,624619,false,false,712,image-keyboard-response,1
true,11,2,1,0,false,q,true,false,0.0-2.0-0.23-0.212-3.212,0,0,1,68,false,stim,false,0,60.799999952316284,1,1,2,29097,task3,626197,false,false,715,image-keyboard-response,2
true,11,1,1,2,false,d,false,false,0.0-2.0-0.23-0.213-3.213,0,0,1,90,false,stim,true,1,209.0,1,0,0,29097,task3,627928,false,false,718,image-keyboard-response,3
true,11,0,1,2,false,d,true,false,0.0-2.0-0.23-0.214-3.214,0,0,1,81,false,stim,false,1,525.5,1,0,0,29097,task3,629976,false,false,721,image-keyboard-response,4
true,11,1,1,2,false,d,false,false,0.0-2.0-0.23-0.215-3.215,0,0,1,90,false,stim,true,1,242.19999992847443,1,0,0,29097,task3,631744,false,false,724,image-keyboard-response,5
true,11,2,1,2,true,d,false,true,0.0-2.0-0.24-0.216-3.216,0,0,1,68,false,stim,false,1,287.39999997615814,1,0,0,29097,task3,633549,false,false,727,image-keyboard-response,6
true,11,2,1,0,false,q,true,false,0.0-2.0-0.24-0.217-3.217,0,0,1,68,false,stim,false,0,368.39999997615814,1,1,2,29097,task3,635440,false,false,730,image-keyboard-response,7
true,11,0,1,0,true,q,false,true,0.0-2.0-0.24-0.218-3.218,0,0,1,81,false,stim,false,0,256.7999999523163,1,1,2,29097,task3,637217,false,false,733,image-keyboard-response,8
true,11,2,1,2,true,d,false,true,0.0-2.0-0.24-0.219-3.219,0,0,1,68,false,stim,false,1,729.8000000715256,1,0,0,29097,task3,639473,false,false,736,image-keyboard-response,9
true,11,1,1,0,false,q,true,true,0.0-2.0-0.24-0.220-3.220,0,0,1,90,false,stim,false,2,855.0,1,0,1,29097,task3,641851,false,true,739,image-keyboard-response,10
true,11,1,1,0,false,q,true,true,0.0-2.0-0.24-0.221-3.221,0,0,1,90,false,stim,false,2,531.2999999523163,1,0,1,29097,task3,643918,false,true,742,image-keyboard-response,11
true,11,0,1,2,false,d,true,false,0.0-2.0-0.24-0.222-3.222,0,0,1,81,false,stim,false,1,812.0,1,0,0,29097,task3,646255,false,false,745,image-keyboard-response,12
true,11,2,1,0,false,q,true,false,0.0-2.0-0.24-0.223-3.223,0,0,1,68,false,stim,false,0,151.39999997615814,1,1,2,29097,task3,647937,false,false,748,image-keyboard-response,13
true,11,2,1,0,false,q,false,false,0.0-2.0-0.24-0.224-3.224,0,0,1,68,false,stim,true,2,559.0,1,0,1,29097,task3,650015,false,false,751,image-keyboard-response,14
true,11,1,1,0,false,q,true,false,0.0-2.0-0.25-0.225-3.225,0,0,1,90,false,stim,false,0,407.7000000476837,1,1,2,29097,task3,651943,false,false,754,image-keyboard-response,15
true,11,0,1,2,false,d,true,false,0.0-2.0-0.25-0.226-3.226,0,0,1,81,false,stim,false,1,435.2999999523163,1,0,0,29097,task3,653898,false,false,757,image-keyboard-response,16
true,11,2,1,0,false,q,false,false,0.0-2.0-0.25-0.227-3.227,0,0,1,68,false,stim,true,2,291.90000009536743,1,0,1,29097,task3,655700,false,false,760,image-keyboard-response,17
true,11,2,1,2,true,d,false,true,0.0-2.0-0.25-0.228-3.228,0,0,1,68,false,stim,false,1,422.90000009536743,1,0,0,29097,task3,657643,false,false,763,image-keyboard-response,18
true,11,2,1,0,false,q,true,false,0.0-2.0-0.25-0.229-3.229,0,0,1,68,false,stim,false,0,1829.1999999284744,1,1,2,29097,task3,660998,false,false,766,image-keyboard-response,19
true,11,2,1,0,false,q,false,false,0.0-2.0-0.25-0.230-3.230,0,0,1,68,false,stim,true,2,1236.1000000238419,1,0,1,29097,task3,663756,false,false,769,image-keyboard-response,20
true,11,1,1,0,false,q,true,false,0.0-2.0-0.25-0.231-3.231,0,0,1,90,false,stim,false,2,596.3999999761581,1,0,1,29097,task3,665881,false,false,772,image-keyboard-response,21
true,11,0,1,0,true,q,false,true,0.0-2.0-0.25-0.232-3.232,0,0,1,81,false,stim,false,0,500.3000000715256,1,1,2,29097,task3,667904,false,false,775,image-keyboard-response,22
true,11,0,1,2,false,d,true,false,0.0-2.0-0.25-0.233-3.233,0,0,1,81,false,stim,false,1,561.6000000238419,1,0,0,29097,task3,669993,false,false,778,image-keyboard-response,23
true,11,2,1,0,false,q,false,false,0.0-2.0-0.26-0.234-3.234,0,0,1,68,false,stim,true,2,176.89999997615814,1,1,1,29097,task3,671697,false,false,781,image-keyboard-response,24
true,11,2,1,0,false,q,true,false,0.0-2.0-0.26-0.235-3.235,0,0,1,68,false,stim,false,0,339.89999997615814,1,1,2,29097,task3,673570,false,false,784,image-keyboard-response,25
true,11,1,1,2,false,d,false,false,0.0-2.0-0.26-0.236-3.236,0,0,1,90,false,stim,true,1,427.5,1,0,0,29097,task3,675516,false,false,787,image-keyboard-response,26
true,11,0,1,2,false,d,true,false,0.0-2.0-0.26-0.237-3.237,0,0,1,81,false,stim,false,1,400.7000000476837,1,0,0,29097,task3,677442,false,false,790,image-keyboard-response,27
true,11,0,1,2,false,d,true,false,0.0-2.0-0.26-0.238-3.238,0,0,1,81,false,stim,false,1,793.8999999761581,1,0,0,29097,task3,679756,false,false,793,image-keyboard-response,28
true,12,1,2,0,false,q,true,false,0.0-2.0-0.26-0.239-3.239,0,1,1,90,true,stim,false,0,297.90000009536743,1,1,2,29097,task3,681576,false,false,796,image-keyboard-response,1
true,12,2,2,0,false,q,true,false,0.0-2.0-0.26-0.240-3.240,0,1,1,68,false,stim,false,0,204.5,1,1,2,29097,task3,683291,false,false,799,image-keyboard-response,2
true,12,0,2,0,true,q,false,true,0.0-2.0-0.26-0.241-3.241,0,1,1,81,false,stim,false,0,543.7000000476837,1,1,1,29097,task3,685354,false,false,802,image-keyboard-response,3
true,12,0,2,0,true,q,false,true,0.0-2.0-0.26-0.242-3.242,0,1,1,81,false,stim,false,0,275.5,1,1,1,29097,task3,687156,false,false,805,image-keyboard-response,4
true,12,0,2,0,true,q,false,true,0.0-2.0-0.27-0.243-3.243,0,1,1,81,false,stim,false,0,340.2000000476837,1,1,2,29097,task3,689015,false,false,808,image-keyboard-response,5
true,12,0,2,0,true,q,false,true,0.0-2.0-0.27-0.244-3.244,0,1,1,81,false,stim,false,0,239.10000002384186,1,1,1,29097,task3,690766,false,false,811,image-keyboard-response,6
true,12,0,2,1,false,z,true,false,0.0-2.0-0.27-0.245-3.245,0,1,1,81,false,stim,false,2,177.39999997615814,1,0,0,29097,task3,692472,false,false,814,image-keyboard-response,7
true,12,0,2,0,true,q,false,true,0.0-2.0-0.27-0.246-3.246,0,1,1,81,false,stim,false,0,410.59999990463257,1,1,2,29097,task3,694403,false,false,817,image-keyboard-response,8
true,12,0,2,1,false,z,true,false,0.0-2.0-0.27-0.247-3.247,0,1,1,81,false,stim,false,2,701.7000000476837,1,0,0,29097,task3,696630,false,false,820,image-keyboard-response,9
true,12,0,2,0,true,q,false,true,0.0-2.0-0.27-0.248-3.248,0,1,1,81,false,stim,false,0,759.8000000715256,1,1,2,29097,task3,698918,false,false,823,image-keyboard-response,10
true,12,0,2,0,true,q,false,true,0.0-2.0-0.27-0.249-3.249,0,1,1,81,false,stim,false,0,369.39999997615814,1,1,1,29097,task3,700802,false,false,826,image-keyboard-response,11
true,12,0,2,1,false,z,true,false,0.0-2.0-0.27-0.250-3.250,0,1,1,81,false,stim,false,2,691.3999999761581,1,0,0,29097,task3,703022,false,false,829,image-keyboard-response,12
true,12,0,2,0,true,q,false,true,0.0-2.0-0.27-0.251-3.251,0,1,1,81,false,stim,false,0,388.5,1,1,1,29097,task3,704926,false,false,832,image-keyboard-response,13
true,12,0,2,1,false,z,true,false,0.0-2.0-0.28-0.252-3.252,0,1,1,81,false,stim,false,2,720.8999999761581,1,0,0,29097,task3,707173,false,false,835,image-keyboard-response,14
true,12,2,2,0,false,q,true,false,0.0-2.0-0.28-0.253-3.253,0,1,1,68,false,stim,false,0,2376.5,1,1,1,29097,task3,711063,false,false,838,image-keyboard-response,15
true,12,2,2,0,false,q,true,true,0.0-2.0-0.28-0.254-3.254,0,1,1,68,false,stim,false,0,544.3999999761581,1,1,2,29097,task3,713130,false,true,841,image-keyboard-response,16
true,12,0,2,1,false,z,true,false,0.0-2.0-0.28-0.255-3.255,0,1,1,81,false,stim,false,2,414.8000000715256,1,0,0,29097,task3,715067,false,false,844,image-keyboard-response,17
true,12,0,2,0,true,q,false,true,0.0-2.0-0.28-0.256-3.256,0,1,1,81,false,stim,false,0,332.39999997615814,1,1,2,29097,task3,716920,false,false,847,image-keyboard-response,18
true,12,0,2,0,true,q,false,true,0.0-2.0-0.28-0.257-3.257,0,1,1,81,false,stim,false,0,2607.0999999046326,1,1,1,29097,task3,721043,false,false,850,image-keyboard-response,19
true,12,0,2,0,true,q,false,true,0.0-2.0-0.28-0.258-3.258,0,1,1,81,false,stim,false,0,210.70000004768372,1,1,1,29097,task3,722775,false,false,853,image-keyboard-response,20
true,12,0,2,0,true,q,false,true,0.0-2.0-0.28-0.259-3.259,0,1,1,81,false,stim,false,0,678.1000000238419,1,1,2,29097,task3,724982,false,false,856,image-keyboard-response,21
true,12,0,2,1,false,z,true,false,0.0-2.0-0.28-0.260-3.260,0,1,1,81,false,stim,false,2,314.0,1,0,0,29097,task3,726823,false,false,859,image-keyboard-response,22
true,12,0,2,1,false,z,true,true,0.0-2.0-0.29-0.261-3.261,0,1,1,81,false,stim,false,2,539.7999999523163,1,0,0,29097,task3,728886,false,true,862,image-keyboard-response,23
true,12,2,2,0,false,q,true,false,0.0-2.0-0.29-0.262-3.262,0,1,1,68,false,stim,false,0,562.2999999523163,1,0,1,29097,task3,730975,false,false,865,image-keyboard-response,24
true,12,0,2,0,true,q,false,true,0.0-2.0-0.29-0.263-3.263,0,1,1,81,false,stim,false,0,235.5,1,1,2,29097,task3,732744,false,false,868,image-keyboard-response,25
true,12,0,2,0,true,q,false,true,0.0-2.0-0.29-0.264-3.264,0,1,1,81,false,stim,false,0,637.8000000715256,1,0,1,29097,task3,734899,false,false,871,image-keyboard-response,26
true,12,2,2,1,false,z,false,false,0.0-2.0-0.29-0.265-3.265,0,1,1,68,false,stim,true,2,713.7000000476837,1,0,0,29097,task3,737143,false,false,874,image-keyboard-response,27
true,13,0,1,2,false,d,false,false,0.0-2.0-0.29-0.266-3.266,0,0,1,81,true,stim,true,0,46.60000002384186,1,0,1,29097,task3,738721,false,false,877,image-keyboard-response,1
true,13,2,1,2,true,d,false,true,0.0-2.0-0.29-0.267-3.267,0,0,1,68,false,stim,false,1,55.5,1,0,0,29097,task3,740296,false,false,880,image-keyboard-response,2
true,13,2,1,0,false,q,true,false,0.0-2.0-0.29-0.268-3.268,0,0,1,68,false,stim,false,0,1503.5,1,1,2,29097,task3,743313,false,false,883,image-keyboard-response,3
true,13,0,1,0,true,q,false,true,0.0-2.0-0.29-0.269-3.269,0,0,1,81,false,stim,false,0,943.2999999523163,1,1,2,29097,task3,745774,false,false,886,image-keyboard-response,4
true,13,0,1,2,false,d,false,false,0.0-2.0-0.30-0.270-3.270,0,0,1,81,false,stim,true,0,948.0,1,0,1,29097,task3,748238,false,false,889,image-keyboard-response,5
true,13,2,1,2,true,d,false,true,0.0-2.0-0.30-0.271-3.271,0,0,1,68,false,stim,false,1,172.10000002384186,1,0,0,29097,task3,749943,false,false,892,image-keyboard-response,6
true,13,2,1,0,false,q,true,false,0.0-2.0-0.30-0.272-3.272,0,0,1,68,false,stim,false,0,470.90000009536743,1,1,2,29097,task3,751923,false,false,895,image-keyboard-response,7
true,13,0,1,0,true,q,false,true,0.0-2.0-0.30-0.273-3.273,0,0,1,81,false,stim,false,0,755.5,1,1,2,29097,task3,754204,false,false,898,image-keyboard-response,8
true,13,0,1,2,false,d,false,false,0.0-2.0-0.30-0.274-3.274,0,0,1,81,false,stim,true,0,622.7999999523163,1,0,1,29097,task3,756362,false,false,901,image-keyboard-response,9
true,13,2,1,2,true,d,false,true,0.0-2.0-0.30-0.275-3.275,0,0,1,68,false,stim,false,1,670.6000000238419,1,0,0,29097,task3,758570,false,false,904,image-keyboard-response,10
true,13,2,1,2,true,d,false,true,0.0-2.0-0.30-0.276-3.276,0,0,1,68,false,stim,false,0,2088.899999976158,1,0,1,29097,task3,762183,false,false,907,image-keyboard-response,11
true,13,2,1,2,true,d,false,true,0.0-2.0-0.30-0.277-3.277,0,0,1,68,false,stim,false,1,685.7999999523163,1,0,0,29097,task3,764389,false,false,910,image-keyboard-response,12
true,13,1,1,0,false,q,true,false,0.0-2.0-0.30-0.278-3.278,0,0,1,90,false,stim,false,0,913.0,1,1,2,29097,task3,766817,false,false,913,image-keyboard-response,13
true,13,2,1,2,true,d,false,true,0.0-2.0-0.31-0.279-3.279,0,0,1,68,false,stim,false,0,329.7000000476837,1,0,1,29097,task3,768670,false,false,916,image-keyboard-response,14
true,13,0,1,2,false,d,true,false,0.0-2.0-0.31-0.280-3.280,0,0,1,81,false,stim,false,1,241.60000002384186,1,0,0,29097,task3,770435,false,false,919,image-keyboard-response,15
true,13,2,1,2,true,d,false,true,0.0-2.0-0.31-0.281-3.281,0,0,1,68,false,stim,false,1,9.899999976158142,1,0,0,29097,task3,771965,false,false,922,image-keyboard-response,16
true,13,1,1,0,false,q,true,false,0.0-2.0-0.31-0.282-3.282,0,0,1,90,false,stim,false,0,74.69999992847443,1,1,2,29097,task3,773564,false,false,925,image-keyboard-response,17
true,13,2,1,2,true,d,false,true,0.0-2.0-0.31-0.283-3.283,0,0,1,68,false,stim,false,0,281.1999999284744,1,0,1,29097,task3,775371,false,false,928,image-keyboard-response,18
true,13,0,1,2,false,d,false,false,0.0-2.0-0.31-0.284-3.284,0,0,1,81,false,stim,true,0,651.0999999046326,1,0,1,29097,task3,777544,false,false,931,image-keyboard-response,19
true,13,2,1,2,true,d,false,true,0.0-2.0-0.31-0.285-3.285,0,0,1,68,false,stim,false,1,300.60000002384186,1,0,0,29097,task3,779365,false,false,934,image-keyboard-response,20
true,13,1,1,0,false,q,true,false,0.0-2.0-0.31-0.286-3.286,0,0,1,90,false,stim,false,0,7.399999976158142,1,1,2,29097,task3,780900,false,false,937,image-keyboard-response,21
true,13,0,1,0,true,q,false,true,0.0-2.0-0.31-0.287-3.287,0,0,1,81,false,stim,false,0,287.0,1,1,2,29097,task3,782706,false,false,940,image-keyboard-response,22
true,13,2,1,2,true,d,false,true,0.0-2.0-0.32-0.288-3.288,0,0,1,68,false,stim,false,0,355.60000002384186,1,0,1,29097,task3,784580,false,false,943,image-keyboard-response,23
true,13,2,1,2,true,d,false,true,0.0-2.0-0.32-0.289-3.289,0,0,1,68,false,stim,false,0,913.3999999761581,1,0,1,29097,task3,787020,false,false,946,image-keyboard-response,24
true,13,0,1,0,true,q,false,true,0.0-2.0-0.32-0.290-3.290,0,0,1,81,false,stim,false,0,269.60000002384186,1,1,2,29097,task3,788811,false,false,949,image-keyboard-response,25
true,13,0,1,2,false,d,true,false,0.0-2.0-0.32-0.291-3.291,0,0,1,81,false,stim,false,1,352.7999999523163,1,1,0,29097,task3,790686,false,false,952,image-keyboard-response,26
true,13,2,1,0,false,q,true,false,0.0-2.0-0.32-0.292-3.292,0,0,1,68,false,stim,false,0,872.7999999523163,1,1,2,29097,task3,793091,false,false,955,image-keyboard-response,27
true,13,1,1,2,false,d,false,false,0.0-2.0-0.32-0.293-3.293,0,0,1,90,false,stim,true,1,759.3999999761581,1,1,0,29097,task3,795378,false,false,958,image-keyboard-response,28
true,14,1,2,2,false,d,true,false,0.0-2.0-0.32-0.294-3.294,1,0,1,90,true,stim,false,2,1940.2999999523163,1,1,0,29097,task3,798842,false,false,961,image-keyboard-response,1
true,14,0,2,0,true,q,false,true,0.0-2.0-0.32-0.295-3.295,1,0,1,81,false,stim,false,0,775.0,1,1,2,29097,task3,801143,false,false,964,image-keyboard-response,2
true,14,2,2,1,false,z,false,false,0.0-2.0-0.32-0.296-3.296,1,0,1,68,false,stim,true,2,262.0,1,0,1,29097,task3,802925,false,false,967,image-keyboard-response,3
true,14,2,2,2,true,d,false,true,0.0-2.0-0.33-0.297-3.297,1,0,1,68,false,stim,false,2,382.89999997615814,1,1,0,29097,task3,804832,false,false,970,image-keyboard-response,4
true,14,1,2,2,false,d,true,false,0.0-2.0-0.33-0.298-3.298,1,0,1,90,false,stim,false,2,1345.6000000238419,1,1,0,29097,task3,807705,false,false,973,image-keyboard-response,5
true,14,2,2,2,true,d,false,true,0.0-2.0-0.33-0.299-3.299,1,0,1,68,false,stim,false,2,2098.9000000953674,1,1,0,29097,task3,811326,false,false,976,image-keyboard-response,6
true,14,2,2,1,false,z,false,false,0.0-2.0-0.33-0.300-3.300,1,0,1,68,false,stim,true,2,2273.100000023842,1,0,1,29097,task3,815132,false,false,979,image-keyboard-response,7
true,14,0,2,1,false,z,true,false,0.0-2.0-0.33-0.301-3.301,1,0,1,81,false,stim,false,2,261.40000009536743,1,0,1,29097,task3,816914,false,false,982,image-keyboard-response,8
true,14,2,2,0,false,q,true,false,0.0-2.0-0.33-0.302-3.302,1,0,1,68,false,stim,false,0,235.60000002384186,1,1,2,29097,task3,818667,false,false,985,image-keyboard-response,9
true,14,1,2,0,false,q,true,false,0.0-2.0-0.33-0.303-3.303,1,0,1,90,false,stim,false,0,1027.7000000476837,1,1,2,29097,task3,821224,false,false,988,image-keyboard-response,10
true,14,2,2,0,false,q,true,false,0.0-2.0-0.33-0.304-3.304,1,0,1,68,false,stim,false,0,1124.7999999523163,1,1,2,29097,task3,823871,false,false,991,image-keyboard-response,11
true,14,1,2,1,true,z,false,true,0.0-2.0-0.33-0.305-3.305,1,0,1,90,false,stim,false,2,0.20000004768371582,1,0,1,29097,task3,825387,false,false,994,image-keyboard-response,12
true,14,0,2,1,false,z,true,false,0.0-2.0-0.34-0.306-3.306,1,0,1,81,false,stim,false,2,1509.6000000238419,1,0,1,29097,task3,828422,false,false,997,image-keyboard-response,13
true,14,1,2,1,true,z,false,true,0.0-2.0-0.34-0.307-3.307,1,0,1,90,false,stim,false,2,48.40000009536743,1,0,1,29097,task3,829996,false,false,1000,image-keyboard-response,14
true,14,2,2,0,false,q,true,false,0.0-2.0-0.34-0.308-3.308,1,0,1,68,false,stim,false,0,157.60000002384186,1,1,2,29097,task3,831669,false,false,1003,image-keyboard-response,15
true,14,1,2,0,false,q,true,false,0.0-2.0-0.34-0.309-3.309,1,0,1,90,false,stim,false,0,619.8999999761581,1,1,2,29097,task3,833809,false,false,1006,image-keyboard-response,16
true,14,0,2,1,false,z,true,false,0.0-2.0-0.34-0.310-3.310,1,0,1,81,false,stim,false,2,599.3999999761581,1,0,1,29097,task3,835942,false,false,1009,image-keyboard-response,17
true,14,2,2,2,true,d,false,true,0.0-2.0-0.34-0.311-3.311,1,0,1,68,false,stim,false,2,580.2999999523163,1,1,0,29097,task3,838054,false,false,1012,image-keyboard-response,18
true,14,2,2,2,true,d,false,false,0.0-2.0-0.34-0.312-3.312,1,0,1,68,false,stim,false,2,277.7999999523163,1,1,0,29097,task3,839855,false,true,1015,image-keyboard-response,19
true,14,1,2,0,false,q,true,true,0.0-2.0-0.34-0.313-3.313,1,0,1,90,false,stim,false,0,2195.5,1,0,2,29097,task3,843570,false,true,1018,image-keyboard-response,20
true,14,1,2,2,false,d,true,false,0.0-2.0-0.34-0.314-3.314,1,0,1,90,false,stim,false,2,776.7000000476837,1,1,0,29097,task3,845876,false,false,1021,image-keyboard-response,21
true,14,0,2,0,true,q,false,true,0.0-2.0-0.35-0.315-3.315,1,0,1,81,false,stim,false,0,326.7999999523163,1,0,2,29097,task3,847732,false,false,1024,image-keyboard-response,22
true,14,2,2,1,false,z,false,true,0.0-2.0-0.35-0.316-3.316,1,0,1,68,false,stim,true,2,768.5,1,0,1,29097,task3,850022,false,true,1027,image-keyboard-response,23
true,14,1,2,2,false,d,true,false,0.0-2.0-0.35-0.317-3.317,1,0,1,90,false,stim,false,2,1253.8999999761581,1,1,0,29097,task3,852806,false,false,1030,image-keyboard-response,24
true,15,1,1,2,false,d,true,false,0.0-2.0-0.35-0.318-3.318,1,0,0,90,true,stim,false,2,1551.1000000238419,1,1,0,29097,task3,855873,false,false,1033,image-keyboard-response,1
true,15,2,1,0,false,q,true,true,0.0-2.0-0.35-0.319-3.319,1,0,0,68,false,stim,false,1,655.5,1,0,1,29097,task3,858056,false,true,1036,image-keyboard-response,2
true,15,1,1,2,false,d,true,false,0.0-2.0-0.35-0.320-3.320,1,0,0,90,false,stim,false,0,178.80000007152557,1,0,2,29097,task3,859754,false,false,1039,image-keyboard-response,3
true,15,1,1,2,false,d,true,false,0.0-2.0-0.35-0.321-3.321,1,0,0,90,false,stim,false,0,696.3000000715256,1,0,2,29097,task3,861964,false,false,1042,image-keyboard-response,4
true,15,1,1,0,false,q,false,false,0.0-2.0-0.35-0.322-3.322,1,0,0,90,false,stim,true,1,590.5,1,0,1,29097,task3,864090,false,false,1045,image-keyboard-response,5
true,15,0,1,2,false,d,true,false,0.0-2.0-0.35-0.323-3.323,1,0,0,81,false,stim,false,2,25.799999952316284,1,1,0,29097,task3,865643,false,false,1048,image-keyboard-response,6
true,15,1,1,2,false,d,true,false,0.0-2.0-0.36-0.324-3.324,1,0,0,90,false,stim,false,2,270.10000002384186,1,1,0,29097,task3,867438,false,false,1051,image-keyboard-response,7
true,15,2,1,0,false,q,true,false,0.0-2.0-0.36-0.325-3.325,1,0,0,68,false,stim,false,1,60.39999997615814,1,0,1,29097,task3,869009,false,false,1054,image-keyboard-response,8
true,15,1,1,2,false,d,true,false,0.0-2.0-0.36-0.326-3.326,1,0,0,90,false,stim,false,0,260.59999990463257,1,0,2,29097,task3,870791,false,false,1057,image-keyboard-response,9
true,15,2,1,2,true,d,false,true,0.0-2.0-0.36-0.327-3.327,1,0,0,68,false,stim,false,0,290.6999999284744,1,0,2,29097,task3,872591,false,false,1060,image-keyboard-response,10
true,15,0,1,2,false,d,false,false,0.0-2.0-0.36-0.328-3.328,1,0,0,81,false,stim,true,0,169.60000002384186,1,0,2,29097,task3,874285,false,false,1063,image-keyboard-response,11
true,15,1,1,0,false,q,false,false,0.0-2.0-0.36-0.329-3.329,1,0,0,90,false,stim,true,1,61.90000009536743,1,0,1,29097,task3,875870,false,false,1066,image-keyboard-response,12
true,15,2,1,0,false,q,true,false,0.0-2.0-0.36-0.330-3.330,1,0,0,68,false,stim,false,1,402.1999999284744,1,0,1,29097,task3,877800,false,false,1069,image-keyboard-response,13
true,15,1,1,2,false,d,true,false,0.0-2.0-0.36-0.331-3.331,1,0,0,90,false,stim,false,2,2075.0999999046326,1,1,0,29097,task3,881388,false,false,1072,image-keyboard-response,14
true,15,1,1,2,false,d,true,false,0.0-2.0-0.36-0.332-3.332,1,0,0,90,false,stim,false,2,112.20000004768372,1,1,0,29097,task3,883024,false,false,1075,image-keyboard-response,15
true,15,0,1,2,false,d,false,false,0.0-2.0-0.37-0.333-3.333,1,0,0,81,false,stim,true,0,355.39999997615814,1,0,2,29097,task3,884917,false,false,1078,image-keyboard-response,16
true,15,1,1,2,false,d,true,false,0.0-2.0-0.37-0.334-3.334,1,0,0,90,false,stim,false,2,600.0,1,1,0,29097,task3,887047,false,false,1081,image-keyboard-response,17
true,15,2,1,0,false,q,true,false,0.0-2.0-0.37-0.335-3.335,1,0,0,68,false,stim,false,1,689.1000000238419,1,0,1,29097,task3,889259,false,false,1084,image-keyboard-response,18
true,15,2,1,2,true,d,false,true,0.0-2.0-0.37-0.336-3.336,1,0,0,68,false,stim,false,0,681.2000000476837,1,0,2,29097,task3,891468,false,false,1087,image-keyboard-response,19
true,15,2,1,2,true,d,false,true,0.0-2.0-0.37-0.337-3.337,1,0,0,68,false,stim,false,0,492.89999997615814,1,0,2,29097,task3,893484,false,false,1090,image-keyboard-response,20
true,15,0,1,2,false,d,true,false,0.0-2.0-0.37-0.338-3.338,1,0,0,81,false,stim,false,2,396.5,1,1,0,29097,task3,895404,false,false,1093,image-keyboard-response,21
true,15,2,1,0,false,q,true,true,0.0-2.0-0.37-0.339-3.339,1,0,0,68,false,stim,false,1,382.09999990463257,1,0,1,29097,task3,897308,false,true,1096,image-keyboard-response,22
true,15,2,1,2,true,d,false,true,0.0-2.0-0.37-0.340-3.340,1,0,0,68,false,stim,false,2,356.60000002384186,1,1,0,29097,task3,899188,false,false,1099,image-keyboard-response,23
true,15,2,1,0,false,q,true,false,0.0-2.0-0.37-0.341-3.341,1,0,0,68,false,stim,false,1,255.79999995231628,1,1,1,29097,task3,900979,false,false,1102,image-keyboard-response,24
true,15,2,1,2,true,d,false,true,0.0-2.0-0.38-0.342-3.342,1,0,0,68,false,stim,false,2,293.39999997615814,1,1,0,29097,task3,902802,false,false,1105,image-keyboard-response,25
true,15,2,1,2,true,d,false,true,0.0-2.0-0.38-0.343-3.343,1,0,0,68,false,stim,false,2,2.700000047683716,1,1,0,29097,task3,904328,false,false,1108,image-keyboard-response,26
true,15,2,1,0,false,q,true,false,0.0-2.0-0.38-0.344-3.344,1,0,0,68,false,stim,false,1,821.1000000238419,1,1,1,29097,task3,906681,false,false,1111,image-keyboard-response,27
true,15,2,1,2,true,d,false,true,0.0-2.0-0.38-0.345-3.345,1,0,0,68,false,stim,false,2,78.70000004768372,1,1,0,29097,task3,908284,false,false,1114,image-keyboard-response,28
true,16,2,2,0,false,q,true,false,0.0-2.0-0.38-0.346-3.346,1,1,0,68,true,stim,false,0,525.3999999761581,1,1,1,29097,task3,910326,false,false,1117,image-keyboard-response,1
true,16,2,2,1,false,z,false,false,0.0-2.0-0.38-0.347-3.347,1,1,0,68,false,stim,true,2,325.10000002384186,1,0,2,29097,task3,912182,false,false,1120,image-keyboard-response,2
true,16,1,2,1,true,z,false,true,0.0-2.0-0.38-0.348-3.348,1,1,0,90,false,stim,false,2,431.60000002384186,1,0,2,29097,task3,914130,false,false,1123,image-keyboard-response,3
true,16,2,2,0,false,q,true,false,0.0-2.0-0.38-0.349-3.349,1,1,0,68,false,stim,false,0,1029.0,1,1,1,29097,task3,916693,false,false,1126,image-keyboard-response,4
true,16,2,2,1,false,z,false,false,0.0-2.0-0.38-0.350-3.350,1,1,0,68,false,stim,true,2,1471.1999999284744,1,0,2,29097,task3,919688,false,false,1129,image-keyboard-response,5
true,16,1,2,2,false,d,true,false,0.0-2.0-0.39-0.351-3.351,1,1,0,90,false,stim,false,2,387.2000000476837,1,0,0,29097,task3,921604,false,false,1132,image-keyboard-response,6
true,16,2,2,1,false,z,false,false,0.0-2.0-0.39-0.352-3.352,1,1,0,68,false,stim,true,2,326.89999997615814,1,1,2,29097,task3,923463,false,false,1135,image-keyboard-response,7
true,16,2,2,1,false,z,false,false,0.0-2.0-0.39-0.353-3.353,1,1,0,68,false,stim,true,2,377.2999999523163,1,1,2,29097,task3,925375,false,false,1138,image-keyboard-response,8
true,16,1,2,0,false,q,true,false,0.0-2.0-0.39-0.354-3.354,1,1,0,90,false,stim,false,0,1560.3000000715256,1,0,1,29097,task3,928462,false,false,1141,image-keyboard-response,9
true,16,0,2,2,false,d,true,false,0.0-2.0-0.39-0.355-3.355,1,1,0,81,false,stim,false,2,122.60000002384186,1,0,0,29097,task3,930102,false,false,1144,image-keyboard-response,10
true,17,2,1,2,true,d,false,true,0.0-2.0-0.39-0.356-3.356,0,0,1,68,true,stim,false,0,218.19999992847443,1,0,1,29097,task3,931840,false,false,1147,image-keyboard-response,1
true,17,1,1,2,false,d,true,false,0.0-2.0-0.39-0.357-3.357,0,0,1,90,false,stim,false,0,269.89999997615814,1,0,1,29097,task3,933650,false,false,1150,image-keyboard-response,2
true,17,2,1,1,false,z,true,true,0.0-2.0-0.39-0.358-3.358,0,0,1,68,false,stim,false,1,180.10000002384186,1,1,2,29097,task3,935348,false,true,1153,image-keyboard-response,3
true,17,2,1,0,false,q,false,true,0.0-2.0-0.39-0.359-3.359,0,0,1,68,false,stim,true,2,188.29999995231628,1,0,0,29097,task3,937062,false,true,1156,image-keyboard-response,4
true,17,2,1,0,false,q,false,false,0.0-2.0-0.40-0.360-3.360,0,0,1,68,false,stim,true,2,156.10000002384186,1,0,0,29097,task3,938736,false,false,1159,image-keyboard-response,5
true,17,2,1,0,false,q,false,false,0.0-2.0-0.40-0.361-3.361,0,0,1,68,false,stim,true,2,528.6000000238419,1,0,0,29097,task3,940788,false,false,1162,image-keyboard-response,6
true,17,1,1,1,true,z,false,true,0.0-2.0-0.40-0.362-3.362,0,0,1,90,false,stim,false,1,277.39999997615814,1,1,2,29097,task3,942584,false,false,1165,image-keyboard-response,7
true,17,2,1,0,false,q,false,false,0.0-2.0-0.40-0.363-3.363,0,0,1,68,false,stim,true,2,1278.8999999761581,1,0,0,29097,task3,945392,false,false,1168,image-keyboard-response,8
true,17,2,1,2,true,d,false,true,0.0-2.0-0.40-0.364-3.364,0,0,1,68,false,stim,false,0,864.6000000238419,1,0,1,29097,task3,947775,false,false,1171,image-keyboard-response,9
true,17,2,1,2,true,d,false,true,0.0-2.0-0.40-0.365-3.365,0,0,1,68,false,stim,false,0,257.1999999284744,1,0,1,29097,task3,949564,false,false,1174,image-keyboard-response,10
true,17,2,1,2,true,d,false,true,0.0-2.0-0.40-0.366-3.366,0,0,1,68,false,stim,false,0,301.5,1,0,1,29097,task3,951398,false,false,1177,image-keyboard-response,11
true,17,2,1,1,false,z,true,false,0.0-2.0-0.40-0.367-3.367,0,0,1,68,false,stim,false,1,155.39999997615814,1,1,2,29097,task3,953078,false,false,1180,image-keyboard-response,12
true,17,1,1,1,true,z,false,true,0.0-2.0-0.40-0.368-3.368,0,0,1,90,false,stim,false,1,482.89999997615814,1,1,2,29097,task3,955085,false,false,1183,image-keyboard-response,13
true,17,2,1,0,false,q,false,false,0.0-2.0-0.41-0.369-3.369,0,0,1,68,false,stim,true,2,688.7000000476837,1,0,0,29097,task3,957291,false,false,1186,image-keyboard-response,14
true,17,1,1,0,false,q,true,false,0.0-2.0-0.41-0.370-3.370,0,0,1,90,false,stim,false,2,257.90000009536743,1,0,0,29097,task3,959068,false,false,1189,image-keyboard-response,15
true,17,2,1,0,false,q,false,false,0.0-2.0-0.41-0.371-3.371,0,0,1,68,false,stim,true,2,1422.6000000238419,1,0,0,29097,task3,962006,false,false,1192,image-keyboard-response,16
true,17,2,1,2,true,d,false,true,0.0-2.0-0.41-0.372-3.372,0,0,1,68,false,stim,false,0,1786.8999999761581,1,0,1,29097,task3,965315,false,false,1195,image-keyboard-response,17
true,17,2,1,2,true,d,false,true,0.0-2.0-0.41-0.373-3.373,0,0,1,68,false,stim,false,0,2050.8000000715256,1,0,1,29097,task3,968886,false,false,1198,image-keyboard-response,18
true,17,2,1,1,false,z,true,true,0.0-2.0-0.41-0.374-3.374,0,0,1,68,false,stim,false,1,1263.1000000238419,1,1,2,29097,task3,971683,false,true,1201,image-keyboard-response,19
true,17,1,1,2,false,d,true,false,0.0-2.0-0.41-0.375-3.375,0,0,1,90,false,stim,false,0,439.7999999523163,1,0,1,29097,task3,973651,false,false,1204,image-keyboard-response,20
true,17,2,1,1,false,z,true,false,0.0-2.0-0.41-0.376-3.376,0,0,1,68,false,stim,false,1,1427.7999999523163,1,1,2,29097,task3,976594,false,false,1207,image-keyboard-response,21
true,17,1,1,1,true,z,false,true,0.0-2.0-0.41-0.377-3.377,0,0,1,90,false,stim,false,1,1309.2999999523163,1,1,2,29097,task3,979427,false,false,1210,image-keyboard-response,22
true,17,2,1,1,false,z,true,false,0.0-2.0-0.42-0.378-3.378,0,0,1,68,false,stim,false,1,356.39999997615814,1,1,2,29097,task3,981303,false,false,1213,image-keyboard-response,23
true,17,1,1,0,false,q,true,false,0.0-2.0-0.42-0.379-3.379,0,0,1,90,false,stim,false,2,516.2000000476837,1,0,0,29097,task3,983351,false,false,1216,image-keyboard-response,24
true,17,0,1,0,true,q,false,true,0.0-2.0-0.42-0.380-3.380,0,0,1,81,false,stim,false,2,310.2999999523163,1,1,0,29097,task3,985192,false,false,1219,image-keyboard-response,25
true,17,0,1,2,false,d,false,false,0.0-2.0-0.42-0.381-3.381,0,0,1,81,false,stim,true,0,701.3000000715256,1,0,1,29097,task3,987425,false,false,1222,image-keyboard-response,26
true,17,1,1,1,true,z,false,true,0.0-2.0-0.42-0.382-3.382,0,0,1,90,false,stim,false,1,317.2999999523163,1,0,2,29097,task3,989277,false,false,1225,image-keyboard-response,27
true,17,2,1,1,false,z,true,false,0.0-2.0-0.42-0.383-3.383,0,0,1,68,false,stim,false,1,314.3000000715256,1,0,2,29097,task3,991112,false,false,1228,image-keyboard-response,28
true,17,1,1,2,false,d,true,false,0.0-2.0-0.42-0.384-3.384,0,0,1,90,false,stim,false,0,1475.0,1,0,1,29097,task3,994113,false,false,1231,image-keyboard-response,29
true,18,0,1,0,true,q,false,true,0.0-2.0-0.42-0.385-3.385,1,0,0,81,true,stim,false,0,378.60000002384186,1,1,0,29097,task3,996010,false,false,1234,image-keyboard-response,1
true,18,2,1,1,false,z,false,true,0.0-2.0-0.42-0.386-3.386,1,0,0,68,false,stim,true,2,538.5,1,0,1,29097,task3,998070,false,true,1237,image-keyboard-response,2
true,18,1,1,0,false,q,true,false,0.0-2.0-0.43-0.387-3.387,1,0,0,90,false,stim,false,0,508.59999990463257,1,1,0,29097,task3,1000105,false,false,1240,image-keyboard-response,3
true,18,0,1,1,false,z,true,false,0.0-2.0-0.43-0.388-3.388,1,0,0,81,false,stim,false,2,545.0,1,0,1,29097,task3,1002172,false,false,1243,image-keyboard-response,4
true,18,1,1,1,true,z,false,true,0.0-2.0-0.43-0.389-3.389,1,0,0,90,false,stim,false,2,316.59999990463257,1,0,1,29097,task3,1004006,false,false,1246,image-keyboard-response,5
true,18,2,1,0,false,q,true,false,0.0-2.0-0.43-0.390-3.390,1,0,0,68,false,stim,false,0,1543.1000000238419,1,1,0,29097,task3,1007085,false,false,1249,image-keyboard-response,6
true,18,1,1,0,false,q,false,false,0.0-2.0-0.43-0.391-3.391,1,0,0,90,false,stim,true,1,364.39999997615814,1,0,2,29097,task3,1008976,false,false,1252,image-keyboard-response,7
true,18,0,1,0,true,q,false,true,0.0-2.0-0.43-0.392-3.392,1,0,0,81,false,stim,false,1,312.59999990463257,1,0,2,29097,task3,1010821,false,false,1255,image-keyboard-response,8
true,18,0,1,0,true,q,false,true,0.0-2.0-0.43-0.393-3.393,1,0,0,81,false,stim,false,1,1340.5,1,0,2,29097,task3,1013685,false,false,1258,image-keyboard-response,9
true,18,2,1,1,false,z,false,false,0.0-2.0-0.43-0.394-3.394,1,0,0,68,false,stim,true,2,448.39999997615814,1,0,1,29097,task3,1015659,false,false,1261,image-keyboard-response,10
true,18,1,1,0,false,q,true,false,0.0-2.0-0.43-0.395-3.395,1,0,0,90,false,stim,false,0,985.2999999523163,1,1,0,29097,task3,1018181,false,false,1264,image-keyboard-response,11
true,18,0,1,0,true,q,false,true,0.0-2.0-0.44-0.396-3.396,1,0,0,81,false,stim,false,0,1842.1000000238419,1,1,0,29097,task3,1021548,false,false,1267,image-keyboard-response,12
true,18,1,1,1,true,z,false,true,0.0-2.0-0.44-0.397-3.397,1,0,0,90,false,stim,false,2,485.2000000476837,1,0,1,29097,task3,1023549,false,false,1270,image-keyboard-response,13
true,18,1,1,1,true,z,false,true,0.0-2.0-0.44-0.398-3.398,1,0,0,90,false,stim,false,2,206.79999995231628,1,0,1,29097,task3,1025285,false,false,1273,image-keyboard-response,14
true,18,1,1,0,false,q,false,true,0.0-2.0-0.44-0.399-3.399,1,0,0,90,false,stim,true,1,907.6999999284744,1,0,2,29097,task3,1027718,false,true,1276,image-keyboard-response,15
true,18,1,1,0,false,q,false,false,0.0-2.0-0.44-0.400-3.400,1,0,0,90,false,stim,true,1,397.10000002384186,1,0,2,29097,task3,1029647,false,false,1279,image-keyboard-response,16
true,18,0,1,0,true,q,false,true,0.0-2.0-0.44-0.401-3.401,1,0,0,81,false,stim,false,1,434.2000000476837,1,0,2,29097,task3,1031607,false,false,1282,image-keyboard-response,17
true,18,0,1,0,true,q,false,true,0.0-2.0-0.44-0.402-3.402,1,0,0,81,false,stim,false,0,484.0,1,1,0,29097,task3,1033617,false,false,1285,image-keyboard-response,18
true,18,1,1,1,true,z,false,true,0.0-2.0-0.44-0.403-3.403,1,0,0,90,false,stim,false,2,910.5,1,1,1,29097,task3,1036046,false,false,1288,image-keyboard-response,19
true,18,0,1,0,true,q,false,true,0.0-2.0-0.44-0.404-3.404,1,0,0,81,false,stim,false,0,1209.3000000715256,1,0,0,29097,task3,1038777,false,false,1291,image-keyboard-response,20
true,18,1,1,1,true,z,false,true,0.0-2.0-0.45-0.405-3.405,1,0,0,90,false,stim,false,2,577.1999999284744,1,1,1,29097,task3,1040874,false,false,1294,image-keyboard-response,21
true,18,0,1,0,true,q,false,true,0.0-2.0-0.45-0.406-3.406,1,0,0,81,false,stim,false,1,821.1000000238419,1,0,2,29097,task3,1043216,false,false,1297,image-keyboard-response,22
true,18,1,1,1,true,z,false,true,0.0-2.0-0.45-0.407-3.407,1,0,0,90,false,stim,false,2,680.6999999284744,1,1,1,29097,task3,1045409,false,false,1300,image-keyboard-response,23
true,19,1,1,2,false,d,true,true,0.0-2.0-0.45-0.408-3.408,0,1,0,90,true,stim,false,0,388.2000000476837,1,0,2,29097,task3,1047318,false,true,1303,image-keyboard-response,1
true,19,0,1,2,false,d,false,false,0.0-2.0-0.45-0.409-3.409,0,1,0,81,false,stim,true,0,812.0999999046326,1,0,0,29097,task3,1049648,false,false,1306,image-keyboard-response,2
true,19,1,1,1,true,z,false,true,0.0-2.0-0.45-0.410-3.410,0,1,0,90,false,stim,false,1,268.7999999523163,1,1,1,29097,task3,1051444,false,false,1309,image-keyboard-response,3
true,19,1,1,2,false,d,true,false,0.0-2.0-0.45-0.411-3.411,0,1,0,90,false,stim,false,0,1811.7000000476837,1,0,0,29097,task3,1054779,false,false,1312,image-keyboard-response,4
true,19,0,1,2,false,d,false,true,0.0-2.0-0.45-0.412-3.412,0,1,0,81,false,stim,true,0,607.1000000238419,1,0,2,29097,task3,1056911,false,true,1315,image-keyboard-response,5
true,19,2,1,2,true,d,false,true,0.0-2.0-0.45-0.413-3.413,0,1,0,68,false,stim,false,0,443.90000009536743,1,0,0,29097,task3,1058874,false,false,1318,image-keyboard-response,6
true,19,1,1,2,false,d,true,false,0.0-2.0-0.46-0.414-3.414,0,1,0,90,false,stim,false,0,262.59999990463257,1,0,0,29097,task3,1060659,false,false,1321,image-keyboard-response,7
true,19,1,1,2,false,d,true,false,0.0-2.0-0.46-0.415-3.415,0,1,0,90,false,stim,false,0,812.8999999761581,1,0,0,29097,task3,1062995,false,false,1324,image-keyboard-response,8
true,19,1,1,2,false,d,true,false,0.0-2.0-0.46-0.416-3.416,0,1,0,90,false,stim,false,0,436.7999999523163,1,0,2,29097,task3,1064966,false,false,1327,image-keyboard-response,9
true,19,2,1,2,true,d,false,true,0.0-2.0-0.46-0.417-3.417,0,1,0,68,false,stim,false,0,139.19999992847443,1,0,2,29097,task3,1066638,false,false,1330,image-keyboard-response,10
true,19,2,1,2,true,d,false,true,0.0-2.0-0.46-0.418-3.418,0,1,0,68,false,stim,false,0,1231.3999999761581,1,0,2,29097,task3,1069400,false,false,1333,image-keyboard-response,11
true,19,1,1,1,true,z,false,false,0.0-2.0-0.46-0.419-3.419,0,1,0,90,false,stim,false,1,287.2999999523163,1,1,1,29097,task3,1071218,false,true,1336,image-keyboard-response,12
true,19,0,1,1,false,z,true,true,0.0-2.0-0.46-0.420-3.420,0,1,0,81,false,stim,false,1,503.8000000715256,1,1,1,29097,task3,1073252,false,true,1339,image-keyboard-response,13
true,19,1,1,2,false,d,true,false,0.0-2.0-0.46-0.421-3.421,0,1,0,90,false,stim,false,0,223.70000004768372,1,0,0,29097,task3,1075015,false,false,1342,image-keyboard-response,14
true,19,1,1,1,true,z,false,true,0.0-2.0-0.46-0.422-3.422,0,1,0,90,false,stim,false,1,1686.5,1,1,1,29097,task3,1078212,false,false,1345,image-keyboard-response,15
true,19,0,1,2,false,d,false,false,0.0-2.0-0.47-0.423-3.423,0,1,0,81,false,stim,true,0,554.3000000715256,1,0,2,29097,task3,1080294,false,false,1348,image-keyboard-response,16
true,19,2,1,2,true,d,false,true,0.0-2.0-0.47-0.424-3.424,0,1,0,68,false,stim,false,0,1667.4000000953674,1,0,2,29097,task3,1083485,false,false,1351,image-keyboard-response,17
true,19,2,1,2,true,d,false,true,0.0-2.0-0.47-0.425-3.425,0,1,0,68,false,stim,false,0,827.6999999284744,1,0,0,29097,task3,1085833,false,false,1354,image-keyboard-response,18
true,19,0,1,1,false,z,true,false,0.0-2.0-0.47-0.426-3.426,0,1,0,81,false,stim,false,1,646.9000000953674,1,1,1,29097,task3,1088012,false,false,1357,image-keyboard-response,19
true,19,2,1,2,true,d,false,true,0.0-2.0-0.47-0.427-3.427,0,1,0,68,false,stim,false,0,1557.7000000476837,1,1,0,29097,task3,1091084,false,false,1360,image-keyboard-response,20
true,19,1,1,2,false,d,true,false,0.0-2.0-0.47-0.428-3.428,0,1,0,90,false,stim,false,0,1541.8000000715256,1,1,0,29097,task3,1094156,false,false,1363,image-keyboard-response,21
true,19,1,1,1,true,z,false,true,0.0-2.0-0.47-0.429-3.429,0,1,0,90,false,stim,false,1,1136.1000000238419,1,1,1,29097,task3,1096817,false,false,1366,image-keyboard-response,22
true,19,1,1,1,true,z,false,true,0.0-2.0-0.47-0.430-3.430,0,1,0,90,false,stim,false,1,218.60000002384186,1,1,1,29097,task3,1098552,false,false,1369,image-keyboard-response,23
true,19,0,1,2,false,d,false,false,0.0-2.0-0.47-0.431-3.431,0,1,0,81,false,stim,true,0,1063.1999999284744,1,0,2,29097,task3,1101147,false,false,1372,image-keyboard-response,24
true,20,1,2,1,true,z,false,true,0.0-2.0-0.48-0.432-3.432,1,1,0,90,true,stim,false,1,1789.5,1,1,1,29097,task3,1104464,false,false,1375,image-keyboard-response,1
true,20,1,2,1,true,z,false,true,0.0-2.0-0.48-0.433-3.433,1,1,0,90,false,stim,false,1,927.4000000953674,1,1,1,29097,task3,1106909,false,false,1378,image-keyboard-response,2
true,20,1,2,2,false,d,true,false,0.0-2.0-0.48-0.434-3.434,1,1,0,90,false,stim,false,2,573.5,1,1,0,29097,task3,1109003,false,false,1381,image-keyboard-response,3
true,20,2,2,1,false,z,false,false,0.0-2.0-0.48-0.435-3.435,1,1,0,68,false,stim,true,2,921.0,1,0,2,29097,task3,1111435,false,false,1384,image-keyboard-response,4
true,20,1,2,2,false,d,true,false,0.0-2.0-0.48-0.436-3.436,1,1,0,90,false,stim,false,2,403.39999997615814,1,1,0,29097,task3,1113367,false,false,1387,image-keyboard-response,5
true,20,0,2,1,false,z,true,false,0.0-2.0-0.48-0.437-3.437,1,1,0,81,false,stim,false,2,581.6000000238419,1,0,2,29097,task3,1115469,false,false,1390,image-keyboard-response,6
true,20,2,2,2,true,d,false,true,0.0-2.0-0.48-0.438-3.438,1,1,0,68,false,stim,false,2,157.79999995231628,1,1,0,29097,task3,1117152,false,false,1393,image-keyboard-response,7
true,20,1,2,1,true,z,false,true,0.0-2.0-0.48-0.439-3.439,1,1,0,90,false,stim,false,2,1292.2999999523163,1,0,2,29097,task3,1119970,false,false,1396,image-keyboard-response,8
true,20,2,2,1,false,z,true,false,0.0-2.0-0.48-0.440-3.440,1,1,0,68,false,stim,false,1,644.0,1,1,1,29097,task3,1122139,false,false,1399,image-keyboard-response,9
true,20,0,2,2,false,d,true,false,0.0-2.0-0.49-0.441-3.441,1,1,0,81,false,stim,false,2,908.6000000238419,1,1,0,29097,task3,1124570,false,false,1402,image-keyboard-response,10
true,20,1,2,1,true,z,false,true,0.0-2.0-0.49-0.442-3.442,1,1,0,90,false,stim,false,1,864.1000000238419,1,1,1,29097,task3,1126965,false,false,1405,image-keyboard-response,11
true,20,2,2,2,true,d,false,true,0.0-2.0-0.49-0.443-3.443,1,1,0,68,false,stim,false,2,367.60000002384186,1,1,0,29097,task3,1128849,false,false,1408,image-keyboard-response,12
true,20,1,2,1,true,z,false,true,0.0-2.0-0.49-0.444-3.444,1,1,0,90,false,stim,false,1,443.0,1,1,1,29097,task3,1130819,false,false,1411,image-keyboard-response,13
true,20,0,2,1,false,z,true,false,0.0-2.0-0.49-0.445-3.445,1,1,0,81,false,stim,false,2,230.80000007152557,1,0,2,29097,task3,1132571,false,false,1414,image-keyboard-response,14
true,20,1,2,1,true,z,false,true,0.0-2.0-0.49-0.446-3.446,1,1,0,90,false,stim,false,2,411.6999999284744,1,0,2,29097,task3,1134497,false,false,1417,image-keyboard-response,15
true,20,1,2,1,true,z,false,true,0.0-2.0-0.49-0.447-3.447,1,1,0,90,false,stim,false,2,567.1000000238419,1,0,2,29097,task3,1136588,false,false,1420,image-keyboard-response,16
true,20,2,2,1,false,z,true,false,0.0-2.0-0.49-0.448-3.448,1,1,0,68,false,stim,false,1,1373.1999999284744,1,1,1,29097,task3,1139480,false,false,1423,image-keyboard-response,17
true,20,1,2,2,false,d,true,true,0.0-2.0-0.49-0.449-3.449,1,1,0,90,false,stim,false,2,449.8000000715256,1,1,0,29097,task3,1141456,false,true,1426,image-keyboard-response,18
true,20,0,2,1,false,z,true,false,0.0-2.0-0.50-0.450-3.450,1,1,0,81,false,stim,false,2,473.1999999284744,1,0,2,29097,task3,1143461,false,false,1429,image-keyboard-response,19
true,20,1,2,1,true,z,false,true,0.0-2.0-0.50-0.451-3.451,1,1,0,90,false,stim,false,1,198.10000002384186,1,1,1,29097,task3,1145170,false,false,1432,image-keyboard-response,20
true,20,1,2,1,true,z,false,true,0.0-2.0-0.50-0.452-3.452,1,1,0,90,false,stim,false,1,398.2999999523163,1,1,1,29097,task3,1147086,false,false,1435,image-keyboard-response,21
true,20,1,2,1,true,z,false,true,0.0-2.0-0.50-0.453-3.453,1,1,0,90,false,stim,false,1,1648.2999999523163,1,1,1,29097,task3,1150252,false,false,1438,image-keyboard-response,22
true,20,1,2,2,false,d,true,false,0.0-2.0-0.50-0.454-3.454,1,1,0,90,false,stim,false,2,561.7000000476837,1,0,0,29097,task3,1152344,false,false,1441,image-keyboard-response,23
true,21,2,1,1,false,z,false,false,0.0-2.0-0.50-0.455-3.455,0,1,0,68,true,stim,true,2,613.6000000238419,1,0,0,29097,task3,1154488,false,false,1444,image-keyboard-response,1
true,21,1,1,0,false,q,false,false,0.0-2.0-0.50-0.456-3.456,0,1,0,90,false,stim,true,1,138.89999997615814,1,0,2,29097,task3,1156156,false,false,1447,image-keyboard-response,2
true,21,0,1,1,false,z,true,false,0.0-2.0-0.50-0.457-3.457,0,1,0,81,false,stim,false,2,713.3999999761581,1,0,0,29097,task3,1158397,false,false,1450,image-keyboard-response,3
true,21,2,1,0,false,q,true,false,0.0-2.0-0.50-0.458-3.458,0,1,0,68,false,stim,false,1,297.6999999284744,1,0,2,29097,task3,1160217,false,false,1453,image-keyboard-response,4
true,21,1,1,0,false,q,false,false,0.0-2.0-0.51-0.459-3.459,0,1,0,90,false,stim,true,1,708.3000000715256,1,0,2,29097,task3,1162456,false,false,1456,image-keyboard-response,5
true,21,0,1,1,false,z,true,false,0.0-2.0-0.51-0.460-3.460,0,1,0,81,false,stim,false,1,1046.0999999046326,1,1,1,29097,task3,1165027,false,false,1459,image-keyboard-response,6
true,21,1,1,1,true,z,false,true,0.0-2.0-0.51-0.461-3.461,0,1,0,90,false,stim,false,2,499.5,1,0,0,29097,task3,1167046,false,false,1462,image-keyboard-response,7
true,21,0,1,0,true,q,false,true,0.0-2.0-0.51-0.462-3.462,0,1,0,81,false,stim,false,1,1793.1000000238419,1,0,2,29097,task3,1170374,false,false,1465,image-keyboard-response,8
true,21,1,1,1,true,z,false,true,0.0-2.0-0.51-0.463-3.463,0,1,0,90,false,stim,false,1,1091.3999999761581,1,1,1,29097,task3,1172990,false,false,1468,image-keyboard-response,9
true,21,1,1,1,true,z,false,true,0.0-2.0-0.51-0.464-3.464,0,1,0,90,false,stim,false,1,1121.0,1,1,1,29097,task3,1175632,false,false,1471,image-keyboard-response,10
true,21,0,1,1,false,z,true,false,0.0-2.0-0.51-0.465-3.465,0,1,0,81,false,stim,false,2,302.60000002384186,1,0,0,29097,task3,1177461,false,false,1474,image-keyboard-response,11
true,21,1,1,1,true,z,false,true,0.0-2.0-0.51-0.466-3.466,0,1,0,90,false,stim,false,2,1040.5,1,0,0,29097,task3,1180027,false,false,1477,image-keyboard-response,12
true,21,1,1,0,false,q,false,false,0.0-2.0-0.51-0.467-3.467,0,1,0,90,false,stim,true,1,432.10000002384186,1,0,2,29097,task3,1181987,false,false,1480,image-keyboard-response,13
true,21,0,1,0,true,q,false,true,0.0-2.0-0.52-0.468-3.468,0,1,0,81,false,stim,false,1,412.40000009536743,1,0,2,29097,task3,1183919,false,false,1483,image-keyboard-response,14
true,21,0,1,0,true,q,false,true,0.0-2.0-0.52-0.469-3.469,0,1,0,81,false,stim,false,1,977.7000000476837,1,0,2,29097,task3,1186412,false,false,1486,image-keyboard-response,15
true,21,1,1,1,true,z,false,true,0.0-2.0-0.52-0.470-3.470,0,1,0,90,false,stim,false,2,1512.8999999761581,1,0,0,29097,task3,1189450,false,false,1489,image-keyboard-response,16
true,21,1,1,0,false,q,false,false,0.0-2.0-0.52-0.471-3.471,0,1,0,90,false,stim,true,1,2259.7000000476837,1,0,2,29097,task3,1193242,false,false,1492,image-keyboard-response,17
true,21,0,1,1,false,z,true,false,0.0-2.0-0.52-0.472-3.472,0,1,0,81,false,stim,false,1,237.79999995231628,1,1,1,29097,task3,1195004,false,false,1495,image-keyboard-response,18
true,21,0,1,1,false,z,true,false,0.0-2.0-0.52-0.473-3.473,0,1,0,81,false,stim,false,2,716.0,1,0,0,29097,task3,1197239,false,false,1498,image-keyboard-response,19
true,21,1,1,1,true,z,false,true,0.0-2.0-0.52-0.474-3.474,0,1,0,90,false,stim,false,1,542.6000000238419,1,0,1,29097,task3,1199310,false,false,1501,image-keyboard-response,20
true,21,1,1,1,true,z,false,true,0.0-2.0-0.52-0.475-3.475,0,1,0,90,false,stim,false,2,1024.8999999761581,1,1,0,29097,task3,1201857,false,false,1504,image-keyboard-response,21
true,21,1,1,1,true,z,false,true,0.0-2.0-0.52-0.476-3.476,0,1,0,90,false,stim,false,1,416.10000002384186,1,0,1,29097,task3,1203803,false,false,1507,image-keyboard-response,22
true,21,0,1,1,false,z,true,false,0.0-2.0-0.53-0.477-3.477,0,1,0,81,false,stim,false,2,872.0,1,1,0,29097,task3,1206202,false,false,1510,image-keyboard-response,23
true,21,1,1,1,true,z,false,true,0.0-2.0-0.53-0.478-3.478,0,1,0,90,false,stim,false,1,407.89999997615814,1,0,1,29097,task3,1208143,false,false,1513,image-keyboard-response,24
true,22,0,1,2,false,d,false,false,0.0-2.0-0.53-0.479-3.479,1,0,0,81,true,stim,true,0,1430.8999999761581,1,0,2,29097,task3,1211087,false,false,1516,image-keyboard-response,1
true,22,1,1,2,false,d,false,false,0.0-2.0-0.53-0.480-3.480,1,0,0,90,false,stim,true,1,767.8000000715256,1,0,1,29097,task3,1213385,false,false,1519,image-keyboard-response,2
true,22,2,1,2,true,d,false,true,0.0-2.0-0.53-0.481-3.481,1,0,0,68,false,stim,false,0,29.299999952316284,1,0,2,29097,task3,1214941,false,false,1522,image-keyboard-response,3
true,22,2,1,1,false,z,true,false,0.0-2.0-0.53-0.482-3.482,1,0,0,68,false,stim,false,1,454.6999999284744,1,1,0,29097,task3,1216920,false,false,1525,image-keyboard-response,4
true,22,1,1,1,true,z,false,true,0.0-2.0-0.53-0.483-3.483,1,0,0,90,false,stim,false,1,390.39999997615814,1,1,0,29097,task3,1218834,false,false,1528,image-keyboard-response,5
true,22,0,1,2,false,d,true,false,0.0-2.0-0.53-0.484-3.484,1,0,0,81,false,stim,false,1,1255.6000000238419,1,0,1,29097,task3,1221611,false,false,1531,image-keyboard-response,6
true,22,1,1,2,false,d,true,false,0.0-2.0-0.53-0.485-3.485,1,0,0,90,false,stim,false,0,1093.7000000476837,1,0,2,29097,task3,1224239,false,false,1534,image-keyboard-response,7
true,22,2,1,2,true,d,false,true,0.0-2.0-0.54-0.486-3.486,1,0,0,68,false,stim,false,1,65.29999995231628,1,0,1,29097,task3,1225832,false,false,1537,image-keyboard-response,8
true,22,1,1,2,false,d,true,false,0.0-2.0-0.54-0.487-3.487,1,0,0,90,false,stim,false,0,1592.8999999761581,1,0,2,29097,task3,1228950,false,false,1540,image-keyboard-response,9
true,22,0,1,2,false,d,false,false,0.0-2.0-0.54-0.488-3.488,1,0,0,81,false,stim,true,0,741.9000000953674,1,0,2,29097,task3,1231227,false,false,1543,image-keyboard-response,10
true,22,2,1,1,false,z,true,false,0.0-2.0-0.54-0.489-3.489,1,0,0,68,false,stim,false,1,729.6000000238419,1,1,0,29097,task3,1233482,false,false,1546,image-keyboard-response,11
true,22,2,1,2,true,d,false,true,0.0-2.0-0.54-0.490-3.490,1,0,0,68,false,stim,false,1,508.40000009536743,1,0,1,29097,task3,1235514,false,false,1549,image-keyboard-response,12
true,22,1,1,1,true,z,false,true,0.0-2.0-0.54-0.491-3.491,1,0,0,90,false,stim,false,1,1164.6000000238419,1,1,0,29097,task3,1238204,false,false,1552,image-keyboard-response,13
true,22,0,1,2,false,d,false,false,0.0-2.0-0.54-0.492-3.492,1,0,0,81,false,stim,true,0,476.5,1,0,2,29097,task3,1240205,false,false,1555,image-keyboard-response,14
true,22,1,1,2,false,d,false,false,0.0-2.0-0.54-0.493-3.493,1,0,0,90,false,stim,true,1,788.3999999761581,1,0,1,29097,task3,1242510,false,false,1558,image-keyboard-response,15
true,22,2,1,1,false,z,true,false,0.0-2.0-0.54-0.494-3.494,1,0,0,68,false,stim,false,1,1079.3999999761581,1,1,0,29097,task3,1245117,false,false,1561,image-keyboard-response,16
true,22,2,1,2,true,d,false,true,0.0-2.0-0.55-0.495-3.495,1,0,0,68,false,stim,false,0,786.0999999046326,1,0,2,29097,task3,1247419,false,false,1564,image-keyboard-response,17
true,22,2,1,2,true,d,false,true,0.0-2.0-0.55-0.496-3.496,1,0,0,68,false,stim,false,1,283.3000000715256,1,0,1,29097,task3,1249236,false,false,1567,image-keyboard-response,18
true,22,2,1,1,false,z,true,false,0.0-2.0-0.55-0.497-3.497,1,0,0,68,false,stim,false,1,842.1000000238419,1,1,0,29097,task3,1251597,false,false,1570,image-keyboard-response,19
true,22,1,1,2,false,d,true,false,0.0-2.0-0.55-0.498-3.498,1,0,0,90,false,stim,false,0,2000.1000000238419,1,0,2,29097,task3,1255124,false,false,1573,image-keyboard-response,20
true,22,1,1,2,false,d,true,true,0.0-2.0-0.55-0.499-3.499,1,0,0,90,false,stim,false,0,1556.3999999761581,1,1,2,29097,task3,1258203,false,true,1576,image-keyboard-response,21
true,22,1,1,2,false,d,false,false,0.0-2.0-0.55-0.500-3.500,1,0,0,90,false,stim,true,1,1358.2000000476837,1,0,1,29097,task3,1261094,false,false,1579,image-keyboard-response,22
false,22,-1,1,1,false,z,true,false,0.0-2.0-0.55-0.501-3.501,1,0,0,,false,stim,false,1,,1,1,0,29097,task3,1265634,false,false,1582,image-keyboard-response,23
true,22,1,1,1,true,z,false,false,0.0-2.0-0.55-0.502-3.502,1,0,0,90,false,stim,false,1,594.3000000715256,1,1,0,29097,task3,1267744,false,true,1585,image-keyboard-response,24
true,22,0,1,2,false,d,true,false,0.0-2.0-0.55-0.503-3.503,1,0,0,81,false,stim,false,1,448.10000002384186,1,0,1,29097,task3,1269713,false,false,1588,image-keyboard-response,25
true,23,1,2,0,false,q,true,false,0.0-2.0-0.56-0.504-3.504,1,0,1,90,true,stim,false,2,258.2000000476837,1,0,1,29097,task3,1271490,false,false,1591,image-keyboard-response,1
true,23,2,2,2,true,d,false,true,0.0-2.0-0.56-0.505-3.505,1,0,1,68,false,stim,false,2,247.70000004768372,1,1,2,29097,task3,1273276,false,false,1594,image-keyboard-response,2
true,23,2,2,0,false,q,false,false,0.0-2.0-0.56-0.506-3.506,1,0,1,68,false,stim,true,2,649.6999999284744,1,0,1,29097,task3,1275454,false,false,1597,image-keyboard-response,3
true,23,1,2,2,false,d,true,false,0.0-2.0-0.56-0.507-3.507,1,0,1,90,false,stim,false,2,274.3000000715256,1,1,2,29097,task3,1277253,false,false,1600,image-keyboard-response,4
true,23,1,2,0,false,q,true,false,0.0-2.0-0.56-0.508-3.508,1,0,1,90,false,stim,false,2,1198.0999999046326,1,0,1,29097,task3,1279974,false,false,1603,image-keyboard-response,5
true,23,1,2,2,false,d,true,false,0.0-2.0-0.56-0.509-3.509,1,0,1,90,false,stim,false,2,1692.8999999761581,1,1,2,29097,task3,1283201,false,false,1606,image-keyboard-response,6
true,23,2,2,1,false,z,true,false,0.0-2.0-0.56-0.510-3.510,1,0,1,68,false,stim,false,1,1153.6999999284744,1,1,0,29097,task3,1285880,false,false,1609,image-keyboard-response,7
true,23,1,2,1,true,z,false,true,0.0-2.0-0.56-0.511-3.511,1,0,1,90,false,stim,false,1,594.5,1,1,0,29097,task3,1288005,false,false,1612,image-keyboard-response,8
true,23,1,2,1,true,z,false,false,0.0-2.0-0.56-0.512-3.512,1,0,1,90,false,stim,false,1,432.7999999523163,1,1,0,29097,task3,1289957,false,true,1615,image-keyboard-response,9
true,23,0,2,1,false,z,true,false,0.0-2.0-0.57-0.513-3.513,1,0,1,81,false,stim,false,1,254.20000004768372,1,1,0,29097,task3,1291728,false,false,1618,image-keyboard-response,10
true,23,1,2,2,false,d,true,false,0.0-2.0-0.57-0.514-3.514,1,0,1,90,false,stim,false,2,1079.1000000238419,1,1,2,29097,task3,1294333,false,false,1621,image-keyboard-response,11
true,23,1,2,1,true,z,false,true,0.0-2.0-0.57-0.515-3.515,1,0,1,90,false,stim,false,1,850.0,1,1,0,29097,task3,1296702,false,false,1624,image-keyboard-response,12
true,23,2,2,0,false,q,false,false,0.0-2.0-0.57-0.516-3.516,1,0,1,68,false,stim,true,2,643.0999999046326,1,0,1,29097,task3,1298860,false,false,1627,image-keyboard-response,13
true,23,0,2,0,true,q,false,true,0.0-2.0-0.57-0.517-3.517,1,0,1,81,false,stim,false,2,180.70000004768372,1,0,1,29097,task3,1300575,false,false,1630,image-keyboard-response,14
true,23,2,2,2,true,d,false,true,0.0-2.0-0.57-0.518-3.518,1,0,1,68,false,stim,false,2,862.8000000715256,1,1,2,29097,task3,1302952,false,false,1633,image-keyboard-response,15
true,23,0,2,0,true,q,false,true,0.0-2.0-0.57-0.519-3.519,1,0,1,81,false,stim,false,2,421.6999999284744,1,0,1,29097,task3,1304898,false,false,1636,image-keyboard-response,16
true,23,2,2,1,false,z,true,true,0.0-2.0-0.57-0.520-3.520,1,0,1,68,false,stim,false,1,396.0,1,1,0,29097,task3,1306824,false,true,1639,image-keyboard-response,17
true,23,0,2,2,false,d,true,false,0.0-2.0-0.57-0.521-3.521,1,0,1,81,false,stim,false,2,373.7999999523163,1,1,2,29097,task3,1308716,false,false,1642,image-keyboard-response,18
true,23,2,2,2,true,d,false,true,0.0-2.0-0.58-0.522-3.522,1,0,1,68,false,stim,false,2,153.70000004768372,1,1,2,29097,task3,1310397,false,false,1645,image-keyboard-response,19
true,23,1,2,1,true,z,false,true,0.0-2.0-0.58-0.523-3.523,1,0,1,90,false,stim,false,1,491.2000000476837,1,1,0,29097,task3,1312415,false,false,1648,image-keyboard-response,20
true,23,0,2,0,true,q,false,true,0.0-2.0-0.58-0.524-3.524,1,0,1,81,false,stim,false,2,223.0,1,0,1,29097,task3,1314162,false,false,1651,image-keyboard-response,21
true,23,1,2,2,false,d,true,true,0.0-2.0-0.58-0.525-3.525,1,0,1,90,false,stim,false,2,181.89999997615814,1,1,2,29097,task3,1315872,false,true,1654,image-keyboard-response,22
true,23,1,2,0,false,q,true,true,0.0-2.0-0.58-0.526-3.526,1,0,1,90,false,stim,false,2,349.5,1,0,1,29097,task3,1317740,false,true,1657,image-keyboard-response,23
true,23,1,2,0,false,q,true,false,0.0-2.0-0.58-0.527-3.527,1,0,1,90,false,stim,false,2,304.5,1,0,1,29097,task3,1319573,false,false,1660,image-keyboard-response,24
true,23,0,2,1,false,z,true,false,0.0-2.0-0.58-0.528-3.528,1,0,1,81,false,stim,false,1,392.2000000476837,1,1,0,29097,task3,1321479,false,false,1663,image-keyboard-response,25
true,23,2,2,1,false,z,true,false,0.0-2.0-0.58-0.529-3.529,1,0,1,68,false,stim,false,1,405.7999999523163,1,1,0,29097,task3,1323406,false,false,1666,image-keyboard-response,26
true,23,1,2,2,false,d,true,false,0.0-2.0-0.58-0.530-3.530,1,0,1,90,false,stim,false,2,130.19999992847443,1,1,2,29097,task3,1325053,false,false,1669,image-keyboard-response,27
true,23,0,2,0,true,q,false,true,0.0-2.0-0.59-0.531-3.531,1,0,1,81,false,stim,false,2,47.300000071525574,1,0,1,29097,task3,1326619,false,false,1672,image-keyboard-response,28
true,23,1,2,2,false,d,true,false,0.0-2.0-0.59-0.532-3.532,1,0,1,90,false,stim,false,2,159.39999997615814,1,1,2,29097,task3,1328299,false,false,1675,image-keyboard-response,29
true,24,2,2,2,true,d,false,true,0.0-2.0-0.59-0.533-3.533,1,0,1,68,true,stim,false,2,263.3000000715256,1,1,2,29097,task3,1330088,false,false,1678,image-keyboard-response,1
true,24,0,2,1,false,z,true,false,0.0-2.0-0.59-0.534-3.534,1,0,1,81,false,stim,false,1,445.3000000715256,1,1,0,29097,task3,1332052,false,false,1681,image-keyboard-response,2
true,24,2,2,1,false,z,true,false,0.0-2.0-0.59-0.535-3.535,1,0,1,68,false,stim,false,0,255.19999992847443,1,0,1,29097,task3,1333824,false,false,1684,image-keyboard-response,3
true,24,1,2,1,true,z,false,true,0.0-2.0-0.59-0.536-3.536,1,0,1,90,false,stim,false,1,151.29999995231628,1,1,0,29097,task3,1335504,false,false,1687,image-keyboard-response,4
true,24,1,2,1,true,z,false,true,0.0-2.0-0.59-0.537-3.537,1,0,1,90,false,stim,false,0,152.29999995231628,1,0,1,29097,task3,1337195,false,false,1690,image-keyboard-response,5
true,24,2,2,2,true,d,false,true,0.0-2.0-0.59-0.538-3.538,1,0,1,68,false,stim,false,2,588.1999999284744,1,1,2,29097,task3,1339311,false,false,1693,image-keyboard-response,6
true,24,2,2,1,false,z,true,false,0.0-2.0-0.59-0.539-3.539,1,0,1,68,false,stim,false,1,395.0,1,1,0,29097,task3,1341234,false,false,1696,image-keyboard-response,7
true,24,2,2,2,true,d,false,true,0.0-2.0-0.60-0.540-3.540,1,0,1,68,false,stim,false,2,43.299999952316284,1,1,2,29097,task3,1342809,false,false,1699,image-keyboard-response,8
true,24,0,2,1,false,z,true,false,0.0-2.0-0.60-0.541-3.541,1,0,1,81,false,stim,false,1,137.89999997615814,1,0,0,29097,task3,1344483,false,false,1702,image-keyboard-response,9
true,24,1,2,1,true,z,false,true,0.0-2.0-0.60-0.542-3.542,1,0,1,90,false,stim,false,0,724.7999999523163,1,1,1,29097,task3,1346734,false,false,1705,image-keyboard-response,10
true,24,0,2,1,false,z,false,false,0.0-2.0-0.60-0.543-3.543,1,0,1,81,false,stim,true,0,550.8000000715256,1,1,1,29097,task3,1348815,false,false,1708,image-keyboard-response,11
true,24,2,2,2,true,d,false,false,0.0-2.0-0.60-0.544-3.544,1,0,1,68,false,stim,false,2,342.2000000476837,1,1,2,29097,task3,1350671,false,true,1711,image-keyboard-response,12
true,25,1,2,1,true,z,false,true,0.0-2.0-0.60-0.545-3.545,0,1,1,90,true,stim,false,1,128.10000002384186,1,1,1,29097,task3,1352324,false,false,1714,image-keyboard-response,1
true,25,0,2,0,true,q,false,true,0.0-2.0-0.60-0.546-3.546,0,1,1,81,false,stim,false,1,445.10000002384186,1,0,0,29097,task3,1354286,false,false,1717,image-keyboard-response,2
true,25,2,2,0,false,q,true,false,0.0-2.0-0.60-0.547-3.547,0,1,1,68,false,stim,false,1,518.2000000476837,1,0,0,29097,task3,1356337,false,false,1720,image-keyboard-response,3
true,25,1,2,2,false,d,true,true,0.0-2.0-0.60-0.548-3.548,0,1,1,90,false,stim,false,2,419.6999999284744,1,1,2,29097,task3,1358293,false,true,1723,image-keyboard-response,4
true,25,0,2,1,false,z,true,false,0.0-2.0-0.61-0.549-3.549,0,1,1,81,false,stim,false,1,162.79999995231628,1,1,1,29097,task3,1359993,false,false,1726,image-keyboard-response,5
true,25,1,2,2,false,d,true,false,0.0-2.0-0.61-0.550-3.550,0,1,1,90,false,stim,false,2,258.60000002384186,1,1,2,29097,task3,1361789,false,false,1729,image-keyboard-response,6
true,25,2,2,2,true,d,false,true,0.0-2.0-0.61-0.551-3.551,0,1,1,68,false,stim,false,2,350.1999999284744,1,1,2,29097,task3,1363662,false,false,1732,image-keyboard-response,7
true,25,2,2,0,false,q,true,false,0.0-2.0-0.61-0.552-3.552,0,1,1,68,false,stim,false,1,89.0,1,0,0,29097,task3,1365270,false,false,1735,image-keyboard-response,8
true,25,1,2,1,true,z,false,true,0.0-2.0-0.61-0.553-3.553,0,1,1,90,false,stim,false,1,125.60000002384186,1,1,1,29097,task3,1366917,false,false,1738,image-keyboard-response,9
true,25,1,2,0,false,q,false,false,0.0-2.0-0.61-0.554-3.554,0,1,1,90,false,stim,true,1,568.1999999284744,1,1,0,29097,task3,1369012,false,false,1741,image-keyboard-response,10
true,25,0,2,1,false,z,true,false,0.0-2.0-0.61-0.555-3.555,0,1,1,81,false,stim,false,1,261.2999999523163,1,1,1,29097,task3,1370794,false,false,1744,image-keyboard-response,11
true,25,2,2,0,false,q,true,false,0.0-2.0-0.61-0.556-3.556,0,1,1,68,false,stim,false,1,191.80000007152557,1,1,0,29097,task3,1372498,false,false,1747,image-keyboard-response,12
true,25,2,2,2,true,d,false,true,0.0-2.0-0.61-0.557-3.557,0,1,1,68,false,stim,false,2,855.3000000715256,1,1,2,29097,task3,1374882,false,false,1750,image-keyboard-response,13
true,25,1,2,2,false,d,true,false,0.0-2.0-0.62-0.558-3.558,0,1,1,90,false,stim,false,2,144.0,1,1,2,29097,task3,1376553,false,false,1753,image-keyboard-response,14
true,26,1,0,0,false,q,true,false,0.0-2.0-0.62-0.559-3.559,1,1,1,90,true,stim,false,0,391.39999997615814,1,1,0,29097,task3,1499706,false,false,1876,image-keyboard-response,1
true,26,2,0,1,false,z,true,false,0.0-2.0-0.62-0.560-3.560,1,1,1,68,false,stim,false,1,480.39999997615814,1,1,1,29097,task3,1501717,false,false,1879,image-keyboard-response,2
true,26,0,0,1,false,z,true,false,0.0-2.0-0.62-0.561-3.561,1,1,1,81,false,stim,false,1,140.10000002384186,1,1,1,29097,task3,1503391,false,false,1882,image-keyboard-response,3
true,26,1,0,0,false,q,true,false,0.0-2.0-0.62-0.562-3.562,1,1,1,90,false,stim,false,0,432.5,1,1,0,29097,task3,1505352,false,false,1885,image-keyboard-response,4
true,26,2,0,2,true,d,false,true,0.0-2.0-0.62-0.563-3.563,1,1,1,68,false,stim,false,2,320.40000009536743,1,1,2,29097,task3,1507187,false,false,1888,image-keyboard-response,5
true,26,2,0,1,false,z,true,false,0.0-2.0-0.62-0.564-3.564,1,1,1,68,false,stim,false,1,357.3000000715256,1,1,1,29097,task3,1509073,false,false,1891,image-keyboard-response,6
true,26,1,0,0,false,q,true,false,0.0-2.0-0.62-0.565-3.565,1,1,1,90,false,stim,false,0,337.7999999523163,1,1,0,29097,task3,1510937,false,false,1894,image-keyboard-response,7
true,26,2,0,2,true,d,false,true,0.0-2.0-0.62-0.566-3.566,1,1,1,68,false,stim,false,2,167.10000002384186,1,1,2,29097,task3,1512630,false,false,1897,image-keyboard-response,8
true,26,2,0,0,false,q,true,true,0.0-2.0-0.63-0.567-3.567,1,1,1,68,false,stim,false,0,272.89999997615814,1,1,0,29097,task3,1514440,false,true,1900,image-keyboard-response,9
true,26,2,0,0,false,q,true,false,0.0-2.0-0.63-0.568-3.568,1,1,1,68,false,stim,false,0,297.10000002384186,1,1,0,29097,task3,1516275,false,false,1903,image-keyboard-response,10
true,26,0,0,1,false,z,true,false,0.0-2.0-0.63-0.569-3.569,1,1,1,81,false,stim,false,1,125.79999995231628,1,0,1,29097,task3,1517930,false,false,1906,image-keyboard-response,11
true,26,2,0,1,false,z,true,true,0.0-2.0-0.63-0.570-3.570,1,1,1,68,false,stim,false,1,582.7999999523163,1,0,1,29097,task3,1520045,false,true,1909,image-keyboard-response,12
true,27,0,2,2,false,d,true,false,0.0-2.0-0.63-0.571-3.571,1,0,1,81,true,stim,false,2,341.5,1,1,2,29097,task3,1521907,false,false,1912,image-keyboard-response,1
true,27,1,2,2,false,d,true,false,0.0-2.0-0.63-0.572-3.572,1,0,1,90,false,stim,false,2,319.3000000715256,1,1,2,29097,task3,1523744,false,false,1915,image-keyboard-response,2
true,27,2,2,0,false,q,true,false,0.0-2.0-0.63-0.573-3.573,1,0,1,68,false,stim,false,1,929.3999999761581,1,0,1,29097,task3,1526196,false,false,1918,image-keyboard-response,3
true,27,0,2,0,true,q,false,true,0.0-2.0-0.63-0.574-3.574,1,0,1,81,false,stim,false,0,1200.2999999523163,1,1,0,29097,task3,1528926,false,false,1921,image-keyboard-response,4
true,27,1,2,2,false,d,true,false,0.0-2.0-0.63-0.575-3.575,1,0,1,90,false,stim,false,2,390.5,1,1,2,29097,task3,1530847,false,false,1924,image-keyboard-response,5
true,27,2,2,0,false,q,true,false,0.0-2.0-0.64-0.576-3.576,1,0,1,68,false,stim,false,1,817.8000000715256,1,0,1,29097,task3,1533192,false,false,1927,image-keyboard-response,6
true,27,1,2,0,false,q,false,false,0.0-2.0-0.64-0.577-3.577,1,0,1,90,false,stim,true,1,225.5,1,0,1,29097,task3,1534943,false,false,1930,image-keyboard-response,7
true,27,0,2,0,true,q,false,true,0.0-2.0-0.64-0.578-3.578,1,0,1,81,false,stim,false,0,613.6000000238419,1,1,0,29097,task3,1537083,false,false,1933,image-keyboard-response,8
true,27,2,2,0,false,q,true,false,0.0-2.0-0.64-0.579-3.579,1,0,1,68,false,stim,false,1,46.200000047683716,1,0,1,29097,task3,1538654,false,false,1936,image-keyboard-response,9
true,27,0,2,2,false,d,true,false,0.0-2.0-0.64-0.580-3.580,1,0,1,81,false,stim,false,2,1249.1000000238419,1,1,2,29097,task3,1541422,false,false,1939,image-keyboard-response,10
true,27,1,2,2,false,d,true,false,0.0-2.0-0.64-0.581-3.581,1,0,1,90,false,stim,false,2,433.90000009536743,1,1,2,29097,task3,1543374,false,false,1942,image-keyboard-response,11
true,27,1,2,0,false,q,true,false,0.0-2.0-0.64-0.582-3.582,1,0,1,90,false,stim,false,0,455.60000002384186,1,1,0,29097,task3,1545362,false,false,1945,image-keyboard-response,12
true,27,1,2,0,false,q,true,false,0.0-2.0-0.64-0.583-3.583,1,0,1,90,false,stim,false,0,336.90000009536743,1,1,0,29097,task3,1547212,false,false,1948,image-keyboard-response,13
true,27,2,2,2,true,d,false,true,0.0-2.0-0.64-0.584-3.584,1,0,1,68,false,stim,false,2,45.700000047683716,1,1,2,29097,task3,1548767,false,false,1951,image-keyboard-response,14
true,27,0,2,2,false,d,true,false,0.0-2.0-0.65-0.585-3.585,1,0,1,81,false,stim,false,2,913.5999999046326,1,1,2,29097,task3,1551201,false,false,1954,image-keyboard-response,15
true,27,0,2,0,true,q,false,true,0.0-2.0-0.65-0.586-3.586,1,0,1,81,false,stim,false,1,446.5,1,0,1,29097,task3,1553163,false,false,1957,image-keyboard-response,16
true,27,1,2,0,false,q,false,false,0.0-2.0-0.65-0.587-3.587,1,0,1,90,false,stim,true,1,151.69999992847443,1,0,1,29097,task3,1554833,false,false,1960,image-keyboard-response,17
true,27,2,2,2,true,d,false,true,0.0-2.0-0.65-0.588-3.588,1,0,1,68,false,stim,false,2,406.0,1,1,2,29097,task3,1556755,false,false,1963,image-keyboard-response,18
