answered,blockNum,choice,condition,corResp,correct,correct_response,explo,fb,internal_node_id,isStable_1,isStable_2,isStable_3,key_press,newBlock,part,persev,persevResp,rt,sessNum,stableAS,stimulus,subject,task,time_elapsed,training,trap,trial_index,trial_type,trialsInBlock
true,1,2,0,0,false,q,true,false,0.0-2.0-0.0-0.0-3.0,0,0,0,68,true,stim,false,-1,408.10000014305115,2,0,2,29097,task1,98397,false,false,103,image-keyboard-response,1
true,1,1,0,0,false,q,true,false,0.0-2.0-0.0-0.1-3.1,0,0,0,90,false,stim,false,-1,104.5,2,0,0,29097,task1,100047,false,false,106,image-keyboard-response,2
true,1,0,0,1,false,z,true,false,0.0-2.0-0.0-0.2-3.2,0,0,0,81,false,stim,false,-1,523.0,2,0,1,29097,task1,102105,false,false,109,image-keyboard-response,3
false,1,-1,0,0,false,q,false,false,0.0-2.0-0.0-0.3-3.3,0,0,0,,false,stim,true,-1,,2,0,2,29097,task1,106649,false,false,112,image-keyboard-response,4
true,1,0,0,0,true,q,false,true,0.0-2.0-0.0-0.4-3.4,0,0,0,81,false,stim,false,-1,2618.2999999523163,2,0,0,29097,task1,110800,false,false,115,image-keyboard-response,5
true,1,1,0,0,false,q,true,false,0.0-2.0-0.0-0.5-3.5,0,0,0,90,false,stim,false,-1,610.5999999046326,2,0,2,29097,task1,112959,false,false,118,image-keyboard-response,6
true,1,2,0,1,false,z,true,false,0.0-2.0-0.0-0.6-3.6,0,0,0,68,false,stim,false,-1,275.69999980926514,2,0,1,29097,task1,114775,false,false,121,image-keyboard-response,7
true,1,2,0,1,false,z,true,false,0.0-2.0-0.0-0.7-3.7,0,0,0,68,false,stim,false,-1,240.70000004768372,2,0,1,29097,task1,116568,false,false,124,image-keyboard-response,8
true,1,1,0,0,false,q,true,false,0.0-2.0-0.0-0.8-3.8,0,0,0,90,false,stim,false,-1,189.29999995231628,2,0,0,29097,task1,118290,false,false,127,image-keyboard-response,9
true,1,0,0,0,true,q,false,true,0.0-2.0-0.1-0.9-3.9,0,0,0,81,false,stim,false,-1,455.0,2,0,0,29097,task1,120262,false,false,130,image-keyboard-response,10
true,1,1,0,0,false,q,true,false,0.0-2.0-0.1-0.10-3.10,0,0,0,90,false,stim,false,-1,1056.4000000953674,2,0,2,29097,task1,122839,false,false,133,image-keyboard-response,11
true,1,0,0,0,true,q,false,true,0.0-2.0-0.1-0.11-3.11,0,0,0,81,false,stim,false,-1,581.6000001430511,2,0,0,29097,task1,124948,false,false,136,image-keyboard-response,12
true,1,1,0,0,false,q,true,false,0.0-2.0-0.1-0.12-3.12,0,0,0,90,false,stim,false,-1,538.7000000476837,2,0,2,29097,task1,127019,false,false,139,image-keyboard-response,13
true,1,2,0,1,false,z,true,false,0.0-2.0-0.1-0.13-3.13,0,0,0,68,false,stim,false,-1,705.2000000476837,2,0,1,29097,task1,129267,false,false,142,image-keyboard-response,14
true,1,2,0,0,false,q,true,false,0.0-2.0-0.1-0.14-3.14,0,0,0,68,false,stim,false,-1,970.2000000476837,2,0,2,29097,task1,131761,false,false,145,image-keyboard-response,15
true,1,0,0,0,true,q,false,true,0.0-2.0-0.1-0.15-3.15,0,0,0,81,false,stim,false,-1,694.0,2,0,0,29097,task1,133992,false,false,148,image-keyboard-response,16
true,1,0,0,1,false,z,true,true,0.0-2.0-0.1-0.16-3.16,0,0,0,81,false,stim,false,-1,797.8999998569489,2,0,1,29097,task1,136326,false,true,151,image-keyboard-response,17
true,1,0,0,1,false,z,true,false,0.0-2.0-0.1-0.17-3.17,0,0,0,81,false,stim,false,-1,416.2999999523163,2,0,1,29097,task1,138260,false,false,154,image-keyboard-response,18
true,1,0,0,0,true,q,false,true,0.0-2.0-0.2-0.18-3.18,0,0,0,81,false,stim,false,-1,711.2999999523163,2,0,2,29097,task1,140496,false,false,157,image-keyboard-response,19
true,1,0,0,1,false,z,true,false,0.0-2.0-0.2-0.19-3.19,0,0,0,81,false,stim,false,-1,257.7000000476837,2,0,1,29097,task1,142277,false,false,160,image-keyboard-response,20
true,1,0,0,0,true,q,false,true,0.0-2.0-0.2-0.20-3.20,0,0,0,81,false,stim,false,-1,333.39999985694885,2,0,0,29097,task1,144135,false,false,163,image-keyboard-response,21
true,1,1,0,1,true,z,false,true,0.0-2.0-0.2-0.21-3.21,0,0,0,90,false,stim,false,-1,391.7000000476837,2,0,1,29097,task1,146058,false,false,166,image-keyboard-response,22
true,1,0,0,0,true,q,false,true,0.0-2.0-0.2-0.22-3.22,0,0,0,81,false,stim,false,-1,391.40000009536743,2,0,2,29097,task1,147972,false,false,169,image-keyboard-response,23
true,1,0,0,0,true,q,false,true,0.0-2.0-0.2-0.23-3.23,0,0,0,81,false,stim,false,-1,558.7000000476837,2,0,2,29097,task1,150059,false,false,172,image-keyboard-response,24
true,1,2,0,1,false,z,true,false,0.0-2.0-0.2-0.24-3.24,0,0,0,68,false,stim,false,-1,544.4000000953674,2,0,1,29097,task1,152130,false,false,175,image-keyboard-response,25
true,1,0,0,0,true,q,false,true,0.0-2.0-0.2-0.25-3.25,0,0,0,81,false,stim,false,-1,646.3999998569489,2,0,0,29097,task1,154313,false,false,178,image-keyboard-response,26
true,2,0,1,2,false,d,false,true,0.0-2.0-0.2-0.26-3.26,0,0,0,81,true,stim,true,0,416.90000009536743,2,0,0,29097,task1,156258,false,true,181,image-keyboard-response,1
true,2,0,1,2,false,d,false,false,0.0-2.0-0.3-0.27-3.27,0,0,0,81,false,stim,true,0,1128.0,2,0,0,29097,task1,158917,false,false,184,image-keyboard-response,2
true,2,0,1,2,false,d,false,false,0.0-2.0-0.3-0.28-3.28,0,0,0,81,false,stim,true,0,427.2000000476837,2,0,0,29097,task1,160869,false,false,187,image-keyboard-response,3
true,2,0,1,1,false,z,false,true,0.0-2.0-0.3-0.29-3.29,0,0,0,81,false,stim,true,0,1129.5,2,0,2,29097,task1,163533,false,true,190,image-keyboard-response,4
true,2,1,1,2,false,d,false,false,0.0-2.0-0.3-0.30-3.30,0,0,0,90,false,stim,true,1,672.2000000476837,2,0,1,29097,task1,165736,false,false,193,image-keyboard-response,5
true,2,2,1,1,false,z,true,false,0.0-2.0-0.3-0.31-3.31,0,0,0,68,false,stim,false,0,821.2000000476837,2,0,2,29097,task1,168081,false,false,196,image-keyboard-response,6
true,2,1,1,2,false,d,false,false,0.0-2.0-0.3-0.32-3.32,0,0,0,90,false,stim,true,1,140.40000009536743,2,0,1,29097,task1,169753,false,false,199,image-keyboard-response,7
true,2,1,1,1,true,z,false,true,0.0-2.0-0.3-0.33-3.33,0,0,0,90,false,stim,false,0,1166.8999998569489,2,0,2,29097,task1,172461,false,false,202,image-keyboard-response,8
true,2,1,1,2,false,d,false,false,0.0-2.0-0.3-0.34-3.34,0,0,0,90,false,stim,true,1,2176.0,2,0,1,29097,task1,176158,false,false,205,image-keyboard-response,9
true,2,2,1,2,true,d,false,false,0.0-2.0-0.3-0.35-3.35,0,0,0,68,false,stim,false,0,529.3999998569489,2,0,0,29097,task1,178223,false,true,208,image-keyboard-response,10
true,2,0,1,2,false,d,false,false,0.0-2.0-0.4-0.36-3.36,0,0,0,81,false,stim,true,0,1059.4000000953674,2,0,0,29097,task1,180813,false,false,211,image-keyboard-response,11
true,2,1,1,2,false,d,true,false,0.0-2.0-0.4-0.37-3.37,0,0,0,90,false,stim,false,0,275.69999980926514,2,0,0,29097,task1,182607,false,false,214,image-keyboard-response,12
true,2,0,1,2,false,d,true,false,0.0-2.0-0.4-0.38-3.38,0,0,0,81,false,stim,false,1,628.8000001907349,2,0,1,29097,task1,184765,false,false,217,image-keyboard-response,13
true,2,1,1,2,false,d,false,false,0.0-2.0-0.4-0.39-3.39,0,0,0,90,false,stim,true,1,635.1000001430511,2,0,1,29097,task1,186936,false,false,220,image-keyboard-response,14
true,2,2,1,1,false,z,true,false,0.0-2.0-0.4-0.40-3.40,0,0,0,68,false,stim,false,0,817.6999998092651,2,0,2,29097,task1,189287,false,false,223,image-keyboard-response,15
true,2,0,1,2,false,d,true,false,0.0-2.0-0.4-0.41-3.41,0,0,0,81,false,stim,false,1,1473.4000000953674,2,0,1,29097,task1,192285,false,false,226,image-keyboard-response,16
true,2,1,1,2,false,d,true,false,0.0-2.0-0.4-0.42-3.42,0,0,0,90,false,stim,false,0,1027.5999999046326,2,0,0,29097,task1,194863,false,false,229,image-keyboard-response,17
true,2,0,1,1,false,z,false,false,0.0-2.0-0.4-0.43-3.43,0,0,0,81,false,stim,true,0,166.5,2,0,2,29097,task1,196573,false,false,232,image-keyboard-response,18
true,2,1,1,1,true,z,false,true,0.0-2.0-0.4-0.44-3.44,0,0,0,90,false,stim,false,0,1410.2000000476837,2,0,2,29097,task1,199505,false,false,235,image-keyboard-response,19
true,2,0,1,1,false,z,false,false,0.0-2.0-0.5-0.45-3.45,0,0,0,81,false,stim,true,0,2831.0999999046326,2,0,2,29097,task1,203883,false,false,238,image-keyboard-response,20
true,2,2,1,2,true,d,false,true,0.0-2.0-0.5-0.46-3.46,0,0,0,68,false,stim,false,0,1803.9000000953674,2,0,0,29097,task1,207206,false,false,241,image-keyboard-response,21
true,2,2,1,2,true,d,false,true,0.0-2.0-0.5-0.47-3.47,0,0,0,68,false,stim,false,1,1000.2999999523163,2,0,1,29097,task1,209735,false,false,244,image-keyboard-response,22
true,2,1,1,1,true,z,false,false,0.0-2.0-0.5-0.48-3.48,0,0,0,90,false,stim,false,0,799.5999999046326,2,0,2,29097,task1,212057,false,true,247,image-keyboard-response,23
true,2,0,1,2,false,d,false,false,0.0-2.0-0.5-0.49-3.49,0,0,0,81,false,stim,true,0,154.0,2,0,0,29097,task1,213732,false,false,250,image-keyboard-response,24
true,2,2,1,2,true,d,false,true,0.0-2.0-0.5-0.50-3.50,0,0,0,68,false,stim,false,1,1457.6999998092651,2,0,1,29097,task1,216710,false,false,253,image-keyboard-response,25
true,2,1,1,1,true,z,false,true,0.0-2.0-0.5-0.51-3.51,0,0,0,90,false,stim,false,0,84.90000009536743,2,0,2,29097,task1,218344,false,false,256,image-keyboard-response,26
true,2,2,1,2,true,d,false,true,0.0-2.0-0.5-0.52-3.52,0,0,0,68,false,stim,false,1,1550.0,2,0,1,29097,task1,221424,false,false,259,image-keyboard-response,27
true,2,2,1,2,true,d,false,true,0.0-2.0-0.5-0.53-3.53,0,0,0,68,false,stim,false,0,2292.699999809265,2,0,0,29097,task1,225250,false,false,262,image-keyboard-response,28
false,2,-1,1,2,false,d,true,false,0.0-2.0-0.6-0.54-3.54,0,0,0,,false,stim,false,1,,2,0,1,29097,task1,229786,false,false,265,image-keyboard-response,29
true,2,0,1,2,false,d,false,false,0.0-2.0-0.6-0.55-3.55,0,0,0,81,false,stim,true,0,1886.2000000476837,2,0,0,29097,task1,233201,false,false,268,image-keyboard-response,30
true,2,1,1,2,false,d,false,true,0.0-2.0-0.6-0.56-3.56,0,0,0,90,false,stim,true,1,2906.2999999523163,2,0,1,29097,task1,237645,false,true,271,image-keyboard-response,31
true,2,0,1,1,false,z,false,false,0.0-2.0-0.6-0.57-3.57,0,0,0,81,false,stim,true,0,560.1999998092651,2,0,2,29097,task1,239724,false,false,274,image-keyboard-response,32
true,2,2,1,2,true,d,false,true,0.0-2.0-0.6-0.58-3.58,0,0,0,68,false,stim,false,0,485.2000000476837,2,0,0,29097,task1,241736,false,false,277,image-keyboard-response,33
true,2,1,1,1,true,z,false,true,0.0-2.0-0.6-0.59-3.59,0,0,0,90,false,stim,false,0,460.90000009536743,2,0,2,29097,task1,243720,false,false,280,image-keyboard-response,34
true,2,2,1,2,true,d,false,true,0.0-2.0-0.6-0.60-3.60,0,0,0,68,false,stim,false,0,397.2999999523163,2,0,0,29097,task1,245649,false,false,283,image-keyboard-response,35
true,2,1,1,2,false,d,false,false,0.0-2.0-0.6-0.61-3.61,0,0,0,90,false,stim,true,1,303.2000000476837,2,0,1,29097,task1,247463,false,false,286,image-keyboard-response,36
true,2,2,1,1,false,z,true,false,0.0-2.0-0.6-0.62-3.62,0,0,0,68,false,stim,false,0,61.09999990463257,2,0,2,29097,task1,249066,false,false,289,image-keyboard-response,37
true,2,0,1,1,false,z,false,false,0.0-2.0-0.7-0.63-3.63,0,0,0,81,false,stim,true,0,108.29999995231628,2,0,2,29097,task1,250700,false,false,292,image-keyboard-response,38
true,2,1,1,1,true,z,false,true,0.0-2.0-0.7-0.64-3.64,0,0,0,90,false,stim,false,0,255.70000004768372,2,0,2,29097,task1,252485,false,false,295,image-keyboard-response,39
true,2,2,1,2,true,d,false,true,0.0-2.0-0.7-0.65-3.65,0,0,0,68,false,stim,false,0,296.2000000476837,2,0,0,29097,task1,254314,false,false,298,image-keyboard-response,40
true,2,1,1,2,false,d,false,false,0.0-2.0-0.7-0.66-3.66,0,0,0,90,false,stim,true,1,334.2000000476837,2,0,1,29097,task1,256174,false,false,301,image-keyboard-response,41
true,2,2,1,1,false,z,true,false,0.0-2.0-0.7-0.67-3.67,0,0,0,68,false,stim,false,0,255.5,2,0,2,29097,task1,257958,false,false,304,image-keyboard-response,42
true,3,1,1,1,true,z,false,true,0.0-2.0-0.7-0.68-3.68,0,0,0,90,true,stim,false,2,611.8999998569489,2,0,0,29097,task1,260110,false,false,307,image-keyboard-response,1
true,3,2,1,0,false,q,false,false,0.0-2.0-0.7-0.69-3.69,0,0,0,68,false,stim,true,2,1278.3999998569489,2,0,1,29097,task1,262937,false,false,310,image-keyboard-response,2
true,3,0,1,0,true,q,false,true,0.0-2.0-0.7-0.70-3.70,0,0,0,81,false,stim,false,2,591.6999998092651,2,0,1,29097,task1,265052,false,false,313,image-keyboard-response,3
true,3,1,1,1,true,z,false,true,0.0-2.0-0.7-0.71-3.71,0,0,0,90,false,stim,false,2,458.19999980926514,2,0,0,29097,task1,267040,false,false,316,image-keyboard-response,4
true,3,0,1,2,false,d,true,false,0.0-2.0-0.8-0.72-3.72,0,0,0,81,false,stim,false,1,98.69999980926514,2,0,2,29097,task1,268675,false,false,319,image-keyboard-response,5
true,3,1,1,1,true,z,false,true,0.0-2.0-0.8-0.73-3.73,0,0,0,90,false,stim,false,2,62.90000009536743,2,0,0,29097,task1,270261,false,false,322,image-keyboard-response,6
true,3,0,1,0,true,q,false,true,0.0-2.0-0.8-0.74-3.74,0,0,0,81,false,stim,false,2,311.2999999523163,2,0,1,29097,task1,272101,false,false,325,image-keyboard-response,7
true,3,1,1,2,false,d,false,false,0.0-2.0-0.8-0.75-3.75,0,0,0,90,false,stim,true,1,480.09999990463257,2,0,2,29097,task1,274108,false,false,328,image-keyboard-response,8
true,3,2,1,2,true,d,false,false,0.0-2.0-0.8-0.76-3.76,0,0,0,68,false,stim,false,1,2894.5,2,0,2,29097,task1,278528,false,true,331,image-keyboard-response,9
true,3,1,1,0,false,q,true,true,0.0-2.0-0.8-0.77-3.77,0,0,0,90,false,stim,false,2,410.5,2,0,1,29097,task1,280466,false,true,334,image-keyboard-response,10
true,3,0,1,0,true,q,false,true,0.0-2.0-0.8-0.78-3.78,0,0,0,81,false,stim,false,2,338.90000009536743,2,0,1,29097,task1,282337,false,false,337,image-keyboard-response,11
true,3,1,1,1,true,z,false,true,0.0-2.0-0.8-0.79-3.79,0,0,0,90,false,stim,false,2,174.70000004768372,2,0,0,29097,task1,284042,false,false,340,image-keyboard-response,12
true,3,1,1,1,true,z,false,false,0.0-2.0-0.8-0.80-3.80,0,0,0,90,false,stim,false,2,596.5999999046326,2,0,0,29097,task1,286173,false,true,343,image-keyboard-response,13
true,3,1,1,2,false,d,false,false,0.0-2.0-0.9-0.81-3.81,0,0,0,90,false,stim,true,1,345.90000009536743,2,0,2,29097,task1,288050,false,false,346,image-keyboard-response,14
true,3,0,1,0,true,q,false,true,0.0-2.0-0.9-0.82-3.82,0,0,0,81,false,stim,false,2,436.2999999523163,2,0,1,29097,task1,290008,false,false,349,image-keyboard-response,15
true,3,2,1,0,false,q,false,false,0.0-2.0-0.9-0.83-3.83,0,0,0,68,false,stim,true,2,773.9000000953674,2,0,1,29097,task1,292310,false,false,352,image-keyboard-response,16
true,3,2,1,1,false,z,false,false,0.0-2.0-0.9-0.84-3.84,0,0,0,68,false,stim,true,2,1103.1000001430511,2,0,0,29097,task1,294937,false,false,355,image-keyboard-response,17
true,3,2,1,1,false,z,false,false,0.0-2.0-0.9-0.85-3.85,0,0,0,68,false,stim,true,2,887.0999999046326,2,0,0,29097,task1,297354,false,false,358,image-keyboard-response,18
true,3,0,1,2,false,d,true,false,0.0-2.0-0.9-0.86-3.86,0,0,0,81,false,stim,false,1,691.5,2,0,2,29097,task1,299572,false,false,361,image-keyboard-response,19
true,3,1,1,2,false,d,false,false,0.0-2.0-0.9-0.87-3.87,0,0,0,90,false,stim,true,1,2988.9000000953674,2,0,2,29097,task1,304092,false,false,364,image-keyboard-response,20
true,3,2,1,0,false,q,false,false,0.0-2.0-0.9-0.88-3.88,0,0,0,68,false,stim,true,2,341.7000000476837,2,0,1,29097,task1,305978,false,false,367,image-keyboard-response,21
true,3,0,1,1,false,z,true,false,0.0-2.0-0.9-0.89-3.89,0,0,0,81,false,stim,false,2,1817.4000000953674,2,0,0,29097,task1,309317,false,false,370,image-keyboard-response,22
true,3,1,1,1,true,z,false,true,0.0-2.0-0.10-0.90-3.90,0,0,0,90,false,stim,false,2,1974.7000000476837,2,0,0,29097,task1,312824,false,false,373,image-keyboard-response,23
true,3,2,1,1,false,z,false,false,0.0-2.0-0.10-0.91-3.91,0,0,0,68,false,stim,true,2,1498.7999999523163,2,0,0,29097,task1,315852,false,false,376,image-keyboard-response,24
true,3,0,1,2,false,d,true,true,0.0-2.0-0.10-0.92-3.92,0,0,0,81,false,stim,false,1,1044.1999998092651,2,0,2,29097,task1,318414,false,true,379,image-keyboard-response,25
true,3,1,1,0,false,q,true,false,0.0-2.0-0.10-0.93-3.93,0,0,0,90,false,stim,false,2,290.90000009536743,2,0,1,29097,task1,320223,false,false,382,image-keyboard-response,26
true,3,0,1,2,false,d,true,false,0.0-2.0-0.10-0.94-3.94,0,0,0,81,false,stim,false,1,335.5,2,0,2,29097,task1,322088,false,false,385,image-keyboard-response,27
true,3,2,1,1,false,z,false,true,0.0-2.0-0.10-0.95-3.95,0,0,0,68,false,stim,true,2,1260.5,2,0,0,29097,task1,324884,false,true,388,image-keyboard-response,28
true,3,0,1,2,false,d,true,false,0.0-2.0-0.10-0.96-3.96,0,0,0,81,false,stim,false,1,1984.5999999046326,2,0,2,29097,task1,328396,false,false,391,image-keyboard-response,29
true,3,1,1,0,false,q,true,false,0.0-2.0-0.10-0.97-3.97,0,0,0,90,false,stim,false,2,477.60000014305115,2,0,1,29097,task1,330399,false,false,394,image-keyboard-response,30
true,3,0,1,0,true,q,false,true,0.0-2.0-0.10-0.98-3.98,0,0,0,81,false,stim,false,2,513.9000000953674,2,0,1,29097,task1,332455,false,false,397,image-keyboard-response,31
true,3,1,1,0,false,q,true,false,0.0-2.0-0.11-0.99-3.99,0,0,0,90,false,stim,false,2,481.7000000476837,2,0,1,29097,task1,334467,false,false,400,image-keyboard-response,32
true,3,2,1,1,false,z,false,false,0.0-2.0-0.11-0.100-3.100,0,0,0,68,false,stim,true,2,590.8000001907349,2,0,0,29097,task1,336590,false,false,403,image-keyboard-response,33
true,3,0,1,1,false,z,true,false,0.0-2.0-0.11-0.101-3.101,0,0,0,81,false,stim,false,2,485.7000000476837,2,0,0,29097,task1,338595,false,false,406,image-keyboard-response,34
true,3,1,1,2,false,d,false,false,0.0-2.0-0.11-0.102-3.102,0,0,0,90,false,stim,true,1,506.59999990463257,2,0,2,29097,task1,340626,false,false,409,image-keyboard-response,35
true,3,2,1,1,false,z,false,false,0.0-2.0-0.11-0.103-3.103,0,0,0,68,false,stim,true,2,2100.5999999046326,2,0,0,29097,task1,344262,false,false,412,image-keyboard-response,36
true,3,0,1,2,false,d,true,false,0.0-2.0-0.11-0.104-3.104,0,0,0,81,false,stim,false,1,532.7999999523163,2,0,2,29097,task1,346319,false,false,415,image-keyboard-response,37
true,3,1,1,2,false,d,false,false,0.0-2.0-0.11-0.105-3.105,0,0,0,90,false,stim,true,1,1926.6999998092651,2,0,2,29097,task1,349778,false,false,418,image-keyboard-response,38
true,3,2,1,0,false,q,false,false,0.0-2.0-0.11-0.106-3.106,0,0,0,68,false,stim,true,2,2085.699999809265,2,0,1,29097,task1,353397,false,false,421,image-keyboard-response,39
true,3,0,1,0,true,q,false,true,0.0-2.0-0.11-0.107-3.107,0,0,0,81,false,stim,false,2,279.5,2,0,1,29097,task1,355232,false,false,424,image-keyboard-response,40
true,4,1,2,2,false,d,true,false,0.0-2.0-0.12-0.108-3.108,0,0,0,90,true,stim,false,0,321.40000009536743,2,0,1,29097,task1,357077,false,false,427,image-keyboard-response,1
true,4,0,2,2,false,d,true,false,0.0-2.0-0.12-0.109-3.109,0,0,0,81,false,stim,false,1,651.6000001430511,2,0,0,29097,task1,359264,false,false,430,image-keyboard-response,2
true,4,1,2,1,true,z,false,true,0.0-2.0-0.12-0.110-3.110,0,0,0,90,false,stim,false,2,638.0999999046326,2,0,2,29097,task1,361439,false,false,433,image-keyboard-response,3
true,4,1,2,2,false,d,true,false,0.0-2.0-0.12-0.111-3.111,0,0,0,90,false,stim,false,0,0.2999999523162842,2,0,1,29097,task1,362967,false,false,436,image-keyboard-response,4
true,4,1,2,2,false,d,true,false,0.0-2.0-0.12-0.112-3.112,0,0,0,90,false,stim,false,0,1628.0,2,0,1,29097,task1,366127,false,false,439,image-keyboard-response,5
true,4,0,2,2,false,d,true,false,0.0-2.0-0.12-0.113-3.113,0,0,0,81,false,stim,false,1,1233.7000000476837,2,0,0,29097,task1,368913,false,false,442,image-keyboard-response,6
true,4,1,2,1,true,z,false,true,0.0-2.0-0.12-0.114-3.114,0,0,0,90,false,stim,false,2,771.7999999523163,2,0,2,29097,task1,371215,false,false,445,image-keyboard-response,7
true,4,2,2,2,true,d,false,true,0.0-2.0-0.12-0.115-3.115,0,0,0,68,false,stim,false,1,2164.600000143051,2,0,0,29097,task1,374906,false,false,448,image-keyboard-response,8
true,4,2,2,1,false,z,false,true,0.0-2.0-0.12-0.116-3.116,0,0,0,68,false,stim,true,2,2466.0,2,0,2,29097,task1,378894,false,true,451,image-keyboard-response,9
true,4,2,2,2,true,d,false,false,0.0-2.0-0.13-0.117-3.117,0,0,0,68,false,stim,false,1,2192.7999999523163,2,0,0,29097,task1,382620,false,true,454,image-keyboard-response,10
true,4,1,2,1,true,z,false,true,0.0-2.0-0.13-0.118-3.118,0,0,0,90,false,stim,false,2,2487.9000000953674,2,0,2,29097,task1,386641,false,false,457,image-keyboard-response,11
true,4,1,2,1,true,z,false,true,0.0-2.0-0.13-0.119-3.119,0,0,0,90,false,stim,false,2,1366.9000000953674,2,0,2,29097,task1,389537,false,false,460,image-keyboard-response,12
true,4,0,2,2,false,d,false,true,0.0-2.0-0.13-0.120-3.120,0,0,0,81,false,stim,true,0,295.89999985694885,2,0,1,29097,task1,391366,false,true,463,image-keyboard-response,13
true,4,2,2,2,true,d,false,true,0.0-2.0-0.13-0.121-3.121,0,0,0,68,false,stim,false,1,1530.0999999046326,2,0,0,29097,task1,394418,false,false,466,image-keyboard-response,14
true,4,1,2,1,true,z,false,true,0.0-2.0-0.13-0.122-3.122,0,0,0,90,false,stim,false,2,979.4000000953674,2,0,2,29097,task1,396919,false,false,469,image-keyboard-response,15
true,4,1,2,2,false,d,true,false,0.0-2.0-0.13-0.123-3.123,0,0,0,90,false,stim,false,0,611.7999999523163,2,0,1,29097,task1,399067,false,false,472,image-keyboard-response,16
true,4,1,2,2,false,d,true,false,0.0-2.0-0.13-0.124-3.124,0,0,0,90,false,stim,false,0,1754.7000000476837,2,0,1,29097,task1,402357,false,false,475,image-keyboard-response,17
true,4,1,2,2,false,d,false,false,0.0-2.0-0.13-0.125-3.125,0,0,0,90,false,stim,true,1,360.2999999523163,2,0,0,29097,task1,404245,false,false,478,image-keyboard-response,18
true,4,2,2,1,false,z,false,false,0.0-2.0-0.14-0.126-3.126,0,0,0,68,false,stim,true,2,195.79999995231628,2,0,2,29097,task1,405962,false,false,481,image-keyboard-response,19
true,4,0,2,2,false,d,false,true,0.0-2.0-0.14-0.127-3.127,0,0,0,81,false,stim,true,0,327.60000014305115,2,0,1,29097,task1,407819,false,true,484,image-keyboard-response,20
true,4,1,2,1,true,z,false,true,0.0-2.0-0.14-0.128-3.128,0,0,0,90,false,stim,false,2,187.40000009536743,2,0,2,29097,task1,409532,false,false,487,image-keyboard-response,21
true,4,1,2,2,false,d,true,false,0.0-2.0-0.14-0.129-3.129,0,0,0,90,false,stim,false,0,377.0,2,0,1,29097,task1,411427,false,false,490,image-keyboard-response,22
true,4,1,2,1,true,z,false,true,0.0-2.0-0.14-0.130-3.130,0,0,0,90,false,stim,false,2,2735.899999856949,2,0,2,29097,task1,415687,false,false,493,image-keyboard-response,23
true,4,1,2,2,false,d,false,false,0.0-2.0-0.14-0.131-3.131,0,0,0,90,false,stim,true,1,1103.6999998092651,2,0,0,29097,task1,418314,false,false,496,image-keyboard-response,24
true,4,1,2,2,false,d,false,false,0.0-2.0-0.14-0.132-3.132,0,0,0,90,false,stim,true,1,200.70000004768372,2,0,0,29097,task1,420042,false,false,499,image-keyboard-response,25
true,4,0,2,2,false,d,true,true,0.0-2.0-0.14-0.133-3.133,0,0,0,81,false,stim,false,1,293.7000000476837,2,0,0,29097,task1,421871,false,true,502,image-keyboard-response,26
true,4,2,2,2,true,d,false,true,0.0-2.0-0.14-0.134-3.134,0,0,0,68,false,stim,false,0,191.5,2,0,1,29097,task1,423595,false,false,505,image-keyboard-response,27
true,4,1,2,2,false,d,false,false,0.0-2.0-0.15-0.135-3.135,0,0,0,90,false,stim,true,1,1748.5,2,0,0,29097,task1,426869,false,false,508,image-keyboard-response,28
true,4,0,2,2,false,d,false,false,0.0-2.0-0.15-0.136-3.136,0,0,0,81,false,stim,true,0,308.40000009536743,2,0,1,29097,task1,428716,false,false,511,image-keyboard-response,29
true,4,1,2,1,true,z,false,true,0.0-2.0-0.15-0.137-3.137,0,0,0,90,false,stim,false,2,1312.9000000953674,2,0,2,29097,task1,431553,false,false,514,image-keyboard-response,30
true,4,2,2,1,false,z,false,false,0.0-2.0-0.15-0.138-3.138,0,0,0,68,false,stim,true,2,102.40000009536743,2,0,2,29097,task1,433189,false,false,517,image-keyboard-response,31
true,4,1,2,1,true,z,false,true,0.0-2.0-0.15-0.139-3.139,0,0,0,90,false,stim,false,2,721.1000001430511,2,0,2,29097,task1,435444,false,false,520,image-keyboard-response,32
true,4,1,2,2,false,d,false,false,0.0-2.0-0.15-0.140-3.140,0,0,0,90,false,stim,true,1,460.2000000476837,2,0,0,29097,task1,437423,false,false,523,image-keyboard-response,33
true,4,1,2,2,false,d,true,false,0.0-2.0-0.15-0.141-3.141,0,0,0,90,false,stim,false,0,513.2999999523163,2,0,1,29097,task1,439470,false,false,526,image-keyboard-response,34
true,4,0,2,2,false,d,false,true,0.0-2.0-0.15-0.142-3.142,0,0,0,81,false,stim,true,0,354.09999990463257,2,0,1,29097,task1,441349,false,true,529,image-keyboard-response,35
true,4,1,2,2,false,d,false,false,0.0-2.0-0.15-0.143-3.143,0,0,0,90,false,stim,true,1,1343.7999999523163,2,0,0,29097,task1,444221,false,false,532,image-keyboard-response,36
true,4,2,2,2,true,d,false,true,0.0-2.0-0.16-0.144-3.144,0,0,0,68,false,stim,false,0,2072.2999999523163,2,0,1,29097,task1,447822,false,false,535,image-keyboard-response,37
true,4,0,2,2,false,d,true,true,0.0-2.0-0.16-0.145-3.145,0,0,0,81,false,stim,false,1,627.0,2,0,0,29097,task1,449985,false,true,538,image-keyboard-response,38
true,4,2,2,1,false,z,false,false,0.0-2.0-0.16-0.146-3.146,0,0,0,68,false,stim,true,2,532.5999999046326,2,0,2,29097,task1,452049,false,false,541,image-keyboard-response,39
true,4,2,2,1,false,z,false,false,0.0-2.0-0.16-0.147-3.147,0,0,0,68,false,stim,true,2,1181.7999999523163,2,0,2,29097,task1,454760,false,false,544,image-keyboard-response,40
true,4,1,2,2,false,d,true,true,0.0-2.0-0.16-0.148-3.148,0,0,0,90,false,stim,false,0,858.5,2,0,1,29097,task1,457143,false,true,547,image-keyboard-response,41
true,4,0,2,2,false,d,true,true,0.0-2.0-0.16-0.149-3.149,0,0,0,81,false,stim,false,1,419.5,2,0,0,29097,task1,459096,false,true,550,image-keyboard-response,42
true,5,2,2,2,true,d,false,true,0.0-2.0-0.16-0.150-3.150,0,0,0,68,true,stim,false,1,280.5,2,0,2,29097,task1,460902,false,false,553,image-keyboard-response,1
true,5,1,2,0,false,q,true,false,0.0-2.0-0.16-0.151-3.151,0,0,0,90,false,stim,false,2,292.59999990463257,2,0,1,29097,task1,462720,false,false,556,image-keyboard-response,2
true,5,0,2,1,false,z,true,true,0.0-2.0-0.16-0.152-3.152,0,0,0,81,false,stim,false,2,1630.2000000476837,2,0,0,29097,task1,465873,false,true,559,image-keyboard-response,3
true,5,2,2,2,true,d,false,true,0.0-2.0-0.17-0.153-3.153,0,0,0,68,false,stim,false,1,717.0,2,0,2,29097,task1,468130,false,false,562,image-keyboard-response,4
true,5,2,2,0,false,q,false,false,0.0-2.0-0.17-0.154-3.154,0,0,0,68,false,stim,true,2,525.7000000476837,2,0,1,29097,task1,470188,false,false,565,image-keyboard-response,5
true,5,0,2,1,false,z,true,false,0.0-2.0-0.17-0.155-3.155,0,0,0,81,false,stim,false,2,432.39999985694885,2,0,0,29097,task1,472142,false,false,568,image-keyboard-response,6
true,5,2,2,0,false,q,false,false,0.0-2.0-0.17-0.156-3.156,0,0,0,68,false,stim,true,2,2208.600000143051,2,0,1,29097,task1,475875,false,false,571,image-keyboard-response,7
true,5,0,2,1,false,z,true,false,0.0-2.0-0.17-0.157-3.157,0,0,0,81,false,stim,false,2,1072.2999999523163,2,0,0,29097,task1,478463,false,false,574,image-keyboard-response,8
true,5,2,2,2,true,d,false,true,0.0-2.0-0.17-0.158-3.158,0,0,0,68,false,stim,false,1,1642.1000001430511,2,0,2,29097,task1,481637,false,false,577,image-keyboard-response,9
true,5,1,2,2,false,d,false,false,0.0-2.0-0.17-0.159-3.159,0,0,0,90,false,stim,true,1,501.7999999523163,2,0,2,29097,task1,483681,false,false,580,image-keyboard-response,10
true,5,0,2,1,false,z,true,false,0.0-2.0-0.17-0.160-3.160,0,0,0,81,false,stim,false,2,2793.7000000476837,2,0,0,29097,task1,487999,false,false,583,image-keyboard-response,11
true,5,1,2,0,false,q,true,false,0.0-2.0-0.17-0.161-3.161,0,0,0,90,false,stim,false,2,504.19999980926514,2,0,1,29097,task1,490033,false,false,586,image-keyboard-response,12
true,5,1,2,1,true,z,false,true,0.0-2.0-0.18-0.162-3.162,0,0,0,90,false,stim,false,2,578.7000000476837,2,0,0,29097,task1,492147,false,false,589,image-keyboard-response,13
true,5,2,2,1,false,z,false,false,0.0-2.0-0.18-0.163-3.163,0,0,0,68,false,stim,true,2,345.0,2,0,0,29097,task1,494015,false,false,592,image-keyboard-response,14
true,5,0,2,0,true,q,false,true,0.0-2.0-0.18-0.164-3.164,0,0,0,81,false,stim,false,2,335.2999999523163,2,0,1,29097,task1,495876,false,false,595,image-keyboard-response,15
true,5,1,2,2,false,d,false,false,0.0-2.0-0.18-0.165-3.165,0,0,0,90,false,stim,true,1,214.89999985694885,2,0,2,29097,task1,497614,false,false,598,image-keyboard-response,16
true,5,2,2,1,false,z,false,false,0.0-2.0-0.18-0.166-3.166,0,0,0,68,false,stim,true,2,216.29999995231628,2,0,0,29097,task1,499358,false,false,601,image-keyboard-response,17
true,5,0,2,0,true,q,false,false,0.0-2.0-0.18-0.167-3.167,0,0,0,81,false,stim,false,2,589.2999999523163,2,0,1,29097,task1,501486,false,true,604,image-keyboard-response,18
true,5,1,2,2,false,d,false,false,0.0-2.0-0.18-0.168-3.168,0,0,0,90,false,stim,true,1,306.2999999523163,2,0,2,29097,task1,503327,false,false,607,image-keyboard-response,19
true,5,2,2,2,true,d,false,true,0.0-2.0-0.18-0.169-3.169,0,0,0,68,false,stim,false,1,281.7000000476837,2,0,2,29097,task1,505140,false,false,610,image-keyboard-response,20
true,5,2,2,0,false,q,false,false,0.0-2.0-0.18-0.170-3.170,0,0,0,68,false,stim,true,2,446.7999999523163,2,0,1,29097,task1,507127,false,false,613,image-keyboard-response,21
true,5,1,2,1,true,z,false,true,0.0-2.0-0.19-0.171-3.171,0,0,0,90,false,stim,false,2,555.3999998569489,2,0,0,29097,task1,509209,false,false,616,image-keyboard-response,22
true,5,0,2,0,true,q,false,true,0.0-2.0-0.19-0.172-3.172,0,0,0,81,false,stim,false,2,753.5,2,0,1,29097,task1,511484,false,false,619,image-keyboard-response,23
true,5,0,2,0,true,q,false,true,0.0-2.0-0.19-0.173-3.173,0,0,0,81,false,stim,false,2,476.59999990463257,2,0,1,29097,task1,513471,false,false,622,image-keyboard-response,24
true,5,2,2,2,true,d,false,true,0.0-2.0-0.19-0.174-3.174,0,0,0,68,false,stim,false,1,808.0999999046326,2,0,2,29097,task1,515803,false,false,625,image-keyboard-response,25
true,5,2,2,2,true,d,false,true,0.0-2.0-0.19-0.175-3.175,0,0,0,68,false,stim,false,1,610.4000000953674,2,0,2,29097,task1,517937,false,false,628,image-keyboard-response,26
true,5,2,2,2,true,d,false,true,0.0-2.0-0.19-0.176-3.176,0,0,0,68,false,stim,false,1,499.5,2,0,2,29097,task1,519957,false,false,631,image-keyboard-response,27
true,5,0,2,0,true,q,false,true,0.0-2.0-0.19-0.177-3.177,0,0,0,81,false,stim,false,2,905.7999999523163,2,0,1,29097,task1,522382,false,false,634,image-keyboard-response,28
true,5,1,2,1,true,z,false,true,0.0-2.0-0.19-0.178-3.178,0,0,0,90,false,stim,false,2,719.3000001907349,2,0,0,29097,task1,524629,false,false,637,image-keyboard-response,29
true,5,1,2,1,true,z,false,true,0.0-2.0-0.19-0.179-3.179,0,0,0,90,false,stim,false,2,511.7999999523163,2,0,0,29097,task1,526662,false,false,640,image-keyboard-response,30
true,5,1,2,1,true,z,false,true,0.0-2.0-0.20-0.180-3.180,0,0,0,90,false,stim,false,2,647.0999999046326,2,0,0,29097,task1,528834,false,false,643,image-keyboard-response,31
true,5,2,2,2,true,d,false,true,0.0-2.0-0.20-0.181-3.181,0,0,0,68,false,stim,false,1,648.6000001430511,2,0,2,29097,task1,531001,false,false,646,image-keyboard-response,32
true,5,0,2,1,false,z,true,false,0.0-2.0-0.20-0.182-3.182,0,0,0,81,false,stim,false,2,604.2000000476837,2,0,0,29097,task1,533130,false,false,649,image-keyboard-response,33
true,5,1,2,0,false,q,true,false,0.0-2.0-0.20-0.183-3.183,0,0,0,90,false,stim,false,2,278.90000009536743,2,0,1,29097,task1,534930,false,false,652,image-keyboard-response,34
true,5,2,2,0,false,q,false,false,0.0-2.0-0.20-0.184-3.184,0,0,0,68,false,stim,true,2,618.9000000953674,2,0,1,29097,task1,537073,false,false,655,image-keyboard-response,35
true,5,1,2,2,false,d,false,false,0.0-2.0-0.20-0.185-3.185,0,0,0,90,false,stim,true,1,773.2000000476837,2,0,2,29097,task1,539375,false,false,658,image-keyboard-response,36
true,5,0,2,1,false,z,true,false,0.0-2.0-0.20-0.186-3.186,0,0,0,81,false,stim,false,2,277.2999999523163,2,0,0,29097,task1,541182,false,false,661,image-keyboard-response,37
true,5,0,2,0,true,q,false,true,0.0-2.0-0.20-0.187-3.187,0,0,0,81,false,stim,false,2,682.6999998092651,2,0,1,29097,task1,543391,false,false,664,image-keyboard-response,38
true,5,2,2,2,true,d,false,true,0.0-2.0-0.20-0.188-3.188,0,0,0,68,false,stim,false,1,404.7000000476837,2,0,2,29097,task1,545322,false,false,667,image-keyboard-response,39
true,5,0,2,0,true,q,false,true,0.0-2.0-0.21-0.189-3.189,0,0,0,81,false,stim,false,2,780.7000000476837,2,0,1,29097,task1,547633,false,false,670,image-keyboard-response,40
true,5,2,2,2,true,d,false,true,0.0-2.0-0.21-0.190-3.190,0,0,0,68,false,stim,false,1,551.1000001430511,2,0,2,29097,task1,549705,false,false,673,image-keyboard-response,41
true,5,1,2,1,true,z,false,true,0.0-2.0-0.21-0.191-3.191,0,0,0,90,false,stim,false,2,600.7000000476837,2,0,0,29097,task1,551837,false,false,676,image-keyboard-response,42
true,5,0,2,0,true,q,false,true,0.0-2.0-0.21-0.192-3.192,0,0,0,81,false,stim,false,2,871.2000000476837,2,0,1,29097,task1,554243,false,false,679,image-keyboard-response,43
true,5,2,2,2,true,d,false,true,0.0-2.0-0.21-0.193-3.193,0,0,0,68,false,stim,false,1,562.0,2,0,2,29097,task1,556338,false,false,682,image-keyboard-response,44
true,6,1,2,2,false,d,false,false,0.0-2.0-0.21-0.194-3.194,0,0,0,90,true,stim,true,1,503.7999999523163,2,0,0,29097,task1,558367,false,false,685,image-keyboard-response,1
true,6,0,2,2,false,d,false,false,0.0-2.0-0.21-0.195-3.195,0,0,0,81,false,stim,true,0,626.6000001430511,2,0,1,29097,task1,560523,false,false,688,image-keyboard-response,2
true,6,2,2,1,false,z,false,true,0.0-2.0-0.21-0.196-3.196,0,0,0,68,false,stim,true,2,790.9000000953674,2,0,2,29097,task1,562835,false,true,691,image-keyboard-response,3
true,6,1,2,2,false,d,false,false,0.0-2.0-0.21-0.197-3.197,0,0,0,90,false,stim,true,1,574.6000001430511,2,0,0,29097,task1,564938,false,false,694,image-keyboard-response,4
true,6,1,2,2,false,d,false,false,0.0-2.0-0.22-0.198-3.198,0,0,0,90,false,stim,true,1,752.7999999523163,2,0,0,29097,task1,567220,false,false,697,image-keyboard-response,5
true,6,2,2,1,false,z,false,false,0.0-2.0-0.22-0.199-3.199,0,0,0,68,false,stim,true,2,623.8999998569489,2,0,2,29097,task1,569377,false,false,700,image-keyboard-response,6
true,6,2,2,1,false,z,false,false,0.0-2.0-0.22-0.200-3.200,0,0,0,68,false,stim,true,2,725.7000000476837,2,0,2,29097,task1,571646,false,false,703,image-keyboard-response,7
true,6,1,2,1,true,z,false,true,0.0-2.0-0.22-0.201-3.201,0,0,0,90,false,stim,false,2,1227.2999999523163,2,0,2,29097,task1,574409,false,false,706,image-keyboard-response,8
true,6,0,2,2,false,d,false,false,0.0-2.0-0.22-0.202-3.202,0,0,0,81,false,stim,true,0,1097.2999999523163,2,0,1,29097,task1,577036,false,false,709,image-keyboard-response,9
true,6,0,2,2,false,d,true,false,0.0-2.0-0.22-0.203-3.203,0,0,0,81,false,stim,false,1,813.8000001907349,2,0,0,29097,task1,579379,false,false,712,image-keyboard-response,10
true,6,1,2,2,false,d,true,false,0.0-2.0-0.22-0.204-3.204,0,0,0,90,false,stim,false,0,1150.2999999523163,2,0,1,29097,task1,582060,false,false,715,image-keyboard-response,11
true,6,2,2,2,true,d,false,true,0.0-2.0-0.22-0.205-3.205,0,0,0,68,false,stim,false,0,1180.2999999523163,2,0,1,29097,task1,584765,false,false,718,image-keyboard-response,12
true,6,1,2,2,false,d,false,false,0.0-2.0-0.22-0.206-3.206,0,0,0,90,false,stim,true,1,2928.800000190735,2,0,0,29097,task1,589214,false,false,721,image-keyboard-response,13
true,6,2,2,1,false,z,false,false,0.0-2.0-0.23-0.207-3.207,0,0,0,68,false,stim,true,2,816.7000000476837,2,0,2,29097,task1,591557,false,false,724,image-keyboard-response,14
true,6,0,2,2,false,d,true,false,0.0-2.0-0.23-0.208-3.208,0,0,0,81,false,stim,false,1,798.7999999523163,2,0,0,29097,task1,593881,false,false,727,image-keyboard-response,15
true,6,1,2,2,false,d,true,false,0.0-2.0-0.23-0.209-3.209,0,0,0,90,false,stim,false,0,884.0,2,0,1,29097,task1,596288,false,false,730,image-keyboard-response,16
true,6,1,2,1,true,z,false,false,0.0-2.0-0.23-0.210-3.210,0,0,0,90,false,stim,false,2,1082.2000000476837,2,0,2,29097,task1,598900,false,true,733,image-keyboard-response,17
true,6,0,2,1,false,z,true,false,0.0-2.0-0.23-0.211-3.211,0,0,0,81,false,stim,false,2,571.4000000953674,2,0,2,29097,task1,601004,false,false,736,image-keyboard-response,18
true,6,2,2,2,true,d,false,true,0.0-2.0-0.23-0.212-3.212,0,0,0,68,false,stim,false,0,1052.6000001430511,2,0,1,29097,task1,603589,false,false,739,image-keyboard-response,19
true,6,2,2,2,true,d,false,true,0.0-2.0-0.23-0.213-3.213,0,0,0,68,false,stim,false,0,1521.7000000476837,2,0,1,29097,task1,606633,false,false,742,image-keyboard-response,20
true,6,2,2,2,true,d,false,true,0.0-2.0-0.23-0.214-3.214,0,0,0,68,false,stim,false,1,1982.2999999523163,2,0,0,29097,task1,610138,false,false,745,image-keyboard-response,21
true,6,2,2,2,true,d,false,true,0.0-2.0-0.23-0.215-3.215,0,0,0,68,false,stim,false,1,373.80000019073486,2,0,0,29097,task1,612051,false,false,748,image-keyboard-response,22
true,6,2,2,2,true,d,false,true,0.0-2.0-0.24-0.216-3.216,0,0,0,68,false,stim,false,1,739.0999999046326,2,0,0,29097,task1,614314,false,false,751,image-keyboard-response,23
true,6,2,2,1,false,z,false,false,0.0-2.0-0.24-0.217-3.217,0,0,0,68,false,stim,true,2,592.6999998092651,2,0,2,29097,task1,616433,false,false,754,image-keyboard-response,24
true,6,0,2,1,false,z,true,false,0.0-2.0-0.24-0.218-3.218,0,0,0,81,false,stim,false,2,659.5,2,0,2,29097,task1,618626,false,false,757,image-keyboard-response,25
true,6,1,2,2,false,d,true,false,0.0-2.0-0.24-0.219-3.219,0,0,0,90,false,stim,false,0,538.7000000476837,2,0,1,29097,task1,620681,false,false,760,image-keyboard-response,26
true,6,2,2,2,true,d,false,true,0.0-2.0-0.24-0.220-3.220,0,0,0,68,false,stim,false,0,354.09999990463257,2,0,1,29097,task1,622553,false,false,763,image-keyboard-response,27
true,6,2,2,1,false,z,false,false,0.0-2.0-0.24-0.221-3.221,0,0,0,68,false,stim,true,2,1683.8999998569489,2,0,2,29097,task1,625764,false,false,766,image-keyboard-response,28
true,6,2,2,2,true,d,false,true,0.0-2.0-0.24-0.222-3.222,0,0,0,68,false,stim,false,1,774.8999998569489,2,0,0,29097,task1,628059,false,false,769,image-keyboard-response,29
true,6,2,2,2,true,d,false,true,0.0-2.0-0.24-0.223-3.223,0,0,0,68,false,stim,false,0,385.5,2,0,1,29097,task1,629970,false,false,772,image-keyboard-response,30
true,6,2,2,2,true,d,false,true,0.0-2.0-0.24-0.224-3.224,0,0,0,68,false,stim,false,1,831.7000000476837,2,0,0,29097,task1,632334,false,false,775,image-keyboard-response,31
true,6,1,2,2,false,d,true,false,0.0-2.0-0.25-0.225-3.225,0,0,0,90,false,stim,false,0,555.3999998569489,2,0,1,29097,task1,634417,false,false,778,image-keyboard-response,32
true,6,0,2,2,false,d,false,false,0.0-2.0-0.25-0.226-3.226,0,0,0,81,false,stim,true,0,867.0,2,0,1,29097,task1,636811,false,false,781,image-keyboard-response,33
true,6,1,2,2,false,d,true,false,0.0-2.0-0.25-0.227-3.227,0,0,0,90,false,stim,false,0,330.7999999523163,2,0,1,29097,task1,638659,false,false,784,image-keyboard-response,34
true,6,2,2,1,false,z,false,false,0.0-2.0-0.25-0.228-3.228,0,0,0,68,false,stim,true,2,298.7999999523163,2,0,2,29097,task1,640483,false,false,787,image-keyboard-response,35
true,6,2,2,1,false,z,false,false,0.0-2.0-0.25-0.229-3.229,0,0,0,68,false,stim,true,2,1157.7000000476837,2,0,2,29097,task1,643161,false,false,790,image-keyboard-response,36
true,6,1,2,2,false,d,false,false,0.0-2.0-0.25-0.230-3.230,0,0,0,90,false,stim,true,1,358.80000019073486,2,0,0,29097,task1,645042,false,false,793,image-keyboard-response,37
true,6,2,2,1,false,z,false,false,0.0-2.0-0.25-0.231-3.231,0,0,0,68,false,stim,true,2,364.59999990463257,2,0,2,29097,task1,646931,false,false,796,image-keyboard-response,38
true,6,1,2,2,false,d,false,false,0.0-2.0-0.25-0.232-3.232,0,0,0,90,false,stim,true,1,264.2000000476837,2,0,0,29097,task1,648717,false,false,799,image-keyboard-response,39
true,6,1,2,2,false,d,false,false,0.0-2.0-0.25-0.233-3.233,0,0,0,90,false,stim,true,1,245.79999995231628,2,0,0,29097,task1,650499,false,false,802,image-keyboard-response,40
true,6,0,2,1,false,z,true,false,0.0-2.0-0.26-0.234-3.234,0,0,0,81,false,stim,false,2,129.90000009536743,2,0,2,29097,task1,652162,false,false,805,image-keyboard-response,41
true,7,1,1,2,false,d,false,true,0.0-2.0-0.26-0.235-3.235,0,0,0,90,true,stim,true,1,354.2999999523163,2,0,2,29097,task1,654049,false,true,808,image-keyboard-response,1
true,7,2,1,1,false,z,false,true,0.0-2.0-0.26-0.236-3.236,0,0,0,68,false,stim,true,2,668.5,2,0,1,29097,task1,656241,false,true,811,image-keyboard-response,2
true,7,1,1,1,true,z,false,true,0.0-2.0-0.26-0.237-3.237,0,0,0,90,false,stim,false,2,487.39999985694885,2,0,1,29097,task1,658252,false,false,814,image-keyboard-response,3
true,7,2,1,1,false,z,false,false,0.0-2.0-0.26-0.238-3.238,0,0,0,68,false,stim,true,2,193.29999995231628,2,0,1,29097,task1,659967,false,false,817,image-keyboard-response,4
true,7,1,1,1,true,z,false,true,0.0-2.0-0.26-0.239-3.239,0,0,0,90,false,stim,false,2,291.39999985694885,2,0,0,29097,task1,661789,false,false,820,image-keyboard-response,5
true,7,1,1,2,false,d,false,false,0.0-2.0-0.26-0.240-3.240,0,0,0,90,false,stim,true,1,1521.0,2,0,2,29097,task1,664839,false,false,823,image-keyboard-response,6
true,7,2,1,1,false,z,false,false,0.0-2.0-0.26-0.241-3.241,0,0,0,68,false,stim,true,2,1006.5999999046326,2,0,0,29097,task1,667373,false,false,826,image-keyboard-response,7
true,7,1,1,1,true,z,false,true,0.0-2.0-0.26-0.242-3.242,0,0,0,90,false,stim,false,2,950.5999999046326,2,0,0,29097,task1,669842,false,false,829,image-keyboard-response,8
true,7,1,1,2,false,d,false,true,0.0-2.0-0.27-0.243-3.243,0,0,0,90,false,stim,true,1,457.69999980926514,2,0,2,29097,task1,671827,false,true,832,image-keyboard-response,9
true,7,2,1,1,false,z,false,false,0.0-2.0-0.27-0.244-3.244,0,0,0,68,false,stim,true,2,744.5999999046326,2,0,1,29097,task1,674097,false,false,835,image-keyboard-response,10
true,7,2,1,2,true,d,false,true,0.0-2.0-0.27-0.245-3.245,0,0,0,68,false,stim,false,1,142.10000014305115,2,0,2,29097,task1,675763,false,false,838,image-keyboard-response,11
true,7,1,1,1,true,z,false,true,0.0-2.0-0.27-0.246-3.246,0,0,0,90,false,stim,false,2,289.30000019073486,2,0,1,29097,task1,677574,false,false,841,image-keyboard-response,12
true,7,1,1,2,false,d,false,false,0.0-2.0-0.27-0.247-3.247,0,0,0,90,false,stim,true,1,234.79999995231628,2,0,2,29097,task1,679339,false,false,844,image-keyboard-response,13
true,7,2,1,1,false,z,false,false,0.0-2.0-0.27-0.248-3.248,0,0,0,68,false,stim,true,2,709.0,2,0,0,29097,task1,681570,false,false,847,image-keyboard-response,14
true,7,1,1,1,true,z,false,true,0.0-2.0-0.27-0.249-3.249,0,0,0,90,false,stim,false,2,206.19999980926514,2,0,0,29097,task1,683302,false,false,850,image-keyboard-response,15
true,7,1,1,1,true,z,false,true,0.0-2.0-0.27-0.250-3.250,0,0,0,90,false,stim,false,2,764.7000000476837,2,0,0,29097,task1,685598,false,false,853,image-keyboard-response,16
true,7,1,1,1,true,z,false,true,0.0-2.0-0.27-0.251-3.251,0,0,0,90,false,stim,false,2,1121.5999999046326,2,0,1,29097,task1,688243,false,false,856,image-keyboard-response,17
true,7,1,1,1,true,z,false,true,0.0-2.0-0.28-0.252-3.252,0,0,0,90,false,stim,false,2,1074.2999999523163,2,0,1,29097,task1,690847,false,false,859,image-keyboard-response,18
true,7,1,1,2,false,d,false,false,0.0-2.0-0.28-0.253-3.253,0,0,0,90,false,stim,true,1,109.5,2,0,2,29097,task1,692478,false,false,862,image-keyboard-response,19
true,7,2,1,1,false,z,false,false,0.0-2.0-0.28-0.254-3.254,0,0,0,68,false,stim,true,2,723.3999998569489,2,0,0,29097,task1,694739,false,false,865,image-keyboard-response,20
true,7,0,1,2,false,d,true,false,0.0-2.0-0.28-0.255-3.255,0,0,0,81,false,stim,false,1,1885.8999998569489,2,0,2,29097,task1,698154,false,false,868,image-keyboard-response,21
true,7,1,1,2,false,d,false,false,0.0-2.0-0.28-0.256-3.256,0,0,0,90,false,stim,true,1,276.59999990463257,2,0,2,29097,task1,699964,false,false,871,image-keyboard-response,22
true,7,2,1,1,false,z,false,false,0.0-2.0-0.28-0.257-3.257,0,0,0,68,false,stim,true,2,295.5,2,0,0,29097,task1,701792,false,false,874,image-keyboard-response,23
true,7,1,1,1,true,z,false,true,0.0-2.0-0.28-0.258-3.258,0,0,0,90,false,stim,false,2,399.0,2,0,1,29097,task1,703714,false,false,877,image-keyboard-response,24
true,7,2,1,1,false,z,false,false,0.0-2.0-0.28-0.259-3.259,0,0,0,68,false,stim,true,2,858.7000000476837,2,0,1,29097,task1,706094,false,false,880,image-keyboard-response,25
true,7,1,1,1,true,z,false,true,0.0-2.0-0.28-0.260-3.260,0,0,0,90,false,stim,false,2,1510.1000001430511,2,0,0,29097,task1,709125,false,false,883,image-keyboard-response,26
true,7,1,1,1,true,z,false,true,0.0-2.0-0.29-0.261-3.261,0,0,0,90,false,stim,false,2,2871.2999999523163,2,0,1,29097,task1,713518,false,false,886,image-keyboard-response,27
true,7,2,1,1,false,z,false,false,0.0-2.0-0.29-0.262-3.262,0,0,0,68,false,stim,true,2,2067.5999999046326,2,0,0,29097,task1,717115,false,false,889,image-keyboard-response,28
false,7,-1,1,2,false,d,true,true,0.0-2.0-0.29-0.263-3.263,0,0,0,,false,stim,false,1,,2,0,2,29097,task1,721652,false,true,892,image-keyboard-response,29
true,7,1,1,2,false,d,false,false,0.0-2.0-0.29-0.264-3.264,0,0,0,90,false,stim,true,1,2129.5,2,0,2,29097,task1,725309,false,false,895,image-keyboard-response,30
true,7,1,1,1,true,z,false,true,0.0-2.0-0.29-0.265-3.265,0,0,0,90,false,stim,false,2,1867.0999999046326,2,0,1,29097,task1,728706,false,false,898,image-keyboard-response,31
true,7,1,1,1,true,z,false,true,0.0-2.0-0.29-0.266-3.266,0,0,0,90,false,stim,false,2,2189.899999856949,2,0,1,29097,task1,732441,false,false,901,image-keyboard-response,32
true,7,1,1,2,false,d,false,false,0.0-2.0-0.29-0.267-3.267,0,0,0,90,false,stim,true,1,2450.9000000953674,2,0,2,29097,task1,736417,false,false,904,image-keyboard-response,33
true,7,2,1,1,false,z,false,false,0.0-2.0-0.29-0.268-3.268,0,0,0,68,false,stim,true,2,1679.4000000953674,2,0,0,29097,task1,739619,false,false,907,image-keyboard-response,34
true,7,1,1,1,true,z,false,false,0.0-2.0-0.29-0.269-3.269,0,0,0,90,false,stim,false,2,1450.4000000953674,2,0,0,29097,task1,742601,false,true,910,image-keyboard-response,35
true,7,2,1,1,false,z,false,false,0.0-2.0-0.30-0.270-3.270,0,0,0,68,false,stim,true,2,28.299999952316284,2,0,0,29097,task1,744162,false,false,913,image-keyboard-response,36
true,7,0,1,1,false,z,true,false,0.0-2.0-0.30-0.271-3.271,0,0,0,81,false,stim,false,2,311.40000009536743,2,0,1,29097,task1,745998,false,false,916,image-keyboard-response,37
true,7,2,1,1,false,z,false,false,0.0-2.0-0.30-0.272-3.272,0,0,0,68,false,stim,true,2,379.5,2,0,1,29097,task1,747901,false,false,919,image-keyboard-response,38
true,7,2,1,2,true,d,false,false,0.0-2.0-0.30-0.273-3.273,0,0,0,68,false,stim,false,1,82.5,2,0,2,29097,task1,749504,false,true,922,image-keyboard-response,39
true,7,0,1,2,false,d,true,false,0.0-2.0-0.30-0.274-3.274,0,0,0,81,false,stim,false,1,226.09999990463257,2,0,2,29097,task1,751253,false,false,925,image-keyboard-response,40
true,8,1,2,2,false,d,false,false,0.0-2.0-0.30-0.275-3.275,0,0,0,90,true,stim,true,1,875.8999998569489,2,0,1,29097,task1,753660,false,false,928,image-keyboard-response,1
true,8,2,2,2,true,d,false,true,0.0-2.0-0.30-0.276-3.276,0,0,0,68,false,stim,false,1,1933.0,2,0,0,29097,task1,757124,false,false,931,image-keyboard-response,2
true,8,1,2,1,true,z,false,false,0.0-2.0-0.30-0.277-3.277,0,0,0,90,false,stim,false,2,1262.6999998092651,2,0,2,29097,task1,759916,false,true,934,image-keyboard-response,3
true,8,1,2,2,false,d,false,false,0.0-2.0-0.30-0.278-3.278,0,0,0,90,false,stim,true,1,685.7000000476837,2,0,0,29097,task1,762141,false,false,937,image-keyboard-response,4
true,8,1,2,2,false,d,false,false,0.0-2.0-0.31-0.279-3.279,0,0,0,90,false,stim,true,1,1582.7000000476837,2,0,1,29097,task1,765244,false,false,940,image-keyboard-response,5
true,8,0,2,2,false,d,true,false,0.0-2.0-0.31-0.280-3.280,0,0,0,81,false,stim,false,1,321.2999999523163,2,0,1,29097,task1,767094,false,false,943,image-keyboard-response,6
true,8,2,2,1,false,z,false,true,0.0-2.0-0.31-0.281-3.281,0,0,0,68,false,stim,true,2,1847.1000001430511,2,0,2,29097,task1,770461,false,true,946,image-keyboard-response,7
true,8,0,2,1,false,z,true,false,0.0-2.0-0.31-0.282-3.282,0,0,0,81,false,stim,false,2,627.8999998569489,2,0,2,29097,task1,772611,false,false,949,image-keyboard-response,8
true,8,0,2,2,false,d,true,false,0.0-2.0-0.31-0.283-3.283,0,0,0,81,false,stim,false,1,743.5999999046326,2,0,0,29097,task1,774881,false,false,952,image-keyboard-response,9
true,8,0,2,2,false,d,true,false,0.0-2.0-0.31-0.284-3.284,0,0,0,81,false,stim,false,1,1532.7999999523163,2,0,0,29097,task1,777952,false,false,955,image-keyboard-response,10
true,8,0,2,2,false,d,true,false,0.0-2.0-0.31-0.285-3.285,0,0,0,81,false,stim,false,1,1303.3999998569489,2,0,0,29097,task1,780781,false,false,958,image-keyboard-response,11
true,8,2,2,2,true,d,false,true,0.0-2.0-0.31-0.286-3.286,0,0,0,68,false,stim,false,1,1369.0999999046326,2,0,1,29097,task1,783678,false,false,961,image-keyboard-response,12
false,8,-1,2,1,false,z,true,false,0.0-2.0-0.31-0.287-3.287,0,0,0,,false,stim,false,2,,2,0,2,29097,task1,788216,false,false,964,image-keyboard-response,13
true,8,1,2,2,false,d,false,false,0.0-2.0-0.32-0.288-3.288,0,0,0,90,false,stim,true,1,2169.5999999046326,2,0,0,29097,task1,791921,false,false,967,image-keyboard-response,14
true,8,0,2,1,false,z,true,false,0.0-2.0-0.32-0.289-3.289,0,0,0,81,false,stim,false,2,1014.6999998092651,2,0,2,29097,task1,794478,false,false,970,image-keyboard-response,15
true,8,1,2,1,true,z,false,true,0.0-2.0-0.32-0.290-3.290,0,0,0,90,false,stim,false,2,2996.399999856949,2,0,2,29097,task1,799011,false,false,973,image-keyboard-response,16
true,8,1,2,2,false,d,false,false,0.0-2.0-0.32-0.291-3.291,0,0,0,90,false,stim,true,1,1206.7000000476837,2,0,0,29097,task1,801744,false,false,976,image-keyboard-response,17
true,8,0,2,2,false,d,true,false,0.0-2.0-0.32-0.292-3.292,0,0,0,81,false,stim,false,1,611.2000000476837,2,0,1,29097,task1,803881,false,false,979,image-keyboard-response,18
true,8,1,2,1,true,z,false,true,0.0-2.0-0.32-0.293-3.293,0,0,0,90,false,stim,false,2,2736.0,2,0,2,29097,task1,808153,false,false,982,image-keyboard-response,19
true,8,0,2,2,false,d,true,true,0.0-2.0-0.32-0.294-3.294,0,0,0,81,false,stim,false,1,1995.5,2,0,1,29097,task1,811677,false,true,985,image-keyboard-response,20
true,8,1,2,2,false,d,false,false,0.0-2.0-0.32-0.295-3.295,0,0,0,90,false,stim,true,1,1553.7999999523163,2,0,0,29097,task1,814755,false,false,988,image-keyboard-response,21
true,8,0,2,2,false,d,true,false,0.0-2.0-0.32-0.296-3.296,0,0,0,81,false,stim,false,1,159.20000004768372,2,0,1,29097,task1,816437,false,false,991,image-keyboard-response,22
true,8,0,2,2,false,d,true,false,0.0-2.0-0.33-0.297-3.297,0,0,0,81,false,stim,false,1,2933.899999856949,2,0,0,29097,task1,820909,false,false,994,image-keyboard-response,23
true,8,0,2,2,false,d,true,false,0.0-2.0-0.33-0.298-3.298,0,0,0,81,false,stim,false,1,93.60000014305115,2,0,0,29097,task1,822535,false,false,997,image-keyboard-response,24
true,8,0,2,2,false,d,true,false,0.0-2.0-0.33-0.299-3.299,0,0,0,81,false,stim,false,1,2810.2000000476837,2,0,0,29097,task1,826871,false,false,1000,image-keyboard-response,25
true,8,0,2,2,false,d,true,false,0.0-2.0-0.33-0.300-3.300,0,0,0,81,false,stim,false,1,739.5,2,0,1,29097,task1,829152,false,false,1003,image-keyboard-response,26
true,8,1,2,2,false,d,false,false,0.0-2.0-0.33-0.301-3.301,0,0,0,90,false,stim,true,1,1770.5,2,0,1,29097,task1,832444,false,false,1006,image-keyboard-response,27
true,8,0,2,1,false,z,true,false,0.0-2.0-0.33-0.302-3.302,0,0,0,81,false,stim,false,2,114.10000014305115,2,0,2,29097,task1,834087,false,false,1009,image-keyboard-response,28
true,8,2,2,1,false,z,false,false,0.0-2.0-0.33-0.303-3.303,0,0,0,68,false,stim,true,2,1814.2999999523163,2,0,2,29097,task1,837423,false,false,1012,image-keyboard-response,29
true,8,2,2,1,false,z,false,false,0.0-2.0-0.33-0.304-3.304,0,0,0,68,false,stim,true,2,1395.8000001907349,2,0,2,29097,task1,840348,false,false,1015,image-keyboard-response,30
true,8,0,2,2,false,d,true,false,0.0-2.0-0.33-0.305-3.305,0,0,0,81,false,stim,false,1,430.69999980926514,2,0,1,29097,task1,842311,false,false,1018,image-keyboard-response,31
true,8,2,2,1,false,z,false,false,0.0-2.0-0.34-0.306-3.306,0,0,0,68,false,stim,true,2,651.2999999523163,2,0,2,29097,task1,844491,false,false,1021,image-keyboard-response,32
true,8,0,2,2,false,d,true,true,0.0-2.0-0.34-0.307-3.307,0,0,0,81,false,stim,false,1,667.0999999046326,2,0,0,29097,task1,846694,false,true,1024,image-keyboard-response,33
false,8,-1,2,2,false,d,true,false,0.0-2.0-0.34-0.308-3.308,0,0,0,,false,stim,false,1,,2,0,1,29097,task1,851262,false,false,1027,image-keyboard-response,34
true,8,1,2,2,false,d,false,false,0.0-2.0-0.34-0.309-3.309,0,0,0,90,false,stim,true,1,1299.8000001907349,2,0,0,29097,task1,854089,false,false,1030,image-keyboard-response,35
true,8,1,2,2,false,d,false,false,0.0-2.0-0.34-0.310-3.310,0,0,0,90,false,stim,true,1,284.89999985694885,2,0,0,29097,task1,855891,false,false,1033,image-keyboard-response,36
true,8,0,2,1,false,z,true,false,0.0-2.0-0.34-0.311-3.311,0,0,0,81,false,stim,false,2,2253.5,2,0,2,29097,task1,859666,false,false,1036,image-keyboard-response,37
true,8,0,2,2,false,d,true,false,0.0-2.0-0.34-0.312-3.312,0,0,0,81,false,stim,false,1,186.80000019073486,2,0,1,29097,task1,861375,false,false,1039,image-keyboard-response,38
true,8,0,2,1,false,z,true,false,0.0-2.0-0.34-0.313-3.313,0,0,0,81,false,stim,false,2,2730.7000000476837,2,0,2,29097,task1,865627,false,false,1042,image-keyboard-response,39
true,9,1,2,0,false,q,true,false,0.0-2.0-0.34-0.314-3.314,0,0,0,90,true,stim,false,2,2366.800000190735,2,0,1,29097,task1,869532,false,false,1045,image-keyboard-response,1
true,9,0,2,1,false,z,true,false,0.0-2.0-0.35-0.315-3.315,0,0,0,81,false,stim,false,2,330.39999985694885,2,0,0,29097,task1,871396,false,false,1048,image-keyboard-response,2
true,9,1,2,0,false,q,true,false,0.0-2.0-0.35-0.316-3.316,0,0,0,90,false,stim,false,2,758.5,2,0,1,29097,task1,873688,false,false,1051,image-keyboard-response,3
true,9,2,2,0,false,q,false,false,0.0-2.0-0.35-0.317-3.317,0,0,0,68,false,stim,true,2,504.5,2,0,1,29097,task1,875730,false,false,1054,image-keyboard-response,4
true,9,0,2,2,false,d,true,false,0.0-2.0-0.35-0.318-3.318,0,0,0,81,false,stim,false,1,1953.0,2,0,2,29097,task1,879217,false,false,1057,image-keyboard-response,5
true,9,2,2,0,false,q,false,true,0.0-2.0-0.35-0.319-3.319,0,0,0,68,false,stim,true,2,6.400000095367432,2,0,1,29097,task1,880756,false,true,1060,image-keyboard-response,6
true,9,1,2,2,false,d,false,true,0.0-2.0-0.35-0.320-3.320,0,0,0,90,false,stim,true,1,512.2999999523163,2,0,2,29097,task1,882801,false,true,1063,image-keyboard-response,7
true,9,0,2,2,false,d,true,false,0.0-2.0-0.35-0.321-3.321,0,0,0,81,false,stim,false,1,2131.0,2,0,2,29097,task1,886458,false,false,1066,image-keyboard-response,8
true,9,2,2,1,false,z,false,false,0.0-2.0-0.35-0.322-3.322,0,0,0,68,false,stim,true,2,510.0,2,0,0,29097,task1,888502,false,false,1069,image-keyboard-response,9
true,9,1,2,1,true,z,false,true,0.0-2.0-0.35-0.323-3.323,0,0,0,90,false,stim,false,2,2507.300000190735,2,0,0,29097,task1,892545,false,false,1072,image-keyboard-response,10
true,9,1,2,1,true,z,false,true,0.0-2.0-0.36-0.324-3.324,0,0,0,90,false,stim,false,2,577.3999998569489,2,0,0,29097,task1,894650,false,false,1075,image-keyboard-response,11
true,9,0,2,2,false,d,true,false,0.0-2.0-0.36-0.325-3.325,0,0,0,81,false,stim,false,1,262.60000014305115,2,0,2,29097,task1,896432,false,false,1078,image-keyboard-response,12
true,9,2,2,0,false,q,false,false,0.0-2.0-0.36-0.326-3.326,0,0,0,68,false,stim,true,2,265.39999985694885,2,0,1,29097,task1,898226,false,false,1081,image-keyboard-response,13
true,9,1,2,1,true,z,false,true,0.0-2.0-0.36-0.327-3.327,0,0,0,90,false,stim,false,2,613.3999998569489,2,0,0,29097,task1,900361,false,false,1084,image-keyboard-response,14
true,9,1,2,2,false,d,false,false,0.0-2.0-0.36-0.328-3.328,0,0,0,90,false,stim,true,1,1447.3999998569489,2,0,2,29097,task1,903360,false,false,1087,image-keyboard-response,15
true,9,0,2,0,true,q,false,true,0.0-2.0-0.36-0.329-3.329,0,0,0,81,false,stim,false,2,471.59999990463257,2,0,1,29097,task1,905358,false,false,1090,image-keyboard-response,16
true,9,2,2,1,false,z,false,false,0.0-2.0-0.36-0.330-3.330,0,0,0,68,false,stim,true,2,397.7999999523163,2,0,0,29097,task1,907292,false,false,1093,image-keyboard-response,17
true,9,0,2,0,true,q,false,true,0.0-2.0-0.36-0.331-3.331,0,0,0,81,false,stim,false,2,383.7000000476837,2,0,1,29097,task1,909219,false,false,1096,image-keyboard-response,18
true,9,1,2,2,false,d,false,false,0.0-2.0-0.36-0.332-3.332,0,0,0,90,false,stim,true,1,389.40000009536743,2,0,2,29097,task1,911147,false,false,1099,image-keyboard-response,19
true,9,2,2,1,false,z,false,false,0.0-2.0-0.37-0.333-3.333,0,0,0,68,false,stim,true,2,830.9000000953674,2,0,0,29097,task1,913503,false,false,1102,image-keyboard-response,20
true,9,0,2,1,false,z,true,true,0.0-2.0-0.37-0.334-3.334,0,0,0,81,false,stim,false,2,1722.4000000953674,2,0,0,29097,task1,916753,false,true,1105,image-keyboard-response,21
true,9,0,2,0,true,q,false,true,0.0-2.0-0.37-0.335-3.335,0,0,0,81,false,stim,false,2,1317.5999999046326,2,0,1,29097,task1,919596,false,false,1108,image-keyboard-response,22
true,9,0,2,2,false,d,true,true,0.0-2.0-0.37-0.336-3.336,0,0,0,81,false,stim,false,1,919.7999999523163,2,0,2,29097,task1,922048,false,true,1111,image-keyboard-response,23
true,9,1,2,1,true,z,false,true,0.0-2.0-0.37-0.337-3.337,0,0,0,90,false,stim,false,2,208.19999980926514,2,0,0,29097,task1,923790,false,false,1114,image-keyboard-response,24
true,9,2,2,2,true,d,false,false,0.0-2.0-0.37-0.338-3.338,0,0,0,68,false,stim,false,1,1918.4000000953674,2,0,2,29097,task1,927244,false,true,1117,image-keyboard-response,25
true,9,2,2,0,false,q,false,false,0.0-2.0-0.37-0.339-3.339,0,0,0,68,false,stim,true,2,887.5,2,0,1,29097,task1,929664,false,false,1120,image-keyboard-response,26
true,9,0,2,2,false,d,true,false,0.0-2.0-0.37-0.340-3.340,0,0,0,81,false,stim,false,1,799.2000000476837,2,0,2,29097,task1,932005,false,false,1123,image-keyboard-response,27
true,9,1,2,0,false,q,true,false,0.0-2.0-0.37-0.341-3.341,0,0,0,90,false,stim,false,2,370.09999990463257,2,0,1,29097,task1,933911,false,false,1126,image-keyboard-response,28
false,9,-1,2,0,false,q,true,false,0.0-2.0-0.38-0.342-3.342,0,0,0,,false,stim,false,2,,2,0,1,29097,task1,938439,false,false,1129,image-keyboard-response,29
true,9,1,2,2,false,d,false,false,0.0-2.0-0.38-0.343-3.343,0,0,0,90,false,stim,true,1,2634.0999999046326,2,0,2,29097,task1,942603,false,false,1132,image-keyboard-response,30
true,9,2,2,0,false,q,false,false,0.0-2.0-0.38-0.344-3.344,0,0,0,68,false,stim,true,2,1120.3000001907349,2,0,1,29097,task1,945261,false,false,1135,image-keyboard-response,31
true,9,1,2,2,false,d,false,false,0.0-2.0-0.38-0.345-3.345,0,0,0,90,false,stim,true,1,718.5999999046326,2,0,2,29097,task1,947513,false,false,1138,image-keyboard-response,32
true,9,0,2,1,false,z,true,false,0.0-2.0-0.38-0.346-3.346,0,0,0,81,false,stim,false,2,699.7999999523163,2,0,0,29097,task1,949735,false,false,1141,image-keyboard-response,33
true,9,0,2,1,false,z,true,false,0.0-2.0-0.38-0.347-3.347,0,0,0,81,false,stim,false,2,2568.399999856949,2,0,0,29097,task1,953831,false,false,1144,image-keyboard-response,34
true,9,2,2,1,false,z,false,false,0.0-2.0-0.38-0.348-3.348,0,0,0,68,false,stim,true,2,1016.1999998092651,2,0,0,29097,task1,956377,false,false,1147,image-keyboard-response,35
true,9,1,2,2,false,d,false,false,0.0-2.0-0.38-0.349-3.349,0,0,0,90,false,stim,true,1,1323.2000000476837,2,0,2,29097,task1,959224,false,false,1150,image-keyboard-response,36
true,9,0,2,0,true,q,false,true,0.0-2.0-0.38-0.350-3.350,0,0,0,81,false,stim,false,2,374.7000000476837,2,0,1,29097,task1,961127,false,false,1153,image-keyboard-response,37
true,9,1,2,1,true,z,false,true,0.0-2.0-0.39-0.351-3.351,0,0,0,90,false,stim,false,2,355.09999990463257,2,0,0,29097,task1,963022,false,false,1156,image-keyboard-response,38
false,9,-1,2,2,false,d,true,false,0.0-2.0-0.39-0.352-3.352,0,0,0,,false,stim,false,1,,2,0,2,29097,task1,967561,false,false,1159,image-keyboard-response,39
true,9,0,2,2,false,d,true,false,0.0-2.0-0.39-0.353-3.353,0,0,0,81,false,stim,false,1,585.0,2,0,2,29097,task1,969677,false,false,1162,image-keyboard-response,40
true,9,1,2,1,true,z,false,true,0.0-2.0-0.39-0.354-3.354,0,0,0,90,false,stim,false,2,331.2000000476837,2,0,0,29097,task1,971542,false,false,1165,image-keyboard-response,41
true,9,0,2,0,true,q,false,true,0.0-2.0-0.39-0.355-3.355,0,0,0,81,false,stim,false,2,580.2999999523163,2,0,1,29097,task1,973644,false,false,1168,image-keyboard-response,42
true,10,1,1,1,true,z,false,true,0.0-2.0-0.39-0.356-3.356,0,0,0,90,true,stim,false,2,963.5,2,0,2,29097,task1,976144,false,false,1171,image-keyboard-response,1
true,10,1,1,2,false,d,true,true,0.0-2.0-0.39-0.357-3.357,0,0,0,90,false,stim,false,0,940.7999999523163,2,0,1,29097,task1,978627,false,true,1174,image-keyboard-response,2
true,10,0,1,0,true,q,false,true,0.0-2.0-0.39-0.358-3.358,0,0,0,81,false,stim,false,1,1088.9000000953674,2,0,0,29097,task1,981240,false,false,1177,image-keyboard-response,3
true,10,1,1,2,false,d,true,true,0.0-2.0-0.39-0.359-3.359,0,0,0,90,false,stim,false,0,655.4000000953674,2,0,1,29097,task1,983423,false,true,1180,image-keyboard-response,4
true,10,0,1,2,false,d,false,false,0.0-2.0-0.40-0.360-3.360,0,0,0,81,false,stim,true,0,717.7000000476837,2,0,1,29097,task1,985657,false,false,1183,image-keyboard-response,5
true,10,2,1,1,false,z,false,false,0.0-2.0-0.40-0.361-3.361,0,0,0,68,false,stim,true,2,735.0999999046326,2,0,2,29097,task1,987951,false,false,1186,image-keyboard-response,6
true,10,0,1,0,true,q,false,true,0.0-2.0-0.40-0.362-3.362,0,0,0,81,false,stim,false,1,770.2000000476837,2,0,0,29097,task1,990268,false,false,1189,image-keyboard-response,7
true,10,0,1,0,true,q,false,true,0.0-2.0-0.40-0.363-3.363,0,0,0,81,false,stim,false,1,735.2999999523163,2,0,0,29097,task1,992534,false,false,1192,image-keyboard-response,8
true,10,2,1,1,false,z,false,false,0.0-2.0-0.40-0.364-3.364,0,0,0,68,false,stim,true,2,924.7999999523163,2,0,2,29097,task1,994981,false,false,1195,image-keyboard-response,9
true,10,1,1,0,false,q,false,false,0.0-2.0-0.40-0.365-3.365,0,0,0,90,false,stim,true,1,353.39999985694885,2,0,0,29097,task1,996856,false,false,1198,image-keyboard-response,10
true,10,0,1,2,false,d,false,false,0.0-2.0-0.40-0.366-3.366,0,0,0,81,false,stim,true,0,466.7999999523163,2,0,1,29097,task1,998866,false,false,1201,image-keyboard-response,11
true,10,1,1,1,true,z,false,true,0.0-2.0-0.40-0.367-3.367,0,0,0,90,false,stim,false,2,721.3000001907349,2,0,2,29097,task1,1001110,false,false,1204,image-keyboard-response,12
true,10,1,1,2,false,d,true,false,0.0-2.0-0.40-0.368-3.368,0,0,0,90,false,stim,false,0,1152.3999998569489,2,0,1,29097,task1,1003787,false,false,1207,image-keyboard-response,13
true,10,1,1,2,false,d,true,false,0.0-2.0-0.41-0.369-3.369,0,0,0,90,false,stim,false,0,861.4000000953674,2,0,1,29097,task1,1006198,false,false,1210,image-keyboard-response,14
true,10,2,1,1,false,z,false,false,0.0-2.0-0.41-0.370-3.370,0,0,0,68,false,stim,true,2,743.4000000953674,2,0,2,29097,task1,1008491,false,false,1213,image-keyboard-response,15
true,10,1,1,2,false,d,true,false,0.0-2.0-0.41-0.371-3.371,0,0,0,90,false,stim,false,0,392.2000000476837,2,0,1,29097,task1,1010411,false,false,1216,image-keyboard-response,16
true,10,1,1,1,true,z,false,true,0.0-2.0-0.41-0.372-3.372,0,0,0,90,false,stim,false,2,533.5999999046326,2,0,2,29097,task1,1012466,false,false,1219,image-keyboard-response,17
true,10,0,1,0,true,q,false,true,0.0-2.0-0.41-0.373-3.373,0,0,0,81,false,stim,false,1,947.7000000476837,2,0,0,29097,task1,1014941,false,false,1222,image-keyboard-response,18
true,10,0,1,0,true,q,false,true,0.0-2.0-0.41-0.374-3.374,0,0,0,81,false,stim,false,1,1286.2000000476837,2,0,0,29097,task1,1017761,false,false,1225,image-keyboard-response,19
true,10,1,1,2,false,d,true,false,0.0-2.0-0.41-0.375-3.375,0,0,0,90,false,stim,false,0,1560.0999999046326,2,0,1,29097,task1,1020852,false,false,1228,image-keyboard-response,20
true,10,0,1,0,true,q,false,false,0.0-2.0-0.41-0.376-3.376,0,0,0,81,false,stim,false,1,484.5,2,0,0,29097,task1,1022858,false,true,1231,image-keyboard-response,21
true,10,2,1,1,false,z,false,false,0.0-2.0-0.41-0.377-3.377,0,0,0,68,false,stim,true,2,873.6999998092651,2,0,2,29097,task1,1025253,false,false,1234,image-keyboard-response,22
true,10,0,1,2,false,d,false,false,0.0-2.0-0.42-0.378-3.378,0,0,0,81,false,stim,true,0,1257.6000001430511,2,0,1,29097,task1,1028037,false,false,1237,image-keyboard-response,23
true,10,1,1,0,false,q,false,false,0.0-2.0-0.42-0.379-3.379,0,0,0,90,false,stim,true,1,628.9000000953674,2,0,0,29097,task1,1030194,false,false,1240,image-keyboard-response,24
true,10,0,1,1,false,z,true,true,0.0-2.0-0.42-0.380-3.380,0,0,0,81,false,stim,false,2,957.0,2,0,2,29097,task1,1032683,false,true,1243,image-keyboard-response,25
true,10,1,1,2,false,d,true,false,0.0-2.0-0.42-0.381-3.381,0,0,0,90,false,stim,false,0,1317.2999999523163,2,0,1,29097,task1,1035546,false,false,1246,image-keyboard-response,26
true,10,0,1,1,false,z,true,false,0.0-2.0-0.42-0.382-3.382,0,0,0,81,false,stim,false,2,32.10000014305115,2,0,2,29097,task1,1037108,false,false,1249,image-keyboard-response,27
true,10,2,1,1,false,z,false,false,0.0-2.0-0.42-0.383-3.383,0,0,0,68,false,stim,true,2,1605.9000000953674,2,0,2,29097,task1,1040251,false,false,1252,image-keyboard-response,28
true,10,0,1,2,false,d,false,false,0.0-2.0-0.42-0.384-3.384,0,0,0,81,false,stim,true,0,928.2999999523163,2,0,1,29097,task1,1042724,false,false,1255,image-keyboard-response,29
true,10,1,1,0,false,q,false,true,0.0-2.0-0.42-0.385-3.385,0,0,0,90,false,stim,true,1,348.69999980926514,2,0,0,29097,task1,1044603,false,true,1258,image-keyboard-response,30
true,10,0,1,0,true,q,false,true,0.0-2.0-0.42-0.386-3.386,0,0,0,81,false,stim,false,1,417.69999980926514,2,0,0,29097,task1,1046568,false,false,1261,image-keyboard-response,31
true,10,1,1,0,false,q,false,false,0.0-2.0-0.43-0.387-3.387,0,0,0,90,false,stim,true,1,1009.3000001907349,2,0,0,29097,task1,1049122,false,false,1264,image-keyboard-response,32
true,10,0,1,0,true,q,false,true,0.0-2.0-0.43-0.388-3.388,0,0,0,81,false,stim,false,1,667.7000000476837,2,0,0,29097,task1,1051319,false,false,1267,image-keyboard-response,33
true,10,0,1,1,false,z,true,false,0.0-2.0-0.43-0.389-3.389,0,0,0,81,false,stim,false,2,1490.2999999523163,2,0,2,29097,task1,1054333,false,false,1270,image-keyboard-response,34
true,10,1,1,1,true,z,false,true,0.0-2.0-0.43-0.390-3.390,0,0,0,90,false,stim,false,2,1500.6000001430511,2,0,2,29097,task1,1057366,false,false,1273,image-keyboard-response,35
true,10,2,1,2,true,d,false,true,0.0-2.0-0.43-0.391-3.391,0,0,0,68,false,stim,false,0,293.7999999523163,2,0,1,29097,task1,1059195,false,false,1276,image-keyboard-response,36
true,10,0,1,1,false,z,true,false,0.0-2.0-0.43-0.392-3.392,0,0,0,81,false,stim,false,2,304.2999999523163,2,0,2,29097,task1,1061027,false,false,1279,image-keyboard-response,37
true,10,1,1,2,false,d,true,false,0.0-2.0-0.43-0.393-3.393,0,0,0,90,false,stim,false,0,139.39999985694885,2,0,1,29097,task1,1062699,false,false,1282,image-keyboard-response,38
true,10,2,1,2,true,d,false,true,0.0-2.0-0.43-0.394-3.394,0,0,0,68,false,stim,false,0,225.09999990463257,2,0,1,29097,task1,1064455,false,false,1285,image-keyboard-response,39
true,10,1,1,0,false,q,false,false,0.0-2.0-0.43-0.395-3.395,0,0,0,90,false,stim,true,1,603.0,2,0,0,29097,task1,1066596,false,false,1288,image-keyboard-response,40
true,10,0,1,0,true,q,false,true,0.0-2.0-0.44-0.396-3.396,0,0,0,81,false,stim,false,1,2184.2000000476837,2,0,0,29097,task1,1070315,false,false,1291,image-keyboard-response,41
true,11,2,2,2,true,d,false,true,0.0-2.0-0.44-0.397-3.397,0,0,0,68,true,stim,false,1,2159.7000000476837,2,0,2,29097,task1,1074010,false,false,1294,image-keyboard-response,1
true,11,0,2,0,true,q,false,true,0.0-2.0-0.44-0.398-3.398,0,0,0,81,false,stim,false,2,1300.5999999046326,2,0,1,29097,task1,1076843,false,false,1297,image-keyboard-response,2
true,11,2,2,2,true,d,false,true,0.0-2.0-0.44-0.399-3.399,0,0,0,68,false,stim,false,1,1941.2999999523163,2,0,2,29097,task1,1080319,false,false,1300,image-keyboard-response,3
true,11,1,2,0,false,q,true,false,0.0-2.0-0.44-0.400-3.400,0,0,0,90,false,stim,false,2,1751.0,2,0,1,29097,task1,1083622,false,false,1303,image-keyboard-response,4
true,11,1,2,1,true,z,false,true,0.0-2.0-0.44-0.401-3.401,0,0,0,90,false,stim,false,0,1880.1000001430511,2,0,0,29097,task1,1087032,false,false,1306,image-keyboard-response,5
true,11,0,2,2,false,d,true,false,0.0-2.0-0.44-0.402-3.402,0,0,0,81,false,stim,false,1,1013.1000001430511,2,0,2,29097,task1,1089584,false,false,1309,image-keyboard-response,6
true,11,1,2,0,false,q,true,false,0.0-2.0-0.44-0.403-3.403,0,0,0,90,false,stim,false,2,399.2999999523163,2,0,1,29097,task1,1091514,false,false,1312,image-keyboard-response,7
true,11,1,2,1,true,z,false,true,0.0-2.0-0.44-0.404-3.404,0,0,0,90,false,stim,false,0,751.6000001430511,2,0,0,29097,task1,1093800,false,false,1315,image-keyboard-response,8
true,11,2,2,2,true,d,false,true,0.0-2.0-0.45-0.405-3.405,0,0,0,68,false,stim,false,1,446.09999990463257,2,0,2,29097,task1,1095783,false,false,1318,image-keyboard-response,9
true,11,0,2,0,true,q,false,true,0.0-2.0-0.45-0.406-3.406,0,0,0,81,false,stim,false,2,503.2000000476837,2,0,1,29097,task1,1097813,false,false,1321,image-keyboard-response,10
true,11,1,2,1,true,z,false,true,0.0-2.0-0.45-0.407-3.407,0,0,0,90,false,stim,false,0,944.6999998092651,2,0,0,29097,task1,1100278,false,false,1324,image-keyboard-response,11
true,11,0,2,0,true,q,false,false,0.0-2.0-0.45-0.408-3.408,0,0,0,81,false,stim,false,2,340.7000000476837,2,0,1,29097,task1,1102146,false,true,1327,image-keyboard-response,12
true,11,1,2,2,false,d,false,true,0.0-2.0-0.45-0.409-3.409,0,0,0,90,false,stim,true,1,424.0,2,0,2,29097,task1,1104102,false,true,1330,image-keyboard-response,13
true,11,2,2,0,false,q,false,false,0.0-2.0-0.45-0.410-3.410,0,0,0,68,false,stim,true,2,1412.9000000953674,2,0,1,29097,task1,1107048,false,false,1333,image-keyboard-response,14
true,11,1,2,1,true,z,false,true,0.0-2.0-0.45-0.411-3.411,0,0,0,90,false,stim,false,0,118.90000009536743,2,0,0,29097,task1,1108703,false,false,1336,image-keyboard-response,15
true,11,0,2,2,false,d,true,false,0.0-2.0-0.45-0.412-3.412,0,0,0,81,false,stim,false,1,917.2999999523163,2,0,2,29097,task1,1111151,false,false,1339,image-keyboard-response,16
true,11,1,2,1,true,z,false,false,0.0-2.0-0.45-0.413-3.413,0,0,0,90,false,stim,false,0,324.7999999523163,2,0,0,29097,task1,1113016,false,true,1342,image-keyboard-response,17
true,11,2,2,0,false,q,false,false,0.0-2.0-0.46-0.414-3.414,0,0,0,68,false,stim,true,2,556.3999998569489,2,0,1,29097,task1,1115110,false,false,1345,image-keyboard-response,18
true,11,1,2,0,false,q,true,false,0.0-2.0-0.46-0.415-3.415,0,0,0,90,false,stim,false,2,1202.5999999046326,2,0,1,29097,task1,1117831,false,false,1348,image-keyboard-response,19
true,11,0,2,2,false,d,true,false,0.0-2.0-0.46-0.416-3.416,0,0,0,81,false,stim,false,1,1888.7000000476837,2,0,2,29097,task1,1121251,false,false,1351,image-keyboard-response,20
true,11,0,2,1,false,z,false,false,0.0-2.0-0.46-0.417-3.417,0,0,0,81,false,stim,true,0,497.59999990463257,2,0,0,29097,task1,1123287,false,false,1354,image-keyboard-response,21
true,11,0,2,2,false,d,true,false,0.0-2.0-0.46-0.418-3.418,0,0,0,81,false,stim,false,1,499.7000000476837,2,0,2,29097,task1,1125306,false,false,1357,image-keyboard-response,22
true,11,0,2,1,false,z,false,false,0.0-2.0-0.46-0.419-3.419,0,0,0,81,false,stim,true,0,603.5999999046326,2,0,0,29097,task1,1127437,false,false,1360,image-keyboard-response,23
true,11,1,2,1,true,z,false,true,0.0-2.0-0.46-0.420-3.420,0,0,0,90,false,stim,false,0,1226.7999999523163,2,0,0,29097,task1,1130196,false,false,1363,image-keyboard-response,24
true,11,2,2,2,true,d,false,true,0.0-2.0-0.46-0.421-3.421,0,0,0,68,false,stim,false,1,1452.6000001430511,2,0,2,29097,task1,1133176,false,false,1366,image-keyboard-response,25
true,11,0,2,0,true,q,false,true,0.0-2.0-0.46-0.422-3.422,0,0,0,81,false,stim,false,2,374.19999980926514,2,0,1,29097,task1,1135083,false,false,1369,image-keyboard-response,26
true,11,2,2,0,false,q,false,true,0.0-2.0-0.47-0.423-3.423,0,0,0,68,false,stim,true,2,349.2999999523163,2,0,1,29097,task1,1136956,false,true,1372,image-keyboard-response,27
true,11,1,2,1,true,z,false,true,0.0-2.0-0.47-0.424-3.424,0,0,0,90,false,stim,false,0,421.0,2,0,0,29097,task1,1138908,false,false,1375,image-keyboard-response,28
true,11,0,2,2,false,d,true,false,0.0-2.0-0.47-0.425-3.425,0,0,0,81,false,stim,false,1,1160.9000000953674,2,0,2,29097,task1,1141591,false,false,1378,image-keyboard-response,29
true,11,1,2,1,true,z,false,true,0.0-2.0-0.47-0.426-3.426,0,0,0,90,false,stim,false,0,797.6000001430511,2,0,0,29097,task1,1143912,false,false,1381,image-keyboard-response,30
true,11,0,2,2,false,d,true,false,0.0-2.0-0.47-0.427-3.427,0,0,0,81,false,stim,false,1,1277.3000001907349,2,0,2,29097,task1,1146755,false,false,1384,image-keyboard-response,31
true,11,2,2,0,false,q,false,false,0.0-2.0-0.47-0.428-3.428,0,0,0,68,false,stim,true,2,927.0,2,0,1,29097,task1,1149210,false,false,1387,image-keyboard-response,32
true,11,1,2,1,true,z,false,true,0.0-2.0-0.47-0.429-3.429,0,0,0,90,false,stim,false,0,1968.7999999523163,2,0,0,29097,task1,1152708,false,false,1390,image-keyboard-response,33
true,11,2,2,2,true,d,false,true,0.0-2.0-0.47-0.430-3.430,0,0,0,68,false,stim,false,1,1148.1999998092651,2,0,2,29097,task1,1155381,false,false,1393,image-keyboard-response,34
true,11,1,2,0,false,q,true,false,0.0-2.0-0.47-0.431-3.431,0,0,0,90,false,stim,false,2,265.7000000476837,2,0,1,29097,task1,1157182,false,false,1396,image-keyboard-response,35
true,11,2,2,2,true,d,false,true,0.0-2.0-0.48-0.432-3.432,0,0,0,68,false,stim,false,1,307.19999980926514,2,0,2,29097,task1,1159006,false,false,1399,image-keyboard-response,36
true,11,1,2,1,true,z,false,true,0.0-2.0-0.48-0.433-3.433,0,0,0,90,false,stim,false,0,990.0,2,0,0,29097,task1,1161563,false,false,1402,image-keyboard-response,37
true,11,1,2,1,true,z,false,true,0.0-2.0-0.48-0.434-3.434,0,0,0,90,false,stim,false,0,121.5,2,0,0,29097,task1,1163212,false,false,1405,image-keyboard-response,38
true,11,2,2,0,false,q,false,false,0.0-2.0-0.48-0.435-3.435,0,0,0,68,false,stim,true,2,698.2999999523163,2,0,1,29097,task1,1165452,false,false,1408,image-keyboard-response,39
true,11,1,2,0,false,q,true,false,0.0-2.0-0.48-0.436-3.436,0,0,0,90,false,stim,false,2,1068.0999999046326,2,0,1,29097,task1,1168047,false,false,1411,image-keyboard-response,40
true,11,0,2,1,false,z,false,false,0.0-2.0-0.48-0.437-3.437,0,0,0,81,false,stim,true,0,241.5,2,0,0,29097,task1,1169817,false,false,1414,image-keyboard-response,41
true,11,1,2,2,false,d,false,false,0.0-2.0-0.48-0.438-3.438,0,0,0,90,false,stim,true,1,386.2000000476837,2,0,2,29097,task1,1171738,false,false,1417,image-keyboard-response,42
true,12,2,1,2,true,d,false,true,0.0-2.0-0.48-0.439-3.439,0,0,0,68,true,stim,false,0,1100.0,2,0,1,29097,task1,1174366,false,false,1420,image-keyboard-response,1
true,12,2,1,0,false,q,false,false,0.0-2.0-0.48-0.440-3.440,0,0,0,68,false,stim,true,2,1166.9000000953674,2,0,2,29097,task1,1177066,false,false,1423,image-keyboard-response,2
true,12,1,1,2,false,d,true,false,0.0-2.0-0.49-0.441-3.441,0,0,0,90,false,stim,false,0,2519.5999999046326,2,0,1,29097,task1,1181111,false,false,1426,image-keyboard-response,3
true,12,2,1,2,true,d,false,true,0.0-2.0-0.49-0.442-3.442,0,0,0,68,false,stim,false,0,533.2000000476837,2,0,1,29097,task1,1183177,false,false,1429,image-keyboard-response,4
true,12,0,1,2,false,d,true,false,0.0-2.0-0.49-0.443-3.443,0,0,0,81,false,stim,false,1,515.1999998092651,2,0,0,29097,task1,1185224,false,false,1432,image-keyboard-response,5
true,12,1,1,0,false,q,true,true,0.0-2.0-0.49-0.444-3.444,0,0,0,90,false,stim,false,2,2183.300000190735,2,0,2,29097,task1,1188933,false,true,1435,image-keyboard-response,6
true,12,0,1,2,false,d,true,false,0.0-2.0-0.49-0.445-3.445,0,0,0,81,false,stim,false,1,2575.2999999523163,2,0,0,29097,task1,1193074,false,false,1438,image-keyboard-response,7
true,12,2,1,2,true,d,false,true,0.0-2.0-0.49-0.446-3.446,0,0,0,68,false,stim,false,0,388.59999990463257,2,0,1,29097,task1,1194994,false,false,1441,image-keyboard-response,8
true,12,1,1,0,false,q,true,false,0.0-2.0-0.49-0.447-3.447,0,0,0,90,false,stim,false,2,318.5,2,0,2,29097,task1,1196840,false,false,1444,image-keyboard-response,9
true,12,2,1,2,true,d,false,true,0.0-2.0-0.49-0.448-3.448,0,0,0,68,false,stim,false,1,536.0,2,0,0,29097,task1,1198907,false,false,1447,image-keyboard-response,10
true,12,2,1,0,false,q,false,false,0.0-2.0-0.49-0.449-3.449,0,0,0,68,false,stim,true,2,240.29999995231628,2,0,2,29097,task1,1200669,false,false,1450,image-keyboard-response,11
true,12,0,1,2,false,d,true,false,0.0-2.0-0.50-0.450-3.450,0,0,0,81,false,stim,false,1,1586.6000001430511,2,0,0,29097,task1,1203786,false,false,1453,image-keyboard-response,12
true,12,0,1,0,true,q,false,true,0.0-2.0-0.50-0.451-3.451,0,0,0,81,false,stim,false,2,465.09999990463257,2,0,2,29097,task1,1205824,false,false,1456,image-keyboard-response,13
true,12,2,1,0,false,q,false,false,0.0-2.0-0.50-0.452-3.452,0,0,0,68,false,stim,true,2,768.2000000476837,2,0,2,29097,task1,1208130,false,false,1459,image-keyboard-response,14
true,12,0,1,2,false,d,true,false,0.0-2.0-0.50-0.453-3.453,0,0,0,81,false,stim,false,1,1178.5,2,0,0,29097,task1,1210832,false,false,1462,image-keyboard-response,15
true,12,1,1,2,false,d,true,false,0.0-2.0-0.50-0.454-3.454,0,0,0,90,false,stim,false,0,277.7999999523163,2,0,1,29097,task1,1212641,false,false,1465,image-keyboard-response,16
true,12,0,1,2,false,d,true,false,0.0-2.0-0.50-0.455-3.455,0,0,0,81,false,stim,false,1,1393.2999999523163,2,0,0,29097,task1,1215550,false,false,1468,image-keyboard-response,17
true,12,2,1,2,true,d,false,false,0.0-2.0-0.50-0.456-3.456,0,0,0,68,false,stim,false,0,868.5,2,0,1,29097,task1,1217947,false,true,1471,image-keyboard-response,18
true,12,0,1,2,false,d,false,false,0.0-2.0-0.50-0.457-3.457,0,0,0,81,false,stim,true,0,1245.4000000953674,2,0,1,29097,task1,1220712,false,false,1474,image-keyboard-response,19
true,12,0,1,0,true,q,false,true,0.0-2.0-0.50-0.458-3.458,0,0,0,81,false,stim,false,2,1832.0999999046326,2,0,2,29097,task1,1224064,false,false,1477,image-keyboard-response,20
true,12,2,1,0,false,q,false,false,0.0-2.0-0.51-0.459-3.459,0,0,0,68,false,stim,true,2,710.3000001907349,2,0,2,29097,task1,1226304,false,false,1480,image-keyboard-response,21
true,12,0,1,0,true,q,false,true,0.0-2.0-0.51-0.460-3.460,0,0,0,81,false,stim,false,2,595.0999999046326,2,0,2,29097,task1,1228417,false,false,1483,image-keyboard-response,22
true,12,1,1,2,false,d,true,false,0.0-2.0-0.51-0.461-3.461,0,0,0,90,false,stim,false,0,1801.2000000476837,2,0,1,29097,task1,1231744,false,false,1486,image-keyboard-response,23
true,12,0,1,2,false,d,true,true,0.0-2.0-0.51-0.462-3.462,0,0,0,81,false,stim,false,1,115.40000009536743,2,0,0,29097,task1,1233389,false,true,1489,image-keyboard-response,24
true,12,2,1,2,true,d,false,true,0.0-2.0-0.51-0.463-3.463,0,0,0,68,false,stim,false,1,263.59999990463257,2,0,0,29097,task1,1235191,false,false,1492,image-keyboard-response,25
true,12,2,1,2,true,d,false,false,0.0-2.0-0.51-0.464-3.464,0,0,0,68,false,stim,false,0,236.20000004768372,2,0,1,29097,task1,1236971,false,true,1495,image-keyboard-response,26
true,12,1,1,2,false,d,false,false,0.0-2.0-0.51-0.465-3.465,0,0,0,90,false,stim,true,1,297.09999990463257,2,0,0,29097,task1,1238803,false,false,1498,image-keyboard-response,27
true,12,0,1,0,true,q,false,true,0.0-2.0-0.51-0.466-3.466,0,0,0,81,false,stim,false,2,409.0,2,0,2,29097,task1,1240748,false,false,1501,image-keyboard-response,28
true,12,0,1,2,false,d,false,false,0.0-2.0-0.51-0.467-3.467,0,0,0,81,false,stim,true,0,1326.0999999046326,2,0,1,29097,task1,1243600,false,false,1504,image-keyboard-response,29
true,12,1,1,2,false,d,true,true,0.0-2.0-0.52-0.468-3.468,0,0,0,90,false,stim,false,0,460.5,2,0,1,29097,task1,1245596,false,true,1507,image-keyboard-response,30
true,12,0,1,2,false,d,true,false,0.0-2.0-0.52-0.469-3.469,0,0,0,81,false,stim,false,1,460.59999990463257,2,0,0,29097,task1,1247583,false,false,1510,image-keyboard-response,31
true,12,2,1,2,true,d,false,true,0.0-2.0-0.52-0.470-3.470,0,0,0,68,false,stim,false,1,879.0999999046326,2,0,0,29097,task1,1249997,false,false,1513,image-keyboard-response,32
true,12,0,1,0,true,q,false,true,0.0-2.0-0.52-0.471-3.471,0,0,0,81,false,stim,false,2,933.0999999046326,2,0,2,29097,task1,1252461,false,false,1516,image-keyboard-response,33
true,12,0,1,2,false,d,false,false,0.0-2.0-0.52-0.472-3.472,0,0,0,81,false,stim,true,0,1259.5999999046326,2,0,1,29097,task1,1255266,false,false,1519,image-keyboard-response,34
true,12,2,1,0,false,q,false,false,0.0-2.0-0.52-0.473-3.473,0,0,0,68,false,stim,true,2,1122.5,2,0,2,29097,task1,1257917,false,false,1522,image-keyboard-response,35
true,12,1,1,2,false,d,false,false,0.0-2.0-0.52-0.474-3.474,0,0,0,90,false,stim,true,1,645.4000000953674,2,0,0,29097,task1,1260095,false,false,1525,image-keyboard-response,36
true,12,0,1,0,true,q,false,true,0.0-2.0-0.52-0.475-3.475,0,0,0,81,false,stim,false,2,1792.7000000476837,2,0,2,29097,task1,1263419,false,false,1528,image-keyboard-response,37
true,12,0,1,2,false,d,false,false,0.0-2.0-0.52-0.476-3.476,0,0,0,81,false,stim,true,0,603.5,2,0,1,29097,task1,1265547,false,false,1531,image-keyboard-response,38
true,12,2,1,2,true,d,false,true,0.0-2.0-0.53-0.477-3.477,0,0,0,68,false,stim,false,1,24.0,2,0,0,29097,task1,1267094,false,false,1534,image-keyboard-response,39
true,12,1,1,0,false,q,true,false,0.0-2.0-0.53-0.478-3.478,0,0,0,90,false,stim,false,2,239.40000009536743,2,0,2,29097,task1,1268863,false,false,1537,image-keyboard-response,40
true,13,0,1,0,true,q,false,false,0.0-2.0-0.53-0.479-3.479,0,0,0,81,true,stim,false,2,1890.6000001430511,2,0,0,29097,task1,1272288,false,true,1540,image-keyboard-response,1
true,13,2,1,1,false,z,true,false,0.0-2.0-0.53-0.480-3.480,0,0,0,68,false,stim,false,0,1662.0999999046326,2,0,2,29097,task1,1275485,false,false,1543,image-keyboard-response,2
true,13,1,1,1,true,z,false,true,0.0-2.0-0.53-0.481-3.481,0,0,0,90,false,stim,false,0,1441.3999998569489,2,0,2,29097,task1,1278458,false,false,1546,image-keyboard-response,3
true,13,0,1,0,true,q,false,true,0.0-2.0-0.53-0.482-3.482,0,0,0,81,false,stim,false,2,2089.9000000953674,2,0,0,29097,task1,1282074,false,false,1549,image-keyboard-response,4
true,13,2,1,0,false,q,false,false,0.0-2.0-0.53-0.483-3.483,0,0,0,68,false,stim,true,2,953.0,2,0,1,29097,task1,1284563,false,false,1552,image-keyboard-response,5
true,13,0,1,0,true,q,false,true,0.0-2.0-0.53-0.484-3.484,0,0,0,81,false,stim,false,2,912.5,2,0,1,29097,task1,1287013,false,false,1555,image-keyboard-response,6
true,13,0,1,0,true,q,false,true,0.0-2.0-0.53-0.485-3.485,0,0,0,81,false,stim,false,2,1158.5,2,0,1,29097,task1,1289703,false,false,1558,image-keyboard-response,7
true,13,2,1,0,false,q,false,false,0.0-2.0-0.54-0.486-3.486,0,0,0,68,false,stim,true,2,673.7000000476837,2,0,1,29097,task1,1291917,false,false,1561,image-keyboard-response,8
true,13,0,1,1,false,z,false,false,0.0-2.0-0.54-0.487-3.487,0,0,0,81,false,stim,true,0,520.7000000476837,2,0,2,29097,task1,1293983,false,false,1564,image-keyboard-response,9
true,13,0,1,0,true,q,false,true,0.0-2.0-0.54-0.488-3.488,0,0,0,81,false,stim,false,2,43.89999985694885,2,0,0,29097,task1,1295577,false,false,1567,image-keyboard-response,10
true,13,2,1,0,false,q,false,false,0.0-2.0-0.54-0.489-3.489,0,0,0,68,false,stim,true,2,2409.300000190735,2,0,1,29097,task1,1299528,false,false,1570,image-keyboard-response,11
true,13,0,1,1,false,z,false,false,0.0-2.0-0.54-0.490-3.490,0,0,0,81,false,stim,true,0,422.80000019073486,2,0,2,29097,task1,1301477,false,false,1573,image-keyboard-response,12
true,13,2,1,0,false,q,false,false,0.0-2.0-0.54-0.491-3.491,0,0,0,68,false,stim,true,2,762.8999998569489,2,0,1,29097,task1,1303761,false,false,1576,image-keyboard-response,13
true,13,1,1,1,true,z,false,true,0.0-2.0-0.54-0.492-3.492,0,0,0,90,false,stim,false,0,974.5,2,0,2,29097,task1,1306260,false,false,1579,image-keyboard-response,14
false,13,-1,1,0,false,q,true,true,0.0-2.0-0.54-0.493-3.493,0,0,0,,false,stim,false,2,,2,0,0,29097,task1,1310794,false,true,1582,image-keyboard-response,15
true,13,2,1,0,false,q,false,false,0.0-2.0-0.54-0.494-3.494,0,0,0,68,false,stim,true,2,508.89999985694885,2,0,0,29097,task1,1312834,false,false,1585,image-keyboard-response,16
true,13,1,1,1,true,z,false,true,0.0-2.0-0.55-0.495-3.495,0,0,0,90,false,stim,false,0,94.0,2,0,2,29097,task1,1314451,false,false,1588,image-keyboard-response,17
true,13,1,1,0,false,q,true,false,0.0-2.0-0.55-0.496-3.496,0,0,0,90,false,stim,false,2,166.90000009536743,2,0,1,29097,task1,1316142,false,false,1591,image-keyboard-response,18
true,13,1,1,1,true,z,false,true,0.0-2.0-0.55-0.497-3.497,0,0,0,90,false,stim,false,0,229.70000004768372,2,0,2,29097,task1,1317904,false,false,1594,image-keyboard-response,19
true,13,0,1,0,true,q,false,true,0.0-2.0-0.55-0.498-3.498,0,0,0,81,false,stim,false,2,2587.7000000476837,2,0,0,29097,task1,1322012,false,false,1597,image-keyboard-response,20
true,13,1,1,0,false,q,true,false,0.0-2.0-0.55-0.499-3.499,0,0,0,90,false,stim,false,2,1946.2000000476837,2,0,0,29097,task1,1325490,false,false,1600,image-keyboard-response,21
true,13,0,1,0,true,q,false,true,0.0-2.0-0.55-0.500-3.500,0,0,0,81,false,stim,false,2,1155.0,2,0,0,29097,task1,1328191,false,false,1603,image-keyboard-response,22
true,13,0,1,1,false,z,false,false,0.0-2.0-0.55-0.501-3.501,0,0,0,81,false,stim,true,0,542.2000000476837,2,0,2,29097,task1,1330260,false,false,1606,image-keyboard-response,23
true,13,1,1,0,false,q,true,true,0.0-2.0-0.55-0.502-3.502,0,0,0,90,false,stim,false,2,268.40000009536743,2,0,1,29097,task1,1332053,false,true,1609,image-keyboard-response,24
false,13,-1,1,0,false,q,true,true,0.0-2.0-0.55-0.503-3.503,0,0,0,,false,stim,false,2,,2,0,1,29097,task1,1336582,false,true,1612,image-keyboard-response,25
true,13,1,1,0,false,q,true,false,0.0-2.0-0.56-0.504-3.504,0,0,0,90,false,stim,false,2,1759.0,2,0,1,29097,task1,1339874,false,false,1615,image-keyboard-response,26
true,13,1,1,0,false,q,true,true,0.0-2.0-0.56-0.505-3.505,0,0,0,90,false,stim,false,2,1085.5,2,0,1,29097,task1,1342491,false,true,1618,image-keyboard-response,27
true,13,1,1,1,true,z,false,true,0.0-2.0-0.56-0.506-3.506,0,0,0,90,false,stim,false,0,246.89999985694885,2,0,2,29097,task1,1344284,false,false,1621,image-keyboard-response,28
true,13,0,1,1,false,z,false,false,0.0-2.0-0.56-0.507-3.507,0,0,0,81,false,stim,true,0,177.70000004768372,2,0,2,29097,task1,1345992,false,false,1624,image-keyboard-response,29
true,13,1,1,0,false,q,true,false,0.0-2.0-0.56-0.508-3.508,0,0,0,90,false,stim,false,2,223.29999995231628,2,0,0,29097,task1,1347744,false,false,1627,image-keyboard-response,30
true,13,2,1,0,false,q,false,true,0.0-2.0-0.56-0.509-3.509,0,0,0,68,false,stim,true,2,296.5,2,0,0,29097,task1,1349563,false,true,1630,image-keyboard-response,31
true,13,2,1,0,false,q,false,false,0.0-2.0-0.56-0.510-3.510,0,0,0,68,false,stim,true,2,279.40000009536743,2,0,1,29097,task1,1351371,false,false,1633,image-keyboard-response,32
true,13,1,1,1,true,z,false,true,0.0-2.0-0.56-0.511-3.511,0,0,0,90,false,stim,false,0,162.79999995231628,2,0,2,29097,task1,1353058,false,false,1636,image-keyboard-response,33
true,13,1,1,0,false,q,true,false,0.0-2.0-0.56-0.512-3.512,0,0,0,90,false,stim,false,2,866.5,2,0,0,29097,task1,1355461,false,false,1639,image-keyboard-response,34
true,13,0,1,1,false,z,false,false,0.0-2.0-0.57-0.513-3.513,0,0,0,81,false,stim,true,0,250.79999995231628,2,0,2,29097,task1,1357249,false,false,1642,image-keyboard-response,35
true,13,2,1,0,false,q,false,false,0.0-2.0-0.57-0.514-3.514,0,0,0,68,false,stim,true,2,770.7999999523163,2,0,1,29097,task1,1359552,false,false,1645,image-keyboard-response,36
true,13,1,1,0,false,q,true,false,0.0-2.0-0.57-0.515-3.515,0,0,0,90,false,stim,false,2,306.89999985694885,2,0,0,29097,task1,1361390,false,false,1648,image-keyboard-response,37
true,13,0,1,0,true,q,false,true,0.0-2.0-0.57-0.516-3.516,0,0,0,81,false,stim,false,2,258.7000000476837,2,0,1,29097,task1,1363196,false,false,1651,image-keyboard-response,38
true,13,0,1,1,false,z,false,false,0.0-2.0-0.57-0.517-3.517,0,0,0,81,false,stim,true,0,288.30000019073486,2,1,2,29097,task1,1365013,false,false,1654,image-keyboard-response,39
true,13,2,1,1,false,z,true,false,0.0-2.0-0.57-0.518-3.518,0,0,0,68,false,stim,false,0,234.70000004768372,2,1,2,29097,task1,1366786,false,false,1657,image-keyboard-response,40
true,13,1,1,0,false,q,true,true,0.0-2.0-0.57-0.519-3.519,0,0,0,90,false,stim,false,2,41.90000009536743,2,1,0,29097,task1,1368354,false,true,1660,image-keyboard-response,41
true,13,1,1,0,false,q,true,false,0.0-2.0-0.57-0.520-3.520,0,0,0,90,false,stim,false,2,395.59999990463257,2,1,0,29097,task1,1370279,false,false,1663,image-keyboard-response,42
true,13,1,1,0,false,q,true,false,0.0-2.0-0.57-0.521-3.521,0,0,0,90,false,stim,false,2,480.2000000476837,2,1,1,29097,task1,1372286,false,false,1666,image-keyboard-response,43
true,14,2,0,0,false,q,true,false,0.0-2.0-0.58-0.522-3.522,1,1,1,68,true,stim,false,0,1789.5,2,1,0,29097,task1,1497068,false,false,1789,image-keyboard-response,1
true,14,0,0,1,false,z,true,false,0.0-2.0-0.58-0.523-3.523,1,1,1,81,false,stim,false,1,1609.9000000953674,2,1,2,29097,task1,1500204,false,false,1792,image-keyboard-response,2
true,14,1,0,0,false,q,true,false,0.0-2.0-0.58-0.524-3.524,1,1,1,90,false,stim,false,0,244.0,2,1,1,29097,task1,1501973,false,false,1795,image-keyboard-response,3
true,14,2,0,1,false,z,true,false,0.0-2.0-0.58-0.525-3.525,1,1,1,68,false,stim,false,1,1331.9000000953674,2,1,2,29097,task1,1504834,false,false,1798,image-keyboard-response,4
true,14,1,0,0,false,q,true,false,0.0-2.0-0.58-0.526-3.526,1,1,1,90,false,stim,false,0,383.40000009536743,2,1,1,29097,task1,1506766,false,false,1801,image-keyboard-response,5
true,14,2,0,0,false,q,true,false,0.0-2.0-0.58-0.527-3.527,1,1,1,68,false,stim,false,0,300.80000019073486,2,1,1,29097,task1,1508586,false,false,1804,image-keyboard-response,6
true,14,2,0,0,false,q,true,false,0.0-2.0-0.58-0.528-3.528,1,1,1,68,false,stim,false,0,1160.0,2,1,0,29097,task1,1511267,false,false,1807,image-keyboard-response,7
true,14,2,0,1,false,z,true,false,0.0-2.0-0.58-0.529-3.529,1,1,1,68,false,stim,false,1,1033.0999999046326,2,1,2,29097,task1,1513818,false,false,1810,image-keyboard-response,8
true,14,2,0,0,false,q,true,false,0.0-2.0-0.58-0.530-3.530,1,1,1,68,false,stim,false,0,2824.2999999523163,2,0,0,29097,task1,1518156,false,false,1813,image-keyboard-response,9
true,14,0,0,0,true,q,false,true,0.0-2.0-0.59-0.531-3.531,1,1,1,81,false,stim,false,0,278.7000000476837,2,0,0,29097,task1,1519969,false,false,1816,image-keyboard-response,10
true,14,2,0,0,false,q,true,false,0.0-2.0-0.59-0.532-3.532,1,1,1,68,false,stim,false,0,2398.2000000476837,2,0,1,29097,task1,1523900,false,false,1819,image-keyboard-response,11
false,14,-1,0,0,false,q,true,false,0.0-2.0-0.59-0.533-3.533,1,1,1,,false,stim,false,0,,2,0,0,29097,task1,1528445,false,false,1822,image-keyboard-response,12
true,14,0,0,0,true,q,false,true,0.0-2.0-0.59-0.534-3.534,1,1,1,81,false,stim,false,0,226.59999990463257,2,0,1,29097,task1,1530203,false,false,1825,image-keyboard-response,13
true,15,1,1,1,true,z,false,false,0.0-2.0-0.59-0.535-3.535,0,0,0,90,true,stim,false,0,1489.1000001430511,2,0,1,29097,task1,1533223,false,true,1828,image-keyboard-response,1
true,15,1,1,0,false,q,false,false,0.0-2.0-0.59-0.536-3.536,0,0,0,90,false,stim,true,1,953.5999999046326,2,0,2,29097,task1,1535708,false,false,1831,image-keyboard-response,2
true,15,2,1,0,false,q,true,false,0.0-2.0-0.59-0.537-3.537,0,0,0,68,false,stim,false,1,416.5,2,0,2,29097,task1,1537654,false,false,1834,image-keyboard-response,3
true,15,2,1,2,true,d,false,true,0.0-2.0-0.59-0.538-3.538,0,0,0,68,false,stim,false,0,627.8000001907349,2,0,0,29097,task1,1539809,false,false,1837,image-keyboard-response,4
true,15,0,1,0,true,q,false,true,0.0-2.0-0.59-0.539-3.539,0,0,0,81,false,stim,false,1,0.0,2,0,2,29097,task1,1541341,false,false,1840,image-keyboard-response,5
true,15,2,1,2,true,d,false,true,0.0-2.0-0.60-0.540-3.540,0,0,0,68,false,stim,false,0,919.1000001430511,2,0,0,29097,task1,1543784,false,false,1843,image-keyboard-response,6
true,15,1,1,0,false,q,false,false,0.0-2.0-0.60-0.541-3.541,0,0,0,90,false,stim,true,1,672.9000000953674,2,0,2,29097,task1,1545986,false,false,1846,image-keyboard-response,7
true,15,0,1,1,false,z,false,false,0.0-2.0-0.60-0.542-3.542,0,0,0,81,false,stim,true,0,761.5,2,0,1,29097,task1,1548277,false,false,1849,image-keyboard-response,8
true,15,2,1,0,false,q,true,false,0.0-2.0-0.60-0.543-3.543,0,0,0,68,false,stim,false,1,286.90000009536743,2,0,2,29097,task1,1550090,false,false,1852,image-keyboard-response,9
true,15,2,1,0,false,q,true,false,0.0-2.0-0.60-0.544-3.544,0,0,0,68,false,stim,false,1,1921.4000000953674,2,0,2,29097,task1,1553534,false,false,1855,image-keyboard-response,10
true,15,0,1,1,false,z,false,false,0.0-2.0-0.60-0.545-3.545,0,0,0,81,false,stim,true,0,1584.7999999523163,2,0,1,29097,task1,1556657,false,false,1858,image-keyboard-response,11
true,15,2,1,1,false,z,true,false,0.0-2.0-0.60-0.546-3.546,0,0,0,68,false,stim,false,0,180.90000009536743,2,0,1,29097,task1,1558362,false,false,1861,image-keyboard-response,12
true,15,1,1,2,false,d,true,false,0.0-2.0-0.60-0.547-3.547,0,0,0,90,false,stim,false,0,406.0,2,0,0,29097,task1,1560299,false,false,1864,image-keyboard-response,13
true,15,2,1,2,true,d,false,true,0.0-2.0-0.60-0.548-3.548,0,0,0,68,false,stim,false,0,290.10000014305115,2,0,0,29097,task1,1562114,false,false,1867,image-keyboard-response,14
true,15,2,1,0,false,q,true,false,0.0-2.0-0.61-0.549-3.549,0,0,0,68,false,stim,false,1,666.7999999523163,2,0,2,29097,task1,1564302,false,false,1870,image-keyboard-response,15
true,15,0,1,2,false,d,false,false,0.0-2.0-0.61-0.550-3.550,0,0,0,81,false,stim,true,0,1864.1999998092651,2,0,0,29097,task1,1567697,false,false,1873,image-keyboard-response,16
true,15,2,1,0,false,q,true,false,0.0-2.0-0.61-0.551-3.551,0,0,0,68,false,stim,false,1,1719.3000001907349,2,0,2,29097,task1,1570937,false,false,1876,image-keyboard-response,17
true,15,1,1,2,false,d,true,false,0.0-2.0-0.61-0.552-3.552,0,0,0,90,false,stim,false,0,2233.399999856949,2,0,0,29097,task1,1574704,false,false,1879,image-keyboard-response,18
true,15,2,1,1,false,z,true,false,0.0-2.0-0.61-0.553-3.553,0,0,0,68,false,stim,false,0,830.4000000953674,2,0,1,29097,task1,1577071,false,false,1882,image-keyboard-response,19
true,15,0,1,1,false,z,false,false,0.0-2.0-0.61-0.554-3.554,0,0,0,81,false,stim,true,0,220.89999985694885,2,0,1,29097,task1,1578812,false,false,1885,image-keyboard-response,20
true,15,1,1,2,false,d,true,false,0.0-2.0-0.61-0.555-3.555,0,0,0,90,false,stim,false,0,193.89999985694885,2,0,0,29097,task1,1580542,false,false,1888,image-keyboard-response,21
true,15,2,1,0,false,q,true,false,0.0-2.0-0.61-0.556-3.556,0,0,0,68,false,stim,false,1,504.59999990463257,2,0,2,29097,task1,1582572,false,false,1891,image-keyboard-response,22
false,15,-1,1,1,false,z,true,false,0.0-2.0-0.61-0.557-3.557,0,0,0,,false,stim,false,0,,2,0,1,29097,task1,1587114,false,false,1894,image-keyboard-response,23
true,15,2,1,0,false,q,true,false,0.0-2.0-0.62-0.558-3.558,0,0,0,68,false,stim,false,1,1923.5,2,0,2,29097,task1,1590574,false,false,1897,image-keyboard-response,24
true,15,1,1,1,true,z,false,true,0.0-2.0-0.62-0.559-3.559,0,0,0,90,false,stim,false,0,2130.7000000476837,2,0,1,29097,task1,1594236,false,false,1900,image-keyboard-response,25
true,15,0,1,1,false,z,false,false,0.0-2.0-0.62-0.560-3.560,0,0,0,81,false,stim,true,0,96.40000009536743,2,0,1,29097,task1,1595878,false,false,1903,image-keyboard-response,26
true,15,2,1,0,false,q,true,false,0.0-2.0-0.62-0.561-3.561,0,0,0,68,false,stim,false,1,1481.0,2,0,2,29097,task1,1598884,false,false,1906,image-keyboard-response,27
true,15,0,1,2,false,d,false,false,0.0-2.0-0.62-0.562-3.562,0,0,0,81,false,stim,true,0,654.0,2,0,0,29097,task1,1601064,false,false,1909,image-keyboard-response,28
true,15,2,1,1,false,z,true,false,0.0-2.0-0.62-0.563-3.563,0,0,0,68,false,stim,false,0,1096.3999998569489,2,0,1,29097,task1,1603693,false,false,1912,image-keyboard-response,29
true,15,2,1,2,true,d,false,false,0.0-2.0-0.62-0.564-3.564,0,0,0,68,false,stim,false,0,1685.0,2,0,0,29097,task1,1606902,false,true,1915,image-keyboard-response,30
true,15,1,1,2,false,d,true,false,0.0-2.0-0.62-0.565-3.565,0,0,0,90,false,stim,false,0,313.09999990463257,2,0,0,29097,task1,1608735,false,false,1918,image-keyboard-response,31
false,15,-1,1,0,false,q,true,false,0.0-2.0-0.62-0.566-3.566,0,0,0,,false,stim,false,1,,2,0,2,29097,task1,1613272,false,false,1921,image-keyboard-response,32
true,15,0,1,1,false,z,false,false,0.0-2.0-0.63-0.567-3.567,0,0,0,81,false,stim,true,0,323.0,2,0,1,29097,task1,1615127,false,false,1924,image-keyboard-response,33
true,15,1,1,0,false,q,false,false,0.0-2.0-0.63-0.568-3.568,0,0,0,90,false,stim,true,1,535.7000000476837,2,0,2,29097,task1,1617194,false,false,1927,image-keyboard-response,34
true,15,0,1,1,false,z,false,false,0.0-2.0-0.63-0.569-3.569,0,0,0,81,false,stim,true,0,61.89999985694885,2,0,1,29097,task1,1618773,false,false,1930,image-keyboard-response,35
true,15,2,1,1,false,z,true,false,0.0-2.0-0.63-0.570-3.570,0,0,0,68,false,stim,false,0,2522.100000143051,2,0,1,29097,task1,1622828,false,false,1933,image-keyboard-response,36
true,15,1,1,0,false,q,false,false,0.0-2.0-0.63-0.571-3.571,0,0,0,90,false,stim,true,1,1125.3000001907349,2,0,2,29097,task1,1625481,false,false,1936,image-keyboard-response,37
true,15,1,1,2,false,d,true,false,0.0-2.0-0.63-0.572-3.572,0,0,0,90,false,stim,false,0,108.69999980926514,2,0,0,29097,task1,1627109,false,false,1939,image-keyboard-response,38
true,15,1,1,0,false,q,false,false,0.0-2.0-0.63-0.573-3.573,0,0,0,90,false,stim,true,1,1690.7000000476837,2,0,2,29097,task1,1630334,false,false,1942,image-keyboard-response,39
true,15,0,1,2,false,d,false,false,0.0-2.0-0.63-0.574-3.574,0,0,0,81,false,stim,true,0,278.2000000476837,2,0,0,29097,task1,1632140,false,false,1945,image-keyboard-response,40
true,16,2,2,1,false,z,false,false,0.0-2.0-0.63-0.575-3.575,0,0,0,68,true,stim,true,2,1808.1999998092651,2,0,0,29097,task1,1635474,false,false,1948,image-keyboard-response,1
true,16,2,2,2,true,d,false,true,0.0-2.0-0.64-0.576-3.576,0,0,0,68,false,stim,false,0,1018.9000000953674,2,0,2,29097,task1,1638028,false,false,1951,image-keyboard-response,2
true,16,0,2,2,false,d,false,false,0.0-2.0-0.64-0.577-3.577,0,0,0,81,false,stim,true,0,764.7000000476837,2,0,2,29097,task1,1640321,false,false,1954,image-keyboard-response,3
true,16,1,2,1,true,z,false,true,0.0-2.0-0.64-0.578-3.578,0,0,0,90,false,stim,false,2,315.90000009536743,2,0,0,29097,task1,1642169,false,false,1957,image-keyboard-response,4
true,16,1,2,0,false,q,false,false,0.0-2.0-0.64-0.579-3.579,0,0,0,90,false,stim,true,1,1387.2999999523163,2,0,1,29097,task1,1645111,false,false,1960,image-keyboard-response,5
false,16,-1,2,1,false,z,true,false,0.0-2.0-0.64-0.580-3.580,0,0,0,,false,stim,false,2,,2,0,0,29097,task1,1649659,false,false,1963,image-keyboard-response,6
true,16,0,2,1,false,z,true,false,0.0-2.0-0.64-0.581-3.581,0,0,0,81,false,stim,false,2,50.799999952316284,2,0,0,29097,task1,1651269,false,false,1966,image-keyboard-response,7
false,16,-1,2,2,false,d,true,false,0.0-2.0-0.64-0.582-3.582,0,0,0,,false,stim,false,0,,2,0,2,29097,task1,1655813,false,false,1969,image-keyboard-response,8
true,16,1,2,0,false,q,false,false,0.0-2.0-0.64-0.583-3.583,0,0,0,90,false,stim,true,1,2987.100000143051,2,0,1,29097,task1,1660333,false,false,1972,image-keyboard-response,9
true,16,2,2,0,false,q,true,false,0.0-2.0-0.64-0.584-3.584,0,0,0,68,false,stim,false,1,581.5,2,0,1,29097,task1,1662438,false,false,1975,image-keyboard-response,10
true,16,2,2,1,false,z,false,false,0.0-2.0-0.65-0.585-3.585,0,0,0,68,false,stim,true,2,764.6000001430511,2,0,0,29097,task1,1664734,false,false,1978,image-keyboard-response,11
true,16,2,2,2,true,d,false,true,0.0-2.0-0.65-0.586-3.586,0,0,0,68,false,stim,false,0,1681.7000000476837,2,0,2,29097,task1,1667937,false,false,1981,image-keyboard-response,12
true,16,2,2,0,false,q,true,true,0.0-2.0-0.65-0.587-3.587,0,0,0,68,false,stim,false,1,2284.2000000476837,2,0,1,29097,task1,1671750,false,true,1984,image-keyboard-response,13
true,16,1,2,1,true,z,false,true,0.0-2.0-0.65-0.588-3.588,0,0,0,90,false,stim,false,2,1314.7000000476837,2,0,0,29097,task1,1674590,false,false,1987,image-keyboard-response,14
