answered,blockNum,choice,condition,corResp,correct,correct_response,explo,fb,internal_node_id,isStable_1,isStable_2,isStable_3,key_press,newBlock,part,persev,persevResp,rt,sessNum,stableAS,stimulus,subject,task,time_elapsed,training,trap,trial_index,trial_type,trialsInBlock
true,1,1,0,2,false,d,true,true,0.0-2.0-0.0-0.0-3.0,0,0,0,90,true,stim,false,-1,1143.0999999940395,0,0,2,29495,task3,334906,false,true,190,image-keyboard-response,1
true,1,0,0,1,false,z,true,false,0.0-2.0-0.0-0.1-3.1,0,0,0,81,false,stim,false,-1,2381.5,0,0,0,29495,task3,338809,false,false,193,image-keyboard-response,2
true,1,1,0,1,true,z,false,true,0.0-2.0-0.0-0.2-3.2,0,0,0,90,false,stim,false,-1,1215.300000011921,0,0,1,29495,task3,341559,false,false,196,image-keyboard-response,3
true,1,0,0,2,false,d,true,false,0.0-2.0-0.0-0.3-3.3,0,0,0,81,false,stim,false,-1,1798.9000000059605,0,0,2,29495,task3,344884,false,false,199,image-keyboard-response,4
true,1,0,0,1,false,z,true,false,0.0-2.0-0.0-0.4-3.4,0,0,0,81,false,stim,false,-1,2202.0,0,0,0,29495,task3,348606,false,false,202,image-keyboard-response,5
true,1,1,0,1,true,z,false,true,0.0-2.0-0.0-0.5-3.5,0,0,0,90,false,stim,false,-1,2054.199999988079,0,0,1,29495,task3,352180,false,false,205,image-keyboard-response,6
true,1,2,0,1,false,z,true,false,0.0-2.0-0.0-0.6-3.6,0,0,0,68,false,stim,false,-1,1954.2000000029802,0,0,0,29495,task3,355646,false,false,208,image-keyboard-response,7
true,1,1,0,1,true,z,false,true,0.0-2.0-0.0-0.7-3.7,0,0,0,90,false,stim,false,-1,2356.0999999940395,0,0,1,29495,task3,359521,false,false,211,image-keyboard-response,8
true,1,0,0,2,false,d,true,false,0.0-2.0-0.0-0.8-3.8,0,0,0,81,false,stim,false,-1,1803.4000000059605,0,0,2,29495,task3,362842,false,false,214,image-keyboard-response,9
true,1,1,0,2,false,d,true,false,0.0-2.0-0.1-0.9-3.9,0,0,0,90,false,stim,false,-1,1123.7999999970198,0,0,2,29495,task3,365495,false,false,217,image-keyboard-response,10
true,1,2,0,1,false,z,true,false,0.0-2.0-0.1-0.10-3.10,0,0,0,68,false,stim,false,-1,2165.7000000029802,0,0,0,29495,task3,369185,false,false,220,image-keyboard-response,11
false,1,-1,0,1,false,z,false,false,0.0-2.0-0.1-0.11-3.11,0,0,0,,false,stim,true,-1,,0,0,1,29495,task3,373720,false,false,223,image-keyboard-response,12
true,1,2,0,1,false,z,true,false,0.0-2.0-0.1-0.12-3.12,0,0,0,68,false,stim,false,-1,2342.6000000089407,0,0,0,29495,task3,377595,false,false,226,image-keyboard-response,13
true,1,1,0,2,false,d,true,true,0.0-2.0-0.1-0.13-3.13,0,0,0,90,false,stim,false,-1,2640.9000000059605,0,0,2,29495,task3,381758,false,true,229,image-keyboard-response,14
true,1,1,0,2,false,d,true,false,0.0-2.0-0.1-0.14-3.14,0,0,0,90,false,stim,false,-1,1588.9000000059605,0,0,2,29495,task3,384862,false,false,232,image-keyboard-response,15
true,1,0,0,1,false,z,true,false,0.0-2.0-0.1-0.15-3.15,0,0,0,81,false,stim,false,-1,1204.5,0,0,1,29495,task3,387604,false,false,235,image-keyboard-response,16
true,1,0,0,1,false,z,true,false,0.0-2.0-0.1-0.16-3.16,0,0,0,81,false,stim,false,-1,718.2000000029802,0,0,0,29495,task3,389843,false,false,238,image-keyboard-response,17
true,1,1,0,1,true,z,false,true,0.0-2.0-0.1-0.17-3.17,0,0,0,90,false,stim,false,-1,2326.5999999940395,0,0,1,29495,task3,393702,false,false,241,image-keyboard-response,18
true,1,2,0,1,false,z,true,false,0.0-2.0-0.2-0.18-3.18,0,0,0,68,false,stim,false,-1,2437.0,0,0,0,29495,task3,397667,false,false,244,image-keyboard-response,19
true,1,0,0,1,false,z,true,false,0.0-2.0-0.2-0.19-3.19,0,0,0,81,false,stim,false,-1,1874.5999999940395,0,0,0,29495,task3,401059,false,false,247,image-keyboard-response,20
false,1,-1,0,1,false,z,false,false,0.0-2.0-0.2-0.20-3.20,0,0,0,,false,stim,true,-1,,0,0,1,29495,task3,405589,false,false,250,image-keyboard-response,21
true,1,1,0,1,true,z,false,true,0.0-2.0-0.2-0.21-3.21,0,0,0,90,false,stim,false,-1,881.7999999970198,0,0,1,29495,task3,408000,false,false,253,image-keyboard-response,22
true,1,1,0,1,true,z,false,false,0.0-2.0-0.2-0.22-3.22,0,0,0,90,false,stim,false,-1,719.2000000029802,0,0,1,29495,task3,410235,false,true,256,image-keyboard-response,23
true,1,0,0,2,false,d,true,false,0.0-2.0-0.2-0.23-3.23,0,0,0,81,false,stim,false,-1,2631.7999999970198,0,0,2,29495,task3,414382,false,false,259,image-keyboard-response,24
true,1,0,0,2,false,d,true,false,0.0-2.0-0.2-0.24-3.24,0,0,0,81,false,stim,false,-1,1455.5,0,0,2,29495,task3,417363,false,false,262,image-keyboard-response,25
true,1,0,0,2,false,d,true,false,0.0-2.0-0.2-0.25-3.25,0,0,0,81,false,stim,false,-1,443.5,0,0,2,29495,task3,419324,false,false,265,image-keyboard-response,26
true,1,0,0,1,false,z,true,false,0.0-2.0-0.2-0.26-3.26,0,0,0,81,false,stim,false,-1,654.4000000059605,0,1,0,29495,task3,421509,false,false,268,image-keyboard-response,27
true,1,0,0,1,false,z,true,false,0.0-2.0-0.3-0.27-3.27,0,0,0,81,false,stim,false,-1,290.5,0,0,1,29495,task3,423318,false,false,271,image-keyboard-response,28
true,2,1,1,0,false,q,true,false,0.0-2.0-0.3-0.28-3.28,1,0,0,90,true,stim,false,2,1133.2999999970198,0,0,2,29495,task3,425987,false,false,274,image-keyboard-response,1
true,2,1,1,0,false,q,false,false,0.0-2.0-0.3-0.29-3.29,1,0,0,90,false,stim,true,1,711.0999999940395,0,0,1,29495,task3,428225,false,false,277,image-keyboard-response,2
true,2,1,1,1,true,z,false,true,0.0-2.0-0.3-0.30-3.30,1,0,0,90,false,stim,false,1,867.6000000089407,0,1,0,29495,task3,430620,false,false,280,image-keyboard-response,3
true,2,1,1,1,true,z,false,true,0.0-2.0-0.3-0.31-3.31,1,0,0,90,false,stim,false,1,825.1999999880791,0,1,0,29495,task3,432977,false,false,283,image-keyboard-response,4
true,2,2,1,0,false,q,true,false,0.0-2.0-0.3-0.32-3.32,1,0,0,68,false,stim,false,1,2314.0999999940395,0,0,1,29495,task3,436807,false,false,286,image-keyboard-response,5
true,2,0,1,1,false,z,true,false,0.0-2.0-0.3-0.33-3.33,1,0,0,81,false,stim,false,1,1185.5,0,1,0,29495,task3,439521,false,false,289,image-keyboard-response,6
true,2,1,1,0,false,q,true,false,0.0-2.0-0.3-0.34-3.34,1,0,0,90,false,stim,false,2,1928.2999999970198,0,0,2,29495,task3,442977,false,false,292,image-keyboard-response,7
true,2,1,1,0,false,q,true,false,0.0-2.0-0.3-0.35-3.35,1,0,0,90,false,stim,false,2,1764.6000000089407,0,0,2,29495,task3,446256,false,false,295,image-keyboard-response,8
true,2,0,1,0,true,q,false,true,0.0-2.0-0.4-0.36-3.36,1,0,0,81,false,stim,false,2,1433.7999999970198,0,0,2,29495,task3,449214,false,false,298,image-keyboard-response,9
true,2,0,1,0,true,q,false,true,0.0-2.0-0.4-0.37-3.37,1,0,0,81,false,stim,false,1,743.7999999970198,0,0,1,29495,task3,451484,false,false,301,image-keyboard-response,10
true,2,0,1,1,false,z,true,true,0.0-2.0-0.4-0.38-3.38,1,0,0,81,false,stim,false,1,400.69999998807907,0,1,0,29495,task3,453413,false,true,304,image-keyboard-response,11
true,2,0,1,0,true,q,false,true,0.0-2.0-0.4-0.39-3.39,1,0,0,81,false,stim,false,2,509.09999999403954,0,0,2,29495,task3,455445,false,false,307,image-keyboard-response,12
true,2,0,1,1,false,z,true,false,0.0-2.0-0.4-0.40-3.40,1,0,0,81,false,stim,false,1,422.20000000298023,0,1,0,29495,task3,457399,false,false,310,image-keyboard-response,13
true,2,1,1,0,false,q,false,false,0.0-2.0-0.4-0.41-3.41,1,0,0,90,false,stim,true,1,1281.0,0,0,1,29495,task3,460201,false,false,313,image-keyboard-response,14
true,2,2,1,1,false,z,true,false,0.0-2.0-0.4-0.42-3.42,1,0,0,68,false,stim,false,1,775.7999999970198,0,1,0,29495,task3,462495,false,false,316,image-keyboard-response,15
true,2,1,1,0,false,q,true,false,0.0-2.0-0.4-0.43-3.43,1,0,0,90,false,stim,false,2,1833.2999999970198,0,0,2,29495,task3,465858,false,false,319,image-keyboard-response,16
true,2,0,1,0,true,q,false,true,0.0-2.0-0.4-0.44-3.44,1,0,0,81,false,stim,false,1,353.1000000089407,0,0,1,29495,task3,467729,false,false,322,image-keyboard-response,17
true,2,0,1,1,false,z,true,false,0.0-2.0-0.5-0.45-3.45,1,0,0,81,false,stim,false,1,396.70000000298023,0,1,0,29495,task3,469638,false,false,325,image-keyboard-response,18
true,2,1,1,1,true,z,false,true,0.0-2.0-0.5-0.46-3.46,1,0,0,90,false,stim,false,1,498.19999998807907,0,1,0,29495,task3,471672,false,false,328,image-keyboard-response,19
true,2,1,1,1,true,z,false,true,0.0-2.0-0.5-0.47-3.47,1,0,0,90,false,stim,false,1,1307.7000000029802,0,1,0,29495,task3,474498,false,false,331,image-keyboard-response,20
true,2,0,1,0,true,q,false,true,0.0-2.0-0.5-0.48-3.48,1,0,0,81,false,stim,false,1,1185.2999999970198,0,0,1,29495,task3,477199,false,false,334,image-keyboard-response,21
true,2,0,1,0,true,q,false,true,0.0-2.0-0.5-0.49-3.49,1,0,0,81,false,stim,false,1,957.6000000089407,0,0,1,29495,task3,479672,false,false,337,image-keyboard-response,22
true,2,2,1,0,false,q,false,false,0.0-2.0-0.5-0.50-3.50,1,0,0,68,false,stim,true,2,1433.1000000089407,0,1,2,29495,task3,482638,false,false,340,image-keyboard-response,23
true,2,1,1,0,false,q,false,false,0.0-2.0-0.5-0.51-3.51,1,0,0,90,false,stim,true,1,1552.6000000089407,0,0,1,29495,task3,485725,false,false,343,image-keyboard-response,24
true,2,1,1,0,false,q,true,false,0.0-2.0-0.5-0.52-3.52,1,0,0,90,false,stim,false,2,913.2999999970198,0,1,2,29495,task3,488159,false,false,346,image-keyboard-response,25
true,3,0,2,0,true,q,false,true,0.0-2.0-0.5-0.53-3.53,1,0,1,81,true,stim,false,0,1365.2999999970198,0,1,2,29495,task3,491053,false,false,349,image-keyboard-response,1
true,3,1,2,1,true,z,false,true,0.0-2.0-0.6-0.54-3.54,1,0,1,90,false,stim,false,1,1707.7999999970198,0,1,0,29495,task3,494292,false,false,352,image-keyboard-response,2
true,3,1,2,0,false,q,true,false,0.0-2.0-0.6-0.55-3.55,1,0,1,90,false,stim,false,0,1632.0999999940395,0,1,2,29495,task3,497449,false,false,355,image-keyboard-response,3
true,3,0,2,1,false,z,true,true,0.0-2.0-0.6-0.56-3.56,1,0,1,81,false,stim,false,1,945.2999999970198,0,1,0,29495,task3,499929,false,true,358,image-keyboard-response,4
true,3,1,2,2,false,d,true,false,0.0-2.0-0.6-0.57-3.57,1,0,1,90,false,stim,false,0,637.5999999940395,0,0,1,29495,task3,502095,false,false,361,image-keyboard-response,5
true,3,1,2,0,false,q,true,false,0.0-2.0-0.6-0.58-3.58,1,0,1,90,false,stim,false,0,1672.199999988079,0,1,2,29495,task3,505287,false,false,364,image-keyboard-response,6
true,3,1,2,2,false,d,true,false,0.0-2.0-0.6-0.59-3.59,1,0,1,90,false,stim,false,0,1772.7999999970198,0,0,1,29495,task3,508587,false,false,367,image-keyboard-response,7
true,3,0,2,2,false,d,false,false,0.0-2.0-0.6-0.60-3.60,1,0,1,81,false,stim,true,0,1797.7999999970198,0,0,1,29495,task3,511902,false,false,370,image-keyboard-response,8
true,3,2,2,0,false,q,true,false,0.0-2.0-0.6-0.61-3.61,1,0,1,68,false,stim,false,0,2229.2000000029802,0,1,2,29495,task3,515658,false,false,373,image-keyboard-response,9
true,3,2,2,1,false,z,true,false,0.0-2.0-0.6-0.62-3.62,1,0,1,68,false,stim,false,1,358.79999999701977,0,1,0,29495,task3,517534,false,false,376,image-keyboard-response,10
true,3,2,2,1,false,z,true,false,0.0-2.0-0.7-0.63-3.63,1,0,1,68,false,stim,false,1,293.90000000596046,0,1,0,29495,task3,519336,false,false,379,image-keyboard-response,11
true,3,2,2,0,false,q,true,false,0.0-2.0-0.7-0.64-3.64,1,0,1,68,false,stim,false,0,485.79999999701977,0,1,2,29495,task3,521342,false,false,382,image-keyboard-response,12
true,3,2,2,0,false,q,true,false,0.0-2.0-0.7-0.65-3.65,1,0,1,68,false,stim,false,0,305.59999999403954,0,1,2,29495,task3,523165,false,false,385,image-keyboard-response,13
true,3,2,2,1,false,z,true,false,0.0-2.0-0.7-0.66-3.66,1,0,1,68,false,stim,false,1,532.2999999970198,0,1,0,29495,task3,525225,false,false,388,image-keyboard-response,14
true,3,1,2,1,true,z,false,true,0.0-2.0-0.7-0.67-3.67,1,0,1,90,false,stim,false,1,1179.0,0,1,0,29495,task3,527922,false,false,391,image-keyboard-response,15
true,3,0,2,2,false,d,false,false,0.0-2.0-0.7-0.68-3.68,1,0,1,81,false,stim,true,0,1289.1000000089407,0,0,1,29495,task3,530729,false,false,394,image-keyboard-response,16
true,3,0,2,0,true,q,false,false,0.0-2.0-0.7-0.69-3.69,1,0,1,81,false,stim,false,0,1135.0999999940395,0,1,2,29495,task3,533393,false,true,397,image-keyboard-response,17
true,3,0,2,2,false,d,false,false,0.0-2.0-0.7-0.70-3.70,1,0,1,81,false,stim,true,0,408.59999999403954,0,0,1,29495,task3,535327,false,false,400,image-keyboard-response,18
true,3,1,2,2,false,d,true,false,0.0-2.0-0.7-0.71-3.71,1,0,1,90,false,stim,false,0,1012.8999999910593,0,0,1,29495,task3,537857,false,false,403,image-keyboard-response,19
true,3,0,2,2,false,d,false,false,0.0-2.0-0.8-0.72-3.72,1,0,1,81,false,stim,true,0,1370.5999999940395,0,0,1,29495,task3,540750,false,false,406,image-keyboard-response,20
true,3,0,2,0,true,q,false,true,0.0-2.0-0.8-0.73-3.73,1,0,1,81,false,stim,false,0,930.6000000089407,0,1,2,29495,task3,543193,false,false,409,image-keyboard-response,21
true,3,0,2,1,false,z,true,true,0.0-2.0-0.8-0.74-3.74,1,0,1,81,false,stim,false,1,276.09999999403954,0,0,0,29495,task3,544988,false,true,412,image-keyboard-response,22
true,3,0,2,1,false,z,true,true,0.0-2.0-0.8-0.75-3.75,1,0,1,81,false,stim,false,1,276.29999999701977,0,0,0,29495,task3,546778,false,true,415,image-keyboard-response,23
true,3,0,2,1,false,z,true,false,0.0-2.0-0.8-0.76-3.76,1,0,1,81,false,stim,false,1,314.79999999701977,0,0,0,29495,task3,548608,false,false,418,image-keyboard-response,24
true,3,1,2,0,false,q,true,false,0.0-2.0-0.8-0.77-3.77,1,0,1,90,false,stim,false,0,859.5999999940395,0,1,2,29495,task3,550985,false,false,421,image-keyboard-response,25
true,4,1,1,1,true,z,false,true,0.0-2.0-0.8-0.78-3.78,0,0,1,90,true,stim,false,2,306.40000000596046,0,0,1,29495,task3,552808,false,false,424,image-keyboard-response,1
true,4,1,1,0,false,q,true,false,0.0-2.0-0.8-0.79-3.79,0,0,1,90,false,stim,false,0,274.0,0,1,2,29495,task3,554591,false,false,427,image-keyboard-response,2
true,4,0,1,1,false,z,true,false,0.0-2.0-0.8-0.80-3.80,0,0,1,81,false,stim,false,2,659.0,0,0,1,29495,task3,556782,false,false,430,image-keyboard-response,3
true,4,1,1,0,false,q,false,false,0.0-2.0-0.9-0.81-3.81,0,0,1,90,false,stim,true,1,271.0,0,0,0,29495,task3,558578,false,false,433,image-keyboard-response,4
true,4,2,1,1,false,z,false,false,0.0-2.0-0.9-0.82-3.82,0,0,1,68,false,stim,true,2,343.0,0,0,1,29495,task3,560442,false,false,436,image-keyboard-response,5
true,4,2,1,1,false,z,false,false,0.0-2.0-0.9-0.83-3.83,0,0,1,68,false,stim,true,2,464.0,0,0,1,29495,task3,562429,false,false,439,image-keyboard-response,6
true,4,1,1,1,true,z,false,true,0.0-2.0-0.9-0.84-3.84,0,0,1,90,false,stim,false,2,1756.0999999940395,0,0,1,29495,task3,565713,false,false,442,image-keyboard-response,7
true,4,1,1,0,false,q,false,false,0.0-2.0-0.9-0.85-3.85,0,0,1,90,false,stim,true,1,310.5,0,0,0,29495,task3,567550,false,false,445,image-keyboard-response,8
true,4,0,1,0,true,q,false,false,0.0-2.0-0.9-0.86-3.86,0,0,1,81,false,stim,false,1,589.9000000059605,0,0,0,29495,task3,569660,false,true,448,image-keyboard-response,9
true,4,1,1,0,false,q,true,false,0.0-2.0-0.9-0.87-3.87,0,0,1,90,false,stim,false,0,1366.7999999970198,0,1,2,29495,task3,572546,false,false,451,image-keyboard-response,10
true,4,0,1,0,true,q,false,true,0.0-2.0-0.9-0.88-3.88,0,0,1,81,false,stim,false,0,441.5,0,1,2,29495,task3,574511,false,false,454,image-keyboard-response,11
true,4,0,1,0,true,q,false,true,0.0-2.0-0.9-0.89-3.89,0,0,1,81,false,stim,false,0,689.5999999940395,0,1,2,29495,task3,576727,false,false,457,image-keyboard-response,12
true,4,0,1,1,false,z,true,false,0.0-2.0-0.10-0.90-3.90,0,0,1,81,false,stim,false,2,444.09999999403954,0,0,1,29495,task3,578689,false,false,460,image-keyboard-response,13
true,4,1,1,1,true,z,false,true,0.0-2.0-0.10-0.91-3.91,0,0,1,90,false,stim,false,2,1447.4000000059605,0,0,1,29495,task3,581647,false,false,463,image-keyboard-response,14
true,4,1,1,0,false,q,false,false,0.0-2.0-0.10-0.92-3.92,0,0,1,90,false,stim,true,1,355.79999999701977,0,0,0,29495,task3,583522,false,false,466,image-keyboard-response,15
true,4,2,1,0,false,q,true,false,0.0-2.0-0.10-0.93-3.93,0,0,1,68,false,stim,false,0,498.30000001192093,0,1,2,29495,task3,585549,false,false,469,image-keyboard-response,16
true,4,1,1,1,true,z,false,true,0.0-2.0-0.10-0.94-3.94,0,0,1,90,false,stim,false,2,1027.0999999940395,0,0,1,29495,task3,588097,false,false,472,image-keyboard-response,17
true,4,1,1,0,false,q,true,false,0.0-2.0-0.10-0.95-3.95,0,0,1,90,false,stim,false,0,315.59999999403954,0,1,2,29495,task3,589934,false,false,475,image-keyboard-response,18
true,4,0,1,0,true,q,false,true,0.0-2.0-0.10-0.96-3.96,0,0,1,81,false,stim,false,1,1243.8999999910593,0,0,0,29495,task3,592695,false,false,478,image-keyboard-response,19
true,4,2,1,0,false,q,true,false,0.0-2.0-0.10-0.97-3.97,0,0,1,68,false,stim,false,0,1618.7999999970198,0,1,2,29495,task3,595833,false,false,481,image-keyboard-response,20
true,4,0,1,0,true,q,false,true,0.0-2.0-0.10-0.98-3.98,0,0,1,81,false,stim,false,1,2016.0,0,1,0,29495,task3,599373,false,false,484,image-keyboard-response,21
true,4,0,1,0,true,q,false,true,0.0-2.0-0.11-0.99-3.99,0,0,1,81,false,stim,false,1,646.1000000089407,0,1,0,29495,task3,601553,false,false,487,image-keyboard-response,22
true,4,0,1,1,false,z,true,false,0.0-2.0-0.11-0.100-3.100,0,0,1,81,false,stim,false,2,887.5999999940395,0,0,1,29495,task3,603975,false,false,490,image-keyboard-response,23
true,4,1,1,1,true,z,false,true,0.0-2.0-0.11-0.101-3.101,0,0,1,90,false,stim,false,2,1110.7999999970198,0,0,1,29495,task3,606614,false,false,493,image-keyboard-response,24
true,4,0,1,0,true,q,false,true,0.0-2.0-0.11-0.102-3.102,0,0,1,81,false,stim,false,1,692.2000000029802,0,1,0,29495,task3,608819,false,false,496,image-keyboard-response,25
true,5,0,1,1,false,z,false,false,0.0-2.0-0.11-0.103-3.103,1,0,0,81,true,stim,true,0,1537.7999999970198,0,0,2,29495,task3,611883,false,false,499,image-keyboard-response,1
true,5,1,1,0,false,q,false,false,0.0-2.0-0.11-0.104-3.104,1,0,0,90,false,stim,true,1,1412.2000000029802,0,0,1,29495,task3,614815,false,false,502,image-keyboard-response,2
true,5,2,1,1,false,z,true,false,0.0-2.0-0.11-0.105-3.105,1,0,0,68,false,stim,false,0,1591.0,0,0,2,29495,task3,617934,false,false,505,image-keyboard-response,3
true,5,1,1,1,true,z,false,true,0.0-2.0-0.11-0.106-3.106,1,0,0,90,false,stim,false,0,852.2999999970198,0,0,2,29495,task3,620320,false,false,508,image-keyboard-response,4
true,5,0,1,0,true,q,false,true,0.0-2.0-0.11-0.107-3.107,1,0,0,81,false,stim,false,0,1071.5,0,1,0,29495,task3,622921,false,false,511,image-keyboard-response,5
true,5,1,1,1,true,z,false,true,0.0-2.0-0.12-0.108-3.108,1,0,0,90,false,stim,false,0,731.6000000089407,0,0,2,29495,task3,625172,false,false,514,image-keyboard-response,6
true,5,1,1,1,true,z,false,true,0.0-2.0-0.12-0.109-3.109,1,0,0,90,false,stim,false,0,627.6999999880791,0,0,2,29495,task3,627316,false,false,517,image-keyboard-response,7
true,5,0,1,0,true,q,false,true,0.0-2.0-0.12-0.110-3.110,1,0,0,81,false,stim,false,0,570.5,0,1,0,29495,task3,629412,false,false,520,image-keyboard-response,8
true,5,0,1,0,true,q,false,true,0.0-2.0-0.12-0.111-3.111,1,0,0,81,false,stim,false,0,625.0,0,1,0,29495,task3,631565,false,false,523,image-keyboard-response,9
true,5,0,1,0,true,q,false,false,0.0-2.0-0.12-0.112-3.112,1,0,0,81,false,stim,false,0,757.2999999970198,0,1,0,29495,task3,633845,false,true,526,image-keyboard-response,10
true,5,1,1,1,true,z,false,true,0.0-2.0-0.12-0.113-3.113,1,0,0,90,false,stim,false,0,1340.5,0,0,2,29495,task3,636702,false,false,529,image-keyboard-response,11
true,5,1,1,0,false,q,false,false,0.0-2.0-0.12-0.114-3.114,1,0,0,90,false,stim,true,1,1250.5,0,0,1,29495,task3,639469,false,false,532,image-keyboard-response,12
true,5,0,1,0,true,q,false,true,0.0-2.0-0.12-0.115-3.115,1,0,0,81,false,stim,false,1,881.3999999910593,0,0,1,29495,task3,641868,false,false,535,image-keyboard-response,13
true,5,0,1,0,true,q,false,true,0.0-2.0-0.12-0.116-3.116,1,0,0,81,false,stim,false,1,582.4000000059605,0,0,1,29495,task3,643970,false,false,538,image-keyboard-response,14
true,5,0,1,0,true,q,false,true,0.0-2.0-0.13-0.117-3.117,1,0,0,81,false,stim,false,1,564.2000000029802,0,0,1,29495,task3,646048,false,false,541,image-keyboard-response,15
true,5,0,1,0,true,q,false,true,0.0-2.0-0.13-0.118-3.118,1,0,0,81,false,stim,false,1,475.09999999403954,0,0,1,29495,task3,648043,false,false,544,image-keyboard-response,16
true,5,1,1,0,false,q,true,false,0.0-2.0-0.13-0.119-3.119,1,0,0,90,false,stim,false,0,949.7999999970198,0,1,0,29495,task3,650526,false,false,547,image-keyboard-response,17
true,5,0,1,0,true,q,false,true,0.0-2.0-0.13-0.120-3.120,1,0,0,81,false,stim,false,0,362.69999998807907,0,1,0,29495,task3,652410,false,false,550,image-keyboard-response,18
true,5,1,1,1,true,z,false,true,0.0-2.0-0.13-0.121-3.121,1,0,0,90,false,stim,false,0,1609.7000000029802,0,0,2,29495,task3,655541,false,false,553,image-keyboard-response,19
true,5,0,1,0,true,q,false,true,0.0-2.0-0.13-0.122-3.122,1,0,0,81,false,stim,false,0,802.9000000059605,0,1,0,29495,task3,657860,false,false,556,image-keyboard-response,20
true,5,1,1,1,true,z,false,true,0.0-2.0-0.13-0.123-3.123,1,0,0,90,false,stim,false,0,527.6000000089407,0,0,2,29495,task3,659913,false,false,559,image-keyboard-response,21
true,5,1,1,1,true,z,false,true,0.0-2.0-0.13-0.124-3.124,1,0,0,90,false,stim,false,0,455.20000000298023,0,0,2,29495,task3,661886,false,false,562,image-keyboard-response,22
true,5,1,1,0,false,q,false,false,0.0-2.0-0.13-0.125-3.125,1,0,0,90,false,stim,true,1,601.7999999970198,0,0,1,29495,task3,664006,false,false,565,image-keyboard-response,23
true,5,0,1,0,true,q,false,true,0.0-2.0-0.14-0.126-3.126,1,0,0,81,false,stim,false,0,607.8999999910593,0,1,0,29495,task3,666134,false,false,568,image-keyboard-response,24
true,5,1,1,1,true,z,false,true,0.0-2.0-0.14-0.127-3.127,1,0,0,90,false,stim,false,0,866.9000000059605,0,0,2,29495,task3,668526,false,false,571,image-keyboard-response,25
true,5,1,1,1,true,z,false,true,0.0-2.0-0.14-0.128-3.128,1,0,0,90,false,stim,false,0,556.9000000059605,0,0,2,29495,task3,670600,false,false,574,image-keyboard-response,26
true,5,0,1,0,true,q,false,true,0.0-2.0-0.14-0.129-3.129,1,0,0,81,false,stim,false,0,897.2999999970198,0,1,0,29495,task3,673022,false,false,577,image-keyboard-response,27
true,5,0,1,0,true,q,false,true,0.0-2.0-0.14-0.130-3.130,1,0,0,81,false,stim,false,0,416.0,0,1,0,29495,task3,674958,false,false,580,image-keyboard-response,28
true,6,1,1,2,false,d,false,false,0.0-2.0-0.14-0.131-3.131,1,0,0,90,true,stim,true,1,657.8999999910593,0,0,2,29495,task3,677134,false,false,583,image-keyboard-response,1
true,6,0,1,1,false,z,false,false,0.0-2.0-0.14-0.132-3.132,1,0,0,81,false,stim,true,0,1504.3999999910593,0,0,1,29495,task3,680162,false,false,586,image-keyboard-response,2
true,6,1,1,1,true,z,false,true,0.0-2.0-0.14-0.133-3.133,1,0,0,90,false,stim,false,0,671.2999999970198,0,0,1,29495,task3,682356,false,false,589,image-keyboard-response,3
true,6,1,1,1,true,z,false,true,0.0-2.0-0.14-0.134-3.134,1,0,0,90,false,stim,false,0,434.29999999701977,0,0,1,29495,task3,684316,false,false,592,image-keyboard-response,4
true,6,0,1,0,true,q,false,true,0.0-2.0-0.15-0.135-3.135,1,0,0,81,false,stim,false,0,493.90000000596046,0,1,0,29495,task3,686332,false,false,595,image-keyboard-response,5
true,6,1,1,1,true,z,false,true,0.0-2.0-0.15-0.136-3.136,1,0,0,90,false,stim,false,0,638.4000000059605,0,0,1,29495,task3,688485,false,false,598,image-keyboard-response,6
true,6,0,1,0,true,q,false,true,0.0-2.0-0.15-0.137-3.137,1,0,0,81,false,stim,false,0,562.7999999970198,0,1,0,29495,task3,690585,false,false,601,image-keyboard-response,7
true,6,1,1,2,false,d,false,true,0.0-2.0-0.15-0.138-3.138,1,0,0,90,false,stim,true,1,1641.2000000029802,0,0,2,29495,task3,693746,false,true,604,image-keyboard-response,8
true,6,1,1,1,true,z,false,true,0.0-2.0-0.15-0.139-3.139,1,0,0,90,false,stim,false,0,510.59999999403954,0,0,1,29495,task3,695773,false,false,607,image-keyboard-response,9
true,6,1,1,2,false,d,false,false,0.0-2.0-0.15-0.140-3.140,1,0,0,90,false,stim,true,1,402.0,0,0,2,29495,task3,697697,false,false,610,image-keyboard-response,10
true,6,0,1,0,true,q,false,false,0.0-2.0-0.15-0.141-3.141,1,0,0,81,false,stim,false,0,537.5999999940395,0,1,0,29495,task3,699766,false,true,613,image-keyboard-response,11
true,6,2,1,1,false,z,true,false,0.0-2.0-0.15-0.142-3.142,1,0,0,68,false,stim,false,0,2329.7000000029802,0,0,1,29495,task3,703615,false,false,616,image-keyboard-response,12
true,6,2,1,2,true,d,false,true,0.0-2.0-0.15-0.143-3.143,1,0,0,68,false,stim,false,1,682.7000000029802,0,0,2,29495,task3,705817,false,false,619,image-keyboard-response,13
true,6,2,1,2,true,d,false,true,0.0-2.0-0.16-0.144-3.144,1,0,0,68,false,stim,false,1,481.29999999701977,0,0,2,29495,task3,707821,false,false,622,image-keyboard-response,14
true,6,1,1,0,false,q,true,false,0.0-2.0-0.16-0.145-3.145,1,0,0,90,false,stim,false,0,1624.7999999970198,0,1,0,29495,task3,710967,false,false,625,image-keyboard-response,15
true,6,1,1,1,true,z,false,true,0.0-2.0-0.16-0.146-3.146,1,0,0,90,false,stim,false,0,591.6999999880791,0,0,1,29495,task3,713081,false,false,628,image-keyboard-response,16
true,6,2,1,2,true,d,false,true,0.0-2.0-0.16-0.147-3.147,1,0,0,68,false,stim,false,1,843.9000000059605,0,0,2,29495,task3,715451,false,false,631,image-keyboard-response,17
true,6,2,1,1,false,z,true,false,0.0-2.0-0.16-0.148-3.148,1,0,0,68,false,stim,false,0,629.2999999970198,0,0,1,29495,task3,717603,false,false,634,image-keyboard-response,18
true,6,1,1,2,false,d,false,false,0.0-2.0-0.16-0.149-3.149,1,0,0,90,false,stim,true,1,1427.4000000059605,0,0,2,29495,task3,720550,false,false,637,image-keyboard-response,19
true,6,0,1,0,true,q,false,false,0.0-2.0-0.16-0.150-3.150,1,0,0,81,false,stim,false,0,567.7000000029802,0,1,0,29495,task3,722640,false,true,640,image-keyboard-response,20
true,6,1,1,1,true,z,false,true,0.0-2.0-0.16-0.151-3.151,1,0,0,90,false,stim,false,0,1382.6000000089407,0,0,1,29495,task3,725538,false,false,643,image-keyboard-response,21
true,6,0,1,0,true,q,false,true,0.0-2.0-0.16-0.152-3.152,1,0,0,81,false,stim,false,0,1035.1000000089407,0,1,0,29495,task3,728088,false,false,646,image-keyboard-response,22
true,6,1,1,2,false,d,false,false,0.0-2.0-0.17-0.153-3.153,1,0,0,90,false,stim,true,1,697.6000000089407,0,0,2,29495,task3,730302,false,false,649,image-keyboard-response,23
true,6,2,1,2,true,d,false,true,0.0-2.0-0.17-0.154-3.154,1,0,0,68,false,stim,false,1,912.9000000059605,0,0,2,29495,task3,732739,false,false,652,image-keyboard-response,24
true,6,1,1,1,true,z,false,true,0.0-2.0-0.17-0.155-3.155,1,0,0,90,false,stim,false,0,2841.3999999910593,0,0,1,29495,task3,737095,false,false,655,image-keyboard-response,25
true,6,0,1,0,true,q,false,false,0.0-2.0-0.17-0.156-3.156,1,0,0,81,false,stim,false,0,563.4000000059605,0,1,0,29495,task3,739181,false,true,658,image-keyboard-response,26
true,6,1,1,1,true,z,false,true,0.0-2.0-0.17-0.157-3.157,1,0,0,90,false,stim,false,0,1332.5999999940395,0,1,1,29495,task3,742049,false,false,661,image-keyboard-response,27
true,6,2,1,2,true,d,false,false,0.0-2.0-0.17-0.158-3.158,1,0,0,68,false,stim,false,1,936.5999999940395,0,0,2,29495,task3,744520,false,true,664,image-keyboard-response,28
true,6,0,1,0,true,q,false,true,0.0-2.0-0.17-0.159-3.159,1,0,0,81,false,stim,false,0,1147.9000000059605,0,1,0,29495,task3,747203,false,false,667,image-keyboard-response,29
true,6,0,1,0,true,q,false,true,0.0-2.0-0.17-0.160-3.160,1,0,0,81,false,stim,false,0,496.20000000298023,0,1,0,29495,task3,749219,false,false,670,image-keyboard-response,30
true,7,1,2,1,true,z,false,true,0.0-2.0-0.17-0.161-3.161,1,1,0,90,true,stim,false,1,716.7000000029802,0,1,1,29495,task3,751464,false,false,673,image-keyboard-response,1
true,7,2,2,1,false,z,false,false,0.0-2.0-0.18-0.162-3.162,1,1,0,68,false,stim,true,2,859.0,0,0,2,29495,task3,753838,false,false,676,image-keyboard-response,2
true,7,1,2,1,true,z,false,true,0.0-2.0-0.18-0.163-3.163,1,1,0,90,false,stim,false,2,346.20000000298023,0,0,2,29495,task3,755709,false,false,679,image-keyboard-response,3
true,7,0,2,0,true,q,false,true,0.0-2.0-0.18-0.164-3.164,1,1,0,81,false,stim,false,0,755.0,0,1,0,29495,task3,757990,false,false,682,image-keyboard-response,4
true,7,1,2,1,true,z,false,true,0.0-2.0-0.18-0.165-3.165,1,1,0,90,false,stim,false,1,397.40000000596046,0,1,1,29495,task3,759910,false,false,685,image-keyboard-response,5
true,7,0,2,0,true,q,false,true,0.0-2.0-0.18-0.166-3.166,1,1,0,81,false,stim,false,0,823.0,0,1,0,29495,task3,762259,false,false,688,image-keyboard-response,6
true,7,1,2,1,true,z,false,true,0.0-2.0-0.18-0.167-3.167,1,1,0,90,false,stim,false,1,1422.7000000029802,0,1,1,29495,task3,765200,false,false,691,image-keyboard-response,7
true,7,1,2,1,true,z,false,true,0.0-2.0-0.18-0.168-3.168,1,1,0,90,false,stim,false,1,437.29999999701977,0,0,1,29495,task3,767164,false,false,694,image-keyboard-response,8
true,7,1,2,1,true,z,false,true,0.0-2.0-0.18-0.169-3.169,1,1,0,90,false,stim,false,2,1050.0,0,1,2,29495,task3,769743,false,false,697,image-keyboard-response,9
true,7,0,2,0,true,q,false,true,0.0-2.0-0.18-0.170-3.170,1,1,0,81,false,stim,false,0,550.0,0,1,0,29495,task3,771810,false,false,700,image-keyboard-response,10
true,7,1,2,1,true,z,false,false,0.0-2.0-0.19-0.171-3.171,1,1,0,90,false,stim,false,2,341.80000001192093,0,1,2,29495,task3,773684,false,true,703,image-keyboard-response,11
true,7,0,2,0,true,q,false,false,0.0-2.0-0.19-0.172-3.172,1,1,0,81,false,stim,false,0,723.0,0,1,0,29495,task3,775931,false,true,706,image-keyboard-response,12
true,8,1,2,0,false,q,true,false,0.0-2.0-0.19-0.173-3.173,1,0,1,90,true,stim,false,0,715.7999999970198,0,1,0,29495,task3,778174,false,false,709,image-keyboard-response,1
true,8,2,2,1,false,z,true,false,0.0-2.0-0.19-0.174-3.174,1,0,1,68,false,stim,false,1,757.0999999940395,0,1,2,29495,task3,780455,false,false,712,image-keyboard-response,2
true,8,1,2,2,false,d,false,true,0.0-2.0-0.19-0.175-3.175,1,0,1,90,false,stim,true,1,538.3000000119209,0,0,1,29495,task3,782511,false,true,715,image-keyboard-response,3
true,8,1,2,1,true,z,false,true,0.0-2.0-0.19-0.176-3.176,1,0,1,90,false,stim,false,1,908.2999999970198,0,1,2,29495,task3,784937,false,false,718,image-keyboard-response,4
true,8,0,2,0,true,q,false,true,0.0-2.0-0.19-0.177-3.177,1,0,1,81,false,stim,false,0,580.5,0,1,0,29495,task3,787049,false,false,721,image-keyboard-response,5
true,8,1,2,2,false,d,false,false,0.0-2.0-0.19-0.178-3.178,1,0,1,90,false,stim,true,1,463.3999999910593,0,0,1,29495,task3,789034,false,false,724,image-keyboard-response,6
true,8,0,2,2,false,d,true,false,0.0-2.0-0.19-0.179-3.179,1,0,1,81,false,stim,false,1,818.5999999940395,0,0,1,29495,task3,791388,false,false,727,image-keyboard-response,7
true,8,0,2,0,true,q,false,true,0.0-2.0-0.20-0.180-3.180,1,0,1,81,false,stim,false,0,676.5,0,1,0,29495,task3,793579,false,false,730,image-keyboard-response,8
true,8,1,2,1,true,z,false,true,0.0-2.0-0.20-0.181-3.181,1,0,1,90,false,stim,false,1,540.2000000029802,0,0,2,29495,task3,795634,false,false,733,image-keyboard-response,9
true,8,1,2,1,true,z,false,true,0.0-2.0-0.20-0.182-3.182,1,0,1,90,false,stim,false,1,578.5999999940395,0,0,2,29495,task3,797742,false,false,736,image-keyboard-response,10
true,8,1,2,2,false,d,false,false,0.0-2.0-0.20-0.183-3.183,1,0,1,90,false,stim,true,1,802.2000000029802,0,1,1,29495,task3,800069,false,false,739,image-keyboard-response,11
true,8,1,2,2,false,d,false,false,0.0-2.0-0.20-0.184-3.184,1,0,1,90,false,stim,true,1,670.5,0,1,1,29495,task3,802272,false,false,742,image-keyboard-response,12
true,9,2,2,2,true,d,false,true,0.0-2.0-0.20-0.185-3.185,1,1,0,68,true,stim,false,2,1176.2000000029802,0,1,1,29495,task3,804977,false,false,745,image-keyboard-response,1
true,9,0,2,0,true,q,false,true,0.0-2.0-0.20-0.186-3.186,1,1,0,81,false,stim,false,0,599.5,0,1,0,29495,task3,807095,false,false,748,image-keyboard-response,2
true,9,0,2,0,true,q,false,true,0.0-2.0-0.20-0.187-3.187,1,1,0,81,false,stim,false,0,754.2000000029802,0,1,0,29495,task3,809370,false,false,751,image-keyboard-response,3
true,9,1,2,2,false,d,false,false,0.0-2.0-0.20-0.188-3.188,1,1,0,90,false,stim,true,1,588.0999999940395,0,0,2,29495,task3,811478,false,false,754,image-keyboard-response,4
true,9,2,2,2,true,d,false,true,0.0-2.0-0.21-0.189-3.189,1,1,0,68,false,stim,false,2,548.0,0,1,1,29495,task3,813554,false,false,757,image-keyboard-response,5
true,9,0,2,0,true,q,false,true,0.0-2.0-0.21-0.190-3.190,1,1,0,81,false,stim,false,0,457.20000000298023,0,1,0,29495,task3,815536,false,false,760,image-keyboard-response,6
true,9,2,2,2,true,d,false,true,0.0-2.0-0.21-0.191-3.191,1,1,0,68,false,stim,false,2,381.8999999910593,0,1,1,29495,task3,817444,false,false,763,image-keyboard-response,7
true,9,2,2,2,true,d,false,true,0.0-2.0-0.21-0.192-3.192,1,1,0,68,false,stim,false,1,423.20000000298023,0,0,2,29495,task3,819401,false,false,766,image-keyboard-response,8
true,9,2,2,2,true,d,false,true,0.0-2.0-0.21-0.193-3.193,1,1,0,68,false,stim,false,1,448.5,0,0,2,29495,task3,821367,false,false,769,image-keyboard-response,9
true,9,2,2,2,true,d,false,true,0.0-2.0-0.21-0.194-3.194,1,1,0,68,false,stim,false,2,595.7000000029802,0,1,1,29495,task3,823481,false,false,772,image-keyboard-response,10
true,9,2,2,2,true,d,false,true,0.0-2.0-0.21-0.195-3.195,1,1,0,68,false,stim,false,1,572.7999999970198,0,1,2,29495,task3,825574,false,false,775,image-keyboard-response,11
true,9,0,2,0,true,q,false,true,0.0-2.0-0.21-0.196-3.196,1,1,0,81,false,stim,false,0,614.5,0,1,0,29495,task3,827707,false,false,778,image-keyboard-response,12
true,9,2,2,0,false,q,true,false,0.0-2.0-0.21-0.197-3.197,1,1,0,68,false,stim,false,0,410.0,0,1,0,29495,task3,829636,false,false,781,image-keyboard-response,13
true,9,2,2,2,true,d,false,true,0.0-2.0-0.22-0.198-3.198,1,1,0,68,false,stim,false,2,630.7000000029802,0,0,1,29495,task3,831797,false,false,784,image-keyboard-response,14
true,9,2,2,2,true,d,false,true,0.0-2.0-0.22-0.199-3.199,1,1,0,68,false,stim,false,1,493.5,0,1,2,29495,task3,833815,false,false,787,image-keyboard-response,15
true,10,0,2,0,true,q,false,true,0.0-2.0-0.22-0.200-3.200,1,0,1,81,true,stim,false,0,651.0,0,1,0,29495,task3,835991,false,false,790,image-keyboard-response,1
true,10,2,2,0,false,q,false,false,0.0-2.0-0.22-0.201-3.201,1,0,1,68,false,stim,true,2,587.0,0,0,1,29495,task3,838112,false,false,793,image-keyboard-response,2
true,10,0,2,0,true,q,false,true,0.0-2.0-0.22-0.202-3.202,1,0,1,81,false,stim,false,0,922.6000000089407,0,1,0,29495,task3,840563,false,false,796,image-keyboard-response,3
true,10,0,2,0,true,q,false,true,0.0-2.0-0.22-0.203-3.203,1,0,1,81,false,stim,false,0,423.09999999403954,0,1,0,29495,task3,842511,false,false,799,image-keyboard-response,4
true,10,2,2,2,true,d,false,true,0.0-2.0-0.22-0.204-3.204,1,0,1,68,false,stim,false,2,783.4000000059605,0,1,2,29495,task3,844829,false,false,802,image-keyboard-response,5
true,10,2,2,2,true,d,false,true,0.0-2.0-0.22-0.205-3.205,1,0,1,68,false,stim,false,2,496.40000000596046,0,1,2,29495,task3,846841,false,false,805,image-keyboard-response,6
true,10,2,2,0,false,q,false,false,0.0-2.0-0.22-0.206-3.206,1,0,1,68,false,stim,true,2,793.2999999970198,0,0,1,29495,task3,849154,false,false,808,image-keyboard-response,7
true,10,1,2,0,false,q,true,false,0.0-2.0-0.23-0.207-3.207,1,0,1,90,false,stim,false,2,475.09999999403954,0,0,1,29495,task3,851147,false,false,811,image-keyboard-response,8
true,10,2,2,2,true,d,false,true,0.0-2.0-0.23-0.208-3.208,1,0,1,68,false,stim,false,2,931.2000000029802,0,1,2,29495,task3,853599,false,false,814,image-keyboard-response,9
true,10,0,2,0,true,q,false,true,0.0-2.0-0.23-0.209-3.209,1,0,1,81,false,stim,false,2,739.7999999970198,0,1,1,29495,task3,855858,false,false,817,image-keyboard-response,10
true,10,0,2,0,true,q,false,true,0.0-2.0-0.23-0.210-3.210,1,0,1,81,false,stim,false,0,645.0999999940395,0,0,0,29495,task3,858019,false,false,820,image-keyboard-response,11
true,10,0,2,0,true,q,false,true,0.0-2.0-0.23-0.211-3.211,1,0,1,81,false,stim,false,0,545.6000000089407,0,0,0,29495,task3,860089,false,false,823,image-keyboard-response,12
true,10,0,2,0,true,q,false,true,0.0-2.0-0.23-0.212-3.212,1,0,1,81,false,stim,false,0,533.5,0,0,0,29495,task3,862141,false,false,826,image-keyboard-response,13
true,10,2,2,2,true,d,false,true,0.0-2.0-0.23-0.213-3.213,1,0,1,68,false,stim,false,2,696.8000000119209,0,1,2,29495,task3,864363,false,false,829,image-keyboard-response,14
true,11,0,2,0,true,q,false,true,0.0-2.0-0.23-0.214-3.214,0,1,1,81,true,stim,false,0,648.0999999940395,0,1,1,29495,task3,866539,false,false,832,image-keyboard-response,1
true,11,2,2,2,true,d,false,true,0.0-2.0-0.23-0.215-3.215,0,1,1,68,false,stim,false,2,612.0999999940395,0,1,2,29495,task3,868660,false,false,835,image-keyboard-response,2
true,11,2,2,2,true,d,false,true,0.0-2.0-0.24-0.216-3.216,0,1,1,68,false,stim,false,2,588.4000000059605,0,1,2,29495,task3,870772,false,false,838,image-keyboard-response,3
true,11,0,2,0,true,q,false,true,0.0-2.0-0.24-0.217-3.217,0,1,1,81,false,stim,false,0,569.4000000059605,0,1,1,29495,task3,872866,false,false,841,image-keyboard-response,4
true,11,0,2,2,false,d,false,false,0.0-2.0-0.24-0.218-3.218,0,1,1,81,false,stim,true,0,714.6000000089407,0,0,0,29495,task3,875112,false,false,844,image-keyboard-response,5
true,11,1,2,2,false,d,true,false,0.0-2.0-0.24-0.219-3.219,0,1,1,90,false,stim,false,0,548.2000000029802,0,0,0,29495,task3,877179,false,false,847,image-keyboard-response,6
true,11,2,2,2,true,d,false,true,0.0-2.0-0.24-0.220-3.220,0,1,1,68,false,stim,false,2,658.6999999880791,0,1,2,29495,task3,879360,false,false,850,image-keyboard-response,7
true,11,0,2,0,true,q,false,true,0.0-2.0-0.24-0.221-3.221,0,1,1,81,false,stim,false,0,1389.1000000089407,0,0,1,29495,task3,882277,false,false,853,image-keyboard-response,8
true,11,0,2,0,true,q,false,true,0.0-2.0-0.24-0.222-3.222,0,1,1,81,false,stim,false,0,702.2999999970198,0,0,1,29495,task3,884503,false,false,856,image-keyboard-response,9
true,11,2,2,2,true,d,false,true,0.0-2.0-0.24-0.223-3.223,0,1,1,68,false,stim,false,2,527.7999999970198,0,1,2,29495,task3,886545,false,false,859,image-keyboard-response,10
true,11,2,2,2,true,d,false,true,0.0-2.0-0.24-0.224-3.224,0,1,1,68,false,stim,false,0,431.79999999701977,0,1,0,29495,task3,888499,false,false,862,image-keyboard-response,11
true,11,2,2,2,true,d,false,true,0.0-2.0-0.25-0.225-3.225,0,1,1,68,false,stim,false,2,1798.6000000089407,0,1,2,29495,task3,891816,false,false,865,image-keyboard-response,12
true,12,2,2,2,true,d,false,true,0.0-2.0-0.25-0.226-3.226,1,0,1,68,true,stim,false,2,691.7000000029802,0,1,0,29495,task3,894034,false,false,868,image-keyboard-response,1
true,12,2,2,2,true,d,false,true,0.0-2.0-0.25-0.227-3.227,1,0,1,68,false,stim,false,2,714.7999999970198,0,1,2,29495,task3,896272,false,false,871,image-keyboard-response,2
true,12,0,2,1,false,z,false,false,0.0-2.0-0.25-0.228-3.228,1,0,1,81,false,stim,true,0,570.6000000089407,0,0,1,29495,task3,898367,false,false,874,image-keyboard-response,3
true,12,1,2,1,true,z,false,true,0.0-2.0-0.25-0.229-3.229,1,0,1,90,false,stim,false,0,565.4000000059605,0,0,1,29495,task3,900447,false,false,877,image-keyboard-response,4
true,12,1,2,1,true,z,false,true,0.0-2.0-0.25-0.230-3.230,1,0,1,90,false,stim,false,0,391.5,0,0,1,29495,task3,902354,false,false,880,image-keyboard-response,5
true,12,1,2,2,false,d,true,false,0.0-2.0-0.25-0.231-3.231,1,0,1,90,false,stim,false,2,629.9000000059605,0,1,0,29495,task3,904519,false,false,883,image-keyboard-response,6
true,12,2,2,2,true,d,false,false,0.0-2.0-0.25-0.232-3.232,1,0,1,68,false,stim,false,2,407.79999999701977,0,1,2,29495,task3,906453,false,true,886,image-keyboard-response,7
true,12,0,2,2,false,d,true,true,0.0-2.0-0.25-0.233-3.233,1,0,1,81,false,stim,false,2,439.5,0,1,0,29495,task3,908415,false,true,889,image-keyboard-response,8
true,12,0,2,2,false,d,true,false,0.0-2.0-0.26-0.234-3.234,1,0,1,81,false,stim,false,2,407.40000000596046,0,1,2,29495,task3,910335,false,false,892,image-keyboard-response,9
true,12,0,2,2,false,d,true,false,0.0-2.0-0.26-0.235-3.235,1,0,1,81,false,stim,false,2,816.6000000089407,0,1,0,29495,task3,912669,false,false,895,image-keyboard-response,10
true,12,1,2,2,false,d,true,false,0.0-2.0-0.26-0.236-3.236,1,0,1,90,false,stim,false,2,933.6999999880791,0,0,2,29495,task3,915120,false,false,898,image-keyboard-response,11
true,12,2,2,2,true,d,false,true,0.0-2.0-0.26-0.237-3.237,1,0,1,68,false,stim,false,2,647.6999999880791,0,0,2,29495,task3,917295,false,false,901,image-keyboard-response,12
true,12,1,2,1,true,z,false,true,0.0-2.0-0.26-0.238-3.238,1,0,1,90,false,stim,false,0,958.5999999940395,0,1,1,29495,task3,919764,false,false,904,image-keyboard-response,13
true,12,1,2,1,true,z,false,true,0.0-2.0-0.26-0.239-3.239,1,0,1,90,false,stim,false,0,490.29999999701977,0,1,1,29495,task3,921791,false,false,907,image-keyboard-response,14
true,12,2,2,2,true,d,false,true,0.0-2.0-0.26-0.240-3.240,1,0,1,68,false,stim,false,2,510.40000000596046,0,0,0,29495,task3,923826,false,false,910,image-keyboard-response,15
true,13,1,1,1,true,z,false,true,0.0-2.0-0.26-0.241-3.241,0,1,0,90,true,stim,false,1,1022.5999999940395,0,1,1,29495,task3,926371,false,false,913,image-keyboard-response,1
true,13,2,1,1,false,z,false,false,0.0-2.0-0.26-0.242-3.242,0,1,0,68,false,stim,true,2,496.90000000596046,0,0,0,29495,task3,928395,false,false,916,image-keyboard-response,2
true,13,1,1,1,true,z,false,true,0.0-2.0-0.27-0.243-3.243,0,1,0,90,false,stim,false,1,927.2999999970198,0,1,1,29495,task3,930843,false,false,919,image-keyboard-response,3
true,13,1,1,0,false,q,true,false,0.0-2.0-0.27-0.244-3.244,0,1,0,90,false,stim,false,2,630.8000000119209,0,0,2,29495,task3,932996,false,false,922,image-keyboard-response,4
true,13,2,1,0,false,q,false,false,0.0-2.0-0.27-0.245-3.245,0,1,0,68,false,stim,true,2,840.5,0,0,2,29495,task3,935354,false,false,925,image-keyboard-response,5
true,13,0,1,1,false,z,true,false,0.0-2.0-0.27-0.246-3.246,0,1,0,81,false,stim,false,2,980.7999999970198,0,0,0,29495,task3,937860,false,false,928,image-keyboard-response,6
true,13,2,1,1,false,z,false,false,0.0-2.0-0.27-0.247-3.247,0,1,0,68,false,stim,true,2,570.7000000029802,0,0,0,29495,task3,939956,false,false,931,image-keyboard-response,7
true,13,1,1,1,true,z,false,true,0.0-2.0-0.27-0.248-3.248,0,1,0,90,false,stim,false,1,920.7999999970198,0,1,1,29495,task3,942392,false,false,934,image-keyboard-response,8
true,13,1,1,1,true,z,false,true,0.0-2.0-0.27-0.249-3.249,0,1,0,90,false,stim,false,2,410.5,0,0,0,29495,task3,944329,false,false,937,image-keyboard-response,9
true,13,1,1,1,true,z,false,false,0.0-2.0-0.27-0.250-3.250,0,1,0,90,false,stim,false,1,473.29999999701977,0,1,1,29495,task3,946324,false,true,940,image-keyboard-response,10
true,13,0,1,0,true,q,false,true,0.0-2.0-0.27-0.251-3.251,0,1,0,81,false,stim,false,2,866.7999999970198,0,0,2,29495,task3,948726,false,false,943,image-keyboard-response,11
true,13,0,1,1,false,z,true,false,0.0-2.0-0.28-0.252-3.252,0,1,0,81,false,stim,false,1,591.5,0,1,1,29495,task3,950842,false,false,946,image-keyboard-response,12
true,13,2,1,1,false,z,true,false,0.0-2.0-0.28-0.253-3.253,0,1,0,68,false,stim,false,1,1108.0999999940395,0,1,1,29495,task3,953472,false,false,949,image-keyboard-response,13
true,13,0,1,0,true,q,false,true,0.0-2.0-0.28-0.254-3.254,0,1,0,81,false,stim,false,2,706.2999999970198,0,0,2,29495,task3,955696,false,false,952,image-keyboard-response,14
true,13,1,1,1,true,z,false,false,0.0-2.0-0.28-0.255-3.255,0,1,0,90,false,stim,false,2,376.0,0,0,0,29495,task3,957599,false,true,955,image-keyboard-response,15
true,13,0,1,0,true,q,false,true,0.0-2.0-0.28-0.256-3.256,0,1,0,81,false,stim,false,2,921.0,0,0,2,29495,task3,960044,false,false,958,image-keyboard-response,16
true,13,0,1,1,false,z,true,false,0.0-2.0-0.28-0.257-3.257,0,1,0,81,false,stim,false,2,445.70000000298023,0,0,0,29495,task3,962018,false,false,961,image-keyboard-response,17
true,13,0,1,1,false,z,true,false,0.0-2.0-0.28-0.258-3.258,0,1,0,81,false,stim,false,2,563.4000000059605,0,0,0,29495,task3,964101,false,false,964,image-keyboard-response,18
true,13,2,1,0,false,q,false,false,0.0-2.0-0.28-0.259-3.259,0,1,0,68,false,stim,true,2,647.5,0,0,2,29495,task3,966286,false,false,967,image-keyboard-response,19
true,13,1,1,1,true,z,false,true,0.0-2.0-0.28-0.260-3.260,0,1,0,90,false,stim,false,1,435.5,0,1,1,29495,task3,968235,false,false,970,image-keyboard-response,20
true,13,0,1,0,true,q,false,true,0.0-2.0-0.29-0.261-3.261,0,1,0,81,false,stim,false,2,590.9000000059605,0,0,2,29495,task3,970343,false,false,973,image-keyboard-response,21
true,13,1,1,1,true,z,false,true,0.0-2.0-0.29-0.262-3.262,0,1,0,90,false,stim,false,1,582.4000000059605,0,1,1,29495,task3,972443,false,false,976,image-keyboard-response,22
true,13,1,1,1,true,z,false,true,0.0-2.0-0.29-0.263-3.263,0,1,0,90,false,stim,false,1,557.6000000089407,0,1,1,29495,task3,974527,false,false,979,image-keyboard-response,23
true,13,1,1,1,true,z,false,true,0.0-2.0-0.29-0.264-3.264,0,1,0,90,false,stim,false,1,611.0999999940395,0,0,1,29495,task3,976662,false,false,982,image-keyboard-response,24
true,13,1,1,1,true,z,false,true,0.0-2.0-0.29-0.265-3.265,0,1,0,90,false,stim,false,2,1246.3999999910593,0,1,0,29495,task3,979433,false,false,985,image-keyboard-response,25
true,13,0,1,0,true,q,false,true,0.0-2.0-0.29-0.266-3.266,0,1,0,81,false,stim,false,2,913.3999999910593,0,0,2,29495,task3,981872,false,false,988,image-keyboard-response,26
true,13,1,1,1,true,z,false,true,0.0-2.0-0.29-0.267-3.267,0,1,0,90,false,stim,false,2,557.2999999970198,0,1,0,29495,task3,983962,false,false,991,image-keyboard-response,27
true,13,0,1,0,true,q,false,false,0.0-2.0-0.29-0.268-3.268,0,1,0,81,false,stim,false,2,929.3999999910593,0,0,2,29495,task3,986420,false,true,994,image-keyboard-response,28
true,14,1,1,1,true,z,false,true,0.0-2.0-0.29-0.269-3.269,1,0,0,90,true,stim,false,1,790.2999999970198,0,1,0,29495,task3,988729,false,false,997,image-keyboard-response,1
true,14,1,1,1,true,z,false,true,0.0-2.0-0.30-0.270-3.270,1,0,0,90,false,stim,false,1,458.6000000089407,0,1,0,29495,task3,990705,false,false,1000,image-keyboard-response,2
true,14,2,1,2,true,d,false,true,0.0-2.0-0.30-0.271-3.271,1,0,0,68,false,stim,false,0,700.2999999970198,0,0,2,29495,task3,992947,false,false,1003,image-keyboard-response,3
true,14,2,1,2,true,d,false,true,0.0-2.0-0.30-0.272-3.272,1,0,0,68,false,stim,false,0,436.0,0,0,2,29495,task3,994903,false,false,1006,image-keyboard-response,4
true,14,1,1,0,false,q,false,false,0.0-2.0-0.30-0.273-3.273,1,0,0,90,false,stim,true,1,473.0,0,0,1,29495,task3,996894,false,false,1009,image-keyboard-response,5
true,14,0,1,0,true,q,false,true,0.0-2.0-0.30-0.274-3.274,1,0,0,81,false,stim,false,1,1024.800000011921,0,0,1,29495,task3,999439,false,false,1012,image-keyboard-response,6
true,14,0,1,0,true,q,false,true,0.0-2.0-0.30-0.275-3.275,1,0,0,81,false,stim,false,1,429.5,0,0,1,29495,task3,1001383,false,false,1015,image-keyboard-response,7
true,14,0,1,1,false,z,true,true,0.0-2.0-0.30-0.276-3.276,1,0,0,81,false,stim,false,1,349.79999999701977,0,1,0,29495,task3,1003249,false,true,1018,image-keyboard-response,8
true,14,0,1,1,false,z,true,false,0.0-2.0-0.30-0.277-3.277,1,0,0,81,false,stim,false,1,330.90000000596046,0,1,0,29495,task3,1005108,false,false,1021,image-keyboard-response,9
true,14,2,1,2,true,d,false,true,0.0-2.0-0.30-0.278-3.278,1,0,0,68,false,stim,false,0,638.7000000029802,0,0,2,29495,task3,1007271,false,false,1024,image-keyboard-response,10
true,14,2,1,2,true,d,false,true,0.0-2.0-0.31-0.279-3.279,1,0,0,68,false,stim,false,0,371.29999999701977,0,0,2,29495,task3,1009163,false,false,1027,image-keyboard-response,11
true,14,1,1,1,true,z,false,true,0.0-2.0-0.31-0.280-3.280,1,0,0,90,false,stim,false,1,897.8000000119209,0,1,0,29495,task3,1011573,false,false,1030,image-keyboard-response,12
true,14,0,1,0,true,q,false,true,0.0-2.0-0.31-0.281-3.281,1,0,0,81,false,stim,false,1,852.4000000059605,0,0,1,29495,task3,1013939,false,false,1033,image-keyboard-response,13
true,14,2,1,2,true,d,false,true,0.0-2.0-0.31-0.282-3.282,1,0,0,68,false,stim,false,0,573.5999999940395,0,0,2,29495,task3,1016030,false,false,1036,image-keyboard-response,14
true,14,0,1,2,false,d,false,false,0.0-2.0-0.31-0.283-3.283,1,0,0,81,false,stim,true,0,515.7000000029802,0,0,2,29495,task3,1018073,false,false,1039,image-keyboard-response,15
true,14,1,1,1,true,z,false,true,0.0-2.0-0.31-0.284-3.284,1,0,0,90,false,stim,false,1,745.9000000059605,0,1,0,29495,task3,1020335,false,false,1042,image-keyboard-response,16
true,14,1,1,1,true,z,false,true,0.0-2.0-0.31-0.285-3.285,1,0,0,90,false,stim,false,1,537.5,0,1,0,29495,task3,1022405,false,false,1045,image-keyboard-response,17
true,14,0,1,0,true,q,false,true,0.0-2.0-0.31-0.286-3.286,1,0,0,81,false,stim,false,1,1058.0999999940395,0,0,1,29495,task3,1024983,false,false,1048,image-keyboard-response,18
true,14,0,1,0,true,q,false,true,0.0-2.0-0.31-0.287-3.287,1,0,0,81,false,stim,false,1,622.2000000029802,0,0,1,29495,task3,1027128,false,false,1051,image-keyboard-response,19
true,14,1,1,1,true,z,false,true,0.0-2.0-0.32-0.288-3.288,1,0,0,90,false,stim,false,1,651.7999999970198,0,1,0,29495,task3,1029308,false,false,1054,image-keyboard-response,20
true,14,2,1,0,false,q,true,false,0.0-2.0-0.32-0.289-3.289,1,0,0,68,false,stim,false,1,771.7000000029802,0,0,1,29495,task3,1031609,false,false,1057,image-keyboard-response,21
true,14,2,1,2,true,d,false,true,0.0-2.0-0.32-0.290-3.290,1,0,0,68,false,stim,false,0,475.09999999403954,0,0,2,29495,task3,1033603,false,false,1060,image-keyboard-response,22
true,14,1,1,1,true,z,false,false,0.0-2.0-0.32-0.291-3.291,1,0,0,90,false,stim,false,1,516.3999999910593,0,1,0,29495,task3,1035642,false,true,1063,image-keyboard-response,23
true,14,0,1,1,false,z,true,false,0.0-2.0-0.32-0.292-3.292,1,0,0,81,false,stim,false,1,710.7000000029802,0,1,0,29495,task3,1037880,false,false,1066,image-keyboard-response,24
true,14,2,1,2,true,d,false,true,0.0-2.0-0.32-0.293-3.293,1,0,0,68,false,stim,false,0,550.3999999910593,0,0,2,29495,task3,1039951,false,false,1069,image-keyboard-response,25
true,14,0,1,0,true,q,false,true,0.0-2.0-0.32-0.294-3.294,1,0,0,81,false,stim,false,1,986.3999999910593,0,1,1,29495,task3,1042462,false,false,1072,image-keyboard-response,26
true,14,0,1,0,true,q,false,true,0.0-2.0-0.32-0.295-3.295,1,0,0,81,false,stim,false,1,607.5,0,1,1,29495,task3,1044601,false,false,1075,image-keyboard-response,27
true,14,2,1,2,true,d,false,true,0.0-2.0-0.32-0.296-3.296,1,0,0,68,false,stim,false,0,617.6000000089407,0,0,2,29495,task3,1046740,false,false,1078,image-keyboard-response,28
true,14,2,1,1,false,z,true,false,0.0-2.0-0.33-0.297-3.297,1,0,0,68,false,stim,false,1,925.5,0,0,0,29495,task3,1049181,false,false,1081,image-keyboard-response,29
true,15,0,1,2,false,d,true,false,0.0-2.0-0.33-0.298-3.298,0,1,0,81,true,stim,false,1,681.9000000059605,0,0,0,29495,task3,1051390,false,false,1084,image-keyboard-response,1
true,15,0,1,0,true,q,false,true,0.0-2.0-0.33-0.299-3.299,0,1,0,81,false,stim,false,0,1267.5,0,1,1,29495,task3,1054182,false,false,1087,image-keyboard-response,2
true,15,2,1,1,false,z,false,false,0.0-2.0-0.33-0.300-3.300,0,1,0,68,false,stim,true,2,597.0,0,0,2,29495,task3,1056302,false,false,1090,image-keyboard-response,3
true,15,1,1,2,false,d,false,false,0.0-2.0-0.33-0.301-3.301,0,1,0,90,false,stim,true,1,726.2999999970198,0,0,0,29495,task3,1058551,false,false,1093,image-keyboard-response,4
true,15,0,1,0,true,q,false,true,0.0-2.0-0.33-0.302-3.302,0,1,0,81,false,stim,false,0,1954.800000011921,0,1,1,29495,task3,1062025,false,false,1096,image-keyboard-response,5
true,15,0,1,0,true,q,false,true,0.0-2.0-0.33-0.303-3.303,0,1,0,81,false,stim,false,0,474.5,0,1,1,29495,task3,1064018,false,false,1099,image-keyboard-response,6
true,15,2,1,1,false,z,false,false,0.0-2.0-0.33-0.304-3.304,0,1,0,68,false,stim,true,2,710.7000000029802,0,0,2,29495,task3,1066276,false,false,1102,image-keyboard-response,7
true,15,1,1,1,true,z,false,false,0.0-2.0-0.33-0.305-3.305,0,1,0,90,false,stim,false,2,612.2999999970198,0,0,2,29495,task3,1068408,false,true,1105,image-keyboard-response,8
true,15,2,1,1,false,z,false,false,0.0-2.0-0.34-0.306-3.306,0,1,0,68,false,stim,true,2,710.0,0,0,2,29495,task3,1070632,false,false,1108,image-keyboard-response,9
true,15,0,1,0,true,q,false,true,0.0-2.0-0.34-0.307-3.307,0,1,0,81,false,stim,false,0,419.09999999403954,0,1,1,29495,task3,1072567,false,false,1111,image-keyboard-response,10
true,15,0,1,0,true,q,false,true,0.0-2.0-0.34-0.308-3.308,0,1,0,81,false,stim,false,0,428.79999999701977,0,0,1,29495,task3,1074519,false,false,1114,image-keyboard-response,11
true,15,1,1,2,false,d,false,false,0.0-2.0-0.34-0.309-3.309,0,1,0,90,false,stim,true,1,679.8999999910593,0,1,0,29495,task3,1076721,false,false,1117,image-keyboard-response,12
true,15,0,1,2,false,d,true,false,0.0-2.0-0.34-0.310-3.310,0,1,0,81,false,stim,false,1,753.7000000029802,0,1,0,29495,task3,1079009,false,false,1120,image-keyboard-response,13
true,15,0,1,1,false,z,true,false,0.0-2.0-0.34-0.311-3.311,0,1,0,81,false,stim,false,2,524.5999999940395,0,1,2,29495,task3,1081065,false,false,1123,image-keyboard-response,14
true,15,1,1,0,false,q,true,false,0.0-2.0-0.34-0.312-3.312,0,1,0,90,false,stim,false,0,425.70000000298023,0,0,1,29495,task3,1083015,false,false,1126,image-keyboard-response,15
true,16,2,2,1,false,z,true,false,0.0-2.0-0.34-0.313-3.313,1,0,1,68,true,stim,false,1,742.4000000059605,0,1,2,29495,task3,1085281,false,false,1129,image-keyboard-response,1
true,16,1,2,2,false,d,true,false,0.0-2.0-0.34-0.314-3.314,1,0,1,90,false,stim,false,2,399.70000000298023,0,1,0,29495,task3,1087204,false,false,1132,image-keyboard-response,2
true,16,0,2,2,false,d,true,false,0.0-2.0-0.35-0.315-3.315,1,0,1,81,false,stim,false,2,805.8999999910593,0,1,0,29495,task3,1089534,false,false,1135,image-keyboard-response,3
true,16,2,2,1,false,z,true,false,0.0-2.0-0.35-0.316-3.316,1,0,1,68,false,stim,false,1,772.5999999940395,0,1,2,29495,task3,1091827,false,false,1138,image-keyboard-response,4
true,16,2,2,2,true,d,false,true,0.0-2.0-0.35-0.317-3.317,1,0,1,68,false,stim,false,2,1077.2999999970198,0,1,0,29495,task3,1094420,false,false,1141,image-keyboard-response,5
true,16,0,2,2,false,d,false,false,0.0-2.0-0.35-0.318-3.318,1,0,1,81,false,stim,true,0,743.2000000029802,0,0,1,29495,task3,1096696,false,false,1144,image-keyboard-response,6
true,16,1,2,1,true,z,false,true,0.0-2.0-0.35-0.319-3.319,1,0,1,90,false,stim,false,1,530.3999999910593,0,1,2,29495,task3,1098749,false,false,1147,image-keyboard-response,7
true,16,2,2,2,true,d,false,true,0.0-2.0-0.35-0.320-3.320,1,0,1,68,false,stim,false,2,734.7999999970198,0,0,0,29495,task3,1101010,false,false,1150,image-keyboard-response,8
true,16,1,2,1,true,z,false,true,0.0-2.0-0.35-0.321-3.321,1,0,1,90,false,stim,false,1,1464.800000011921,0,0,2,29495,task3,1103989,false,false,1153,image-keyboard-response,9
true,16,0,2,2,false,d,false,false,0.0-2.0-0.35-0.322-3.322,1,0,1,81,false,stim,true,0,450.70000000298023,0,1,1,29495,task3,1105958,false,false,1156,image-keyboard-response,10
true,16,2,2,2,true,d,false,true,0.0-2.0-0.35-0.323-3.323,1,0,1,68,false,stim,false,0,605.1999999880791,0,1,1,29495,task3,1108079,false,false,1159,image-keyboard-response,11
true,16,2,2,2,true,d,false,true,0.0-2.0-0.36-0.324-3.324,1,0,1,68,false,stim,false,0,514.5,0,1,1,29495,task3,1110121,false,false,1162,image-keyboard-response,12
true,17,1,1,0,false,q,false,false,0.0-2.0-0.36-0.325-3.325,0,1,0,90,true,stim,true,1,580.7999999970198,0,0,2,29495,task3,1112221,false,false,1165,image-keyboard-response,1
true,17,2,1,0,false,q,false,false,0.0-2.0-0.36-0.326-3.326,0,1,0,68,false,stim,true,2,816.4000000059605,0,0,0,29495,task3,1114555,false,false,1168,image-keyboard-response,2
true,17,0,1,2,false,d,true,true,0.0-2.0-0.36-0.327-3.327,0,1,0,81,false,stim,false,2,591.7999999970198,0,1,1,29495,task3,1116660,false,true,1171,image-keyboard-response,3
true,17,0,1,0,true,q,false,true,0.0-2.0-0.36-0.328-3.328,0,1,0,81,false,stim,false,2,384.40000000596046,0,0,0,29495,task3,1118563,false,false,1174,image-keyboard-response,4
true,17,1,1,0,false,q,false,false,0.0-2.0-0.36-0.329-3.329,0,1,0,90,false,stim,true,1,782.3000000119209,0,0,2,29495,task3,1120878,false,false,1177,image-keyboard-response,5
true,17,2,1,0,false,q,true,false,0.0-2.0-0.36-0.330-3.330,0,1,0,68,false,stim,false,1,528.3000000119209,0,0,2,29495,task3,1122923,false,false,1180,image-keyboard-response,6
true,17,0,1,2,false,d,true,false,0.0-2.0-0.36-0.331-3.331,0,1,0,81,false,stim,false,2,552.0999999940395,0,1,1,29495,task3,1124990,false,false,1183,image-keyboard-response,7
true,17,0,1,0,true,q,false,true,0.0-2.0-0.36-0.332-3.332,0,1,0,81,false,stim,false,2,657.7999999970198,0,0,0,29495,task3,1127167,false,false,1186,image-keyboard-response,8
true,17,0,1,2,false,d,true,false,0.0-2.0-0.37-0.333-3.333,0,1,0,81,false,stim,false,2,495.19999998807907,0,1,1,29495,task3,1129190,false,false,1189,image-keyboard-response,9
true,17,1,1,0,false,q,false,false,0.0-2.0-0.37-0.334-3.334,0,1,0,90,false,stim,true,1,330.20000000298023,0,0,2,29495,task3,1131048,false,false,1192,image-keyboard-response,10
true,17,2,1,0,false,q,false,false,0.0-2.0-0.37-0.335-3.335,0,1,0,68,false,stim,true,2,670.7000000029802,0,0,0,29495,task3,1133251,false,false,1195,image-keyboard-response,11
true,17,0,1,2,false,d,true,false,0.0-2.0-0.37-0.336-3.336,0,1,0,81,false,stim,false,2,615.3999999910593,0,1,1,29495,task3,1135392,false,false,1198,image-keyboard-response,12
true,17,2,1,0,false,q,true,false,0.0-2.0-0.37-0.337-3.337,0,1,0,68,false,stim,false,1,1800.0,0,0,2,29495,task3,1138738,false,false,1201,image-keyboard-response,13
true,17,0,1,0,true,q,false,true,0.0-2.0-0.37-0.338-3.338,0,1,0,81,false,stim,false,2,660.2000000029802,0,0,0,29495,task3,1140917,false,false,1204,image-keyboard-response,14
true,17,0,1,0,true,q,false,true,0.0-2.0-0.37-0.339-3.339,0,1,0,81,false,stim,false,2,865.7000000029802,0,0,0,29495,task3,1143296,false,false,1207,image-keyboard-response,15
true,17,1,1,0,false,q,false,false,0.0-2.0-0.37-0.340-3.340,0,1,0,90,false,stim,true,1,805.3000000119209,0,0,2,29495,task3,1145617,false,false,1210,image-keyboard-response,16
true,17,1,1,2,false,d,true,false,0.0-2.0-0.37-0.341-3.341,0,1,0,90,false,stim,false,2,858.5,0,1,1,29495,task3,1147996,false,false,1213,image-keyboard-response,17
true,17,2,1,0,false,q,false,false,0.0-2.0-0.38-0.342-3.342,0,1,0,68,false,stim,true,2,513.2000000029802,0,0,0,29495,task3,1150033,false,false,1216,image-keyboard-response,18
true,17,0,1,0,true,q,false,true,0.0-2.0-0.38-0.343-3.343,0,1,0,81,false,stim,false,1,755.8000000119209,0,0,2,29495,task3,1152301,false,false,1219,image-keyboard-response,19
true,17,1,1,0,false,q,true,false,0.0-2.0-0.38-0.344-3.344,0,1,0,90,false,stim,false,2,1217.6000000089407,0,0,0,29495,task3,1155047,false,false,1222,image-keyboard-response,20
true,17,2,1,2,true,d,false,false,0.0-2.0-0.38-0.345-3.345,0,1,0,68,false,stim,false,2,981.5999999940395,0,1,1,29495,task3,1157542,false,true,1225,image-keyboard-response,21
true,17,0,1,0,true,q,false,true,0.0-2.0-0.38-0.346-3.346,0,1,0,81,false,stim,false,1,668.8999999910593,0,0,2,29495,task3,1159739,false,false,1228,image-keyboard-response,22
true,17,0,1,2,false,d,true,false,0.0-2.0-0.38-0.347-3.347,0,1,0,81,false,stim,false,2,540.5,0,1,1,29495,task3,1161800,false,false,1231,image-keyboard-response,23
true,17,0,1,2,false,d,true,false,0.0-2.0-0.38-0.348-3.348,0,1,0,81,false,stim,false,2,691.0999999940395,0,1,1,29495,task3,1164010,false,false,1234,image-keyboard-response,24
true,17,0,1,0,true,q,false,true,0.0-2.0-0.38-0.349-3.349,0,1,0,81,false,stim,false,1,745.5999999940395,0,1,2,29495,task3,1166278,false,false,1237,image-keyboard-response,25
true,17,1,1,0,false,q,true,false,0.0-2.0-0.38-0.350-3.350,0,1,0,90,false,stim,false,2,791.7999999970198,0,0,0,29495,task3,1168588,false,false,1240,image-keyboard-response,26
true,17,2,1,0,false,q,false,false,0.0-2.0-0.39-0.351-3.351,0,1,0,68,false,stim,true,2,891.1000000089407,0,0,0,29495,task3,1170998,false,false,1243,image-keyboard-response,27
true,17,1,1,0,false,q,false,true,0.0-2.0-0.39-0.352-3.352,0,1,0,90,false,stim,true,1,732.8000000119209,0,1,2,29495,task3,1173255,false,true,1246,image-keyboard-response,28
true,18,0,2,2,false,d,false,false,0.0-2.0-0.39-0.353-3.353,0,1,1,81,true,stim,true,0,611.4000000059605,0,0,0,29495,task3,1175384,false,false,1249,image-keyboard-response,1
true,18,2,2,2,true,d,false,false,0.0-2.0-0.39-0.354-3.354,0,1,1,68,false,stim,false,2,970.1000000089407,0,1,1,29495,task3,1177877,false,true,1252,image-keyboard-response,2
true,18,1,2,0,false,q,true,true,0.0-2.0-0.39-0.355-3.355,0,1,1,90,false,stim,false,0,755.8999999910593,0,1,2,29495,task3,1180160,false,true,1255,image-keyboard-response,3
true,18,1,2,2,false,d,true,false,0.0-2.0-0.39-0.356-3.356,0,1,1,90,false,stim,false,2,415.20000000298023,0,1,1,29495,task3,1182102,false,false,1258,image-keyboard-response,4
true,18,1,2,2,false,d,true,true,0.0-2.0-0.39-0.357-3.357,0,1,1,90,false,stim,false,0,856.0,0,0,0,29495,task3,1184484,false,true,1261,image-keyboard-response,5
true,18,1,2,0,false,q,true,false,0.0-2.0-0.39-0.358-3.358,0,1,1,90,false,stim,false,0,963.3999999910593,0,1,2,29495,task3,1186975,false,false,1264,image-keyboard-response,6
true,18,1,2,2,false,d,true,false,0.0-2.0-0.39-0.359-3.359,0,1,1,90,false,stim,false,2,589.6000000089407,0,1,1,29495,task3,1189091,false,false,1267,image-keyboard-response,7
true,18,2,2,0,false,q,true,false,0.0-2.0-0.40-0.360-3.360,0,1,1,68,false,stim,false,0,583.2999999970198,0,0,2,29495,task3,1191193,false,false,1270,image-keyboard-response,8
true,18,0,2,2,false,d,false,false,0.0-2.0-0.40-0.361-3.361,0,1,1,81,false,stim,true,0,964.8999999910593,0,1,0,29495,task3,1193673,false,false,1273,image-keyboard-response,9
true,18,1,2,2,false,d,true,false,0.0-2.0-0.40-0.362-3.362,0,1,1,90,false,stim,false,2,386.79999999701977,0,0,1,29495,task3,1195580,false,false,1276,image-keyboard-response,10
true,18,0,2,2,false,d,true,false,0.0-2.0-0.40-0.363-3.363,0,1,1,81,false,stim,false,2,1361.2999999970198,0,0,1,29495,task3,1198459,false,false,1279,image-keyboard-response,11
true,18,1,2,0,false,q,true,true,0.0-2.0-0.40-0.364-3.364,0,1,1,90,false,stim,false,0,2382.8999999910593,0,0,2,29495,task3,1202372,false,true,1282,image-keyboard-response,12
true,19,0,1,2,false,d,true,false,0.0-2.0-0.40-0.365-3.365,1,0,0,81,true,stim,false,2,640.1999999880791,0,1,0,29495,task3,1204538,false,false,1285,image-keyboard-response,1
true,19,1,1,1,true,z,false,true,0.0-2.0-0.40-0.366-3.366,1,0,0,90,false,stim,false,2,375.69999998807907,0,0,1,29495,task3,1206432,false,false,1288,image-keyboard-response,2
true,19,2,1,1,false,z,true,true,0.0-2.0-0.40-0.367-3.367,1,0,0,68,false,stim,false,0,516.5,0,0,2,29495,task3,1208463,false,true,1291,image-keyboard-response,3
true,19,1,1,2,false,d,true,false,0.0-2.0-0.40-0.368-3.368,1,0,0,90,false,stim,false,2,401.30000001192093,0,1,0,29495,task3,1210385,false,false,1294,image-keyboard-response,4
true,19,2,1,1,false,z,true,false,0.0-2.0-0.41-0.369-3.369,1,0,0,68,false,stim,false,0,990.0,0,0,2,29495,task3,1212899,false,false,1297,image-keyboard-response,5
true,19,2,1,1,false,z,true,false,0.0-2.0-0.41-0.370-3.370,1,0,0,68,false,stim,false,0,522.1000000089407,0,0,2,29495,task3,1214951,false,false,1300,image-keyboard-response,6
true,19,1,1,1,true,z,false,false,0.0-2.0-0.41-0.371-3.371,1,0,0,90,false,stim,false,2,368.40000000596046,0,0,1,29495,task3,1216854,false,true,1303,image-keyboard-response,7
true,19,0,1,2,false,d,true,false,0.0-2.0-0.41-0.372-3.372,1,0,0,81,false,stim,false,2,444.29999999701977,0,1,0,29495,task3,1218827,false,false,1306,image-keyboard-response,8
true,19,1,1,2,false,d,true,false,0.0-2.0-0.41-0.373-3.373,1,0,0,90,false,stim,false,2,480.90000000596046,0,1,0,29495,task3,1220830,false,false,1309,image-keyboard-response,9
true,19,2,1,2,true,d,false,true,0.0-2.0-0.41-0.374-3.374,1,0,0,68,false,stim,false,2,575.3999999910593,0,1,0,29495,task3,1222944,false,false,1312,image-keyboard-response,10
true,19,0,1,1,false,z,false,false,0.0-2.0-0.41-0.375-3.375,1,0,0,81,false,stim,true,0,974.0,0,0,2,29495,task3,1225433,false,false,1315,image-keyboard-response,11
true,19,2,1,1,false,z,false,false,0.0-2.0-0.41-0.376-3.376,1,0,0,68,false,stim,true,2,781.0,0,0,1,29495,task3,1227747,false,false,1318,image-keyboard-response,12
true,19,1,1,1,true,z,false,true,0.0-2.0-0.41-0.377-3.377,1,0,0,90,false,stim,false,2,304.09999999403954,0,0,1,29495,task3,1229571,false,false,1321,image-keyboard-response,13
true,19,1,1,2,false,d,true,false,0.0-2.0-0.42-0.378-3.378,1,0,0,90,false,stim,false,2,587.7999999970198,0,1,0,29495,task3,1231686,false,false,1324,image-keyboard-response,14
true,19,0,1,1,false,z,false,false,0.0-2.0-0.42-0.379-3.379,1,0,0,81,false,stim,true,0,533.9000000059605,0,0,2,29495,task3,1233749,false,false,1327,image-keyboard-response,15
true,19,2,1,2,true,d,false,true,0.0-2.0-0.42-0.380-3.380,1,0,0,68,false,stim,false,2,717.3999999910593,0,1,0,29495,task3,1235990,false,false,1330,image-keyboard-response,16
true,19,2,1,1,false,z,false,false,0.0-2.0-0.42-0.381-3.381,1,0,0,68,false,stim,true,2,1014.4000000059605,0,0,1,29495,task3,1238519,false,false,1333,image-keyboard-response,17
true,19,1,1,1,true,z,false,true,0.0-2.0-0.42-0.382-3.382,1,0,0,90,false,stim,false,0,1376.0,0,0,2,29495,task3,1241419,false,false,1336,image-keyboard-response,18
true,19,1,1,1,true,z,false,true,0.0-2.0-0.42-0.383-3.383,1,0,0,90,false,stim,false,2,410.20000000298023,0,0,1,29495,task3,1243355,false,false,1339,image-keyboard-response,19
true,19,2,1,1,false,z,true,false,0.0-2.0-0.42-0.384-3.384,1,0,0,68,false,stim,false,0,493.5,0,0,2,29495,task3,1245371,false,false,1342,image-keyboard-response,20
true,19,1,1,1,true,z,false,true,0.0-2.0-0.42-0.385-3.385,1,0,0,90,false,stim,false,2,668.7999999970198,0,1,1,29495,task3,1247562,false,false,1345,image-keyboard-response,21
true,19,0,1,2,false,d,true,false,0.0-2.0-0.42-0.386-3.386,1,0,0,81,false,stim,false,2,514.8999999910593,0,1,0,29495,task3,1249592,false,false,1348,image-keyboard-response,22
true,19,1,1,1,true,z,false,true,0.0-2.0-0.43-0.387-3.387,1,0,0,90,false,stim,false,0,560.5,0,0,2,29495,task3,1251687,false,false,1351,image-keyboard-response,23
true,19,2,1,2,true,d,false,true,0.0-2.0-0.43-0.388-3.388,1,0,0,68,false,stim,false,2,339.80000001192093,0,1,0,29495,task3,1253549,false,false,1354,image-keyboard-response,24
true,20,1,2,1,true,z,false,true,0.0-2.0-0.43-0.389-3.389,1,1,0,90,true,stim,false,1,902.7000000029802,0,1,1,29495,task3,1255979,false,false,1357,image-keyboard-response,1
true,20,0,2,0,true,q,false,true,0.0-2.0-0.43-0.390-3.390,1,1,0,81,false,stim,false,1,792.7999999970198,0,0,2,29495,task3,1258291,false,false,1360,image-keyboard-response,2
true,20,2,2,1,false,z,true,false,0.0-2.0-0.43-0.391-3.391,1,1,0,68,false,stim,false,1,706.3999999910593,0,1,1,29495,task3,1260522,false,false,1363,image-keyboard-response,3
true,20,1,2,1,true,z,false,true,0.0-2.0-0.43-0.392-3.392,1,1,0,90,false,stim,false,1,493.09999999403954,0,1,1,29495,task3,1262533,false,false,1366,image-keyboard-response,4
true,20,0,2,0,true,q,false,true,0.0-2.0-0.43-0.393-3.393,1,1,0,81,false,stim,false,1,690.4000000059605,0,0,2,29495,task3,1264740,false,false,1369,image-keyboard-response,5
true,20,2,2,2,true,d,false,true,0.0-2.0-0.43-0.394-3.394,1,1,0,68,false,stim,false,2,524.5999999940395,0,1,0,29495,task3,1266780,false,false,1372,image-keyboard-response,6
true,20,2,2,2,true,d,false,true,0.0-2.0-0.43-0.395-3.395,1,1,0,68,false,stim,false,2,816.5,0,1,0,29495,task3,1269122,false,false,1375,image-keyboard-response,7
true,20,1,2,1,true,z,false,true,0.0-2.0-0.44-0.396-3.396,1,1,0,90,false,stim,false,1,601.6000000089407,0,1,1,29495,task3,1271246,false,false,1378,image-keyboard-response,8
true,20,1,2,1,true,z,false,true,0.0-2.0-0.44-0.397-3.397,1,1,0,90,false,stim,false,1,393.90000000596046,0,0,1,29495,task3,1273154,false,false,1381,image-keyboard-response,9
true,20,1,2,2,false,d,true,false,0.0-2.0-0.44-0.398-3.398,1,1,0,90,false,stim,false,2,453.59999999403954,0,1,0,29495,task3,1275125,false,false,1384,image-keyboard-response,10
true,20,1,2,1,true,z,false,true,0.0-2.0-0.44-0.399-3.399,1,1,0,90,false,stim,false,1,728.1000000089407,0,0,1,29495,task3,1277380,false,false,1387,image-keyboard-response,11
true,20,2,2,2,true,d,false,false,0.0-2.0-0.44-0.400-3.400,1,1,0,68,false,stim,false,2,736.0999999940395,0,1,0,29495,task3,1279638,false,true,1390,image-keyboard-response,12
true,20,0,2,0,true,q,false,true,0.0-2.0-0.44-0.401-3.401,1,1,0,81,false,stim,false,1,862.5,0,1,2,29495,task3,1282029,false,false,1393,image-keyboard-response,13
true,21,2,2,2,true,d,false,true,0.0-2.0-0.44-0.402-3.402,1,0,1,68,true,stim,false,2,1060.6000000089407,0,1,0,29495,task3,1284615,false,false,1396,image-keyboard-response,1
true,21,0,2,0,true,q,false,true,0.0-2.0-0.44-0.403-3.403,1,0,1,81,false,stim,false,0,422.20000000298023,0,1,2,29495,task3,1286556,false,false,1399,image-keyboard-response,2
true,21,2,2,0,false,q,true,false,0.0-2.0-0.44-0.404-3.404,1,0,1,68,false,stim,false,0,818.3999999910593,0,1,2,29495,task3,1288925,false,false,1402,image-keyboard-response,3
true,21,0,2,0,true,q,false,true,0.0-2.0-0.45-0.405-3.405,1,0,1,81,false,stim,false,0,598.5,0,1,2,29495,task3,1291049,false,false,1405,image-keyboard-response,4
true,21,1,2,0,false,q,false,false,0.0-2.0-0.45-0.406-3.406,1,0,1,90,false,stim,true,1,554.7999999970198,0,0,1,29495,task3,1293118,false,false,1408,image-keyboard-response,5
true,21,0,2,0,true,q,false,true,0.0-2.0-0.45-0.407-3.407,1,0,1,81,false,stim,false,0,1211.5999999940395,0,1,2,29495,task3,1295858,false,false,1411,image-keyboard-response,6
true,21,2,2,0,false,q,true,true,0.0-2.0-0.45-0.408-3.408,1,0,1,68,false,stim,false,1,538.0,0,0,1,29495,task3,1297934,false,true,1414,image-keyboard-response,7
true,21,0,2,0,true,q,false,false,0.0-2.0-0.45-0.409-3.409,1,0,1,81,false,stim,false,0,548.6000000089407,0,1,2,29495,task3,1300003,false,true,1417,image-keyboard-response,8
true,21,2,2,2,true,d,false,true,0.0-2.0-0.45-0.410-3.410,1,0,1,68,false,stim,false,2,696.7999999970198,0,1,0,29495,task3,1302218,false,false,1420,image-keyboard-response,9
true,21,2,2,2,true,d,false,true,0.0-2.0-0.45-0.411-3.411,1,0,1,68,false,stim,false,2,412.70000000298023,0,0,0,29495,task3,1304150,false,false,1423,image-keyboard-response,10
true,21,2,2,2,true,d,false,true,0.0-2.0-0.45-0.412-3.412,1,0,1,68,false,stim,false,2,418.09999999403954,0,0,0,29495,task3,1306096,false,false,1426,image-keyboard-response,11
true,21,0,2,0,true,q,false,true,0.0-2.0-0.45-0.413-3.413,1,0,1,81,false,stim,false,1,1091.300000011921,0,1,1,29495,task3,1308708,false,false,1429,image-keyboard-response,12
true,21,1,2,2,false,d,true,false,0.0-2.0-0.46-0.414-3.414,1,0,1,90,false,stim,false,2,1056.1000000089407,0,0,0,29495,task3,1311300,false,false,1432,image-keyboard-response,13
true,21,2,2,0,false,q,true,true,0.0-2.0-0.46-0.415-3.415,1,0,1,68,false,stim,false,1,1108.7000000029802,0,1,1,29495,task3,1313941,false,true,1435,image-keyboard-response,14
true,22,0,1,1,false,z,true,false,0.0-2.0-0.46-0.416-3.416,0,1,0,81,true,stim,false,2,615.8999999910593,0,0,0,29495,task3,1316076,false,false,1438,image-keyboard-response,1
true,22,2,1,1,false,z,true,false,0.0-2.0-0.46-0.417-3.417,0,1,0,68,false,stim,false,0,284.59999999403954,0,0,2,29495,task3,1317883,false,false,1441,image-keyboard-response,2
true,22,1,1,0,false,q,true,false,0.0-2.0-0.46-0.418-3.418,0,1,0,90,false,stim,false,0,371.5,0,1,1,29495,task3,1319781,false,false,1444,image-keyboard-response,3
true,22,0,1,1,false,z,true,false,0.0-2.0-0.46-0.419-3.419,0,1,0,81,false,stim,false,2,636.0,0,0,0,29495,task3,1321933,false,false,1447,image-keyboard-response,4
true,22,2,1,1,false,z,true,false,0.0-2.0-0.46-0.420-3.420,0,1,0,68,false,stim,false,0,673.5999999940395,0,0,2,29495,task3,1324131,false,false,1450,image-keyboard-response,5
true,22,1,1,1,true,z,false,true,0.0-2.0-0.46-0.421-3.421,0,1,0,90,false,stim,false,0,412.0,0,0,2,29495,task3,1326067,false,false,1453,image-keyboard-response,6
true,22,0,1,0,true,q,false,true,0.0-2.0-0.46-0.422-3.422,0,1,0,81,false,stim,false,0,1052.7000000029802,0,1,1,29495,task3,1328646,false,false,1456,image-keyboard-response,7
true,22,2,1,1,false,z,false,false,0.0-2.0-0.47-0.423-3.423,0,1,0,68,false,stim,true,2,507.30000001192093,0,0,0,29495,task3,1330680,false,false,1459,image-keyboard-response,8
true,22,1,1,1,true,z,false,false,0.0-2.0-0.47-0.424-3.424,0,1,0,90,false,stim,false,0,1127.7000000029802,0,1,2,29495,task3,1333331,false,true,1462,image-keyboard-response,9
true,22,0,1,1,false,z,false,false,0.0-2.0-0.47-0.425-3.425,0,1,0,81,false,stim,true,0,279.0,0,1,2,29495,task3,1335130,false,false,1465,image-keyboard-response,10
true,22,1,1,1,true,z,false,true,0.0-2.0-0.47-0.426-3.426,0,1,0,90,false,stim,false,2,522.2999999970198,0,1,0,29495,task3,1337175,false,false,1468,image-keyboard-response,11
true,22,1,1,0,false,q,true,false,0.0-2.0-0.47-0.427-3.427,0,1,0,90,false,stim,false,0,353.09999999403954,0,0,1,29495,task3,1339045,false,false,1471,image-keyboard-response,12
true,22,1,1,1,true,z,false,true,0.0-2.0-0.47-0.428-3.428,0,1,0,90,false,stim,false,2,650.3000000119209,0,1,0,29495,task3,1341219,false,false,1474,image-keyboard-response,13
true,23,0,2,2,false,d,false,false,0.0-2.0-0.47-0.429-3.429,1,0,1,81,true,stim,true,0,460.1000000089407,0,0,1,29495,task3,1343211,false,false,1477,image-keyboard-response,1
true,23,2,2,2,true,d,false,true,0.0-2.0-0.47-0.430-3.430,1,0,1,68,false,stim,false,0,851.1999999880791,0,0,1,29495,task3,1345584,false,false,1480,image-keyboard-response,2
true,23,0,2,1,false,z,true,false,0.0-2.0-0.47-0.431-3.431,1,0,1,81,false,stim,false,1,708.9000000059605,0,1,2,29495,task3,1347808,false,false,1483,image-keyboard-response,3
true,23,1,2,1,true,z,false,true,0.0-2.0-0.48-0.432-3.432,1,0,1,90,false,stim,false,1,673.3999999910593,0,1,2,29495,task3,1350008,false,false,1486,image-keyboard-response,4
true,23,2,2,2,true,d,false,true,0.0-2.0-0.48-0.433-3.433,1,0,1,68,false,stim,false,0,656.5,0,0,1,29495,task3,1352182,false,false,1489,image-keyboard-response,5
true,23,1,2,1,true,z,false,true,0.0-2.0-0.48-0.434-3.434,1,0,1,90,false,stim,false,1,519.0999999940395,0,1,0,29495,task3,1354234,false,false,1492,image-keyboard-response,6
true,23,1,2,1,true,z,false,true,0.0-2.0-0.48-0.435-3.435,1,0,1,90,false,stim,false,1,525.0,0,1,0,29495,task3,1356289,false,false,1495,image-keyboard-response,7
true,23,1,2,1,true,z,false,true,0.0-2.0-0.48-0.436-3.436,1,0,1,90,false,stim,false,1,534.5,0,1,2,29495,task3,1358349,false,false,1498,image-keyboard-response,8
true,23,1,2,1,true,z,false,true,0.0-2.0-0.48-0.437-3.437,1,0,1,90,false,stim,false,1,527.1999999880791,0,1,0,29495,task3,1360434,false,false,1501,image-keyboard-response,9
true,23,2,2,2,true,d,false,true,0.0-2.0-0.48-0.438-3.438,1,0,1,68,false,stim,false,0,714.2999999970198,0,0,1,29495,task3,1362672,false,false,1504,image-keyboard-response,10
true,23,1,2,1,true,z,false,true,0.0-2.0-0.48-0.439-3.439,1,0,1,90,false,stim,false,1,791.5,0,1,2,29495,task3,1364986,false,false,1507,image-keyboard-response,11
true,23,1,2,2,false,d,true,false,0.0-2.0-0.48-0.440-3.440,1,0,1,90,false,stim,false,0,1486.7000000029802,0,0,1,29495,task3,1367998,false,false,1510,image-keyboard-response,12
true,23,0,2,1,false,z,true,true,0.0-2.0-0.49-0.441-3.441,1,0,1,81,false,stim,false,1,320.90000000596046,0,1,2,29495,task3,1369839,false,true,1513,image-keyboard-response,13
true,23,2,2,1,false,z,true,false,0.0-2.0-0.49-0.442-3.442,1,0,1,68,false,stim,false,1,1469.9000000059605,0,1,0,29495,task3,1372847,false,false,1516,image-keyboard-response,14
true,23,1,2,1,true,z,false,true,0.0-2.0-0.49-0.443-3.443,1,0,1,90,false,stim,false,1,396.90000000596046,0,1,0,29495,task3,1374773,false,false,1519,image-keyboard-response,15
true,23,0,2,1,false,z,true,false,0.0-2.0-0.49-0.444-3.444,1,0,1,81,false,stim,false,1,1522.5,0,1,2,29495,task3,1377814,false,false,1522,image-keyboard-response,16
true,23,1,2,1,true,z,false,true,0.0-2.0-0.49-0.445-3.445,1,0,1,90,false,stim,false,1,1380.5,0,1,0,29495,task3,1380721,false,false,1525,image-keyboard-response,17
true,23,1,2,2,false,d,true,false,0.0-2.0-0.49-0.446-3.446,1,0,1,90,false,stim,false,0,327.29999999701977,0,0,1,29495,task3,1382576,false,false,1528,image-keyboard-response,18
true,23,2,2,2,true,d,false,true,0.0-2.0-0.49-0.447-3.447,1,0,1,68,false,stim,false,0,663.0999999940395,0,0,1,29495,task3,1384767,false,false,1531,image-keyboard-response,19
true,23,2,2,2,true,d,false,true,0.0-2.0-0.49-0.448-3.448,1,0,1,68,false,stim,false,0,671.0999999940395,0,0,1,29495,task3,1386962,false,false,1534,image-keyboard-response,20
true,23,1,2,1,true,z,false,true,0.0-2.0-0.49-0.449-3.449,1,0,1,90,false,stim,false,1,459.6000000089407,0,1,2,29495,task3,1388947,false,false,1537,image-keyboard-response,21
true,23,0,2,1,false,z,true,true,0.0-2.0-0.50-0.450-3.450,1,0,1,81,false,stim,false,1,650.5999999940395,0,1,0,29495,task3,1391122,false,true,1540,image-keyboard-response,22
true,23,2,2,1,false,z,true,false,0.0-2.0-0.50-0.451-3.451,1,0,1,68,false,stim,false,1,1175.2999999970198,0,1,2,29495,task3,1393828,false,false,1543,image-keyboard-response,23
true,23,2,2,2,true,d,false,true,0.0-2.0-0.50-0.452-3.452,1,0,1,68,false,stim,false,0,869.8999999910593,0,0,1,29495,task3,1396215,false,false,1546,image-keyboard-response,24
true,23,2,2,2,true,d,false,true,0.0-2.0-0.50-0.453-3.453,1,0,1,68,false,stim,false,0,946.6000000089407,0,0,1,29495,task3,1398684,false,false,1549,image-keyboard-response,25
true,23,2,2,2,true,d,false,false,0.0-2.0-0.50-0.454-3.454,1,0,1,68,false,stim,false,0,691.6000000089407,0,0,1,29495,task3,1400893,false,true,1552,image-keyboard-response,26
true,23,0,2,1,false,z,true,false,0.0-2.0-0.50-0.455-3.455,1,0,1,81,false,stim,false,1,1515.5999999940395,0,1,0,29495,task3,1403939,false,false,1555,image-keyboard-response,27
true,23,1,2,1,true,z,false,true,0.0-2.0-0.50-0.456-3.456,1,0,1,90,false,stim,false,1,1130.8999999910593,0,0,2,29495,task3,1406590,false,false,1558,image-keyboard-response,28
true,24,1,1,2,false,d,false,false,0.0-2.0-0.50-0.457-3.457,1,0,0,90,true,stim,true,1,713.5999999940395,0,0,2,29495,task3,1408829,false,false,1561,image-keyboard-response,1
true,24,2,1,1,false,z,true,false,0.0-2.0-0.50-0.458-3.458,1,0,0,68,false,stim,false,1,1568.0,0,1,0,29495,task3,1411916,false,false,1564,image-keyboard-response,2
true,24,1,1,1,true,z,false,true,0.0-2.0-0.51-0.459-3.459,1,0,0,90,false,stim,false,1,559.6000000089407,0,1,0,29495,task3,1413999,false,false,1567,image-keyboard-response,3
true,24,0,1,1,false,z,true,false,0.0-2.0-0.51-0.460-3.460,1,0,0,81,false,stim,false,2,1313.9000000059605,0,0,1,29495,task3,1416845,false,false,1570,image-keyboard-response,4
true,24,2,1,1,false,z,false,false,0.0-2.0-0.51-0.461-3.461,1,0,0,68,false,stim,true,2,613.2999999970198,0,0,1,29495,task3,1418978,false,false,1573,image-keyboard-response,5
true,24,1,1,2,false,d,false,true,0.0-2.0-0.51-0.462-3.462,1,0,0,90,false,stim,true,1,604.8999999910593,0,0,2,29495,task3,1421107,false,true,1576,image-keyboard-response,6
true,24,1,1,2,false,d,false,false,0.0-2.0-0.51-0.463-3.463,1,0,0,90,false,stim,true,1,977.5,0,0,2,29495,task3,1423596,false,false,1579,image-keyboard-response,7
true,24,0,1,2,false,d,true,false,0.0-2.0-0.51-0.464-3.464,1,0,0,81,false,stim,false,1,801.5999999940395,0,0,2,29495,task3,1425919,false,false,1582,image-keyboard-response,8
true,24,2,1,1,false,z,false,false,0.0-2.0-0.51-0.465-3.465,1,0,0,68,false,stim,true,2,520.6000000089407,0,0,1,29495,task3,1427964,false,false,1585,image-keyboard-response,9
true,24,1,1,1,true,z,false,true,0.0-2.0-0.51-0.466-3.466,1,0,0,90,false,stim,false,1,761.1999999880791,0,1,0,29495,task3,1430255,false,false,1588,image-keyboard-response,10
true,24,1,1,1,true,z,false,true,0.0-2.0-0.51-0.467-3.467,1,0,0,90,false,stim,false,1,639.3000000119209,0,1,0,29495,task3,1432407,false,false,1591,image-keyboard-response,11
true,24,0,1,1,false,z,true,false,0.0-2.0-0.52-0.468-3.468,1,0,0,81,false,stim,false,2,722.1999999880791,0,0,1,29495,task3,1434654,false,false,1594,image-keyboard-response,12
true,24,2,1,2,true,d,false,true,0.0-2.0-0.52-0.469-3.469,1,0,0,68,false,stim,false,1,559.2000000029802,0,0,2,29495,task3,1436734,false,false,1597,image-keyboard-response,13
true,24,2,1,2,true,d,false,false,0.0-2.0-0.52-0.470-3.470,1,0,0,68,false,stim,false,1,872.2999999970198,0,0,2,29495,task3,1439129,false,true,1600,image-keyboard-response,14
true,24,1,1,1,true,z,false,true,0.0-2.0-0.52-0.471-3.471,1,0,0,90,false,stim,false,1,920.4000000059605,0,1,0,29495,task3,1441586,false,false,1603,image-keyboard-response,15
true,24,1,1,1,true,z,false,true,0.0-2.0-0.52-0.472-3.472,1,0,0,90,false,stim,false,1,1173.9000000059605,0,1,0,29495,task3,1444288,false,false,1606,image-keyboard-response,16
true,24,0,1,1,false,z,true,false,0.0-2.0-0.52-0.473-3.473,1,0,0,81,false,stim,false,2,590.0,0,0,1,29495,task3,1446401,false,false,1609,image-keyboard-response,17
true,24,2,1,1,false,z,false,false,0.0-2.0-0.52-0.474-3.474,1,0,0,68,false,stim,true,2,878.1000000089407,0,0,1,29495,task3,1448801,false,false,1612,image-keyboard-response,18
true,24,1,1,2,false,d,false,false,0.0-2.0-0.52-0.475-3.475,1,0,0,90,false,stim,true,1,629.2999999970198,0,0,2,29495,task3,1450957,false,false,1615,image-keyboard-response,19
true,24,1,1,1,true,z,false,true,0.0-2.0-0.52-0.476-3.476,1,0,0,90,false,stim,false,1,1006.0,0,1,0,29495,task3,1453492,false,false,1618,image-keyboard-response,20
true,24,0,1,1,false,z,true,false,0.0-2.0-0.53-0.477-3.477,1,0,0,81,false,stim,false,2,1921.7000000029802,0,0,1,29495,task3,1456941,false,false,1621,image-keyboard-response,21
true,24,2,1,2,true,d,false,true,0.0-2.0-0.53-0.478-3.478,1,0,0,68,false,stim,false,1,904.9000000059605,0,0,2,29495,task3,1459368,false,false,1624,image-keyboard-response,22
true,24,1,1,1,true,z,false,false,0.0-2.0-0.53-0.479-3.479,1,0,0,90,false,stim,false,2,602.7999999970198,0,0,1,29495,task3,1461510,false,true,1627,image-keyboard-response,23
true,24,2,1,2,true,d,false,true,0.0-2.0-0.53-0.480-3.480,1,0,0,68,false,stim,false,1,1019.7000000029802,0,0,2,29495,task3,1464045,false,false,1630,image-keyboard-response,24
true,25,2,1,0,false,q,false,true,0.0-2.0-0.53-0.481-3.481,1,0,0,68,true,stim,true,2,539.2000000029802,0,0,2,29495,task3,1466108,false,true,1633,image-keyboard-response,1
true,25,0,1,1,false,z,true,false,0.0-2.0-0.53-0.482-3.482,1,0,0,81,false,stim,false,1,631.0,0,1,0,29495,task3,1468254,false,false,1636,image-keyboard-response,2
true,25,2,1,0,false,q,true,false,0.0-2.0-0.53-0.483-3.483,1,0,0,68,false,stim,false,1,751.9000000059605,0,0,1,29495,task3,1470524,false,false,1639,image-keyboard-response,3
true,25,1,1,1,true,z,false,true,0.0-2.0-0.53-0.484-3.484,1,0,0,90,false,stim,false,1,661.0999999940395,0,1,0,29495,task3,1472711,false,false,1642,image-keyboard-response,4
true,25,1,1,1,true,z,false,true,0.0-2.0-0.53-0.485-3.485,1,0,0,90,false,stim,false,1,421.09999999403954,0,1,0,29495,task3,1474659,false,false,1645,image-keyboard-response,5
true,25,0,1,0,true,q,false,true,0.0-2.0-0.54-0.486-3.486,1,0,0,81,false,stim,false,1,747.2999999970198,0,0,1,29495,task3,1476920,false,false,1648,image-keyboard-response,6
true,25,0,1,0,true,q,false,true,0.0-2.0-0.54-0.487-3.487,1,0,0,81,false,stim,false,1,1303.7999999970198,0,0,1,29495,task3,1479742,false,false,1651,image-keyboard-response,7
true,25,1,1,1,true,z,false,true,0.0-2.0-0.54-0.488-3.488,1,0,0,90,false,stim,false,1,898.6000000089407,0,1,0,29495,task3,1482167,false,false,1654,image-keyboard-response,8
true,25,0,1,0,true,q,false,false,0.0-2.0-0.54-0.489-3.489,1,0,0,81,false,stim,false,1,645.2000000029802,0,0,1,29495,task3,1484338,false,true,1657,image-keyboard-response,9
true,25,2,1,0,false,q,false,false,0.0-2.0-0.54-0.490-3.490,1,0,0,68,false,stim,true,2,1175.3999999910593,0,0,2,29495,task3,1487031,false,false,1660,image-keyboard-response,10
true,25,1,1,0,false,q,true,false,0.0-2.0-0.54-0.491-3.491,1,0,0,90,false,stim,false,2,443.90000000596046,0,1,2,29495,task3,1488992,false,false,1663,image-keyboard-response,11
true,25,0,1,1,false,z,true,false,0.0-2.0-0.54-0.492-3.492,1,0,0,81,false,stim,false,1,575.3000000119209,0,1,0,29495,task3,1491100,false,false,1666,image-keyboard-response,12
true,25,0,1,0,true,q,false,true,0.0-2.0-0.54-0.493-3.493,1,0,0,81,false,stim,false,2,740.7000000029802,0,1,2,29495,task3,1493355,false,false,1669,image-keyboard-response,13
true,25,2,1,1,false,z,true,true,0.0-2.0-0.54-0.494-3.494,1,0,0,68,false,stim,false,1,557.3999999910593,0,1,0,29495,task3,1495435,false,true,1672,image-keyboard-response,14
true,25,1,1,0,false,q,false,false,0.0-2.0-0.55-0.495-3.495,1,0,0,90,false,stim,true,1,463.5,0,1,1,29495,task3,1497428,false,false,1675,image-keyboard-response,15
false,26,-1,0,0,false,q,true,false,0.0-2.0-0.55-0.496-3.496,1,1,1,,true,stim,false,0,,0,1,2,29495,task3,1623187,false,false,1798,image-keyboard-response,1
true,26,1,0,0,false,q,true,false,0.0-2.0-0.55-0.497-3.497,1,1,1,90,false,stim,false,0,1520.7999999970198,0,1,1,29495,task3,1626267,false,false,1801,image-keyboard-response,2
true,26,0,0,0,true,q,false,true,0.0-2.0-0.55-0.498-3.498,1,1,1,81,false,stim,false,0,2110.6000000089407,0,1,1,29495,task3,1629892,false,false,1804,image-keyboard-response,3
true,26,0,0,1,false,z,true,false,0.0-2.0-0.55-0.499-3.499,1,1,1,81,false,stim,false,1,414.09999999403954,0,1,0,29495,task3,1631836,false,false,1807,image-keyboard-response,4
true,26,2,0,1,false,z,true,false,0.0-2.0-0.55-0.500-3.500,1,1,1,68,false,stim,false,1,524.2999999970198,0,1,0,29495,task3,1633885,false,false,1810,image-keyboard-response,5
true,26,1,0,0,false,q,true,false,0.0-2.0-0.55-0.501-3.501,1,1,1,90,false,stim,false,0,941.2999999970198,0,1,2,29495,task3,1636354,false,false,1813,image-keyboard-response,6
true,26,1,0,0,false,q,true,false,0.0-2.0-0.55-0.502-3.502,1,1,1,90,false,stim,false,0,2239.300000011921,0,1,2,29495,task3,1640131,false,false,1816,image-keyboard-response,7
true,26,2,0,1,false,z,true,false,0.0-2.0-0.55-0.503-3.503,1,1,1,68,false,stim,false,1,432.59999999403954,0,1,0,29495,task3,1642085,false,false,1819,image-keyboard-response,8
true,26,2,0,0,false,q,true,false,0.0-2.0-0.56-0.504-3.504,1,1,1,68,false,stim,false,0,607.3999999910593,0,1,2,29495,task3,1644215,false,false,1822,image-keyboard-response,9
true,26,0,0,0,true,q,false,true,0.0-2.0-0.56-0.505-3.505,1,1,1,81,false,stim,false,0,205.6000000089407,0,1,1,29495,task3,1645957,false,false,1825,image-keyboard-response,10
true,26,1,0,0,false,q,true,false,0.0-2.0-0.56-0.506-3.506,1,1,1,90,false,stim,false,0,1840.2999999970198,0,0,2,29495,task3,1649317,false,false,1828,image-keyboard-response,11
true,26,2,0,0,false,q,true,false,0.0-2.0-0.56-0.507-3.507,1,1,1,68,false,stim,false,0,881.2999999970198,0,0,1,29495,task3,1651731,false,false,1831,image-keyboard-response,12
true,26,1,0,1,true,z,false,true,0.0-2.0-0.56-0.508-3.508,1,1,1,90,false,stim,false,1,1489.0999999940395,0,1,0,29495,task3,1654740,false,false,1834,image-keyboard-response,13
true,26,2,0,1,false,z,true,false,0.0-2.0-0.56-0.509-3.509,1,1,1,68,false,stim,false,1,1438.2000000029802,0,1,0,29495,task3,1657704,false,false,1837,image-keyboard-response,14
true,26,2,0,1,false,z,true,false,0.0-2.0-0.56-0.510-3.510,1,1,1,68,false,stim,false,1,238.8999999910593,0,1,0,29495,task3,1659487,false,false,1840,image-keyboard-response,15
true,27,1,1,2,false,d,true,false,0.0-2.0-0.56-0.511-3.511,1,0,0,90,true,stim,false,0,936.2000000029802,0,0,2,29495,task3,1661949,false,false,1843,image-keyboard-response,1
true,27,1,1,2,false,d,true,false,0.0-2.0-0.56-0.512-3.512,1,0,0,90,false,stim,false,0,1574.7999999970198,0,0,1,29495,task3,1665054,false,false,1846,image-keyboard-response,2
true,27,2,1,2,true,d,false,true,0.0-2.0-0.57-0.513-3.513,1,0,0,68,false,stim,false,0,436.70000000298023,0,0,1,29495,task3,1667024,false,false,1849,image-keyboard-response,3
true,27,1,1,2,false,d,true,false,0.0-2.0-0.57-0.514-3.514,1,0,0,90,false,stim,false,0,101.0,0,0,1,29495,task3,1668646,false,false,1852,image-keyboard-response,4
true,27,0,1,2,false,d,false,false,0.0-2.0-0.57-0.515-3.515,1,0,0,81,false,stim,true,0,250.5,0,0,2,29495,task3,1670427,false,false,1855,image-keyboard-response,5
true,27,0,1,1,false,z,true,false,0.0-2.0-0.57-0.516-3.516,1,0,0,81,false,stim,false,1,679.6000000089407,0,1,0,29495,task3,1672637,false,false,1858,image-keyboard-response,6
true,27,1,1,1,true,z,false,true,0.0-2.0-0.57-0.517-3.517,1,0,0,90,false,stim,false,1,1005.5,0,1,0,29495,task3,1675167,false,false,1861,image-keyboard-response,7
true,27,2,1,2,true,d,false,true,0.0-2.0-0.57-0.518-3.518,1,0,0,68,false,stim,false,0,489.70000000298023,0,0,2,29495,task3,1677173,false,false,1864,image-keyboard-response,8
true,27,1,1,1,true,z,false,true,0.0-2.0-0.57-0.519-3.519,1,0,0,90,false,stim,false,1,441.80000001192093,0,1,0,29495,task3,1679133,false,false,1867,image-keyboard-response,9
true,27,2,1,2,true,d,false,true,0.0-2.0-0.57-0.520-3.520,1,0,0,68,false,stim,false,0,345.90000000596046,0,0,2,29495,task3,1680995,false,false,1870,image-keyboard-response,10
true,27,0,1,2,false,d,false,false,0.0-2.0-0.57-0.521-3.521,1,0,0,81,false,stim,true,0,603.7000000029802,0,0,1,29495,task3,1683120,false,false,1873,image-keyboard-response,11
true,27,2,1,2,true,d,false,true,0.0-2.0-0.58-0.522-3.522,1,0,0,68,false,stim,false,0,488.29999999701977,0,0,2,29495,task3,1685136,false,false,1876,image-keyboard-response,12
true,27,1,1,1,true,z,false,true,0.0-2.0-0.58-0.523-3.523,1,0,0,90,false,stim,false,1,348.19999998807907,0,1,0,29495,task3,1687022,false,false,1879,image-keyboard-response,13
true,27,2,1,2,true,d,false,true,0.0-2.0-0.58-0.524-3.524,1,0,0,68,false,stim,false,0,718.2000000029802,0,0,1,29495,task3,1689265,false,false,1882,image-keyboard-response,14
true,27,2,1,2,true,d,false,true,0.0-2.0-0.58-0.525-3.525,1,0,0,68,false,stim,false,0,627.1999999880791,0,0,2,29495,task3,1691416,false,false,1885,image-keyboard-response,15
true,27,1,1,1,true,z,false,true,0.0-2.0-0.58-0.526-3.526,1,0,0,90,false,stim,false,1,347.6000000089407,0,1,0,29495,task3,1693286,false,false,1888,image-keyboard-response,16
true,27,1,1,1,true,z,false,true,0.0-2.0-0.58-0.527-3.527,1,0,0,90,false,stim,false,1,549.3000000119209,0,1,0,29495,task3,1695353,false,false,1891,image-keyboard-response,17
true,27,2,1,2,true,d,false,true,0.0-2.0-0.58-0.528-3.528,1,0,0,68,false,stim,false,0,388.0,0,0,1,29495,task3,1697280,false,false,1894,image-keyboard-response,18
true,27,2,1,2,true,d,false,true,0.0-2.0-0.58-0.529-3.529,1,0,0,68,false,stim,false,0,582.6000000089407,0,0,1,29495,task3,1699385,false,false,1897,image-keyboard-response,19
true,27,2,1,2,true,d,false,true,0.0-2.0-0.58-0.530-3.530,1,0,0,68,false,stim,false,0,750.0,0,0,2,29495,task3,1701652,false,false,1900,image-keyboard-response,20
true,27,2,1,2,true,d,false,true,0.0-2.0-0.59-0.531-3.531,1,0,0,68,false,stim,false,0,598.2000000029802,0,0,2,29495,task3,1703806,false,false,1903,image-keyboard-response,21
true,27,2,1,2,true,d,false,true,0.0-2.0-0.59-0.532-3.532,1,0,0,68,false,stim,false,0,422.0,0,1,1,29495,task3,1705761,false,false,1906,image-keyboard-response,22
true,27,2,1,2,true,d,false,true,0.0-2.0-0.59-0.533-3.533,1,0,0,68,false,stim,false,0,503.79999999701977,0,1,1,29495,task3,1707788,false,false,1909,image-keyboard-response,23
true,27,2,1,2,true,d,false,true,0.0-2.0-0.59-0.534-3.534,1,0,0,68,false,stim,false,0,406.29999999701977,0,1,1,29495,task3,1709723,false,false,1912,image-keyboard-response,24
true,28,2,2,0,false,q,false,false,0.0-2.0-0.59-0.535-3.535,1,1,0,68,true,stim,true,2,441.19999998807907,0,0,2,29495,task3,1711690,false,false,1915,image-keyboard-response,1
true,28,1,2,1,true,z,false,true,0.0-2.0-0.59-0.536-3.536,1,1,0,90,false,stim,false,1,328.5,0,1,0,29495,task3,1713536,false,false,1918,image-keyboard-response,2
true,28,1,2,1,true,z,false,true,0.0-2.0-0.59-0.537-3.537,1,1,0,90,false,stim,false,1,544.3999999910593,0,1,0,29495,task3,1715605,false,false,1921,image-keyboard-response,3
true,28,1,2,1,true,z,false,true,0.0-2.0-0.59-0.538-3.538,1,1,0,90,false,stim,false,1,432.5,0,1,0,29495,task3,1717563,false,false,1924,image-keyboard-response,4
true,28,0,2,0,true,q,false,true,0.0-2.0-0.59-0.539-3.539,1,1,0,81,false,stim,false,2,328.90000000596046,0,0,2,29495,task3,1719426,false,false,1927,image-keyboard-response,5
true,28,0,2,0,true,q,false,true,0.0-2.0-0.60-0.540-3.540,1,1,0,81,false,stim,false,2,586.7999999970198,0,0,2,29495,task3,1721541,false,false,1930,image-keyboard-response,6
true,28,0,2,2,false,d,true,false,0.0-2.0-0.60-0.541-3.541,1,1,0,81,false,stim,false,2,482.1000000089407,0,1,1,29495,task3,1723562,false,false,1933,image-keyboard-response,7
true,28,0,2,0,true,q,false,false,0.0-2.0-0.60-0.542-3.542,1,1,0,81,false,stim,false,2,1178.8999999910593,0,0,2,29495,task3,1726274,false,true,1936,image-keyboard-response,8
true,28,1,2,1,true,z,false,true,0.0-2.0-0.60-0.543-3.543,1,1,0,90,false,stim,false,1,653.1999999880791,0,1,0,29495,task3,1728457,false,false,1939,image-keyboard-response,9
true,28,1,2,1,true,z,false,false,0.0-2.0-0.60-0.544-3.544,1,1,0,90,false,stim,false,1,541.2999999970198,0,1,0,29495,task3,1730522,false,true,1942,image-keyboard-response,10
true,28,2,2,0,false,q,false,false,0.0-2.0-0.60-0.545-3.545,1,1,0,68,false,stim,true,2,675.8999999910593,0,0,2,29495,task3,1732721,false,false,1945,image-keyboard-response,11
true,28,0,2,2,false,d,true,false,0.0-2.0-0.60-0.546-3.546,1,1,0,81,false,stim,false,2,535.5,0,0,1,29495,task3,1734795,false,false,1948,image-keyboard-response,12
true,28,1,2,1,true,z,false,true,0.0-2.0-0.60-0.547-3.547,1,1,0,90,false,stim,false,1,504.40000000596046,0,0,0,29495,task3,1736830,false,false,1951,image-keyboard-response,13
true,28,2,2,2,true,d,false,true,0.0-2.0-0.60-0.548-3.548,1,1,0,68,false,stim,false,2,565.2999999970198,0,0,1,29495,task3,1738924,false,false,1954,image-keyboard-response,14
true,28,0,2,1,false,z,true,true,0.0-2.0-0.61-0.549-3.549,1,1,0,81,false,stim,false,1,537.0,0,0,0,29495,task3,1740997,false,true,1957,image-keyboard-response,15
true,28,0,2,1,false,z,true,false,0.0-2.0-0.61-0.550-3.550,1,1,0,81,false,stim,false,1,525.5,0,0,0,29495,task3,1743049,false,false,1960,image-keyboard-response,16
true,29,1,1,0,false,q,false,false,0.0-2.0-0.61-0.551-3.551,0,0,1,90,true,stim,true,1,491.90000000596046,0,0,0,29495,task3,1745065,false,false,1963,image-keyboard-response,1
true,29,2,1,1,false,z,false,false,0.0-2.0-0.61-0.552-3.552,0,0,1,68,false,stim,true,2,372.0,0,0,1,29495,task3,1746962,false,false,1966,image-keyboard-response,2
true,29,0,1,1,false,z,true,false,0.0-2.0-0.61-0.553-3.553,0,0,1,81,false,stim,false,2,279.0,0,0,1,29495,task3,1748759,false,false,1969,image-keyboard-response,3
true,29,1,1,0,false,q,true,false,0.0-2.0-0.61-0.554-3.554,0,0,1,90,false,stim,false,0,652.7000000029802,0,1,2,29495,task3,1750933,false,false,1972,image-keyboard-response,4
true,29,0,1,0,true,q,false,true,0.0-2.0-0.61-0.555-3.555,0,0,1,81,false,stim,false,0,182.09999999403954,0,1,2,29495,task3,1752638,false,false,1975,image-keyboard-response,5
true,29,0,1,1,false,z,true,false,0.0-2.0-0.61-0.556-3.556,0,0,1,81,false,stim,false,2,556.9000000059605,0,0,1,29495,task3,1754726,false,false,1978,image-keyboard-response,6
true,29,2,1,0,false,q,true,false,0.0-2.0-0.61-0.557-3.557,0,0,1,68,false,stim,false,0,652.2999999970198,0,1,2,29495,task3,1756904,false,false,1981,image-keyboard-response,7
true,29,1,1,0,false,q,false,false,0.0-2.0-0.62-0.558-3.558,0,0,1,90,false,stim,true,1,555.0,0,0,0,29495,task3,1758982,false,false,1984,image-keyboard-response,8
true,29,0,1,0,true,q,false,false,0.0-2.0-0.62-0.559-3.559,0,0,1,81,false,stim,false,0,493.29999999701977,0,1,2,29495,task3,1760996,false,true,1987,image-keyboard-response,9
true,29,1,1,1,true,z,false,true,0.0-2.0-0.62-0.560-3.560,0,0,1,90,false,stim,false,2,722.6000000089407,0,0,1,29495,task3,1763241,false,false,1990,image-keyboard-response,10
true,29,1,1,1,true,z,false,true,0.0-2.0-0.62-0.561-3.561,0,0,1,90,false,stim,false,2,438.8999999910593,0,0,1,29495,task3,1765207,false,false,1993,image-keyboard-response,11
true,29,2,1,0,false,q,true,false,0.0-2.0-0.62-0.562-3.562,0,0,1,68,false,stim,false,0,765.7000000029802,0,1,2,29495,task3,1767492,false,false,1996,image-keyboard-response,12
true,29,0,1,0,true,q,false,true,0.0-2.0-0.62-0.563-3.563,0,0,1,81,false,stim,false,1,669.7999999970198,0,0,0,29495,task3,1769679,false,false,1999,image-keyboard-response,13
true,29,0,1,0,true,q,false,true,0.0-2.0-0.62-0.564-3.564,0,0,1,81,false,stim,false,1,300.0,0,0,0,29495,task3,1771533,false,false,2002,image-keyboard-response,14
true,29,1,1,0,false,q,true,false,0.0-2.0-0.62-0.565-3.565,0,0,1,90,false,stim,false,0,714.0,0,1,2,29495,task3,1773780,false,false,2005,image-keyboard-response,15
true,29,2,1,1,false,z,false,false,0.0-2.0-0.62-0.566-3.566,0,0,1,68,false,stim,true,2,573.2999999970198,0,0,1,29495,task3,1775873,false,false,2008,image-keyboard-response,16
true,29,1,1,1,true,z,false,true,0.0-2.0-0.63-0.567-3.567,0,0,1,90,false,stim,false,2,238.30000001192093,0,0,1,29495,task3,1777659,false,false,2011,image-keyboard-response,17
true,29,1,1,1,true,z,false,true,0.0-2.0-0.63-0.568-3.568,0,0,1,90,false,stim,false,2,442.6000000089407,0,0,1,29495,task3,1779630,false,false,2014,image-keyboard-response,18
true,29,2,1,0,false,q,true,false,0.0-2.0-0.63-0.569-3.569,0,0,1,68,false,stim,false,0,690.5,0,1,2,29495,task3,1781859,false,false,2017,image-keyboard-response,19
true,29,1,1,0,false,q,false,false,0.0-2.0-0.63-0.570-3.570,0,0,1,90,false,stim,true,1,445.0,0,0,0,29495,task3,1783832,false,false,2020,image-keyboard-response,20
true,29,0,1,0,true,q,false,true,0.0-2.0-0.63-0.571-3.571,0,0,1,81,false,stim,false,1,434.59999999403954,0,0,0,29495,task3,1785796,false,false,2023,image-keyboard-response,21
true,29,1,1,1,true,z,false,true,0.0-2.0-0.63-0.572-3.572,0,0,1,90,false,stim,false,2,478.5,0,0,1,29495,task3,1787791,false,false,2026,image-keyboard-response,22
true,29,2,1,0,false,q,true,false,0.0-2.0-0.63-0.573-3.573,0,0,1,68,false,stim,false,0,1091.3999999910593,0,0,2,29495,task3,1790412,false,false,2029,image-keyboard-response,23
true,29,0,1,0,true,q,false,true,0.0-2.0-0.63-0.574-3.574,0,0,1,81,false,stim,false,1,931.1000000089407,0,1,0,29495,task3,1792867,false,false,2032,image-keyboard-response,24
true,29,1,1,0,false,q,true,false,0.0-2.0-0.63-0.575-3.575,0,0,1,90,false,stim,false,0,514.4000000059605,0,0,2,29495,task3,1794908,false,false,2035,image-keyboard-response,25
true,29,0,1,0,true,q,false,true,0.0-2.0-0.64-0.576-3.576,0,0,1,81,false,stim,false,1,616.0,0,1,0,29495,task3,1797059,false,false,2038,image-keyboard-response,26
true,29,2,1,0,false,q,true,false,0.0-2.0-0.64-0.577-3.577,0,0,1,68,false,stim,false,0,1029.2000000029802,0,0,2,29495,task3,1799613,false,false,2041,image-keyboard-response,27
true,30,1,1,1,true,z,false,true,0.0-2.0-0.64-0.578-3.578,1,0,0,90,true,stim,false,0,562.6000000089407,0,0,2,29495,task3,1801695,false,false,2044,image-keyboard-response,1
true,30,0,1,0,true,q,false,true,0.0-2.0-0.64-0.579-3.579,1,0,0,81,false,stim,false,0,655.2000000029802,0,1,0,29495,task3,1803896,false,false,2047,image-keyboard-response,2
true,30,1,1,2,false,d,false,false,0.0-2.0-0.64-0.580-3.580,1,0,0,90,false,stim,true,1,469.09999999403954,0,0,1,29495,task3,1805894,false,false,2050,image-keyboard-response,3
true,30,0,1,1,false,z,false,true,0.0-2.0-0.64-0.581-3.581,1,0,0,81,false,stim,true,0,606.1000000089407,0,0,2,29495,task3,1808036,false,true,2053,image-keyboard-response,4
true,30,0,1,2,false,d,true,false,0.0-2.0-0.64-0.582-3.582,1,0,0,81,false,stim,false,1,802.7999999970198,0,0,1,29495,task3,1810376,false,false,2056,image-keyboard-response,5
true,30,1,1,0,false,q,true,false,0.0-2.0-0.64-0.583-3.583,1,0,0,90,false,stim,false,0,735.4000000059605,0,1,0,29495,task3,1812640,false,false,2059,image-keyboard-response,6
true,30,0,1,2,false,d,true,false,0.0-2.0-0.64-0.584-3.584,1,0,0,81,false,stim,false,1,645.7999999970198,0,0,1,29495,task3,1814816,false,false,2062,image-keyboard-response,7
true,30,0,1,2,false,d,true,false,0.0-2.0-0.65-0.585-3.585,1,0,0,81,false,stim,false,1,431.80000001192093,0,0,1,29495,task3,1816792,false,false,2065,image-keyboard-response,8
true,30,0,1,1,false,z,false,false,0.0-2.0-0.65-0.586-3.586,1,0,0,81,false,stim,true,0,636.5999999940395,0,0,2,29495,task3,1818957,false,false,2068,image-keyboard-response,9
true,30,0,1,0,true,q,false,false,0.0-2.0-0.65-0.587-3.587,1,0,0,81,false,stim,false,0,413.5,0,1,0,29495,task3,1820895,false,true,2071,image-keyboard-response,10
true,30,2,1,1,false,z,true,false,0.0-2.0-0.65-0.588-3.588,1,0,0,68,false,stim,false,0,1067.6000000089407,0,0,2,29495,task3,1823486,false,false,2074,image-keyboard-response,11
