answered,blockNum,choice,condition,corResp,correct,correct_response,explo,fb,internal_node_id,isStable_1,isStable_2,isStable_3,key_press,newBlock,part,persev,persevResp,rt,sessNum,stableAS,stimulus,subject,task,time_elapsed,training,trap,trial_index,trial_type,trialsInBlock
true,1,0,0,0,true,q,false,true,0.0-2.0-0.0-0.0-3.0,0,0,0,81,true,stim,false,-1,742.0,2,0,2,29495,task1,72481,false,false,84,image-keyboard-response,1
true,1,1,0,2,false,d,true,false,0.0-2.0-0.0-0.1-3.1,0,0,0,90,false,stim,false,-1,503.2000000011176,2,0,1,29495,task1,74507,false,false,87,image-keyboard-response,2
true,1,1,0,2,false,d,true,false,0.0-2.0-0.0-0.2-3.2,0,0,0,90,false,stim,false,-1,707.3000000007451,2,0,0,29495,task1,76736,false,false,90,image-keyboard-response,3
true,1,0,0,2,false,d,true,false,0.0-2.0-0.0-0.3-3.3,0,0,0,81,false,stim,false,-1,638.2000000011176,2,0,1,29495,task1,78882,false,false,93,image-keyboard-response,4
true,1,0,0,2,false,d,true,false,0.0-2.0-0.0-0.4-3.4,0,0,0,81,false,stim,false,-1,1017.5,2,0,0,29495,task1,81419,false,false,96,image-keyboard-response,5
true,1,2,0,2,true,d,false,false,0.0-2.0-0.0-0.5-3.5,0,0,0,68,false,stim,false,-1,494.30000000074506,2,0,0,29495,task1,83428,false,true,99,image-keyboard-response,6
true,1,1,0,2,false,d,true,false,0.0-2.0-0.0-0.6-3.6,0,0,0,90,false,stim,false,-1,751.5999999996275,2,0,1,29495,task1,85707,false,false,102,image-keyboard-response,7
true,1,0,0,0,true,q,false,false,0.0-2.0-0.0-0.7-3.7,0,0,0,81,false,stim,false,-1,355.19999999925494,2,0,2,29495,task1,87586,false,true,105,image-keyboard-response,8
true,1,1,0,0,false,q,true,false,0.0-2.0-0.0-0.8-3.8,0,0,0,90,false,stim,false,-1,648.0999999996275,2,0,2,29495,task1,89756,false,false,108,image-keyboard-response,9
true,1,2,0,2,true,d,false,true,0.0-2.0-0.1-0.9-3.9,0,0,0,68,false,stim,false,-1,990.5,2,0,1,29495,task1,92263,false,false,111,image-keyboard-response,10
true,1,1,0,0,false,q,true,false,0.0-2.0-0.1-0.10-3.10,0,0,0,90,false,stim,false,-1,884.7000000011176,2,0,2,29495,task1,94672,false,false,114,image-keyboard-response,11
true,1,2,0,2,true,d,false,true,0.0-2.0-0.1-0.11-3.11,0,0,0,68,false,stim,false,-1,360.7999999988824,2,0,1,29495,task1,96549,false,false,117,image-keyboard-response,12
true,1,2,0,0,false,q,true,false,0.0-2.0-0.1-0.12-3.12,0,0,0,68,false,stim,false,-1,571.8000000007451,2,0,2,29495,task1,98652,false,false,120,image-keyboard-response,13
true,1,0,0,2,false,d,true,false,0.0-2.0-0.1-0.13-3.13,0,0,0,81,false,stim,false,-1,670.2999999988824,2,0,0,29495,task1,100849,false,false,123,image-keyboard-response,14
true,1,2,0,2,true,d,false,true,0.0-2.0-0.1-0.14-3.14,0,0,0,68,false,stim,false,-1,393.59999999962747,2,0,0,29495,task1,102761,false,false,126,image-keyboard-response,15
true,1,2,0,2,true,d,false,true,0.0-2.0-0.1-0.15-3.15,0,0,0,68,false,stim,false,-1,473.2000000011176,2,0,1,29495,task1,104755,false,false,129,image-keyboard-response,16
true,1,2,0,2,true,d,false,true,0.0-2.0-0.1-0.16-3.16,0,0,0,68,false,stim,false,-1,616.6999999992549,2,0,0,29495,task1,106911,false,false,132,image-keyboard-response,17
true,1,2,0,0,false,q,true,false,0.0-2.0-0.1-0.17-3.17,0,0,0,68,false,stim,false,-1,370.30000000074506,2,0,2,29495,task1,108806,false,false,135,image-keyboard-response,18
true,1,0,0,0,true,q,false,true,0.0-2.0-0.2-0.18-3.18,0,0,0,81,false,stim,false,-1,514.8000000007451,2,0,2,29495,task1,110845,false,false,138,image-keyboard-response,19
true,1,2,0,2,true,d,false,true,0.0-2.0-0.2-0.19-3.19,0,0,0,68,false,stim,false,-1,294.7999999988824,2,0,0,29495,task1,112661,false,false,141,image-keyboard-response,20
true,1,2,0,2,true,d,false,true,0.0-2.0-0.2-0.20-3.20,0,0,0,68,false,stim,false,-1,338.40000000037253,2,0,0,29495,task1,114532,false,false,144,image-keyboard-response,21
true,1,2,0,2,true,d,false,true,0.0-2.0-0.2-0.21-3.21,0,0,0,68,false,stim,false,-1,709.0,2,0,1,29495,task1,116760,false,false,147,image-keyboard-response,22
true,1,2,0,2,true,d,false,true,0.0-2.0-0.2-0.22-3.22,0,0,0,68,false,stim,false,-1,494.59999999962747,2,0,1,29495,task1,118775,false,false,150,image-keyboard-response,23
true,1,2,0,2,true,d,false,true,0.0-2.0-0.2-0.23-3.23,0,0,0,68,false,stim,false,-1,355.30000000074506,2,0,1,29495,task1,120655,false,false,153,image-keyboard-response,24
true,1,2,0,2,true,d,false,true,0.0-2.0-0.2-0.24-3.24,0,0,0,68,false,stim,false,-1,498.59999999962747,2,0,0,29495,task1,122672,false,false,156,image-keyboard-response,25
true,1,0,0,0,true,q,false,true,0.0-2.0-0.2-0.25-3.25,0,0,0,81,false,stim,false,-1,768.5999999996275,2,0,2,29495,task1,124965,false,false,159,image-keyboard-response,26
true,2,0,1,1,false,z,false,false,0.0-2.0-0.2-0.26-3.26,0,0,0,81,true,stim,true,0,487.69999999925494,2,0,2,29495,task1,126979,false,false,162,image-keyboard-response,1
true,2,2,1,1,false,z,false,false,0.0-2.0-0.3-0.27-3.27,0,0,0,68,false,stim,true,2,458.2999999988824,2,0,1,29495,task1,128963,false,false,165,image-keyboard-response,2
true,2,1,1,1,true,z,false,true,0.0-2.0-0.3-0.28-3.28,0,0,0,90,false,stim,false,2,356.80000000074506,2,0,1,29495,task1,130842,false,false,168,image-keyboard-response,3
true,2,2,1,1,false,z,true,false,0.0-2.0-0.3-0.29-3.29,0,0,0,68,false,stim,false,0,960.9000000003725,2,0,2,29495,task1,133332,false,false,171,image-keyboard-response,4
true,2,0,1,1,false,z,false,true,0.0-2.0-0.3-0.30-3.30,0,0,0,81,false,stim,true,0,418.19999999925494,2,0,2,29495,task1,135276,false,true,174,image-keyboard-response,5
true,2,1,1,0,false,q,true,false,0.0-2.0-0.3-0.31-3.31,0,0,0,90,false,stim,false,2,507.90000000037253,2,0,0,29495,task1,137302,false,false,177,image-keyboard-response,6
true,2,1,1,1,true,z,false,true,0.0-2.0-0.3-0.32-3.32,0,0,0,90,false,stim,false,2,480.3999999985099,2,0,1,29495,task1,139299,false,false,180,image-keyboard-response,7
true,2,1,1,0,false,q,true,false,0.0-2.0-0.3-0.33-3.33,0,0,0,90,false,stim,false,2,906.3000000007451,2,0,0,29495,task1,141727,false,false,183,image-keyboard-response,8
true,2,0,1,1,false,z,false,false,0.0-2.0-0.3-0.34-3.34,0,0,0,81,false,stim,true,0,672.3999999985099,2,0,2,29495,task1,143924,false,false,186,image-keyboard-response,9
true,2,2,1,0,false,q,false,false,0.0-2.0-0.3-0.35-3.35,0,0,0,68,false,stim,true,2,793.8000000007451,2,0,0,29495,task1,146243,false,false,189,image-keyboard-response,10
true,2,1,1,0,false,q,true,false,0.0-2.0-0.4-0.36-3.36,0,0,0,90,false,stim,false,2,319.30000000074506,2,0,0,29495,task1,148077,false,false,192,image-keyboard-response,11
true,2,0,1,0,true,q,false,true,0.0-2.0-0.4-0.37-3.37,0,0,0,81,false,stim,false,2,372.59999999962747,2,0,0,29495,task1,149972,false,false,195,image-keyboard-response,12
true,2,0,1,1,false,z,false,false,0.0-2.0-0.4-0.38-3.38,0,0,0,81,false,stim,true,0,1148.7999999988824,2,0,2,29495,task1,152637,false,false,198,image-keyboard-response,13
true,2,1,1,1,true,z,false,true,0.0-2.0-0.4-0.39-3.39,0,0,0,90,false,stim,false,2,652.5999999996275,2,0,1,29495,task1,154823,false,false,201,image-keyboard-response,14
true,2,1,1,1,true,z,false,false,0.0-2.0-0.4-0.40-3.40,0,0,0,90,false,stim,false,2,592.4000000003725,2,0,1,29495,task1,156938,false,true,204,image-keyboard-response,15
true,2,1,1,1,true,z,false,true,0.0-2.0-0.4-0.41-3.41,0,0,0,90,false,stim,false,2,400.09999999962747,2,0,1,29495,task1,158855,false,false,207,image-keyboard-response,16
true,2,0,1,1,false,z,false,false,0.0-2.0-0.4-0.42-3.42,0,0,0,81,false,stim,true,0,755.5,2,0,2,29495,task1,161135,false,false,210,image-keyboard-response,17
true,2,0,1,0,true,q,false,true,0.0-2.0-0.4-0.43-3.43,0,0,0,81,false,stim,false,2,719.9000000003725,2,0,0,29495,task1,163383,false,false,213,image-keyboard-response,18
true,2,2,1,1,false,z,true,false,0.0-2.0-0.4-0.44-3.44,0,0,0,68,false,stim,false,0,1182.5999999996275,2,0,2,29495,task1,166095,false,false,216,image-keyboard-response,19
true,2,1,1,1,true,z,false,true,0.0-2.0-0.5-0.45-3.45,0,0,0,90,false,stim,false,0,469.59999999962747,2,0,2,29495,task1,168098,false,false,219,image-keyboard-response,20
true,2,0,1,0,true,q,false,true,0.0-2.0-0.5-0.46-3.46,0,0,0,81,false,stim,false,2,596.0999999996275,2,0,0,29495,task1,170211,false,false,222,image-keyboard-response,21
true,2,1,1,1,true,z,false,true,0.0-2.0-0.5-0.47-3.47,0,0,0,90,false,stim,false,2,343.59999999962747,2,0,1,29495,task1,172078,false,false,225,image-keyboard-response,22
true,2,1,1,1,true,z,false,true,0.0-2.0-0.5-0.48-3.48,0,0,0,90,false,stim,false,0,326.5,2,0,2,29495,task1,173921,false,false,228,image-keyboard-response,23
true,2,1,1,1,true,z,false,true,0.0-2.0-0.5-0.49-3.49,0,0,0,90,false,stim,false,2,618.9000000003725,2,0,1,29495,task1,176061,false,false,231,image-keyboard-response,24
true,2,0,1,0,true,q,false,true,0.0-2.0-0.5-0.50-3.50,0,0,0,81,false,stim,false,2,615.9000000003725,2,0,0,29495,task1,178184,false,false,234,image-keyboard-response,25
true,2,1,1,1,true,z,false,true,0.0-2.0-0.5-0.51-3.51,0,0,0,90,false,stim,false,0,495.90000000037253,2,0,2,29495,task1,180202,false,false,237,image-keyboard-response,26
true,2,0,1,0,true,q,false,true,0.0-2.0-0.5-0.52-3.52,0,0,0,81,false,stim,false,2,468.09999999962747,2,0,0,29495,task1,182185,false,false,240,image-keyboard-response,27
true,2,1,1,1,true,z,false,true,0.0-2.0-0.5-0.53-3.53,0,0,0,90,false,stim,false,2,400.90000000037253,2,0,1,29495,task1,184098,false,false,243,image-keyboard-response,28
true,2,1,1,1,true,z,false,true,0.0-2.0-0.6-0.54-3.54,0,0,0,90,false,stim,false,2,380.80000000074506,2,0,1,29495,task1,185993,false,false,246,image-keyboard-response,29
true,2,1,1,1,true,z,false,true,0.0-2.0-0.6-0.55-3.55,0,0,0,90,false,stim,false,2,367.40000000037253,2,0,1,29495,task1,187880,false,false,249,image-keyboard-response,30
true,2,0,1,1,false,z,false,false,0.0-2.0-0.6-0.56-3.56,0,0,0,81,false,stim,true,0,768.8999999985099,2,0,2,29495,task1,190166,false,false,252,image-keyboard-response,31
true,2,0,1,0,true,q,false,true,0.0-2.0-0.6-0.57-3.57,0,0,0,81,false,stim,false,2,601.9000000003725,2,0,0,29495,task1,192291,false,false,255,image-keyboard-response,32
true,2,1,1,1,true,z,false,true,0.0-2.0-0.6-0.58-3.58,0,0,0,90,false,stim,false,2,394.90000000037253,2,0,1,29495,task1,194219,false,false,258,image-keyboard-response,33
true,2,0,1,0,true,q,false,true,0.0-2.0-0.6-0.59-3.59,0,0,0,81,false,stim,false,2,652.0999999996275,2,0,0,29495,task1,196391,false,false,261,image-keyboard-response,34
true,2,0,1,0,true,q,false,true,0.0-2.0-0.6-0.60-3.60,0,0,0,81,false,stim,false,2,781.0,2,0,0,29495,task1,198698,false,false,264,image-keyboard-response,35
true,2,1,1,1,true,z,false,true,0.0-2.0-0.6-0.61-3.61,0,0,0,90,false,stim,false,0,531.5999999996275,2,0,2,29495,task1,200750,false,false,267,image-keyboard-response,36
true,2,1,1,1,true,z,false,true,0.0-2.0-0.6-0.62-3.62,0,0,0,90,false,stim,false,0,332.30000000074506,2,0,2,29495,task1,202599,false,false,270,image-keyboard-response,37
true,2,1,1,1,true,z,false,true,0.0-2.0-0.7-0.63-3.63,0,0,0,90,false,stim,false,0,377.5,2,0,2,29495,task1,204509,false,false,273,image-keyboard-response,38
true,2,0,1,0,true,q,false,true,0.0-2.0-0.7-0.64-3.64,0,0,0,81,false,stim,false,2,344.5,2,0,0,29495,task1,206365,false,false,276,image-keyboard-response,39
true,2,1,1,1,true,z,false,true,0.0-2.0-0.7-0.65-3.65,0,0,0,90,false,stim,false,2,374.5,2,0,1,29495,task1,208255,false,false,279,image-keyboard-response,40
true,3,1,1,0,false,q,false,false,0.0-2.0-0.7-0.66-3.66,0,0,0,90,true,stim,true,1,778.4000000003725,2,0,2,29495,task1,210555,false,false,282,image-keyboard-response,1
true,3,1,1,1,true,z,false,true,0.0-2.0-0.7-0.67-3.67,0,0,0,90,false,stim,false,0,374.2999999988824,2,0,0,29495,task1,212455,false,false,285,image-keyboard-response,2
true,3,1,1,1,true,z,false,true,0.0-2.0-0.7-0.68-3.68,0,0,0,90,false,stim,false,0,559.7999999988824,2,0,0,29495,task1,214534,false,false,288,image-keyboard-response,3
true,3,1,1,0,false,q,false,false,0.0-2.0-0.7-0.69-3.69,0,0,0,90,false,stim,true,1,382.2000000011176,2,0,1,29495,task1,216437,false,false,291,image-keyboard-response,4
true,3,0,1,0,true,q,false,true,0.0-2.0-0.7-0.70-3.70,0,0,0,81,false,stim,false,1,641.5,2,0,2,29495,task1,218604,false,false,294,image-keyboard-response,5
true,3,1,1,0,false,q,false,false,0.0-2.0-0.7-0.71-3.71,0,0,0,90,false,stim,true,1,639.0,2,0,1,29495,task1,220770,false,false,297,image-keyboard-response,6
true,3,0,1,0,true,q,false,true,0.0-2.0-0.8-0.72-3.72,0,0,0,81,false,stim,false,1,865.0,2,0,2,29495,task1,223162,false,false,300,image-keyboard-response,7
true,3,1,1,1,true,z,false,true,0.0-2.0-0.8-0.73-3.73,0,0,0,90,false,stim,false,0,494.69999999925494,2,0,0,29495,task1,225177,false,false,303,image-keyboard-response,8
true,3,2,1,0,false,q,true,false,0.0-2.0-0.8-0.74-3.74,0,0,0,68,false,stim,false,1,407.80000000074506,2,0,1,29495,task1,227100,false,false,306,image-keyboard-response,9
true,3,0,1,0,true,q,false,true,0.0-2.0-0.8-0.75-3.75,0,0,0,81,false,stim,false,1,753.4000000003725,2,0,2,29495,task1,229366,false,false,309,image-keyboard-response,10
true,3,1,1,1,true,z,false,true,0.0-2.0-0.8-0.76-3.76,0,0,0,90,false,stim,false,0,257.30000000074506,2,0,0,29495,task1,231141,false,false,312,image-keyboard-response,11
true,3,1,1,1,true,z,false,true,0.0-2.0-0.8-0.77-3.77,0,0,0,90,false,stim,false,0,903.2999999988824,2,0,0,29495,task1,233568,false,false,315,image-keyboard-response,12
true,3,0,1,0,true,q,false,true,0.0-2.0-0.8-0.78-3.78,0,0,0,81,false,stim,false,1,414.40000000037253,2,0,1,29495,task1,235510,false,false,318,image-keyboard-response,13
true,3,0,1,0,true,q,false,true,0.0-2.0-0.8-0.79-3.79,0,0,0,81,false,stim,false,1,653.0,2,0,1,29495,task1,237690,false,false,321,image-keyboard-response,14
true,3,0,1,0,true,q,false,true,0.0-2.0-0.8-0.80-3.80,0,0,0,81,false,stim,false,1,404.5,2,0,2,29495,task1,239619,false,false,324,image-keyboard-response,15
true,3,0,1,0,true,q,false,true,0.0-2.0-0.9-0.81-3.81,0,0,0,81,false,stim,false,1,853.4000000003725,2,0,2,29495,task1,241991,false,false,327,image-keyboard-response,16
true,3,1,1,1,true,z,false,true,0.0-2.0-0.9-0.82-3.82,0,0,0,90,false,stim,false,0,417.5,2,0,0,29495,task1,243924,false,false,330,image-keyboard-response,17
true,3,0,1,0,true,q,false,true,0.0-2.0-0.9-0.83-3.83,0,0,0,81,false,stim,false,1,1021.3999999985099,2,0,1,29495,task1,246463,false,false,333,image-keyboard-response,18
true,3,0,1,0,true,q,false,true,0.0-2.0-0.9-0.84-3.84,0,0,0,81,false,stim,false,1,629.3999999985099,2,0,1,29495,task1,248621,false,false,336,image-keyboard-response,19
true,3,0,1,0,true,q,false,true,0.0-2.0-0.9-0.85-3.85,0,0,0,81,false,stim,false,1,555.3000000007451,2,0,1,29495,task1,250702,false,false,339,image-keyboard-response,20
true,3,1,1,1,true,z,false,true,0.0-2.0-0.9-0.86-3.86,0,0,0,90,false,stim,false,0,381.19999999925494,2,0,0,29495,task1,252611,false,false,342,image-keyboard-response,21
true,3,0,1,0,true,q,false,true,0.0-2.0-0.9-0.87-3.87,0,0,0,81,false,stim,false,1,403.2000000011176,2,0,2,29495,task1,254543,false,false,345,image-keyboard-response,22
true,3,1,1,1,true,z,false,true,0.0-2.0-0.9-0.88-3.88,0,0,0,90,false,stim,false,0,641.1999999992549,2,0,0,29495,task1,256715,false,false,348,image-keyboard-response,23
true,3,0,1,0,true,q,false,true,0.0-2.0-0.9-0.89-3.89,0,0,0,81,false,stim,false,1,502.2999999988824,2,0,2,29495,task1,258740,false,false,351,image-keyboard-response,24
true,3,0,1,0,true,q,false,true,0.0-2.0-0.10-0.90-3.90,0,0,0,81,false,stim,false,1,834.0,2,0,1,29495,task1,261104,false,false,354,image-keyboard-response,25
true,3,1,1,1,true,z,false,true,0.0-2.0-0.10-0.91-3.91,0,0,0,90,false,stim,false,0,400.5,2,0,0,29495,task1,263025,false,false,357,image-keyboard-response,26
true,3,1,1,1,true,z,false,true,0.0-2.0-0.10-0.92-3.92,0,0,0,90,false,stim,false,0,524.0,2,0,0,29495,task1,265059,false,false,360,image-keyboard-response,27
true,3,0,1,0,true,q,false,true,0.0-2.0-0.10-0.93-3.93,0,0,0,81,false,stim,false,1,519.5999999996275,2,0,2,29495,task1,267105,false,false,363,image-keyboard-response,28
true,3,0,1,0,true,q,false,true,0.0-2.0-0.10-0.94-3.94,0,0,0,81,false,stim,false,1,390.5,2,0,1,29495,task1,269023,false,false,366,image-keyboard-response,29
true,3,1,1,1,true,z,false,true,0.0-2.0-0.10-0.95-3.95,0,0,0,90,false,stim,false,0,548.1000000014901,2,0,0,29495,task1,271089,false,false,369,image-keyboard-response,30
true,3,0,1,0,true,q,false,true,0.0-2.0-0.10-0.96-3.96,0,0,0,81,false,stim,false,1,535.9000000003725,2,0,2,29495,task1,273152,false,false,372,image-keyboard-response,31
true,3,0,1,0,true,q,false,true,0.0-2.0-0.10-0.97-3.97,0,0,0,81,false,stim,false,1,923.8000000007451,2,0,2,29495,task1,275587,false,false,375,image-keyboard-response,32
true,3,0,1,0,true,q,false,true,0.0-2.0-0.10-0.98-3.98,0,0,0,81,false,stim,false,1,1154.5,2,0,1,29495,task1,278260,false,false,378,image-keyboard-response,33
true,3,1,1,0,false,q,false,true,0.0-2.0-0.11-0.99-3.99,0,0,0,90,false,stim,true,1,413.19999999925494,2,0,2,29495,task1,280196,false,true,381,image-keyboard-response,34
true,3,1,1,0,false,q,false,false,0.0-2.0-0.11-0.100-3.100,0,0,0,90,false,stim,true,1,558.5,2,0,2,29495,task1,282271,false,false,384,image-keyboard-response,35
true,3,0,1,0,true,q,false,true,0.0-2.0-0.11-0.101-3.101,0,0,0,81,false,stim,false,1,788.5999999996275,2,0,1,29495,task1,284585,false,false,387,image-keyboard-response,36
true,3,0,1,0,true,q,false,true,0.0-2.0-0.11-0.102-3.102,0,0,0,81,false,stim,false,1,683.2000000011176,2,0,1,29495,task1,286797,false,false,390,image-keyboard-response,37
true,3,0,1,0,true,q,false,true,0.0-2.0-0.11-0.103-3.103,0,0,0,81,false,stim,false,1,641.7999999988824,2,0,1,29495,task1,288960,false,false,393,image-keyboard-response,38
true,3,0,1,0,true,q,false,false,0.0-2.0-0.11-0.104-3.104,0,0,0,81,false,stim,false,1,638.3999999985099,2,0,2,29495,task1,291119,false,true,396,image-keyboard-response,39
true,3,1,1,1,true,z,false,true,0.0-2.0-0.11-0.105-3.105,0,0,0,90,false,stim,false,0,437.59999999962747,2,0,0,29495,task1,293072,false,false,399,image-keyboard-response,40
true,3,1,1,1,true,z,false,true,0.0-2.0-0.11-0.106-3.106,0,0,0,90,false,stim,false,0,765.9000000003725,2,0,0,29495,task1,295359,false,false,402,image-keyboard-response,41
true,3,1,1,1,true,z,false,true,0.0-2.0-0.11-0.107-3.107,0,0,0,90,false,stim,false,0,647.3999999985099,2,0,0,29495,task1,297541,false,false,405,image-keyboard-response,42
true,3,2,1,0,false,q,true,false,0.0-2.0-0.12-0.108-3.108,0,0,0,68,false,stim,false,1,389.0,2,0,2,29495,task1,299466,false,false,408,image-keyboard-response,43
true,3,1,1,1,true,z,false,false,0.0-2.0-0.12-0.109-3.109,0,0,0,90,false,stim,false,0,585.0,2,0,0,29495,task1,301568,false,true,411,image-keyboard-response,44
true,3,0,1,0,true,q,false,true,0.0-2.0-0.12-0.110-3.110,0,0,0,81,false,stim,false,1,1102.0999999996275,2,0,2,29495,task1,304194,false,false,414,image-keyboard-response,45
true,4,0,1,1,false,z,false,false,0.0-2.0-0.12-0.111-3.111,0,0,0,81,true,stim,true,0,469.69999999925494,2,0,1,29495,task1,306176,false,false,417,image-keyboard-response,1
true,4,0,1,1,false,z,false,false,0.0-2.0-0.12-0.112-3.112,0,0,0,81,false,stim,true,0,750.2999999988824,2,0,2,29495,task1,308442,false,false,420,image-keyboard-response,2
true,4,1,1,2,false,d,false,false,0.0-2.0-0.12-0.113-3.113,0,0,0,90,false,stim,true,1,815.3000000007451,2,0,0,29495,task1,310786,false,false,423,image-keyboard-response,3
true,4,2,1,1,false,z,true,false,0.0-2.0-0.12-0.114-3.114,0,0,0,68,false,stim,false,0,454.59999999962747,2,0,1,29495,task1,312760,false,false,426,image-keyboard-response,4
true,4,0,1,1,false,z,false,false,0.0-2.0-0.12-0.115-3.115,0,0,0,81,false,stim,true,0,295.09999999962747,2,0,1,29495,task1,314584,false,false,429,image-keyboard-response,5
true,4,1,1,2,false,d,false,false,0.0-2.0-0.12-0.116-3.116,0,0,0,90,false,stim,true,1,508.69999999925494,2,0,0,29495,task1,316617,false,false,432,image-keyboard-response,6
true,4,2,1,1,false,z,true,false,0.0-2.0-0.13-0.117-3.117,0,0,0,68,false,stim,false,0,973.1000000014901,2,0,2,29495,task1,319111,false,false,435,image-keyboard-response,7
true,4,0,1,2,false,d,true,false,0.0-2.0-0.13-0.118-3.118,0,0,0,81,false,stim,false,1,510.80000000074506,2,0,0,29495,task1,321143,false,false,438,image-keyboard-response,8
true,4,1,1,1,true,z,false,true,0.0-2.0-0.13-0.119-3.119,0,0,0,90,false,stim,false,0,408.19999999925494,2,0,1,29495,task1,323063,false,false,441,image-keyboard-response,9
true,4,0,1,2,false,d,true,false,0.0-2.0-0.13-0.120-3.120,0,0,0,81,false,stim,false,1,645.7999999988824,2,0,0,29495,task1,325230,false,false,444,image-keyboard-response,10
true,4,1,1,1,true,z,false,true,0.0-2.0-0.13-0.121-3.121,0,0,0,90,false,stim,false,0,757.0,2,0,1,29495,task1,327505,false,false,447,image-keyboard-response,11
true,4,1,1,1,true,z,false,true,0.0-2.0-0.13-0.122-3.122,0,0,0,90,false,stim,false,0,676.7000000011176,2,0,1,29495,task1,329706,false,false,450,image-keyboard-response,12
true,4,0,1,1,false,z,false,true,0.0-2.0-0.13-0.123-3.123,0,0,0,81,false,stim,true,0,1457.7000000011176,2,0,2,29495,task1,332682,false,true,453,image-keyboard-response,13
true,4,0,1,1,false,z,false,false,0.0-2.0-0.13-0.124-3.124,0,0,0,81,false,stim,true,0,557.3999999985099,2,0,2,29495,task1,334759,false,false,456,image-keyboard-response,14
true,4,1,1,2,false,d,false,false,0.0-2.0-0.13-0.125-3.125,0,0,0,90,false,stim,true,1,731.0,2,0,0,29495,task1,337016,false,false,459,image-keyboard-response,15
true,4,0,1,1,false,z,false,false,0.0-2.0-0.14-0.126-3.126,0,0,0,81,false,stim,true,0,770.0,2,0,2,29495,task1,339299,false,false,462,image-keyboard-response,16
true,4,2,1,1,false,z,true,false,0.0-2.0-0.14-0.127-3.127,0,0,0,68,false,stim,false,0,793.9000000003725,2,0,2,29495,task1,341606,false,false,465,image-keyboard-response,17
true,4,1,1,2,false,d,false,false,0.0-2.0-0.14-0.128-3.128,0,0,0,90,false,stim,true,1,981.3000000007451,2,0,0,29495,task1,344110,false,false,468,image-keyboard-response,18
true,4,1,1,1,true,z,false,true,0.0-2.0-0.14-0.129-3.129,0,0,0,90,false,stim,false,0,841.7999999988824,2,0,1,29495,task1,346473,false,false,471,image-keyboard-response,19
true,4,1,1,1,true,z,false,true,0.0-2.0-0.14-0.130-3.130,0,0,0,90,false,stim,false,0,384.40000000037253,2,0,1,29495,task1,348386,false,false,474,image-keyboard-response,20
true,4,1,1,2,false,d,false,false,0.0-2.0-0.14-0.131-3.131,0,0,0,90,false,stim,true,1,780.4000000003725,2,0,0,29495,task1,350686,false,false,477,image-keyboard-response,21
true,4,1,1,1,true,z,false,false,0.0-2.0-0.14-0.132-3.132,0,0,0,90,false,stim,false,0,1074.5,2,0,1,29495,task1,353283,false,true,480,image-keyboard-response,22
true,4,0,1,1,false,z,false,true,0.0-2.0-0.14-0.133-3.133,0,0,0,81,false,stim,true,0,713.5999999996275,2,0,2,29495,task1,355525,false,true,483,image-keyboard-response,23
true,4,2,1,2,true,d,false,true,0.0-2.0-0.14-0.134-3.134,0,0,0,68,false,stim,false,1,699.5,2,0,0,29495,task1,357751,false,false,486,image-keyboard-response,24
true,4,2,1,2,true,d,false,true,0.0-2.0-0.15-0.135-3.135,0,0,0,68,false,stim,false,1,413.80000000074506,2,0,0,29495,task1,359689,false,false,489,image-keyboard-response,25
true,4,0,1,1,false,z,false,false,0.0-2.0-0.15-0.136-3.136,0,0,0,81,false,stim,true,0,788.6999999992549,2,0,2,29495,task1,362011,false,false,492,image-keyboard-response,26
true,4,2,1,1,false,z,true,false,0.0-2.0-0.15-0.137-3.137,0,0,0,68,false,stim,false,0,753.6999999992549,2,0,1,29495,task1,364288,false,false,495,image-keyboard-response,27
true,4,2,1,2,true,d,false,false,0.0-2.0-0.15-0.138-3.138,0,0,0,68,false,stim,false,1,699.3000000007451,2,0,0,29495,task1,366508,false,true,498,image-keyboard-response,28
true,4,2,1,2,true,d,false,true,0.0-2.0-0.15-0.139-3.139,0,0,0,68,false,stim,false,1,395.09999999962747,2,0,0,29495,task1,368449,false,false,501,image-keyboard-response,29
true,4,1,1,1,true,z,false,true,0.0-2.0-0.15-0.140-3.140,0,0,0,90,false,stim,false,0,679.0,2,0,1,29495,task1,370640,false,false,504,image-keyboard-response,30
true,4,1,1,1,true,z,false,true,0.0-2.0-0.15-0.141-3.141,0,0,0,90,false,stim,false,0,647.0999999996275,2,0,1,29495,task1,372805,false,false,507,image-keyboard-response,31
true,4,0,1,1,false,z,false,false,0.0-2.0-0.15-0.142-3.142,0,0,0,81,false,stim,true,0,499.40000000037253,2,0,2,29495,task1,374837,false,false,510,image-keyboard-response,32
true,4,0,1,1,false,z,false,false,0.0-2.0-0.15-0.143-3.143,0,0,0,81,false,stim,true,0,585.0,2,0,2,29495,task1,376939,false,false,513,image-keyboard-response,33
true,4,1,1,1,true,z,false,true,0.0-2.0-0.16-0.144-3.144,0,0,0,90,false,stim,false,0,368.09999999962747,2,0,2,29495,task1,378819,false,false,516,image-keyboard-response,34
true,4,1,1,1,true,z,false,true,0.0-2.0-0.16-0.145-3.145,0,0,0,90,false,stim,false,0,344.09999999962747,2,0,1,29495,task1,380680,false,false,519,image-keyboard-response,35
true,4,2,1,2,true,d,false,true,0.0-2.0-0.16-0.146-3.146,0,0,0,68,false,stim,false,1,513.3000000007451,2,0,0,29495,task1,382712,false,false,522,image-keyboard-response,36
true,4,1,1,1,true,z,false,true,0.0-2.0-0.16-0.147-3.147,0,0,0,90,false,stim,false,0,460.19999999925494,2,0,1,29495,task1,384699,false,false,525,image-keyboard-response,37
true,4,1,1,1,true,z,false,true,0.0-2.0-0.16-0.148-3.148,0,0,0,90,false,stim,false,0,511.19999999925494,2,0,1,29495,task1,386731,false,false,528,image-keyboard-response,38
true,4,1,1,1,true,z,false,true,0.0-2.0-0.16-0.149-3.149,0,0,0,90,false,stim,false,0,621.5999999996275,2,0,2,29495,task1,388864,false,false,531,image-keyboard-response,39
true,4,2,1,2,true,d,false,true,0.0-2.0-0.16-0.150-3.150,0,0,0,68,false,stim,false,1,420.30000000074506,2,0,0,29495,task1,390794,false,false,534,image-keyboard-response,40
true,5,1,2,0,false,q,false,false,0.0-2.0-0.16-0.151-3.151,0,0,0,90,true,stim,true,1,1136.300000000745,2,0,2,29495,task1,393446,false,false,537,image-keyboard-response,1
true,5,2,2,1,false,z,false,false,0.0-2.0-0.16-0.152-3.152,0,0,0,68,false,stim,true,2,694.5999999996275,2,0,0,29495,task1,395667,false,false,540,image-keyboard-response,2
true,5,2,2,1,false,z,false,false,0.0-2.0-0.17-0.153-3.153,0,0,0,68,false,stim,true,2,886.7000000011176,2,0,0,29495,task1,398076,false,false,543,image-keyboard-response,3
true,5,1,2,0,false,q,false,false,0.0-2.0-0.17-0.154-3.154,0,0,0,90,false,stim,true,1,576.9000000003725,2,0,1,29495,task1,400173,false,false,546,image-keyboard-response,4
true,5,0,2,0,true,q,false,true,0.0-2.0-0.17-0.155-3.155,0,0,0,81,false,stim,false,1,530.7999999988824,2,0,2,29495,task1,402224,false,false,549,image-keyboard-response,5
true,5,1,2,0,false,q,false,false,0.0-2.0-0.17-0.156-3.156,0,0,0,90,false,stim,true,1,534.4000000003725,2,0,1,29495,task1,404283,false,false,552,image-keyboard-response,6
true,5,2,2,1,false,z,false,false,0.0-2.0-0.17-0.157-3.157,0,0,0,68,false,stim,true,2,407.69999999925494,2,0,0,29495,task1,406220,false,false,555,image-keyboard-response,7
true,5,0,2,0,true,q,false,true,0.0-2.0-0.17-0.158-3.158,0,0,0,81,false,stim,false,1,715.3000000007451,2,0,2,29495,task1,408452,false,false,558,image-keyboard-response,8
true,5,1,2,0,false,q,false,false,0.0-2.0-0.17-0.159-3.159,0,0,0,90,false,stim,true,1,731.7999999988824,2,0,2,29495,task1,410712,false,false,561,image-keyboard-response,9
true,5,1,2,1,true,z,false,false,0.0-2.0-0.17-0.160-3.160,0,0,0,90,false,stim,false,2,599.8000000007451,2,0,0,29495,task1,412834,false,true,564,image-keyboard-response,10
true,5,2,2,0,false,q,true,false,0.0-2.0-0.17-0.161-3.161,0,0,0,68,false,stim,false,1,1090.2000000011176,2,0,1,29495,task1,415445,false,false,567,image-keyboard-response,11
true,5,0,2,1,false,z,true,false,0.0-2.0-0.18-0.162-3.162,0,0,0,81,false,stim,false,2,1041.5999999996275,2,0,0,29495,task1,418007,false,false,570,image-keyboard-response,12
true,5,1,2,1,true,z,false,false,0.0-2.0-0.18-0.163-3.163,0,0,0,90,false,stim,false,2,358.8999999985099,2,0,0,29495,task1,419890,false,true,573,image-keyboard-response,13
true,5,0,2,0,true,q,false,true,0.0-2.0-0.18-0.164-3.164,0,0,0,81,false,stim,false,1,855.5,2,0,1,29495,task1,422271,false,false,576,image-keyboard-response,14
true,5,0,2,0,true,q,false,true,0.0-2.0-0.18-0.165-3.165,0,0,0,81,false,stim,false,1,398.90000000037253,2,0,1,29495,task1,424200,false,false,579,image-keyboard-response,15
true,5,0,2,0,true,q,false,true,0.0-2.0-0.18-0.166-3.166,0,0,0,81,false,stim,false,1,333.30000000074506,2,0,1,29495,task1,426045,false,false,582,image-keyboard-response,16
true,5,0,2,0,true,q,false,true,0.0-2.0-0.18-0.167-3.167,0,0,0,81,false,stim,false,1,749.7999999988824,2,0,2,29495,task1,428323,false,false,585,image-keyboard-response,17
true,5,0,2,1,false,z,true,false,0.0-2.0-0.18-0.168-3.168,0,0,0,81,false,stim,false,2,1257.199999999255,2,0,0,29495,task1,431099,false,false,588,image-keyboard-response,18
true,5,0,2,0,true,q,false,true,0.0-2.0-0.18-0.169-3.169,0,0,0,81,false,stim,false,1,505.69999999925494,2,0,2,29495,task1,433119,false,false,591,image-keyboard-response,19
true,5,0,2,0,true,q,false,true,0.0-2.0-0.18-0.170-3.170,0,0,0,81,false,stim,false,1,387.40000000037253,2,0,2,29495,task1,435034,false,false,594,image-keyboard-response,20
true,5,1,2,1,true,z,false,true,0.0-2.0-0.19-0.171-3.171,0,0,0,90,false,stim,false,2,1302.0,2,0,0,29495,task1,437862,false,false,597,image-keyboard-response,21
true,5,0,2,0,true,q,false,true,0.0-2.0-0.19-0.172-3.172,0,0,0,81,false,stim,false,1,643.5,2,0,2,29495,task1,440027,false,false,600,image-keyboard-response,22
true,5,0,2,0,true,q,false,true,0.0-2.0-0.19-0.173-3.173,0,0,0,81,false,stim,false,1,468.7999999988824,2,0,2,29495,task1,442029,false,false,603,image-keyboard-response,23
true,5,0,2,0,true,q,false,true,0.0-2.0-0.19-0.174-3.174,0,0,0,81,false,stim,false,1,663.4000000003725,2,0,1,29495,task1,444205,false,false,606,image-keyboard-response,24
true,5,0,2,0,true,q,false,true,0.0-2.0-0.19-0.175-3.175,0,0,0,81,false,stim,false,1,419.2999999988824,2,0,1,29495,task1,446139,false,false,609,image-keyboard-response,25
true,5,1,2,1,true,z,false,true,0.0-2.0-0.19-0.176-3.176,0,0,0,90,false,stim,false,2,433.09999999962747,2,0,0,29495,task1,448102,false,false,612,image-keyboard-response,26
true,5,0,2,0,true,q,false,true,0.0-2.0-0.19-0.177-3.177,0,0,0,81,false,stim,false,1,829.9000000003725,2,0,1,29495,task1,450447,false,false,615,image-keyboard-response,27
true,5,1,2,1,true,z,false,true,0.0-2.0-0.19-0.178-3.178,0,0,0,90,false,stim,false,2,625.1000000014901,2,0,0,29495,task1,452581,false,false,618,image-keyboard-response,28
true,5,0,2,0,true,q,false,true,0.0-2.0-0.19-0.179-3.179,0,0,0,81,false,stim,false,1,585.0,2,0,2,29495,task1,454685,false,false,621,image-keyboard-response,29
true,5,1,2,1,true,z,false,true,0.0-2.0-0.20-0.180-3.180,0,0,0,90,false,stim,false,2,594.7000000011176,2,0,0,29495,task1,456796,false,false,624,image-keyboard-response,30
true,5,0,2,0,true,q,false,true,0.0-2.0-0.20-0.181-3.181,0,0,0,81,false,stim,false,1,657.3999999985099,2,0,2,29495,task1,458989,false,false,627,image-keyboard-response,31
true,5,1,2,1,true,z,false,true,0.0-2.0-0.20-0.182-3.182,0,0,0,90,false,stim,false,2,609.3000000007451,2,0,0,29495,task1,461123,false,false,630,image-keyboard-response,32
true,5,0,2,0,true,q,false,true,0.0-2.0-0.20-0.183-3.183,0,0,0,81,false,stim,false,1,533.8000000007451,2,0,1,29495,task1,463185,false,false,633,image-keyboard-response,33
true,5,1,2,1,true,z,false,true,0.0-2.0-0.20-0.184-3.184,0,0,0,90,false,stim,false,2,563.0,2,0,0,29495,task1,465267,false,false,636,image-keyboard-response,34
true,5,0,2,0,true,q,false,true,0.0-2.0-0.20-0.185-3.185,0,0,0,81,false,stim,false,1,594.3999999985099,2,0,1,29495,task1,467383,false,false,639,image-keyboard-response,35
true,5,0,2,0,true,q,false,true,0.0-2.0-0.20-0.186-3.186,0,0,0,81,false,stim,false,1,538.0,2,0,1,29495,task1,469442,false,false,642,image-keyboard-response,36
true,5,0,2,0,true,q,false,true,0.0-2.0-0.20-0.187-3.187,0,0,0,81,false,stim,false,1,736.5999999996275,2,0,2,29495,task1,471716,false,false,645,image-keyboard-response,37
true,5,0,2,0,true,q,false,true,0.0-2.0-0.20-0.188-3.188,0,0,0,81,false,stim,false,1,629.0999999996275,2,0,2,29495,task1,473865,false,false,648,image-keyboard-response,38
true,5,1,2,1,true,z,false,true,0.0-2.0-0.21-0.189-3.189,0,0,0,90,false,stim,false,2,525.4000000003725,2,0,0,29495,task1,475909,false,false,651,image-keyboard-response,39
true,6,1,2,0,false,q,false,false,0.0-2.0-0.21-0.190-3.190,0,0,0,90,true,stim,true,1,595.1999999992549,2,0,0,29495,task1,478023,false,false,654,image-keyboard-response,1
true,6,0,2,0,true,q,false,true,0.0-2.0-0.21-0.191-3.191,0,0,0,81,false,stim,false,1,784.3000000007451,2,0,0,29495,task1,480317,false,false,657,image-keyboard-response,2
true,6,0,2,1,false,z,false,false,0.0-2.0-0.21-0.192-3.192,0,0,0,81,false,stim,true,0,628.0,2,0,1,29495,task1,482472,false,false,660,image-keyboard-response,3
true,6,2,2,1,false,z,true,false,0.0-2.0-0.21-0.193-3.193,0,0,0,68,false,stim,false,0,489.80000000074506,2,0,2,29495,task1,484481,false,false,663,image-keyboard-response,4
true,6,1,2,1,true,z,false,true,0.0-2.0-0.21-0.194-3.194,0,0,0,90,false,stim,false,0,668.4000000003725,2,0,1,29495,task1,486675,false,false,666,image-keyboard-response,5
true,6,2,2,1,false,z,true,false,0.0-2.0-0.21-0.195-3.195,0,0,0,68,false,stim,false,0,1201.699999999255,2,0,2,29495,task1,489399,false,false,669,image-keyboard-response,6
true,6,0,2,1,false,z,false,false,0.0-2.0-0.21-0.196-3.196,0,0,0,81,false,stim,true,0,1031.5,2,0,2,29495,task1,491956,false,false,672,image-keyboard-response,7
true,6,1,2,1,true,z,false,true,0.0-2.0-0.21-0.197-3.197,0,0,0,90,false,stim,false,0,405.0,2,0,1,29495,task1,493879,false,false,675,image-keyboard-response,8
true,6,0,2,0,true,q,false,true,0.0-2.0-0.22-0.198-3.198,0,0,0,81,false,stim,false,1,544.0,2,0,0,29495,task1,495941,false,false,678,image-keyboard-response,9
true,6,2,2,1,false,z,true,false,0.0-2.0-0.22-0.199-3.199,0,0,0,68,false,stim,false,0,395.0,2,0,2,29495,task1,497864,false,false,681,image-keyboard-response,10
true,6,0,2,0,true,q,false,true,0.0-2.0-0.22-0.200-3.200,0,0,0,81,false,stim,false,1,631.7999999988824,2,0,0,29495,task1,500011,false,false,684,image-keyboard-response,11
true,6,0,2,1,false,z,false,false,0.0-2.0-0.22-0.201-3.201,0,0,0,81,false,stim,true,0,681.8000000007451,2,0,2,29495,task1,502214,false,false,687,image-keyboard-response,12
true,6,1,2,1,true,z,false,true,0.0-2.0-0.22-0.202-3.202,0,0,0,90,false,stim,false,0,571.6999999992549,2,0,1,29495,task1,504304,false,false,690,image-keyboard-response,13
true,6,0,2,0,true,q,false,true,0.0-2.0-0.22-0.203-3.203,0,0,0,81,false,stim,false,1,587.4000000003725,2,0,0,29495,task1,506423,false,false,693,image-keyboard-response,14
true,6,1,2,1,true,z,false,true,0.0-2.0-0.22-0.204-3.204,0,0,0,90,false,stim,false,0,338.2000000011176,2,0,2,29495,task1,508282,false,false,696,image-keyboard-response,15
true,6,1,2,1,true,z,false,true,0.0-2.0-0.22-0.205-3.205,0,0,0,90,false,stim,false,0,351.59999999962747,2,0,1,29495,task1,510149,false,false,699,image-keyboard-response,16
true,6,1,2,1,true,z,false,true,0.0-2.0-0.22-0.206-3.206,0,0,0,90,false,stim,false,0,473.2000000011176,2,0,1,29495,task1,512138,false,false,702,image-keyboard-response,17
true,6,1,2,1,true,z,false,true,0.0-2.0-0.23-0.207-3.207,0,0,0,90,false,stim,false,0,475.59999999962747,2,0,2,29495,task1,514128,false,false,705,image-keyboard-response,18
true,6,1,2,1,true,z,false,true,0.0-2.0-0.23-0.208-3.208,0,0,0,90,false,stim,false,0,806.4000000003725,2,0,1,29495,task1,516458,false,false,708,image-keyboard-response,19
true,6,1,2,1,true,z,false,true,0.0-2.0-0.23-0.209-3.209,0,0,0,90,false,stim,false,0,442.69999999925494,2,0,1,29495,task1,518423,false,false,711,image-keyboard-response,20
true,6,1,2,1,true,z,false,true,0.0-2.0-0.23-0.210-3.210,0,0,0,90,false,stim,false,0,623.8999999985099,2,0,2,29495,task1,520564,false,false,714,image-keyboard-response,21
true,6,1,2,1,true,z,false,false,0.0-2.0-0.23-0.211-3.211,0,0,0,90,false,stim,false,0,412.90000000037253,2,0,2,29495,task1,522494,false,true,717,image-keyboard-response,22
true,6,0,2,0,true,q,false,true,0.0-2.0-0.23-0.212-3.212,0,0,0,81,false,stim,false,1,621.6999999992549,2,0,0,29495,task1,524647,false,false,720,image-keyboard-response,23
true,6,1,2,0,false,q,false,false,0.0-2.0-0.23-0.213-3.213,0,0,0,90,false,stim,true,1,401.09999999962747,2,0,0,29495,task1,526567,false,false,723,image-keyboard-response,24
true,6,0,2,0,true,q,false,true,0.0-2.0-0.23-0.214-3.214,0,0,0,81,false,stim,false,1,535.6000000014901,2,0,0,29495,task1,528631,false,false,726,image-keyboard-response,25
true,6,1,2,1,true,z,false,true,0.0-2.0-0.23-0.215-3.215,0,0,0,90,false,stim,false,0,536.6999999992549,2,0,1,29495,task1,530701,false,false,729,image-keyboard-response,26
true,6,1,2,1,true,z,false,false,0.0-2.0-0.24-0.216-3.216,0,0,0,90,false,stim,false,0,506.30000000074506,2,0,1,29495,task1,532726,false,true,732,image-keyboard-response,27
true,6,0,2,0,true,q,false,true,0.0-2.0-0.24-0.217-3.217,0,0,0,81,false,stim,false,1,462.0,2,0,0,29495,task1,534701,false,false,735,image-keyboard-response,28
true,6,0,2,0,true,q,false,true,0.0-2.0-0.24-0.218-3.218,0,0,0,81,false,stim,false,1,554.2000000011176,2,0,0,29495,task1,536780,false,false,738,image-keyboard-response,29
true,6,1,2,1,true,z,false,true,0.0-2.0-0.24-0.219-3.219,0,0,0,90,false,stim,false,0,579.7999999988824,2,0,2,29495,task1,538882,false,false,741,image-keyboard-response,30
true,6,1,2,1,true,z,false,true,0.0-2.0-0.24-0.220-3.220,0,0,0,90,false,stim,false,0,387.80000000074506,2,0,1,29495,task1,540788,false,false,744,image-keyboard-response,31
true,6,0,2,0,true,q,false,true,0.0-2.0-0.24-0.221-3.221,0,0,0,81,false,stim,false,1,421.80000000074506,2,0,0,29495,task1,542734,false,false,747,image-keyboard-response,32
true,6,1,2,1,true,z,false,true,0.0-2.0-0.24-0.222-3.222,0,0,0,90,false,stim,false,0,373.5,2,0,1,29495,task1,544621,false,false,750,image-keyboard-response,33
true,6,1,2,1,true,z,false,true,0.0-2.0-0.24-0.223-3.223,0,0,0,90,false,stim,false,0,405.3999999985099,2,0,2,29495,task1,546545,false,false,753,image-keyboard-response,34
true,6,1,2,1,true,z,false,true,0.0-2.0-0.24-0.224-3.224,0,0,0,90,false,stim,false,0,487.80000000074506,2,0,2,29495,task1,548563,false,false,756,image-keyboard-response,35
true,6,1,2,1,true,z,false,true,0.0-2.0-0.25-0.225-3.225,0,0,0,90,false,stim,false,0,425.5,2,0,2,29495,task1,550514,false,false,759,image-keyboard-response,36
true,6,1,2,1,true,z,false,true,0.0-2.0-0.25-0.226-3.226,0,0,0,90,false,stim,false,0,596.8999999985099,2,0,1,29495,task1,552634,false,false,762,image-keyboard-response,37
true,6,1,2,1,true,z,false,true,0.0-2.0-0.25-0.227-3.227,0,0,0,90,false,stim,false,0,477.5,2,0,2,29495,task1,554632,false,false,765,image-keyboard-response,38
true,6,1,2,1,true,z,false,true,0.0-2.0-0.25-0.228-3.228,0,0,0,90,false,stim,false,0,673.3000000007451,2,0,1,29495,task1,556823,false,false,768,image-keyboard-response,39
true,6,0,2,0,true,q,false,true,0.0-2.0-0.25-0.229-3.229,0,0,0,81,false,stim,false,1,692.4000000003725,2,0,0,29495,task1,559037,false,false,771,image-keyboard-response,40
true,6,0,2,0,true,q,false,true,0.0-2.0-0.25-0.230-3.230,0,0,0,81,false,stim,false,1,569.5999999996275,2,0,0,29495,task1,561131,false,false,774,image-keyboard-response,41
true,6,1,2,1,true,z,false,true,0.0-2.0-0.25-0.231-3.231,0,0,0,90,false,stim,false,0,565.0,2,0,1,29495,task1,563218,false,false,777,image-keyboard-response,42
true,7,0,1,1,false,z,false,false,0.0-2.0-0.25-0.232-3.232,0,0,0,81,true,stim,true,0,669.9000000003725,2,0,0,29495,task1,565420,false,false,780,image-keyboard-response,1
true,7,1,1,2,false,d,false,false,0.0-2.0-0.25-0.233-3.233,0,0,0,90,false,stim,true,1,535.3000000007451,2,0,2,29495,task1,567486,false,false,783,image-keyboard-response,2
true,7,1,1,2,false,d,false,false,0.0-2.0-0.26-0.234-3.234,0,0,0,90,false,stim,true,1,680.0,2,0,1,29495,task1,569699,false,false,786,image-keyboard-response,3
true,7,2,1,2,true,d,false,true,0.0-2.0-0.26-0.235-3.235,0,0,0,68,false,stim,false,1,511.19999999925494,2,0,1,29495,task1,571745,false,false,789,image-keyboard-response,4
true,7,2,1,2,true,d,false,true,0.0-2.0-0.26-0.236-3.236,0,0,0,68,false,stim,false,1,570.2999999988824,2,0,2,29495,task1,573843,false,false,792,image-keyboard-response,5
true,7,2,1,2,true,d,false,true,0.0-2.0-0.26-0.237-3.237,0,0,0,68,false,stim,false,1,611.4000000003725,2,0,2,29495,task1,575980,false,false,795,image-keyboard-response,6
true,7,0,1,1,false,z,false,false,0.0-2.0-0.26-0.238-3.238,0,0,0,81,false,stim,true,0,536.0,2,0,0,29495,task1,578041,false,false,798,image-keyboard-response,7
true,7,1,1,1,true,z,false,true,0.0-2.0-0.26-0.239-3.239,0,0,0,90,false,stim,false,0,738.4000000003725,2,0,0,29495,task1,580315,false,false,801,image-keyboard-response,8
true,7,2,1,2,true,d,false,true,0.0-2.0-0.26-0.240-3.240,0,0,0,68,false,stim,false,1,411.2999999988824,2,0,2,29495,task1,582256,false,false,804,image-keyboard-response,9
true,7,1,1,1,true,z,false,true,0.0-2.0-0.26-0.241-3.241,0,0,0,90,false,stim,false,0,547.0999999996275,2,0,0,29495,task1,584311,false,false,807,image-keyboard-response,10
true,7,2,1,2,true,d,false,true,0.0-2.0-0.26-0.242-3.242,0,0,0,68,false,stim,false,1,480.5,2,0,1,29495,task1,586318,false,false,810,image-keyboard-response,11
true,7,2,1,2,true,d,false,true,0.0-2.0-0.27-0.243-3.243,0,0,0,68,false,stim,false,1,455.90000000037253,2,0,1,29495,task1,588309,false,false,813,image-keyboard-response,12
true,7,1,1,1,true,z,false,true,0.0-2.0-0.27-0.244-3.244,0,0,0,90,false,stim,false,0,614.8000000007451,2,0,0,29495,task1,590444,false,false,816,image-keyboard-response,13
true,7,1,1,1,true,z,false,true,0.0-2.0-0.27-0.245-3.245,0,0,0,90,false,stim,false,0,511.0,2,0,0,29495,task1,592475,false,false,819,image-keyboard-response,14
true,7,2,1,2,true,d,false,false,0.0-2.0-0.27-0.246-3.246,0,0,0,68,false,stim,false,1,381.40000000037253,2,0,2,29495,task1,594376,false,true,822,image-keyboard-response,15
true,7,2,1,2,true,d,false,true,0.0-2.0-0.27-0.247-3.247,0,0,0,68,false,stim,false,1,639.3000000007451,2,0,2,29495,task1,596533,false,false,825,image-keyboard-response,16
true,7,1,1,1,true,z,false,true,0.0-2.0-0.27-0.248-3.248,0,0,0,90,false,stim,false,0,504.40000000037253,2,0,0,29495,task1,598565,false,false,828,image-keyboard-response,17
true,7,2,1,2,true,d,false,true,0.0-2.0-0.27-0.249-3.249,0,0,0,68,false,stim,false,1,588.0999999996275,2,0,1,29495,task1,600678,false,false,831,image-keyboard-response,18
true,7,2,1,2,true,d,false,true,0.0-2.0-0.27-0.250-3.250,0,0,0,68,false,stim,false,1,411.80000000074506,2,0,1,29495,task1,602621,false,false,834,image-keyboard-response,19
true,7,2,1,2,true,d,false,true,0.0-2.0-0.27-0.251-3.251,0,0,0,68,false,stim,false,1,587.7000000011176,2,0,2,29495,task1,604746,false,false,837,image-keyboard-response,20
true,7,1,1,1,true,z,false,true,0.0-2.0-0.28-0.252-3.252,0,0,0,90,false,stim,false,0,565.8999999985099,2,0,0,29495,task1,606837,false,false,840,image-keyboard-response,21
true,7,1,1,1,true,z,false,true,0.0-2.0-0.28-0.253-3.253,0,0,0,90,false,stim,false,0,542.3000000007451,2,0,0,29495,task1,608904,false,false,843,image-keyboard-response,22
true,7,2,1,2,true,d,false,true,0.0-2.0-0.28-0.254-3.254,0,0,0,68,false,stim,false,1,491.90000000037253,2,0,1,29495,task1,610922,false,false,846,image-keyboard-response,23
true,7,2,1,2,true,d,false,true,0.0-2.0-0.28-0.255-3.255,0,0,0,68,false,stim,false,1,402.40000000037253,2,0,2,29495,task1,612848,false,false,849,image-keyboard-response,24
true,7,2,1,2,true,d,false,true,0.0-2.0-0.28-0.256-3.256,0,0,0,68,false,stim,false,1,526.4000000003725,2,0,1,29495,task1,614892,false,false,852,image-keyboard-response,25
true,7,2,1,2,true,d,false,true,0.0-2.0-0.28-0.257-3.257,0,0,0,68,false,stim,false,1,466.40000000037253,2,0,1,29495,task1,616889,false,false,855,image-keyboard-response,26
true,7,1,1,1,true,z,false,true,0.0-2.0-0.28-0.258-3.258,0,0,0,90,false,stim,false,0,595.5,2,0,0,29495,task1,619023,false,false,858,image-keyboard-response,27
true,7,2,1,2,true,d,false,true,0.0-2.0-0.28-0.259-3.259,0,0,0,68,false,stim,false,1,357.69999999925494,2,0,2,29495,task1,620914,false,false,861,image-keyboard-response,28
true,7,2,1,2,true,d,false,true,0.0-2.0-0.28-0.260-3.260,0,0,0,68,false,stim,false,1,342.80000000074506,2,0,2,29495,task1,622785,false,false,864,image-keyboard-response,29
true,7,2,1,2,true,d,false,true,0.0-2.0-0.29-0.261-3.261,0,0,0,68,false,stim,false,1,840.5,2,0,1,29495,task1,625143,false,false,867,image-keyboard-response,30
true,7,2,1,2,true,d,false,true,0.0-2.0-0.29-0.262-3.262,0,0,0,68,false,stim,false,1,367.59999999962747,2,0,1,29495,task1,627036,false,false,870,image-keyboard-response,31
true,7,2,1,1,false,z,true,false,0.0-2.0-0.29-0.263-3.263,0,0,0,68,false,stim,false,0,331.40000000037253,2,0,0,29495,task1,628891,false,false,873,image-keyboard-response,32
true,7,1,1,1,true,z,false,true,0.0-2.0-0.29-0.264-3.264,0,0,0,90,false,stim,false,0,488.7000000011176,2,0,0,29495,task1,630906,false,false,876,image-keyboard-response,33
true,7,2,1,2,true,d,false,true,0.0-2.0-0.29-0.265-3.265,0,0,0,68,false,stim,false,1,354.5,2,0,2,29495,task1,632780,false,false,879,image-keyboard-response,34
true,7,2,1,2,true,d,false,true,0.0-2.0-0.29-0.266-3.266,0,0,0,68,false,stim,false,1,459.90000000037253,2,0,2,29495,task1,634764,false,false,882,image-keyboard-response,35
true,7,1,1,2,false,d,false,false,0.0-2.0-0.29-0.267-3.267,0,0,0,90,false,stim,true,1,398.80000000074506,2,0,1,29495,task1,636695,false,false,885,image-keyboard-response,36
true,7,1,1,1,true,z,false,true,0.0-2.0-0.29-0.268-3.268,0,0,0,90,false,stim,false,0,403.5,2,0,0,29495,task1,638616,false,false,888,image-keyboard-response,37
true,7,2,1,2,true,d,false,true,0.0-2.0-0.29-0.269-3.269,0,0,0,68,false,stim,false,1,394.7999999988824,2,0,2,29495,task1,640537,false,false,891,image-keyboard-response,38
true,7,2,1,2,true,d,false,true,0.0-2.0-0.30-0.270-3.270,0,0,0,68,false,stim,false,1,385.90000000037253,2,0,1,29495,task1,642440,false,false,894,image-keyboard-response,39
true,7,1,1,1,true,z,false,true,0.0-2.0-0.30-0.271-3.271,0,0,0,90,false,stim,false,0,613.5,2,0,0,29495,task1,644568,false,false,897,image-keyboard-response,40
true,7,2,1,2,true,d,false,false,0.0-2.0-0.30-0.272-3.272,0,0,0,68,false,stim,false,1,395.8999999985099,2,0,1,29495,task1,646500,false,true,900,image-keyboard-response,41
true,7,1,1,1,true,z,false,true,0.0-2.0-0.30-0.273-3.273,0,0,0,90,false,stim,false,0,637.5999999996275,2,0,0,29495,task1,648685,false,false,903,image-keyboard-response,42
true,7,2,1,2,true,d,false,false,0.0-2.0-0.30-0.274-3.274,0,0,0,68,false,stim,false,1,417.6000000014901,2,0,2,29495,task1,650636,false,true,906,image-keyboard-response,43
true,7,1,1,1,true,z,false,true,0.0-2.0-0.30-0.275-3.275,0,0,0,90,false,stim,false,0,475.5,2,0,0,29495,task1,652635,false,false,909,image-keyboard-response,44
true,8,0,2,1,false,z,true,false,0.0-2.0-0.30-0.276-3.276,0,0,0,81,true,stim,false,2,405.90000000037253,2,0,2,29495,task1,654567,false,false,912,image-keyboard-response,1
true,8,2,2,1,false,z,false,false,0.0-2.0-0.30-0.277-3.277,0,0,0,68,false,stim,true,2,578.5,2,0,2,29495,task1,656673,false,false,915,image-keyboard-response,2
true,8,0,2,1,false,z,true,false,0.0-2.0-0.30-0.278-3.278,0,0,0,81,false,stim,false,2,1085.0999999996275,2,0,1,29495,task1,659297,false,false,918,image-keyboard-response,3
true,8,0,2,1,false,z,true,false,0.0-2.0-0.31-0.279-3.279,0,0,0,81,false,stim,false,2,705.0999999996275,2,0,1,29495,task1,661531,false,false,921,image-keyboard-response,4
true,8,2,2,1,false,z,false,false,0.0-2.0-0.31-0.280-3.280,0,0,0,68,false,stim,true,2,463.5,2,0,2,29495,task1,663514,false,false,924,image-keyboard-response,5
true,8,1,2,1,true,z,false,true,0.0-2.0-0.31-0.281-3.281,0,0,0,90,false,stim,false,2,561.7999999988824,2,0,2,29495,task1,665590,false,false,927,image-keyboard-response,6
true,8,1,2,1,true,z,false,true,0.0-2.0-0.31-0.282-3.282,0,0,0,90,false,stim,false,2,467.40000000037253,2,0,2,29495,task1,667593,false,false,930,image-keyboard-response,7
true,8,1,2,1,true,z,false,true,0.0-2.0-0.31-0.283-3.283,0,0,0,90,false,stim,false,2,370.90000000037253,2,0,1,29495,task1,669485,false,false,933,image-keyboard-response,8
true,8,0,2,0,true,q,false,true,0.0-2.0-0.31-0.284-3.284,0,0,0,81,false,stim,false,1,412.40000000037253,2,0,0,29495,task1,671418,false,false,936,image-keyboard-response,9
true,8,0,2,0,true,q,false,true,0.0-2.0-0.31-0.285-3.285,0,0,0,81,false,stim,false,1,546.8000000007451,2,0,0,29495,task1,673486,false,false,939,image-keyboard-response,10
true,8,1,2,1,true,z,false,true,0.0-2.0-0.31-0.286-3.286,0,0,0,90,false,stim,false,2,596.1999999992549,2,0,1,29495,task1,675612,false,false,942,image-keyboard-response,11
true,8,0,2,0,true,q,false,true,0.0-2.0-0.31-0.287-3.287,0,0,0,81,false,stim,false,1,597.5,2,0,0,29495,task1,677726,false,false,945,image-keyboard-response,12
true,8,1,2,1,true,z,false,true,0.0-2.0-0.32-0.288-3.288,0,0,0,90,false,stim,false,2,408.6000000014901,2,0,1,29495,task1,679663,false,false,948,image-keyboard-response,13
true,8,1,2,1,true,z,false,true,0.0-2.0-0.32-0.289-3.289,0,0,0,90,false,stim,false,2,423.5,2,0,1,29495,task1,681611,false,false,951,image-keyboard-response,14
true,8,2,2,1,false,z,false,false,0.0-2.0-0.32-0.290-3.290,0,0,0,68,false,stim,true,2,491.0,2,0,1,29495,task1,683631,false,false,954,image-keyboard-response,15
true,8,0,2,0,true,q,false,true,0.0-2.0-0.32-0.291-3.291,0,0,0,81,false,stim,false,1,549.4000000003725,2,0,0,29495,task1,685700,false,false,957,image-keyboard-response,16
true,8,1,2,1,true,z,false,true,0.0-2.0-0.32-0.292-3.292,0,0,0,90,false,stim,false,2,413.80000000074506,2,0,2,29495,task1,687633,false,false,960,image-keyboard-response,17
true,8,1,2,1,true,z,false,true,0.0-2.0-0.32-0.293-3.293,0,0,0,90,false,stim,false,2,492.19999999925494,2,0,2,29495,task1,689651,false,false,963,image-keyboard-response,18
true,8,1,2,1,true,z,false,false,0.0-2.0-0.32-0.294-3.294,0,0,0,90,false,stim,false,2,486.09999999962747,2,0,2,29495,task1,691652,false,true,966,image-keyboard-response,19
true,8,0,2,0,true,q,false,true,0.0-2.0-0.32-0.295-3.295,0,0,0,81,false,stim,false,1,578.6999999992549,2,0,0,29495,task1,693751,false,false,969,image-keyboard-response,20
true,8,0,2,0,true,q,false,true,0.0-2.0-0.32-0.296-3.296,0,0,0,81,false,stim,false,1,537.9000000003725,2,0,0,29495,task1,695822,false,false,972,image-keyboard-response,21
true,8,1,2,1,true,z,false,true,0.0-2.0-0.33-0.297-3.297,0,0,0,90,false,stim,false,2,358.7999999988824,2,0,2,29495,task1,697701,false,false,975,image-keyboard-response,22
true,8,1,2,1,true,z,false,false,0.0-2.0-0.33-0.298-3.298,0,0,0,90,false,stim,false,2,484.90000000037253,2,0,1,29495,task1,699701,false,true,978,image-keyboard-response,23
true,8,1,2,1,true,z,false,true,0.0-2.0-0.33-0.299-3.299,0,0,0,90,false,stim,false,2,531.9000000003725,2,0,1,29495,task1,701765,false,false,981,image-keyboard-response,24
true,8,1,2,1,true,z,false,true,0.0-2.0-0.33-0.300-3.300,0,0,0,90,false,stim,false,2,397.40000000037253,2,0,2,29495,task1,703679,false,false,984,image-keyboard-response,25
true,8,1,2,1,true,z,false,true,0.0-2.0-0.33-0.301-3.301,0,0,0,90,false,stim,false,2,539.3999999985099,2,0,1,29495,task1,705755,false,false,987,image-keyboard-response,26
true,8,0,2,0,true,q,false,true,0.0-2.0-0.33-0.302-3.302,0,0,0,81,false,stim,false,1,534.0999999996275,2,0,0,29495,task1,707811,false,false,990,image-keyboard-response,27
true,8,0,2,0,true,q,false,true,0.0-2.0-0.33-0.303-3.303,0,0,0,81,false,stim,false,1,522.2000000011176,2,0,0,29495,task1,709852,false,false,993,image-keyboard-response,28
true,8,1,2,1,true,z,false,true,0.0-2.0-0.33-0.304-3.304,0,0,0,90,false,stim,false,2,384.59999999962747,2,0,2,29495,task1,711763,false,false,996,image-keyboard-response,29
true,8,0,2,0,true,q,false,true,0.0-2.0-0.33-0.305-3.305,0,0,0,81,false,stim,false,1,636.6999999992549,2,0,0,29495,task1,713917,false,false,999,image-keyboard-response,30
true,8,1,2,1,true,z,false,true,0.0-2.0-0.34-0.306-3.306,0,0,0,90,false,stim,false,2,328.80000000074506,2,0,2,29495,task1,715780,false,false,1002,image-keyboard-response,31
true,8,1,2,1,true,z,false,false,0.0-2.0-0.34-0.307-3.307,0,0,0,90,false,stim,false,2,531.4000000003725,2,0,1,29495,task1,717834,false,true,1005,image-keyboard-response,32
true,8,1,2,1,true,z,false,true,0.0-2.0-0.34-0.308-3.308,0,0,0,90,false,stim,false,2,527.7999999988824,2,0,1,29495,task1,719888,false,false,1008,image-keyboard-response,33
true,8,2,2,1,false,z,false,false,0.0-2.0-0.34-0.309-3.309,0,0,0,68,false,stim,true,2,833.1999999992549,2,0,2,29495,task1,722235,false,false,1011,image-keyboard-response,34
true,8,0,2,0,true,q,false,true,0.0-2.0-0.34-0.310-3.310,0,0,0,81,false,stim,false,1,618.5999999996275,2,0,0,29495,task1,724377,false,false,1014,image-keyboard-response,35
true,8,0,2,0,true,q,false,false,0.0-2.0-0.34-0.311-3.311,0,0,0,81,false,stim,false,1,545.5,2,0,0,29495,task1,726456,false,true,1017,image-keyboard-response,36
true,8,0,2,0,true,q,false,true,0.0-2.0-0.34-0.312-3.312,0,0,0,81,false,stim,false,1,521.1999999992549,2,0,0,29495,task1,728515,false,false,1020,image-keyboard-response,37
true,8,1,2,1,true,z,false,false,0.0-2.0-0.34-0.313-3.313,0,0,0,90,false,stim,false,2,540.8000000007451,2,0,1,29495,task1,730583,false,true,1023,image-keyboard-response,38
true,8,1,2,1,true,z,false,true,0.0-2.0-0.34-0.314-3.314,0,0,0,90,false,stim,false,2,764.1999999992549,2,0,2,29495,task1,732871,false,false,1026,image-keyboard-response,39
true,8,2,2,1,false,z,false,true,0.0-2.0-0.35-0.315-3.315,0,0,0,68,false,stim,true,2,1118.8999999985099,2,0,2,29495,task1,735527,false,true,1029,image-keyboard-response,40
true,8,1,2,1,true,z,false,false,0.0-2.0-0.35-0.316-3.316,0,0,0,90,false,stim,false,2,1144.0,2,0,1,29495,task1,738193,false,true,1032,image-keyboard-response,41
true,8,2,2,1,false,z,false,false,0.0-2.0-0.35-0.317-3.317,0,0,0,68,false,stim,true,2,589.8000000007451,2,0,2,29495,task1,740310,false,false,1035,image-keyboard-response,42
true,8,1,2,1,true,z,false,true,0.0-2.0-0.35-0.318-3.318,0,0,0,90,false,stim,false,2,344.2000000011176,2,0,1,29495,task1,742181,false,false,1038,image-keyboard-response,43
true,8,0,2,0,true,q,false,false,0.0-2.0-0.35-0.319-3.319,0,0,0,81,false,stim,false,1,603.5,2,0,0,29495,task1,744309,false,true,1041,image-keyboard-response,44
true,8,0,2,0,true,q,false,true,0.0-2.0-0.35-0.320-3.320,0,0,0,81,false,stim,false,1,433.59999999962747,2,0,0,29495,task1,746268,false,false,1044,image-keyboard-response,45
true,9,0,1,1,false,z,false,false,0.0-2.0-0.35-0.321-3.321,0,0,0,81,true,stim,true,0,560.9000000003725,2,0,0,29495,task1,748345,false,false,1047,image-keyboard-response,1
true,9,1,1,2,false,d,false,false,0.0-2.0-0.35-0.322-3.322,0,0,0,90,false,stim,true,1,981.9000000003725,2,0,1,29495,task1,750850,false,false,1050,image-keyboard-response,2
true,9,1,1,0,false,q,false,false,0.0-2.0-0.35-0.323-3.323,0,0,0,90,false,stim,true,1,817.8999999985099,2,0,2,29495,task1,753200,false,false,1053,image-keyboard-response,3
true,9,2,1,0,false,q,true,false,0.0-2.0-0.36-0.324-3.324,0,0,0,68,false,stim,false,1,374.0,2,0,2,29495,task1,755096,false,false,1056,image-keyboard-response,4
true,9,2,1,0,false,q,true,false,0.0-2.0-0.36-0.325-3.325,0,0,0,68,false,stim,false,1,501.5,2,0,2,29495,task1,757122,false,false,1059,image-keyboard-response,5
true,9,0,1,2,false,d,true,false,0.0-2.0-0.36-0.326-3.326,0,0,0,81,false,stim,false,1,1056.0999999996275,2,0,1,29495,task1,759707,false,false,1062,image-keyboard-response,6
true,9,0,1,1,false,z,false,true,0.0-2.0-0.36-0.327-3.327,0,0,0,81,false,stim,true,0,602.7000000011176,2,0,0,29495,task1,761823,false,true,1065,image-keyboard-response,7
true,9,1,1,2,false,d,false,false,0.0-2.0-0.36-0.328-3.328,0,0,0,90,false,stim,true,1,599.9000000003725,2,0,1,29495,task1,763947,false,false,1068,image-keyboard-response,8
true,9,2,1,0,false,q,true,false,0.0-2.0-0.36-0.329-3.329,0,0,0,68,false,stim,false,1,423.80000000074506,2,0,2,29495,task1,765904,false,false,1071,image-keyboard-response,9
true,9,0,1,1,false,z,false,false,0.0-2.0-0.36-0.330-3.330,0,0,0,81,false,stim,true,0,885.5999999996275,2,0,0,29495,task1,768317,false,false,1074,image-keyboard-response,10
true,9,1,1,1,true,z,false,true,0.0-2.0-0.36-0.331-3.331,0,0,0,90,false,stim,false,0,534.8000000007451,2,0,0,29495,task1,770373,false,false,1077,image-keyboard-response,11
true,9,0,1,2,false,d,true,false,0.0-2.0-0.36-0.332-3.332,0,0,0,81,false,stim,false,1,453.59999999962747,2,0,1,29495,task1,772351,false,false,1080,image-keyboard-response,12
true,9,1,1,2,false,d,false,false,0.0-2.0-0.37-0.333-3.333,0,0,0,90,false,stim,true,1,454.30000000074506,2,0,1,29495,task1,774323,false,false,1083,image-keyboard-response,13
true,9,2,1,2,true,d,false,true,0.0-2.0-0.37-0.334-3.334,0,0,0,68,false,stim,false,1,480.0,2,0,1,29495,task1,776326,false,false,1086,image-keyboard-response,14
true,9,1,1,1,true,z,false,true,0.0-2.0-0.37-0.335-3.335,0,0,0,90,false,stim,false,0,401.90000000037253,2,0,0,29495,task1,778260,false,false,1089,image-keyboard-response,15
true,9,2,1,0,false,q,true,false,0.0-2.0-0.37-0.336-3.336,0,0,0,68,false,stim,false,1,385.30000000074506,2,0,2,29495,task1,780162,false,false,1092,image-keyboard-response,16
true,9,1,1,1,true,z,false,true,0.0-2.0-0.37-0.337-3.337,0,0,0,90,false,stim,false,0,672.0999999996275,2,0,0,29495,task1,782359,false,false,1095,image-keyboard-response,17
true,9,2,1,0,false,q,true,false,0.0-2.0-0.37-0.338-3.338,0,0,0,68,false,stim,false,1,341.30000000074506,2,0,2,29495,task1,784236,false,false,1098,image-keyboard-response,18
true,9,0,1,0,true,q,false,true,0.0-2.0-0.37-0.339-3.339,0,0,0,81,false,stim,false,1,537.3999999985099,2,0,2,29495,task1,786313,false,false,1101,image-keyboard-response,19
true,9,1,1,1,true,z,false,true,0.0-2.0-0.37-0.340-3.340,0,0,0,90,false,stim,false,0,374.30000000074506,2,0,0,29495,task1,788205,false,false,1104,image-keyboard-response,20
true,9,2,1,2,true,d,false,true,0.0-2.0-0.37-0.341-3.341,0,0,0,68,false,stim,false,1,420.7000000011176,2,0,1,29495,task1,790146,false,false,1107,image-keyboard-response,21
true,9,1,1,1,true,z,false,true,0.0-2.0-0.38-0.342-3.342,0,0,0,90,false,stim,false,0,602.5999999996275,2,0,0,29495,task1,792270,false,false,1110,image-keyboard-response,22
true,9,0,1,0,true,q,false,true,0.0-2.0-0.38-0.343-3.343,0,0,0,81,false,stim,false,1,423.09999999962747,2,0,2,29495,task1,794232,false,false,1113,image-keyboard-response,23
true,9,2,1,2,true,d,false,true,0.0-2.0-0.38-0.344-3.344,0,0,0,68,false,stim,false,1,626.9000000003725,2,0,1,29495,task1,796383,false,false,1116,image-keyboard-response,24
true,9,1,1,1,true,z,false,true,0.0-2.0-0.38-0.345-3.345,0,0,0,90,false,stim,false,0,334.80000000074506,2,0,0,29495,task1,798233,false,false,1119,image-keyboard-response,25
true,9,0,1,0,true,q,false,true,0.0-2.0-0.38-0.346-3.346,0,0,0,81,false,stim,false,1,458.59999999962747,2,0,2,29495,task1,800204,false,false,1122,image-keyboard-response,26
true,9,0,1,0,true,q,false,true,0.0-2.0-0.38-0.347-3.347,0,0,0,81,false,stim,false,1,952.0,2,0,2,29495,task1,802673,false,false,1125,image-keyboard-response,27
true,9,2,1,2,true,d,false,true,0.0-2.0-0.38-0.348-3.348,0,0,0,68,false,stim,false,1,490.59999999962747,2,0,1,29495,task1,804684,false,false,1128,image-keyboard-response,28
true,9,2,1,2,true,d,false,true,0.0-2.0-0.38-0.349-3.349,0,0,0,68,false,stim,false,1,391.40000000037253,2,0,1,29495,task1,806592,false,false,1131,image-keyboard-response,29
true,9,1,1,1,true,z,false,true,0.0-2.0-0.38-0.350-3.350,0,0,0,90,false,stim,false,0,578.5,2,0,0,29495,task1,808692,false,false,1134,image-keyboard-response,30
true,9,1,1,1,true,z,false,true,0.0-2.0-0.39-0.351-3.351,0,0,0,90,false,stim,false,0,611.6000000014901,2,0,0,29495,task1,810830,false,false,1137,image-keyboard-response,31
true,9,0,1,0,true,q,false,true,0.0-2.0-0.39-0.352-3.352,0,0,0,81,false,stim,false,1,963.4000000003725,2,0,2,29495,task1,813316,false,false,1140,image-keyboard-response,32
true,9,2,1,2,true,d,false,true,0.0-2.0-0.39-0.353-3.353,0,0,0,68,false,stim,false,1,513.5999999996275,2,0,1,29495,task1,815364,false,false,1143,image-keyboard-response,33
true,9,1,1,1,true,z,false,true,0.0-2.0-0.39-0.354-3.354,0,0,0,90,false,stim,false,0,767.1999999992549,2,0,0,29495,task1,817651,false,false,1146,image-keyboard-response,34
true,9,0,1,0,true,q,false,true,0.0-2.0-0.39-0.355-3.355,0,0,0,81,false,stim,false,1,416.7999999988824,2,0,2,29495,task1,819589,false,false,1149,image-keyboard-response,35
true,9,2,1,1,false,z,true,false,0.0-2.0-0.39-0.356-3.356,0,0,0,68,false,stim,false,0,468.69999999925494,2,0,0,29495,task1,821571,false,false,1152,image-keyboard-response,36
true,9,0,1,0,true,q,false,true,0.0-2.0-0.39-0.357-3.357,0,0,0,81,false,stim,false,1,950.7000000011176,2,0,2,29495,task1,824032,false,false,1155,image-keyboard-response,37
true,9,2,1,2,true,d,false,true,0.0-2.0-0.39-0.358-3.358,0,0,0,68,false,stim,false,1,556.0999999996275,2,0,1,29495,task1,826123,false,false,1158,image-keyboard-response,38
true,9,2,1,2,true,d,false,true,0.0-2.0-0.39-0.359-3.359,0,0,0,68,false,stim,false,1,649.1999999992549,2,0,1,29495,task1,828298,false,false,1161,image-keyboard-response,39
true,9,2,1,2,true,d,false,true,0.0-2.0-0.40-0.360-3.360,0,0,0,68,false,stim,false,1,416.5,2,0,1,29495,task1,830244,false,false,1164,image-keyboard-response,40
true,9,2,1,2,true,d,false,true,0.0-2.0-0.40-0.361-3.361,0,0,0,68,false,stim,false,1,386.40000000037253,2,0,1,29495,task1,832152,false,false,1167,image-keyboard-response,41
true,10,1,2,0,false,q,false,false,0.0-2.0-0.40-0.362-3.362,0,0,0,90,true,stim,true,1,504.90000000037253,2,0,0,29495,task1,834183,false,false,1170,image-keyboard-response,1
true,10,0,2,1,false,z,false,false,0.0-2.0-0.40-0.363-3.363,0,0,0,81,false,stim,true,0,830.8000000007451,2,0,2,29495,task1,836532,false,false,1173,image-keyboard-response,2
true,10,1,2,0,false,q,false,false,0.0-2.0-0.40-0.364-3.364,0,0,0,90,false,stim,true,1,563.8999999985099,2,0,0,29495,task1,838626,false,false,1176,image-keyboard-response,3
true,10,2,2,1,false,z,false,false,0.0-2.0-0.40-0.365-3.365,0,0,0,68,false,stim,true,2,551.8000000007451,2,0,1,29495,task1,840702,false,false,1179,image-keyboard-response,4
true,10,0,2,1,false,z,false,false,0.0-2.0-0.40-0.366-3.366,0,0,0,81,false,stim,true,0,486.59999999962747,2,0,2,29495,task1,842713,false,false,1182,image-keyboard-response,5
true,10,2,2,1,false,z,true,false,0.0-2.0-0.40-0.367-3.367,0,0,0,68,false,stim,false,0,558.4000000003725,2,0,2,29495,task1,844791,false,false,1185,image-keyboard-response,6
true,10,0,2,0,true,q,false,false,0.0-2.0-0.40-0.368-3.368,0,0,0,81,false,stim,false,1,1005.0,2,0,0,29495,task1,847316,false,true,1188,image-keyboard-response,7
true,10,1,2,1,true,z,false,false,0.0-2.0-0.41-0.369-3.369,0,0,0,90,false,stim,false,0,402.90000000037253,2,0,2,29495,task1,849233,false,true,1191,image-keyboard-response,8
true,10,2,2,1,false,z,false,false,0.0-2.0-0.41-0.370-3.370,0,0,0,68,false,stim,true,2,661.5,2,0,1,29495,task1,851412,false,false,1194,image-keyboard-response,9
true,10,2,2,1,false,z,true,false,0.0-2.0-0.41-0.371-3.371,0,0,0,68,false,stim,false,0,978.5,2,0,2,29495,task1,853904,false,false,1197,image-keyboard-response,10
true,10,0,2,1,false,z,true,false,0.0-2.0-0.41-0.372-3.372,0,0,0,81,false,stim,false,2,1181.5,2,0,1,29495,task1,856605,false,false,1200,image-keyboard-response,11
true,10,1,2,0,false,q,false,false,0.0-2.0-0.41-0.373-3.373,0,0,0,90,false,stim,true,1,412.0,2,0,0,29495,task1,858567,false,false,1203,image-keyboard-response,12
true,10,0,2,0,true,q,false,true,0.0-2.0-0.41-0.374-3.374,0,0,0,81,false,stim,false,1,390.2000000011176,2,0,0,29495,task1,860480,false,false,1206,image-keyboard-response,13
true,10,2,2,1,false,z,true,false,0.0-2.0-0.41-0.375-3.375,0,0,0,68,false,stim,false,0,569.5,2,0,2,29495,task1,862566,false,false,1209,image-keyboard-response,14
true,10,1,2,1,true,z,false,true,0.0-2.0-0.41-0.376-3.376,0,0,0,90,false,stim,false,2,367.19999999925494,2,0,1,29495,task1,864456,false,false,1212,image-keyboard-response,15
true,10,0,2,0,true,q,false,true,0.0-2.0-0.41-0.377-3.377,0,0,0,81,false,stim,false,1,461.09999999962747,2,0,0,29495,task1,866447,false,false,1215,image-keyboard-response,16
true,10,1,2,1,true,z,false,true,0.0-2.0-0.42-0.378-3.378,0,0,0,90,false,stim,false,0,445.30000000074506,2,0,2,29495,task1,868412,false,false,1218,image-keyboard-response,17
true,10,0,2,0,true,q,false,true,0.0-2.0-0.42-0.379-3.379,0,0,0,81,false,stim,false,1,533.9000000003725,2,0,0,29495,task1,870460,false,false,1221,image-keyboard-response,18
true,10,1,2,1,true,z,false,true,0.0-2.0-0.42-0.380-3.380,0,0,0,90,false,stim,false,2,356.5,2,0,1,29495,task1,872343,false,false,1224,image-keyboard-response,19
true,10,1,2,1,true,z,false,true,0.0-2.0-0.42-0.381-3.381,0,0,0,90,false,stim,false,0,728.2999999988824,2,0,2,29495,task1,874602,false,false,1227,image-keyboard-response,20
true,10,1,2,1,true,z,false,true,0.0-2.0-0.42-0.382-3.382,0,0,0,90,false,stim,false,2,593.0999999996275,2,0,1,29495,task1,876713,false,false,1230,image-keyboard-response,21
true,10,0,2,0,true,q,false,true,0.0-2.0-0.42-0.383-3.383,0,0,0,81,false,stim,false,1,524.2999999988824,2,0,0,29495,task1,878765,false,false,1233,image-keyboard-response,22
true,10,1,2,1,true,z,false,false,0.0-2.0-0.42-0.384-3.384,0,0,0,90,false,stim,false,2,364.80000000074506,2,0,1,29495,task1,880651,false,true,1236,image-keyboard-response,23
true,10,1,2,1,true,z,false,true,0.0-2.0-0.42-0.385-3.385,0,0,0,90,false,stim,false,0,404.3999999985099,2,0,2,29495,task1,882578,false,false,1239,image-keyboard-response,24
true,10,0,2,0,true,q,false,false,0.0-2.0-0.42-0.386-3.386,0,0,0,81,false,stim,false,1,455.59999999962747,2,0,0,29495,task1,884570,false,true,1242,image-keyboard-response,25
true,10,1,2,1,true,z,false,true,0.0-2.0-0.43-0.387-3.387,0,0,0,90,false,stim,false,2,574.2000000011176,2,0,1,29495,task1,886663,false,false,1245,image-keyboard-response,26
true,10,1,2,1,true,z,false,true,0.0-2.0-0.43-0.388-3.388,0,0,0,90,false,stim,false,2,492.8999999985099,2,0,1,29495,task1,888674,false,false,1248,image-keyboard-response,27
true,10,1,2,1,true,z,false,true,0.0-2.0-0.43-0.389-3.389,0,0,0,90,false,stim,false,2,357.80000000074506,2,0,1,29495,task1,890544,false,false,1251,image-keyboard-response,28
true,10,1,2,1,true,z,false,true,0.0-2.0-0.43-0.390-3.390,0,0,0,90,false,stim,false,0,630.6000000014901,2,0,2,29495,task1,892708,false,false,1254,image-keyboard-response,29
true,10,1,2,1,true,z,false,true,0.0-2.0-0.43-0.391-3.391,0,0,0,90,false,stim,false,0,392.5,2,0,2,29495,task1,894619,false,false,1257,image-keyboard-response,30
true,10,0,2,0,true,q,false,true,0.0-2.0-0.43-0.392-3.392,0,0,0,81,false,stim,false,1,585.6000000014901,2,0,0,29495,task1,896719,false,false,1260,image-keyboard-response,31
true,10,0,2,0,true,q,false,true,0.0-2.0-0.43-0.393-3.393,0,0,0,81,false,stim,false,1,329.2000000011176,2,0,0,29495,task1,898567,false,false,1263,image-keyboard-response,32
true,10,0,2,0,true,q,false,true,0.0-2.0-0.43-0.394-3.394,0,0,0,81,false,stim,false,1,554.8000000007451,2,0,0,29495,task1,900648,false,false,1266,image-keyboard-response,33
true,10,1,2,1,true,z,false,false,0.0-2.0-0.43-0.395-3.395,0,0,0,90,false,stim,false,0,424.7999999988824,2,0,2,29495,task1,902600,false,true,1269,image-keyboard-response,34
true,10,1,2,1,true,z,false,true,0.0-2.0-0.44-0.396-3.396,0,0,0,90,false,stim,false,0,451.5,2,0,2,29495,task1,904570,false,false,1272,image-keyboard-response,35
true,10,0,2,0,true,q,false,true,0.0-2.0-0.44-0.397-3.397,0,0,0,81,false,stim,false,1,576.9000000003725,2,0,0,29495,task1,906668,false,false,1275,image-keyboard-response,36
true,10,0,2,0,true,q,false,true,0.0-2.0-0.44-0.398-3.398,0,0,0,81,false,stim,false,1,664.6999999992549,2,0,0,29495,task1,908847,false,false,1278,image-keyboard-response,37
true,10,2,2,1,false,z,true,false,0.0-2.0-0.44-0.399-3.399,0,0,0,68,false,stim,false,0,423.30000000074506,2,0,2,29495,task1,910799,false,false,1281,image-keyboard-response,38
true,10,0,2,0,true,q,false,true,0.0-2.0-0.44-0.400-3.400,0,0,0,81,false,stim,false,1,558.7000000011176,2,0,0,29495,task1,912875,false,false,1284,image-keyboard-response,39
true,11,1,2,0,false,q,false,false,0.0-2.0-0.44-0.401-3.401,0,0,0,90,true,stim,true,1,540.9000000003725,2,0,1,29495,task1,914944,false,false,1287,image-keyboard-response,1
true,11,0,2,0,true,q,false,true,0.0-2.0-0.44-0.402-3.402,0,0,0,81,false,stim,false,1,682.3000000007451,2,0,1,29495,task1,917152,false,false,1290,image-keyboard-response,2
true,11,0,2,0,true,q,false,true,0.0-2.0-0.44-0.403-3.403,0,0,0,81,false,stim,false,1,490.19999999925494,2,0,1,29495,task1,919163,false,false,1293,image-keyboard-response,3
true,11,1,2,0,false,q,false,false,0.0-2.0-0.44-0.404-3.404,0,0,0,90,false,stim,true,1,957.2000000011176,2,0,2,29495,task1,921647,false,false,1296,image-keyboard-response,4
true,11,2,2,0,false,q,true,true,0.0-2.0-0.45-0.405-3.405,0,0,0,68,false,stim,false,1,586.6999999992549,2,0,2,29495,task1,923755,false,true,1299,image-keyboard-response,5
true,11,0,2,0,true,q,false,true,0.0-2.0-0.45-0.406-3.406,0,0,0,81,false,stim,false,1,527.1999999992549,2,0,1,29495,task1,925836,false,false,1302,image-keyboard-response,6
true,11,0,2,1,false,z,false,false,0.0-2.0-0.45-0.407-3.407,0,0,0,81,false,stim,true,0,382.7999999988824,2,0,0,29495,task1,927737,false,false,1305,image-keyboard-response,7
true,11,2,2,1,false,z,true,false,0.0-2.0-0.45-0.408-3.408,0,0,0,68,false,stim,false,0,515.1999999992549,2,0,0,29495,task1,929767,false,false,1308,image-keyboard-response,8
true,11,2,2,0,false,q,true,false,0.0-2.0-0.45-0.409-3.409,0,0,0,68,false,stim,false,1,773.7999999988824,2,0,2,29495,task1,932067,false,false,1311,image-keyboard-response,9
true,11,0,2,0,true,q,false,true,0.0-2.0-0.45-0.410-3.410,0,0,0,81,false,stim,false,1,389.6000000014901,2,0,1,29495,task1,933991,false,false,1314,image-keyboard-response,10
true,11,0,2,0,true,q,false,true,0.0-2.0-0.45-0.411-3.411,0,0,0,81,false,stim,false,1,557.8000000007451,2,0,1,29495,task1,936066,false,false,1317,image-keyboard-response,11
true,11,1,2,1,true,z,false,true,0.0-2.0-0.45-0.412-3.412,0,0,0,90,false,stim,false,0,381.69999999925494,2,0,0,29495,task1,937983,false,false,1320,image-keyboard-response,12
true,11,2,2,0,false,q,true,false,0.0-2.0-0.45-0.413-3.413,0,0,0,68,false,stim,false,1,337.3999999985099,2,0,2,29495,task1,939849,false,false,1323,image-keyboard-response,13
true,11,0,2,0,true,q,false,true,0.0-2.0-0.46-0.414-3.414,0,0,0,81,false,stim,false,1,699.5999999996275,2,0,1,29495,task1,942071,false,false,1326,image-keyboard-response,14
true,11,1,2,1,true,z,false,true,0.0-2.0-0.46-0.415-3.415,0,0,0,90,false,stim,false,0,575.3999999985099,2,0,0,29495,task1,944167,false,false,1329,image-keyboard-response,15
true,11,0,2,0,true,q,false,true,0.0-2.0-0.46-0.416-3.416,0,0,0,81,false,stim,false,1,457.40000000037253,2,0,1,29495,task1,946156,false,false,1332,image-keyboard-response,16
true,11,0,2,0,true,q,false,false,0.0-2.0-0.46-0.417-3.417,0,0,0,81,false,stim,false,1,530.7999999988824,2,0,2,29495,task1,948213,false,true,1335,image-keyboard-response,17
true,11,2,2,0,false,q,true,true,0.0-2.0-0.46-0.418-3.418,0,0,0,68,false,stim,false,1,731.5,2,0,2,29495,task1,950467,false,true,1338,image-keyboard-response,18
true,11,1,2,1,true,z,false,true,0.0-2.0-0.46-0.419-3.419,0,0,0,90,false,stim,false,0,435.90000000037253,2,0,0,29495,task1,952434,false,false,1341,image-keyboard-response,19
true,11,2,2,0,false,q,true,false,0.0-2.0-0.46-0.420-3.420,0,0,0,68,false,stim,false,1,331.30000000074506,2,0,2,29495,task1,954297,false,false,1344,image-keyboard-response,20
true,11,0,2,0,true,q,false,true,0.0-2.0-0.46-0.421-3.421,0,0,0,81,false,stim,false,1,454.5,2,0,1,29495,task1,956267,false,false,1347,image-keyboard-response,21
true,11,1,2,1,true,z,false,true,0.0-2.0-0.46-0.422-3.422,0,0,0,90,false,stim,false,0,346.2999999988824,2,0,0,29495,task1,958134,false,false,1350,image-keyboard-response,22
true,11,2,2,0,false,q,true,false,0.0-2.0-0.47-0.423-3.423,0,0,0,68,false,stim,false,1,366.5,2,0,2,29495,task1,960017,false,false,1353,image-keyboard-response,23
true,11,0,2,1,false,z,false,false,0.0-2.0-0.47-0.424-3.424,0,0,0,81,false,stim,true,0,676.2000000011176,2,0,0,29495,task1,962223,false,false,1356,image-keyboard-response,24
true,11,0,2,0,true,q,false,true,0.0-2.0-0.47-0.425-3.425,0,0,0,81,false,stim,false,1,408.0,2,0,1,29495,task1,964158,false,false,1359,image-keyboard-response,25
true,11,0,2,0,true,q,false,true,0.0-2.0-0.47-0.426-3.426,0,0,0,81,false,stim,false,1,626.0999999996275,2,0,2,29495,task1,966315,false,false,1362,image-keyboard-response,26
true,11,0,2,0,true,q,false,true,0.0-2.0-0.47-0.427-3.427,0,0,0,81,false,stim,false,1,488.59999999962747,2,0,1,29495,task1,968333,false,false,1365,image-keyboard-response,27
true,11,0,2,0,true,q,false,true,0.0-2.0-0.47-0.428-3.428,0,0,0,81,false,stim,false,1,567.6000000014901,2,0,1,29495,task1,970416,false,false,1368,image-keyboard-response,28
true,11,1,2,1,true,z,false,true,0.0-2.0-0.47-0.429-3.429,0,0,0,90,false,stim,false,0,378.2000000011176,2,0,0,29495,task1,972309,false,false,1371,image-keyboard-response,29
true,11,1,2,1,true,z,false,true,0.0-2.0-0.47-0.430-3.430,0,0,0,90,false,stim,false,0,480.5,2,0,0,29495,task1,974312,false,false,1374,image-keyboard-response,30
true,11,0,2,0,true,q,false,true,0.0-2.0-0.47-0.431-3.431,0,0,0,81,false,stim,false,1,593.0,2,0,2,29495,task1,976429,false,false,1377,image-keyboard-response,31
true,11,1,2,1,true,z,false,true,0.0-2.0-0.48-0.432-3.432,0,0,0,90,false,stim,false,0,646.0999999996275,2,0,0,29495,task1,978602,false,false,1380,image-keyboard-response,32
true,11,0,2,0,true,q,false,true,0.0-2.0-0.48-0.433-3.433,0,0,0,81,false,stim,false,1,355.30000000074506,2,0,1,29495,task1,980483,false,false,1383,image-keyboard-response,33
true,11,1,2,1,true,z,false,true,0.0-2.0-0.48-0.434-3.434,0,0,0,90,false,stim,false,0,539.3000000007451,2,0,0,29495,task1,982540,false,false,1386,image-keyboard-response,34
true,11,0,2,0,true,q,false,true,0.0-2.0-0.48-0.435-3.435,0,0,0,81,false,stim,false,1,545.5999999996275,2,0,1,29495,task1,984607,false,false,1389,image-keyboard-response,35
true,11,0,2,0,true,q,false,true,0.0-2.0-0.48-0.436-3.436,0,0,0,81,false,stim,false,1,423.0,2,0,2,29495,task1,986550,false,false,1392,image-keyboard-response,36
true,11,0,2,0,true,q,false,true,0.0-2.0-0.48-0.437-3.437,0,0,0,81,false,stim,false,1,630.3000000007451,2,0,1,29495,task1,988716,false,false,1395,image-keyboard-response,37
true,11,0,2,0,true,q,false,true,0.0-2.0-0.48-0.438-3.438,0,0,0,81,false,stim,false,1,438.69999999925494,2,0,2,29495,task1,990675,false,false,1398,image-keyboard-response,38
true,11,1,2,1,true,z,false,true,0.0-2.0-0.48-0.439-3.439,0,0,0,90,false,stim,false,0,463.5,2,0,0,29495,task1,992685,false,false,1401,image-keyboard-response,39
true,12,0,1,2,false,d,false,false,0.0-2.0-0.48-0.440-3.440,0,0,0,81,true,stim,true,0,653.7999999988824,2,0,2,29495,task1,994877,false,false,1404,image-keyboard-response,1
true,12,1,1,2,false,d,false,false,0.0-2.0-0.49-0.441-3.441,0,0,0,90,false,stim,true,1,387.40000000037253,2,0,0,29495,task1,996784,false,false,1407,image-keyboard-response,2
true,12,1,1,2,false,d,false,false,0.0-2.0-0.49-0.442-3.442,0,0,0,90,false,stim,true,1,374.80000000074506,2,0,0,29495,task1,998676,false,false,1410,image-keyboard-response,3
true,12,2,1,1,false,z,true,false,0.0-2.0-0.49-0.443-3.443,0,0,0,68,false,stim,false,0,810.8000000007451,2,0,1,29495,task1,1001010,false,false,1413,image-keyboard-response,4
true,12,0,1,2,false,d,false,true,0.0-2.0-0.49-0.444-3.444,0,0,0,81,false,stim,true,0,677.5,2,0,2,29495,task1,1003212,false,true,1416,image-keyboard-response,5
true,12,0,1,2,false,d,false,false,0.0-2.0-0.49-0.445-3.445,0,0,0,81,false,stim,true,0,573.2999999988824,2,0,2,29495,task1,1005305,false,false,1419,image-keyboard-response,6
true,12,0,1,1,false,z,false,false,0.0-2.0-0.49-0.446-3.446,0,0,0,81,false,stim,true,0,341.90000000037253,2,0,1,29495,task1,1007169,false,false,1422,image-keyboard-response,7
true,12,0,1,2,false,d,false,false,0.0-2.0-0.49-0.447-3.447,0,0,0,81,false,stim,true,0,535.1000000014901,2,0,2,29495,task1,1009222,false,false,1425,image-keyboard-response,8
true,12,1,1,2,false,d,false,false,0.0-2.0-0.49-0.448-3.448,0,0,0,90,false,stim,true,1,381.59999999962747,2,0,0,29495,task1,1011129,false,false,1428,image-keyboard-response,9
true,12,2,1,1,false,z,true,false,0.0-2.0-0.49-0.449-3.449,0,0,0,68,false,stim,false,0,566.2999999988824,2,0,1,29495,task1,1013229,false,false,1431,image-keyboard-response,10
true,12,1,1,2,false,d,false,false,0.0-2.0-0.50-0.450-3.450,0,0,0,90,false,stim,true,1,340.09999999962747,2,0,0,29495,task1,1015086,false,false,1434,image-keyboard-response,11
true,12,0,1,2,false,d,false,false,0.0-2.0-0.50-0.451-3.451,0,0,0,81,false,stim,true,0,499.69999999925494,2,0,2,29495,task1,1017098,false,false,1437,image-keyboard-response,12
true,12,2,1,2,true,d,false,false,0.0-2.0-0.50-0.452-3.452,0,0,0,68,false,stim,false,0,476.2999999988824,2,0,2,29495,task1,1019098,false,true,1440,image-keyboard-response,13
true,12,2,1,2,true,d,false,true,0.0-2.0-0.50-0.453-3.453,0,0,0,68,false,stim,false,1,1040.699999999255,2,0,0,29495,task1,1021656,false,false,1443,image-keyboard-response,14
true,12,2,1,2,true,d,false,true,0.0-2.0-0.50-0.454-3.454,0,0,0,68,false,stim,false,1,534.0,2,0,0,29495,task1,1023712,false,false,1446,image-keyboard-response,15
true,12,1,1,1,true,z,false,true,0.0-2.0-0.50-0.455-3.455,0,0,0,90,false,stim,false,0,504.69999999925494,2,0,1,29495,task1,1025738,false,false,1449,image-keyboard-response,16
true,12,1,1,2,false,d,true,true,0.0-2.0-0.50-0.456-3.456,0,0,0,90,false,stim,false,0,388.5,2,0,2,29495,task1,1027662,false,true,1452,image-keyboard-response,17
true,12,1,1,1,true,z,false,true,0.0-2.0-0.50-0.457-3.457,0,0,0,90,false,stim,false,0,529.3000000007451,2,0,1,29495,task1,1029713,false,false,1455,image-keyboard-response,18
true,12,1,1,1,true,z,false,true,0.0-2.0-0.50-0.458-3.458,0,0,0,90,false,stim,false,0,400.7999999988824,2,0,1,29495,task1,1031634,false,false,1458,image-keyboard-response,19
true,12,1,1,1,true,z,false,true,0.0-2.0-0.51-0.459-3.459,0,0,0,90,false,stim,false,0,426.09999999962747,2,0,1,29495,task1,1033584,false,false,1461,image-keyboard-response,20
true,12,1,1,1,true,z,false,true,0.0-2.0-0.51-0.460-3.460,0,0,0,90,false,stim,false,0,530.3000000007451,2,0,1,29495,task1,1035642,false,false,1464,image-keyboard-response,21
true,12,2,1,2,true,d,false,false,0.0-2.0-0.51-0.461-3.461,0,0,0,68,false,stim,false,1,756.9000000003725,2,0,0,29495,task1,1037929,false,true,1467,image-keyboard-response,22
true,12,2,1,2,true,d,false,true,0.0-2.0-0.51-0.462-3.462,0,0,0,68,false,stim,false,1,600.3999999985099,2,0,0,29495,task1,1040052,false,false,1470,image-keyboard-response,23
true,12,1,1,1,true,z,false,true,0.0-2.0-0.51-0.463-3.463,0,0,0,90,false,stim,false,0,371.69999999925494,2,0,1,29495,task1,1041959,false,false,1473,image-keyboard-response,24
true,12,1,1,2,false,d,true,false,0.0-2.0-0.51-0.464-3.464,0,0,0,90,false,stim,false,0,1156.7999999988824,2,0,2,29495,task1,1044642,false,false,1476,image-keyboard-response,25
true,12,1,1,2,false,d,true,false,0.0-2.0-0.51-0.465-3.465,0,0,0,90,false,stim,false,0,283.90000000037253,2,0,2,29495,task1,1046454,false,false,1479,image-keyboard-response,26
true,12,2,1,2,true,d,false,true,0.0-2.0-0.51-0.466-3.466,0,0,0,68,false,stim,false,1,374.2000000011176,2,0,0,29495,task1,1048349,false,false,1482,image-keyboard-response,27
true,12,0,1,2,false,d,false,false,0.0-2.0-0.51-0.467-3.467,0,0,0,81,false,stim,true,0,407.59999999962747,2,0,2,29495,task1,1050294,false,false,1485,image-keyboard-response,28
true,12,1,1,1,true,z,false,true,0.0-2.0-0.52-0.468-3.468,0,0,0,90,false,stim,false,0,320.09999999962747,2,0,1,29495,task1,1052145,false,false,1488,image-keyboard-response,29
true,12,1,1,2,false,d,true,false,0.0-2.0-0.52-0.469-3.469,0,0,0,90,false,stim,false,0,349.30000000074506,2,0,2,29495,task1,1054023,false,false,1491,image-keyboard-response,30
true,12,2,1,1,false,z,true,false,0.0-2.0-0.52-0.470-3.470,0,0,0,68,false,stim,false,0,611.0,2,0,1,29495,task1,1056166,false,false,1494,image-keyboard-response,31
true,12,0,1,1,false,z,false,true,0.0-2.0-0.52-0.471-3.471,0,0,0,81,false,stim,true,0,266.0,2,0,1,29495,task1,1057956,false,true,1497,image-keyboard-response,32
true,12,0,1,2,false,d,false,false,0.0-2.0-0.52-0.472-3.472,0,0,0,81,false,stim,true,0,705.4000000003725,2,0,2,29495,task1,1060190,false,false,1500,image-keyboard-response,33
true,12,2,1,2,true,d,false,true,0.0-2.0-0.52-0.473-3.473,0,0,0,68,false,stim,false,1,505.69999999925494,2,0,0,29495,task1,1062244,false,false,1503,image-keyboard-response,34
true,12,2,1,2,true,d,false,true,0.0-2.0-0.52-0.474-3.474,0,0,0,68,false,stim,false,0,409.0,2,0,2,29495,task1,1064191,false,false,1506,image-keyboard-response,35
true,12,2,1,2,true,d,false,true,0.0-2.0-0.52-0.475-3.475,0,0,0,68,false,stim,false,1,537.5,2,0,0,29495,task1,1066259,false,false,1509,image-keyboard-response,36
true,12,0,1,2,false,d,true,false,0.0-2.0-0.52-0.476-3.476,0,0,0,81,false,stim,false,1,457.80000000074506,2,0,0,29495,task1,1068248,false,false,1512,image-keyboard-response,37
true,12,0,1,1,false,z,false,false,0.0-2.0-0.53-0.477-3.477,0,0,0,81,false,stim,true,0,517.0,2,0,1,29495,task1,1070300,false,false,1515,image-keyboard-response,38
true,12,2,1,2,true,d,false,true,0.0-2.0-0.53-0.478-3.478,0,0,0,68,false,stim,false,0,567.0,2,0,2,29495,task1,1072388,false,false,1518,image-keyboard-response,39
true,12,2,1,2,true,d,false,true,0.0-2.0-0.53-0.479-3.479,0,0,0,68,false,stim,false,0,437.5,2,0,2,29495,task1,1074353,false,false,1521,image-keyboard-response,40
true,12,2,1,2,true,d,false,true,0.0-2.0-0.53-0.480-3.480,0,0,0,68,false,stim,false,1,323.7999999988824,2,0,0,29495,task1,1076203,false,false,1524,image-keyboard-response,41
true,13,0,2,0,true,q,false,true,0.0-2.0-0.53-0.481-3.481,0,0,0,81,true,stim,false,1,329.0,2,0,1,29495,task1,1078057,false,false,1527,image-keyboard-response,1
true,13,2,2,0,false,q,true,false,0.0-2.0-0.53-0.482-3.482,0,0,0,68,false,stim,false,1,439.30000000074506,2,0,1,29495,task1,1080035,false,false,1530,image-keyboard-response,2
true,13,2,2,1,false,z,false,false,0.0-2.0-0.53-0.483-3.483,0,0,0,68,false,stim,true,2,389.30000000074506,2,0,0,29495,task1,1081952,false,false,1533,image-keyboard-response,3
true,13,2,2,1,false,z,false,false,0.0-2.0-0.53-0.484-3.484,0,0,0,68,false,stim,true,2,409.2999999988824,2,0,0,29495,task1,1083878,false,false,1536,image-keyboard-response,4
true,13,2,2,0,false,q,false,true,0.0-2.0-0.53-0.485-3.485,0,0,0,68,false,stim,true,2,534.2999999988824,2,0,2,29495,task1,1085932,false,true,1539,image-keyboard-response,5
true,13,2,2,0,false,q,false,false,0.0-2.0-0.54-0.486-3.486,0,0,0,68,false,stim,true,2,473.8999999985099,2,0,2,29495,task1,1087932,false,false,1542,image-keyboard-response,6
true,13,2,2,0,false,q,false,false,0.0-2.0-0.54-0.487-3.487,0,0,0,68,false,stim,true,2,358.5,2,0,2,29495,task1,1089822,false,false,1545,image-keyboard-response,7
true,13,0,2,0,true,q,false,true,0.0-2.0-0.54-0.488-3.488,0,0,0,81,false,stim,false,1,815.6999999992549,2,0,1,29495,task1,1092166,false,false,1548,image-keyboard-response,8
true,13,2,2,0,false,q,false,true,0.0-2.0-0.54-0.489-3.489,0,0,0,68,false,stim,true,2,368.09999999962747,2,0,2,29495,task1,1094060,false,true,1551,image-keyboard-response,9
true,13,2,2,1,false,z,false,false,0.0-2.0-0.54-0.490-3.490,0,0,0,68,false,stim,true,2,648.6999999992549,2,0,0,29495,task1,1096238,false,false,1554,image-keyboard-response,10
true,13,0,2,0,true,q,false,true,0.0-2.0-0.54-0.491-3.491,0,0,0,81,false,stim,false,1,364.5,2,0,1,29495,task1,1098130,false,false,1557,image-keyboard-response,11
true,13,1,2,1,true,z,false,true,0.0-2.0-0.54-0.492-3.492,0,0,0,90,false,stim,false,2,456.59999999962747,2,0,0,29495,task1,1100115,false,false,1560,image-keyboard-response,12
true,13,1,2,1,true,z,false,true,0.0-2.0-0.54-0.493-3.493,0,0,0,90,false,stim,false,2,484.90000000037253,2,0,0,29495,task1,1102131,false,false,1563,image-keyboard-response,13
true,13,0,2,0,true,q,false,true,0.0-2.0-0.54-0.494-3.494,0,0,0,81,false,stim,false,1,601.3000000007451,2,0,1,29495,task1,1104256,false,false,1566,image-keyboard-response,14
true,13,0,2,0,true,q,false,true,0.0-2.0-0.55-0.495-3.495,0,0,0,81,false,stim,false,1,461.30000000074506,2,0,1,29495,task1,1106244,false,false,1569,image-keyboard-response,15
true,13,0,2,0,true,q,false,true,0.0-2.0-0.55-0.496-3.496,0,0,0,81,false,stim,false,1,493.0,2,0,1,29495,task1,1108266,false,false,1572,image-keyboard-response,16
true,13,1,2,1,true,z,false,true,0.0-2.0-0.55-0.497-3.497,0,0,0,90,false,stim,false,2,399.7000000011176,2,0,0,29495,task1,1110193,false,false,1575,image-keyboard-response,17
true,13,2,2,0,false,q,false,false,0.0-2.0-0.55-0.498-3.498,0,0,0,68,false,stim,true,2,453.0,2,0,2,29495,task1,1112175,false,false,1578,image-keyboard-response,18
true,13,1,2,1,true,z,false,true,0.0-2.0-0.55-0.499-3.499,0,0,0,90,false,stim,false,2,730.2999999988824,2,0,0,29495,task1,1114430,false,false,1581,image-keyboard-response,19
true,13,0,2,0,true,q,false,true,0.0-2.0-0.55-0.500-3.500,0,0,0,81,false,stim,false,2,637.7000000011176,2,0,2,29495,task1,1116590,false,false,1584,image-keyboard-response,20
true,13,1,2,1,true,z,false,true,0.0-2.0-0.55-0.501-3.501,0,0,0,90,false,stim,false,2,694.1999999992549,2,0,0,29495,task1,1118811,false,false,1587,image-keyboard-response,21
true,13,0,2,0,true,q,false,false,0.0-2.0-0.55-0.502-3.502,0,0,0,81,false,stim,false,1,494.40000000037253,2,0,1,29495,task1,1120837,false,true,1590,image-keyboard-response,22
true,13,0,2,0,true,q,false,true,0.0-2.0-0.55-0.503-3.503,0,0,0,81,false,stim,false,2,361.59999999962747,2,0,2,29495,task1,1122722,false,false,1593,image-keyboard-response,23
true,13,1,2,1,true,z,false,false,0.0-2.0-0.56-0.504-3.504,0,0,0,90,false,stim,false,2,467.59999999962747,2,0,0,29495,task1,1124707,false,true,1596,image-keyboard-response,24
true,13,0,2,0,true,q,false,true,0.0-2.0-0.56-0.505-3.505,0,0,0,81,false,stim,false,1,369.2000000011176,2,0,1,29495,task1,1126607,false,false,1599,image-keyboard-response,25
true,13,1,2,1,true,z,false,true,0.0-2.0-0.56-0.506-3.506,0,0,0,90,false,stim,false,2,374.80000000074506,2,0,0,29495,task1,1128522,false,false,1602,image-keyboard-response,26
true,13,0,2,0,true,q,false,true,0.0-2.0-0.56-0.507-3.507,0,0,0,81,false,stim,false,1,781.7000000011176,2,0,1,29495,task1,1130820,false,false,1605,image-keyboard-response,27
true,13,1,2,1,true,z,false,true,0.0-2.0-0.56-0.508-3.508,0,0,0,90,false,stim,false,2,529.6999999992549,2,0,0,29495,task1,1132875,false,false,1608,image-keyboard-response,28
true,13,0,2,0,true,q,false,true,0.0-2.0-0.56-0.509-3.509,0,0,0,81,false,stim,false,2,886.0,2,0,2,29495,task1,1135300,false,false,1611,image-keyboard-response,29
true,13,0,2,0,true,q,false,true,0.0-2.0-0.56-0.510-3.510,0,0,0,81,false,stim,false,2,589.0999999996275,2,0,2,29495,task1,1137421,false,false,1614,image-keyboard-response,30
true,13,0,2,0,true,q,false,false,0.0-2.0-0.56-0.511-3.511,0,0,0,81,false,stim,false,1,601.4000000003725,2,0,1,29495,task1,1139539,false,true,1617,image-keyboard-response,31
true,13,0,2,0,true,q,false,true,0.0-2.0-0.56-0.512-3.512,0,0,0,81,false,stim,false,2,482.5,2,0,2,29495,task1,1141550,false,false,1620,image-keyboard-response,32
true,13,0,2,0,true,q,false,false,0.0-2.0-0.57-0.513-3.513,0,0,0,81,false,stim,false,2,541.5999999996275,2,0,2,29495,task1,1143621,false,true,1623,image-keyboard-response,33
true,13,0,2,0,true,q,false,true,0.0-2.0-0.57-0.514-3.514,0,0,0,81,false,stim,false,1,735.2999999988824,2,0,1,29495,task1,1145880,false,false,1626,image-keyboard-response,34
true,13,1,2,1,true,z,false,true,0.0-2.0-0.57-0.515-3.515,0,0,0,90,false,stim,false,2,611.2000000011176,2,0,0,29495,task1,1148018,false,false,1629,image-keyboard-response,35
true,13,0,2,0,true,q,false,true,0.0-2.0-0.57-0.516-3.516,0,0,0,81,false,stim,false,2,704.9000000003725,2,0,2,29495,task1,1150239,false,false,1632,image-keyboard-response,36
true,13,0,2,0,true,q,false,true,0.0-2.0-0.57-0.517-3.517,0,0,0,81,false,stim,false,1,522.8000000007451,2,0,1,29495,task1,1152291,false,false,1635,image-keyboard-response,37
true,13,0,2,0,true,q,false,true,0.0-2.0-0.57-0.518-3.518,0,0,0,81,false,stim,false,1,475.59999999962747,2,1,1,29495,task1,1154283,false,false,1638,image-keyboard-response,38
true,13,0,2,0,true,q,false,true,0.0-2.0-0.57-0.519-3.519,0,0,0,81,false,stim,false,2,589.4000000003725,2,1,2,29495,task1,1156399,false,false,1641,image-keyboard-response,39
true,13,1,2,1,true,z,false,true,0.0-2.0-0.57-0.520-3.520,0,0,0,90,false,stim,false,2,330.0,2,1,0,29495,task1,1158256,false,false,1644,image-keyboard-response,40
true,13,1,2,1,true,z,false,true,0.0-2.0-0.57-0.521-3.521,0,0,0,90,false,stim,false,2,580.6999999992549,2,1,0,29495,task1,1160363,false,false,1647,image-keyboard-response,41
true,13,0,2,0,true,q,false,true,0.0-2.0-0.58-0.522-3.522,0,0,0,81,false,stim,false,2,369.5,2,1,2,29495,task1,1162255,false,false,1650,image-keyboard-response,42
true,14,0,0,1,false,z,true,false,0.0-2.0-0.58-0.523-3.523,1,1,1,81,true,stim,false,1,1859.300000000745,2,1,0,29495,task1,1286940,false,false,1773,image-keyboard-response,1
true,14,2,0,0,false,q,true,false,0.0-2.0-0.58-0.524-3.524,1,1,1,68,false,stim,false,0,461.5,2,1,2,29495,task1,1288925,false,false,1776,image-keyboard-response,2
true,14,1,0,0,false,q,true,false,0.0-2.0-0.58-0.525-3.525,1,1,1,90,false,stim,false,0,371.2000000011176,2,1,1,29495,task1,1290831,false,false,1779,image-keyboard-response,3
true,14,0,0,1,false,z,true,true,0.0-2.0-0.58-0.526-3.526,1,1,1,81,false,stim,false,1,469.30000000074506,2,1,0,29495,task1,1292829,false,true,1782,image-keyboard-response,4
true,14,1,0,0,false,q,true,false,0.0-2.0-0.58-0.527-3.527,1,1,1,90,false,stim,false,0,386.0,2,1,2,29495,task1,1294728,false,false,1785,image-keyboard-response,5
true,14,2,0,0,false,q,true,false,0.0-2.0-0.58-0.528-3.528,1,1,1,68,false,stim,false,0,345.40000000037253,2,1,1,29495,task1,1296600,false,false,1788,image-keyboard-response,6
true,14,2,0,0,false,q,true,false,0.0-2.0-0.58-0.529-3.529,1,1,1,68,false,stim,false,0,466.0,2,1,1,29495,task1,1298585,false,false,1791,image-keyboard-response,7
true,14,0,0,1,false,z,true,false,0.0-2.0-0.58-0.530-3.530,1,1,1,81,false,stim,false,1,530.0,2,1,0,29495,task1,1300648,false,false,1794,image-keyboard-response,8
true,14,0,0,0,true,q,false,true,0.0-2.0-0.59-0.531-3.531,1,1,1,81,false,stim,false,0,563.7999999988824,2,0,1,29495,task1,1302746,false,false,1797,image-keyboard-response,9
true,14,0,0,1,false,z,true,false,0.0-2.0-0.59-0.532-3.532,1,1,1,81,false,stim,false,1,309.69999999925494,2,0,0,29495,task1,1304593,false,false,1800,image-keyboard-response,10
true,14,1,0,0,false,q,true,false,0.0-2.0-0.59-0.533-3.533,1,1,1,90,false,stim,false,0,675.0999999996275,2,0,2,29495,task1,1306817,false,false,1803,image-keyboard-response,11
true,14,0,0,1,false,z,true,false,0.0-2.0-0.59-0.534-3.534,1,1,1,81,false,stim,false,1,429.2999999988824,2,0,0,29495,task1,1308778,false,false,1806,image-keyboard-response,12
true,14,0,0,0,true,q,false,true,0.0-2.0-0.59-0.535-3.535,1,1,1,81,false,stim,false,0,843.5,2,0,1,29495,task1,1311151,false,false,1809,image-keyboard-response,13
true,15,2,1,2,true,d,false,true,0.0-2.0-0.59-0.536-3.536,0,0,0,68,true,stim,false,1,418.5,2,0,0,29495,task1,1313089,false,false,1812,image-keyboard-response,1
true,15,0,1,2,false,d,false,false,0.0-2.0-0.59-0.537-3.537,0,0,0,81,false,stim,true,0,646.1999999992549,2,0,1,29495,task1,1315260,false,false,1815,image-keyboard-response,2
true,15,0,1,1,false,z,false,false,0.0-2.0-0.59-0.538-3.538,0,0,0,81,false,stim,true,0,366.09999999962747,2,0,2,29495,task1,1317147,false,false,1818,image-keyboard-response,3
true,15,1,1,1,true,z,false,true,0.0-2.0-0.59-0.539-3.539,0,0,0,90,false,stim,false,0,923.5999999996275,2,0,2,29495,task1,1319593,false,false,1821,image-keyboard-response,4
true,15,0,1,2,false,d,false,true,0.0-2.0-0.60-0.540-3.540,0,0,0,81,false,stim,true,0,539.8000000007451,2,0,1,29495,task1,1321652,false,true,1824,image-keyboard-response,5
true,15,0,1,2,false,d,false,false,0.0-2.0-0.60-0.541-3.541,0,0,0,81,false,stim,true,0,531.8000000007451,2,0,1,29495,task1,1323702,false,false,1827,image-keyboard-response,6
true,15,1,1,1,true,z,false,true,0.0-2.0-0.60-0.542-3.542,0,0,0,90,false,stim,false,0,639.0999999996275,2,0,2,29495,task1,1325867,false,false,1830,image-keyboard-response,7
true,15,2,1,2,true,d,false,true,0.0-2.0-0.60-0.543-3.543,0,0,0,68,false,stim,false,1,388.40000000037253,2,0,0,29495,task1,1327778,false,false,1833,image-keyboard-response,8
true,15,1,1,1,true,z,false,true,0.0-2.0-0.60-0.544-3.544,0,0,0,90,false,stim,false,0,452.69999999925494,2,0,2,29495,task1,1329748,false,false,1836,image-keyboard-response,9
true,15,2,1,2,true,d,false,true,0.0-2.0-0.60-0.545-3.545,0,0,0,68,false,stim,false,1,905.3000000007451,2,0,0,29495,task1,1332175,false,false,1839,image-keyboard-response,10
true,15,0,1,2,false,d,false,false,0.0-2.0-0.60-0.546-3.546,0,0,0,81,false,stim,true,0,290.0,2,0,1,29495,task1,1333983,false,false,1842,image-keyboard-response,11
true,15,1,1,1,true,z,false,true,0.0-2.0-0.60-0.547-3.547,0,0,0,90,false,stim,false,0,331.3999999985099,2,0,2,29495,task1,1335831,false,false,1845,image-keyboard-response,12
true,15,2,1,2,true,d,false,true,0.0-2.0-0.60-0.548-3.548,0,0,0,68,false,stim,false,1,550.0,2,0,0,29495,task1,1337908,false,false,1848,image-keyboard-response,13
true,15,2,1,2,true,d,false,true,0.0-2.0-0.61-0.549-3.549,0,0,0,68,false,stim,false,1,514.9000000003725,2,0,0,29495,task1,1339939,false,false,1851,image-keyboard-response,14
true,15,1,1,1,true,z,false,false,0.0-2.0-0.61-0.550-3.550,0,0,0,90,false,stim,false,0,407.40000000037253,2,0,2,29495,task1,1341872,false,true,1854,image-keyboard-response,15
true,15,1,1,1,true,z,false,true,0.0-2.0-0.61-0.551-3.551,0,0,0,90,false,stim,false,0,353.69999999925494,2,0,2,29495,task1,1343744,false,false,1857,image-keyboard-response,16
true,15,1,1,2,false,d,true,false,0.0-2.0-0.61-0.552-3.552,0,0,0,90,false,stim,false,0,324.40000000037253,2,0,1,29495,task1,1345588,false,false,1860,image-keyboard-response,17
true,15,2,1,2,true,d,false,true,0.0-2.0-0.61-0.553-3.553,0,0,0,68,false,stim,false,1,600.1000000014901,2,0,0,29495,task1,1347707,false,false,1863,image-keyboard-response,18
true,15,2,1,2,true,d,false,true,0.0-2.0-0.61-0.554-3.554,0,0,0,68,false,stim,false,1,520.8000000007451,2,0,0,29495,task1,1349760,false,false,1866,image-keyboard-response,19
true,15,2,1,2,true,d,false,true,0.0-2.0-0.61-0.555-3.555,0,0,0,68,false,stim,false,0,373.40000000037253,2,0,1,29495,task1,1351661,false,false,1869,image-keyboard-response,20
true,15,2,1,2,true,d,false,true,0.0-2.0-0.61-0.556-3.556,0,0,0,68,false,stim,false,0,388.7000000011176,2,0,1,29495,task1,1353576,false,false,1872,image-keyboard-response,21
true,15,1,1,1,true,z,false,true,0.0-2.0-0.61-0.557-3.557,0,0,0,90,false,stim,false,0,475.5,2,0,2,29495,task1,1355579,false,false,1875,image-keyboard-response,22
true,15,2,1,1,false,z,true,false,0.0-2.0-0.62-0.558-3.558,0,0,0,68,false,stim,false,0,407.0,2,0,2,29495,task1,1357511,false,false,1878,image-keyboard-response,23
true,15,2,1,2,true,d,false,true,0.0-2.0-0.62-0.559-3.559,0,0,0,68,false,stim,false,1,345.09999999962747,2,0,0,29495,task1,1359389,false,false,1881,image-keyboard-response,24
true,15,2,1,2,true,d,false,true,0.0-2.0-0.62-0.560-3.560,0,0,0,68,false,stim,false,0,789.5,2,0,1,29495,task1,1361706,false,false,1884,image-keyboard-response,25
true,15,2,1,2,true,d,false,true,0.0-2.0-0.62-0.561-3.561,0,0,0,68,false,stim,false,0,536.5999999996275,2,0,1,29495,task1,1363772,false,false,1887,image-keyboard-response,26
true,15,2,1,2,true,d,false,false,0.0-2.0-0.62-0.562-3.562,0,0,0,68,false,stim,false,0,444.0,2,0,1,29495,task1,1365741,false,true,1890,image-keyboard-response,27
true,15,2,1,1,false,z,true,true,0.0-2.0-0.62-0.563-3.563,0,0,0,68,false,stim,false,0,345.69999999925494,2,0,2,29495,task1,1367603,false,true,1893,image-keyboard-response,28
true,15,2,1,1,false,z,true,true,0.0-2.0-0.62-0.564-3.564,0,0,0,68,false,stim,false,0,448.5,2,0,2,29495,task1,1369566,false,true,1896,image-keyboard-response,29
true,15,2,1,2,true,d,false,true,0.0-2.0-0.62-0.565-3.565,0,0,0,68,false,stim,false,1,794.0999999996275,2,0,0,29495,task1,1371883,false,false,1899,image-keyboard-response,30
true,15,2,1,2,true,d,false,true,0.0-2.0-0.62-0.566-3.566,0,0,0,68,false,stim,false,1,494.19999999925494,2,0,0,29495,task1,1373931,false,false,1902,image-keyboard-response,31
true,15,2,1,2,true,d,false,true,0.0-2.0-0.63-0.567-3.567,0,0,0,68,false,stim,false,1,402.59999999962747,2,0,0,29495,task1,1375860,false,false,1905,image-keyboard-response,32
true,15,2,1,2,true,d,false,true,0.0-2.0-0.63-0.568-3.568,0,0,0,68,false,stim,false,0,495.19999999925494,2,0,1,29495,task1,1377885,false,false,1908,image-keyboard-response,33
true,15,1,1,1,true,z,false,true,0.0-2.0-0.63-0.569-3.569,0,0,0,90,false,stim,false,0,459.6000000014901,2,0,2,29495,task1,1379896,false,false,1911,image-keyboard-response,34
true,15,2,1,2,true,d,false,true,0.0-2.0-0.63-0.570-3.570,0,0,0,68,false,stim,false,0,404.7000000011176,2,0,1,29495,task1,1381835,false,false,1914,image-keyboard-response,35
true,15,1,1,1,true,z,false,true,0.0-2.0-0.63-0.571-3.571,0,0,0,90,false,stim,false,0,621.3000000007451,2,0,2,29495,task1,1383984,false,false,1917,image-keyboard-response,36
true,15,2,1,2,true,d,false,true,0.0-2.0-0.63-0.572-3.572,0,0,0,68,false,stim,false,0,669.5999999996275,2,0,1,29495,task1,1386185,false,false,1920,image-keyboard-response,37
true,15,1,1,2,false,d,false,false,0.0-2.0-0.63-0.573-3.573,0,0,0,90,false,stim,true,1,505.09999999962747,2,0,0,29495,task1,1388208,false,false,1923,image-keyboard-response,38
true,15,2,1,1,false,z,true,false,0.0-2.0-0.63-0.574-3.574,0,0,0,68,false,stim,false,0,506.8999999985099,2,0,2,29495,task1,1390236,false,false,1926,image-keyboard-response,39
true,15,2,1,2,true,d,false,true,0.0-2.0-0.63-0.575-3.575,0,0,0,68,false,stim,false,1,350.0,2,0,0,29495,task1,1392114,false,false,1929,image-keyboard-response,40
true,15,2,1,2,true,d,false,true,0.0-2.0-0.64-0.576-3.576,0,0,0,68,false,stim,false,0,648.9000000003725,2,0,1,29495,task1,1394281,false,false,1932,image-keyboard-response,41
true,15,1,1,1,true,z,false,true,0.0-2.0-0.64-0.577-3.577,0,0,0,90,false,stim,false,0,429.90000000037253,2,0,2,29495,task1,1396232,false,false,1935,image-keyboard-response,42
true,15,2,1,2,true,d,false,true,0.0-2.0-0.64-0.578-3.578,0,0,0,68,false,stim,false,1,354.7000000011176,2,0,0,29495,task1,1398148,false,false,1938,image-keyboard-response,43
true,15,2,1,2,true,d,false,true,0.0-2.0-0.64-0.579-3.579,0,0,0,68,false,stim,false,1,476.90000000037253,2,0,0,29495,task1,1400151,false,false,1941,image-keyboard-response,44
true,15,1,1,1,true,z,false,true,0.0-2.0-0.64-0.580-3.580,0,0,0,90,false,stim,false,0,546.3000000007451,2,0,2,29495,task1,1402227,false,false,1944,image-keyboard-response,45
true,16,2,2,1,false,z,false,false,0.0-2.0-0.64-0.581-3.581,0,0,0,68,true,stim,true,2,545.9000000003725,2,0,0,29495,task1,1404305,false,false,1947,image-keyboard-response,1
true,16,1,2,0,false,q,true,false,0.0-2.0-0.64-0.582-3.582,0,0,0,90,false,stim,false,2,580.5999999996275,2,0,1,29495,task1,1406412,false,false,1950,image-keyboard-response,2
true,16,2,2,0,false,q,false,false,0.0-2.0-0.64-0.583-3.583,0,0,0,68,false,stim,true,2,341.90000000037253,2,0,1,29495,task1,1408283,false,false,1953,image-keyboard-response,3
true,16,0,2,0,true,q,false,false,0.0-2.0-0.64-0.584-3.584,0,0,0,81,false,stim,false,1,526.6999999992549,2,0,2,29495,task1,1410353,false,true,1956,image-keyboard-response,4
true,16,1,2,0,false,q,false,false,0.0-2.0-0.65-0.585-3.585,0,0,0,90,false,stim,true,1,403.0,2,0,2,29495,task1,1412290,false,false,1959,image-keyboard-response,5
true,16,2,2,0,false,q,true,false,0.0-2.0-0.65-0.586-3.586,0,0,0,68,false,stim,false,1,388.40000000037253,2,0,2,29495,task1,1414209,false,false,1962,image-keyboard-response,6
true,16,0,2,0,true,q,false,true,0.0-2.0-0.65-0.587-3.587,0,0,0,81,false,stim,false,2,696.9000000003725,2,0,1,29495,task1,1416434,false,false,1965,image-keyboard-response,7
true,16,1,2,1,true,z,false,false,0.0-2.0-0.65-0.588-3.588,0,0,0,90,false,stim,false,2,551.5999999996275,2,0,0,29495,task1,1418521,false,true,1968,image-keyboard-response,8
true,16,0,2,1,false,z,true,false,0.0-2.0-0.65-0.589-3.589,0,0,0,81,false,stim,false,2,498.0,2,0,0,29495,task1,1420550,false,false,1971,image-keyboard-response,9
true,16,0,2,0,true,q,false,false,0.0-2.0-0.65-0.590-3.590,0,0,0,81,false,stim,false,1,724.4000000003725,2,0,2,29495,task1,1422808,false,true,1974,image-keyboard-response,10
true,16,0,2,0,true,q,false,true,0.0-2.0-0.65-0.591-3.591,0,0,0,81,false,stim,false,2,422.6000000014901,2,0,1,29495,task1,1424760,false,false,1977,image-keyboard-response,11
