answered,blockNum,choice,condition,corResp,correct,correct_response,explo,fb,internal_node_id,isStable_1,isStable_2,isStable_3,key_press,newBlock,part,persev,persevResp,rt,sessNum,stableAS,stimulus,subject,task,time_elapsed,training,trap,trial_index,trial_type,trialsInBlock
true,1,1,0,0,false,q,true,false,0.0-2.0-0.0-0.0-3.0,0,0,0,90,true,stim,false,-1,852.0,2,0,1,31360,task2,233013,false,false,184,image-keyboard-response,1
true,1,2,0,1,false,z,true,false,0.0-2.0-0.0-0.1-3.1,0,0,0,68,false,stim,false,-1,564.0,2,0,2,31360,task2,235083,false,false,187,image-keyboard-response,2
true,1,0,0,0,true,q,false,true,0.0-2.0-0.0-0.2-3.2,0,0,0,81,false,stim,false,-1,685.0,2,0,1,31360,task2,237273,false,false,190,image-keyboard-response,3
true,1,1,0,1,true,z,false,true,0.0-2.0-0.0-0.3-3.3,0,0,0,90,false,stim,false,-1,632.0,2,0,2,31360,task2,239411,false,false,193,image-keyboard-response,4
true,1,2,0,1,false,z,true,false,0.0-2.0-0.0-0.4-3.4,0,0,0,68,false,stim,false,-1,421.0000000000291,2,0,0,31360,task2,241336,false,false,196,image-keyboard-response,5
true,1,0,0,1,false,z,true,false,0.0-2.0-0.0-0.5-3.5,0,0,0,81,false,stim,false,-1,461.0,2,0,0,31360,task2,243302,false,false,199,image-keyboard-response,6
true,1,1,0,1,true,z,false,true,0.0-2.0-0.0-0.6-3.6,0,0,0,90,false,stim,false,-1,366.0000000000291,2,0,0,31360,task2,245175,false,false,202,image-keyboard-response,7
true,1,0,0,0,true,q,false,true,0.0-2.0-0.0-0.7-3.7,0,0,0,81,false,stim,false,-1,442.9999999999709,2,0,1,31360,task2,247125,false,false,205,image-keyboard-response,8
true,1,1,0,1,true,z,false,true,0.0-2.0-0.0-0.8-3.8,0,0,0,90,false,stim,false,-1,559.0,2,0,2,31360,task2,249189,false,false,208,image-keyboard-response,9
true,1,1,0,0,false,q,true,false,0.0-2.0-0.1-0.9-3.9,0,0,0,90,false,stim,false,-1,700.0,2,0,1,31360,task2,251394,false,false,211,image-keyboard-response,10
true,1,1,0,1,true,z,false,true,0.0-2.0-0.1-0.10-3.10,0,0,0,90,false,stim,false,-1,672.0,2,0,2,31360,task2,253571,false,false,214,image-keyboard-response,11
true,1,1,0,1,true,z,false,true,0.0-2.0-0.1-0.11-3.11,0,0,0,90,false,stim,false,-1,399.9999999999709,2,0,0,31360,task2,255476,false,false,217,image-keyboard-response,12
true,1,1,0,1,true,z,false,true,0.0-2.0-0.1-0.12-3.12,0,0,0,90,false,stim,false,-1,388.0000000000291,2,0,0,31360,task2,257369,false,false,220,image-keyboard-response,13
true,1,1,0,1,true,z,false,true,0.0-2.0-0.1-0.13-3.13,0,0,0,90,false,stim,false,-1,384.0000000000291,2,0,0,31360,task2,259259,false,false,223,image-keyboard-response,14
true,1,0,0,1,false,z,true,true,0.0-2.0-0.1-0.14-3.14,0,0,0,81,false,stim,false,-1,662.9999999999709,2,0,2,31360,task2,261427,false,true,226,image-keyboard-response,15
true,1,0,0,0,true,q,false,true,0.0-2.0-0.1-0.15-3.15,0,0,0,81,false,stim,false,-1,508.0,2,0,1,31360,task2,263440,false,false,229,image-keyboard-response,16
true,1,0,0,0,true,q,false,true,0.0-2.0-0.1-0.16-3.16,0,0,0,81,false,stim,false,-1,357.0,2,0,1,31360,task2,265302,false,false,232,image-keyboard-response,17
true,1,1,0,1,true,z,false,true,0.0-2.0-0.1-0.17-3.17,0,0,0,90,false,stim,false,-1,631.0,2,0,2,31360,task2,267438,false,false,235,image-keyboard-response,18
true,1,1,0,0,false,q,true,false,0.0-2.0-0.2-0.18-3.18,0,0,0,90,false,stim,false,-1,580.0,2,0,1,31360,task2,269524,false,false,238,image-keyboard-response,19
true,1,0,0,1,false,z,true,false,0.0-2.0-0.2-0.19-3.19,0,0,0,81,false,stim,false,-1,355.0,2,0,0,31360,task2,271384,false,false,241,image-keyboard-response,20
true,1,1,0,1,true,z,false,true,0.0-2.0-0.2-0.20-3.20,0,0,0,90,false,stim,false,-1,437.0,2,0,2,31360,task2,273325,false,false,244,image-keyboard-response,21
true,1,1,0,0,false,q,true,false,0.0-2.0-0.2-0.21-3.21,0,0,0,90,false,stim,false,-1,417.0,2,0,1,31360,task2,275245,false,false,247,image-keyboard-response,22
true,1,0,0,0,true,q,false,true,0.0-2.0-0.2-0.22-3.22,0,0,0,81,false,stim,false,-1,423.0,2,0,1,31360,task2,277173,false,false,250,image-keyboard-response,23
true,1,1,0,1,true,z,false,true,0.0-2.0-0.2-0.23-3.23,0,0,0,90,false,stim,false,-1,520.0,2,1,0,31360,task2,279197,false,false,253,image-keyboard-response,24
true,1,1,0,1,true,z,false,true,0.0-2.0-0.2-0.24-3.24,0,0,0,90,false,stim,false,-1,438.0,2,0,2,31360,task2,281140,false,false,256,image-keyboard-response,25
true,1,1,0,1,true,z,false,true,0.0-2.0-0.2-0.25-3.25,0,0,0,90,false,stim,false,-1,645.0,2,0,2,31360,task2,283290,false,false,259,image-keyboard-response,26
true,2,1,2,1,true,z,false,true,0.0-2.0-0.2-0.26-3.26,1,0,0,90,true,stim,false,1,839.0,2,1,0,31360,task2,285635,false,false,262,image-keyboard-response,1
true,2,1,2,1,true,z,false,true,0.0-2.0-0.3-0.27-3.27,1,0,0,90,false,stim,false,1,378.0,2,1,0,31360,task2,287518,false,false,265,image-keyboard-response,2
true,2,0,2,2,false,d,false,false,0.0-2.0-0.3-0.28-3.28,1,0,0,81,false,stim,true,0,526.0,2,0,1,31360,task2,289550,false,false,268,image-keyboard-response,3
true,2,1,2,2,false,d,false,false,0.0-2.0-0.3-0.29-3.29,1,0,0,90,false,stim,true,1,399.0,2,0,2,31360,task2,291455,false,false,271,image-keyboard-response,4
true,2,1,2,2,false,d,true,false,0.0-2.0-0.3-0.30-3.30,1,0,0,90,false,stim,false,0,227.0,2,0,1,31360,task2,293188,false,false,274,image-keyboard-response,5
true,2,1,2,2,false,d,true,false,0.0-2.0-0.3-0.31-3.31,1,0,0,90,false,stim,false,0,247.0,2,0,1,31360,task2,294941,false,false,277,image-keyboard-response,6
true,2,0,2,1,false,z,true,false,0.0-2.0-0.3-0.32-3.32,1,0,0,81,false,stim,false,1,327.9999999999418,2,1,0,31360,task2,296774,false,false,280,image-keyboard-response,7
true,2,2,2,1,false,z,true,false,0.0-2.0-0.3-0.33-3.33,1,0,0,68,false,stim,false,1,289.0,2,1,0,31360,task2,298569,false,false,283,image-keyboard-response,8
true,2,1,2,2,false,d,false,false,0.0-2.0-0.3-0.34-3.34,1,0,0,90,false,stim,true,1,272.0,2,0,2,31360,task2,300347,false,false,286,image-keyboard-response,9
true,2,2,2,2,true,d,false,true,0.0-2.0-0.3-0.35-3.35,1,0,0,68,false,stim,false,1,388.0,2,0,2,31360,task2,302241,false,false,289,image-keyboard-response,10
true,2,2,2,2,true,d,false,true,0.0-2.0-0.4-0.36-3.36,1,0,0,68,false,stim,false,1,398.0,2,0,2,31360,task2,304145,false,false,292,image-keyboard-response,11
true,2,2,2,1,false,z,true,false,0.0-2.0-0.4-0.37-3.37,1,0,0,68,false,stim,false,1,977.0,2,1,0,31360,task2,306628,false,false,295,image-keyboard-response,12
true,2,2,2,2,true,d,false,true,0.0-2.0-0.4-0.38-3.38,1,0,0,68,false,stim,false,1,378.0,2,0,2,31360,task2,308512,false,false,298,image-keyboard-response,13
true,2,2,2,2,true,d,false,true,0.0-2.0-0.4-0.39-3.39,1,0,0,68,false,stim,false,1,445.0,2,0,2,31360,task2,310464,false,false,301,image-keyboard-response,14
true,2,1,2,2,false,d,true,false,0.0-2.0-0.4-0.40-3.40,1,0,0,90,false,stim,false,0,718.0,2,0,1,31360,task2,312688,false,false,304,image-keyboard-response,15
true,2,0,2,1,false,z,true,false,0.0-2.0-0.4-0.41-3.41,1,0,0,81,false,stim,false,1,708.0,2,1,0,31360,task2,314901,false,false,307,image-keyboard-response,16
true,2,1,2,2,false,d,true,false,0.0-2.0-0.4-0.42-3.42,1,0,0,90,false,stim,false,0,603.0,2,0,1,31360,task2,317010,false,false,310,image-keyboard-response,17
true,2,2,2,2,true,d,false,true,0.0-2.0-0.4-0.43-3.43,1,0,0,68,false,stim,false,0,139.0,2,0,1,31360,task2,318653,false,false,313,image-keyboard-response,18
true,2,2,2,1,false,z,true,false,0.0-2.0-0.4-0.44-3.44,1,0,0,68,false,stim,false,1,494.0,2,1,0,31360,task2,320652,false,false,316,image-keyboard-response,19
true,2,2,2,2,true,d,false,true,0.0-2.0-0.5-0.45-3.45,1,0,0,68,false,stim,false,0,522.0,2,0,1,31360,task2,322678,false,false,319,image-keyboard-response,20
true,2,1,2,1,true,z,false,true,0.0-2.0-0.5-0.46-3.46,1,0,0,90,false,stim,false,1,687.0000000000582,2,1,0,31360,task2,324870,false,false,322,image-keyboard-response,21
true,2,2,2,2,true,d,false,true,0.0-2.0-0.5-0.47-3.47,1,0,0,68,false,stim,false,1,486.0,2,0,2,31360,task2,326861,false,false,325,image-keyboard-response,22
true,2,2,2,2,true,d,false,true,0.0-2.0-0.5-0.48-3.48,1,0,0,68,false,stim,false,1,319.0,2,0,2,31360,task2,328685,false,false,328,image-keyboard-response,23
true,2,2,2,1,false,z,true,false,0.0-2.0-0.5-0.49-3.49,1,0,0,68,false,stim,false,1,392.0,2,1,0,31360,task2,330583,false,false,331,image-keyboard-response,24
true,2,1,2,1,true,z,false,true,0.0-2.0-0.5-0.50-3.50,1,0,0,90,false,stim,false,1,306.0000000000582,2,1,0,31360,task2,332393,false,false,334,image-keyboard-response,25
true,2,2,2,2,true,d,false,true,0.0-2.0-0.5-0.51-3.51,1,0,0,68,false,stim,false,0,562.9999999999418,2,0,1,31360,task2,334462,false,false,337,image-keyboard-response,26
true,2,2,2,2,true,d,false,true,0.0-2.0-0.5-0.52-3.52,1,0,0,68,false,stim,false,1,282.0,2,0,2,31360,task2,336249,false,false,340,image-keyboard-response,27
true,2,2,2,2,true,d,false,true,0.0-2.0-0.5-0.53-3.53,1,0,0,68,false,stim,false,0,365.0,2,0,1,31360,task2,338119,false,false,343,image-keyboard-response,28
true,2,2,2,2,true,d,false,true,0.0-2.0-0.6-0.54-3.54,1,0,0,68,false,stim,false,1,404.0,2,0,2,31360,task2,340029,false,false,346,image-keyboard-response,29
true,2,2,2,1,false,z,true,false,0.0-2.0-0.6-0.55-3.55,1,0,0,68,false,stim,false,1,354.0,2,0,0,31360,task2,341888,false,false,349,image-keyboard-response,30
true,2,2,2,2,true,d,false,true,0.0-2.0-0.6-0.56-3.56,1,0,0,68,false,stim,false,0,409.9999999999418,2,0,1,31360,task2,343803,false,false,352,image-keyboard-response,31
true,3,1,1,0,false,q,false,false,0.0-2.0-0.6-0.57-3.57,0,0,0,90,true,stim,true,1,587.9999999999418,2,0,0,31360,task2,345897,false,false,355,image-keyboard-response,1
true,3,2,1,1,false,z,false,false,0.0-2.0-0.6-0.58-3.58,0,0,0,68,false,stim,true,2,265.0,2,0,1,31360,task2,347668,false,false,358,image-keyboard-response,2
true,3,0,1,1,false,z,true,false,0.0-2.0-0.6-0.59-3.59,0,0,0,81,false,stim,false,2,245.0,2,0,2,31360,task2,349419,false,false,361,image-keyboard-response,3
true,3,1,1,1,true,z,false,true,0.0-2.0-0.6-0.60-3.60,0,0,0,90,false,stim,false,2,256.0,2,0,2,31360,task2,351180,false,false,364,image-keyboard-response,4
true,3,1,1,1,true,z,false,true,0.0-2.0-0.6-0.61-3.61,0,0,0,90,false,stim,false,2,319.0,2,0,1,31360,task2,353005,false,false,367,image-keyboard-response,5
true,3,1,1,0,false,q,false,true,0.0-2.0-0.6-0.62-3.62,0,0,0,90,false,stim,true,1,507.0,2,0,0,31360,task2,355017,false,true,370,image-keyboard-response,6
true,3,1,1,0,false,q,false,true,0.0-2.0-0.7-0.63-3.63,0,0,0,90,false,stim,true,1,245.0,2,0,0,31360,task2,356767,false,true,373,image-keyboard-response,7
true,3,1,1,1,true,z,false,false,0.0-2.0-0.7-0.64-3.64,0,0,0,90,false,stim,false,2,263.0,2,0,1,31360,task2,358534,false,true,376,image-keyboard-response,8
true,3,1,1,0,false,q,false,false,0.0-2.0-0.7-0.65-3.65,0,0,0,90,false,stim,true,1,280.0,2,0,0,31360,task2,360319,false,false,379,image-keyboard-response,9
true,3,1,1,1,true,z,false,true,0.0-2.0-0.7-0.66-3.66,0,0,0,90,false,stim,false,2,612.0,2,0,2,31360,task2,362437,false,false,382,image-keyboard-response,10
true,3,2,1,1,false,z,false,false,0.0-2.0-0.7-0.67-3.67,0,0,0,68,false,stim,true,2,287.0,2,0,2,31360,task2,364230,false,false,385,image-keyboard-response,11
true,3,1,1,1,true,z,false,true,0.0-2.0-0.7-0.68-3.68,0,0,0,90,false,stim,false,2,313.0000000000582,2,0,2,31360,task2,366048,false,false,388,image-keyboard-response,12
true,3,1,1,0,false,q,false,true,0.0-2.0-0.7-0.69-3.69,0,0,0,90,false,stim,true,1,585.0,2,0,0,31360,task2,368139,false,true,391,image-keyboard-response,13
true,3,1,1,1,true,z,false,true,0.0-2.0-0.7-0.70-3.70,0,0,0,90,false,stim,false,2,250.9999999999418,2,0,1,31360,task2,369895,false,false,394,image-keyboard-response,14
true,3,1,1,1,true,z,false,true,0.0-2.0-0.7-0.71-3.71,0,0,0,90,false,stim,false,2,318.0,2,0,1,31360,task2,371718,false,false,397,image-keyboard-response,15
true,3,1,1,1,true,z,false,true,0.0-2.0-0.8-0.72-3.72,0,0,0,90,false,stim,false,2,286.0,2,0,1,31360,task2,373509,false,false,400,image-keyboard-response,16
true,3,1,1,1,true,z,false,true,0.0-2.0-0.8-0.73-3.73,0,0,0,90,false,stim,false,2,369.0000000000582,2,0,1,31360,task2,375386,false,false,403,image-keyboard-response,17
true,3,1,1,1,true,z,false,true,0.0-2.0-0.8-0.74-3.74,0,0,0,90,false,stim,false,2,262.0,2,0,2,31360,task2,377154,false,false,406,image-keyboard-response,18
true,3,1,1,1,true,z,false,true,0.0-2.0-0.8-0.75-3.75,0,0,0,90,false,stim,false,2,275.0,2,0,1,31360,task2,378934,false,false,409,image-keyboard-response,19
true,3,1,1,0,false,q,false,false,0.0-2.0-0.8-0.76-3.76,0,0,0,90,false,stim,true,1,286.0,2,0,0,31360,task2,380729,false,false,412,image-keyboard-response,20
true,3,2,1,0,false,q,true,false,0.0-2.0-0.8-0.77-3.77,0,0,0,68,false,stim,false,1,126.0,2,0,0,31360,task2,382361,false,false,415,image-keyboard-response,21
true,3,0,1,0,true,q,false,true,0.0-2.0-0.8-0.78-3.78,0,0,0,81,false,stim,false,1,262.0,2,0,0,31360,task2,384129,false,false,418,image-keyboard-response,22
true,3,0,1,1,false,z,true,false,0.0-2.0-0.8-0.79-3.79,0,0,0,81,false,stim,false,2,311.0,2,0,2,31360,task2,385946,false,false,421,image-keyboard-response,23
true,3,1,1,1,true,z,false,true,0.0-2.0-0.8-0.80-3.80,0,0,0,90,false,stim,false,2,285.0,2,0,2,31360,task2,387736,false,false,424,image-keyboard-response,24
true,3,0,1,0,true,q,false,true,0.0-2.0-0.9-0.81-3.81,0,0,0,81,false,stim,false,1,370.0,2,0,0,31360,task2,389612,false,false,427,image-keyboard-response,25
true,3,1,1,0,false,q,false,false,0.0-2.0-0.9-0.82-3.82,0,0,0,90,false,stim,true,1,307.0,2,0,0,31360,task2,391424,false,false,430,image-keyboard-response,26
true,3,1,1,1,true,z,false,true,0.0-2.0-0.9-0.83-3.83,0,0,0,90,false,stim,false,2,412.9999999999418,2,0,2,31360,task2,393343,false,false,433,image-keyboard-response,27
true,3,0,1,0,true,q,false,true,0.0-2.0-0.9-0.84-3.84,0,0,0,81,false,stim,false,1,270.0,2,0,0,31360,task2,395117,false,false,436,image-keyboard-response,28
true,3,1,1,1,true,z,false,true,0.0-2.0-0.9-0.85-3.85,0,0,0,90,false,stim,false,2,325.0,2,0,1,31360,task2,396949,false,false,439,image-keyboard-response,29
true,3,1,1,1,true,z,false,true,0.0-2.0-0.9-0.86-3.86,0,0,0,90,false,stim,false,2,322.0,2,0,1,31360,task2,398776,false,false,442,image-keyboard-response,30
true,3,1,1,1,true,z,false,true,0.0-2.0-0.9-0.87-3.87,0,0,0,90,false,stim,false,2,339.0,2,0,1,31360,task2,400621,false,false,445,image-keyboard-response,31
true,3,1,1,1,true,z,false,true,0.0-2.0-0.9-0.88-3.88,0,0,0,90,false,stim,false,2,256.0000000000582,2,0,2,31360,task2,402382,false,false,448,image-keyboard-response,32
true,3,1,1,1,true,z,false,true,0.0-2.0-0.9-0.89-3.89,0,0,0,90,false,stim,false,2,319.9999999999418,2,0,2,31360,task2,404207,false,false,451,image-keyboard-response,33
true,3,1,1,1,true,z,false,true,0.0-2.0-0.10-0.90-3.90,0,0,0,90,false,stim,false,2,125.0,2,0,1,31360,task2,405837,false,false,454,image-keyboard-response,34
true,3,1,1,1,true,z,false,true,0.0-2.0-0.10-0.91-3.91,0,0,0,90,false,stim,false,2,244.0,2,0,1,31360,task2,407587,false,false,457,image-keyboard-response,35
true,3,1,1,0,false,q,false,false,0.0-2.0-0.10-0.92-3.92,0,0,0,90,false,stim,true,1,298.0,2,0,0,31360,task2,409390,false,false,460,image-keyboard-response,36
true,3,1,1,1,true,z,false,true,0.0-2.0-0.10-0.93-3.93,0,0,0,90,false,stim,false,2,390.0000000000582,2,0,1,31360,task2,411286,false,false,463,image-keyboard-response,37
true,4,1,1,2,false,d,true,false,0.0-2.0-0.10-0.94-3.94,0,0,0,90,true,stim,false,0,231.0,2,0,0,31360,task2,413023,false,false,466,image-keyboard-response,1
true,4,0,1,2,false,d,false,false,0.0-2.0-0.10-0.95-3.95,0,0,0,81,false,stim,true,0,170.0,2,0,0,31360,task2,414699,false,false,469,image-keyboard-response,2
true,4,1,1,0,false,q,false,false,0.0-2.0-0.10-0.96-3.96,0,0,0,90,false,stim,true,1,77.0,2,0,2,31360,task2,416282,false,false,472,image-keyboard-response,3
true,4,2,1,0,false,q,true,false,0.0-2.0-0.10-0.97-3.97,0,0,0,68,false,stim,false,1,465.0,2,0,2,31360,task2,418254,false,false,475,image-keyboard-response,4
true,4,1,1,0,false,q,false,false,0.0-2.0-0.10-0.98-3.98,0,0,0,90,false,stim,true,1,232.0,2,0,2,31360,task2,419992,false,false,478,image-keyboard-response,5
true,4,0,1,0,true,q,false,true,0.0-2.0-0.11-0.99-3.99,0,0,0,81,false,stim,false,1,280.0,2,0,2,31360,task2,421779,false,false,481,image-keyboard-response,6
true,4,0,1,2,false,d,false,false,0.0-2.0-0.11-0.100-3.100,0,0,0,81,false,stim,true,0,629.0,2,0,0,31360,task2,423913,false,false,484,image-keyboard-response,7
true,4,1,1,0,false,q,false,false,0.0-2.0-0.11-0.101-3.101,0,0,0,90,false,stim,true,1,507.0,2,0,1,31360,task2,425927,false,false,487,image-keyboard-response,8
true,4,2,1,2,true,d,false,true,0.0-2.0-0.11-0.102-3.102,0,0,0,68,false,stim,false,0,582.0,2,0,0,31360,task2,428015,false,false,490,image-keyboard-response,9
true,4,0,1,0,true,q,false,false,0.0-2.0-0.11-0.103-3.103,0,0,0,81,false,stim,false,1,378.9999999999418,2,0,2,31360,task2,429899,false,true,493,image-keyboard-response,10
true,4,2,1,2,true,d,false,true,0.0-2.0-0.11-0.104-3.104,0,0,0,68,false,stim,false,0,345.0,2,0,0,31360,task2,431749,false,false,496,image-keyboard-response,11
true,4,1,1,0,false,q,false,false,0.0-2.0-0.11-0.105-3.105,0,0,0,90,false,stim,true,1,664.0,2,0,1,31360,task2,433917,false,false,499,image-keyboard-response,12
true,4,0,1,0,true,q,false,true,0.0-2.0-0.11-0.106-3.106,0,0,0,81,false,stim,false,1,463.0,2,0,1,31360,task2,435889,false,false,502,image-keyboard-response,13
true,4,0,1,0,true,q,false,true,0.0-2.0-0.11-0.107-3.107,0,0,0,81,false,stim,false,1,227.0000000000582,2,0,2,31360,task2,437621,false,false,505,image-keyboard-response,14
true,4,2,1,2,true,d,false,true,0.0-2.0-0.12-0.108-3.108,0,0,0,68,false,stim,false,0,459.0,2,0,0,31360,task2,439586,false,false,508,image-keyboard-response,15
true,4,0,1,0,true,q,false,true,0.0-2.0-0.12-0.109-3.109,0,0,0,81,false,stim,false,1,453.9999999999418,2,0,1,31360,task2,441546,false,false,511,image-keyboard-response,16
true,4,2,1,2,true,d,false,true,0.0-2.0-0.12-0.110-3.110,0,0,0,68,false,stim,false,0,580.0,2,0,0,31360,task2,443633,false,false,514,image-keyboard-response,17
true,4,0,1,0,true,q,false,true,0.0-2.0-0.12-0.111-3.111,0,0,0,81,false,stim,false,1,883.9999999999418,2,0,2,31360,task2,446023,false,false,517,image-keyboard-response,18
true,4,0,1,0,true,q,false,true,0.0-2.0-0.12-0.112-3.112,0,0,0,81,false,stim,false,1,372.0,2,0,1,31360,task2,447902,false,false,520,image-keyboard-response,19
true,4,0,1,0,true,q,false,true,0.0-2.0-0.12-0.113-3.113,0,0,0,81,false,stim,false,1,464.9999999999418,2,0,2,31360,task2,449873,false,false,523,image-keyboard-response,20
true,4,0,1,0,true,q,false,false,0.0-2.0-0.12-0.114-3.114,0,0,0,81,false,stim,false,1,254.0000000000582,2,0,1,31360,task2,451633,false,true,526,image-keyboard-response,21
true,4,0,1,0,true,q,false,true,0.0-2.0-0.12-0.115-3.115,0,0,0,81,false,stim,false,1,387.0,2,0,2,31360,task2,453525,false,false,529,image-keyboard-response,22
true,4,0,1,2,false,d,false,false,0.0-2.0-0.12-0.116-3.116,0,0,0,81,false,stim,true,0,366.0,2,0,0,31360,task2,455398,false,false,532,image-keyboard-response,23
true,4,0,1,0,true,q,false,true,0.0-2.0-0.13-0.117-3.117,0,0,0,81,false,stim,false,1,506.0,2,0,1,31360,task2,457409,false,false,535,image-keyboard-response,24
true,4,0,1,0,true,q,false,true,0.0-2.0-0.13-0.118-3.118,0,0,0,81,false,stim,false,1,265.0,2,0,1,31360,task2,459179,false,false,538,image-keyboard-response,25
true,4,0,1,2,false,d,false,false,0.0-2.0-0.13-0.119-3.119,0,0,0,81,false,stim,true,0,216.0000000000582,2,0,0,31360,task2,460901,false,false,541,image-keyboard-response,26
true,4,2,1,2,true,d,false,false,0.0-2.0-0.13-0.120-3.120,0,0,0,68,false,stim,false,0,368.9999999999418,2,0,0,31360,task2,462776,false,true,544,image-keyboard-response,27
true,4,1,1,2,false,d,true,false,0.0-2.0-0.13-0.121-3.121,0,0,0,90,false,stim,false,0,157.9999999999418,2,0,0,31360,task2,464440,false,false,547,image-keyboard-response,28
true,4,0,1,0,true,q,false,true,0.0-2.0-0.13-0.122-3.122,0,0,0,81,false,stim,false,1,212.0,2,0,2,31360,task2,466158,false,false,550,image-keyboard-response,29
true,4,0,1,0,true,q,false,true,0.0-2.0-0.13-0.123-3.123,0,0,0,81,false,stim,false,1,201.0,2,0,2,31360,task2,467866,false,false,553,image-keyboard-response,30
true,4,0,1,0,true,q,false,true,0.0-2.0-0.13-0.124-3.124,0,0,0,81,false,stim,false,1,192.0,2,0,1,31360,task2,469563,false,false,556,image-keyboard-response,31
true,4,0,1,0,true,q,false,true,0.0-2.0-0.13-0.125-3.125,0,0,0,81,false,stim,false,1,274.9999999999418,2,0,2,31360,task2,471344,false,false,559,image-keyboard-response,32
true,4,0,1,0,true,q,false,true,0.0-2.0-0.14-0.126-3.126,0,0,0,81,false,stim,false,1,107.0,2,0,1,31360,task2,472957,false,false,562,image-keyboard-response,33
true,4,0,1,2,false,d,false,false,0.0-2.0-0.14-0.127-3.127,0,0,0,81,false,stim,true,0,128.0,2,0,0,31360,task2,474590,false,false,565,image-keyboard-response,34
true,4,0,1,0,true,q,false,true,0.0-2.0-0.14-0.128-3.128,0,0,0,81,false,stim,false,1,488.0,2,0,2,31360,task2,476585,false,false,568,image-keyboard-response,35
true,4,0,1,2,false,d,false,false,0.0-2.0-0.14-0.129-3.129,0,0,0,81,false,stim,true,0,159.0,2,0,0,31360,task2,478250,false,false,571,image-keyboard-response,36
true,5,0,1,2,false,d,false,false,0.0-2.0-0.14-0.130-3.130,0,0,0,81,true,stim,true,0,156.0,2,0,1,31360,task2,479910,false,false,574,image-keyboard-response,1
true,5,1,1,2,false,d,true,false,0.0-2.0-0.14-0.131-3.131,0,0,0,90,false,stim,false,0,189.0,2,0,1,31360,task2,481604,false,false,577,image-keyboard-response,2
true,5,2,1,1,false,z,true,false,0.0-2.0-0.14-0.132-3.132,0,0,0,68,false,stim,false,0,210.9999999999418,2,0,2,31360,task2,483320,false,false,580,image-keyboard-response,3
true,5,0,1,1,false,z,true,false,0.0-2.0-0.14-0.133-3.133,0,0,0,81,false,stim,false,2,391.0000000000582,2,0,0,31360,task2,485217,false,false,583,image-keyboard-response,4
true,5,1,1,1,true,z,false,true,0.0-2.0-0.14-0.134-3.134,0,0,0,90,false,stim,false,0,118.0,2,0,2,31360,task2,486840,false,false,586,image-keyboard-response,5
true,5,1,1,2,false,d,true,false,0.0-2.0-0.15-0.135-3.135,0,0,0,90,false,stim,false,0,355.0,2,0,1,31360,task2,488702,false,false,589,image-keyboard-response,6
true,5,2,1,1,false,z,false,false,0.0-2.0-0.15-0.136-3.136,0,0,0,68,false,stim,true,2,270.0,2,0,0,31360,task2,490476,false,false,592,image-keyboard-response,7
true,5,0,1,1,false,z,true,false,0.0-2.0-0.15-0.137-3.137,0,0,0,81,false,stim,false,2,245.0,2,0,0,31360,task2,492227,false,false,595,image-keyboard-response,8
true,5,1,1,1,true,z,false,true,0.0-2.0-0.15-0.138-3.138,0,0,0,90,false,stim,false,0,229.0000000000582,2,0,2,31360,task2,493961,false,false,598,image-keyboard-response,9
true,5,1,1,2,false,d,true,false,0.0-2.0-0.15-0.139-3.139,0,0,0,90,false,stim,false,0,140.0,2,0,1,31360,task2,495611,false,false,601,image-keyboard-response,10
true,5,1,1,1,true,z,false,true,0.0-2.0-0.15-0.140-3.140,0,0,0,90,false,stim,false,0,70.0,2,0,2,31360,task2,497186,false,false,604,image-keyboard-response,11
true,5,1,1,1,true,z,false,true,0.0-2.0-0.15-0.141-3.141,0,0,0,90,false,stim,false,2,293.0,2,0,0,31360,task2,498985,false,false,607,image-keyboard-response,12
true,5,1,1,1,true,z,false,true,0.0-2.0-0.15-0.142-3.142,0,0,0,90,false,stim,false,0,248.9999999999418,2,0,2,31360,task2,500741,false,false,610,image-keyboard-response,13
true,5,1,1,2,false,d,true,true,0.0-2.0-0.15-0.143-3.143,0,0,0,90,false,stim,false,0,259.9999999999418,2,0,1,31360,task2,502506,false,true,613,image-keyboard-response,14
true,5,1,1,2,false,d,true,false,0.0-2.0-0.16-0.144-3.144,0,0,0,90,false,stim,false,0,134.0,2,0,1,31360,task2,504146,false,false,616,image-keyboard-response,15
true,5,1,1,1,true,z,false,true,0.0-2.0-0.16-0.145-3.145,0,0,0,90,false,stim,false,0,53.0,2,0,2,31360,task2,505705,false,false,619,image-keyboard-response,16
true,5,1,1,2,false,d,true,false,0.0-2.0-0.16-0.146-3.146,0,0,0,90,false,stim,false,0,223.0,2,0,1,31360,task2,507435,false,false,622,image-keyboard-response,17
true,5,1,1,1,true,z,false,true,0.0-2.0-0.16-0.147-3.147,0,0,0,90,false,stim,false,0,303.0,2,0,2,31360,task2,509243,false,false,625,image-keyboard-response,18
true,5,1,1,1,true,z,false,true,0.0-2.0-0.16-0.148-3.148,0,0,0,90,false,stim,false,2,387.0000000000582,2,0,0,31360,task2,511136,false,false,628,image-keyboard-response,19
true,5,2,1,2,true,d,false,true,0.0-2.0-0.16-0.149-3.149,0,0,0,68,false,stim,false,0,367.0000000000582,2,0,1,31360,task2,513010,false,false,631,image-keyboard-response,20
true,5,1,1,1,true,z,false,true,0.0-2.0-0.16-0.150-3.150,0,0,0,90,false,stim,false,0,156.99999999988358,2,0,2,31360,task2,514672,false,false,634,image-keyboard-response,21
true,5,1,1,1,true,z,false,true,0.0-2.0-0.16-0.151-3.151,0,0,0,90,false,stim,false,2,304.9999999999418,2,0,0,31360,task2,516483,false,false,637,image-keyboard-response,22
true,5,1,1,1,true,z,false,true,0.0-2.0-0.16-0.152-3.152,0,0,0,90,false,stim,false,2,556.0000000000582,2,0,0,31360,task2,518545,false,false,640,image-keyboard-response,23
true,5,2,1,2,true,d,false,false,0.0-2.0-0.17-0.153-3.153,0,0,0,68,false,stim,false,0,451.9999999999418,2,0,1,31360,task2,520501,false,true,643,image-keyboard-response,24
true,5,1,1,1,true,z,false,true,0.0-2.0-0.17-0.154-3.154,0,0,0,90,false,stim,false,0,218.0,2,0,2,31360,task2,522224,false,false,646,image-keyboard-response,25
true,5,1,1,2,false,d,true,false,0.0-2.0-0.17-0.155-3.155,0,0,0,90,false,stim,false,0,187.0,2,0,1,31360,task2,523917,false,false,649,image-keyboard-response,26
true,5,0,1,1,false,z,false,false,0.0-2.0-0.17-0.156-3.156,0,0,0,81,false,stim,true,0,108.0,2,0,2,31360,task2,525531,false,false,652,image-keyboard-response,27
true,5,1,1,1,true,z,false,true,0.0-2.0-0.17-0.157-3.157,0,0,0,90,false,stim,false,2,68.0,2,0,0,31360,task2,527106,false,false,655,image-keyboard-response,28
true,5,1,1,1,true,z,false,true,0.0-2.0-0.17-0.158-3.158,0,0,0,90,false,stim,false,2,122.0,2,0,0,31360,task2,528735,false,false,658,image-keyboard-response,29
true,5,1,1,1,true,z,false,true,0.0-2.0-0.17-0.159-3.159,0,0,0,90,false,stim,false,2,163.0,2,0,0,31360,task2,530404,false,false,661,image-keyboard-response,30
true,5,1,1,1,true,z,false,true,0.0-2.0-0.17-0.160-3.160,0,0,0,90,false,stim,false,0,110.0,2,0,2,31360,task2,532020,false,false,664,image-keyboard-response,31
true,5,1,1,2,false,d,true,true,0.0-2.0-0.17-0.161-3.161,0,0,0,90,false,stim,false,0,205.0,2,0,1,31360,task2,533731,false,true,667,image-keyboard-response,32
true,5,1,1,2,false,d,true,false,0.0-2.0-0.18-0.162-3.162,0,0,0,90,false,stim,false,0,166.0,2,0,1,31360,task2,535402,false,false,670,image-keyboard-response,33
true,5,2,1,1,false,z,true,false,0.0-2.0-0.18-0.163-3.163,0,0,0,68,false,stim,false,0,165.0,2,0,2,31360,task2,537073,false,false,673,image-keyboard-response,34
true,6,1,1,0,false,q,true,false,0.0-2.0-0.18-0.164-3.164,0,0,0,90,true,stim,false,2,65.0,2,0,1,31360,task2,538644,false,false,676,image-keyboard-response,1
true,6,0,1,2,false,d,true,false,0.0-2.0-0.18-0.165-3.165,0,0,0,81,false,stim,false,1,353.0,2,0,0,31360,task2,540503,false,false,679,image-keyboard-response,2
true,6,1,1,0,false,q,true,false,0.0-2.0-0.18-0.166-3.166,0,0,0,90,false,stim,false,2,421.0,2,0,1,31360,task2,542428,false,false,682,image-keyboard-response,3
true,6,2,1,2,true,d,false,true,0.0-2.0-0.18-0.167-3.167,0,0,0,68,false,stim,false,1,205.0,2,0,0,31360,task2,544138,false,false,685,image-keyboard-response,4
true,6,2,1,2,true,d,false,true,0.0-2.0-0.18-0.168-3.168,0,0,0,68,false,stim,false,1,234.0,2,0,2,31360,task2,545878,false,false,688,image-keyboard-response,5
true,6,2,1,2,true,d,false,true,0.0-2.0-0.18-0.169-3.169,0,0,0,68,false,stim,false,1,275.0000000001164,2,0,0,31360,task2,547658,false,false,691,image-keyboard-response,6
true,6,2,1,2,true,d,false,true,0.0-2.0-0.18-0.170-3.170,0,0,0,68,false,stim,false,1,161.99999999988358,2,0,2,31360,task2,549325,false,false,694,image-keyboard-response,7
true,6,2,1,2,true,d,false,true,0.0-2.0-0.19-0.171-3.171,0,0,0,68,false,stim,false,1,139.0,2,0,2,31360,task2,550970,false,false,697,image-keyboard-response,8
true,6,2,1,0,false,q,false,false,0.0-2.0-0.19-0.172-3.172,0,0,0,68,false,stim,true,2,258.0,2,0,1,31360,task2,552734,false,false,700,image-keyboard-response,9
true,6,1,1,2,false,d,false,false,0.0-2.0-0.19-0.173-3.173,0,0,0,90,false,stim,true,1,177.0,2,0,0,31360,task2,554422,false,false,703,image-keyboard-response,10
true,6,2,1,2,true,d,false,false,0.0-2.0-0.19-0.174-3.174,0,0,0,68,false,stim,false,1,239.0,2,0,2,31360,task2,556166,false,true,706,image-keyboard-response,11
true,6,0,1,2,false,d,true,false,0.0-2.0-0.19-0.175-3.175,0,0,0,81,false,stim,false,1,308.0,2,0,0,31360,task2,557980,false,false,709,image-keyboard-response,12
true,6,1,1,2,false,d,false,false,0.0-2.0-0.19-0.176-3.176,0,0,0,90,false,stim,true,1,232.99999999988358,2,0,0,31360,task2,559718,false,false,712,image-keyboard-response,13
true,6,2,1,0,false,q,false,false,0.0-2.0-0.19-0.177-3.177,0,0,0,68,false,stim,true,2,210.0,2,0,1,31360,task2,561434,false,false,715,image-keyboard-response,14
true,6,1,1,2,false,d,false,false,0.0-2.0-0.19-0.178-3.178,0,0,0,90,false,stim,true,1,129.0,2,0,2,31360,task2,563068,false,false,718,image-keyboard-response,15
true,6,0,1,0,true,q,false,true,0.0-2.0-0.19-0.179-3.179,0,0,0,81,false,stim,false,2,90.0,2,0,1,31360,task2,564664,false,false,721,image-keyboard-response,16
true,6,0,1,0,true,q,false,true,0.0-2.0-0.20-0.180-3.180,0,0,0,81,false,stim,false,2,142.0,2,0,1,31360,task2,566311,false,false,724,image-keyboard-response,17
true,6,0,1,0,true,q,false,false,0.0-2.0-0.20-0.181-3.181,0,0,0,81,false,stim,false,2,177.99999999988358,2,0,1,31360,task2,567996,false,true,727,image-keyboard-response,18
true,6,1,1,2,false,d,false,false,0.0-2.0-0.20-0.182-3.182,0,0,0,90,false,stim,true,1,290.0,2,0,2,31360,task2,569793,false,false,730,image-keyboard-response,19
true,6,2,1,2,true,d,false,true,0.0-2.0-0.20-0.183-3.183,0,0,0,68,false,stim,false,1,12.0,2,0,0,31360,task2,571311,false,false,733,image-keyboard-response,20
true,6,2,1,0,false,q,false,false,0.0-2.0-0.20-0.184-3.184,0,0,0,68,false,stim,true,2,280.9999999998836,2,0,1,31360,task2,573098,false,false,736,image-keyboard-response,21
true,6,2,1,2,true,d,false,true,0.0-2.0-0.20-0.185-3.185,0,0,0,68,false,stim,false,1,706.0,2,0,2,31360,task2,575311,false,false,739,image-keyboard-response,22
true,6,1,1,2,false,d,false,false,0.0-2.0-0.20-0.186-3.186,0,0,0,90,false,stim,true,1,136.0,2,0,0,31360,task2,576952,false,false,742,image-keyboard-response,23
true,6,2,1,2,true,d,false,true,0.0-2.0-0.20-0.187-3.187,0,0,0,68,false,stim,false,1,311.0,2,0,0,31360,task2,578769,false,false,745,image-keyboard-response,24
true,6,2,1,2,true,d,false,false,0.0-2.0-0.20-0.188-3.188,0,0,0,68,false,stim,false,1,360.0,2,0,2,31360,task2,580636,false,true,748,image-keyboard-response,25
true,6,0,1,2,false,d,true,false,0.0-2.0-0.21-0.189-3.189,0,0,0,81,false,stim,false,1,111.0,2,0,2,31360,task2,582252,false,false,751,image-keyboard-response,26
true,6,1,1,0,false,q,true,true,0.0-2.0-0.21-0.190-3.190,0,0,0,90,false,stim,false,2,197.0,2,0,1,31360,task2,583955,false,true,754,image-keyboard-response,27
true,6,1,1,2,false,d,false,false,0.0-2.0-0.21-0.191-3.191,0,0,0,90,false,stim,true,1,333.0,2,0,0,31360,task2,585796,false,false,757,image-keyboard-response,28
true,6,2,1,2,true,d,false,true,0.0-2.0-0.21-0.192-3.192,0,0,0,68,false,stim,false,1,44.0,2,0,0,31360,task2,587345,false,false,760,image-keyboard-response,29
true,6,2,1,2,true,d,false,true,0.0-2.0-0.21-0.193-3.193,0,0,0,68,false,stim,false,1,303.0,2,0,0,31360,task2,589154,false,false,763,image-keyboard-response,30
true,6,2,1,0,false,q,false,false,0.0-2.0-0.21-0.194-3.194,0,0,0,68,false,stim,true,2,184.99999999988358,2,0,1,31360,task2,590844,false,false,766,image-keyboard-response,31
true,6,2,1,2,true,d,false,true,0.0-2.0-0.21-0.195-3.195,0,0,0,68,false,stim,false,1,92.0,2,0,2,31360,task2,592441,false,false,769,image-keyboard-response,32
true,6,2,1,0,false,q,false,false,0.0-2.0-0.21-0.196-3.196,0,0,0,68,false,stim,true,2,286.0,2,0,1,31360,task2,594232,false,false,772,image-keyboard-response,33
true,6,1,1,2,false,d,false,false,0.0-2.0-0.21-0.197-3.197,0,0,0,90,false,stim,true,1,64.99999999988358,2,1,2,31360,task2,595805,false,false,775,image-keyboard-response,34
true,6,0,1,2,false,d,true,true,0.0-2.0-0.22-0.198-3.198,0,0,0,81,false,stim,false,1,394.0,2,0,0,31360,task2,597705,false,true,778,image-keyboard-response,35
true,6,0,1,0,true,q,false,true,0.0-2.0-0.22-0.199-3.199,0,0,0,81,false,stim,false,2,253.99999999988358,2,0,1,31360,task2,599465,false,false,781,image-keyboard-response,36
true,6,0,1,2,false,d,true,false,0.0-2.0-0.22-0.200-3.200,0,0,0,81,false,stim,false,1,146.00000000011642,2,0,0,31360,task2,601115,false,false,784,image-keyboard-response,37
true,6,1,1,0,false,q,true,false,0.0-2.0-0.22-0.201-3.201,0,0,0,90,false,stim,false,2,151.0,2,0,1,31360,task2,602774,false,false,787,image-keyboard-response,38
true,7,0,2,2,false,d,true,true,0.0-2.0-0.22-0.202-3.202,0,0,1,81,true,stim,false,2,72.0,2,1,2,31360,task2,604352,false,true,790,image-keyboard-response,1
true,7,0,2,1,false,z,false,false,0.0-2.0-0.22-0.203-3.203,0,0,1,81,false,stim,true,0,284.0,2,0,1,31360,task2,606142,false,false,793,image-keyboard-response,2
true,7,0,2,2,false,d,true,false,0.0-2.0-0.22-0.204-3.204,0,0,1,81,false,stim,false,2,255.0,2,1,2,31360,task2,607904,false,false,796,image-keyboard-response,3
true,7,1,2,2,false,d,true,false,0.0-2.0-0.22-0.205-3.205,0,0,1,90,false,stim,false,2,166.0,2,1,2,31360,task2,609575,false,false,799,image-keyboard-response,4
true,7,2,2,1,false,z,false,false,0.0-2.0-0.22-0.206-3.206,0,0,1,68,false,stim,true,2,27.0,2,0,0,31360,task2,611116,false,false,802,image-keyboard-response,5
true,7,0,2,2,false,d,true,false,0.0-2.0-0.23-0.207-3.207,0,0,1,81,false,stim,false,2,99.0,2,1,2,31360,task2,612722,false,false,805,image-keyboard-response,6
true,7,2,2,1,false,z,false,false,0.0-2.0-0.23-0.208-3.208,0,0,1,68,false,stim,true,2,357.0,2,0,0,31360,task2,614585,false,false,808,image-keyboard-response,7
true,7,1,2,1,true,z,false,true,0.0-2.0-0.23-0.209-3.209,0,0,1,90,false,stim,false,0,165.99999999988358,2,0,1,31360,task2,616257,false,false,811,image-keyboard-response,8
true,7,1,2,1,true,z,false,false,0.0-2.0-0.23-0.210-3.210,0,0,1,90,false,stim,false,2,221.0,2,0,0,31360,task2,617984,false,true,814,image-keyboard-response,9
true,7,1,2,1,true,z,false,true,0.0-2.0-0.23-0.211-3.211,0,0,1,90,false,stim,false,0,562.0,2,0,1,31360,task2,620051,false,false,817,image-keyboard-response,10
true,7,2,2,1,false,z,false,false,0.0-2.0-0.23-0.212-3.212,0,0,1,68,false,stim,true,2,205.99999999988358,2,0,0,31360,task2,621764,false,false,820,image-keyboard-response,11
true,7,1,2,2,false,d,true,false,0.0-2.0-0.23-0.213-3.213,0,0,1,90,false,stim,false,2,567.0000000001164,2,1,2,31360,task2,623836,false,false,823,image-keyboard-response,12
true,7,0,2,2,false,d,true,false,0.0-2.0-0.23-0.214-3.214,0,0,1,81,false,stim,false,2,265.9999999998836,2,1,2,31360,task2,625607,false,false,826,image-keyboard-response,13
true,7,0,2,1,false,z,false,false,0.0-2.0-0.23-0.215-3.215,0,0,1,81,false,stim,true,0,152.0,2,0,1,31360,task2,627266,false,false,829,image-keyboard-response,14
true,7,0,2,1,false,z,true,false,0.0-2.0-0.24-0.216-3.216,0,0,1,81,false,stim,false,2,505.0,2,0,0,31360,task2,629277,false,false,832,image-keyboard-response,15
true,7,1,2,1,true,z,false,true,0.0-2.0-0.24-0.217-3.217,0,0,1,90,false,stim,false,2,612.9999999998836,2,0,0,31360,task2,631396,false,false,835,image-keyboard-response,16
true,7,1,2,2,false,d,true,false,0.0-2.0-0.24-0.218-3.218,0,0,1,90,false,stim,false,2,225.0,2,1,2,31360,task2,633127,false,false,838,image-keyboard-response,17
true,7,1,2,1,true,z,false,true,0.0-2.0-0.24-0.219-3.219,0,0,1,90,false,stim,false,0,218.0,2,0,1,31360,task2,634850,false,false,841,image-keyboard-response,18
true,7,1,2,2,false,d,true,false,0.0-2.0-0.24-0.220-3.220,0,0,1,90,false,stim,false,2,389.0,2,1,2,31360,task2,636745,false,false,844,image-keyboard-response,19
true,7,1,2,2,false,d,true,true,0.0-2.0-0.24-0.221-3.221,0,0,1,90,false,stim,false,2,347.0,2,1,2,31360,task2,638598,false,true,847,image-keyboard-response,20
true,7,1,2,1,true,z,false,true,0.0-2.0-0.24-0.222-3.222,0,0,1,90,false,stim,false,2,427.0,2,0,0,31360,task2,640530,false,false,850,image-keyboard-response,21
true,7,1,2,1,true,z,false,true,0.0-2.0-0.24-0.223-3.223,0,0,1,90,false,stim,false,0,95.0,2,0,1,31360,task2,642130,false,false,853,image-keyboard-response,22
true,7,1,2,1,true,z,false,true,0.0-2.0-0.24-0.224-3.224,0,0,1,90,false,stim,false,0,125.99999999988358,2,0,1,31360,task2,643760,false,false,856,image-keyboard-response,23
true,7,1,2,2,false,d,true,false,0.0-2.0-0.25-0.225-3.225,0,0,1,90,false,stim,false,2,387.0,2,1,2,31360,task2,645655,false,false,859,image-keyboard-response,24
true,7,1,2,1,true,z,false,true,0.0-2.0-0.25-0.226-3.226,0,0,1,90,false,stim,false,2,150.0,2,0,0,31360,task2,647311,false,false,862,image-keyboard-response,25
true,7,1,2,2,false,d,true,false,0.0-2.0-0.25-0.227-3.227,0,0,1,90,false,stim,false,2,139.0,2,1,2,31360,task2,648955,false,false,865,image-keyboard-response,26
true,7,1,2,1,true,z,false,true,0.0-2.0-0.25-0.228-3.228,0,0,1,90,false,stim,false,0,279.0,2,0,1,31360,task2,650738,false,false,868,image-keyboard-response,27
true,7,2,2,1,false,z,false,false,0.0-2.0-0.25-0.229-3.229,0,0,1,68,false,stim,true,2,160.0,2,1,0,31360,task2,652404,false,false,871,image-keyboard-response,28
true,7,1,2,1,true,z,false,true,0.0-2.0-0.25-0.230-3.230,0,0,1,90,false,stim,false,0,320.0,2,0,1,31360,task2,654230,false,false,874,image-keyboard-response,29
true,7,1,2,1,true,z,false,true,0.0-2.0-0.25-0.231-3.231,0,0,1,90,false,stim,false,0,103.99999999988358,2,0,1,31360,task2,655839,false,false,877,image-keyboard-response,30
true,7,1,2,1,true,z,false,true,0.0-2.0-0.25-0.232-3.232,0,0,1,90,false,stim,false,2,191.0,2,1,0,31360,task2,657539,false,false,880,image-keyboard-response,31
true,8,1,2,0,false,q,true,false,0.0-2.0-0.25-0.233-3.233,1,0,0,90,true,stim,false,2,185.0,2,0,2,31360,task2,659229,false,false,883,image-keyboard-response,1
true,8,2,2,2,true,d,false,true,0.0-2.0-0.26-0.234-3.234,1,0,0,68,false,stim,false,1,277.9999999998836,2,0,1,31360,task2,661013,false,false,886,image-keyboard-response,2
true,8,2,2,1,false,z,true,false,0.0-2.0-0.26-0.235-3.235,1,0,0,68,false,stim,false,1,298.0,2,1,0,31360,task2,662815,false,false,889,image-keyboard-response,3
true,8,0,2,0,true,q,false,true,0.0-2.0-0.26-0.236-3.236,1,0,0,81,false,stim,false,2,226.0,2,0,2,31360,task2,664547,false,false,892,image-keyboard-response,4
true,8,0,2,0,true,q,false,true,0.0-2.0-0.26-0.237-3.237,1,0,0,81,false,stim,false,2,330.0,2,0,2,31360,task2,666382,false,false,895,image-keyboard-response,5
true,8,0,2,2,false,d,true,false,0.0-2.0-0.26-0.238-3.238,1,0,0,81,false,stim,false,1,313.0,2,0,1,31360,task2,668200,false,false,898,image-keyboard-response,6
true,8,1,2,1,true,z,false,true,0.0-2.0-0.26-0.239-3.239,1,0,0,90,false,stim,false,1,579.9999999998836,2,1,0,31360,task2,670291,false,false,901,image-keyboard-response,7
true,8,0,2,0,true,q,false,true,0.0-2.0-0.26-0.240-3.240,1,0,0,81,false,stim,false,2,371.0000000001164,2,0,2,31360,task2,672168,false,false,904,image-keyboard-response,8
true,8,1,2,1,true,z,false,true,0.0-2.0-0.26-0.241-3.241,1,0,0,90,false,stim,false,1,520.0,2,1,0,31360,task2,674194,false,false,907,image-keyboard-response,9
true,8,2,2,2,true,d,false,true,0.0-2.0-0.26-0.242-3.242,1,0,0,68,false,stim,false,1,415.0,2,0,1,31360,task2,676114,false,false,910,image-keyboard-response,10
true,8,0,2,0,true,q,false,true,0.0-2.0-0.27-0.243-3.243,1,0,0,81,false,stim,false,2,397.0,2,0,2,31360,task2,678018,false,false,913,image-keyboard-response,11
true,8,1,2,1,true,z,false,true,0.0-2.0-0.27-0.244-3.244,1,0,0,90,false,stim,false,1,362.0,2,1,0,31360,task2,679885,false,false,916,image-keyboard-response,12
true,8,1,2,1,true,z,false,true,0.0-2.0-0.27-0.245-3.245,1,0,0,90,false,stim,false,1,657.0,2,1,0,31360,task2,682047,false,false,919,image-keyboard-response,13
true,8,2,2,2,true,d,false,true,0.0-2.0-0.27-0.246-3.246,1,0,0,68,false,stim,false,1,408.0000000001164,2,0,1,31360,task2,683961,false,false,922,image-keyboard-response,14
true,8,1,2,2,false,d,false,false,0.0-2.0-0.27-0.247-3.247,1,0,0,90,false,stim,true,1,587.0,2,0,1,31360,task2,686056,false,false,925,image-keyboard-response,15
true,8,0,2,0,true,q,false,true,0.0-2.0-0.27-0.248-3.248,1,0,0,81,false,stim,false,2,649.0,2,0,2,31360,task2,688211,false,false,928,image-keyboard-response,16
true,8,1,2,1,true,z,false,true,0.0-2.0-0.27-0.249-3.249,1,0,0,90,false,stim,false,1,519.9999999998836,2,1,0,31360,task2,690236,false,false,931,image-keyboard-response,17
true,8,0,2,0,true,q,false,true,0.0-2.0-0.27-0.250-3.250,1,0,0,81,false,stim,false,2,657.0,2,0,2,31360,task2,692399,false,false,934,image-keyboard-response,18
true,8,2,2,2,true,d,false,true,0.0-2.0-0.27-0.251-3.251,1,0,0,68,false,stim,false,1,474.0,2,0,1,31360,task2,694379,false,false,937,image-keyboard-response,19
true,8,1,2,1,true,z,false,true,0.0-2.0-0.28-0.252-3.252,1,0,0,90,false,stim,false,1,524.9999999998836,2,1,0,31360,task2,696409,false,false,940,image-keyboard-response,20
true,8,2,2,2,true,d,false,true,0.0-2.0-0.28-0.253-3.253,1,0,0,68,false,stim,false,1,596.0,2,0,1,31360,task2,698511,false,false,943,image-keyboard-response,21
true,8,2,2,2,true,d,false,true,0.0-2.0-0.28-0.254-3.254,1,0,0,68,false,stim,false,1,521.0000000001164,2,0,1,31360,task2,700538,false,false,946,image-keyboard-response,22
true,8,2,2,2,true,d,false,true,0.0-2.0-0.28-0.255-3.255,1,0,0,68,false,stim,false,1,559.0,2,0,1,31360,task2,702603,false,false,949,image-keyboard-response,23
true,8,0,2,0,true,q,false,true,0.0-2.0-0.28-0.256-3.256,1,0,0,81,false,stim,false,2,520.0,2,0,2,31360,task2,704628,false,false,952,image-keyboard-response,24
true,8,0,2,0,true,q,false,true,0.0-2.0-0.28-0.257-3.257,1,0,0,81,false,stim,false,2,403.0,2,0,2,31360,task2,706536,false,false,955,image-keyboard-response,25
true,8,1,2,1,true,z,false,true,0.0-2.0-0.28-0.258-3.258,1,0,0,90,false,stim,false,1,447.0,2,1,0,31360,task2,708488,false,false,958,image-keyboard-response,26
true,8,2,2,0,false,q,false,false,0.0-2.0-0.28-0.259-3.259,1,0,0,68,false,stim,true,2,492.0,2,0,2,31360,task2,710486,false,false,961,image-keyboard-response,27
true,8,1,2,1,true,z,false,true,0.0-2.0-0.28-0.260-3.260,1,0,0,90,false,stim,false,1,693.0,2,1,0,31360,task2,712684,false,false,964,image-keyboard-response,28
true,8,2,2,2,true,d,false,true,0.0-2.0-0.29-0.261-3.261,1,0,0,68,false,stim,false,1,631.0,2,0,1,31360,task2,714821,false,false,967,image-keyboard-response,29
true,8,1,2,1,true,z,false,false,0.0-2.0-0.29-0.262-3.262,1,0,0,90,false,stim,false,1,565.0,2,0,0,31360,task2,716892,false,true,970,image-keyboard-response,30
true,8,0,2,0,true,q,false,true,0.0-2.0-0.29-0.263-3.263,1,0,0,81,false,stim,false,2,556.0,2,1,2,31360,task2,718954,false,false,973,image-keyboard-response,31
true,8,1,2,1,true,z,false,true,0.0-2.0-0.29-0.264-3.264,1,0,0,90,false,stim,false,1,387.0,2,0,0,31360,task2,720847,false,false,976,image-keyboard-response,32
true,8,0,2,0,true,q,false,true,0.0-2.0-0.29-0.265-3.265,1,0,0,81,false,stim,false,2,660.9999999998836,2,1,2,31360,task2,723016,false,false,979,image-keyboard-response,33
true,8,1,2,1,true,z,false,true,0.0-2.0-0.29-0.266-3.266,1,0,0,90,false,stim,false,1,594.0,2,0,0,31360,task2,725116,false,false,982,image-keyboard-response,34
true,9,0,2,0,true,q,false,true,0.0-2.0-0.29-0.267-3.267,0,0,1,81,true,stim,false,0,619.0,2,1,2,31360,task2,727241,false,false,985,image-keyboard-response,1
true,9,2,2,1,false,z,false,false,0.0-2.0-0.29-0.268-3.268,0,0,1,68,false,stim,true,2,675.0,2,0,1,31360,task2,729421,false,false,988,image-keyboard-response,2
true,9,0,2,1,false,z,true,false,0.0-2.0-0.29-0.269-3.269,0,0,1,81,false,stim,false,2,861.0000000001164,2,0,1,31360,task2,731788,false,false,991,image-keyboard-response,3
true,9,1,2,0,false,q,false,false,0.0-2.0-0.30-0.270-3.270,0,0,1,90,false,stim,true,1,701.0,2,0,0,31360,task2,733996,false,false,994,image-keyboard-response,4
true,9,0,2,0,true,q,false,true,0.0-2.0-0.30-0.271-3.271,0,0,1,81,false,stim,false,0,372.0,2,1,2,31360,task2,735875,false,false,997,image-keyboard-response,5
true,9,0,2,0,true,q,false,true,0.0-2.0-0.30-0.272-3.272,0,0,1,81,false,stim,false,0,344.0,2,1,2,31360,task2,737725,false,false,1000,image-keyboard-response,6
true,9,0,2,1,false,z,true,false,0.0-2.0-0.30-0.273-3.273,0,0,1,81,false,stim,false,2,697.0,2,0,1,31360,task2,739934,false,false,1003,image-keyboard-response,7
true,9,0,2,0,true,q,false,true,0.0-2.0-0.30-0.274-3.274,0,0,1,81,false,stim,false,1,242.99999999988358,2,0,0,31360,task2,741685,false,false,1006,image-keyboard-response,8
true,9,0,2,0,true,q,false,true,0.0-2.0-0.30-0.275-3.275,0,0,1,81,false,stim,false,1,241.00000000011642,2,0,0,31360,task2,743432,false,false,1009,image-keyboard-response,9
true,9,0,2,1,false,z,true,false,0.0-2.0-0.30-0.276-3.276,0,0,1,81,false,stim,false,2,521.0,2,0,1,31360,task2,745459,false,false,1012,image-keyboard-response,10
true,9,0,2,1,false,z,true,false,0.0-2.0-0.30-0.277-3.277,0,0,1,81,false,stim,false,2,286.0,2,0,1,31360,task2,747250,false,false,1015,image-keyboard-response,11
true,9,0,2,0,true,q,false,true,0.0-2.0-0.30-0.278-3.278,0,0,1,81,false,stim,false,0,683.0,2,1,2,31360,task2,749437,false,false,1018,image-keyboard-response,12
true,9,1,2,0,false,q,false,false,0.0-2.0-0.31-0.279-3.279,0,0,1,90,false,stim,true,1,650.0,2,0,0,31360,task2,751596,false,false,1021,image-keyboard-response,13
true,9,2,2,0,false,q,true,true,0.0-2.0-0.31-0.280-3.280,0,0,1,68,false,stim,false,1,284.0,2,0,0,31360,task2,753387,false,true,1024,image-keyboard-response,14
true,9,2,2,0,false,q,true,false,0.0-2.0-0.31-0.281-3.281,0,0,1,68,false,stim,false,1,519.0,2,0,0,31360,task2,755411,false,false,1027,image-keyboard-response,15
true,9,0,2,0,true,q,false,true,0.0-2.0-0.31-0.282-3.282,0,0,1,81,false,stim,false,0,270.0000000001164,2,1,2,31360,task2,757187,false,false,1030,image-keyboard-response,16
true,9,0,2,0,true,q,false,true,0.0-2.0-0.31-0.283-3.283,0,0,1,81,false,stim,false,0,440.0,2,1,2,31360,task2,759133,false,false,1033,image-keyboard-response,17
true,9,0,2,1,false,z,true,false,0.0-2.0-0.31-0.284-3.284,0,0,1,81,false,stim,false,2,553.9999999998836,2,0,1,31360,task2,761193,false,false,1036,image-keyboard-response,18
true,9,0,2,1,false,z,true,false,0.0-2.0-0.31-0.285-3.285,0,0,1,81,false,stim,false,2,291.0000000001164,2,0,1,31360,task2,762989,false,false,1039,image-keyboard-response,19
true,9,2,2,0,false,q,true,false,0.0-2.0-0.31-0.286-3.286,0,0,1,68,false,stim,false,0,544.0,2,1,2,31360,task2,765039,false,false,1042,image-keyboard-response,20
true,9,1,2,1,true,z,false,true,0.0-2.0-0.31-0.287-3.287,0,0,1,90,false,stim,false,2,499.0,2,0,1,31360,task2,767047,false,false,1045,image-keyboard-response,21
true,9,1,2,1,true,z,false,true,0.0-2.0-0.32-0.288-3.288,0,0,1,90,false,stim,false,2,371.0,2,0,1,31360,task2,768926,false,false,1048,image-keyboard-response,22
true,9,1,2,0,false,q,false,false,0.0-2.0-0.32-0.289-3.289,0,0,1,90,false,stim,true,1,333.9999999998836,2,0,0,31360,task2,770766,false,false,1051,image-keyboard-response,23
true,9,1,2,0,false,q,true,false,0.0-2.0-0.32-0.290-3.290,0,0,1,90,false,stim,false,0,538.0,2,1,2,31360,task2,772809,false,false,1054,image-keyboard-response,24
true,9,0,2,0,true,q,false,true,0.0-2.0-0.32-0.291-3.291,0,0,1,81,false,stim,false,0,317.0,2,1,2,31360,task2,774632,false,false,1057,image-keyboard-response,25
true,9,0,2,0,true,q,false,true,0.0-2.0-0.32-0.292-3.292,0,0,1,81,false,stim,false,0,668.9999999998836,2,1,2,31360,task2,776808,false,false,1060,image-keyboard-response,26
true,9,0,2,0,true,q,false,true,0.0-2.0-0.32-0.293-3.293,0,0,1,81,false,stim,false,1,407.0,2,0,0,31360,task2,778721,false,false,1063,image-keyboard-response,27
true,9,0,2,1,false,z,true,false,0.0-2.0-0.32-0.294-3.294,0,0,1,81,false,stim,false,2,282.0,2,0,1,31360,task2,780510,false,false,1066,image-keyboard-response,28
true,9,1,2,0,false,q,false,false,0.0-2.0-0.32-0.295-3.295,0,0,1,90,false,stim,true,1,219.00000000011642,2,0,0,31360,task2,782235,false,false,1069,image-keyboard-response,29
true,9,1,2,1,true,z,false,false,0.0-2.0-0.32-0.296-3.296,0,0,1,90,false,stim,false,2,139.0,2,0,1,31360,task2,783880,false,true,1072,image-keyboard-response,30
true,9,0,2,1,false,z,true,false,0.0-2.0-0.33-0.297-3.297,0,0,1,81,false,stim,false,2,358.0,2,0,1,31360,task2,785746,false,false,1075,image-keyboard-response,31
true,9,2,2,0,false,q,true,false,0.0-2.0-0.33-0.298-3.298,0,0,1,68,false,stim,false,1,271.0,2,0,0,31360,task2,787522,false,false,1078,image-keyboard-response,32
true,9,0,2,0,true,q,false,true,0.0-2.0-0.33-0.299-3.299,0,0,1,81,false,stim,false,0,103.99999999988358,2,0,2,31360,task2,789132,false,false,1081,image-keyboard-response,33
true,9,0,2,0,true,q,false,false,0.0-2.0-0.33-0.300-3.300,0,0,1,81,false,stim,false,0,338.0,2,0,2,31360,task2,790976,false,true,1084,image-keyboard-response,34
true,10,0,1,2,false,d,false,false,0.0-2.0-0.33-0.301-3.301,0,0,0,81,true,stim,true,0,323.9999999998836,2,0,0,31360,task2,792803,false,false,1087,image-keyboard-response,1
true,10,0,1,0,true,q,false,true,0.0-2.0-0.33-0.302-3.302,0,0,0,81,false,stim,false,1,571.0,2,0,1,31360,task2,794880,false,false,1090,image-keyboard-response,2
true,10,0,1,0,true,q,false,true,0.0-2.0-0.33-0.303-3.303,0,0,0,81,false,stim,false,1,333.0,2,0,1,31360,task2,796720,false,false,1093,image-keyboard-response,3
true,10,0,1,1,false,z,false,true,0.0-2.0-0.33-0.304-3.304,0,0,0,81,false,stim,true,0,370.0,2,0,2,31360,task2,798599,false,true,1096,image-keyboard-response,4
true,10,1,1,2,false,d,true,false,0.0-2.0-0.33-0.305-3.305,0,0,0,90,false,stim,false,0,640.0,2,0,0,31360,task2,800746,false,false,1099,image-keyboard-response,5
true,10,0,1,0,true,q,false,true,0.0-2.0-0.34-0.306-3.306,0,0,0,81,false,stim,false,1,213.99999999988358,2,0,1,31360,task2,802473,false,false,1102,image-keyboard-response,6
true,10,0,1,2,false,d,false,false,0.0-2.0-0.34-0.307-3.307,0,0,0,81,false,stim,true,0,303.0,2,0,0,31360,task2,804282,false,false,1105,image-keyboard-response,7
true,10,0,1,2,false,d,false,false,0.0-2.0-0.34-0.308-3.308,0,0,0,81,false,stim,true,0,267.0,2,0,0,31360,task2,806055,false,false,1108,image-keyboard-response,8
true,10,0,1,1,false,z,false,false,0.0-2.0-0.34-0.309-3.309,0,0,0,81,false,stim,true,0,505.0,2,0,2,31360,task2,808067,false,false,1111,image-keyboard-response,9
true,10,0,1,0,true,q,false,false,0.0-2.0-0.34-0.310-3.310,0,0,0,81,false,stim,false,1,221.0,2,0,1,31360,task2,809795,false,true,1114,image-keyboard-response,10
true,10,1,1,0,false,q,false,false,0.0-2.0-0.34-0.311-3.311,0,0,0,90,false,stim,true,1,377.9999999998836,2,0,1,31360,task2,811680,false,false,1117,image-keyboard-response,11
true,10,2,1,1,false,z,true,false,0.0-2.0-0.34-0.312-3.312,0,0,0,68,false,stim,false,0,258.9999999998836,2,0,2,31360,task2,813446,false,false,1120,image-keyboard-response,12
true,10,0,1,2,false,d,false,false,0.0-2.0-0.34-0.313-3.313,0,0,0,81,false,stim,true,0,27.0,2,0,0,31360,task2,814981,false,false,1123,image-keyboard-response,13
true,10,2,1,1,false,z,true,false,0.0-2.0-0.34-0.314-3.314,0,0,0,68,false,stim,false,0,262.0,2,0,2,31360,task2,816749,false,false,1126,image-keyboard-response,14
true,10,1,1,2,false,d,true,false,0.0-2.0-0.35-0.315-3.315,0,0,0,90,false,stim,false,0,382.0,2,0,0,31360,task2,818638,false,false,1129,image-keyboard-response,15
true,10,0,1,0,true,q,false,true,0.0-2.0-0.35-0.316-3.316,0,0,0,81,false,stim,false,1,520.0,2,0,1,31360,task2,820664,false,false,1132,image-keyboard-response,16
true,10,0,1,1,false,z,false,false,0.0-2.0-0.35-0.317-3.317,0,0,0,81,false,stim,true,0,275.0,2,0,2,31360,task2,822444,false,false,1135,image-keyboard-response,17
true,10,0,1,2,false,d,false,false,0.0-2.0-0.35-0.318-3.318,0,0,0,81,false,stim,true,0,1139.0,2,0,0,31360,task2,825092,false,false,1138,image-keyboard-response,18
true,10,1,1,2,false,d,true,false,0.0-2.0-0.35-0.319-3.319,0,0,0,90,false,stim,false,0,241.0,2,0,0,31360,task2,826840,false,false,1141,image-keyboard-response,19
true,10,2,1,1,false,z,true,false,0.0-2.0-0.35-0.320-3.320,0,0,0,68,false,stim,false,0,262.0,2,0,2,31360,task2,828608,false,false,1144,image-keyboard-response,20
true,10,0,1,0,true,q,false,true,0.0-2.0-0.35-0.321-3.321,0,0,0,81,false,stim,false,1,25.0,2,0,1,31360,task2,830138,false,false,1147,image-keyboard-response,21
true,10,0,1,0,true,q,false,true,0.0-2.0-0.35-0.322-3.322,0,0,0,81,false,stim,false,1,422.0,2,0,1,31360,task2,832065,false,false,1150,image-keyboard-response,22
true,10,0,1,1,false,z,false,false,0.0-2.0-0.35-0.323-3.323,0,0,0,81,false,stim,true,0,276.0,2,0,2,31360,task2,833847,false,false,1153,image-keyboard-response,23
true,10,0,1,2,false,d,false,false,0.0-2.0-0.36-0.324-3.324,0,0,0,81,false,stim,true,0,482.0000000001164,2,0,0,31360,task2,835835,false,false,1156,image-keyboard-response,24
true,10,1,1,1,true,z,false,true,0.0-2.0-0.36-0.325-3.325,0,0,0,90,false,stim,false,0,490.0,2,0,2,31360,task2,837831,false,false,1159,image-keyboard-response,25
true,10,2,1,2,true,d,false,true,0.0-2.0-0.36-0.326-3.326,0,0,0,68,false,stim,false,0,657.0,2,0,0,31360,task2,839995,false,false,1162,image-keyboard-response,26
true,10,1,1,1,true,z,false,true,0.0-2.0-0.36-0.327-3.327,0,0,0,90,false,stim,false,0,619.0,2,0,2,31360,task2,842119,false,false,1165,image-keyboard-response,27
true,10,1,1,1,true,z,false,false,0.0-2.0-0.36-0.328-3.328,0,0,0,90,false,stim,false,0,553.0,2,0,2,31360,task2,844178,false,true,1168,image-keyboard-response,28
true,10,0,1,0,true,q,false,false,0.0-2.0-0.36-0.329-3.329,0,0,0,81,false,stim,false,1,591.0,2,0,1,31360,task2,846277,false,true,1171,image-keyboard-response,29
true,10,1,1,0,false,q,false,false,0.0-2.0-0.36-0.330-3.330,0,0,0,90,false,stim,true,1,603.0,2,0,1,31360,task2,848387,false,false,1174,image-keyboard-response,30
true,10,0,1,0,true,q,false,true,0.0-2.0-0.36-0.331-3.331,0,0,0,81,false,stim,false,1,442.0,2,0,1,31360,task2,850335,false,false,1177,image-keyboard-response,31
true,10,2,1,2,true,d,false,true,0.0-2.0-0.36-0.332-3.332,0,0,0,68,false,stim,false,0,624.0000000001164,2,0,0,31360,task2,852465,false,false,1180,image-keyboard-response,32
true,10,2,1,2,true,d,false,true,0.0-2.0-0.37-0.333-3.333,0,0,0,68,false,stim,false,0,595.0,2,0,0,31360,task2,854568,false,false,1183,image-keyboard-response,33
true,10,0,1,0,true,q,false,true,0.0-2.0-0.37-0.334-3.334,0,0,0,81,false,stim,false,1,528.0,2,0,1,31360,task2,856602,false,false,1186,image-keyboard-response,34
true,10,0,1,0,true,q,false,true,0.0-2.0-0.37-0.335-3.335,0,0,0,81,false,stim,false,1,518.0,2,0,1,31360,task2,858628,false,false,1189,image-keyboard-response,35
true,10,1,1,1,true,z,false,true,0.0-2.0-0.37-0.336-3.336,0,0,0,90,false,stim,false,0,521.0,2,0,2,31360,task2,860656,false,false,1192,image-keyboard-response,36
true,11,2,1,0,false,q,false,false,0.0-2.0-0.37-0.337-3.337,0,0,0,68,true,stim,true,2,520.0,2,0,0,31360,task2,862680,false,false,1195,image-keyboard-response,1
true,11,0,1,2,false,d,false,true,0.0-2.0-0.37-0.338-3.338,0,0,0,81,false,stim,true,0,718.0,2,0,1,31360,task2,864903,false,true,1198,image-keyboard-response,2
true,11,1,1,2,false,d,false,false,0.0-2.0-0.37-0.339-3.339,0,0,0,90,false,stim,true,1,736.0000000001164,2,0,2,31360,task2,867153,false,false,1201,image-keyboard-response,3
true,11,1,1,2,false,d,false,true,0.0-2.0-0.37-0.340-3.340,0,0,0,90,false,stim,true,1,544.0,2,0,2,31360,task2,869203,false,true,1204,image-keyboard-response,4
true,11,2,1,0,false,q,false,false,0.0-2.0-0.37-0.341-3.341,0,0,0,68,false,stim,true,2,673.0,2,0,0,31360,task2,871384,false,false,1207,image-keyboard-response,5
true,11,0,1,2,false,d,false,false,0.0-2.0-0.38-0.342-3.342,0,0,0,81,false,stim,true,0,593.0,2,0,1,31360,task2,873483,false,false,1210,image-keyboard-response,6
true,11,1,1,2,false,d,false,false,0.0-2.0-0.38-0.343-3.343,0,0,0,90,false,stim,true,1,576.0,2,0,2,31360,task2,875568,false,false,1213,image-keyboard-response,7
true,11,0,1,2,false,d,true,true,0.0-2.0-0.38-0.344-3.344,0,0,0,81,false,stim,false,1,638.0,2,0,2,31360,task2,877712,false,true,1216,image-keyboard-response,8
true,11,0,1,0,true,q,false,true,0.0-2.0-0.38-0.345-3.345,0,0,0,81,false,stim,false,2,573.0,2,0,0,31360,task2,879792,false,false,1219,image-keyboard-response,9
true,11,2,1,2,true,d,false,true,0.0-2.0-0.38-0.346-3.346,0,0,0,68,false,stim,false,1,1025.0,2,0,2,31360,task2,882323,false,false,1222,image-keyboard-response,10
true,11,0,1,0,true,q,false,true,0.0-2.0-0.38-0.347-3.347,0,0,0,81,false,stim,false,2,672.0,2,0,0,31360,task2,884501,false,false,1225,image-keyboard-response,11
true,11,1,1,2,false,d,true,false,0.0-2.0-0.38-0.348-3.348,0,0,0,90,false,stim,false,0,776.0,2,0,1,31360,task2,886783,false,false,1228,image-keyboard-response,12
true,11,0,1,0,true,q,false,true,0.0-2.0-0.38-0.349-3.349,0,0,0,81,false,stim,false,2,392.0000000001164,2,0,0,31360,task2,888682,false,false,1231,image-keyboard-response,13
true,11,2,1,2,true,d,false,true,0.0-2.0-0.38-0.350-3.350,0,0,0,68,false,stim,false,0,738.0,2,0,1,31360,task2,890926,false,false,1234,image-keyboard-response,14
true,11,2,1,2,true,d,false,true,0.0-2.0-0.39-0.351-3.351,0,0,0,68,false,stim,false,0,480.0000000001164,2,0,1,31360,task2,892913,false,false,1237,image-keyboard-response,15
true,11,2,1,2,true,d,false,true,0.0-2.0-0.39-0.352-3.352,0,0,0,68,false,stim,false,0,469.0000000001164,2,0,1,31360,task2,894888,false,false,1240,image-keyboard-response,16
true,11,0,1,0,true,q,false,false,0.0-2.0-0.39-0.353-3.353,0,0,0,81,false,stim,false,2,541.0,2,0,0,31360,task2,896935,false,true,1243,image-keyboard-response,17
true,11,2,1,2,true,d,false,true,0.0-2.0-0.39-0.354-3.354,0,0,0,68,false,stim,false,1,541.9999999998836,2,0,2,31360,task2,898984,false,false,1246,image-keyboard-response,18
true,11,0,1,0,true,q,false,true,0.0-2.0-0.39-0.355-3.355,0,0,0,81,false,stim,false,2,649.0,2,0,0,31360,task2,901140,false,false,1249,image-keyboard-response,19
true,11,2,1,2,true,d,false,true,0.0-2.0-0.39-0.356-3.356,0,0,0,68,false,stim,false,1,567.0,2,0,2,31360,task2,903212,false,false,1252,image-keyboard-response,20
true,11,2,1,2,true,d,false,true,0.0-2.0-0.39-0.357-3.357,0,0,0,68,false,stim,false,1,430.0,2,0,2,31360,task2,905148,false,false,1255,image-keyboard-response,21
true,11,2,1,2,true,d,false,true,0.0-2.0-0.39-0.358-3.358,0,0,0,68,false,stim,false,0,603.0,2,0,1,31360,task2,907258,false,false,1258,image-keyboard-response,22
true,11,0,1,0,true,q,false,true,0.0-2.0-0.39-0.359-3.359,0,0,0,81,false,stim,false,2,594.0000000001164,2,0,0,31360,task2,909359,false,false,1261,image-keyboard-response,23
true,11,2,1,0,false,q,false,false,0.0-2.0-0.40-0.360-3.360,0,0,0,68,false,stim,true,2,494.0,2,0,0,31360,task2,911360,false,false,1264,image-keyboard-response,24
true,11,0,1,0,true,q,false,true,0.0-2.0-0.40-0.361-3.361,0,0,0,81,false,stim,false,2,228.0,2,0,0,31360,task2,913095,false,false,1267,image-keyboard-response,25
true,11,2,1,2,true,d,false,true,0.0-2.0-0.40-0.362-3.362,0,0,0,68,false,stim,false,0,496.9999999998836,2,0,1,31360,task2,915096,false,false,1270,image-keyboard-response,26
true,11,2,1,2,true,d,false,true,0.0-2.0-0.40-0.363-3.363,0,0,0,68,false,stim,false,0,399.0,2,0,1,31360,task2,917002,false,false,1273,image-keyboard-response,27
true,11,2,1,2,true,d,false,true,0.0-2.0-0.40-0.364-3.364,0,0,0,68,false,stim,false,0,424.9999999998836,2,0,1,31360,task2,918934,false,false,1276,image-keyboard-response,28
true,11,0,1,2,false,d,true,false,0.0-2.0-0.40-0.365-3.365,0,0,0,81,false,stim,false,1,517.9999999998836,2,0,2,31360,task2,920960,false,false,1279,image-keyboard-response,29
true,11,2,1,0,false,q,false,false,0.0-2.0-0.40-0.366-3.366,0,0,0,68,false,stim,true,2,343.0,2,0,0,31360,task2,922807,false,false,1282,image-keyboard-response,30
true,11,2,1,2,true,d,false,true,0.0-2.0-0.40-0.367-3.367,0,0,0,68,false,stim,false,1,580.0,2,0,2,31360,task2,924894,false,false,1285,image-keyboard-response,31
true,11,2,1,2,true,d,false,true,0.0-2.0-0.40-0.368-3.368,0,0,0,68,false,stim,false,1,454.0000000001164,2,0,2,31360,task2,926854,false,false,1288,image-keyboard-response,32
true,11,2,1,2,true,d,false,true,0.0-2.0-0.41-0.369-3.369,0,0,0,68,false,stim,false,0,646.0,2,1,1,31360,task2,929006,false,false,1291,image-keyboard-response,33
true,11,0,1,0,true,q,false,true,0.0-2.0-0.41-0.370-3.370,0,0,0,81,false,stim,false,2,529.0,2,0,0,31360,task2,931041,false,false,1294,image-keyboard-response,34
true,11,0,1,2,false,d,false,false,0.0-2.0-0.41-0.371-3.371,0,0,0,81,false,stim,true,0,551.0,2,1,1,31360,task2,933098,false,false,1297,image-keyboard-response,35
true,12,2,2,2,true,d,false,true,0.0-2.0-0.41-0.372-3.372,0,1,0,68,true,stim,false,0,268.0,2,0,0,31360,task2,934872,false,false,1300,image-keyboard-response,1
true,12,2,2,1,false,z,false,false,0.0-2.0-0.41-0.373-3.373,0,1,0,68,false,stim,true,2,622.0000000001164,2,0,2,31360,task2,937009,false,false,1303,image-keyboard-response,2
true,12,2,2,1,false,z,false,false,0.0-2.0-0.41-0.374-3.374,0,1,0,68,false,stim,true,2,451.0000000001164,2,0,2,31360,task2,938966,false,false,1306,image-keyboard-response,3
true,12,0,2,2,false,d,true,false,0.0-2.0-0.41-0.375-3.375,0,1,0,81,false,stim,false,2,360.0,2,1,1,31360,task2,940832,false,false,1309,image-keyboard-response,4
true,12,0,2,2,false,d,false,false,0.0-2.0-0.41-0.376-3.376,0,1,0,81,false,stim,true,0,567.0,2,0,0,31360,task2,942907,false,false,1312,image-keyboard-response,5
true,12,2,2,1,false,z,false,true,0.0-2.0-0.41-0.377-3.377,0,1,0,68,false,stim,true,2,571.0000000001164,2,0,2,31360,task2,944984,false,true,1315,image-keyboard-response,6
true,12,1,2,2,false,d,true,false,0.0-2.0-0.42-0.378-3.378,0,1,0,90,false,stim,false,0,633.0000000001164,2,0,0,31360,task2,947124,false,false,1318,image-keyboard-response,7
true,12,2,2,2,true,d,false,true,0.0-2.0-0.42-0.379-3.379,0,1,0,68,false,stim,false,0,186.00000000011642,2,0,0,31360,task2,948817,false,false,1321,image-keyboard-response,8
true,12,2,2,2,true,d,false,true,0.0-2.0-0.42-0.380-3.380,0,1,0,68,false,stim,false,2,395.0,2,1,1,31360,task2,950718,false,false,1324,image-keyboard-response,9
true,12,2,2,1,false,z,false,false,0.0-2.0-0.42-0.381-3.381,0,1,0,68,false,stim,true,2,337.9999999998836,2,0,2,31360,task2,952562,false,false,1327,image-keyboard-response,10
true,12,2,2,2,true,d,false,true,0.0-2.0-0.42-0.382-3.382,0,1,0,68,false,stim,false,2,267.0,2,1,1,31360,task2,954335,false,false,1330,image-keyboard-response,11
true,12,2,2,1,false,z,false,false,0.0-2.0-0.42-0.383-3.383,0,1,0,68,false,stim,true,2,47.000000000116415,2,0,2,31360,task2,955888,false,false,1333,image-keyboard-response,12
true,12,2,2,2,true,d,false,true,0.0-2.0-0.42-0.384-3.384,0,1,0,68,false,stim,false,0,292.0000000001164,2,0,0,31360,task2,957686,false,false,1336,image-keyboard-response,13
true,12,2,2,1,false,z,false,false,0.0-2.0-0.42-0.385-3.385,0,1,0,68,false,stim,true,2,389.0,2,0,2,31360,task2,959582,false,false,1339,image-keyboard-response,14
true,12,1,2,2,false,d,true,false,0.0-2.0-0.42-0.386-3.386,0,1,0,90,false,stim,false,2,610.0,2,1,1,31360,task2,961698,false,false,1342,image-keyboard-response,15
true,12,0,2,1,false,z,true,false,0.0-2.0-0.43-0.387-3.387,0,1,0,81,false,stim,false,2,80.0,2,0,2,31360,task2,963289,false,false,1345,image-keyboard-response,16
true,12,2,2,2,true,d,false,true,0.0-2.0-0.43-0.388-3.388,0,1,0,68,false,stim,false,2,197.0,2,1,1,31360,task2,964991,false,false,1348,image-keyboard-response,17
true,12,2,2,1,false,z,false,true,0.0-2.0-0.43-0.389-3.389,0,1,0,68,false,stim,true,2,190.00000000011642,2,0,2,31360,task2,966686,false,true,1351,image-keyboard-response,18
true,12,2,2,2,true,d,false,true,0.0-2.0-0.43-0.390-3.390,0,1,0,68,false,stim,false,0,148.00000000011642,2,0,0,31360,task2,968340,false,false,1354,image-keyboard-response,19
true,12,2,2,2,true,d,false,true,0.0-2.0-0.43-0.391-3.391,0,1,0,68,false,stim,false,2,142.0,2,1,1,31360,task2,969988,false,false,1357,image-keyboard-response,20
true,12,2,2,2,true,d,false,true,0.0-2.0-0.43-0.392-3.392,0,1,0,68,false,stim,false,0,280.0,2,0,0,31360,task2,971775,false,false,1360,image-keyboard-response,21
true,12,2,2,1,false,z,false,false,0.0-2.0-0.43-0.393-3.393,0,1,0,68,false,stim,true,2,93.0,2,0,2,31360,task2,973372,false,false,1363,image-keyboard-response,22
true,12,2,2,2,true,d,false,true,0.0-2.0-0.43-0.394-3.394,0,1,0,68,false,stim,false,0,54.999999999883585,2,0,0,31360,task2,974933,false,false,1366,image-keyboard-response,23
true,12,2,2,2,true,d,false,false,0.0-2.0-0.43-0.395-3.395,0,1,0,68,false,stim,false,2,191.0,2,1,1,31360,task2,976630,false,true,1369,image-keyboard-response,24
true,12,2,2,1,false,z,false,false,0.0-2.0-0.44-0.396-3.396,0,1,0,68,false,stim,true,2,335.0,2,0,2,31360,task2,978475,false,false,1372,image-keyboard-response,25
true,12,1,2,2,false,d,true,false,0.0-2.0-0.44-0.397-3.397,0,1,0,90,false,stim,false,0,94.99999999988358,2,0,0,31360,task2,980075,false,false,1375,image-keyboard-response,26
true,12,2,2,2,true,d,false,true,0.0-2.0-0.44-0.398-3.398,0,1,0,68,false,stim,false,2,232.99999999988358,2,1,1,31360,task2,981813,false,false,1378,image-keyboard-response,27
true,12,2,2,1,false,z,false,false,0.0-2.0-0.44-0.399-3.399,0,1,0,68,false,stim,true,2,53.0,2,0,2,31360,task2,983372,false,false,1381,image-keyboard-response,28
true,12,2,2,2,true,d,false,true,0.0-2.0-0.44-0.400-3.400,0,1,0,68,false,stim,false,0,223.0,2,0,0,31360,task2,985102,false,false,1384,image-keyboard-response,29
true,12,2,2,2,true,d,false,false,0.0-2.0-0.44-0.401-3.401,0,1,0,68,false,stim,false,2,266.0,2,0,1,31360,task2,986874,false,true,1387,image-keyboard-response,30
true,12,0,2,1,false,z,true,false,0.0-2.0-0.44-0.402-3.402,0,1,0,81,false,stim,false,2,72.0,2,0,2,31360,task2,988452,false,false,1390,image-keyboard-response,31
true,12,2,2,2,true,d,false,true,0.0-2.0-0.44-0.403-3.403,0,1,0,68,false,stim,false,2,79.0,2,0,1,31360,task2,990038,false,false,1393,image-keyboard-response,32
true,12,2,2,2,true,d,false,true,0.0-2.0-0.44-0.404-3.404,0,1,0,68,false,stim,false,0,120.0,2,0,0,31360,task2,991664,false,false,1396,image-keyboard-response,33
true,12,2,2,2,true,d,false,true,0.0-2.0-0.45-0.405-3.405,0,1,0,68,false,stim,false,0,152.00000000011642,2,0,0,31360,task2,993325,false,false,1399,image-keyboard-response,34
true,13,2,1,0,false,q,false,true,0.0-2.0-0.45-0.406-3.406,0,0,0,68,true,stim,true,2,208.0,2,0,0,31360,task2,995046,false,true,1402,image-keyboard-response,1
true,13,2,1,0,false,q,false,false,0.0-2.0-0.45-0.407-3.407,0,0,0,68,false,stim,true,2,94.0,2,0,1,31360,task2,996646,false,false,1405,image-keyboard-response,2
true,13,2,1,2,true,d,false,true,0.0-2.0-0.45-0.408-3.408,0,0,0,68,false,stim,false,1,261.9999999998836,2,0,2,31360,task2,998414,false,false,1408,image-keyboard-response,3
true,13,2,1,0,false,q,false,false,0.0-2.0-0.45-0.409-3.409,0,0,0,68,false,stim,true,2,279.0,2,0,1,31360,task2,1000199,false,false,1411,image-keyboard-response,4
true,13,1,1,2,false,d,false,true,0.0-2.0-0.45-0.410-3.410,0,0,0,90,false,stim,true,1,89.0,2,0,2,31360,task2,1001796,false,true,1414,image-keyboard-response,5
true,13,1,1,0,false,q,true,false,0.0-2.0-0.45-0.411-3.411,0,0,0,90,false,stim,false,2,271.0,2,0,0,31360,task2,1003573,false,false,1417,image-keyboard-response,6
true,13,2,1,2,true,d,false,true,0.0-2.0-0.45-0.412-3.412,0,0,0,68,false,stim,false,1,175.0,2,0,2,31360,task2,1005254,false,false,1420,image-keyboard-response,7
true,13,2,1,0,false,q,false,false,0.0-2.0-0.45-0.413-3.413,0,0,0,68,false,stim,true,2,596.0,2,0,1,31360,task2,1007356,false,false,1423,image-keyboard-response,8
true,13,1,1,2,false,d,false,false,0.0-2.0-0.46-0.414-3.414,0,0,0,90,false,stim,true,1,79.0,2,0,2,31360,task2,1008942,false,false,1426,image-keyboard-response,9
true,13,0,1,0,true,q,false,true,0.0-2.0-0.46-0.415-3.415,0,0,0,81,false,stim,false,2,17.000000000116415,2,0,1,31360,task2,1010466,false,false,1429,image-keyboard-response,10
true,13,0,1,0,true,q,false,false,0.0-2.0-0.46-0.416-3.416,0,0,0,81,false,stim,false,2,85.99999999988358,2,0,1,31360,task2,1012060,false,true,1432,image-keyboard-response,11
true,13,1,1,0,false,q,true,false,0.0-2.0-0.46-0.417-3.417,0,0,0,90,false,stim,false,2,55.0,2,0,0,31360,task2,1013622,false,false,1435,image-keyboard-response,12
true,13,2,1,0,false,q,false,false,0.0-2.0-0.46-0.418-3.418,0,0,0,68,false,stim,true,2,644.9999999998836,2,0,0,31360,task2,1015773,false,false,1438,image-keyboard-response,13
true,13,0,1,0,true,q,false,true,0.0-2.0-0.46-0.419-3.419,0,0,0,81,false,stim,false,2,229.00000000011642,2,0,1,31360,task2,1017508,false,false,1441,image-keyboard-response,14
true,13,0,1,2,false,d,true,true,0.0-2.0-0.46-0.420-3.420,0,0,0,81,false,stim,false,1,273.0000000001164,2,0,2,31360,task2,1019287,false,true,1444,image-keyboard-response,15
true,13,0,1,0,true,q,false,true,0.0-2.0-0.46-0.421-3.421,0,0,0,81,false,stim,false,2,206.0,2,0,0,31360,task2,1020999,false,false,1447,image-keyboard-response,16
true,13,0,1,2,false,d,true,false,0.0-2.0-0.46-0.422-3.422,0,0,0,81,false,stim,false,1,118.0,2,0,2,31360,task2,1022625,false,false,1450,image-keyboard-response,17
true,13,0,1,0,true,q,false,true,0.0-2.0-0.47-0.423-3.423,0,0,0,81,false,stim,false,2,231.0,2,0,0,31360,task2,1024363,false,false,1453,image-keyboard-response,18
true,13,0,1,0,true,q,false,true,0.0-2.0-0.47-0.424-3.424,0,0,0,81,false,stim,false,2,283.0000000001164,2,0,1,31360,task2,1026153,false,false,1456,image-keyboard-response,19
true,13,0,1,2,false,d,true,false,0.0-2.0-0.47-0.425-3.425,0,0,0,81,false,stim,false,1,368.9999999998836,2,0,2,31360,task2,1028030,false,false,1459,image-keyboard-response,20
true,13,0,1,0,true,q,false,true,0.0-2.0-0.47-0.426-3.426,0,0,0,81,false,stim,false,2,221.99999999988358,2,0,1,31360,task2,1029759,false,false,1462,image-keyboard-response,21
true,13,0,1,2,false,d,true,false,0.0-2.0-0.47-0.427-3.427,0,0,0,81,false,stim,false,1,443.0,2,0,2,31360,task2,1031709,false,false,1465,image-keyboard-response,22
true,13,0,1,0,true,q,false,true,0.0-2.0-0.47-0.428-3.428,0,0,0,81,false,stim,false,2,247.0,2,0,1,31360,task2,1033462,false,false,1468,image-keyboard-response,23
true,13,0,1,2,false,d,true,false,0.0-2.0-0.47-0.429-3.429,0,0,0,81,false,stim,false,1,365.0,2,0,2,31360,task2,1035333,false,false,1471,image-keyboard-response,24
true,13,0,1,0,true,q,false,true,0.0-2.0-0.47-0.430-3.430,0,0,0,81,false,stim,false,2,325.0,2,0,0,31360,task2,1037165,false,false,1474,image-keyboard-response,25
true,13,0,1,0,true,q,false,false,0.0-2.0-0.47-0.431-3.431,0,0,0,81,false,stim,false,2,137.0,2,0,0,31360,task2,1038806,false,true,1477,image-keyboard-response,26
true,13,0,1,0,true,q,false,true,0.0-2.0-0.48-0.432-3.432,0,0,0,81,false,stim,false,2,69.0,2,0,1,31360,task2,1040383,false,false,1480,image-keyboard-response,27
true,13,0,1,2,false,d,true,false,0.0-2.0-0.48-0.433-3.433,0,0,0,81,false,stim,false,1,222.00000000023283,2,0,2,31360,task2,1042111,false,false,1483,image-keyboard-response,28
true,13,0,1,0,true,q,false,false,0.0-2.0-0.48-0.434-3.434,0,0,0,81,false,stim,false,2,120.00000000011642,2,0,0,31360,task2,1043737,false,true,1486,image-keyboard-response,29
true,13,1,1,0,false,q,true,false,0.0-2.0-0.48-0.435-3.435,0,0,0,90,false,stim,false,2,183.0,2,0,0,31360,task2,1045426,false,false,1489,image-keyboard-response,30
true,13,2,1,0,false,q,false,false,0.0-2.0-0.48-0.436-3.436,0,0,0,68,false,stim,true,2,193.0,2,0,0,31360,task2,1047125,false,false,1492,image-keyboard-response,31
true,13,0,1,2,false,d,true,false,0.0-2.0-0.48-0.437-3.437,0,0,0,81,false,stim,false,1,410.0,2,0,2,31360,task2,1049043,false,false,1495,image-keyboard-response,32
true,13,0,1,2,false,d,true,false,0.0-2.0-0.48-0.438-3.438,0,0,0,81,false,stim,false,1,461.0,2,0,2,31360,task2,1051009,false,false,1498,image-keyboard-response,33
true,13,1,1,0,false,q,true,false,0.0-2.0-0.48-0.439-3.439,0,0,0,90,false,stim,false,2,113.0,2,0,1,31360,task2,1052636,false,false,1501,image-keyboard-response,34
true,13,2,1,0,false,q,false,false,0.0-2.0-0.48-0.440-3.440,0,0,0,68,false,stim,true,2,140.00000000023283,2,0,1,31360,task2,1054285,false,false,1504,image-keyboard-response,35
true,13,0,1,0,true,q,false,true,0.0-2.0-0.49-0.441-3.441,0,0,0,81,false,stim,false,2,1.0,2,0,1,31360,task2,1055792,false,false,1507,image-keyboard-response,36
true,13,0,1,2,false,d,true,false,0.0-2.0-0.49-0.442-3.442,0,0,0,81,false,stim,false,1,120.0,2,0,2,31360,task2,1057417,false,false,1510,image-keyboard-response,37
true,14,0,2,1,false,z,true,false,0.0-2.0-0.49-0.443-3.443,1,0,0,81,true,stim,false,2,470.0,2,0,2,31360,task2,1059393,false,false,1513,image-keyboard-response,1
true,14,1,2,2,false,d,true,false,0.0-2.0-0.49-0.444-3.444,1,0,0,90,false,stim,false,0,322.0,2,0,1,31360,task2,1061220,false,false,1516,image-keyboard-response,2
true,14,0,2,2,false,d,false,false,0.0-2.0-0.49-0.445-3.445,1,0,0,81,false,stim,true,0,311.0,2,0,1,31360,task2,1063037,false,false,1519,image-keyboard-response,3
true,14,1,2,0,false,q,true,false,0.0-2.0-0.49-0.446-3.446,1,0,0,90,false,stim,false,0,104.00000000023283,2,1,0,31360,task2,1064650,false,false,1522,image-keyboard-response,4
true,14,2,2,0,false,q,true,false,0.0-2.0-0.49-0.447-3.447,1,0,0,68,false,stim,false,0,501.0,2,1,0,31360,task2,1066654,false,false,1525,image-keyboard-response,5
true,14,2,2,1,false,z,false,false,0.0-2.0-0.49-0.448-3.448,1,0,0,68,false,stim,true,2,282.0,2,0,2,31360,task2,1068442,false,false,1528,image-keyboard-response,6
true,14,1,2,0,false,q,true,false,0.0-2.0-0.49-0.449-3.449,1,0,0,90,false,stim,false,0,142.99999999976717,2,1,0,31360,task2,1070092,false,false,1531,image-keyboard-response,7
true,14,0,2,0,true,q,false,true,0.0-2.0-0.50-0.450-3.450,1,0,0,81,false,stim,false,0,246.0,2,1,0,31360,task2,1071845,false,false,1534,image-keyboard-response,8
true,14,0,2,1,false,z,true,false,0.0-2.0-0.50-0.451-3.451,1,0,0,81,false,stim,false,2,240.99999999976717,2,0,2,31360,task2,1073593,false,false,1537,image-keyboard-response,9
true,14,1,2,0,false,q,true,false,0.0-2.0-0.50-0.452-3.452,1,0,0,90,false,stim,false,0,345.0,2,1,0,31360,task2,1075444,false,false,1540,image-keyboard-response,10
true,14,1,2,1,true,z,false,true,0.0-2.0-0.50-0.453-3.453,1,0,0,90,false,stim,false,2,534.0,2,0,2,31360,task2,1077486,false,false,1543,image-keyboard-response,11
true,14,1,2,2,false,d,true,true,0.0-2.0-0.50-0.454-3.454,1,0,0,90,false,stim,false,0,607.0,2,0,1,31360,task2,1079600,false,true,1546,image-keyboard-response,12
true,14,0,2,0,true,q,false,true,0.0-2.0-0.50-0.455-3.455,1,0,0,81,false,stim,false,0,439.0,2,1,0,31360,task2,1081545,false,false,1549,image-keyboard-response,13
true,14,1,2,2,false,d,true,false,0.0-2.0-0.50-0.456-3.456,1,0,0,90,false,stim,false,0,454.0,2,0,1,31360,task2,1083506,false,false,1552,image-keyboard-response,14
true,14,1,2,2,false,d,true,true,0.0-2.0-0.50-0.457-3.457,1,0,0,90,false,stim,false,0,341.99999999976717,2,0,1,31360,task2,1085357,false,true,1555,image-keyboard-response,15
true,14,1,2,1,true,z,false,true,0.0-2.0-0.50-0.458-3.458,1,0,0,90,false,stim,false,2,351.0,2,0,2,31360,task2,1087214,false,false,1558,image-keyboard-response,16
true,14,0,2,0,true,q,false,true,0.0-2.0-0.51-0.459-3.459,1,0,0,81,false,stim,false,0,412.0,2,1,0,31360,task2,1089133,false,false,1561,image-keyboard-response,17
true,14,1,2,1,true,z,false,false,0.0-2.0-0.51-0.460-3.460,1,0,0,90,false,stim,false,2,460.99999999976717,2,0,2,31360,task2,1091101,false,true,1564,image-keyboard-response,18
true,14,1,2,2,false,d,true,false,0.0-2.0-0.51-0.461-3.461,1,0,0,90,false,stim,false,0,318.0,2,0,1,31360,task2,1092927,false,false,1567,image-keyboard-response,19
true,14,1,2,0,false,q,true,false,0.0-2.0-0.51-0.462-3.462,1,0,0,90,false,stim,false,0,205.0,2,1,0,31360,task2,1094638,false,false,1570,image-keyboard-response,20
true,14,0,2,2,false,d,false,false,0.0-2.0-0.51-0.463-3.463,1,0,0,81,false,stim,true,0,191.0,2,0,1,31360,task2,1096333,false,false,1573,image-keyboard-response,21
true,14,1,2,1,true,z,false,true,0.0-2.0-0.51-0.464-3.464,1,0,0,90,false,stim,false,2,207.99999999976717,2,0,2,31360,task2,1098050,false,false,1576,image-keyboard-response,22
true,14,1,2,2,false,d,true,false,0.0-2.0-0.51-0.465-3.465,1,0,0,90,false,stim,false,0,460.0,2,0,1,31360,task2,1100017,false,false,1579,image-keyboard-response,23
true,14,1,2,1,true,z,false,false,0.0-2.0-0.51-0.466-3.466,1,0,0,90,false,stim,false,2,422.0,2,0,2,31360,task2,1101945,false,true,1582,image-keyboard-response,24
true,14,1,2,0,false,q,true,false,0.0-2.0-0.51-0.467-3.467,1,0,0,90,false,stim,false,0,280.0,2,1,0,31360,task2,1103731,false,false,1585,image-keyboard-response,25
true,14,0,2,2,false,d,false,false,0.0-2.0-0.52-0.468-3.468,1,0,0,81,false,stim,true,0,265.0,2,0,1,31360,task2,1105504,false,false,1588,image-keyboard-response,26
true,14,1,2,2,false,d,true,false,0.0-2.0-0.52-0.469-3.469,1,0,0,90,false,stim,false,0,170.0,2,0,1,31360,task2,1107180,false,false,1591,image-keyboard-response,27
true,14,0,2,1,false,z,true,true,0.0-2.0-0.52-0.470-3.470,1,0,0,81,false,stim,false,2,386.0,2,0,2,31360,task2,1109072,false,true,1594,image-keyboard-response,28
true,14,0,2,1,false,z,true,false,0.0-2.0-0.52-0.471-3.471,1,0,0,81,false,stim,false,2,284.0,2,0,2,31360,task2,1110862,false,false,1597,image-keyboard-response,29
true,14,0,2,2,false,d,false,false,0.0-2.0-0.52-0.472-3.472,1,0,0,81,false,stim,true,0,424.00000000023283,2,0,1,31360,task2,1112794,false,false,1600,image-keyboard-response,30
true,14,1,2,0,false,q,true,false,0.0-2.0-0.52-0.473-3.473,1,0,0,90,false,stim,false,0,139.0,2,0,0,31360,task2,1114447,false,false,1603,image-keyboard-response,31
true,14,1,2,0,false,q,true,false,0.0-2.0-0.52-0.474-3.474,1,0,0,90,false,stim,false,0,180.0,2,0,0,31360,task2,1116134,false,false,1606,image-keyboard-response,32
true,14,0,2,0,true,q,false,true,0.0-2.0-0.52-0.475-3.475,1,0,0,81,false,stim,false,0,359.0,2,0,0,31360,task2,1118000,false,false,1609,image-keyboard-response,33
true,14,0,2,1,false,z,true,false,0.0-2.0-0.52-0.476-3.476,1,0,0,81,false,stim,false,2,256.0,2,0,2,31360,task2,1119763,false,false,1612,image-keyboard-response,34
true,14,2,2,1,false,z,false,false,0.0-2.0-0.53-0.477-3.477,1,0,0,68,false,stim,true,2,151.0,2,0,2,31360,task2,1121421,false,false,1615,image-keyboard-response,35
true,15,1,2,2,false,d,true,false,0.0-2.0-0.53-0.478-3.478,0,1,0,90,true,stim,false,2,285.0,2,1,1,31360,task2,1123215,false,false,1618,image-keyboard-response,1
true,15,0,2,0,true,q,false,false,0.0-2.0-0.53-0.479-3.479,0,1,0,81,false,stim,false,1,230.0,2,0,2,31360,task2,1124951,false,true,1621,image-keyboard-response,2
true,15,1,2,2,false,d,true,false,0.0-2.0-0.53-0.480-3.480,0,1,0,90,false,stim,false,2,468.0,2,1,1,31360,task2,1126926,false,false,1624,image-keyboard-response,3
true,15,0,2,2,false,d,false,false,0.0-2.0-0.53-0.481-3.481,0,1,0,81,false,stim,true,0,348.0,2,0,0,31360,task2,1128780,false,false,1627,image-keyboard-response,4
true,15,0,2,2,false,d,false,false,0.0-2.0-0.53-0.482-3.482,0,1,0,81,false,stim,true,0,271.0,2,0,0,31360,task2,1130558,false,false,1630,image-keyboard-response,5
true,15,0,2,2,false,d,true,true,0.0-2.0-0.53-0.483-3.483,0,1,0,81,false,stim,false,2,398.0,2,1,1,31360,task2,1132463,false,true,1633,image-keyboard-response,6
true,15,0,2,0,true,q,false,true,0.0-2.0-0.53-0.484-3.484,0,1,0,81,false,stim,false,1,105.0,2,0,2,31360,task2,1134076,false,false,1636,image-keyboard-response,7
true,15,0,2,2,false,d,false,false,0.0-2.0-0.53-0.485-3.485,0,1,0,81,false,stim,true,0,188.0,2,0,0,31360,task2,1135769,false,false,1639,image-keyboard-response,8
true,15,1,2,0,false,q,false,false,0.0-2.0-0.54-0.486-3.486,0,1,0,90,false,stim,true,1,128.0,2,0,2,31360,task2,1137404,false,false,1642,image-keyboard-response,9
true,15,0,2,0,true,q,false,true,0.0-2.0-0.54-0.487-3.487,0,1,0,81,false,stim,false,1,145.0,2,0,2,31360,task2,1139056,false,false,1645,image-keyboard-response,10
true,15,0,2,2,false,d,false,false,0.0-2.0-0.54-0.488-3.488,0,1,0,81,false,stim,true,0,176.99999999976717,2,0,0,31360,task2,1140740,false,false,1648,image-keyboard-response,11
true,15,1,2,2,false,d,true,false,0.0-2.0-0.54-0.489-3.489,0,1,0,90,false,stim,false,2,260.0,2,1,1,31360,task2,1142507,false,false,1651,image-keyboard-response,12
true,15,2,2,0,false,q,true,false,0.0-2.0-0.54-0.490-3.490,0,1,0,68,false,stim,false,1,134.0,2,0,2,31360,task2,1144148,false,false,1654,image-keyboard-response,13
true,15,0,2,2,false,d,false,true,0.0-2.0-0.54-0.491-3.491,0,1,0,81,false,stim,true,0,515.0,2,0,0,31360,task2,1146172,false,true,1657,image-keyboard-response,14
true,15,0,2,2,false,d,false,false,0.0-2.0-0.54-0.492-3.492,0,1,0,81,false,stim,true,0,159.0,2,0,0,31360,task2,1147837,false,false,1660,image-keyboard-response,15
true,15,1,2,2,false,d,true,false,0.0-2.0-0.54-0.493-3.493,0,1,0,90,false,stim,false,2,239.0,2,1,1,31360,task2,1149583,false,false,1663,image-keyboard-response,16
true,15,2,2,2,true,d,false,true,0.0-2.0-0.54-0.494-3.494,0,1,0,68,false,stim,false,2,494.0,2,1,1,31360,task2,1151584,false,false,1666,image-keyboard-response,17
true,15,0,2,2,false,d,false,false,0.0-2.0-0.55-0.495-3.495,0,1,0,81,false,stim,true,0,577.0,2,0,0,31360,task2,1153667,false,false,1669,image-keyboard-response,18
true,15,2,2,2,true,d,false,true,0.0-2.0-0.55-0.496-3.496,0,1,0,68,false,stim,false,0,666.0,2,0,0,31360,task2,1155841,false,false,1672,image-keyboard-response,19
true,15,2,2,0,false,q,true,true,0.0-2.0-0.55-0.497-3.497,0,1,0,68,false,stim,false,1,607.0,2,0,2,31360,task2,1157955,false,true,1675,image-keyboard-response,20
true,15,2,2,2,true,d,false,true,0.0-2.0-0.55-0.498-3.498,0,1,0,68,false,stim,false,0,251.0,2,0,0,31360,task2,1159714,false,false,1678,image-keyboard-response,21
true,15,2,2,2,true,d,false,true,0.0-2.0-0.55-0.499-3.499,0,1,0,68,false,stim,false,2,311.0,2,1,1,31360,task2,1161532,false,false,1681,image-keyboard-response,22
true,15,2,2,0,false,q,true,true,0.0-2.0-0.55-0.500-3.500,0,1,0,68,false,stim,false,1,443.0,2,0,2,31360,task2,1163482,false,true,1684,image-keyboard-response,23
true,15,2,2,2,true,d,false,true,0.0-2.0-0.55-0.501-3.501,0,1,0,68,false,stim,false,2,322.0,2,1,1,31360,task2,1165310,false,false,1687,image-keyboard-response,24
true,15,2,2,0,false,q,true,false,0.0-2.0-0.55-0.502-3.502,0,1,0,68,false,stim,false,1,212.0,2,0,2,31360,task2,1167029,false,false,1690,image-keyboard-response,25
true,15,2,2,2,true,d,false,true,0.0-2.0-0.55-0.503-3.503,0,1,0,68,false,stim,false,2,520.0,2,1,1,31360,task2,1169056,false,false,1693,image-keyboard-response,26
true,15,2,2,2,true,d,false,true,0.0-2.0-0.56-0.504-3.504,0,1,0,68,false,stim,false,0,491.0,2,0,0,31360,task2,1171055,false,false,1696,image-keyboard-response,27
true,15,2,2,0,false,q,true,true,0.0-2.0-0.56-0.505-3.505,0,1,0,68,false,stim,false,1,72.0,2,0,2,31360,task2,1172636,false,true,1699,image-keyboard-response,28
true,15,2,2,2,true,d,false,true,0.0-2.0-0.56-0.506-3.506,0,1,0,68,false,stim,false,0,307.0,2,0,0,31360,task2,1174458,false,false,1702,image-keyboard-response,29
true,15,2,2,0,false,q,true,false,0.0-2.0-0.56-0.507-3.507,0,1,0,68,false,stim,false,1,548.0,2,1,2,31360,task2,1176511,false,false,1705,image-keyboard-response,30
true,15,2,2,2,true,d,false,true,0.0-2.0-0.56-0.508-3.508,0,1,0,68,false,stim,false,0,182.0,2,0,0,31360,task2,1178199,false,false,1708,image-keyboard-response,31
true,15,2,2,0,false,q,true,false,0.0-2.0-0.56-0.509-3.509,0,1,0,68,false,stim,false,1,234.0,2,1,2,31360,task2,1179940,false,false,1711,image-keyboard-response,32
true,15,2,2,2,true,d,false,true,0.0-2.0-0.56-0.510-3.510,0,1,0,68,false,stim,false,2,246.0,2,0,1,31360,task2,1181693,false,false,1714,image-keyboard-response,33
true,16,2,2,0,false,q,false,false,0.0-2.0-0.56-0.511-3.511,0,0,1,68,true,stim,true,2,416.0,2,0,1,31360,task2,1183616,false,false,1717,image-keyboard-response,1
true,16,1,2,0,false,q,true,false,0.0-2.0-0.56-0.512-3.512,0,0,1,90,false,stim,false,2,344.0,2,0,1,31360,task2,1185470,false,false,1720,image-keyboard-response,2
true,16,2,2,0,false,q,true,false,0.0-2.0-0.57-0.513-3.513,0,0,1,68,false,stim,false,0,48.0,2,1,2,31360,task2,1187024,false,false,1723,image-keyboard-response,3
true,16,1,2,0,false,q,true,false,0.0-2.0-0.57-0.514-3.514,0,0,1,90,false,stim,false,2,47.0,2,0,1,31360,task2,1188578,false,false,1726,image-keyboard-response,4
true,16,2,2,1,false,z,false,true,0.0-2.0-0.57-0.515-3.515,0,0,1,68,false,stim,true,2,207.0,2,0,0,31360,task2,1190292,false,true,1729,image-keyboard-response,5
true,16,2,2,1,false,z,false,false,0.0-2.0-0.57-0.516-3.516,0,0,1,68,false,stim,true,2,174.0,2,0,0,31360,task2,1191973,false,false,1732,image-keyboard-response,6
true,16,2,2,0,false,q,false,false,0.0-2.0-0.57-0.517-3.517,0,0,1,68,false,stim,true,2,23.0,2,0,1,31360,task2,1193502,false,false,1735,image-keyboard-response,7
true,16,0,2,0,true,q,false,true,0.0-2.0-0.57-0.518-3.518,0,0,1,81,false,stim,false,2,147.0,2,0,1,31360,task2,1195153,false,false,1738,image-keyboard-response,8
true,16,2,2,0,false,q,true,false,0.0-2.0-0.57-0.519-3.519,0,0,1,68,false,stim,false,0,547.0,2,1,2,31360,task2,1197209,false,false,1741,image-keyboard-response,9
true,16,0,2,1,false,z,true,false,0.0-2.0-0.57-0.520-3.520,0,0,1,81,false,stim,false,2,409.99999999976717,2,0,0,31360,task2,1199127,false,false,1744,image-keyboard-response,10
true,16,1,2,0,false,q,true,false,0.0-2.0-0.57-0.521-3.521,0,0,1,90,false,stim,false,0,359.0,2,1,2,31360,task2,1200993,false,false,1747,image-keyboard-response,11
true,16,0,2,0,true,q,false,false,0.0-2.0-0.58-0.522-3.522,0,0,1,81,false,stim,false,0,311.0,2,1,2,31360,task2,1202811,false,true,1750,image-keyboard-response,12
true,16,0,2,0,true,q,false,true,0.0-2.0-0.58-0.523-3.523,0,0,1,81,false,stim,false,2,549.0,2,0,1,31360,task2,1204867,false,false,1753,image-keyboard-response,13
true,16,2,2,1,false,z,false,false,0.0-2.0-0.58-0.524-3.524,0,0,1,68,false,stim,true,2,444.0,2,0,0,31360,task2,1206818,false,false,1756,image-keyboard-response,14
true,16,0,2,1,false,z,true,false,0.0-2.0-0.58-0.525-3.525,0,0,1,81,false,stim,false,2,429.0,2,0,0,31360,task2,1208754,false,false,1759,image-keyboard-response,15
true,16,0,2,0,true,q,false,true,0.0-2.0-0.58-0.526-3.526,0,0,1,81,false,stim,false,0,512.0,2,1,2,31360,task2,1210772,false,false,1762,image-keyboard-response,16
true,16,0,2,0,true,q,false,true,0.0-2.0-0.58-0.527-3.527,0,0,1,81,false,stim,false,2,378.00000000023283,2,0,1,31360,task2,1212659,false,false,1765,image-keyboard-response,17
true,16,0,2,0,true,q,false,true,0.0-2.0-0.58-0.528-3.528,0,0,1,81,false,stim,false,2,423.0,2,0,1,31360,task2,1214587,false,false,1768,image-keyboard-response,18
true,16,0,2,1,false,z,true,false,0.0-2.0-0.58-0.529-3.529,0,0,1,81,false,stim,false,2,639.0,2,0,0,31360,task2,1216733,false,false,1771,image-keyboard-response,19
true,16,0,2,0,true,q,false,true,0.0-2.0-0.58-0.530-3.530,0,0,1,81,false,stim,false,0,468.00000000023283,2,1,2,31360,task2,1218707,false,false,1774,image-keyboard-response,20
true,16,0,2,1,false,z,true,true,0.0-2.0-0.59-0.531-3.531,0,0,1,81,false,stim,false,2,355.0,2,0,0,31360,task2,1220570,false,true,1777,image-keyboard-response,21
true,16,0,2,0,true,q,false,true,0.0-2.0-0.59-0.532-3.532,0,0,1,81,false,stim,false,0,56.0,2,1,2,31360,task2,1222133,false,false,1780,image-keyboard-response,22
true,16,0,2,1,false,z,true,false,0.0-2.0-0.59-0.533-3.533,0,0,1,81,false,stim,false,2,255.0,2,0,0,31360,task2,1223894,false,false,1783,image-keyboard-response,23
true,16,0,2,0,true,q,false,false,0.0-2.0-0.59-0.534-3.534,0,0,1,81,false,stim,false,0,69.0,2,1,2,31360,task2,1225473,false,true,1786,image-keyboard-response,24
true,16,0,2,0,true,q,false,true,0.0-2.0-0.59-0.535-3.535,0,0,1,81,false,stim,false,0,81.0,2,1,2,31360,task2,1227062,false,false,1789,image-keyboard-response,25
true,16,0,2,0,true,q,false,false,0.0-2.0-0.59-0.536-3.536,0,0,1,81,false,stim,false,2,105.0,2,0,1,31360,task2,1228674,false,true,1792,image-keyboard-response,26
true,16,0,2,1,false,z,true,false,0.0-2.0-0.59-0.537-3.537,0,0,1,81,false,stim,false,2,468.0,2,0,0,31360,task2,1230646,false,false,1795,image-keyboard-response,27
true,16,0,2,0,true,q,false,true,0.0-2.0-0.59-0.538-3.538,0,0,1,81,false,stim,false,2,178.00000000023283,2,0,1,31360,task2,1232332,false,false,1798,image-keyboard-response,28
true,16,0,2,0,true,q,false,true,0.0-2.0-0.59-0.539-3.539,0,0,1,81,false,stim,false,2,187.0,2,1,1,31360,task2,1234035,false,false,1801,image-keyboard-response,29
true,16,0,2,0,true,q,false,true,0.0-2.0-0.60-0.540-3.540,0,0,1,81,false,stim,false,0,102.99999999976717,2,1,2,31360,task2,1235647,false,false,1804,image-keyboard-response,30
true,16,0,2,0,true,q,false,true,0.0-2.0-0.60-0.541-3.541,0,0,1,81,false,stim,false,0,89.0,2,1,2,31360,task2,1237243,false,false,1807,image-keyboard-response,31
true,16,0,2,1,false,z,true,false,0.0-2.0-0.60-0.542-3.542,0,0,1,81,false,stim,false,2,154.0,2,1,0,31360,task2,1238904,false,false,1810,image-keyboard-response,32
true,16,0,2,0,true,q,false,true,0.0-2.0-0.60-0.543-3.543,0,0,1,81,false,stim,false,2,74.0,2,1,1,31360,task2,1240484,false,false,1813,image-keyboard-response,33
true,17,0,0,1,false,z,true,false,0.0-2.0-0.60-0.544-3.544,1,1,1,81,true,stim,false,1,698.0,2,1,0,31360,task2,1362988,false,false,1936,image-keyboard-response,1
true,17,2,0,0,false,q,true,false,0.0-2.0-0.60-0.545-3.545,1,1,1,68,false,stim,false,0,554.9999999997672,2,1,1,31360,task2,1365050,false,false,1939,image-keyboard-response,2
true,17,1,0,0,false,q,true,true,0.0-2.0-0.60-0.546-3.546,1,1,1,90,false,stim,false,0,327.0,2,1,1,31360,task2,1366885,false,true,1942,image-keyboard-response,3
true,17,1,0,1,true,z,false,true,0.0-2.0-0.60-0.547-3.547,1,1,1,90,false,stim,false,1,207.0,2,1,0,31360,task2,1368597,false,false,1945,image-keyboard-response,4
true,17,1,0,0,false,q,true,false,0.0-2.0-0.60-0.548-3.548,1,1,1,90,false,stim,false,0,379.0,2,1,2,31360,task2,1370484,false,false,1948,image-keyboard-response,5
true,17,1,0,1,true,z,false,true,0.0-2.0-0.61-0.549-3.549,1,1,1,90,false,stim,false,1,490.0,2,1,0,31360,task2,1372481,false,false,1951,image-keyboard-response,6
true,17,1,0,0,false,q,true,false,0.0-2.0-0.61-0.550-3.550,1,1,1,90,false,stim,false,0,557.0,2,1,2,31360,task2,1374545,false,false,1954,image-keyboard-response,7
true,17,1,0,0,false,q,true,false,0.0-2.0-0.61-0.551-3.551,1,1,1,90,false,stim,false,0,67.0,2,1,1,31360,task2,1376119,false,false,1957,image-keyboard-response,8
true,17,1,0,1,true,z,false,true,0.0-2.0-0.61-0.552-3.552,1,1,1,90,false,stim,false,1,123.0,2,0,0,31360,task2,1377749,false,false,1960,image-keyboard-response,9
true,17,1,0,0,false,q,true,false,0.0-2.0-0.61-0.553-3.553,1,1,1,90,false,stim,false,0,108.0,2,0,1,31360,task2,1379364,false,false,1963,image-keyboard-response,10
true,17,1,0,0,false,q,true,false,0.0-2.0-0.61-0.554-3.554,1,1,1,90,false,stim,false,0,122.0,2,0,2,31360,task2,1380995,false,false,1966,image-keyboard-response,11
true,17,2,0,0,false,q,true,true,0.0-2.0-0.61-0.555-3.555,1,1,1,68,false,stim,false,0,212.0,2,0,1,31360,task2,1382715,false,true,1969,image-keyboard-response,12
true,17,2,0,0,false,q,true,false,0.0-2.0-0.61-0.556-3.556,1,1,1,68,false,stim,false,0,176.0,2,0,2,31360,task2,1384396,false,false,1972,image-keyboard-response,13
true,18,1,1,2,false,d,false,false,0.0-2.0-0.61-0.557-3.557,0,0,0,90,true,stim,true,1,222.0,2,0,0,31360,task2,1386126,false,false,1975,image-keyboard-response,1
true,18,0,1,2,false,d,true,false,0.0-2.0-0.62-0.558-3.558,0,0,0,81,false,stim,false,1,7.0,2,0,0,31360,task2,1387641,false,false,1978,image-keyboard-response,2
true,18,2,1,1,false,z,true,false,0.0-2.0-0.62-0.559-3.559,0,0,0,68,false,stim,false,0,368.0,2,0,1,31360,task2,1389517,false,false,1981,image-keyboard-response,3
true,18,1,1,1,true,z,false,true,0.0-2.0-0.62-0.560-3.560,0,0,0,90,false,stim,false,0,318.0,2,0,1,31360,task2,1391352,false,false,1984,image-keyboard-response,4
true,18,1,1,2,false,d,false,false,0.0-2.0-0.62-0.561-3.561,0,0,0,90,false,stim,true,1,391.0,2,0,0,31360,task2,1393250,false,false,1987,image-keyboard-response,5
true,18,1,1,1,true,z,false,true,0.0-2.0-0.62-0.562-3.562,0,0,0,90,false,stim,false,0,105.00000000023283,2,0,2,31360,task2,1394860,false,false,1990,image-keyboard-response,6
true,18,1,1,1,true,z,false,true,0.0-2.0-0.62-0.563-3.563,0,0,0,90,false,stim,false,0,290.0,2,0,2,31360,task2,1396657,false,false,1993,image-keyboard-response,7
true,18,1,1,1,true,z,false,true,0.0-2.0-0.62-0.564-3.564,0,0,0,90,false,stim,false,0,435.0,2,0,2,31360,task2,1398599,false,false,1996,image-keyboard-response,8
true,18,1,1,1,true,z,false,true,0.0-2.0-0.62-0.565-3.565,0,0,0,90,false,stim,false,0,151.0,2,0,1,31360,task2,1400258,false,false,1999,image-keyboard-response,9
true,18,1,1,2,false,d,false,false,0.0-2.0-0.62-0.566-3.566,0,0,0,90,false,stim,true,1,285.99999999976717,2,0,0,31360,task2,1402060,false,false,2002,image-keyboard-response,10
true,18,1,1,1,true,z,false,true,0.0-2.0-0.63-0.567-3.567,0,0,0,90,false,stim,false,0,334.0,2,0,2,31360,task2,1403903,false,false,2005,image-keyboard-response,11
true,18,2,1,2,true,d,false,true,0.0-2.0-0.63-0.568-3.568,0,0,0,68,false,stim,false,1,460.0,2,0,0,31360,task2,1405869,false,false,2008,image-keyboard-response,12
true,18,1,1,1,true,z,false,true,0.0-2.0-0.63-0.569-3.569,0,0,0,90,false,stim,false,0,346.0,2,0,2,31360,task2,1407724,false,false,2011,image-keyboard-response,13
true,18,2,1,2,true,d,false,true,0.0-2.0-0.63-0.570-3.570,0,0,0,68,false,stim,false,1,492.0,2,0,0,31360,task2,1409722,false,false,2014,image-keyboard-response,14
true,18,2,1,2,true,d,false,true,0.0-2.0-0.63-0.571-3.571,0,0,0,68,false,stim,false,1,449.0,2,0,0,31360,task2,1411678,false,false,2017,image-keyboard-response,15
true,18,1,1,1,true,z,false,true,0.0-2.0-0.63-0.572-3.572,0,0,0,90,false,stim,false,0,547.0,2,0,1,31360,task2,1413733,false,false,2020,image-keyboard-response,16
true,18,1,1,1,true,z,false,true,0.0-2.0-0.63-0.573-3.573,0,0,0,90,false,stim,false,0,394.0,2,0,1,31360,task2,1415634,false,false,2023,image-keyboard-response,17
true,18,2,1,1,false,z,true,false,0.0-2.0-0.63-0.574-3.574,0,0,0,68,false,stim,false,0,733.0,2,0,2,31360,task2,1417873,false,false,2026,image-keyboard-response,18
true,18,1,1,1,true,z,false,true,0.0-2.0-0.63-0.575-3.575,0,0,0,90,false,stim,false,0,414.99999999976717,2,0,1,31360,task2,1419794,false,false,2029,image-keyboard-response,19
true,18,2,1,2,true,d,false,true,0.0-2.0-0.64-0.576-3.576,0,0,0,68,false,stim,false,1,500.0,2,0,0,31360,task2,1421802,false,false,2032,image-keyboard-response,20
true,18,1,1,1,true,z,false,true,0.0-2.0-0.64-0.577-3.577,0,0,0,90,false,stim,false,0,674.0,2,0,2,31360,task2,1423983,false,false,2035,image-keyboard-response,21
true,18,1,1,1,true,z,false,true,0.0-2.0-0.64-0.578-3.578,0,0,0,90,false,stim,false,0,482.0,2,0,2,31360,task2,1425974,false,false,2038,image-keyboard-response,22
true,18,2,1,2,true,d,false,true,0.0-2.0-0.64-0.579-3.579,0,0,0,68,false,stim,false,1,404.0,2,0,0,31360,task2,1427885,false,false,2041,image-keyboard-response,23
true,18,1,1,1,true,z,false,true,0.0-2.0-0.64-0.580-3.580,0,0,0,90,false,stim,false,0,595.0,2,0,1,31360,task2,1429987,false,false,2044,image-keyboard-response,24
true,18,2,1,2,true,d,false,true,0.0-2.0-0.64-0.581-3.581,0,0,0,68,false,stim,false,1,557.0,2,0,0,31360,task2,1432052,false,false,2047,image-keyboard-response,25
true,18,1,1,1,true,z,false,true,0.0-2.0-0.64-0.582-3.582,0,0,0,90,false,stim,false,0,613.0,2,0,2,31360,task2,1434172,false,false,2050,image-keyboard-response,26
true,18,1,1,1,true,z,false,true,0.0-2.0-0.64-0.583-3.583,0,0,0,90,false,stim,false,0,581.0,2,0,1,31360,task2,1436261,false,false,2053,image-keyboard-response,27
true,18,1,1,1,true,z,false,true,0.0-2.0-0.64-0.584-3.584,0,0,0,90,false,stim,false,0,425.0,2,0,1,31360,task2,1438193,false,false,2056,image-keyboard-response,28
true,18,1,1,1,true,z,false,true,0.0-2.0-0.65-0.585-3.585,0,0,0,90,false,stim,false,0,346.0,2,0,1,31360,task2,1440047,false,false,2059,image-keyboard-response,29
true,18,1,1,1,true,z,false,false,0.0-2.0-0.65-0.586-3.586,0,0,0,90,false,stim,false,0,459.00000000023283,2,0,1,31360,task2,1442015,false,true,2062,image-keyboard-response,30
true,18,1,1,1,true,z,false,true,0.0-2.0-0.65-0.587-3.587,0,0,0,90,false,stim,false,0,455.0,2,0,2,31360,task2,1443977,false,false,2065,image-keyboard-response,31
true,18,1,1,2,false,d,false,false,0.0-2.0-0.65-0.588-3.588,0,0,0,90,false,stim,true,1,389.0,2,0,0,31360,task2,1445873,false,false,2068,image-keyboard-response,32
true,18,1,1,1,true,z,false,true,0.0-2.0-0.65-0.589-3.589,0,0,0,90,false,stim,false,0,469.0,2,0,1,31360,task2,1447852,false,false,2071,image-keyboard-response,33
true,18,2,1,2,true,d,false,true,0.0-2.0-0.65-0.590-3.590,0,0,0,68,false,stim,false,1,582.0,2,0,0,31360,task2,1449941,false,false,2074,image-keyboard-response,34
true,18,1,1,2,false,d,false,false,0.0-2.0-0.65-0.591-3.591,0,0,0,90,false,stim,true,1,334.99999999976717,2,0,0,31360,task2,1451782,false,false,2077,image-keyboard-response,35
true,18,1,1,1,true,z,false,true,0.0-2.0-0.65-0.592-3.592,0,0,0,90,false,stim,false,0,398.00000000023283,2,0,2,31360,task2,1453688,false,false,2080,image-keyboard-response,36
true,18,1,1,1,true,z,false,true,0.0-2.0-0.65-0.593-3.593,0,0,0,90,false,stim,false,0,361.0,2,0,2,31360,task2,1455555,false,false,2083,image-keyboard-response,37
true,18,1,1,1,true,z,false,true,0.0-2.0-0.66-0.594-3.594,0,0,0,90,false,stim,false,0,387.99999999976717,2,0,2,31360,task2,1457451,false,false,2086,image-keyboard-response,38
true,19,1,2,1,true,z,false,true,0.0-2.0-0.66-0.595-3.595,0,1,0,90,true,stim,false,1,353.0,2,1,1,31360,task2,1459311,false,false,2089,image-keyboard-response,1
true,19,2,2,0,false,q,false,false,0.0-2.0-0.66-0.596-3.596,0,1,0,68,false,stim,true,2,374.0,2,0,0,31360,task2,1461192,false,false,2092,image-keyboard-response,2
true,19,1,2,2,false,d,false,false,0.0-2.0-0.66-0.597-3.597,0,1,0,90,false,stim,true,1,598.0,2,0,2,31360,task2,1463300,false,false,2095,image-keyboard-response,3
true,19,0,2,1,false,z,true,false,0.0-2.0-0.66-0.598-3.598,0,1,0,81,false,stim,false,1,618.0,2,1,1,31360,task2,1465425,false,false,2098,image-keyboard-response,4
true,19,0,2,0,true,q,false,true,0.0-2.0-0.66-0.599-3.599,0,1,0,81,false,stim,false,2,632.0,2,0,0,31360,task2,1467574,false,false,2101,image-keyboard-response,5
true,19,0,2,1,false,z,true,false,0.0-2.0-0.66-0.600-3.600,0,1,0,81,false,stim,false,1,434.99999999976717,2,1,1,31360,task2,1469516,false,false,2104,image-keyboard-response,6
true,19,0,2,0,true,q,false,true,0.0-2.0-0.66-0.601-3.601,0,1,0,81,false,stim,false,2,644.0,2,0,0,31360,task2,1471666,false,false,2107,image-keyboard-response,7
true,19,0,2,2,false,d,true,false,0.0-2.0-0.66-0.602-3.602,0,1,0,81,false,stim,false,1,689.0,2,0,2,31360,task2,1473864,false,false,2110,image-keyboard-response,8
true,19,0,2,0,true,q,false,false,0.0-2.0-0.67-0.603-3.603,0,1,0,81,false,stim,false,2,410.0,2,0,0,31360,task2,1475783,false,true,2113,image-keyboard-response,9
true,19,0,2,0,true,q,false,true,0.0-2.0-0.67-0.604-3.604,0,1,0,81,false,stim,false,2,332.0,2,0,0,31360,task2,1477621,false,false,2116,image-keyboard-response,10
true,19,0,2,2,false,d,true,false,0.0-2.0-0.67-0.605-3.605,0,1,0,81,false,stim,false,1,701.0,2,0,2,31360,task2,1479830,false,false,2119,image-keyboard-response,11
true,19,0,2,2,false,d,true,false,0.0-2.0-0.67-0.606-3.606,0,1,0,81,false,stim,false,1,269.0,2,0,2,31360,task2,1481607,false,false,2122,image-keyboard-response,12
true,19,1,2,2,false,d,false,true,0.0-2.0-0.67-0.607-3.607,0,1,0,90,false,stim,true,1,367.0,2,0,2,31360,task2,1483481,false,true,2125,image-keyboard-response,13
true,19,0,2,1,false,z,true,false,0.0-2.0-0.67-0.608-3.608,0,1,0,81,false,stim,false,1,538.0,2,1,1,31360,task2,1485527,false,false,2128,image-keyboard-response,14
true,19,1,2,1,true,z,false,true,0.0-2.0-0.67-0.609-3.609,0,1,0,90,false,stim,false,1,450.99999999976717,2,1,1,31360,task2,1487484,false,false,2131,image-keyboard-response,15
true,19,0,2,0,true,q,false,true,0.0-2.0-0.67-0.610-3.610,0,1,0,81,false,stim,false,2,504.00000000023283,2,0,0,31360,task2,1489496,false,false,2134,image-keyboard-response,16
true,19,1,2,1,true,z,false,true,0.0-2.0-0.67-0.611-3.611,0,1,0,90,false,stim,false,1,499.0,2,1,1,31360,task2,1491501,false,false,2137,image-keyboard-response,17
true,19,1,2,2,false,d,false,true,0.0-2.0-0.68-0.612-3.612,0,1,0,90,false,stim,true,1,469.0,2,0,2,31360,task2,1493478,false,true,2140,image-keyboard-response,18
true,19,0,2,0,true,q,false,true,0.0-2.0-0.68-0.613-3.613,0,1,0,81,false,stim,false,2,373.0,2,0,0,31360,task2,1495357,false,false,2143,image-keyboard-response,19
true,19,1,2,1,true,z,false,true,0.0-2.0-0.68-0.614-3.614,0,1,0,90,false,stim,false,1,424.0,2,1,1,31360,task2,1497289,false,false,2146,image-keyboard-response,20
true,19,1,2,1,true,z,false,true,0.0-2.0-0.68-0.615-3.615,0,1,0,90,false,stim,false,1,331.00000000023283,2,1,1,31360,task2,1499129,false,false,2149,image-keyboard-response,21
