answered,blockNum,choice,condition,corResp,correct,correct_response,explo,fb,internal_node_id,isStable_1,isStable_2,isStable_3,key_press,newBlock,part,persev,persevResp,rt,sessNum,stableAS,stimulus,subject,task,time_elapsed,training,trap,trial_index,trial_type,trialsInBlock
true,1,0,0,2,false,d,true,false,0.0-2.0-0.0-0.0-3.0,0,0,0,81,true,stim,false,-1,700.9999999999418,0,0,0,31360,task3,481109,false,false,139,image-keyboard-response,1
true,1,2,0,0,false,q,true,false,0.0-2.0-0.0-0.1-3.1,0,0,0,68,false,stim,false,-1,752.0,0,0,2,31360,task3,483368,false,false,142,image-keyboard-response,2
true,1,1,0,2,false,d,true,false,0.0-2.0-0.0-0.2-3.2,0,0,0,90,false,stim,false,-1,679.0,0,0,0,31360,task3,485552,false,false,145,image-keyboard-response,3
true,1,2,0,0,false,q,true,false,0.0-2.0-0.0-0.3-3.3,0,0,0,68,false,stim,false,-1,627.0,0,0,2,31360,task3,487683,false,false,148,image-keyboard-response,4
true,1,0,0,2,false,d,true,false,0.0-2.0-0.0-0.4-3.4,0,0,0,81,false,stim,false,-1,352.0,0,0,0,31360,task3,489540,false,false,151,image-keyboard-response,5
true,1,1,0,0,false,q,true,false,0.0-2.0-0.0-0.5-3.5,0,0,0,90,false,stim,false,-1,960.0,0,0,2,31360,task3,492006,false,false,154,image-keyboard-response,6
true,1,0,0,1,false,z,true,false,0.0-2.0-0.0-0.6-3.6,0,0,0,81,false,stim,false,-1,840.0,0,0,1,31360,task3,494351,false,false,157,image-keyboard-response,7
true,1,1,0,1,true,z,false,true,0.0-2.0-0.0-0.7-3.7,0,0,0,90,false,stim,false,-1,1208.0,0,0,1,31360,task3,497064,false,false,160,image-keyboard-response,8
true,1,1,0,1,true,z,false,true,0.0-2.0-0.0-0.8-3.8,0,0,0,90,false,stim,false,-1,621.0,0,0,1,31360,task3,499191,false,false,163,image-keyboard-response,9
true,1,1,0,1,true,z,false,true,0.0-2.0-0.1-0.9-3.9,0,0,0,90,false,stim,false,-1,587.0,0,0,1,31360,task3,501284,false,false,166,image-keyboard-response,10
true,1,2,0,0,false,q,true,false,0.0-2.0-0.1-0.10-3.10,0,0,0,68,false,stim,false,-1,953.0000000000582,0,0,2,31360,task3,503742,false,false,169,image-keyboard-response,11
true,1,1,0,2,false,d,true,false,0.0-2.0-0.1-0.11-3.11,0,0,0,90,false,stim,false,-1,653.0000000000582,0,0,0,31360,task3,505901,false,false,172,image-keyboard-response,12
true,1,2,0,2,true,d,false,true,0.0-2.0-0.1-0.12-3.12,0,0,0,68,false,stim,false,-1,467.0,0,0,0,31360,task3,507874,false,false,175,image-keyboard-response,13
true,1,0,0,0,true,q,false,true,0.0-2.0-0.1-0.13-3.13,0,0,0,81,false,stim,false,-1,1013.0000000000582,0,0,2,31360,task3,510393,false,false,178,image-keyboard-response,14
true,1,1,0,1,true,z,false,false,0.0-2.0-0.1-0.14-3.14,0,0,0,90,false,stim,false,-1,2198.0,0,0,1,31360,task3,514097,false,true,181,image-keyboard-response,15
true,1,1,0,1,true,z,false,true,0.0-2.0-0.1-0.15-3.15,0,0,0,90,false,stim,false,-1,634.0000000000582,0,0,1,31360,task3,516235,false,false,184,image-keyboard-response,16
true,1,0,0,0,true,q,false,true,0.0-2.0-0.1-0.16-3.16,0,0,0,81,false,stim,false,-1,1262.0,0,0,2,31360,task3,519002,false,false,187,image-keyboard-response,17
true,1,2,0,2,true,d,false,true,0.0-2.0-0.1-0.17-3.17,0,0,0,68,false,stim,false,-1,934.9999999999418,0,0,0,31360,task3,521444,false,false,190,image-keyboard-response,18
true,1,0,0,0,true,q,false,true,0.0-2.0-0.2-0.18-3.18,0,0,0,81,false,stim,false,-1,1112.0,0,0,2,31360,task3,524060,false,false,193,image-keyboard-response,19
true,1,1,0,0,false,q,true,false,0.0-2.0-0.2-0.19-3.19,0,0,0,90,false,stim,false,-1,1360.0,0,0,2,31360,task3,526924,false,false,196,image-keyboard-response,20
true,1,0,0,0,true,q,false,true,0.0-2.0-0.2-0.20-3.20,0,0,0,81,false,stim,false,-1,474.0,0,0,2,31360,task3,528903,false,false,199,image-keyboard-response,21
true,1,1,0,1,true,z,false,true,0.0-2.0-0.2-0.21-3.21,0,0,0,90,false,stim,false,-1,1395.0,0,0,1,31360,task3,531806,false,false,202,image-keyboard-response,22
true,1,1,0,1,true,z,false,true,0.0-2.0-0.2-0.22-3.22,0,0,0,90,false,stim,false,-1,773.0,0,0,1,31360,task3,534084,false,false,205,image-keyboard-response,23
true,1,2,0,2,true,d,false,false,0.0-2.0-0.2-0.23-3.23,0,0,0,68,false,stim,false,-1,990.0000000001164,0,1,0,31360,task3,536581,false,true,208,image-keyboard-response,24
true,1,1,0,2,false,d,true,false,0.0-2.0-0.2-0.24-3.24,0,0,0,90,false,stim,false,-1,920.0,0,1,0,31360,task3,539006,false,false,211,image-keyboard-response,25
true,1,1,0,1,true,z,false,true,0.0-2.0-0.2-0.25-3.25,0,0,0,90,false,stim,false,-1,1496.0,0,0,1,31360,task3,542008,false,false,214,image-keyboard-response,26
true,1,0,0,2,false,d,true,false,0.0-2.0-0.2-0.26-3.26,0,0,0,81,false,stim,false,-1,973.0,0,1,0,31360,task3,544487,false,false,217,image-keyboard-response,27
true,2,1,1,2,false,d,false,false,0.0-2.0-0.3-0.27-3.27,1,0,0,90,true,stim,true,1,1488.0,0,0,1,31360,task3,547481,false,false,220,image-keyboard-response,1
true,2,1,1,2,false,d,false,false,0.0-2.0-0.3-0.28-3.28,1,0,0,90,false,stim,true,1,1618.0,0,0,1,31360,task3,550605,false,false,223,image-keyboard-response,2
true,2,2,1,1,false,z,true,false,0.0-2.0-0.3-0.29-3.29,1,0,0,68,false,stim,false,0,837.0,0,0,2,31360,task3,552948,false,false,226,image-keyboard-response,3
true,2,0,1,2,false,d,true,false,0.0-2.0-0.3-0.30-3.30,1,0,0,81,false,stim,false,1,468.0,0,0,1,31360,task3,554921,false,false,229,image-keyboard-response,4
true,2,1,1,2,false,d,true,false,0.0-2.0-0.3-0.31-3.31,1,0,0,90,false,stim,false,2,540.0,0,1,0,31360,task3,556967,false,false,232,image-keyboard-response,5
true,2,2,1,2,true,d,false,true,0.0-2.0-0.3-0.32-3.32,1,0,0,68,false,stim,false,2,1251.0000000001164,0,1,0,31360,task3,559724,false,false,235,image-keyboard-response,6
true,2,2,1,2,true,d,false,true,0.0-2.0-0.3-0.33-3.33,1,0,0,68,false,stim,false,2,609.0,0,1,0,31360,task3,561839,false,false,238,image-keyboard-response,7
true,2,0,1,1,false,z,false,false,0.0-2.0-0.3-0.34-3.34,1,0,0,81,false,stim,true,0,1127.0,0,0,2,31360,task3,564472,false,false,241,image-keyboard-response,8
true,2,2,1,1,false,z,true,false,0.0-2.0-0.3-0.35-3.35,1,0,0,68,false,stim,false,0,802.0,0,0,2,31360,task3,566780,false,false,244,image-keyboard-response,9
true,2,1,1,1,true,z,false,false,0.0-2.0-0.4-0.36-3.36,1,0,0,90,false,stim,false,0,727.0,0,0,2,31360,task3,569013,false,true,247,image-keyboard-response,10
true,2,2,1,2,true,d,false,true,0.0-2.0-0.4-0.37-3.37,1,0,0,68,false,stim,false,2,1436.0,0,1,0,31360,task3,571953,false,false,250,image-keyboard-response,11
true,2,1,1,2,false,d,false,false,0.0-2.0-0.4-0.38-3.38,1,0,0,90,false,stim,true,1,2273.0,0,0,1,31360,task3,575731,false,false,253,image-keyboard-response,12
true,2,2,1,2,true,d,false,true,0.0-2.0-0.4-0.39-3.39,1,0,0,68,false,stim,false,1,744.0,0,0,1,31360,task3,577980,false,false,256,image-keyboard-response,13
true,2,2,1,2,true,d,false,true,0.0-2.0-0.4-0.40-3.40,1,0,0,68,false,stim,false,2,1369.0,0,1,0,31360,task3,580855,false,false,259,image-keyboard-response,14
true,2,2,1,2,true,d,false,true,0.0-2.0-0.4-0.41-3.41,1,0,0,68,false,stim,false,1,1398.0,0,0,1,31360,task3,583756,false,false,262,image-keyboard-response,15
true,2,1,1,1,true,z,false,true,0.0-2.0-0.4-0.42-3.42,1,0,0,90,false,stim,false,0,969.0,0,0,2,31360,task3,586230,false,false,265,image-keyboard-response,16
true,2,1,1,1,true,z,false,true,0.0-2.0-0.4-0.43-3.43,1,0,0,90,false,stim,false,0,1009.0,0,0,2,31360,task3,588743,false,false,268,image-keyboard-response,17
true,2,2,1,2,true,d,false,true,0.0-2.0-0.4-0.44-3.44,1,0,0,68,false,stim,false,2,1162.0,0,1,0,31360,task3,591409,false,false,271,image-keyboard-response,18
true,2,2,1,2,true,d,false,true,0.0-2.0-0.5-0.45-3.45,1,0,0,68,false,stim,false,2,1081.0,0,1,0,31360,task3,593995,false,false,274,image-keyboard-response,19
true,2,1,1,1,true,z,false,true,0.0-2.0-0.5-0.46-3.46,1,0,0,90,false,stim,false,0,615.0,0,0,2,31360,task3,596114,false,false,277,image-keyboard-response,20
true,2,2,1,2,true,d,false,false,0.0-2.0-0.5-0.47-3.47,1,0,0,68,false,stim,false,2,813.0,0,0,0,31360,task3,598433,false,true,280,image-keyboard-response,21
true,2,2,1,2,true,d,false,true,0.0-2.0-0.5-0.48-3.48,1,0,0,68,false,stim,false,1,2063.0,0,1,1,31360,task3,602000,false,false,283,image-keyboard-response,22
true,2,1,1,1,true,z,false,true,0.0-2.0-0.5-0.49-3.49,1,0,0,90,false,stim,false,0,1412.0,0,0,2,31360,task3,604918,false,false,286,image-keyboard-response,23
true,2,2,1,2,true,d,false,true,0.0-2.0-0.5-0.50-3.50,1,0,0,68,false,stim,false,1,1406.0000000001164,0,1,1,31360,task3,607830,false,false,289,image-keyboard-response,24
true,2,2,1,2,true,d,false,false,0.0-2.0-0.5-0.51-3.51,1,0,0,68,false,stim,false,1,713.0,0,1,1,31360,task3,610049,false,true,292,image-keyboard-response,25
true,3,1,1,0,false,q,false,false,0.0-2.0-0.5-0.52-3.52,0,1,0,90,true,stim,true,1,794.0000000001164,0,0,2,31360,task3,612349,false,false,295,image-keyboard-response,1
true,3,2,1,1,false,z,false,false,0.0-2.0-0.5-0.53-3.53,0,1,0,68,false,stim,true,2,1323.0,0,0,0,31360,task3,615178,false,false,298,image-keyboard-response,2
true,3,1,1,2,false,d,true,false,0.0-2.0-0.6-0.54-3.54,0,1,0,90,false,stim,false,2,1464.0,0,1,1,31360,task3,618150,false,false,301,image-keyboard-response,3
true,3,0,1,2,false,d,true,false,0.0-2.0-0.6-0.55-3.55,0,1,0,81,false,stim,false,2,623.0,0,1,1,31360,task3,620278,false,false,304,image-keyboard-response,4
true,3,2,1,2,true,d,false,true,0.0-2.0-0.6-0.56-3.56,0,1,0,68,false,stim,false,2,1405.0,0,1,1,31360,task3,623189,false,false,307,image-keyboard-response,5
true,3,1,1,0,false,q,false,false,0.0-2.0-0.6-0.57-3.57,0,1,0,90,false,stim,true,1,1667.0,0,0,2,31360,task3,626362,false,false,310,image-keyboard-response,6
true,3,2,1,1,false,z,false,true,0.0-2.0-0.6-0.58-3.58,0,1,0,68,false,stim,true,2,750.0,0,0,0,31360,task3,628617,false,true,313,image-keyboard-response,7
true,3,0,1,0,true,q,false,true,0.0-2.0-0.6-0.59-3.59,0,1,0,81,false,stim,false,1,909.0,0,0,2,31360,task3,631031,false,false,316,image-keyboard-response,8
true,3,2,1,1,false,z,false,false,0.0-2.0-0.6-0.60-3.60,0,1,0,68,false,stim,true,2,844.0,0,0,0,31360,task3,633381,false,false,319,image-keyboard-response,9
true,3,0,1,0,true,q,false,true,0.0-2.0-0.6-0.61-3.61,0,1,0,81,false,stim,false,1,738.0,0,0,2,31360,task3,635624,false,false,322,image-keyboard-response,10
true,3,1,1,1,true,z,false,true,0.0-2.0-0.6-0.62-3.62,0,1,0,90,false,stim,false,2,1049.0,0,0,0,31360,task3,638175,false,false,325,image-keyboard-response,11
true,3,2,1,2,true,d,false,true,0.0-2.0-0.7-0.63-3.63,0,1,0,68,false,stim,false,2,901.0,0,1,1,31360,task3,640578,false,false,328,image-keyboard-response,12
true,3,0,1,0,true,q,false,false,0.0-2.0-0.7-0.64-3.64,0,1,0,81,false,stim,false,1,1381.0,0,0,2,31360,task3,643462,false,true,331,image-keyboard-response,13
true,3,2,1,2,true,d,false,true,0.0-2.0-0.7-0.65-3.65,0,1,0,68,false,stim,false,2,1523.0,0,1,1,31360,task3,646492,false,false,334,image-keyboard-response,14
true,3,0,1,0,true,q,false,true,0.0-2.0-0.7-0.66-3.66,0,1,0,81,false,stim,false,1,1424.0,0,0,2,31360,task3,649420,false,false,337,image-keyboard-response,15
true,3,2,1,2,true,d,false,true,0.0-2.0-0.7-0.67-3.67,0,1,0,68,false,stim,false,2,1358.0,0,1,1,31360,task3,652283,false,false,340,image-keyboard-response,16
true,3,1,1,1,true,z,false,true,0.0-2.0-0.7-0.68-3.68,0,1,0,90,false,stim,false,2,828.0,0,0,0,31360,task3,654616,false,false,343,image-keyboard-response,17
true,3,1,1,1,true,z,false,true,0.0-2.0-0.7-0.69-3.69,0,1,0,90,false,stim,false,2,847.9999999998836,0,0,0,31360,task3,656971,false,false,346,image-keyboard-response,18
true,3,0,1,0,true,q,false,true,0.0-2.0-0.7-0.70-3.70,0,1,0,81,false,stim,false,1,1353.0000000001164,0,0,2,31360,task3,659830,false,false,349,image-keyboard-response,19
true,3,1,1,1,true,z,false,true,0.0-2.0-0.7-0.71-3.71,0,1,0,90,false,stim,false,2,917.0,0,0,0,31360,task3,662254,false,false,352,image-keyboard-response,20
true,3,0,1,0,true,q,false,true,0.0-2.0-0.8-0.72-3.72,0,1,0,81,false,stim,false,1,987.0,0,0,2,31360,task3,664746,false,false,355,image-keyboard-response,21
true,3,2,1,2,true,d,false,true,0.0-2.0-0.8-0.73-3.73,0,1,0,68,false,stim,false,2,1129.0,0,1,1,31360,task3,667381,false,false,358,image-keyboard-response,22
true,3,2,1,2,true,d,false,true,0.0-2.0-0.8-0.74-3.74,0,1,0,68,false,stim,false,2,681.0,0,1,1,31360,task3,669568,false,false,361,image-keyboard-response,23
true,3,0,1,0,true,q,false,true,0.0-2.0-0.8-0.75-3.75,0,1,0,81,false,stim,false,1,760.0,0,0,2,31360,task3,671834,false,false,364,image-keyboard-response,24
true,3,2,1,2,true,d,false,true,0.0-2.0-0.8-0.76-3.76,0,1,0,68,false,stim,false,2,916.0,0,1,1,31360,task3,674256,false,false,367,image-keyboard-response,25
true,3,1,1,1,true,z,false,true,0.0-2.0-0.8-0.77-3.77,0,1,0,90,false,stim,false,2,739.0,0,1,0,31360,task3,676501,false,false,370,image-keyboard-response,26
true,3,1,1,1,true,z,false,false,0.0-2.0-0.8-0.78-3.78,0,1,0,90,false,stim,false,2,864.0,0,1,0,31360,task3,678870,false,true,373,image-keyboard-response,27
true,3,2,1,0,false,q,true,false,0.0-2.0-0.8-0.79-3.79,0,1,0,68,false,stim,false,1,894.0,0,0,2,31360,task3,681270,false,false,376,image-keyboard-response,28
true,3,1,1,1,true,z,false,true,0.0-2.0-0.8-0.80-3.80,0,1,0,90,false,stim,false,2,1086.0,0,1,0,31360,task3,683860,false,false,379,image-keyboard-response,29
true,4,1,2,1,true,z,false,true,0.0-2.0-0.9-0.81-3.81,1,1,0,90,true,stim,false,1,850.0,0,1,0,31360,task3,686217,false,false,382,image-keyboard-response,1
true,4,0,2,2,false,d,false,false,0.0-2.0-0.9-0.82-3.82,1,1,0,81,false,stim,true,0,1092.0,0,0,2,31360,task3,688813,false,false,385,image-keyboard-response,2
true,4,1,2,1,true,z,false,true,0.0-2.0-0.9-0.83-3.83,1,1,0,90,false,stim,false,1,912.9999999998836,0,1,0,31360,task3,691233,false,false,388,image-keyboard-response,3
true,4,1,2,1,true,z,false,true,0.0-2.0-0.9-0.84-3.84,1,1,0,90,false,stim,false,1,679.0,0,1,0,31360,task3,693417,false,false,391,image-keyboard-response,4
true,4,2,2,2,true,d,false,true,0.0-2.0-0.9-0.85-3.85,1,1,0,68,false,stim,false,0,613.0,0,0,2,31360,task3,695534,false,false,394,image-keyboard-response,5
true,4,0,2,2,false,d,true,false,0.0-2.0-0.9-0.86-3.86,1,1,0,81,false,stim,false,2,555.0,0,1,1,31360,task3,697595,false,false,397,image-keyboard-response,6
true,4,2,2,2,true,d,false,true,0.0-2.0-0.9-0.87-3.87,1,1,0,68,false,stim,false,2,752.0,0,1,1,31360,task3,699852,false,false,400,image-keyboard-response,7
true,4,2,2,2,true,d,false,true,0.0-2.0-0.9-0.88-3.88,1,1,0,68,false,stim,false,0,901.0,0,0,2,31360,task3,702260,false,false,403,image-keyboard-response,8
true,4,2,2,2,true,d,false,true,0.0-2.0-0.9-0.89-3.89,1,1,0,68,false,stim,false,2,1142.0,0,1,1,31360,task3,704905,false,false,406,image-keyboard-response,9
true,4,1,2,1,true,z,false,true,0.0-2.0-0.10-0.90-3.90,1,1,0,90,false,stim,false,1,704.0,0,1,0,31360,task3,707114,false,false,409,image-keyboard-response,10
true,4,2,2,2,true,d,false,true,0.0-2.0-0.10-0.91-3.91,1,1,0,68,false,stim,false,2,390.0,0,1,1,31360,task3,709009,false,false,412,image-keyboard-response,11
true,4,1,2,1,true,z,false,true,0.0-2.0-0.10-0.92-3.92,1,1,0,90,false,stim,false,1,768.0,0,1,0,31360,task3,711283,false,false,415,image-keyboard-response,12
true,4,2,2,2,true,d,false,true,0.0-2.0-0.10-0.93-3.93,1,1,0,68,false,stim,false,0,802.0,0,0,2,31360,task3,713589,false,false,418,image-keyboard-response,13
true,4,2,2,2,true,d,false,true,0.0-2.0-0.10-0.94-3.94,1,1,0,68,false,stim,false,0,406.0,0,0,2,31360,task3,715501,false,false,421,image-keyboard-response,14
true,4,2,2,2,true,d,false,true,0.0-2.0-0.10-0.95-3.95,1,1,0,68,false,stim,false,0,483.0,0,0,2,31360,task3,717488,false,false,424,image-keyboard-response,15
true,4,2,2,2,true,d,false,true,0.0-2.0-0.10-0.96-3.96,1,1,0,68,false,stim,false,2,552.0,0,1,1,31360,task3,719545,false,false,427,image-keyboard-response,16
true,4,2,2,2,true,d,false,true,0.0-2.0-0.10-0.97-3.97,1,1,0,68,false,stim,false,2,463.0,0,1,1,31360,task3,721513,false,false,430,image-keyboard-response,17
true,4,1,2,1,true,z,false,true,0.0-2.0-0.10-0.98-3.98,1,1,0,90,false,stim,false,1,630.0,0,1,0,31360,task3,723649,false,false,433,image-keyboard-response,18
true,4,2,2,2,true,d,false,true,0.0-2.0-0.11-0.99-3.99,1,1,0,68,false,stim,false,0,605.0,0,0,2,31360,task3,725760,false,false,436,image-keyboard-response,19
true,4,1,2,1,true,z,false,true,0.0-2.0-0.11-0.100-3.100,1,1,0,90,false,stim,false,1,714.0000000001164,0,1,0,31360,task3,727979,false,false,439,image-keyboard-response,20
true,4,2,2,2,true,d,false,true,0.0-2.0-0.11-0.101-3.101,1,1,0,68,false,stim,false,2,392.0,0,1,1,31360,task3,729877,false,false,442,image-keyboard-response,21
true,4,2,2,2,true,d,false,true,0.0-2.0-0.11-0.102-3.102,1,1,0,68,false,stim,false,0,582.0,0,0,2,31360,task3,731964,false,false,445,image-keyboard-response,22
true,4,1,2,1,true,z,false,true,0.0-2.0-0.11-0.103-3.103,1,1,0,90,false,stim,false,1,712.0,0,1,0,31360,task3,734181,false,false,448,image-keyboard-response,23
true,4,2,2,2,true,d,false,true,0.0-2.0-0.11-0.104-3.104,1,1,0,68,false,stim,false,0,503.0,0,0,2,31360,task3,736189,false,false,451,image-keyboard-response,24
true,4,2,2,2,true,d,false,true,0.0-2.0-0.11-0.105-3.105,1,1,0,68,false,stim,false,2,544.0,0,1,1,31360,task3,738240,false,false,454,image-keyboard-response,25
true,4,1,2,1,true,z,false,true,0.0-2.0-0.11-0.106-3.106,1,1,0,90,false,stim,false,1,719.0,0,1,0,31360,task3,740465,false,false,457,image-keyboard-response,26
true,4,2,2,2,true,d,false,true,0.0-2.0-0.11-0.107-3.107,1,1,0,68,false,stim,false,2,407.0,0,1,1,31360,task3,742377,false,false,460,image-keyboard-response,27
true,5,2,2,2,true,d,false,true,0.0-2.0-0.12-0.108-3.108,1,1,0,68,true,stim,false,2,759.0,0,1,1,31360,task3,744640,false,false,463,image-keyboard-response,1
true,5,1,2,1,true,z,false,true,0.0-2.0-0.12-0.109-3.109,1,1,0,90,false,stim,false,1,402.9999999998836,0,1,0,31360,task3,746550,false,false,466,image-keyboard-response,2
true,5,2,2,2,true,d,false,true,0.0-2.0-0.12-0.110-3.110,1,1,0,68,false,stim,false,2,448.9999999998836,0,1,1,31360,task3,748504,false,false,469,image-keyboard-response,3
true,5,2,2,1,false,z,false,false,0.0-2.0-0.12-0.111-3.111,1,1,0,68,false,stim,true,2,582.0,0,0,2,31360,task3,750593,false,false,472,image-keyboard-response,4
true,5,0,2,1,false,z,true,false,0.0-2.0-0.12-0.112-3.112,1,1,0,81,false,stim,false,2,863.0,0,0,2,31360,task3,752962,false,false,475,image-keyboard-response,5
true,5,1,2,1,true,z,false,true,0.0-2.0-0.12-0.113-3.113,1,1,0,90,false,stim,false,1,619.0,0,1,0,31360,task3,755085,false,false,478,image-keyboard-response,6
true,5,1,2,1,true,z,false,true,0.0-2.0-0.12-0.114-3.114,1,1,0,90,false,stim,false,1,653.0,0,1,0,31360,task3,757244,false,false,481,image-keyboard-response,7
true,5,2,2,2,true,d,false,true,0.0-2.0-0.12-0.115-3.115,1,1,0,68,false,stim,false,2,731.0,0,1,1,31360,task3,759481,false,false,484,image-keyboard-response,8
true,5,1,2,1,true,z,false,true,0.0-2.0-0.12-0.116-3.116,1,1,0,90,false,stim,false,2,439.0000000001164,0,0,2,31360,task3,761426,false,false,487,image-keyboard-response,9
true,5,1,2,1,true,z,false,true,0.0-2.0-0.13-0.117-3.117,1,1,0,90,false,stim,false,1,560.0,0,1,0,31360,task3,763492,false,false,490,image-keyboard-response,10
true,5,2,2,2,true,d,false,false,0.0-2.0-0.13-0.118-3.118,1,1,0,68,false,stim,false,2,1245.9999999998836,0,1,1,31360,task3,766243,false,true,493,image-keyboard-response,11
true,5,1,2,1,true,z,false,true,0.0-2.0-0.13-0.119-3.119,1,1,0,90,false,stim,false,2,760.9999999998836,0,0,2,31360,task3,768509,false,false,496,image-keyboard-response,12
true,5,0,2,2,false,d,true,false,0.0-2.0-0.13-0.120-3.120,1,1,0,81,false,stim,false,2,462.0,0,1,1,31360,task3,770477,false,false,499,image-keyboard-response,13
true,5,1,2,1,true,z,false,true,0.0-2.0-0.13-0.121-3.121,1,1,0,90,false,stim,false,2,545.0,0,0,2,31360,task3,772530,false,false,502,image-keyboard-response,14
true,5,1,2,1,true,z,false,true,0.0-2.0-0.13-0.122-3.122,1,1,0,90,false,stim,false,2,546.0,0,0,2,31360,task3,774581,false,false,505,image-keyboard-response,15
true,5,1,2,1,true,z,false,false,0.0-2.0-0.13-0.123-3.123,1,1,0,90,false,stim,false,1,624.0,0,1,0,31360,task3,776710,false,true,508,image-keyboard-response,16
true,5,0,2,1,false,z,true,false,0.0-2.0-0.13-0.124-3.124,1,1,0,81,false,stim,false,1,506.0,0,1,0,31360,task3,778722,false,false,511,image-keyboard-response,17
true,5,1,2,2,false,d,true,false,0.0-2.0-0.13-0.125-3.125,1,1,0,90,false,stim,false,2,704.9999999998836,0,1,1,31360,task3,780933,false,false,514,image-keyboard-response,18
true,5,2,2,2,true,d,false,true,0.0-2.0-0.14-0.126-3.126,1,1,0,68,false,stim,false,2,653.0,0,1,1,31360,task3,783091,false,false,517,image-keyboard-response,19
true,5,2,2,1,false,z,true,false,0.0-2.0-0.14-0.127-3.127,1,1,0,68,false,stim,false,1,677.0,0,0,0,31360,task3,785274,false,false,520,image-keyboard-response,20
true,5,0,2,1,false,z,true,false,0.0-2.0-0.14-0.128-3.128,1,1,0,81,false,stim,false,1,475.0,0,0,0,31360,task3,787254,false,false,523,image-keyboard-response,21
true,5,1,2,1,true,z,false,true,0.0-2.0-0.14-0.129-3.129,1,1,0,90,false,stim,false,1,571.0000000001164,0,0,0,31360,task3,789330,false,false,526,image-keyboard-response,22
true,5,1,2,2,false,d,true,true,0.0-2.0-0.14-0.130-3.130,1,1,0,90,false,stim,false,2,769.0,0,1,1,31360,task3,791604,false,true,529,image-keyboard-response,23
true,5,1,2,2,false,d,true,false,0.0-2.0-0.14-0.131-3.131,1,1,0,90,false,stim,false,2,588.0,0,1,1,31360,task3,793698,false,false,532,image-keyboard-response,24
true,6,2,1,0,false,q,true,false,0.0-2.0-0.14-0.132-3.132,0,1,0,68,true,stim,false,1,559.0,0,0,2,31360,task3,795761,false,false,535,image-keyboard-response,1
true,6,1,1,0,false,q,false,false,0.0-2.0-0.14-0.133-3.133,0,1,0,90,false,stim,true,1,340.0,0,0,2,31360,task3,797608,false,false,538,image-keyboard-response,2
true,6,0,1,0,true,q,false,true,0.0-2.0-0.14-0.134-3.134,0,1,0,81,false,stim,false,1,407.0,0,0,2,31360,task3,799517,false,false,541,image-keyboard-response,3
true,6,1,1,0,false,q,false,false,0.0-2.0-0.15-0.135-3.135,0,1,0,90,false,stim,true,1,586.0,0,0,2,31360,task3,801609,false,false,544,image-keyboard-response,4
true,6,1,1,2,false,d,true,false,0.0-2.0-0.15-0.136-3.136,0,1,0,90,false,stim,false,2,702.0,0,1,1,31360,task3,803818,false,false,547,image-keyboard-response,5
true,6,2,1,2,true,d,false,true,0.0-2.0-0.15-0.137-3.137,0,1,0,68,false,stim,false,2,1044.0,0,1,1,31360,task3,806366,false,false,550,image-keyboard-response,6
true,6,1,1,2,false,d,false,false,0.0-2.0-0.15-0.138-3.138,0,1,0,90,false,stim,true,1,864.9999999998836,0,0,0,31360,task3,808738,false,false,553,image-keyboard-response,7
true,6,0,1,0,true,q,false,true,0.0-2.0-0.15-0.139-3.139,0,1,0,81,false,stim,false,1,855.0000000001164,0,0,2,31360,task3,811098,false,false,556,image-keyboard-response,8
true,6,2,1,2,true,d,false,false,0.0-2.0-0.15-0.140-3.140,0,1,0,68,false,stim,false,1,866.0,0,0,0,31360,task3,813471,false,true,559,image-keyboard-response,9
true,6,0,1,0,true,q,false,false,0.0-2.0-0.15-0.141-3.141,0,1,0,81,false,stim,false,1,860.0,0,0,2,31360,task3,815836,false,true,562,image-keyboard-response,10
true,6,0,1,2,false,d,true,false,0.0-2.0-0.15-0.142-3.142,0,1,0,81,false,stim,false,2,2424.0000000001164,0,1,1,31360,task3,819766,false,false,565,image-keyboard-response,11
true,6,1,1,2,false,d,false,false,0.0-2.0-0.15-0.143-3.143,0,1,0,90,false,stim,true,1,741.9999999998836,0,0,0,31360,task3,822013,false,false,568,image-keyboard-response,12
true,6,2,1,0,false,q,true,false,0.0-2.0-0.16-0.144-3.144,0,1,0,68,false,stim,false,1,2417.0,0,0,2,31360,task3,825936,false,false,571,image-keyboard-response,13
true,6,0,1,2,false,d,true,false,0.0-2.0-0.16-0.145-3.145,0,1,0,81,false,stim,false,1,2522.0,0,0,0,31360,task3,829963,false,false,574,image-keyboard-response,14
true,6,1,1,2,false,d,false,false,0.0-2.0-0.16-0.146-3.146,0,1,0,90,false,stim,true,1,1061.0,0,0,0,31360,task3,832530,false,false,577,image-keyboard-response,15
true,6,1,1,2,false,d,true,false,0.0-2.0-0.16-0.147-3.147,0,1,0,90,false,stim,false,2,280.0,0,1,1,31360,task3,834316,false,false,580,image-keyboard-response,16
true,6,1,1,0,false,q,false,false,0.0-2.0-0.16-0.148-3.148,0,1,0,90,false,stim,true,1,631.0,0,0,2,31360,task3,836454,false,false,583,image-keyboard-response,17
true,6,1,1,2,false,d,false,false,0.0-2.0-0.16-0.149-3.149,0,1,0,90,false,stim,true,1,959.0,0,0,0,31360,task3,838918,false,false,586,image-keyboard-response,18
true,6,0,1,2,false,d,true,true,0.0-2.0-0.16-0.150-3.150,0,1,0,81,false,stim,false,2,1386.0,0,1,1,31360,task3,841809,false,true,589,image-keyboard-response,19
true,6,2,1,2,true,d,false,true,0.0-2.0-0.16-0.151-3.151,0,1,0,68,false,stim,false,2,689.0,0,1,1,31360,task3,844004,false,false,592,image-keyboard-response,20
true,6,0,1,0,true,q,false,false,0.0-2.0-0.16-0.152-3.152,0,1,0,81,false,stim,false,1,860.0,0,0,2,31360,task3,846370,false,true,595,image-keyboard-response,21
true,6,0,1,0,true,q,false,false,0.0-2.0-0.17-0.153-3.153,0,1,0,81,false,stim,false,1,1537.0,0,0,2,31360,task3,849412,false,true,598,image-keyboard-response,22
true,6,0,1,2,false,d,true,false,0.0-2.0-0.17-0.154-3.154,0,1,0,81,false,stim,false,1,1350.0000000001164,0,0,0,31360,task3,852271,false,false,601,image-keyboard-response,23
true,6,0,1,0,true,q,false,true,0.0-2.0-0.17-0.155-3.155,0,1,0,81,false,stim,false,1,1133.0,0,0,2,31360,task3,854909,false,false,604,image-keyboard-response,24
true,6,1,1,2,false,d,true,false,0.0-2.0-0.17-0.156-3.156,0,1,0,90,false,stim,false,2,1293.0,0,0,1,31360,task3,857707,false,false,607,image-keyboard-response,25
true,6,2,1,2,true,d,false,false,0.0-2.0-0.17-0.157-3.157,0,1,0,68,false,stim,false,2,2075.0,0,0,1,31360,task3,861289,false,true,610,image-keyboard-response,26
true,6,1,1,2,false,d,false,false,0.0-2.0-0.17-0.158-3.158,0,1,0,90,false,stim,true,1,729.9999999998836,0,0,0,31360,task3,863525,false,false,613,image-keyboard-response,27
true,6,0,1,0,true,q,false,true,0.0-2.0-0.17-0.159-3.159,0,1,0,81,false,stim,false,1,2093.9999999998836,0,1,2,31360,task3,867126,false,false,616,image-keyboard-response,28
true,6,1,1,2,false,d,true,false,0.0-2.0-0.17-0.160-3.160,0,1,0,90,false,stim,false,2,1462.0,0,0,1,31360,task3,870093,false,false,619,image-keyboard-response,29
true,7,1,1,1,true,z,false,true,0.0-2.0-0.17-0.161-3.161,0,0,1,90,true,stim,false,2,971.9999999998836,0,0,0,31360,task3,872570,false,false,622,image-keyboard-response,1
true,7,0,1,0,true,q,false,true,0.0-2.0-0.18-0.162-3.162,0,0,1,81,false,stim,false,0,1158.0,0,1,2,31360,task3,875235,false,false,625,image-keyboard-response,2
true,7,2,1,1,false,z,false,false,0.0-2.0-0.18-0.163-3.163,0,0,1,68,false,stim,true,2,386.0,0,0,1,31360,task3,877126,false,false,628,image-keyboard-response,3
true,7,1,1,1,true,z,false,true,0.0-2.0-0.18-0.164-3.164,0,0,1,90,false,stim,false,2,883.0,0,0,0,31360,task3,879515,false,false,631,image-keyboard-response,4
true,7,0,1,0,true,q,false,true,0.0-2.0-0.18-0.165-3.165,0,0,1,81,false,stim,false,0,862.9999999998836,0,1,2,31360,task3,881884,false,false,634,image-keyboard-response,5
true,7,1,1,1,true,z,false,false,0.0-2.0-0.18-0.166-3.166,0,0,1,90,false,stim,false,2,901.0,0,0,0,31360,task3,884289,false,true,637,image-keyboard-response,6
true,7,2,1,1,false,z,false,false,0.0-2.0-0.18-0.167-3.167,0,0,1,68,false,stim,true,2,612.9999999998836,0,0,1,31360,task3,886409,false,false,640,image-keyboard-response,7
true,7,1,1,1,true,z,false,false,0.0-2.0-0.18-0.168-3.168,0,0,1,90,false,stim,false,2,923.9999999998836,0,0,0,31360,task3,888839,false,true,643,image-keyboard-response,8
true,7,0,1,1,false,z,true,false,0.0-2.0-0.18-0.169-3.169,0,0,1,81,false,stim,false,2,686.0000000001164,0,0,1,31360,task3,891031,false,false,646,image-keyboard-response,9
true,7,0,1,0,true,q,false,true,0.0-2.0-0.18-0.170-3.170,0,0,1,81,false,stim,false,0,1078.0,0,1,2,31360,task3,893615,false,false,649,image-keyboard-response,10
true,7,1,1,1,true,z,false,true,0.0-2.0-0.19-0.171-3.171,0,0,1,90,false,stim,false,2,771.0000000001164,0,0,1,31360,task3,895891,false,false,652,image-keyboard-response,11
true,7,1,1,1,true,z,false,true,0.0-2.0-0.19-0.172-3.172,0,0,1,90,false,stim,false,2,747.0,0,0,0,31360,task3,898144,false,false,655,image-keyboard-response,12
true,7,1,1,1,true,z,false,true,0.0-2.0-0.19-0.173-3.173,0,0,1,90,false,stim,false,2,1329.0000000001164,0,0,0,31360,task3,900978,false,false,658,image-keyboard-response,13
true,7,0,1,0,true,q,false,true,0.0-2.0-0.19-0.174-3.174,0,0,1,81,false,stim,false,0,835.0,0,1,2,31360,task3,903317,false,false,661,image-keyboard-response,14
true,7,1,1,1,true,z,false,true,0.0-2.0-0.19-0.175-3.175,0,0,1,90,false,stim,false,2,1303.0,0,0,1,31360,task3,906126,false,false,664,image-keyboard-response,15
true,7,0,1,0,true,q,false,true,0.0-2.0-0.19-0.176-3.176,0,0,1,81,false,stim,false,0,878.0,0,1,2,31360,task3,908510,false,false,667,image-keyboard-response,16
true,7,1,1,1,true,z,false,true,0.0-2.0-0.19-0.177-3.177,0,0,1,90,false,stim,false,2,1271.0,0,0,0,31360,task3,911286,false,false,670,image-keyboard-response,17
true,7,1,1,1,true,z,false,false,0.0-2.0-0.19-0.178-3.178,0,0,1,90,false,stim,false,2,773.0,0,0,1,31360,task3,913565,false,true,673,image-keyboard-response,18
true,7,0,1,0,true,q,false,false,0.0-2.0-0.19-0.179-3.179,0,0,1,81,false,stim,false,0,543.0,0,1,2,31360,task3,915615,false,true,676,image-keyboard-response,19
true,7,1,1,1,true,z,false,true,0.0-2.0-0.20-0.180-3.180,0,0,1,90,false,stim,false,2,755.0,0,0,1,31360,task3,917876,false,false,679,image-keyboard-response,20
true,7,1,1,1,true,z,false,true,0.0-2.0-0.20-0.181-3.181,0,0,1,90,false,stim,false,2,494.0,0,1,0,31360,task3,919876,false,false,682,image-keyboard-response,21
true,7,0,1,0,true,q,false,true,0.0-2.0-0.20-0.182-3.182,0,0,1,81,false,stim,false,0,482.0,0,0,2,31360,task3,921864,false,false,685,image-keyboard-response,22
true,7,0,1,0,true,q,false,true,0.0-2.0-0.20-0.183-3.183,0,0,1,81,false,stim,false,0,516.0,0,0,2,31360,task3,923884,false,false,688,image-keyboard-response,23
true,7,1,1,1,true,z,false,true,0.0-2.0-0.20-0.184-3.184,0,0,1,90,false,stim,false,2,1010.0,0,1,0,31360,task3,926399,false,false,691,image-keyboard-response,24
true,8,1,1,0,false,q,false,false,0.0-2.0-0.20-0.185-3.185,1,0,0,90,true,stim,true,1,846.0,0,0,1,31360,task3,928749,false,false,694,image-keyboard-response,1
true,8,0,1,1,false,z,false,false,0.0-2.0-0.20-0.186-3.186,1,0,0,81,false,stim,true,0,993.0,0,0,2,31360,task3,931248,false,false,697,image-keyboard-response,2
true,8,1,1,1,true,z,false,true,0.0-2.0-0.20-0.187-3.187,1,0,0,90,false,stim,false,1,571.0,0,1,0,31360,task3,933325,false,false,700,image-keyboard-response,3
true,8,1,1,0,false,q,false,false,0.0-2.0-0.20-0.188-3.188,1,0,0,90,false,stim,true,1,1090.0,0,0,1,31360,task3,935926,false,false,703,image-keyboard-response,4
true,8,0,1,0,true,q,false,false,0.0-2.0-0.21-0.189-3.189,1,0,0,81,false,stim,false,1,866.0,0,0,1,31360,task3,938298,false,true,706,image-keyboard-response,5
true,8,1,1,1,true,z,false,true,0.0-2.0-0.21-0.190-3.190,1,0,0,90,false,stim,false,1,1130.0,0,1,0,31360,task3,940934,false,false,709,image-keyboard-response,6
true,8,1,1,1,true,z,false,true,0.0-2.0-0.21-0.191-3.191,1,0,0,90,false,stim,false,1,751.9999999998836,0,1,0,31360,task3,943191,false,false,712,image-keyboard-response,7
true,8,0,1,1,false,z,false,false,0.0-2.0-0.21-0.192-3.192,1,0,0,81,false,stim,true,0,848.0,0,0,2,31360,task3,945544,false,false,715,image-keyboard-response,8
true,8,1,1,0,false,q,false,false,0.0-2.0-0.21-0.193-3.193,1,0,0,90,false,stim,true,1,810.0,0,0,1,31360,task3,947859,false,false,718,image-keyboard-response,9
true,8,0,1,1,false,z,false,false,0.0-2.0-0.21-0.194-3.194,1,0,0,81,false,stim,true,0,1229.0,0,0,2,31360,task3,950594,false,false,721,image-keyboard-response,10
true,8,0,1,1,false,z,false,false,0.0-2.0-0.21-0.195-3.195,1,0,0,81,false,stim,true,0,534.0,0,0,2,31360,task3,952634,false,false,724,image-keyboard-response,11
true,8,1,1,1,true,z,false,true,0.0-2.0-0.21-0.196-3.196,1,0,0,90,false,stim,false,1,633.9999999998836,0,1,0,31360,task3,954775,false,false,727,image-keyboard-response,12
true,8,1,1,0,false,q,false,false,0.0-2.0-0.21-0.197-3.197,1,0,0,90,false,stim,true,1,732.0,0,0,1,31360,task3,957015,false,false,730,image-keyboard-response,13
true,8,2,1,0,false,q,true,false,0.0-2.0-0.22-0.198-3.198,1,0,0,68,false,stim,false,1,510.0,0,0,1,31360,task3,959031,false,false,733,image-keyboard-response,14
true,8,1,1,1,true,z,false,true,0.0-2.0-0.22-0.199-3.199,1,0,0,90,false,stim,false,1,674.0,0,1,0,31360,task3,961210,false,false,736,image-keyboard-response,15
true,8,0,1,0,true,q,false,true,0.0-2.0-0.22-0.200-3.200,1,0,0,81,false,stim,false,1,383.0,0,0,1,31360,task3,963099,false,false,739,image-keyboard-response,16
true,8,1,1,1,true,z,false,true,0.0-2.0-0.22-0.201-3.201,1,0,0,90,false,stim,false,1,775.0,0,1,0,31360,task3,965379,false,false,742,image-keyboard-response,17
true,8,2,1,1,false,z,true,false,0.0-2.0-0.22-0.202-3.202,1,0,0,68,false,stim,false,0,531.0,0,0,2,31360,task3,967417,false,false,745,image-keyboard-response,18
true,8,1,1,1,true,z,false,true,0.0-2.0-0.22-0.203-3.203,1,0,0,90,false,stim,false,0,570.0000000001164,0,0,2,31360,task3,969492,false,false,748,image-keyboard-response,19
true,8,1,1,1,true,z,false,true,0.0-2.0-0.22-0.204-3.204,1,0,0,90,false,stim,false,1,586.0,0,1,0,31360,task3,971584,false,false,751,image-keyboard-response,20
true,8,0,1,0,true,q,false,true,0.0-2.0-0.22-0.205-3.205,1,0,0,81,false,stim,false,1,1107.0,0,1,1,31360,task3,974197,false,false,754,image-keyboard-response,21
true,8,1,1,1,true,z,false,true,0.0-2.0-0.22-0.206-3.206,1,0,0,90,false,stim,false,0,817.0,0,0,2,31360,task3,976520,false,false,757,image-keyboard-response,22
true,8,1,1,1,true,z,false,true,0.0-2.0-0.23-0.207-3.207,1,0,0,90,false,stim,false,1,1129.0,0,1,0,31360,task3,979152,false,false,760,image-keyboard-response,23
true,9,0,2,2,false,d,true,false,0.0-2.0-0.23-0.208-3.208,1,1,0,81,true,stim,false,1,869.0,0,0,2,31360,task3,981527,false,false,763,image-keyboard-response,1
true,9,0,2,0,true,q,false,false,0.0-2.0-0.23-0.209-3.209,1,1,0,81,false,stim,false,0,891.0,0,1,1,31360,task3,983934,false,true,766,image-keyboard-response,2
true,9,1,2,1,true,z,false,false,0.0-2.0-0.23-0.210-3.210,1,1,0,90,false,stim,false,1,618.0,0,1,0,31360,task3,986058,false,true,769,image-keyboard-response,3
true,9,1,2,2,false,d,false,false,0.0-2.0-0.23-0.211-3.211,1,1,0,90,false,stim,true,1,789.9999999998836,0,0,2,31360,task3,988354,false,false,772,image-keyboard-response,4
true,9,2,2,2,true,d,false,true,0.0-2.0-0.23-0.212-3.212,1,1,0,68,false,stim,false,1,598.0,0,0,2,31360,task3,990458,false,false,775,image-keyboard-response,5
true,9,2,2,0,false,q,true,false,0.0-2.0-0.23-0.213-3.213,1,1,0,68,false,stim,false,0,717.0,0,1,1,31360,task3,992680,false,false,778,image-keyboard-response,6
true,9,1,2,0,false,q,true,false,0.0-2.0-0.23-0.214-3.214,1,1,0,90,false,stim,false,0,1015.0,0,1,1,31360,task3,995201,false,false,781,image-keyboard-response,7
true,9,1,2,1,true,z,false,true,0.0-2.0-0.23-0.215-3.215,1,1,0,90,false,stim,false,1,729.0,0,1,0,31360,task3,997436,false,false,784,image-keyboard-response,8
true,9,1,2,1,true,z,false,true,0.0-2.0-0.24-0.216-3.216,1,1,0,90,false,stim,false,1,1116.0,0,1,0,31360,task3,1000058,false,false,787,image-keyboard-response,9
true,9,1,2,1,true,z,false,true,0.0-2.0-0.24-0.217-3.217,1,1,0,90,false,stim,false,1,661.9999999998836,0,1,0,31360,task3,1002226,false,false,790,image-keyboard-response,10
true,9,0,2,0,true,q,false,true,0.0-2.0-0.24-0.218-3.218,1,1,0,81,false,stim,false,0,1207.0,0,1,1,31360,task3,1004938,false,false,793,image-keyboard-response,11
true,9,0,2,0,true,q,false,true,0.0-2.0-0.24-0.219-3.219,1,1,0,81,false,stim,false,0,990.9999999998836,0,1,1,31360,task3,1007435,false,false,796,image-keyboard-response,12
true,9,2,2,2,true,d,false,true,0.0-2.0-0.24-0.220-3.220,1,1,0,68,false,stim,false,1,800.0,0,0,2,31360,task3,1009740,false,false,799,image-keyboard-response,13
true,9,2,2,2,true,d,false,true,0.0-2.0-0.24-0.221-3.221,1,1,0,68,false,stim,false,1,659.0,0,0,2,31360,task3,1011913,false,false,802,image-keyboard-response,14
true,9,1,2,1,true,z,false,true,0.0-2.0-0.24-0.222-3.222,1,1,0,90,false,stim,false,1,1348.0000000001164,0,1,0,31360,task3,1014766,false,false,805,image-keyboard-response,15
true,9,2,2,2,true,d,false,true,0.0-2.0-0.24-0.223-3.223,1,1,0,68,false,stim,false,1,643.0000000001164,0,0,2,31360,task3,1016915,false,false,808,image-keyboard-response,16
true,9,0,2,0,true,q,false,true,0.0-2.0-0.24-0.224-3.224,1,1,0,81,false,stim,false,0,648.0000000001164,0,1,1,31360,task3,1019069,false,false,811,image-keyboard-response,17
true,9,0,2,0,true,q,false,true,0.0-2.0-0.25-0.225-3.225,1,1,0,81,false,stim,false,0,909.0,0,1,1,31360,task3,1021486,false,false,814,image-keyboard-response,18
true,9,1,2,1,true,z,false,true,0.0-2.0-0.25-0.226-3.226,1,1,0,90,false,stim,false,1,960.0,0,0,0,31360,task3,1023951,false,false,817,image-keyboard-response,19
true,9,2,2,2,true,d,false,true,0.0-2.0-0.25-0.227-3.227,1,1,0,68,false,stim,false,1,569.0,0,0,2,31360,task3,1026026,false,false,820,image-keyboard-response,20
true,9,0,2,0,true,q,false,true,0.0-2.0-0.25-0.228-3.228,1,1,0,81,false,stim,false,0,1145.0000000002328,0,1,1,31360,task3,1028677,false,false,823,image-keyboard-response,21
true,9,1,2,1,true,z,false,true,0.0-2.0-0.25-0.229-3.229,1,1,0,90,false,stim,false,1,1302.0000000001164,0,0,0,31360,task3,1031485,false,false,826,image-keyboard-response,22
true,9,0,2,0,true,q,false,true,0.0-2.0-0.25-0.230-3.230,1,1,0,81,false,stim,false,0,1123.0,0,1,1,31360,task3,1034114,false,false,829,image-keyboard-response,23
true,10,2,1,1,false,z,false,false,0.0-2.0-0.25-0.231-3.231,0,1,0,68,true,stim,true,2,875.0,0,0,2,31360,task3,1036496,false,false,832,image-keyboard-response,1
true,10,0,1,2,false,d,true,false,0.0-2.0-0.25-0.232-3.232,0,1,0,81,false,stim,false,1,882.0,0,0,0,31360,task3,1038882,false,false,835,image-keyboard-response,2
true,10,2,1,1,false,z,false,false,0.0-2.0-0.25-0.233-3.233,0,1,0,68,false,stim,true,2,987.9999999998836,0,0,2,31360,task3,1041377,false,false,838,image-keyboard-response,3
true,10,1,1,1,true,z,false,true,0.0-2.0-0.26-0.234-3.234,0,1,0,90,false,stim,false,2,516.0000000001164,0,0,2,31360,task3,1043400,false,false,841,image-keyboard-response,4
true,10,1,1,1,true,z,false,true,0.0-2.0-0.26-0.235-3.235,0,1,0,90,false,stim,false,2,573.0000000001164,0,0,2,31360,task3,1045480,false,false,844,image-keyboard-response,5
true,10,1,1,1,true,z,false,true,0.0-2.0-0.26-0.236-3.236,0,1,0,90,false,stim,false,2,618.0,0,0,2,31360,task3,1047602,false,false,847,image-keyboard-response,6
true,10,0,1,0,true,q,false,true,0.0-2.0-0.26-0.237-3.237,0,1,0,81,false,stim,false,0,972.0,0,1,1,31360,task3,1050080,false,false,850,image-keyboard-response,7
true,10,2,1,2,true,d,false,true,0.0-2.0-0.26-0.238-3.238,0,1,0,68,false,stim,false,1,524.0,0,0,0,31360,task3,1052109,false,false,853,image-keyboard-response,8
true,10,2,1,2,true,d,false,true,0.0-2.0-0.26-0.239-3.239,0,1,0,68,false,stim,false,1,640.0000000002328,0,0,0,31360,task3,1054254,false,false,856,image-keyboard-response,9
true,10,2,1,2,true,d,false,true,0.0-2.0-0.26-0.240-3.240,0,1,0,68,false,stim,false,1,917.0000000002328,0,0,0,31360,task3,1056677,false,false,859,image-keyboard-response,10
true,10,0,1,0,true,q,false,true,0.0-2.0-0.26-0.241-3.241,0,1,0,81,false,stim,false,0,899.0,0,1,1,31360,task3,1059082,false,false,862,image-keyboard-response,11
true,10,0,1,0,true,q,false,true,0.0-2.0-0.26-0.242-3.242,0,1,0,81,false,stim,false,0,879.0,0,1,1,31360,task3,1061468,false,false,865,image-keyboard-response,12
true,10,2,1,2,true,d,false,true,0.0-2.0-0.27-0.243-3.243,0,1,0,68,false,stim,false,1,1001.9999999997672,0,0,0,31360,task3,1063977,false,false,868,image-keyboard-response,13
true,10,1,1,1,true,z,false,true,0.0-2.0-0.27-0.244-3.244,0,1,0,90,false,stim,false,2,1235.0,0,0,2,31360,task3,1066719,false,false,871,image-keyboard-response,14
true,10,2,1,2,true,d,false,true,0.0-2.0-0.27-0.245-3.245,0,1,0,68,false,stim,false,1,643.0,0,0,0,31360,task3,1068883,false,false,874,image-keyboard-response,15
true,10,2,1,2,true,d,false,true,0.0-2.0-0.27-0.246-3.246,0,1,0,68,false,stim,false,1,718.0,0,0,0,31360,task3,1071108,false,false,877,image-keyboard-response,16
true,10,0,1,0,true,q,false,true,0.0-2.0-0.27-0.247-3.247,0,1,0,81,false,stim,false,0,932.0,0,1,1,31360,task3,1073546,false,false,880,image-keyboard-response,17
true,10,1,1,1,true,z,false,true,0.0-2.0-0.27-0.248-3.248,0,1,0,90,false,stim,false,2,1006.0,0,0,2,31360,task3,1076059,false,false,883,image-keyboard-response,18
true,10,2,1,0,false,q,true,false,0.0-2.0-0.27-0.249-3.249,0,1,0,68,false,stim,false,0,934.0,0,1,1,31360,task3,1078499,false,false,886,image-keyboard-response,19
true,10,1,1,1,true,z,false,false,0.0-2.0-0.27-0.250-3.250,0,1,0,90,false,stim,false,2,1107.9999999997672,0,1,2,31360,task3,1081112,false,true,889,image-keyboard-response,20
true,10,0,1,0,true,q,false,true,0.0-2.0-0.27-0.251-3.251,0,1,0,81,false,stim,false,0,678.0,0,1,1,31360,task3,1083296,false,false,892,image-keyboard-response,21
true,10,0,1,0,true,q,false,true,0.0-2.0-0.28-0.252-3.252,0,1,0,81,false,stim,false,0,619.9999999997672,0,1,1,31360,task3,1085422,false,false,895,image-keyboard-response,22
true,10,0,1,0,true,q,false,false,0.0-2.0-0.28-0.253-3.253,0,1,0,81,false,stim,false,0,480.00000000023283,0,1,1,31360,task3,1087408,false,true,898,image-keyboard-response,23
true,11,2,2,0,false,q,false,false,0.0-2.0-0.28-0.254-3.254,0,1,1,68,true,stim,true,2,795.0,0,0,0,31360,task3,1089715,false,false,901,image-keyboard-response,1
true,11,1,2,0,false,q,true,false,0.0-2.0-0.28-0.255-3.255,0,1,1,90,false,stim,false,2,672.0,0,0,0,31360,task3,1091892,false,false,904,image-keyboard-response,2
true,11,1,2,1,true,z,false,true,0.0-2.0-0.28-0.256-3.256,0,1,1,90,false,stim,false,1,1462.0,0,1,2,31360,task3,1094859,false,false,907,image-keyboard-response,3
true,11,0,2,0,true,q,false,true,0.0-2.0-0.28-0.257-3.257,0,1,1,81,false,stim,false,2,497.00000000023283,0,0,0,31360,task3,1096860,false,false,910,image-keyboard-response,4
true,11,2,2,0,false,q,true,false,0.0-2.0-0.28-0.258-3.258,0,1,1,68,false,stim,false,0,767.0,0,1,1,31360,task3,1099133,false,false,913,image-keyboard-response,5
true,11,1,2,1,true,z,false,true,0.0-2.0-0.28-0.259-3.259,0,1,1,90,false,stim,false,1,1234.0,0,1,2,31360,task3,1101871,false,false,916,image-keyboard-response,6
true,11,1,2,1,true,z,false,true,0.0-2.0-0.28-0.260-3.260,0,1,1,90,false,stim,false,1,673.0,0,1,2,31360,task3,1104050,false,false,919,image-keyboard-response,7
true,11,0,2,0,true,q,false,false,0.0-2.0-0.29-0.261-3.261,0,1,1,81,false,stim,false,0,1550.0,0,1,1,31360,task3,1107106,false,true,922,image-keyboard-response,8
true,11,1,2,1,true,z,false,true,0.0-2.0-0.29-0.262-3.262,0,1,1,90,false,stim,false,1,804.0,0,1,2,31360,task3,1109417,false,false,925,image-keyboard-response,9
true,11,1,2,0,false,q,true,false,0.0-2.0-0.29-0.263-3.263,0,1,1,90,false,stim,false,0,391.0,0,0,1,31360,task3,1111313,false,false,928,image-keyboard-response,10
true,11,1,2,1,true,z,false,true,0.0-2.0-0.29-0.264-3.264,0,1,1,90,false,stim,false,1,861.0,0,1,2,31360,task3,1113678,false,false,931,image-keyboard-response,11
true,11,0,2,0,true,q,false,true,0.0-2.0-0.29-0.265-3.265,0,1,1,81,false,stim,false,2,838.0,0,1,0,31360,task3,1116020,false,false,934,image-keyboard-response,12
true,11,1,2,1,true,z,false,false,0.0-2.0-0.29-0.266-3.266,0,1,1,90,false,stim,false,1,660.0000000002328,0,1,2,31360,task3,1118186,false,true,937,image-keyboard-response,13
true,12,1,2,1,true,z,false,true,0.0-2.0-0.29-0.267-3.267,1,0,1,90,true,stim,false,0,498.0,0,0,1,31360,task3,1120191,false,false,940,image-keyboard-response,1
true,12,1,2,0,false,q,true,false,0.0-2.0-0.29-0.268-3.268,1,0,1,90,false,stim,false,0,588.0000000002328,0,1,0,31360,task3,1122283,false,false,943,image-keyboard-response,2
true,12,0,2,0,true,q,false,true,0.0-2.0-0.29-0.269-3.269,1,0,1,81,false,stim,false,0,625.0,0,1,0,31360,task3,1124414,false,false,946,image-keyboard-response,3
true,12,1,2,1,true,z,false,true,0.0-2.0-0.30-0.270-3.270,1,0,1,90,false,stim,false,0,902.0,0,0,1,31360,task3,1126822,false,false,949,image-keyboard-response,4
true,12,0,2,0,true,q,false,true,0.0-2.0-0.30-0.271-3.271,1,0,1,81,false,stim,false,0,853.9999999997672,0,1,0,31360,task3,1129184,false,false,952,image-keyboard-response,5
true,12,0,2,0,true,q,false,true,0.0-2.0-0.30-0.272-3.272,1,0,1,81,false,stim,false,0,644.0,0,1,0,31360,task3,1131332,false,false,955,image-keyboard-response,6
true,12,1,2,1,true,z,false,true,0.0-2.0-0.30-0.273-3.273,1,0,1,90,false,stim,false,1,1198.0,0,1,2,31360,task3,1134037,false,false,958,image-keyboard-response,7
true,12,1,2,1,true,z,false,true,0.0-2.0-0.30-0.274-3.274,1,0,1,90,false,stim,false,1,557.0000000002328,0,1,2,31360,task3,1136099,false,false,961,image-keyboard-response,8
true,12,1,2,1,true,z,false,true,0.0-2.0-0.30-0.275-3.275,1,0,1,90,false,stim,false,0,1247.0,0,0,1,31360,task3,1138853,false,false,964,image-keyboard-response,9
true,12,0,2,0,true,q,false,true,0.0-2.0-0.30-0.276-3.276,1,0,1,81,false,stim,false,0,572.9999999997672,0,0,0,31360,task3,1140932,false,false,967,image-keyboard-response,10
true,12,1,2,1,true,z,false,true,0.0-2.0-0.30-0.277-3.277,1,0,1,90,false,stim,false,0,722.0,0,1,1,31360,task3,1143161,false,false,970,image-keyboard-response,11
true,12,1,2,1,true,z,false,true,0.0-2.0-0.30-0.278-3.278,1,0,1,90,false,stim,false,1,803.0,0,1,2,31360,task3,1145469,false,false,973,image-keyboard-response,12
true,12,0,2,0,true,q,false,true,0.0-2.0-0.31-0.279-3.279,1,0,1,81,false,stim,false,0,506.0,0,0,0,31360,task3,1147481,false,false,976,image-keyboard-response,13
true,12,1,2,1,true,z,false,true,0.0-2.0-0.31-0.280-3.280,1,0,1,90,false,stim,false,0,1378.0,0,1,1,31360,task3,1150366,false,false,979,image-keyboard-response,14
true,13,1,2,1,true,z,false,true,0.0-2.0-0.31-0.281-3.281,0,1,1,90,true,stim,false,1,719.0,0,1,2,31360,task3,1152591,false,false,982,image-keyboard-response,1
true,13,1,2,1,true,z,false,true,0.0-2.0-0.31-0.282-3.282,0,1,1,90,false,stim,false,1,755.0,0,1,2,31360,task3,1154850,false,false,985,image-keyboard-response,2
true,13,0,2,2,false,d,false,false,0.0-2.0-0.31-0.283-3.283,0,1,1,81,false,stim,true,0,636.0,0,0,0,31360,task3,1156990,false,false,988,image-keyboard-response,3
true,13,1,2,1,true,z,false,true,0.0-2.0-0.31-0.284-3.284,0,1,1,90,false,stim,false,1,482.0,0,1,2,31360,task3,1158979,false,false,991,image-keyboard-response,4
true,13,1,2,1,true,z,false,true,0.0-2.0-0.31-0.285-3.285,0,1,1,90,false,stim,false,1,764.0,0,1,1,31360,task3,1161248,false,false,994,image-keyboard-response,5
true,13,1,2,1,true,z,false,true,0.0-2.0-0.31-0.286-3.286,0,1,1,90,false,stim,false,1,457.99999999976717,0,1,1,31360,task3,1163211,false,false,997,image-keyboard-response,6
true,13,2,2,2,true,d,false,true,0.0-2.0-0.31-0.287-3.287,0,1,1,68,false,stim,false,0,770.0,0,0,0,31360,task3,1165487,false,false,1000,image-keyboard-response,7
true,13,1,2,1,true,z,false,true,0.0-2.0-0.32-0.288-3.288,0,1,1,90,false,stim,false,1,589.0,0,1,2,31360,task3,1167588,false,false,1003,image-keyboard-response,8
true,13,1,2,1,true,z,false,true,0.0-2.0-0.32-0.289-3.289,0,1,1,90,false,stim,false,1,663.0,0,1,2,31360,task3,1169756,false,false,1006,image-keyboard-response,9
true,13,2,2,2,true,d,false,true,0.0-2.0-0.32-0.290-3.290,0,1,1,68,false,stim,false,0,813.0,0,0,0,31360,task3,1172076,false,false,1009,image-keyboard-response,10
true,13,1,2,1,true,z,false,false,0.0-2.0-0.32-0.291-3.291,0,1,1,90,false,stim,false,1,796.0000000002328,0,1,2,31360,task3,1174378,false,true,1012,image-keyboard-response,11
true,13,2,2,2,true,d,false,true,0.0-2.0-0.32-0.292-3.292,0,1,1,68,false,stim,false,0,797.0,0,0,0,31360,task3,1176682,false,false,1015,image-keyboard-response,12
true,13,1,2,1,true,z,false,true,0.0-2.0-0.32-0.293-3.293,0,1,1,90,false,stim,false,1,841.9999999997672,0,1,1,31360,task3,1179029,false,false,1018,image-keyboard-response,13
true,13,1,2,1,true,z,false,true,0.0-2.0-0.32-0.294-3.294,0,1,1,90,false,stim,false,1,959.0,0,1,1,31360,task3,1181494,false,false,1021,image-keyboard-response,14
true,13,1,2,1,true,z,false,true,0.0-2.0-0.32-0.295-3.295,0,1,1,90,false,stim,false,1,698.0,0,1,1,31360,task3,1183697,false,false,1024,image-keyboard-response,15
true,13,2,2,2,true,d,false,true,0.0-2.0-0.32-0.296-3.296,0,1,1,68,false,stim,false,0,675.0000000002328,0,0,0,31360,task3,1185879,false,false,1027,image-keyboard-response,16
true,13,1,2,1,true,z,false,true,0.0-2.0-0.33-0.297-3.297,0,1,1,90,false,stim,false,1,866.0,0,1,1,31360,task3,1188251,false,false,1030,image-keyboard-response,17
true,13,0,2,1,false,z,true,false,0.0-2.0-0.33-0.298-3.298,0,1,1,81,false,stim,false,1,646.0,0,1,2,31360,task3,1190403,false,false,1033,image-keyboard-response,18
true,13,2,2,2,true,d,false,true,0.0-2.0-0.33-0.299-3.299,0,1,1,68,false,stim,false,0,604.0000000002328,0,0,0,31360,task3,1192513,false,false,1036,image-keyboard-response,19
true,13,1,2,1,true,z,false,true,0.0-2.0-0.33-0.300-3.300,0,1,1,90,false,stim,false,1,942.0,0,1,1,31360,task3,1194961,false,false,1039,image-keyboard-response,20
true,13,1,2,1,true,z,false,true,0.0-2.0-0.33-0.301-3.301,0,1,1,90,false,stim,false,1,666.0,0,1,1,31360,task3,1197133,false,false,1042,image-keyboard-response,21
true,13,2,2,2,true,d,false,true,0.0-2.0-0.33-0.302-3.302,0,1,1,68,false,stim,false,0,731.0,0,0,0,31360,task3,1199370,false,false,1045,image-keyboard-response,22
true,13,1,2,2,false,d,true,false,0.0-2.0-0.33-0.303-3.303,0,1,1,90,false,stim,false,0,584.0,0,0,0,31360,task3,1201461,false,false,1048,image-keyboard-response,23
true,13,2,2,1,false,z,true,false,0.0-2.0-0.33-0.304-3.304,0,1,1,68,false,stim,false,1,720.0000000002328,0,0,2,31360,task3,1203686,false,false,1051,image-keyboard-response,24
true,13,1,2,1,true,z,false,true,0.0-2.0-0.33-0.305-3.305,0,1,1,90,false,stim,false,1,755.0,0,0,2,31360,task3,1205949,false,false,1054,image-keyboard-response,25
true,13,1,2,1,true,z,false,true,0.0-2.0-0.34-0.306-3.306,0,1,1,90,false,stim,false,1,788.0,0,1,1,31360,task3,1208244,false,false,1057,image-keyboard-response,26
true,13,2,2,2,true,d,false,true,0.0-2.0-0.34-0.307-3.307,0,1,1,68,false,stim,false,0,1180.0,0,0,0,31360,task3,1210929,false,false,1060,image-keyboard-response,27
true,13,2,2,2,true,d,false,true,0.0-2.0-0.34-0.308-3.308,0,1,1,68,false,stim,false,0,817.9999999997672,0,0,0,31360,task3,1213254,false,false,1063,image-keyboard-response,28
true,14,1,1,1,true,z,false,true,0.0-2.0-0.34-0.309-3.309,0,1,0,90,true,stim,false,1,1247.0,0,1,1,31360,task3,1216009,false,false,1066,image-keyboard-response,1
true,14,2,1,1,false,z,false,false,0.0-2.0-0.34-0.310-3.310,0,1,0,68,false,stim,true,2,651.0,0,0,0,31360,task3,1218166,false,false,1069,image-keyboard-response,2
true,14,1,1,2,false,d,false,false,0.0-2.0-0.34-0.311-3.311,0,1,0,90,false,stim,true,1,463.0,0,0,2,31360,task3,1220135,false,false,1072,image-keyboard-response,3
true,14,1,1,1,true,z,false,true,0.0-2.0-0.34-0.312-3.312,0,1,0,90,false,stim,false,1,935.0,0,1,1,31360,task3,1222576,false,false,1075,image-keyboard-response,4
true,14,2,1,2,true,d,false,true,0.0-2.0-0.34-0.313-3.313,0,1,0,68,false,stim,false,1,641.0,0,0,2,31360,task3,1224724,false,false,1078,image-keyboard-response,5
true,14,1,1,2,false,d,false,false,0.0-2.0-0.34-0.314-3.314,0,1,0,90,false,stim,true,1,1836.0,0,0,2,31360,task3,1228066,false,false,1081,image-keyboard-response,6
true,14,1,1,1,true,z,false,false,0.0-2.0-0.35-0.315-3.315,0,1,0,90,false,stim,false,1,1074.0000000002328,0,1,1,31360,task3,1230648,false,true,1084,image-keyboard-response,7
true,14,2,1,2,true,d,false,true,0.0-2.0-0.35-0.316-3.316,0,1,0,68,false,stim,false,1,781.0,0,0,2,31360,task3,1232934,false,false,1087,image-keyboard-response,8
true,14,2,1,1,false,z,false,false,0.0-2.0-0.35-0.317-3.317,0,1,0,68,false,stim,true,2,1086.0,0,0,0,31360,task3,1235526,false,false,1090,image-keyboard-response,9
true,14,1,1,1,true,z,false,true,0.0-2.0-0.35-0.318-3.318,0,1,0,90,false,stim,false,2,660.9999999997672,0,0,0,31360,task3,1237693,false,false,1093,image-keyboard-response,10
true,14,0,1,1,false,z,true,false,0.0-2.0-0.35-0.319-3.319,0,1,0,81,false,stim,false,1,399.0,0,1,1,31360,task3,1239596,false,false,1096,image-keyboard-response,11
true,14,2,1,2,true,d,false,true,0.0-2.0-0.35-0.320-3.320,0,1,0,68,false,stim,false,1,831.0,0,0,2,31360,task3,1241932,false,false,1099,image-keyboard-response,12
true,14,1,1,1,true,z,false,true,0.0-2.0-0.35-0.321-3.321,0,1,0,90,false,stim,false,2,526.9999999997672,0,0,0,31360,task3,1243972,false,false,1102,image-keyboard-response,13
true,14,1,1,1,true,z,false,true,0.0-2.0-0.35-0.322-3.322,0,1,0,90,false,stim,false,1,1273.0,0,1,1,31360,task3,1246750,false,false,1105,image-keyboard-response,14
true,14,2,1,2,true,d,false,true,0.0-2.0-0.35-0.323-3.323,0,1,0,68,false,stim,false,1,746.0,0,0,2,31360,task3,1249003,false,false,1108,image-keyboard-response,15
true,14,1,1,1,true,z,false,true,0.0-2.0-0.36-0.324-3.324,0,1,0,90,false,stim,false,1,1409.0,0,1,1,31360,task3,1251918,false,false,1111,image-keyboard-response,16
true,14,1,1,1,true,z,false,true,0.0-2.0-0.36-0.325-3.325,0,1,0,90,false,stim,false,2,1156.0,0,0,0,31360,task3,1254580,false,false,1114,image-keyboard-response,17
true,14,2,1,2,true,d,false,true,0.0-2.0-0.36-0.326-3.326,0,1,0,68,false,stim,false,1,852.0000000002328,0,0,2,31360,task3,1256939,false,false,1117,image-keyboard-response,18
true,14,2,1,2,true,d,false,true,0.0-2.0-0.36-0.327-3.327,0,1,0,68,false,stim,false,1,1186.0,0,0,2,31360,task3,1259633,false,false,1120,image-keyboard-response,19
true,14,1,1,1,true,z,false,true,0.0-2.0-0.36-0.328-3.328,0,1,0,90,false,stim,false,1,803.0,0,1,1,31360,task3,1261939,false,false,1123,image-keyboard-response,20
true,14,1,1,1,true,z,false,true,0.0-2.0-0.36-0.329-3.329,0,1,0,90,false,stim,false,1,1010.0,0,1,1,31360,task3,1264454,false,false,1126,image-keyboard-response,21
true,14,1,1,1,true,z,false,true,0.0-2.0-0.36-0.330-3.330,0,1,0,90,false,stim,false,2,1426.0,0,0,0,31360,task3,1267388,false,false,1129,image-keyboard-response,22
true,14,1,1,1,true,z,false,true,0.0-2.0-0.36-0.331-3.331,0,1,0,90,false,stim,false,2,794.0,0,0,0,31360,task3,1269687,false,false,1132,image-keyboard-response,23
true,14,2,1,2,true,d,false,true,0.0-2.0-0.36-0.332-3.332,0,1,0,68,false,stim,false,1,455.0,0,1,2,31360,task3,1271648,false,false,1135,image-keyboard-response,24
true,14,1,1,1,true,z,false,false,0.0-2.0-0.37-0.333-3.333,0,1,0,90,false,stim,false,1,722.9999999997672,0,0,1,31360,task3,1273881,false,true,1138,image-keyboard-response,25
true,14,1,1,1,true,z,false,true,0.0-2.0-0.37-0.334-3.334,0,1,0,90,false,stim,false,2,1169.0,0,0,0,31360,task3,1276555,false,false,1141,image-keyboard-response,26
true,14,1,1,1,true,z,false,true,0.0-2.0-0.37-0.335-3.335,0,1,0,90,false,stim,false,2,492.99999999976717,0,0,0,31360,task3,1278554,false,false,1144,image-keyboard-response,27
true,14,2,1,2,true,d,false,true,0.0-2.0-0.37-0.336-3.336,0,1,0,68,false,stim,false,1,814.0,0,1,2,31360,task3,1280873,false,false,1147,image-keyboard-response,28
true,15,2,1,2,true,d,false,true,0.0-2.0-0.37-0.337-3.337,0,0,1,68,true,stim,false,2,526.0,0,1,2,31360,task3,1282903,false,false,1150,image-keyboard-response,1
true,15,1,1,2,false,d,false,false,0.0-2.0-0.37-0.338-3.338,0,0,1,90,false,stim,true,1,831.0,0,0,1,31360,task3,1285240,false,false,1153,image-keyboard-response,2
true,15,2,1,2,true,d,false,true,0.0-2.0-0.37-0.339-3.339,0,0,1,68,false,stim,false,2,776.0,0,1,2,31360,task3,1287521,false,false,1156,image-keyboard-response,3
true,15,1,1,0,false,q,false,false,0.0-2.0-0.37-0.340-3.340,0,0,1,90,false,stim,true,1,775.0,0,0,0,31360,task3,1289805,false,false,1159,image-keyboard-response,4
true,15,2,1,2,true,d,false,true,0.0-2.0-0.37-0.341-3.341,0,0,1,68,false,stim,false,1,911.9999999997672,0,0,1,31360,task3,1292223,false,false,1162,image-keyboard-response,5
true,15,1,1,0,false,q,false,false,0.0-2.0-0.38-0.342-3.342,0,0,1,90,false,stim,true,1,957.0,0,0,0,31360,task3,1294687,false,false,1165,image-keyboard-response,6
true,15,2,1,2,true,d,false,true,0.0-2.0-0.38-0.343-3.343,0,0,1,68,false,stim,false,2,859.0,0,1,2,31360,task3,1297053,false,false,1168,image-keyboard-response,7
true,15,2,1,2,true,d,false,true,0.0-2.0-0.38-0.344-3.344,0,0,1,68,false,stim,false,2,854.0,0,1,2,31360,task3,1299412,false,false,1171,image-keyboard-response,8
true,15,2,1,2,true,d,false,true,0.0-2.0-0.38-0.345-3.345,0,0,1,68,false,stim,false,1,659.0,0,0,1,31360,task3,1301574,false,false,1174,image-keyboard-response,9
true,15,0,1,0,true,q,false,true,0.0-2.0-0.38-0.346-3.346,0,0,1,81,false,stim,false,1,707.0,0,0,0,31360,task3,1303789,false,false,1177,image-keyboard-response,10
true,15,2,1,2,true,d,false,true,0.0-2.0-0.38-0.347-3.347,0,0,1,68,false,stim,false,1,918.0,0,1,1,31360,task3,1306213,false,false,1180,image-keyboard-response,11
true,15,2,1,2,true,d,false,true,0.0-2.0-0.38-0.348-3.348,0,0,1,68,false,stim,false,1,552.0000000002328,0,1,1,31360,task3,1308272,false,false,1183,image-keyboard-response,12
true,15,2,1,2,true,d,false,true,0.0-2.0-0.38-0.349-3.349,0,0,1,68,false,stim,false,2,492.0,0,0,2,31360,task3,1310272,false,false,1186,image-keyboard-response,13
true,15,0,1,0,true,q,false,true,0.0-2.0-0.38-0.350-3.350,0,0,1,81,false,stim,false,1,637.0000000002328,0,1,0,31360,task3,1312416,false,false,1189,image-keyboard-response,14
true,15,2,1,2,true,d,false,false,0.0-2.0-0.39-0.351-3.351,0,0,1,68,false,stim,false,1,752.0000000002328,0,1,1,31360,task3,1314676,false,true,1192,image-keyboard-response,15
true,16,0,2,0,true,q,false,true,0.0-2.0-0.39-0.352-3.352,1,1,0,81,true,stim,false,0,796.0,0,1,0,31360,task3,1316978,false,false,1195,image-keyboard-response,1
true,16,0,2,0,true,q,false,true,0.0-2.0-0.39-0.353-3.353,1,1,0,81,false,stim,false,0,700.0,0,1,0,31360,task3,1319187,false,false,1198,image-keyboard-response,2
true,16,0,2,2,false,d,true,false,0.0-2.0-0.39-0.354-3.354,1,1,0,81,false,stim,false,2,556.0,0,1,1,31360,task3,1321269,false,false,1201,image-keyboard-response,3
true,16,2,2,0,false,q,false,false,0.0-2.0-0.39-0.355-3.355,1,1,0,68,false,stim,true,2,467.0,0,0,2,31360,task3,1323242,false,false,1204,image-keyboard-response,4
true,16,0,2,0,true,q,false,true,0.0-2.0-0.39-0.356-3.356,1,1,0,81,false,stim,false,0,590.0,0,1,0,31360,task3,1325337,false,false,1207,image-keyboard-response,5
true,16,1,2,0,false,q,true,false,0.0-2.0-0.39-0.357-3.357,1,1,0,90,false,stim,false,2,434.0,0,0,2,31360,task3,1327277,false,false,1210,image-keyboard-response,6
true,16,1,2,2,false,d,true,false,0.0-2.0-0.39-0.358-3.358,1,1,0,90,false,stim,false,2,798.0,0,1,1,31360,task3,1329580,false,false,1213,image-keyboard-response,7
true,16,0,2,0,true,q,false,true,0.0-2.0-0.39-0.359-3.359,1,1,0,81,false,stim,false,2,551.0000000002328,0,0,2,31360,task3,1331639,false,false,1216,image-keyboard-response,8
true,16,0,2,0,true,q,false,true,0.0-2.0-0.40-0.360-3.360,1,1,0,81,false,stim,false,0,515.0,0,1,0,31360,task3,1333660,false,false,1219,image-keyboard-response,9
true,16,0,2,0,true,q,false,true,0.0-2.0-0.40-0.361-3.361,1,1,0,81,false,stim,false,2,674.9999999997672,0,1,2,31360,task3,1335841,false,false,1222,image-keyboard-response,10
true,16,0,2,0,true,q,false,true,0.0-2.0-0.40-0.362-3.362,1,1,0,81,false,stim,false,2,437.0,0,1,2,31360,task3,1337784,false,false,1225,image-keyboard-response,11
true,16,1,2,2,false,d,true,false,0.0-2.0-0.40-0.363-3.363,1,1,0,90,false,stim,false,2,582.9999999997672,0,0,1,31360,task3,1339874,false,false,1228,image-keyboard-response,12
true,16,0,2,2,false,d,true,false,0.0-2.0-0.40-0.364-3.364,1,1,0,81,false,stim,false,2,472.0,0,0,1,31360,task3,1341852,false,false,1231,image-keyboard-response,13
true,16,0,2,0,true,q,false,true,0.0-2.0-0.40-0.365-3.365,1,1,0,81,false,stim,false,2,553.9999999997672,0,1,2,31360,task3,1343913,false,false,1234,image-keyboard-response,14
true,17,2,2,1,false,z,false,true,0.0-2.0-0.40-0.366-3.366,1,0,1,68,true,stim,true,2,567.0,0,0,1,31360,task3,1345986,false,true,1237,image-keyboard-response,1
true,17,0,2,0,true,q,false,true,0.0-2.0-0.40-0.367-3.367,1,0,1,81,false,stim,false,0,558.9999999997672,0,1,0,31360,task3,1348052,false,false,1240,image-keyboard-response,2
true,17,0,2,0,true,q,false,true,0.0-2.0-0.40-0.368-3.368,1,0,1,81,false,stim,false,0,499.0,0,1,0,31360,task3,1350056,false,false,1243,image-keyboard-response,3
true,17,0,2,0,true,q,false,true,0.0-2.0-0.41-0.369-3.369,1,0,1,81,false,stim,false,0,519.0,0,1,2,31360,task3,1352083,false,false,1246,image-keyboard-response,4
true,17,0,2,0,true,q,false,true,0.0-2.0-0.41-0.370-3.370,1,0,1,81,false,stim,false,0,539.9999999997672,0,1,2,31360,task3,1354129,false,false,1249,image-keyboard-response,5
true,17,0,2,0,true,q,false,true,0.0-2.0-0.41-0.371-3.371,1,0,1,81,false,stim,false,0,612.0,0,1,2,31360,task3,1356248,false,false,1252,image-keyboard-response,6
true,17,0,2,1,false,z,true,false,0.0-2.0-0.41-0.372-3.372,1,0,1,81,false,stim,false,2,398.0,0,0,1,31360,task3,1358152,false,false,1255,image-keyboard-response,7
true,17,0,2,0,true,q,false,true,0.0-2.0-0.41-0.373-3.373,1,0,1,81,false,stim,false,0,1247.9999999997672,0,1,0,31360,task3,1360905,false,false,1258,image-keyboard-response,8
true,17,0,2,0,true,q,false,true,0.0-2.0-0.41-0.374-3.374,1,0,1,81,false,stim,false,0,1686.0,0,1,0,31360,task3,1364097,false,false,1261,image-keyboard-response,9
true,17,0,2,1,false,z,true,true,0.0-2.0-0.41-0.375-3.375,1,0,1,81,false,stim,false,2,39.0,0,0,1,31360,task3,1365639,false,true,1264,image-keyboard-response,10
true,17,0,2,1,false,z,true,false,0.0-2.0-0.41-0.376-3.376,1,0,1,81,false,stim,false,2,1110.0,0,1,1,31360,task3,1368256,false,false,1267,image-keyboard-response,11
true,17,0,2,0,true,q,false,false,0.0-2.0-0.41-0.377-3.377,1,0,1,81,false,stim,false,0,1179.9999999997672,0,1,0,31360,task3,1370943,false,true,1270,image-keyboard-response,12
true,17,2,2,0,false,q,true,false,0.0-2.0-0.42-0.378-3.378,1,0,1,68,false,stim,false,0,813.0000000002328,0,0,2,31360,task3,1373263,false,false,1273,image-keyboard-response,13
true,17,1,2,1,true,z,false,true,0.0-2.0-0.42-0.379-3.379,1,0,1,90,false,stim,false,2,1132.0,0,1,1,31360,task3,1375902,false,false,1276,image-keyboard-response,14
true,17,2,2,0,false,q,true,false,0.0-2.0-0.42-0.380-3.380,1,0,1,68,false,stim,false,0,950.0000000002328,0,1,0,31360,task3,1378359,false,false,1279,image-keyboard-response,15
true,18,0,2,0,true,q,false,true,0.0-2.0-0.42-0.381-3.381,1,1,0,81,true,stim,false,0,521.0,0,1,0,31360,task3,1380386,false,false,1282,image-keyboard-response,1
true,18,0,2,1,false,z,true,false,0.0-2.0-0.42-0.382-3.382,1,1,0,81,false,stim,false,1,927.0000000002328,0,1,1,31360,task3,1382820,false,false,1285,image-keyboard-response,2
true,18,1,2,2,false,d,true,false,0.0-2.0-0.42-0.383-3.383,1,1,0,90,false,stim,false,0,761.0,0,0,2,31360,task3,1385087,false,false,1288,image-keyboard-response,3
true,18,0,2,0,true,q,false,true,0.0-2.0-0.42-0.384-3.384,1,1,0,81,false,stim,false,0,636.0,0,1,0,31360,task3,1387231,false,false,1291,image-keyboard-response,4
true,18,0,2,2,false,d,false,false,0.0-2.0-0.42-0.385-3.385,1,1,0,81,false,stim,true,0,1164.0,0,0,2,31360,task3,1389909,false,false,1294,image-keyboard-response,5
true,18,1,2,1,true,z,false,true,0.0-2.0-0.42-0.386-3.386,1,1,0,90,false,stim,false,1,783.9999999997672,0,1,1,31360,task3,1392200,false,false,1297,image-keyboard-response,6
true,18,1,2,2,false,d,true,false,0.0-2.0-0.43-0.387-3.387,1,1,0,90,false,stim,false,0,571.0,0,0,2,31360,task3,1394278,false,false,1300,image-keyboard-response,7
true,18,1,2,1,true,z,false,true,0.0-2.0-0.43-0.388-3.388,1,1,0,90,false,stim,false,1,885.0,0,1,1,31360,task3,1396677,false,false,1303,image-keyboard-response,8
true,18,0,2,0,true,q,false,true,0.0-2.0-0.43-0.389-3.389,1,1,0,81,false,stim,false,0,490.0,0,1,0,31360,task3,1398673,false,false,1306,image-keyboard-response,9
true,18,2,2,2,true,d,false,true,0.0-2.0-0.43-0.390-3.390,1,1,0,68,false,stim,false,0,1361.0,0,0,2,31360,task3,1401540,false,false,1309,image-keyboard-response,10
true,18,2,2,2,true,d,false,true,0.0-2.0-0.43-0.391-3.391,1,1,0,68,false,stim,false,0,661.0,0,1,2,31360,task3,1403707,false,false,1312,image-keyboard-response,11
true,18,0,2,0,true,q,false,true,0.0-2.0-0.43-0.392-3.392,1,1,0,81,false,stim,false,0,745.0,0,0,0,31360,task3,1405958,false,false,1315,image-keyboard-response,12
true,18,1,2,1,true,z,false,true,0.0-2.0-0.43-0.393-3.393,1,1,0,90,false,stim,false,1,560.0,0,0,1,31360,task3,1408028,false,false,1318,image-keyboard-response,13
true,18,0,2,0,true,q,false,false,0.0-2.0-0.43-0.394-3.394,1,1,0,81,false,stim,false,0,735.0,0,0,0,31360,task3,1410270,false,true,1321,image-keyboard-response,14
true,18,1,2,1,true,z,false,false,0.0-2.0-0.43-0.395-3.395,1,1,0,90,false,stim,false,1,721.0,0,0,1,31360,task3,1412498,false,true,1324,image-keyboard-response,15
true,19,1,1,0,false,q,false,false,0.0-2.0-0.44-0.396-3.396,0,0,1,90,true,stim,true,1,877.0,0,0,1,31360,task3,1414882,false,false,1327,image-keyboard-response,1
true,19,2,1,2,true,d,false,true,0.0-2.0-0.44-0.397-3.397,0,0,1,68,false,stim,false,2,843.0,0,1,2,31360,task3,1417232,false,false,1330,image-keyboard-response,2
true,19,1,1,2,false,d,true,false,0.0-2.0-0.44-0.398-3.398,0,0,1,90,false,stim,false,0,734.0,0,0,0,31360,task3,1419472,false,false,1333,image-keyboard-response,3
true,19,1,1,2,false,d,true,false,0.0-2.0-0.44-0.399-3.399,0,0,1,90,false,stim,false,0,874.0,0,0,0,31360,task3,1421851,false,false,1336,image-keyboard-response,4
true,19,1,1,0,false,q,false,false,0.0-2.0-0.44-0.400-3.400,0,0,1,90,false,stim,true,1,688.0,0,0,1,31360,task3,1424046,false,false,1339,image-keyboard-response,5
true,19,2,1,0,false,q,true,false,0.0-2.0-0.44-0.401-3.401,0,0,1,68,false,stim,false,1,971.0,0,0,1,31360,task3,1426524,false,false,1342,image-keyboard-response,6
true,19,2,1,2,true,d,false,true,0.0-2.0-0.44-0.402-3.402,0,0,1,68,false,stim,false,2,897.0,0,1,2,31360,task3,1428928,false,false,1345,image-keyboard-response,7
true,19,2,1,2,true,d,false,true,0.0-2.0-0.44-0.403-3.403,0,0,1,68,false,stim,false,2,705.0,0,1,2,31360,task3,1431140,false,false,1348,image-keyboard-response,8
true,19,0,1,2,false,d,false,false,0.0-2.0-0.44-0.404-3.404,0,0,1,81,false,stim,true,0,726.0,0,0,0,31360,task3,1433372,false,false,1351,image-keyboard-response,9
true,19,1,1,0,false,q,false,false,0.0-2.0-0.45-0.405-3.405,0,0,1,90,false,stim,true,1,764.0,0,0,1,31360,task3,1435643,false,false,1354,image-keyboard-response,10
true,19,2,1,2,true,d,false,true,0.0-2.0-0.45-0.406-3.406,0,0,1,68,false,stim,false,2,653.0,0,1,2,31360,task3,1437803,false,false,1357,image-keyboard-response,11
true,19,2,1,0,false,q,true,false,0.0-2.0-0.45-0.407-3.407,0,0,1,68,false,stim,false,1,560.0,0,0,1,31360,task3,1439870,false,false,1360,image-keyboard-response,12
true,19,2,1,2,true,d,false,true,0.0-2.0-0.45-0.408-3.408,0,0,1,68,false,stim,false,2,890.0,0,1,2,31360,task3,1442266,false,false,1363,image-keyboard-response,13
true,19,0,1,2,false,d,false,false,0.0-2.0-0.45-0.409-3.409,0,0,1,81,false,stim,true,0,715.0,0,0,0,31360,task3,1444489,false,false,1366,image-keyboard-response,14
true,19,1,1,2,false,d,true,false,0.0-2.0-0.45-0.410-3.410,0,0,1,90,false,stim,false,0,686.0,0,0,0,31360,task3,1446681,false,false,1369,image-keyboard-response,15
true,19,0,1,2,false,d,true,true,0.0-2.0-0.45-0.411-3.411,0,0,1,81,false,stim,false,2,751.0,0,1,2,31360,task3,1448938,false,true,1372,image-keyboard-response,16
true,19,0,1,0,true,q,false,true,0.0-2.0-0.45-0.412-3.412,0,0,1,81,false,stim,false,1,695.9999999997672,0,0,1,31360,task3,1451140,false,false,1375,image-keyboard-response,17
true,19,2,1,2,true,d,false,false,0.0-2.0-0.45-0.413-3.413,0,0,1,68,false,stim,false,0,900.9999999997672,0,0,0,31360,task3,1453548,false,true,1378,image-keyboard-response,18
true,19,0,1,2,false,d,true,false,0.0-2.0-0.46-0.414-3.414,0,0,1,81,false,stim,false,2,1296.0,0,1,2,31360,task3,1456351,false,false,1381,image-keyboard-response,19
true,19,2,1,2,true,d,false,true,0.0-2.0-0.46-0.415-3.415,0,0,1,68,false,stim,false,0,756.0,0,0,0,31360,task3,1458614,false,false,1384,image-keyboard-response,20
true,19,2,1,2,true,d,false,false,0.0-2.0-0.46-0.416-3.416,0,0,1,68,false,stim,false,0,530.0,0,0,0,31360,task3,1460651,false,true,1387,image-keyboard-response,21
true,19,0,1,2,false,d,true,false,0.0-2.0-0.46-0.417-3.417,0,0,1,81,false,stim,false,2,1310.0,0,1,2,31360,task3,1463467,false,false,1390,image-keyboard-response,22
true,19,1,1,0,false,q,false,false,0.0-2.0-0.46-0.418-3.418,0,0,1,90,false,stim,true,1,1025.0,0,1,1,31360,task3,1465998,false,false,1393,image-keyboard-response,23
true,19,2,1,2,true,d,false,true,0.0-2.0-0.46-0.419-3.419,0,0,1,68,false,stim,false,0,677.0,0,0,0,31360,task3,1468181,false,false,1396,image-keyboard-response,24
true,19,1,1,0,false,q,false,false,0.0-2.0-0.46-0.420-3.420,0,0,1,90,false,stim,true,1,2134.0,0,1,1,31360,task3,1471822,false,false,1399,image-keyboard-response,25
true,19,2,1,2,true,d,false,true,0.0-2.0-0.46-0.421-3.421,0,0,1,68,false,stim,false,2,753.0000000002328,0,0,2,31360,task3,1474089,false,false,1402,image-keyboard-response,26
true,19,2,1,0,false,q,true,false,0.0-2.0-0.46-0.422-3.422,0,0,1,68,false,stim,false,1,664.0,0,1,1,31360,task3,1476260,false,false,1405,image-keyboard-response,27
true,20,0,1,0,true,q,false,true,0.0-2.0-0.47-0.423-3.423,0,1,0,81,true,stim,false,0,911.0,0,1,1,31360,task3,1478679,false,false,1408,image-keyboard-response,1
true,20,2,1,1,false,z,false,false,0.0-2.0-0.47-0.424-3.424,0,1,0,68,false,stim,true,2,1157.9999999997672,0,0,0,31360,task3,1481344,false,false,1411,image-keyboard-response,2
true,20,2,1,0,false,q,false,false,0.0-2.0-0.47-0.425-3.425,0,1,0,68,false,stim,true,2,491.0,0,0,2,31360,task3,1483342,false,false,1414,image-keyboard-response,3
true,20,0,1,0,true,q,false,true,0.0-2.0-0.47-0.426-3.426,0,1,0,81,false,stim,false,0,1447.9999999997672,0,1,1,31360,task3,1486296,false,false,1417,image-keyboard-response,4
true,20,0,1,0,true,q,false,true,0.0-2.0-0.47-0.427-3.427,0,1,0,81,false,stim,false,0,467.0,0,1,1,31360,task3,1488270,false,false,1420,image-keyboard-response,5
true,20,2,1,0,false,q,false,false,0.0-2.0-0.47-0.428-3.428,0,1,0,68,false,stim,true,2,774.0000000002328,0,0,2,31360,task3,1490551,false,false,1423,image-keyboard-response,6
true,20,0,1,1,false,z,true,false,0.0-2.0-0.47-0.429-3.429,0,1,0,81,false,stim,false,2,941.0,0,0,0,31360,task3,1492999,false,false,1426,image-keyboard-response,7
true,20,2,1,0,false,q,false,false,0.0-2.0-0.47-0.430-3.430,0,1,0,68,false,stim,true,2,1166.0,0,0,2,31360,task3,1495672,false,false,1429,image-keyboard-response,8
true,20,0,1,1,false,z,true,true,0.0-2.0-0.47-0.431-3.431,0,1,0,81,false,stim,false,2,807.0,0,0,0,31360,task3,1497986,false,true,1432,image-keyboard-response,9
true,20,0,1,1,false,z,true,false,0.0-2.0-0.48-0.432-3.432,0,1,0,81,false,stim,false,2,581.0,0,0,0,31360,task3,1500074,false,false,1435,image-keyboard-response,10
true,20,0,1,1,false,z,true,false,0.0-2.0-0.48-0.433-3.433,0,1,0,81,false,stim,false,2,702.0,0,0,0,31360,task3,1502284,false,false,1438,image-keyboard-response,11
true,20,2,1,0,false,q,false,false,0.0-2.0-0.48-0.434-3.434,0,1,0,68,false,stim,true,2,731.0,0,0,2,31360,task3,1504521,false,false,1441,image-keyboard-response,12
true,20,1,1,0,false,q,true,false,0.0-2.0-0.48-0.435-3.435,0,1,0,90,false,stim,false,0,1103.0,0,1,1,31360,task3,1507132,false,false,1444,image-keyboard-response,13
true,20,0,1,0,true,q,false,true,0.0-2.0-0.48-0.436-3.436,0,1,0,81,false,stim,false,2,765.0,0,0,2,31360,task3,1509404,false,false,1447,image-keyboard-response,14
true,20,1,1,1,true,z,false,true,0.0-2.0-0.48-0.437-3.437,0,1,0,90,false,stim,false,2,884.0,0,0,0,31360,task3,1511795,false,false,1450,image-keyboard-response,15
true,20,2,1,0,false,q,true,true,0.0-2.0-0.48-0.438-3.438,0,1,0,68,false,stim,false,0,469.99999999976717,0,1,1,31360,task3,1513771,false,true,1453,image-keyboard-response,16
true,20,2,1,0,false,q,true,false,0.0-2.0-0.48-0.439-3.439,0,1,0,68,false,stim,false,0,915.0,0,1,1,31360,task3,1516192,false,false,1456,image-keyboard-response,17
true,20,0,1,0,true,q,false,true,0.0-2.0-0.48-0.440-3.440,0,1,0,81,false,stim,false,2,896.0,0,0,2,31360,task3,1518594,false,false,1459,image-keyboard-response,18
true,20,0,1,0,true,q,false,true,0.0-2.0-0.49-0.441-3.441,0,1,0,81,false,stim,false,2,675.0,0,0,2,31360,task3,1520776,false,false,1462,image-keyboard-response,19
true,20,2,1,0,false,q,true,false,0.0-2.0-0.49-0.442-3.442,0,1,0,68,false,stim,false,0,1280.0,0,1,1,31360,task3,1523562,false,false,1465,image-keyboard-response,20
true,20,1,1,0,false,q,true,false,0.0-2.0-0.49-0.443-3.443,0,1,0,90,false,stim,false,0,760.0,0,1,1,31360,task3,1525830,false,false,1468,image-keyboard-response,21
true,20,0,1,0,true,q,false,true,0.0-2.0-0.49-0.444-3.444,0,1,0,81,false,stim,false,2,661.0,0,1,2,31360,task3,1527997,false,false,1471,image-keyboard-response,22
true,20,0,1,0,true,q,false,true,0.0-2.0-0.49-0.445-3.445,0,1,0,81,false,stim,false,2,575.0000000002328,0,1,2,31360,task3,1530080,false,false,1474,image-keyboard-response,23
true,20,0,1,1,false,z,true,true,0.0-2.0-0.49-0.446-3.446,0,1,0,81,false,stim,false,2,703.0,0,0,0,31360,task3,1532290,false,true,1477,image-keyboard-response,24
true,21,0,2,2,false,d,true,false,0.0-2.0-0.49-0.447-3.447,0,1,1,81,true,stim,false,1,491.0,0,0,0,31360,task3,1534287,false,false,1480,image-keyboard-response,1
true,21,1,2,2,false,d,false,false,0.0-2.0-0.49-0.448-3.448,0,1,1,90,false,stim,true,1,657.0,0,0,0,31360,task3,1536452,false,false,1483,image-keyboard-response,2
true,21,0,2,0,true,q,false,true,0.0-2.0-0.49-0.449-3.449,0,1,1,81,false,stim,false,0,692.0,0,1,1,31360,task3,1538650,false,false,1486,image-keyboard-response,3
true,21,0,2,2,false,d,true,false,0.0-2.0-0.50-0.450-3.450,0,1,1,81,false,stim,false,1,892.9999999997672,0,0,0,31360,task3,1541050,false,false,1489,image-keyboard-response,4
true,21,0,2,0,true,q,false,true,0.0-2.0-0.50-0.451-3.451,0,1,1,81,false,stim,false,0,780.0,0,1,2,31360,task3,1543335,false,false,1492,image-keyboard-response,5
true,21,0,2,0,true,q,false,true,0.0-2.0-0.50-0.452-3.452,0,1,1,81,false,stim,false,0,1044.0000000002328,0,1,1,31360,task3,1545887,false,false,1495,image-keyboard-response,6
true,21,0,2,0,true,q,false,true,0.0-2.0-0.50-0.453-3.453,0,1,1,81,false,stim,false,0,745.0,0,1,1,31360,task3,1548140,false,false,1498,image-keyboard-response,7
true,21,0,2,0,true,q,false,true,0.0-2.0-0.50-0.454-3.454,0,1,1,81,false,stim,false,0,763.9999999997672,0,1,2,31360,task3,1550421,false,false,1501,image-keyboard-response,8
true,21,0,2,0,true,q,false,false,0.0-2.0-0.50-0.455-3.455,0,1,1,81,false,stim,false,0,492.0,0,0,1,31360,task3,1552419,false,true,1504,image-keyboard-response,9
true,21,1,2,2,false,d,false,false,0.0-2.0-0.50-0.456-3.456,0,1,1,90,false,stim,true,1,717.0,0,1,0,31360,task3,1554643,false,false,1507,image-keyboard-response,10
true,21,2,2,2,true,d,false,true,0.0-2.0-0.50-0.457-3.457,0,1,1,68,false,stim,false,1,723.0,0,1,0,31360,task3,1556873,false,false,1510,image-keyboard-response,11
true,21,0,2,0,true,q,false,true,0.0-2.0-0.50-0.458-3.458,0,1,1,81,false,stim,false,0,742.0,0,1,2,31360,task3,1559122,false,false,1513,image-keyboard-response,12
true,21,2,2,2,true,d,false,true,0.0-2.0-0.51-0.459-3.459,0,1,1,68,false,stim,false,1,593.0,0,1,0,31360,task3,1561223,false,false,1516,image-keyboard-response,13
true,22,2,2,2,true,d,false,true,0.0-2.0-0.51-0.460-3.460,1,0,1,68,true,stim,false,2,530.0,0,1,0,31360,task3,1563259,false,false,1519,image-keyboard-response,1
true,22,2,2,2,true,d,false,true,0.0-2.0-0.51-0.461-3.461,1,0,1,68,false,stim,false,2,691.0,0,1,0,31360,task3,1565457,false,false,1522,image-keyboard-response,2
true,22,2,2,0,false,q,true,false,0.0-2.0-0.51-0.462-3.462,1,0,1,68,false,stim,false,0,492.00000000023283,0,1,2,31360,task3,1567454,false,false,1525,image-keyboard-response,3
true,22,0,2,0,true,q,false,true,0.0-2.0-0.51-0.463-3.463,1,0,1,81,false,stim,false,0,415.0,0,1,2,31360,task3,1569376,false,false,1528,image-keyboard-response,4
true,22,0,2,1,false,z,false,false,0.0-2.0-0.51-0.464-3.464,1,0,1,81,false,stim,true,0,1134.0,0,0,1,31360,task3,1572018,false,false,1531,image-keyboard-response,5
true,22,0,2,1,false,z,false,false,0.0-2.0-0.51-0.465-3.465,1,0,1,81,false,stim,true,0,1056.0000000002328,0,0,1,31360,task3,1574579,false,false,1534,image-keyboard-response,6
true,22,0,2,0,true,q,false,true,0.0-2.0-0.51-0.466-3.466,1,0,1,81,false,stim,false,0,798.0,0,1,2,31360,task3,1576884,false,false,1537,image-keyboard-response,7
true,22,2,2,1,false,z,true,false,0.0-2.0-0.51-0.467-3.467,1,0,1,68,false,stim,false,0,578.0,0,0,1,31360,task3,1578968,false,false,1540,image-keyboard-response,8
true,22,0,2,0,true,q,false,false,0.0-2.0-0.52-0.468-3.468,1,0,1,81,false,stim,false,0,819.0,0,1,2,31360,task3,1581294,false,true,1543,image-keyboard-response,9
true,22,1,2,1,true,z,false,true,0.0-2.0-0.52-0.469-3.469,1,0,1,90,false,stim,false,0,583.0,0,1,1,31360,task3,1583383,false,false,1546,image-keyboard-response,10
true,22,1,2,1,true,z,false,true,0.0-2.0-0.52-0.470-3.470,1,0,1,90,false,stim,false,0,1138.0,0,1,1,31360,task3,1586028,false,false,1549,image-keyboard-response,11
true,22,0,2,0,true,q,false,true,0.0-2.0-0.52-0.471-3.471,1,0,1,81,false,stim,false,0,604.0,0,0,2,31360,task3,1588138,false,false,1552,image-keyboard-response,12
true,22,2,2,2,true,d,false,true,0.0-2.0-0.52-0.472-3.472,1,0,1,68,false,stim,false,2,761.0,0,1,0,31360,task3,1590405,false,false,1555,image-keyboard-response,13
true,22,2,2,2,true,d,false,true,0.0-2.0-0.52-0.473-3.473,1,0,1,68,false,stim,false,2,958.0,0,1,0,31360,task3,1592870,false,false,1558,image-keyboard-response,14
true,23,0,2,2,false,d,false,false,0.0-2.0-0.52-0.474-3.474,1,1,0,81,true,stim,true,0,764.9999999997672,0,0,2,31360,task3,1595142,false,false,1561,image-keyboard-response,1
true,23,1,2,1,true,z,false,true,0.0-2.0-0.52-0.475-3.475,1,1,0,90,false,stim,false,1,548.0,0,1,1,31360,task3,1597196,false,false,1564,image-keyboard-response,2
true,23,2,2,2,true,d,false,true,0.0-2.0-0.52-0.476-3.476,1,1,0,68,false,stim,false,2,491.0,0,1,0,31360,task3,1599193,false,false,1567,image-keyboard-response,3
true,23,0,2,2,false,d,false,false,0.0-2.0-0.53-0.477-3.477,1,1,0,81,false,stim,true,0,1382.0,0,0,2,31360,task3,1602082,false,false,1570,image-keyboard-response,4
true,23,2,2,2,true,d,false,true,0.0-2.0-0.53-0.478-3.478,1,1,0,68,false,stim,false,2,1112.9999999997672,0,1,0,31360,task3,1604701,false,false,1573,image-keyboard-response,5
true,23,2,2,2,true,d,false,true,0.0-2.0-0.53-0.479-3.479,1,1,0,68,false,stim,false,2,622.0,0,1,0,31360,task3,1606831,false,false,1576,image-keyboard-response,6
true,23,0,2,2,false,d,false,false,0.0-2.0-0.53-0.480-3.480,1,1,0,81,false,stim,true,0,1821.0,0,0,2,31360,task3,1610159,false,false,1579,image-keyboard-response,7
true,23,1,2,1,true,z,false,true,0.0-2.0-0.53-0.481-3.481,1,1,0,90,false,stim,false,1,661.9999999997672,0,1,1,31360,task3,1612327,false,false,1582,image-keyboard-response,8
true,23,1,2,1,true,z,false,true,0.0-2.0-0.53-0.482-3.482,1,1,0,90,false,stim,false,1,1627.0,0,1,1,31360,task3,1615461,false,false,1585,image-keyboard-response,9
true,23,1,2,1,true,z,false,true,0.0-2.0-0.53-0.483-3.483,1,1,0,90,false,stim,false,1,795.0000000002328,0,1,1,31360,task3,1617762,false,false,1588,image-keyboard-response,10
true,23,0,2,2,false,d,false,false,0.0-2.0-0.53-0.484-3.484,1,1,0,81,false,stim,true,0,1359.0,0,1,2,31360,task3,1620629,false,false,1591,image-keyboard-response,11
true,23,2,2,2,true,d,false,true,0.0-2.0-0.53-0.485-3.485,1,1,0,68,false,stim,false,2,620.0,0,0,0,31360,task3,1622756,false,false,1594,image-keyboard-response,12
true,23,1,2,1,true,z,false,true,0.0-2.0-0.54-0.486-3.486,1,1,0,90,false,stim,false,1,867.0,0,0,1,31360,task3,1625130,false,false,1597,image-keyboard-response,13
true,23,1,2,1,true,z,false,true,0.0-2.0-0.54-0.487-3.487,1,1,0,90,false,stim,false,1,735.9999999997672,0,0,1,31360,task3,1627373,false,false,1600,image-keyboard-response,14
true,23,2,2,2,true,d,false,true,0.0-2.0-0.54-0.488-3.488,1,1,0,68,false,stim,false,2,866.0,0,0,0,31360,task3,1629753,false,false,1603,image-keyboard-response,15
true,24,2,1,0,false,q,false,false,0.0-2.0-0.54-0.489-3.489,0,0,1,68,true,stim,true,2,558.0,0,0,0,31360,task3,1631815,false,false,1606,image-keyboard-response,1
true,24,0,1,2,false,d,true,false,0.0-2.0-0.54-0.490-3.490,0,0,1,81,false,stim,false,2,1085.0,0,1,2,31360,task3,1634407,false,false,1609,image-keyboard-response,2
true,24,1,1,2,false,d,true,false,0.0-2.0-0.54-0.491-3.491,0,0,1,90,false,stim,false,2,653.0,0,1,2,31360,task3,1636566,false,false,1612,image-keyboard-response,3
true,24,2,1,2,true,d,false,true,0.0-2.0-0.54-0.492-3.492,0,0,1,68,false,stim,false,2,399.0,0,1,2,31360,task3,1638472,false,false,1615,image-keyboard-response,4
true,24,2,1,0,false,q,false,false,0.0-2.0-0.54-0.493-3.493,0,0,1,68,false,stim,true,2,613.0,0,0,0,31360,task3,1640592,false,false,1618,image-keyboard-response,5
true,24,0,1,0,true,q,false,true,0.0-2.0-0.54-0.494-3.494,0,0,1,81,false,stim,false,1,952.0,0,0,1,31360,task3,1643050,false,false,1621,image-keyboard-response,6
true,24,2,1,2,true,d,false,true,0.0-2.0-0.55-0.495-3.495,0,0,1,68,false,stim,false,2,1613.0,0,1,2,31360,task3,1646170,false,false,1624,image-keyboard-response,7
true,24,2,1,2,true,d,false,true,0.0-2.0-0.55-0.496-3.496,0,0,1,68,false,stim,false,2,513.0,0,1,2,31360,task3,1648190,false,false,1627,image-keyboard-response,8
true,24,2,1,2,true,d,false,true,0.0-2.0-0.55-0.497-3.497,0,0,1,68,false,stim,false,2,575.0000000002328,0,1,2,31360,task3,1650271,false,false,1630,image-keyboard-response,9
true,24,2,1,0,false,q,true,false,0.0-2.0-0.55-0.498-3.498,0,0,1,68,false,stim,false,1,416.00000000023283,0,0,1,31360,task3,1652195,false,false,1633,image-keyboard-response,10
true,24,1,1,0,false,q,true,false,0.0-2.0-0.55-0.499-3.499,0,0,1,90,false,stim,false,2,866.0,0,0,0,31360,task3,1654567,false,false,1636,image-keyboard-response,11
true,24,0,1,0,true,q,false,true,0.0-2.0-0.55-0.500-3.500,0,0,1,81,false,stim,false,1,779.0,0,0,1,31360,task3,1656853,false,false,1639,image-keyboard-response,12
true,24,2,1,0,false,q,false,false,0.0-2.0-0.55-0.501-3.501,0,0,1,68,false,stim,true,2,1768.0,0,0,0,31360,task3,1660128,false,false,1642,image-keyboard-response,13
true,24,1,1,0,false,q,true,false,0.0-2.0-0.55-0.502-3.502,0,0,1,90,false,stim,false,2,922.0,0,0,0,31360,task3,1662557,false,false,1645,image-keyboard-response,14
true,24,0,1,0,true,q,false,true,0.0-2.0-0.55-0.503-3.503,0,0,1,81,false,stim,false,1,791.0,0,0,1,31360,task3,1664855,false,false,1648,image-keyboard-response,15
true,24,0,1,0,true,q,false,true,0.0-2.0-0.56-0.504-3.504,0,0,1,81,false,stim,false,2,462.0,0,0,0,31360,task3,1666827,false,false,1651,image-keyboard-response,16
true,24,2,1,2,true,d,false,true,0.0-2.0-0.56-0.505-3.505,0,0,1,68,false,stim,false,2,569.0,0,1,2,31360,task3,1668903,false,false,1654,image-keyboard-response,17
true,24,0,1,0,true,q,false,true,0.0-2.0-0.56-0.506-3.506,0,0,1,81,false,stim,false,1,686.0,0,0,1,31360,task3,1671096,false,false,1657,image-keyboard-response,18
true,24,0,1,0,true,q,false,true,0.0-2.0-0.56-0.507-3.507,0,0,1,81,false,stim,false,2,491.0,0,0,0,31360,task3,1673094,false,false,1660,image-keyboard-response,19
true,24,0,1,0,true,q,false,false,0.0-2.0-0.56-0.508-3.508,0,0,1,81,false,stim,false,1,715.0,0,0,1,31360,task3,1675316,false,true,1663,image-keyboard-response,20
true,24,0,1,0,true,q,false,true,0.0-2.0-0.56-0.509-3.509,0,0,1,81,false,stim,false,2,572.0,0,1,0,31360,task3,1677395,false,false,1666,image-keyboard-response,21
true,24,2,1,2,true,d,false,true,0.0-2.0-0.56-0.510-3.510,0,0,1,68,false,stim,false,2,844.0,0,0,2,31360,task3,1679746,false,false,1669,image-keyboard-response,22
true,24,0,1,0,true,q,false,true,0.0-2.0-0.56-0.511-3.511,0,0,1,81,false,stim,false,1,661.0,0,0,1,31360,task3,1681914,false,false,1672,image-keyboard-response,23
true,24,2,1,2,true,d,false,true,0.0-2.0-0.56-0.512-3.512,0,0,1,68,false,stim,false,2,896.0,0,0,2,31360,task3,1684317,false,false,1675,image-keyboard-response,24
true,25,2,1,1,false,z,false,false,0.0-2.0-0.57-0.513-3.513,1,0,0,68,true,stim,true,2,849.0,0,0,2,31360,task3,1686676,false,false,1678,image-keyboard-response,1
true,25,0,1,0,true,q,false,true,0.0-2.0-0.57-0.514-3.514,1,0,0,81,false,stim,false,0,694.0000000002328,0,1,0,31360,task3,1688877,false,false,1681,image-keyboard-response,2
true,25,2,1,1,false,z,false,false,0.0-2.0-0.57-0.515-3.515,1,0,0,68,false,stim,true,2,604.0,0,0,2,31360,task3,1690988,false,false,1684,image-keyboard-response,3
true,25,0,1,0,true,q,false,true,0.0-2.0-0.57-0.516-3.516,1,0,0,81,false,stim,false,0,430.0,0,1,0,31360,task3,1692924,false,false,1687,image-keyboard-response,4
true,25,0,1,0,true,q,false,true,0.0-2.0-0.57-0.517-3.517,1,0,0,81,false,stim,false,0,647.0,0,1,0,31360,task3,1695077,false,false,1690,image-keyboard-response,5
true,25,0,1,2,false,d,false,false,0.0-2.0-0.57-0.518-3.518,1,0,0,81,false,stim,true,0,1161.0,0,0,1,31360,task3,1697745,false,false,1693,image-keyboard-response,6
true,25,0,1,2,false,d,false,false,0.0-2.0-0.57-0.519-3.519,1,0,0,81,false,stim,true,0,685.9999999997672,0,0,1,31360,task3,1699938,false,false,1696,image-keyboard-response,7
true,25,2,1,2,true,d,false,true,0.0-2.0-0.57-0.520-3.520,1,0,0,68,false,stim,false,0,1158.0,0,0,1,31360,task3,1702603,false,false,1699,image-keyboard-response,8
true,25,2,1,1,false,z,false,false,0.0-2.0-0.57-0.521-3.521,1,0,0,68,false,stim,true,2,743.0,0,0,2,31360,task3,1704862,false,false,1702,image-keyboard-response,9
true,25,0,1,1,false,z,true,false,0.0-2.0-0.58-0.522-3.522,1,0,0,81,false,stim,false,2,837.0,0,1,2,31360,task3,1707209,false,false,1705,image-keyboard-response,10
true,25,2,1,2,true,d,false,true,0.0-2.0-0.58-0.523-3.523,1,0,0,68,false,stim,false,0,840.0,0,1,1,31360,task3,1709555,false,false,1708,image-keyboard-response,11
true,25,0,1,0,true,q,false,true,0.0-2.0-0.58-0.524-3.524,1,0,0,81,false,stim,false,0,794.0000000002328,0,1,0,31360,task3,1711857,false,false,1711,image-keyboard-response,12
true,25,0,1,1,false,z,true,false,0.0-2.0-0.58-0.525-3.525,1,0,0,81,false,stim,false,2,1088.0,0,1,2,31360,task3,1714453,false,false,1714,image-keyboard-response,13
true,25,0,1,0,true,q,false,true,0.0-2.0-0.58-0.526-3.526,1,0,0,81,false,stim,false,0,653.0,0,1,0,31360,task3,1716613,false,false,1717,image-keyboard-response,14
true,26,0,0,1,false,z,true,false,0.0-2.0-0.58-0.527-3.527,1,1,1,81,true,stim,false,1,819.0,0,1,2,31360,task3,1839265,false,false,1840,image-keyboard-response,1
true,26,1,0,0,false,q,true,false,0.0-2.0-0.58-0.528-3.528,1,1,1,90,false,stim,false,0,564.0,0,1,0,31360,task3,1841337,false,false,1843,image-keyboard-response,2
true,26,2,0,2,true,d,false,false,0.0-2.0-0.58-0.529-3.529,1,1,1,68,false,stim,false,2,528.0,0,1,1,31360,task3,1843372,false,true,1846,image-keyboard-response,3
true,26,1,0,2,false,d,true,true,0.0-2.0-0.58-0.530-3.530,1,1,1,90,false,stim,false,2,969.0000000002328,0,1,1,31360,task3,1845849,false,true,1849,image-keyboard-response,4
true,26,2,0,1,false,z,true,false,0.0-2.0-0.59-0.531-3.531,1,1,1,68,false,stim,false,1,784.0,0,1,2,31360,task3,1848141,false,false,1852,image-keyboard-response,5
true,26,0,0,1,false,z,true,false,0.0-2.0-0.59-0.532-3.532,1,1,1,81,false,stim,false,1,685.9999999997672,0,1,2,31360,task3,1850333,false,false,1855,image-keyboard-response,6
true,26,0,0,0,true,q,false,true,0.0-2.0-0.59-0.533-3.533,1,1,1,81,false,stim,false,0,926.0,0,0,0,31360,task3,1852767,false,false,1858,image-keyboard-response,7
true,26,0,0,2,false,d,true,false,0.0-2.0-0.59-0.534-3.534,1,1,1,81,false,stim,false,2,913.0,0,1,1,31360,task3,1855187,false,false,1861,image-keyboard-response,8
true,26,1,0,2,false,d,true,false,0.0-2.0-0.59-0.535-3.535,1,1,1,90,false,stim,false,2,772.9999999997672,0,1,1,31360,task3,1857467,false,false,1864,image-keyboard-response,9
true,26,1,0,1,true,z,false,true,0.0-2.0-0.59-0.536-3.536,1,1,1,90,false,stim,false,1,948.0,0,0,2,31360,task3,1859924,false,false,1867,image-keyboard-response,10
true,26,0,0,0,true,q,false,true,0.0-2.0-0.59-0.537-3.537,1,1,1,81,false,stim,false,0,674.0,0,0,0,31360,task3,1862105,false,false,1870,image-keyboard-response,11
true,27,1,1,2,false,d,true,false,0.0-2.0-0.59-0.538-3.538,0,1,0,90,true,stim,false,2,408.0,0,1,1,31360,task3,1864017,false,false,1873,image-keyboard-response,1
true,27,0,1,1,false,z,false,false,0.0-2.0-0.59-0.539-3.539,0,1,0,81,false,stim,true,0,807.0,0,0,0,31360,task3,1866331,false,false,1876,image-keyboard-response,2
true,27,0,1,2,false,d,true,false,0.0-2.0-0.60-0.540-3.540,0,1,0,81,false,stim,false,1,675.0,0,0,2,31360,task3,1868515,false,false,1879,image-keyboard-response,3
true,27,1,1,2,false,d,false,true,0.0-2.0-0.60-0.541-3.541,0,1,0,90,false,stim,true,1,363.0,0,0,2,31360,task3,1870386,false,true,1882,image-keyboard-response,4
true,27,1,1,2,false,d,true,false,0.0-2.0-0.60-0.542-3.542,0,1,0,90,false,stim,false,2,412.0,0,1,1,31360,task3,1872304,false,false,1885,image-keyboard-response,5
true,27,2,1,2,true,d,false,true,0.0-2.0-0.60-0.543-3.543,0,1,0,68,false,stim,false,2,583.0,0,1,1,31360,task3,1874394,false,false,1888,image-keyboard-response,6
true,27,0,1,1,false,z,false,false,0.0-2.0-0.60-0.544-3.544,0,1,0,81,false,stim,true,0,707.0000000002328,0,0,0,31360,task3,1876608,false,false,1891,image-keyboard-response,7
true,27,2,1,1,false,z,true,true,0.0-2.0-0.60-0.545-3.545,0,1,0,68,false,stim,false,0,1102.9999999997672,0,0,0,31360,task3,1879220,false,true,1894,image-keyboard-response,8
true,27,1,1,2,false,d,true,false,0.0-2.0-0.60-0.546-3.546,0,1,0,90,false,stim,false,2,904.0,0,1,1,31360,task3,1881629,false,false,1897,image-keyboard-response,9
true,27,1,1,2,false,d,false,false,0.0-2.0-0.60-0.547-3.547,0,1,0,90,false,stim,true,1,987.9999999997672,0,0,2,31360,task3,1884124,false,false,1900,image-keyboard-response,10
true,27,2,1,1,false,z,true,false,0.0-2.0-0.60-0.548-3.548,0,1,0,68,false,stim,false,0,1091.0,0,0,0,31360,task3,1886734,false,false,1903,image-keyboard-response,11
true,27,0,1,2,false,d,true,false,0.0-2.0-0.61-0.549-3.549,0,1,0,81,false,stim,false,2,669.9999999997672,0,1,1,31360,task3,1888912,false,false,1906,image-keyboard-response,12
true,27,1,1,2,false,d,false,false,0.0-2.0-0.61-0.550-3.550,0,1,0,90,false,stim,true,1,709.0,0,0,2,31360,task3,1891128,false,false,1909,image-keyboard-response,13
true,27,2,1,1,false,z,true,false,0.0-2.0-0.61-0.551-3.551,0,1,0,68,false,stim,false,0,1295.9999999997672,0,0,0,31360,task3,1893932,false,false,1912,image-keyboard-response,14
true,27,1,1,2,false,d,true,false,0.0-2.0-0.61-0.552-3.552,0,1,0,90,false,stim,false,2,1490.0,0,1,1,31360,task3,1896930,false,false,1915,image-keyboard-response,15
true,27,0,1,1,false,z,false,false,0.0-2.0-0.61-0.553-3.553,0,1,0,81,false,stim,true,0,383.00000000023283,0,0,0,31360,task3,1898818,false,false,1918,image-keyboard-response,16
true,27,1,1,1,true,z,false,true,0.0-2.0-0.61-0.554-3.554,0,1,0,90,false,stim,false,0,374.0,0,0,0,31360,task3,1900699,false,false,1921,image-keyboard-response,17
true,27,0,1,2,false,d,true,false,0.0-2.0-0.61-0.555-3.555,0,1,0,81,false,stim,false,2,790.0,0,1,1,31360,task3,1902996,false,false,1924,image-keyboard-response,18
true,27,2,1,2,true,d,false,true,0.0-2.0-0.61-0.556-3.556,0,1,0,68,false,stim,false,1,611.0,0,0,2,31360,task3,1905115,false,false,1927,image-keyboard-response,19
true,27,2,1,2,true,d,false,true,0.0-2.0-0.61-0.557-3.557,0,1,0,68,false,stim,false,1,612.0,0,0,2,31360,task3,1907237,false,false,1930,image-keyboard-response,20
true,27,2,1,1,false,z,true,false,0.0-2.0-0.62-0.558-3.558,0,1,0,68,false,stim,false,0,719.0,0,1,0,31360,task3,1909464,false,false,1933,image-keyboard-response,21
true,27,0,1,2,false,d,true,false,0.0-2.0-0.62-0.559-3.559,0,1,0,81,false,stim,false,1,694.0000000002328,0,0,2,31360,task3,1911664,false,false,1936,image-keyboard-response,22
true,27,2,1,2,true,d,false,true,0.0-2.0-0.62-0.560-3.560,0,1,0,68,false,stim,false,1,720.0,0,0,2,31360,task3,1913890,false,false,1939,image-keyboard-response,23
true,27,2,1,2,true,d,false,true,0.0-2.0-0.62-0.561-3.561,0,1,0,68,false,stim,false,2,503.0,0,1,1,31360,task3,1915900,false,false,1942,image-keyboard-response,24
true,27,2,1,2,true,d,false,true,0.0-2.0-0.62-0.562-3.562,0,1,0,68,false,stim,false,2,493.0,0,1,1,31360,task3,1917899,false,false,1945,image-keyboard-response,25
true,28,1,2,1,true,z,false,true,0.0-2.0-0.62-0.563-3.563,1,1,0,90,true,stim,false,1,597.0,0,1,0,31360,task3,1920004,false,false,1948,image-keyboard-response,1
true,28,2,2,2,true,d,false,true,0.0-2.0-0.62-0.564-3.564,1,1,0,68,false,stim,false,2,1007.9999999997672,0,1,1,31360,task3,1922518,false,false,1951,image-keyboard-response,2
true,28,2,2,0,false,q,false,false,0.0-2.0-0.62-0.565-3.565,1,1,0,68,false,stim,true,2,1226.0,0,0,2,31360,task3,1925250,false,false,1954,image-keyboard-response,3
true,28,1,2,1,true,z,false,true,0.0-2.0-0.62-0.566-3.566,1,1,0,90,false,stim,false,1,1199.0,0,1,0,31360,task3,1927956,false,false,1957,image-keyboard-response,4
true,28,2,2,2,true,d,false,true,0.0-2.0-0.63-0.567-3.567,1,1,0,68,false,stim,false,2,815.0000000002328,0,1,1,31360,task3,1930280,false,false,1960,image-keyboard-response,5
true,28,2,2,0,false,q,false,false,0.0-2.0-0.63-0.568-3.568,1,1,0,68,false,stim,true,2,976.0,0,0,2,31360,task3,1932763,false,false,1963,image-keyboard-response,6
true,28,2,2,0,false,q,false,false,0.0-2.0-0.63-0.569-3.569,1,1,0,68,false,stim,true,2,904.9999999997672,0,0,2,31360,task3,1935175,false,false,1966,image-keyboard-response,7
true,28,2,2,0,false,q,false,true,0.0-2.0-0.63-0.570-3.570,1,1,0,68,false,stim,true,2,531.0,0,0,2,31360,task3,1937216,false,true,1969,image-keyboard-response,8
true,28,1,2,1,true,z,false,true,0.0-2.0-0.63-0.571-3.571,1,1,0,90,false,stim,false,1,1252.9999999997672,0,1,0,31360,task3,1939976,false,false,1972,image-keyboard-response,9
true,28,1,2,1,true,z,false,false,0.0-2.0-0.63-0.572-3.572,1,1,0,90,false,stim,false,1,674.9999999997672,0,1,0,31360,task3,1942156,false,true,1975,image-keyboard-response,10
true,28,1,2,1,true,z,false,true,0.0-2.0-0.63-0.573-3.573,1,1,0,90,false,stim,false,1,443.0,0,1,0,31360,task3,1944109,false,false,1978,image-keyboard-response,11
true,28,2,2,2,true,d,false,true,0.0-2.0-0.63-0.574-3.574,1,1,0,68,false,stim,false,2,1107.9999999997672,0,1,1,31360,task3,1946724,false,false,1981,image-keyboard-response,12
true,28,2,2,2,true,d,false,true,0.0-2.0-0.63-0.575-3.575,1,1,0,68,false,stim,false,2,670.0,0,1,1,31360,task3,1948901,false,false,1984,image-keyboard-response,13
true,28,1,2,1,true,z,false,true,0.0-2.0-0.64-0.576-3.576,1,1,0,90,false,stim,false,1,1367.0,0,1,0,31360,task3,1951776,false,false,1987,image-keyboard-response,14
true,28,1,2,1,true,z,false,false,0.0-2.0-0.64-0.577-3.577,1,1,0,90,false,stim,false,1,479.0,0,1,0,31360,task3,1953764,false,true,1990,image-keyboard-response,15
true,28,2,2,0,false,q,false,true,0.0-2.0-0.64-0.578-3.578,1,1,0,68,false,stim,true,2,843.0,0,0,2,31360,task3,1956112,false,true,1993,image-keyboard-response,16
true,28,2,2,2,true,d,false,true,0.0-2.0-0.64-0.579-3.579,1,1,0,68,false,stim,false,2,1016.0000000002328,0,1,1,31360,task3,1958636,false,false,1996,image-keyboard-response,17
true,28,2,2,2,true,d,false,true,0.0-2.0-0.64-0.580-3.580,1,1,0,68,false,stim,false,2,713.0,0,1,1,31360,task3,1960856,false,false,1999,image-keyboard-response,18
true,28,2,2,2,true,d,false,true,0.0-2.0-0.64-0.581-3.581,1,1,0,68,false,stim,false,2,772.0,0,1,1,31360,task3,1963149,false,false,2002,image-keyboard-response,19
true,28,2,2,0,false,q,false,false,0.0-2.0-0.64-0.582-3.582,1,1,0,68,false,stim,true,2,929.0,0,0,2,31360,task3,1965585,false,false,2005,image-keyboard-response,20
true,28,0,2,0,true,q,false,true,0.0-2.0-0.64-0.583-3.583,1,1,0,81,false,stim,false,2,411.0,0,0,2,31360,task3,1967503,false,false,2008,image-keyboard-response,21
true,28,1,2,1,true,z,false,true,0.0-2.0-0.64-0.584-3.584,1,1,0,90,false,stim,false,1,846.0,0,1,0,31360,task3,1969853,false,false,2011,image-keyboard-response,22
true,28,0,2,1,false,z,true,false,0.0-2.0-0.65-0.585-3.585,1,1,0,81,false,stim,false,1,1195.0,0,1,0,31360,task3,1972556,false,false,2014,image-keyboard-response,23
true,28,2,2,2,true,d,false,true,0.0-2.0-0.65-0.586-3.586,1,1,0,68,false,stim,false,2,1123.0,0,1,1,31360,task3,1975185,false,false,2017,image-keyboard-response,24
true,28,1,2,1,true,z,false,true,0.0-2.0-0.65-0.587-3.587,1,1,0,90,false,stim,false,1,960.9999999997672,0,1,0,31360,task3,1977653,false,false,2020,image-keyboard-response,25
true,28,2,2,2,true,d,false,true,0.0-2.0-0.65-0.588-3.588,1,1,0,68,false,stim,false,2,1399.0000000002328,0,1,1,31360,task3,1980558,false,false,2023,image-keyboard-response,26
true,28,0,2,0,true,q,false,true,0.0-2.0-0.65-0.589-3.589,1,1,0,81,false,stim,false,2,445.0,0,0,2,31360,task3,1982508,false,false,2026,image-keyboard-response,27
true,29,0,2,2,false,d,true,false,0.0-2.0-0.65-0.590-3.590,1,1,0,81,true,stim,false,2,517.0,0,1,1,31360,task3,1984533,false,false,2029,image-keyboard-response,1
true,29,0,2,1,false,z,false,true,0.0-2.0-0.65-0.591-3.591,1,1,0,81,false,stim,true,0,683.0,0,0,2,31360,task3,1986722,false,true,2032,image-keyboard-response,2
true,29,0,2,1,false,z,false,false,0.0-2.0-0.65-0.592-3.592,1,1,0,81,false,stim,true,0,1196.0,0,0,2,31360,task3,1989424,false,false,2035,image-keyboard-response,3
true,29,1,2,1,true,z,false,true,0.0-2.0-0.65-0.593-3.593,1,1,0,90,false,stim,false,1,672.9999999997672,0,1,0,31360,task3,1991606,false,false,2038,image-keyboard-response,4
true,29,2,2,1,false,z,true,true,0.0-2.0-0.66-0.594-3.594,1,1,0,68,false,stim,false,0,799.0,0,0,2,31360,task3,1993912,false,true,2041,image-keyboard-response,5
true,29,2,2,1,false,z,true,true,0.0-2.0-0.66-0.595-3.595,1,1,0,68,false,stim,false,0,506.0,0,0,2,31360,task3,1995924,false,true,2044,image-keyboard-response,6
true,29,0,2,2,false,d,true,false,0.0-2.0-0.66-0.596-3.596,1,1,0,81,false,stim,false,2,602.0,0,1,1,31360,task3,1998034,false,false,2047,image-keyboard-response,7
true,29,1,2,1,true,z,false,true,0.0-2.0-0.66-0.597-3.597,1,1,0,90,false,stim,false,1,682.0,0,1,0,31360,task3,2000227,false,false,2050,image-keyboard-response,8
true,29,1,2,1,true,z,false,true,0.0-2.0-0.66-0.598-3.598,1,1,0,90,false,stim,false,1,856.0,0,1,0,31360,task3,2002591,false,false,2053,image-keyboard-response,9
true,29,2,2,2,true,d,false,false,0.0-2.0-0.66-0.599-3.599,1,1,0,68,false,stim,false,2,1490.0,0,1,1,31360,task3,2005588,false,true,2056,image-keyboard-response,10
true,29,1,2,2,false,d,true,true,0.0-2.0-0.66-0.600-3.600,1,1,0,90,false,stim,false,2,417.0,0,1,1,31360,task3,2007512,false,true,2059,image-keyboard-response,11
true,29,1,2,1,true,z,false,true,0.0-2.0-0.66-0.601-3.601,1,1,0,90,false,stim,false,0,529.9999999997672,0,0,2,31360,task3,2009549,false,false,2062,image-keyboard-response,12
true,29,1,2,1,true,z,false,false,0.0-2.0-0.66-0.602-3.602,1,1,0,90,false,stim,false,1,715.0,0,1,0,31360,task3,2011771,false,true,2065,image-keyboard-response,13
true,29,1,2,1,true,z,false,true,0.0-2.0-0.67-0.603-3.603,1,1,0,90,false,stim,false,0,1206.0,0,0,2,31360,task3,2014489,false,false,2068,image-keyboard-response,14
true,29,1,2,1,true,z,false,true,0.0-2.0-0.67-0.604-3.604,1,1,0,90,false,stim,false,1,837.0,0,1,0,31360,task3,2016832,false,false,2071,image-keyboard-response,15
true,29,1,2,2,false,d,true,false,0.0-2.0-0.67-0.605-3.605,1,1,0,90,false,stim,false,2,599.0,0,1,1,31360,task3,2018937,false,false,2074,image-keyboard-response,16
true,29,1,2,2,false,d,true,false,0.0-2.0-0.67-0.606-3.606,1,1,0,90,false,stim,false,2,640.0,0,1,1,31360,task3,2021084,false,false,2077,image-keyboard-response,17
true,29,0,2,1,false,z,false,false,0.0-2.0-0.67-0.607-3.607,1,1,0,81,false,stim,true,0,405.0,0,0,2,31360,task3,2022997,false,false,2080,image-keyboard-response,18
true,29,2,2,2,true,d,false,true,0.0-2.0-0.67-0.608-3.608,1,1,0,68,false,stim,false,2,724.0,0,0,1,31360,task3,2025227,false,false,2083,image-keyboard-response,19
true,29,1,2,1,true,z,false,true,0.0-2.0-0.67-0.609-3.609,1,1,0,90,false,stim,false,1,649.0000000002328,0,1,0,31360,task3,2027383,false,false,2086,image-keyboard-response,20
true,29,1,2,1,true,z,false,true,0.0-2.0-0.67-0.610-3.610,1,1,0,90,false,stim,false,0,1350.0000000002328,0,0,2,31360,task3,2030240,false,false,2089,image-keyboard-response,21
true,29,1,2,1,true,z,false,true,0.0-2.0-0.67-0.611-3.611,1,1,0,90,false,stim,false,1,1223.0000000002328,0,1,0,31360,task3,2032971,false,false,2092,image-keyboard-response,22
true,29,1,2,1,true,z,false,true,0.0-2.0-0.68-0.612-3.612,1,1,0,90,false,stim,false,1,452.99999999976717,0,1,0,31360,task3,2034933,false,false,2095,image-keyboard-response,23
true,30,1,1,2,false,d,false,false,0.0-2.0-0.68-0.613-3.613,1,0,0,90,true,stim,true,1,1135.0,0,0,2,31360,task3,2037574,false,false,2098,image-keyboard-response,1
true,30,1,1,1,true,z,false,true,0.0-2.0-0.68-0.614-3.614,1,0,0,90,false,stim,false,1,780.0000000002328,0,1,0,31360,task3,2039875,false,false,2101,image-keyboard-response,2
