answered,blockNum,choice,condition,corResp,correct,correct_response,explo,fb,internal_node_id,isStable_1,isStable_2,isStable_3,key_press,newBlock,part,persev,persevResp,rt,sessNum,stableAS,stimulus,subject,task,time_elapsed,training,trap,trial_index,trial_type,trialsInBlock
true,1,0,0,1,false,z,true,false,0.0-2.0-0.0-0.0-3.0,0,0,0,81,true,stim,false,-1,576.0,1,0,2,31360,task1,327013,false,false,79,image-keyboard-response,1
true,1,1,0,2,false,d,true,false,0.0-2.0-0.0-0.1-3.1,0,0,0,90,false,stim,false,-1,524.0,1,0,0,31360,task1,329043,false,false,82,image-keyboard-response,2
true,1,2,0,0,false,q,true,false,0.0-2.0-0.0-0.2-3.2,0,0,0,68,false,stim,false,-1,374.0,1,0,1,31360,task1,330924,false,false,85,image-keyboard-response,3
true,1,1,0,1,true,z,false,true,0.0-2.0-0.0-0.3-3.3,0,0,0,90,false,stim,false,-1,576.0,1,0,2,31360,task1,333005,false,false,88,image-keyboard-response,4
true,1,0,0,2,false,d,true,false,0.0-2.0-0.0-0.4-3.4,0,0,0,81,false,stim,false,-1,379.0000000000582,1,0,0,31360,task1,334890,false,false,91,image-keyboard-response,5
true,1,1,0,1,true,z,false,true,0.0-2.0-0.0-0.5-3.5,0,0,0,90,false,stim,false,-1,358.0,1,0,2,31360,task1,336755,false,false,94,image-keyboard-response,6
true,1,2,0,0,false,q,true,false,0.0-2.0-0.0-0.6-3.6,0,0,0,68,false,stim,false,-1,470.0,1,0,1,31360,task1,338731,false,false,97,image-keyboard-response,7
true,1,0,0,2,false,d,true,true,0.0-2.0-0.0-0.7-3.7,0,0,0,81,false,stim,false,-1,458.0,1,0,0,31360,task1,340697,false,true,100,image-keyboard-response,8
true,1,2,0,0,false,q,true,false,0.0-2.0-0.0-0.8-3.8,0,0,0,68,false,stim,false,-1,814.0,1,0,1,31360,task1,343032,false,false,103,image-keyboard-response,9
true,1,1,0,1,true,z,false,true,0.0-2.0-0.1-0.9-3.9,0,0,0,90,false,stim,false,-1,656.0,1,0,2,31360,task1,345194,false,false,106,image-keyboard-response,10
true,1,0,0,0,true,q,false,false,0.0-2.0-0.1-0.10-3.10,0,0,0,81,false,stim,false,-1,1210.0,1,0,1,31360,task1,347909,false,true,109,image-keyboard-response,11
true,1,0,0,2,false,d,true,false,0.0-2.0-0.1-0.11-3.11,0,0,0,81,false,stim,false,-1,579.0,1,0,0,31360,task1,349995,false,false,112,image-keyboard-response,12
true,1,1,0,0,false,q,true,false,0.0-2.0-0.1-0.12-3.12,0,0,0,90,false,stim,false,-1,448.0,1,0,1,31360,task1,351949,false,false,115,image-keyboard-response,13
true,1,2,0,1,false,z,true,false,0.0-2.0-0.1-0.13-3.13,0,0,0,68,false,stim,false,-1,541.0,1,0,2,31360,task1,353994,false,false,118,image-keyboard-response,14
true,1,1,0,2,false,d,true,true,0.0-2.0-0.1-0.14-3.14,0,0,0,90,false,stim,false,-1,937.0,1,0,0,31360,task1,356437,false,true,121,image-keyboard-response,15
true,1,1,0,2,false,d,true,false,0.0-2.0-0.1-0.15-3.15,0,0,0,90,false,stim,false,-1,474.0,1,0,0,31360,task1,358417,false,false,124,image-keyboard-response,16
true,1,0,0,1,false,z,true,false,0.0-2.0-0.1-0.16-3.16,0,0,0,81,false,stim,false,-1,590.0,1,0,2,31360,task1,360511,false,false,127,image-keyboard-response,17
true,1,2,0,0,false,q,true,false,0.0-2.0-0.1-0.17-3.17,0,0,0,68,false,stim,false,-1,284.9999999999418,1,0,1,31360,task1,362301,false,false,130,image-keyboard-response,18
true,1,1,0,0,false,q,true,false,0.0-2.0-0.2-0.18-3.18,0,0,0,90,false,stim,false,-1,232.0,1,0,1,31360,task1,364039,false,false,133,image-keyboard-response,19
true,1,0,0,2,false,d,true,false,0.0-2.0-0.2-0.19-3.19,0,0,0,81,false,stim,false,-1,7.0,1,0,0,31360,task1,365551,false,false,136,image-keyboard-response,20
true,1,2,0,0,false,q,true,false,0.0-2.0-0.2-0.20-3.20,0,0,0,68,false,stim,false,-1,80.0,1,0,1,31360,task1,367135,false,false,139,image-keyboard-response,21
true,1,1,0,2,false,d,true,false,0.0-2.0-0.2-0.21-3.21,0,0,0,90,false,stim,false,-1,662.9999999999418,1,0,0,31360,task1,369304,false,false,142,image-keyboard-response,22
true,1,0,0,1,false,z,true,false,0.0-2.0-0.2-0.22-3.22,0,0,0,81,false,stim,false,-1,307.0,1,0,2,31360,task1,371117,false,false,145,image-keyboard-response,23
true,1,2,0,1,false,z,true,false,0.0-2.0-0.2-0.23-3.23,0,0,0,68,false,stim,false,-1,403.0,1,0,2,31360,task1,373024,false,false,148,image-keyboard-response,24
true,1,1,0,0,false,q,true,false,0.0-2.0-0.2-0.24-3.24,0,0,0,90,false,stim,false,-1,411.0,1,0,1,31360,task1,374941,false,false,151,image-keyboard-response,25
true,1,1,0,1,true,z,false,true,0.0-2.0-0.2-0.25-3.25,0,0,0,90,false,stim,false,-1,315.0,1,0,2,31360,task1,376761,false,false,154,image-keyboard-response,26
true,2,1,1,0,false,q,true,false,0.0-2.0-0.2-0.26-3.26,0,0,0,90,true,stim,false,2,633.9999999999418,1,0,0,31360,task1,378901,false,false,157,image-keyboard-response,1
true,2,1,1,2,false,d,false,true,0.0-2.0-0.3-0.27-3.27,0,0,0,90,false,stim,true,1,718.0000000000582,1,0,2,31360,task1,381124,false,true,160,image-keyboard-response,2
true,2,2,1,2,true,d,false,true,0.0-2.0-0.3-0.28-3.28,0,0,0,68,false,stim,false,0,557.9999999999418,1,0,1,31360,task1,383188,false,false,163,image-keyboard-response,3
true,2,0,1,0,true,q,false,true,0.0-2.0-0.3-0.29-3.29,0,0,0,81,false,stim,false,2,542.0,1,0,0,31360,task1,385235,false,false,166,image-keyboard-response,4
true,2,2,1,2,true,d,false,true,0.0-2.0-0.3-0.30-3.30,0,0,0,68,false,stim,false,0,687.0000000000582,1,0,1,31360,task1,387427,false,false,169,image-keyboard-response,5
true,2,1,1,2,false,d,false,true,0.0-2.0-0.3-0.31-3.31,0,0,0,90,false,stim,true,1,531.0,1,0,2,31360,task1,389460,false,true,172,image-keyboard-response,6
true,2,2,1,2,true,d,false,true,0.0-2.0-0.3-0.32-3.32,0,0,0,68,false,stim,false,0,774.0,1,0,1,31360,task1,391736,false,false,175,image-keyboard-response,7
true,2,0,1,0,true,q,false,true,0.0-2.0-0.3-0.33-3.33,0,0,0,81,false,stim,false,2,630.0,1,0,0,31360,task1,393870,false,false,178,image-keyboard-response,8
true,2,2,1,2,true,d,false,true,0.0-2.0-0.3-0.34-3.34,0,0,0,68,false,stim,false,1,997.0,1,0,2,31360,task1,396371,false,false,181,image-keyboard-response,9
true,2,0,1,0,true,q,false,false,0.0-2.0-0.3-0.35-3.35,0,0,0,81,false,stim,false,2,725.0,1,0,0,31360,task1,398602,false,true,184,image-keyboard-response,10
true,2,0,1,2,false,d,true,true,0.0-2.0-0.4-0.36-3.36,0,0,0,81,false,stim,false,1,581.0,1,0,2,31360,task1,400689,false,true,187,image-keyboard-response,11
true,2,2,1,2,true,d,false,true,0.0-2.0-0.4-0.37-3.37,0,0,0,68,false,stim,false,1,491.9999999999418,1,0,2,31360,task1,402687,false,false,190,image-keyboard-response,12
true,2,2,1,2,true,d,false,true,0.0-2.0-0.4-0.38-3.38,0,0,0,68,false,stim,false,1,560.0,1,0,2,31360,task1,404751,false,false,193,image-keyboard-response,13
true,2,1,1,2,false,d,true,true,0.0-2.0-0.4-0.39-3.39,0,0,0,90,false,stim,false,0,649.0,1,0,1,31360,task1,406905,false,true,196,image-keyboard-response,14
true,2,1,1,2,false,d,true,false,0.0-2.0-0.4-0.40-3.40,0,0,0,90,false,stim,false,0,564.0,1,0,1,31360,task1,408974,false,false,199,image-keyboard-response,15
true,2,1,1,2,false,d,true,true,0.0-2.0-0.4-0.41-3.41,0,0,0,90,false,stim,false,0,663.9999999999418,1,0,1,31360,task1,411145,false,true,202,image-keyboard-response,16
true,2,0,1,0,true,q,false,true,0.0-2.0-0.4-0.42-3.42,0,0,0,81,false,stim,false,2,429.0000000000582,1,0,0,31360,task1,413077,false,false,205,image-keyboard-response,17
true,2,0,1,0,true,q,false,true,0.0-2.0-0.4-0.43-3.43,0,0,0,81,false,stim,false,2,402.0000000000582,1,0,0,31360,task1,414981,false,false,208,image-keyboard-response,18
true,2,0,1,0,true,q,false,true,0.0-2.0-0.4-0.44-3.44,0,0,0,81,false,stim,false,2,371.0000000000582,1,0,0,31360,task1,416856,false,false,211,image-keyboard-response,19
true,2,0,1,0,true,q,false,true,0.0-2.0-0.5-0.45-3.45,0,0,0,81,false,stim,false,2,579.0,1,0,0,31360,task1,418939,false,false,214,image-keyboard-response,20
true,2,2,1,2,true,d,false,true,0.0-2.0-0.5-0.46-3.46,0,0,0,68,false,stim,false,1,749.0,1,0,2,31360,task1,421193,false,false,217,image-keyboard-response,21
true,2,1,1,2,false,d,true,false,0.0-2.0-0.5-0.47-3.47,0,0,0,90,false,stim,false,0,648.0000000000582,1,0,1,31360,task1,423345,false,false,220,image-keyboard-response,22
true,2,0,1,0,true,q,false,true,0.0-2.0-0.5-0.48-3.48,0,0,0,81,false,stim,false,2,574.0,1,0,0,31360,task1,425423,false,false,223,image-keyboard-response,23
true,2,2,1,2,true,d,false,true,0.0-2.0-0.5-0.49-3.49,0,0,0,68,false,stim,false,1,592.9999999999418,1,0,2,31360,task1,427521,false,false,226,image-keyboard-response,24
true,2,0,1,0,true,q,false,true,0.0-2.0-0.5-0.50-3.50,0,0,0,81,false,stim,false,2,649.0,1,0,0,31360,task1,429675,false,false,229,image-keyboard-response,25
true,2,1,1,2,false,d,true,false,0.0-2.0-0.5-0.51-3.51,0,0,0,90,false,stim,false,0,779.0,1,0,1,31360,task1,431960,false,false,232,image-keyboard-response,26
true,2,2,1,2,true,d,false,true,0.0-2.0-0.5-0.52-3.52,0,0,0,68,false,stim,false,1,509.0,1,0,2,31360,task1,433974,false,false,235,image-keyboard-response,27
true,2,1,1,2,false,d,true,false,0.0-2.0-0.5-0.53-3.53,0,0,0,90,false,stim,false,0,532.0000000000582,1,0,1,31360,task1,436012,false,false,238,image-keyboard-response,28
true,2,0,1,0,true,q,false,true,0.0-2.0-0.6-0.54-3.54,0,0,0,81,false,stim,false,2,502.9999999999418,1,0,0,31360,task1,438020,false,false,241,image-keyboard-response,29
true,2,2,1,2,true,d,false,true,0.0-2.0-0.6-0.55-3.55,0,0,0,68,false,stim,false,0,374.0,1,0,1,31360,task1,439898,false,false,244,image-keyboard-response,30
true,2,2,1,2,true,d,false,true,0.0-2.0-0.6-0.56-3.56,0,0,0,68,false,stim,false,1,812.0,1,0,2,31360,task1,442214,false,false,247,image-keyboard-response,31
true,2,2,1,2,true,d,false,false,0.0-2.0-0.6-0.57-3.57,0,0,0,68,false,stim,false,0,448.0000000000582,1,0,1,31360,task1,444167,false,true,250,image-keyboard-response,32
true,2,2,1,2,true,d,false,false,0.0-2.0-0.6-0.58-3.58,0,0,0,68,false,stim,false,1,626.0,1,0,2,31360,task1,446299,false,true,253,image-keyboard-response,33
true,2,2,1,2,true,d,false,true,0.0-2.0-0.6-0.59-3.59,0,0,0,68,false,stim,false,1,738.0,1,0,2,31360,task1,448542,false,false,256,image-keyboard-response,34
true,2,2,1,0,false,q,false,false,0.0-2.0-0.6-0.60-3.60,0,0,0,68,false,stim,true,2,496.0,1,0,0,31360,task1,450543,false,false,259,image-keyboard-response,35
true,2,2,1,2,true,d,false,true,0.0-2.0-0.6-0.61-3.61,0,0,0,68,false,stim,false,0,680.0000000000582,1,0,1,31360,task1,452727,false,false,262,image-keyboard-response,36
true,2,0,1,0,true,q,false,true,0.0-2.0-0.6-0.62-3.62,0,0,0,81,false,stim,false,2,526.0,1,0,0,31360,task1,454757,false,false,265,image-keyboard-response,37
true,2,2,1,2,true,d,false,true,0.0-2.0-0.7-0.63-3.63,0,0,0,68,false,stim,false,0,621.9999999999418,1,0,1,31360,task1,456885,false,false,268,image-keyboard-response,38
true,2,2,1,2,true,d,false,true,0.0-2.0-0.7-0.64-3.64,0,0,0,68,false,stim,false,1,659.0,1,0,2,31360,task1,459049,false,false,271,image-keyboard-response,39
true,3,0,1,1,false,z,false,false,0.0-2.0-0.7-0.65-3.65,0,0,0,81,true,stim,true,0,685.0,1,0,0,31360,task1,461240,false,false,274,image-keyboard-response,1
true,3,2,1,0,false,q,false,false,0.0-2.0-0.7-0.66-3.66,0,0,0,68,false,stim,true,2,583.0000000000582,1,0,2,31360,task1,463328,false,false,277,image-keyboard-response,2
true,3,1,1,1,true,z,false,true,0.0-2.0-0.7-0.67-3.67,0,0,0,90,false,stim,false,0,397.9999999999418,1,0,0,31360,task1,465232,false,false,280,image-keyboard-response,3
true,3,2,1,0,false,q,false,false,0.0-2.0-0.7-0.68-3.68,0,0,0,68,false,stim,true,2,602.0,1,0,1,31360,task1,467338,false,false,283,image-keyboard-response,4
true,3,2,1,0,false,q,false,false,0.0-2.0-0.7-0.69-3.69,0,0,0,68,false,stim,true,2,612.0,1,0,2,31360,task1,469456,false,false,286,image-keyboard-response,5
true,3,0,1,0,true,q,false,true,0.0-2.0-0.7-0.70-3.70,0,0,0,81,false,stim,false,2,336.0,1,0,1,31360,task1,471295,false,false,289,image-keyboard-response,6
true,3,1,1,1,true,z,false,true,0.0-2.0-0.7-0.71-3.71,0,0,0,90,false,stim,false,0,833.0000000000582,1,0,0,31360,task1,473631,false,false,292,image-keyboard-response,7
true,3,1,1,1,true,z,false,true,0.0-2.0-0.8-0.72-3.72,0,0,0,90,false,stim,false,0,590.0,1,0,0,31360,task1,475725,false,false,295,image-keyboard-response,8
true,3,0,1,0,true,q,false,true,0.0-2.0-0.8-0.73-3.73,0,0,0,81,false,stim,false,2,557.0,1,0,1,31360,task1,477785,false,false,298,image-keyboard-response,9
true,3,0,1,0,true,q,false,true,0.0-2.0-0.8-0.74-3.74,0,0,0,81,false,stim,false,2,448.0,1,0,1,31360,task1,479753,false,false,301,image-keyboard-response,10
true,3,1,1,1,true,z,false,true,0.0-2.0-0.8-0.75-3.75,0,0,0,90,false,stim,false,0,753.0,1,0,0,31360,task1,482016,false,false,304,image-keyboard-response,11
true,3,0,1,0,true,q,false,true,0.0-2.0-0.8-0.76-3.76,0,0,0,81,false,stim,false,2,582.0000000000582,1,0,2,31360,task1,484103,false,false,307,image-keyboard-response,12
true,3,0,1,0,true,q,false,true,0.0-2.0-0.8-0.77-3.77,0,0,0,81,false,stim,false,2,633.0,1,0,1,31360,task1,486243,false,false,310,image-keyboard-response,13
true,3,0,1,0,true,q,false,true,0.0-2.0-0.8-0.78-3.78,0,0,0,81,false,stim,false,2,654.0,1,0,2,31360,task1,488402,false,false,313,image-keyboard-response,14
true,3,1,1,1,true,z,false,true,0.0-2.0-0.8-0.79-3.79,0,0,0,90,false,stim,false,0,388.0,1,0,0,31360,task1,490296,false,false,316,image-keyboard-response,15
true,3,1,1,0,false,q,true,false,0.0-2.0-0.8-0.80-3.80,0,0,0,90,false,stim,false,2,577.0,1,0,2,31360,task1,492378,false,false,319,image-keyboard-response,16
true,3,0,1,0,true,q,false,true,0.0-2.0-0.9-0.81-3.81,0,0,0,81,false,stim,false,2,518.0,1,0,1,31360,task1,494403,false,false,322,image-keyboard-response,17
true,3,0,1,0,true,q,false,true,0.0-2.0-0.9-0.82-3.82,0,0,0,81,false,stim,false,2,464.0,1,0,2,31360,task1,496374,false,false,325,image-keyboard-response,18
true,3,1,1,1,true,z,false,true,0.0-2.0-0.9-0.83-3.83,0,0,0,90,false,stim,false,0,595.0,1,0,0,31360,task1,498474,false,false,328,image-keyboard-response,19
true,3,1,1,1,true,z,false,true,0.0-2.0-0.9-0.84-3.84,0,0,0,90,false,stim,false,0,489.0,1,0,0,31360,task1,500469,false,false,331,image-keyboard-response,20
true,3,0,1,0,true,q,false,true,0.0-2.0-0.9-0.85-3.85,0,0,0,81,false,stim,false,2,698.0,1,0,2,31360,task1,502673,false,false,334,image-keyboard-response,21
true,3,1,1,1,true,z,false,true,0.0-2.0-0.9-0.86-3.86,0,0,0,90,false,stim,false,0,777.0,1,0,0,31360,task1,504956,false,false,337,image-keyboard-response,22
true,3,0,1,0,true,q,false,true,0.0-2.0-0.9-0.87-3.87,0,0,0,81,false,stim,false,2,498.0,1,0,1,31360,task1,506960,false,false,340,image-keyboard-response,23
true,3,0,1,0,true,q,false,true,0.0-2.0-0.9-0.88-3.88,0,0,0,81,false,stim,false,2,421.0,1,0,1,31360,task1,508888,false,false,343,image-keyboard-response,24
true,3,0,1,0,true,q,false,true,0.0-2.0-0.9-0.89-3.89,0,0,0,81,false,stim,false,2,682.9999999998836,1,0,2,31360,task1,511078,false,false,346,image-keyboard-response,25
true,3,0,1,0,true,q,false,true,0.0-2.0-0.10-0.90-3.90,0,0,0,81,false,stim,false,2,405.9999999999418,1,0,1,31360,task1,512989,false,false,349,image-keyboard-response,26
true,3,1,1,1,true,z,false,true,0.0-2.0-0.10-0.91-3.91,0,0,0,90,false,stim,false,0,549.0000000000582,1,0,0,31360,task1,515044,false,false,352,image-keyboard-response,27
true,3,0,1,0,true,q,false,true,0.0-2.0-0.10-0.92-3.92,0,0,0,81,false,stim,false,2,565.9999999999418,1,0,2,31360,task1,517116,false,false,355,image-keyboard-response,28
true,3,0,1,0,true,q,false,true,0.0-2.0-0.10-0.93-3.93,0,0,0,81,false,stim,false,2,431.9999999998836,1,0,2,31360,task1,519054,false,false,358,image-keyboard-response,29
true,3,0,1,0,true,q,false,true,0.0-2.0-0.10-0.94-3.94,0,0,0,81,false,stim,false,2,471.0,1,0,1,31360,task1,521029,false,false,361,image-keyboard-response,30
true,3,1,1,1,true,z,false,true,0.0-2.0-0.10-0.95-3.95,0,0,0,90,false,stim,false,0,563.0,1,0,0,31360,task1,523096,false,false,364,image-keyboard-response,31
true,3,0,1,0,true,q,false,true,0.0-2.0-0.10-0.96-3.96,0,0,0,81,false,stim,false,2,511.9999999998836,1,0,2,31360,task1,525115,false,false,367,image-keyboard-response,32
true,3,0,1,0,true,q,false,true,0.0-2.0-0.10-0.97-3.97,0,0,0,81,false,stim,false,2,330.0,1,0,1,31360,task1,526951,false,false,370,image-keyboard-response,33
true,3,1,1,1,true,z,false,true,0.0-2.0-0.10-0.98-3.98,0,0,0,90,false,stim,false,0,831.0,1,0,0,31360,task1,529288,false,false,373,image-keyboard-response,34
true,3,0,1,0,true,q,false,true,0.0-2.0-0.11-0.99-3.99,0,0,0,81,false,stim,false,2,407.9999999998836,1,0,2,31360,task1,531202,false,false,376,image-keyboard-response,35
true,3,0,1,0,true,q,false,true,0.0-2.0-0.11-0.100-3.100,0,0,0,81,false,stim,false,2,576.0,1,0,1,31360,task1,533282,false,false,379,image-keyboard-response,36
true,3,1,1,1,true,z,false,true,0.0-2.0-0.11-0.101-3.101,0,0,0,90,false,stim,false,0,497.0,1,0,0,31360,task1,535285,false,false,382,image-keyboard-response,37
true,3,0,1,0,true,q,false,true,0.0-2.0-0.11-0.102-3.102,0,0,0,81,false,stim,false,2,521.0,1,0,1,31360,task1,537311,false,false,385,image-keyboard-response,38
true,3,1,1,1,true,z,false,true,0.0-2.0-0.11-0.103-3.103,0,0,0,90,false,stim,false,0,474.0,1,0,0,31360,task1,539291,false,false,388,image-keyboard-response,39
true,3,1,1,1,true,z,false,true,0.0-2.0-0.11-0.104-3.104,0,0,0,90,false,stim,false,0,420.0,1,0,0,31360,task1,541216,false,false,391,image-keyboard-response,40
true,3,0,1,0,true,q,false,true,0.0-2.0-0.11-0.105-3.105,0,0,0,81,false,stim,false,2,697.0,1,0,2,31360,task1,543418,false,false,394,image-keyboard-response,41
true,3,0,1,0,true,q,false,true,0.0-2.0-0.11-0.106-3.106,0,0,0,81,false,stim,false,2,835.0,1,0,2,31360,task1,545759,false,false,397,image-keyboard-response,42
true,3,0,1,0,true,q,false,true,0.0-2.0-0.11-0.107-3.107,0,0,0,81,false,stim,false,2,741.0,1,0,1,31360,task1,548006,false,false,400,image-keyboard-response,43
true,3,0,1,0,true,q,false,true,0.0-2.0-0.12-0.108-3.108,0,0,0,81,false,stim,false,2,406.0,1,0,1,31360,task1,549923,false,false,403,image-keyboard-response,44
true,3,0,1,0,true,q,false,true,0.0-2.0-0.12-0.109-3.109,0,0,0,81,false,stim,false,2,516.0,1,0,2,31360,task1,551943,false,false,406,image-keyboard-response,45
true,4,0,1,2,false,d,false,false,0.0-2.0-0.12-0.110-3.110,0,0,0,81,true,stim,true,0,477.0000000001164,1,0,1,31360,task1,553925,false,false,409,image-keyboard-response,1
true,4,1,1,2,false,d,false,false,0.0-2.0-0.12-0.111-3.111,0,0,0,90,false,stim,true,1,287.0000000001164,1,0,0,31360,task1,555718,false,false,412,image-keyboard-response,2
true,4,1,1,1,true,z,false,false,0.0-2.0-0.12-0.112-3.112,0,0,0,90,false,stim,false,0,675.0,1,0,2,31360,task1,557897,false,true,415,image-keyboard-response,3
true,4,2,1,2,true,d,false,true,0.0-2.0-0.12-0.113-3.113,0,0,0,68,false,stim,false,1,745.0,1,0,0,31360,task1,560148,false,false,418,image-keyboard-response,4
true,4,2,1,1,false,z,true,false,0.0-2.0-0.12-0.114-3.114,0,0,0,68,false,stim,false,0,554.0,1,0,2,31360,task1,562209,false,false,421,image-keyboard-response,5
true,4,0,1,2,false,d,false,false,0.0-2.0-0.12-0.115-3.115,0,0,0,81,false,stim,true,0,429.0,1,0,1,31360,task1,564143,false,false,424,image-keyboard-response,6
true,4,2,1,2,true,d,false,true,0.0-2.0-0.12-0.116-3.116,0,0,0,68,false,stim,false,1,564.0,1,0,0,31360,task1,566213,false,false,427,image-keyboard-response,7
true,4,1,1,1,true,z,false,true,0.0-2.0-0.13-0.117-3.117,0,0,0,90,false,stim,false,0,327.0,1,0,2,31360,task1,568047,false,false,430,image-keyboard-response,8
true,4,1,1,2,false,d,true,false,0.0-2.0-0.13-0.118-3.118,0,0,0,90,false,stim,false,0,373.0,1,0,1,31360,task1,569927,false,false,433,image-keyboard-response,9
true,4,2,1,2,true,d,false,true,0.0-2.0-0.13-0.119-3.119,0,0,0,68,false,stim,false,0,609.0,1,0,1,31360,task1,572042,false,false,436,image-keyboard-response,10
true,4,2,1,2,true,d,false,true,0.0-2.0-0.13-0.120-3.120,0,0,0,68,false,stim,false,1,648.0,1,0,0,31360,task1,574195,false,false,439,image-keyboard-response,11
true,4,2,1,2,true,d,false,false,0.0-2.0-0.13-0.121-3.121,0,0,0,68,false,stim,false,1,554.0,1,0,0,31360,task1,576255,false,true,442,image-keyboard-response,12
true,4,2,1,1,false,z,true,false,0.0-2.0-0.13-0.122-3.122,0,0,0,68,false,stim,false,0,625.0,1,0,2,31360,task1,578386,false,false,445,image-keyboard-response,13
true,4,1,1,2,false,d,false,false,0.0-2.0-0.13-0.123-3.123,0,0,0,90,false,stim,true,1,267.0,1,0,0,31360,task1,580158,false,false,448,image-keyboard-response,14
true,4,2,1,2,true,d,false,true,0.0-2.0-0.13-0.124-3.124,0,0,0,68,false,stim,false,0,330.0,1,0,1,31360,task1,581993,false,false,451,image-keyboard-response,15
true,4,2,1,1,false,z,true,false,0.0-2.0-0.13-0.125-3.125,0,0,0,68,false,stim,false,0,306.9999999998836,1,0,2,31360,task1,583805,false,false,454,image-keyboard-response,16
true,4,0,1,1,false,z,false,false,0.0-2.0-0.14-0.126-3.126,0,0,0,81,false,stim,true,0,520.0,1,0,2,31360,task1,585830,false,false,457,image-keyboard-response,17
true,4,1,1,2,false,d,false,false,0.0-2.0-0.14-0.127-3.127,0,0,0,90,false,stim,true,1,317.0000000001164,1,0,0,31360,task1,587652,false,false,460,image-keyboard-response,18
true,4,2,1,2,true,d,false,true,0.0-2.0-0.14-0.128-3.128,0,0,0,68,false,stim,false,1,403.0,1,0,0,31360,task1,589561,false,false,463,image-keyboard-response,19
true,4,2,1,2,true,d,false,true,0.0-2.0-0.14-0.129-3.129,0,0,0,68,false,stim,false,0,537.0,1,0,1,31360,task1,591604,false,false,466,image-keyboard-response,20
true,4,1,1,1,true,z,false,true,0.0-2.0-0.14-0.130-3.130,0,0,0,90,false,stim,false,0,371.0,1,0,2,31360,task1,593480,false,false,469,image-keyboard-response,21
true,4,1,1,1,true,z,false,true,0.0-2.0-0.14-0.131-3.131,0,0,0,90,false,stim,false,0,971.0,1,0,2,31360,task1,595954,false,false,472,image-keyboard-response,22
true,4,2,1,2,true,d,false,true,0.0-2.0-0.14-0.132-3.132,0,0,0,68,false,stim,false,1,581.0,1,0,0,31360,task1,598040,false,false,475,image-keyboard-response,23
true,4,2,1,2,true,d,false,false,0.0-2.0-0.14-0.133-3.133,0,0,0,68,false,stim,false,0,680.0,1,0,1,31360,task1,600225,false,true,478,image-keyboard-response,24
true,4,0,1,2,false,d,false,false,0.0-2.0-0.14-0.134-3.134,0,0,0,81,false,stim,true,0,429.0,1,0,1,31360,task1,602160,false,false,481,image-keyboard-response,25
true,4,1,1,2,false,d,true,false,0.0-2.0-0.15-0.135-3.135,0,0,0,90,false,stim,false,0,290.0,1,0,1,31360,task1,603955,false,false,484,image-keyboard-response,26
true,4,2,1,1,false,z,true,false,0.0-2.0-0.15-0.136-3.136,0,0,0,68,false,stim,false,0,580.0,1,0,2,31360,task1,606042,false,false,487,image-keyboard-response,27
true,4,2,1,2,true,d,false,true,0.0-2.0-0.15-0.137-3.137,0,0,0,68,false,stim,false,0,565.0,1,0,1,31360,task1,608113,false,false,490,image-keyboard-response,28
true,4,2,1,2,true,d,false,true,0.0-2.0-0.15-0.138-3.138,0,0,0,68,false,stim,false,1,566.0,1,0,0,31360,task1,610187,false,false,493,image-keyboard-response,29
true,4,2,1,2,true,d,false,true,0.0-2.0-0.15-0.139-3.139,0,0,0,68,false,stim,false,1,420.0,1,0,0,31360,task1,612113,false,false,496,image-keyboard-response,30
true,4,2,1,2,true,d,false,true,0.0-2.0-0.15-0.140-3.140,0,0,0,68,false,stim,false,1,440.9999999998836,1,0,0,31360,task1,614059,false,false,499,image-keyboard-response,31
true,4,2,1,2,true,d,false,false,0.0-2.0-0.15-0.141-3.141,0,0,0,68,false,stim,false,0,491.0,1,0,1,31360,task1,616062,false,true,502,image-keyboard-response,32
true,4,1,1,1,true,z,false,true,0.0-2.0-0.15-0.142-3.142,0,0,0,90,false,stim,false,0,559.0,1,0,2,31360,task1,618128,false,false,505,image-keyboard-response,33
true,4,2,1,1,false,z,true,false,0.0-2.0-0.15-0.143-3.143,0,0,0,68,false,stim,false,0,394.0000000001164,1,0,2,31360,task1,620027,false,false,508,image-keyboard-response,34
true,4,2,1,2,true,d,false,true,0.0-2.0-0.16-0.144-3.144,0,0,0,68,false,stim,false,1,443.0,1,0,0,31360,task1,621977,false,false,511,image-keyboard-response,35
true,4,1,1,2,false,d,true,false,0.0-2.0-0.16-0.145-3.145,0,0,0,90,false,stim,false,0,464.0,1,0,1,31360,task1,623946,false,false,514,image-keyboard-response,36
true,4,2,1,2,true,d,false,true,0.0-2.0-0.16-0.146-3.146,0,0,0,68,false,stim,false,0,118.99999999988358,1,0,1,31360,task1,625569,false,false,517,image-keyboard-response,37
true,4,2,1,2,true,d,false,true,0.0-2.0-0.16-0.147-3.147,0,0,0,68,false,stim,false,0,377.9999999998836,1,0,1,31360,task1,627454,false,false,520,image-keyboard-response,38
true,4,1,1,1,true,z,false,true,0.0-2.0-0.16-0.148-3.148,0,0,0,90,false,stim,false,0,355.0,1,0,2,31360,task1,629313,false,false,523,image-keyboard-response,39
true,5,2,1,1,false,z,false,true,0.0-2.0-0.16-0.149-3.149,0,0,0,68,true,stim,true,2,527.0,1,0,0,31360,task1,631346,false,true,526,image-keyboard-response,1
true,5,2,1,1,false,z,false,false,0.0-2.0-0.16-0.150-3.150,0,0,0,68,false,stim,true,2,520.0,1,0,0,31360,task1,633372,false,false,529,image-keyboard-response,2
true,5,1,1,2,false,d,false,false,0.0-2.0-0.16-0.151-3.151,0,0,0,90,false,stim,true,1,598.0000000001164,1,0,2,31360,task1,635475,false,false,532,image-keyboard-response,3
true,5,2,1,2,true,d,false,true,0.0-2.0-0.16-0.152-3.152,0,0,0,68,false,stim,false,1,256.9999999998836,1,0,2,31360,task1,637237,false,false,535,image-keyboard-response,4
true,5,2,1,1,false,z,false,false,0.0-2.0-0.17-0.153-3.153,0,0,0,68,false,stim,true,2,524.9999999998836,1,0,1,31360,task1,639269,false,false,538,image-keyboard-response,5
true,5,0,1,2,false,d,true,false,0.0-2.0-0.17-0.154-3.154,0,0,0,81,false,stim,false,1,262.0,1,0,2,31360,task1,641038,false,false,541,image-keyboard-response,6
true,5,2,1,2,true,d,false,true,0.0-2.0-0.17-0.155-3.155,0,0,0,68,false,stim,false,1,414.0,1,0,2,31360,task1,642958,false,false,544,image-keyboard-response,7
true,5,0,1,1,false,z,true,false,0.0-2.0-0.17-0.156-3.156,0,0,0,81,false,stim,false,2,487.0,1,0,0,31360,task1,644950,false,false,547,image-keyboard-response,8
true,5,1,1,1,true,z,false,true,0.0-2.0-0.17-0.157-3.157,0,0,0,90,false,stim,false,2,344.0,1,0,0,31360,task1,646800,false,false,550,image-keyboard-response,9
true,5,2,1,1,false,z,false,false,0.0-2.0-0.17-0.158-3.158,0,0,0,68,false,stim,true,2,575.0,1,0,1,31360,task1,648881,false,false,553,image-keyboard-response,10
true,5,2,1,2,true,d,false,true,0.0-2.0-0.17-0.159-3.159,0,0,0,68,false,stim,false,1,324.0,1,0,2,31360,task1,650711,false,false,556,image-keyboard-response,11
true,5,0,1,1,false,z,true,false,0.0-2.0-0.17-0.160-3.160,0,0,0,81,false,stim,false,2,320.0,1,0,0,31360,task1,652539,false,false,559,image-keyboard-response,12
true,5,1,1,1,true,z,false,true,0.0-2.0-0.17-0.161-3.161,0,0,0,90,false,stim,false,2,256.0000000001164,1,0,1,31360,task1,654297,false,false,562,image-keyboard-response,13
true,5,2,1,1,false,z,false,false,0.0-2.0-0.18-0.162-3.162,0,0,0,68,false,stim,true,2,478.0,1,0,0,31360,task1,656298,false,false,565,image-keyboard-response,14
true,5,2,1,1,false,z,false,false,0.0-2.0-0.18-0.163-3.163,0,0,0,68,false,stim,true,2,552.0000000001164,1,0,1,31360,task1,658356,false,false,568,image-keyboard-response,15
true,5,1,1,1,true,z,false,true,0.0-2.0-0.18-0.164-3.164,0,0,0,90,false,stim,false,2,419.0000000001164,1,0,0,31360,task1,660279,false,false,571,image-keyboard-response,16
true,5,1,1,2,false,d,false,true,0.0-2.0-0.18-0.165-3.165,0,0,0,90,false,stim,true,1,265.0,1,0,2,31360,task1,662049,false,true,574,image-keyboard-response,17
true,5,1,1,2,false,d,false,false,0.0-2.0-0.18-0.166-3.166,0,0,0,90,false,stim,true,1,355.0,1,0,2,31360,task1,663910,false,false,577,image-keyboard-response,18
true,5,1,1,1,true,z,false,true,0.0-2.0-0.18-0.167-3.167,0,0,0,90,false,stim,false,2,473.0,1,0,1,31360,task1,665889,false,false,580,image-keyboard-response,19
true,5,1,1,2,false,d,false,false,0.0-2.0-0.18-0.168-3.168,0,0,0,90,false,stim,true,1,437.0,1,0,2,31360,task1,667833,false,false,583,image-keyboard-response,20
true,5,1,1,1,true,z,false,true,0.0-2.0-0.18-0.169-3.169,0,0,0,90,false,stim,false,2,246.0,1,0,1,31360,task1,669584,false,false,586,image-keyboard-response,21
true,5,2,1,1,false,z,false,true,0.0-2.0-0.18-0.170-3.170,0,0,0,68,false,stim,true,2,262.0,1,0,0,31360,task1,671353,false,true,589,image-keyboard-response,22
true,5,2,1,1,false,z,false,false,0.0-2.0-0.19-0.171-3.171,0,0,0,68,false,stim,true,2,368.0,1,0,0,31360,task1,673227,false,false,592,image-keyboard-response,23
true,5,1,1,1,true,z,false,true,0.0-2.0-0.19-0.172-3.172,0,0,0,90,false,stim,false,2,260.0,1,0,1,31360,task1,674993,false,false,595,image-keyboard-response,24
true,5,1,1,1,true,z,false,true,0.0-2.0-0.19-0.173-3.173,0,0,0,90,false,stim,false,2,304.9999999998836,1,0,0,31360,task1,676804,false,false,598,image-keyboard-response,25
true,5,1,1,1,true,z,false,false,0.0-2.0-0.19-0.174-3.174,0,0,0,90,false,stim,false,2,323.0,1,0,1,31360,task1,678646,false,true,601,image-keyboard-response,26
true,5,2,1,1,false,z,false,true,0.0-2.0-0.19-0.175-3.175,0,0,0,68,false,stim,true,2,310.0,1,0,1,31360,task1,680463,false,true,604,image-keyboard-response,27
true,5,2,1,2,true,d,false,true,0.0-2.0-0.19-0.176-3.176,0,0,0,68,false,stim,false,1,262.0,1,0,2,31360,task1,682230,false,false,607,image-keyboard-response,28
true,5,2,1,2,true,d,false,true,0.0-2.0-0.19-0.177-3.177,0,0,0,68,false,stim,false,1,370.0,1,0,2,31360,task1,684107,false,false,610,image-keyboard-response,29
true,5,2,1,1,false,z,false,false,0.0-2.0-0.19-0.178-3.178,0,0,0,68,false,stim,true,2,292.0,1,0,0,31360,task1,685905,false,false,613,image-keyboard-response,30
true,5,1,1,2,false,d,false,false,0.0-2.0-0.19-0.179-3.179,0,0,0,90,false,stim,true,1,339.0000000001164,1,0,2,31360,task1,687750,false,false,616,image-keyboard-response,31
true,5,2,1,1,false,z,false,false,0.0-2.0-0.20-0.180-3.180,0,0,0,68,false,stim,true,2,299.0,1,0,1,31360,task1,689557,false,false,619,image-keyboard-response,32
true,5,0,1,2,false,d,true,false,0.0-2.0-0.20-0.181-3.181,0,0,0,81,false,stim,false,1,444.0,1,0,2,31360,task1,691506,false,false,622,image-keyboard-response,33
true,5,2,1,1,false,z,false,false,0.0-2.0-0.20-0.182-3.182,0,0,0,68,false,stim,true,2,26.0,1,0,0,31360,task1,693038,false,false,625,image-keyboard-response,34
true,5,1,1,1,true,z,false,true,0.0-2.0-0.20-0.183-3.183,0,0,0,90,false,stim,false,2,106.99999999988358,1,0,1,31360,task1,694650,false,false,628,image-keyboard-response,35
true,5,2,1,1,false,z,false,false,0.0-2.0-0.20-0.184-3.184,0,0,0,68,false,stim,true,2,560.0,1,0,0,31360,task1,696716,false,false,631,image-keyboard-response,36
true,5,1,1,2,false,d,false,false,0.0-2.0-0.20-0.185-3.185,0,0,0,90,false,stim,true,1,158.00000000011642,1,0,2,31360,task1,698381,false,false,634,image-keyboard-response,37
true,5,0,1,1,false,z,true,false,0.0-2.0-0.20-0.186-3.186,0,0,0,81,false,stim,false,2,381.0,1,0,1,31360,task1,700268,false,false,637,image-keyboard-response,38
true,5,2,1,2,true,d,false,true,0.0-2.0-0.20-0.187-3.187,0,0,0,68,false,stim,false,1,267.0,1,0,2,31360,task1,702040,false,false,640,image-keyboard-response,39
true,5,2,1,1,false,z,false,false,0.0-2.0-0.20-0.188-3.188,0,0,0,68,false,stim,true,2,382.0,1,0,0,31360,task1,703927,false,false,643,image-keyboard-response,40
true,5,1,1,2,false,d,false,true,0.0-2.0-0.21-0.189-3.189,0,0,0,90,false,stim,true,1,283.0,1,0,2,31360,task1,705715,false,true,646,image-keyboard-response,41
true,5,1,1,2,false,d,false,false,0.0-2.0-0.21-0.190-3.190,0,0,0,90,false,stim,true,1,355.0,1,0,2,31360,task1,707576,false,false,649,image-keyboard-response,42
true,6,2,2,2,true,d,false,true,0.0-2.0-0.21-0.191-3.191,0,0,0,68,true,stim,false,1,390.0000000001164,1,0,1,31360,task1,709471,false,false,652,image-keyboard-response,1
true,6,2,2,2,true,d,false,true,0.0-2.0-0.21-0.192-3.192,0,0,0,68,false,stim,false,1,539.0,1,0,0,31360,task1,711515,false,false,655,image-keyboard-response,2
true,6,2,2,2,true,d,false,true,0.0-2.0-0.21-0.193-3.193,0,0,0,68,false,stim,false,1,313.0,1,0,0,31360,task1,713331,false,false,658,image-keyboard-response,3
true,6,2,2,2,true,d,false,true,0.0-2.0-0.21-0.194-3.194,0,0,0,68,false,stim,false,1,275.0,1,0,1,31360,task1,715111,false,false,661,image-keyboard-response,4
true,6,2,2,1,false,z,false,false,0.0-2.0-0.21-0.195-3.195,0,0,0,68,false,stim,true,2,276.0,1,0,2,31360,task1,716893,false,false,664,image-keyboard-response,5
true,6,1,2,2,false,d,false,false,0.0-2.0-0.21-0.196-3.196,0,0,0,90,false,stim,true,1,275.0000000001164,1,0,0,31360,task1,718673,false,false,667,image-keyboard-response,6
true,6,0,2,2,false,d,true,false,0.0-2.0-0.21-0.197-3.197,0,0,0,81,false,stim,false,1,250.0,1,0,1,31360,task1,720430,false,false,670,image-keyboard-response,7
true,6,2,2,2,true,d,false,true,0.0-2.0-0.22-0.198-3.198,0,0,0,68,false,stim,false,1,33.0,1,0,0,31360,task1,721969,false,false,673,image-keyboard-response,8
true,6,2,2,2,true,d,false,true,0.0-2.0-0.22-0.199-3.199,0,0,0,68,false,stim,false,1,284.0,1,0,1,31360,task1,723759,false,false,676,image-keyboard-response,9
true,6,2,2,1,false,z,false,false,0.0-2.0-0.22-0.200-3.200,0,0,0,68,false,stim,true,2,400.0,1,0,2,31360,task1,725665,false,false,679,image-keyboard-response,10
true,6,2,2,2,true,d,false,true,0.0-2.0-0.22-0.201-3.201,0,0,0,68,false,stim,false,1,232.0,1,0,0,31360,task1,727404,false,false,682,image-keyboard-response,11
true,6,2,2,2,true,d,false,true,0.0-2.0-0.22-0.202-3.202,0,0,0,68,false,stim,false,1,401.0,1,0,0,31360,task1,729311,false,false,685,image-keyboard-response,12
true,6,2,2,1,false,z,false,false,0.0-2.0-0.22-0.203-3.203,0,0,0,68,false,stim,true,2,334.0000000001164,1,0,2,31360,task1,731150,false,false,688,image-keyboard-response,13
true,6,2,2,2,true,d,false,true,0.0-2.0-0.22-0.204-3.204,0,0,0,68,false,stim,false,1,299.0,1,0,1,31360,task1,732955,false,false,691,image-keyboard-response,14
true,6,2,2,2,true,d,false,false,0.0-2.0-0.22-0.205-3.205,0,0,0,68,false,stim,false,1,437.0,1,0,1,31360,task1,734898,false,true,694,image-keyboard-response,15
true,6,1,2,1,true,z,false,false,0.0-2.0-0.22-0.206-3.206,0,0,0,90,false,stim,false,2,219.0,1,0,2,31360,task1,736623,false,true,697,image-keyboard-response,16
true,6,2,2,2,true,d,false,true,0.0-2.0-0.23-0.207-3.207,0,0,0,68,false,stim,false,1,154.0,1,0,0,31360,task1,738283,false,false,700,image-keyboard-response,17
true,6,2,2,2,true,d,false,true,0.0-2.0-0.23-0.208-3.208,0,0,0,68,false,stim,false,1,307.0,1,0,0,31360,task1,740099,false,false,703,image-keyboard-response,18
true,6,2,2,2,true,d,false,true,0.0-2.0-0.23-0.209-3.209,0,0,0,68,false,stim,false,1,321.0,1,0,1,31360,task1,741926,false,false,706,image-keyboard-response,19
true,6,1,2,1,true,z,false,true,0.0-2.0-0.23-0.210-3.210,0,0,0,90,false,stim,false,2,567.0,1,0,2,31360,task1,743996,false,false,709,image-keyboard-response,20
true,6,2,2,2,true,d,false,true,0.0-2.0-0.23-0.211-3.211,0,0,0,68,false,stim,false,1,64.99999999988358,1,0,1,31360,task1,745566,false,false,712,image-keyboard-response,21
true,6,1,2,2,false,d,false,false,0.0-2.0-0.23-0.212-3.212,0,0,0,90,false,stim,true,1,632.0,1,0,0,31360,task1,747704,false,false,715,image-keyboard-response,22
true,6,1,2,1,true,z,false,true,0.0-2.0-0.23-0.213-3.213,0,0,0,90,false,stim,false,2,798.0000000001164,1,0,2,31360,task1,750006,false,false,718,image-keyboard-response,23
true,6,1,2,1,true,z,false,true,0.0-2.0-0.23-0.214-3.214,0,0,0,90,false,stim,false,2,383.0000000001164,1,0,2,31360,task1,751895,false,false,721,image-keyboard-response,24
true,6,1,2,2,false,d,false,false,0.0-2.0-0.23-0.215-3.215,0,0,0,90,false,stim,true,1,306.0,1,0,1,31360,task1,753707,false,false,724,image-keyboard-response,25
true,6,2,2,2,true,d,false,true,0.0-2.0-0.24-0.216-3.216,0,0,0,68,false,stim,false,1,381.0,1,0,1,31360,task1,755595,false,false,727,image-keyboard-response,26
true,6,2,2,1,false,z,false,true,0.0-2.0-0.24-0.217-3.217,0,0,0,68,false,stim,true,2,454.0000000001164,1,0,2,31360,task1,757555,false,true,730,image-keyboard-response,27
true,6,2,2,2,true,d,false,true,0.0-2.0-0.24-0.218-3.218,0,0,0,68,false,stim,false,1,465.0,1,0,0,31360,task1,759527,false,false,733,image-keyboard-response,28
true,6,2,2,2,true,d,false,true,0.0-2.0-0.24-0.219-3.219,0,0,0,68,false,stim,false,1,487.0,1,0,0,31360,task1,761520,false,false,736,image-keyboard-response,29
true,6,2,2,1,false,z,false,false,0.0-2.0-0.24-0.220-3.220,0,0,0,68,false,stim,true,2,976.0,1,0,2,31360,task1,764001,false,false,739,image-keyboard-response,30
true,6,2,2,1,false,z,false,false,0.0-2.0-0.24-0.221-3.221,0,0,0,68,false,stim,true,2,293.9999999998836,1,0,2,31360,task1,765801,false,false,742,image-keyboard-response,31
true,6,1,2,2,false,d,false,false,0.0-2.0-0.24-0.222-3.222,0,0,0,90,false,stim,true,1,278.0,1,0,1,31360,task1,767585,false,false,745,image-keyboard-response,32
true,6,2,2,2,true,d,false,true,0.0-2.0-0.24-0.223-3.223,0,0,0,68,false,stim,false,1,163.0,1,0,0,31360,task1,769253,false,false,748,image-keyboard-response,33
true,6,2,2,2,true,d,false,true,0.0-2.0-0.24-0.224-3.224,0,0,0,68,false,stim,false,1,336.0,1,0,1,31360,task1,771092,false,false,751,image-keyboard-response,34
true,6,2,2,2,true,d,false,false,0.0-2.0-0.25-0.225-3.225,0,0,0,68,false,stim,false,1,668.0,1,0,0,31360,task1,773262,false,true,754,image-keyboard-response,35
true,6,2,2,2,true,d,false,true,0.0-2.0-0.25-0.226-3.226,0,0,0,68,false,stim,false,1,605.0,1,0,0,31360,task1,775369,false,false,757,image-keyboard-response,36
true,6,2,2,2,true,d,false,true,0.0-2.0-0.25-0.227-3.227,0,0,0,68,false,stim,false,1,474.0000000001164,1,0,1,31360,task1,777348,false,false,760,image-keyboard-response,37
true,6,2,2,1,false,z,false,false,0.0-2.0-0.25-0.228-3.228,0,0,0,68,false,stim,true,2,186.0,1,0,2,31360,task1,779040,false,false,763,image-keyboard-response,38
true,6,1,2,1,true,z,false,true,0.0-2.0-0.25-0.229-3.229,0,0,0,90,false,stim,false,2,523.0000000001164,1,0,2,31360,task1,781069,false,false,766,image-keyboard-response,39
true,6,1,2,1,true,z,false,true,0.0-2.0-0.25-0.230-3.230,0,0,0,90,false,stim,false,2,258.0,1,0,2,31360,task1,782834,false,false,769,image-keyboard-response,40
true,6,1,2,2,false,d,false,false,0.0-2.0-0.25-0.231-3.231,0,0,0,90,false,stim,true,1,255.99999999988358,1,0,0,31360,task1,784604,false,false,772,image-keyboard-response,41
true,6,0,2,2,false,d,true,false,0.0-2.0-0.25-0.232-3.232,0,0,0,81,false,stim,false,1,559.0000000001164,1,0,1,31360,task1,786670,false,false,775,image-keyboard-response,42
true,6,0,2,2,false,d,true,false,0.0-2.0-0.25-0.233-3.233,0,0,0,81,false,stim,false,1,535.0,1,0,1,31360,task1,788712,false,false,778,image-keyboard-response,43
true,6,2,2,2,true,d,false,true,0.0-2.0-0.26-0.234-3.234,0,0,0,68,false,stim,false,1,633.0,1,0,1,31360,task1,790852,false,false,781,image-keyboard-response,44
true,7,2,2,1,false,z,false,false,0.0-2.0-0.26-0.235-3.235,0,0,0,68,true,stim,true,2,466.0,1,0,1,31360,task1,792824,false,false,784,image-keyboard-response,1
true,7,2,2,1,false,z,false,false,0.0-2.0-0.26-0.236-3.236,0,0,0,68,false,stim,true,2,1154.9999999998836,1,0,0,31360,task1,795484,false,false,787,image-keyboard-response,2
true,7,1,2,2,false,d,false,false,0.0-2.0-0.26-0.237-3.237,0,0,0,90,false,stim,true,1,316.0000000001164,1,0,2,31360,task1,797305,false,false,790,image-keyboard-response,3
true,7,0,2,2,false,d,true,false,0.0-2.0-0.26-0.238-3.238,0,0,0,81,false,stim,false,1,487.0,1,0,2,31360,task1,799300,false,false,793,image-keyboard-response,4
true,7,2,2,2,true,d,false,true,0.0-2.0-0.26-0.239-3.239,0,0,0,68,false,stim,false,1,306.0,1,0,2,31360,task1,801112,false,false,796,image-keyboard-response,5
true,7,2,2,1,false,z,false,true,0.0-2.0-0.26-0.240-3.240,0,0,0,68,false,stim,true,2,366.0,1,0,1,31360,task1,802984,false,true,799,image-keyboard-response,6
true,7,1,2,1,true,z,false,true,0.0-2.0-0.26-0.241-3.241,0,0,0,90,false,stim,false,2,588.0,1,0,0,31360,task1,805087,false,false,802,image-keyboard-response,7
true,7,1,2,1,true,z,false,true,0.0-2.0-0.26-0.242-3.242,0,0,0,90,false,stim,false,2,300.9999999998836,1,0,0,31360,task1,806894,false,false,805,image-keyboard-response,8
true,7,2,2,2,true,d,false,true,0.0-2.0-0.27-0.243-3.243,0,0,0,68,false,stim,false,1,506.9999999998836,1,0,2,31360,task1,808909,false,false,808,image-keyboard-response,9
true,7,1,2,1,true,z,false,true,0.0-2.0-0.27-0.244-3.244,0,0,0,90,false,stim,false,2,416.0,1,0,1,31360,task1,810831,false,false,811,image-keyboard-response,10
true,7,2,2,2,true,d,false,true,0.0-2.0-0.27-0.245-3.245,0,0,0,68,false,stim,false,1,625.0,1,0,2,31360,task1,812961,false,false,814,image-keyboard-response,11
true,7,1,2,1,true,z,false,true,0.0-2.0-0.27-0.246-3.246,0,0,0,90,false,stim,false,2,447.0,1,0,0,31360,task1,814912,false,false,817,image-keyboard-response,12
true,7,1,2,1,true,z,false,true,0.0-2.0-0.27-0.247-3.247,0,0,0,90,false,stim,false,2,500.0,1,0,0,31360,task1,816919,false,false,820,image-keyboard-response,13
true,7,2,2,2,true,d,false,false,0.0-2.0-0.27-0.248-3.248,0,0,0,68,false,stim,false,1,591.0,1,0,2,31360,task1,819016,false,true,823,image-keyboard-response,14
true,7,1,2,1,true,z,false,true,0.0-2.0-0.27-0.249-3.249,0,0,0,90,false,stim,false,2,332.0,1,0,1,31360,task1,820853,false,false,826,image-keyboard-response,15
true,7,1,2,1,true,z,false,true,0.0-2.0-0.27-0.250-3.250,0,0,0,90,false,stim,false,2,535.9999999998836,1,0,0,31360,task1,822895,false,false,829,image-keyboard-response,16
true,7,1,2,1,true,z,false,true,0.0-2.0-0.27-0.251-3.251,0,0,0,90,false,stim,false,2,424.0000000001164,1,0,1,31360,task1,824825,false,false,832,image-keyboard-response,17
true,7,1,2,1,true,z,false,true,0.0-2.0-0.28-0.252-3.252,0,0,0,90,false,stim,false,2,409.9999999998836,1,0,0,31360,task1,826740,false,false,835,image-keyboard-response,18
true,7,1,2,2,false,d,false,false,0.0-2.0-0.28-0.253-3.253,0,0,0,90,false,stim,true,1,449.0000000001164,1,0,2,31360,task1,828694,false,false,838,image-keyboard-response,19
true,7,1,2,1,true,z,false,true,0.0-2.0-0.28-0.254-3.254,0,0,0,90,false,stim,false,2,527.9999999998836,1,0,0,31360,task1,830728,false,false,841,image-keyboard-response,20
true,7,1,2,2,false,d,false,false,0.0-2.0-0.28-0.255-3.255,0,0,0,90,false,stim,true,1,310.9999999998836,1,0,2,31360,task1,832545,false,false,844,image-keyboard-response,21
true,7,1,2,1,true,z,false,false,0.0-2.0-0.28-0.256-3.256,0,0,0,90,false,stim,false,2,463.0,1,0,1,31360,task1,834510,false,true,847,image-keyboard-response,22
true,7,1,2,1,true,z,false,true,0.0-2.0-0.28-0.257-3.257,0,0,0,90,false,stim,false,2,633.0,1,0,1,31360,task1,836651,false,false,850,image-keyboard-response,23
true,7,2,2,2,true,d,false,true,0.0-2.0-0.28-0.258-3.258,0,0,0,68,false,stim,false,1,497.0,1,0,2,31360,task1,838653,false,false,853,image-keyboard-response,24
true,7,1,2,1,true,z,false,true,0.0-2.0-0.28-0.259-3.259,0,0,0,90,false,stim,false,2,310.0,1,0,0,31360,task1,840468,false,false,856,image-keyboard-response,25
true,7,1,2,1,true,z,false,true,0.0-2.0-0.28-0.260-3.260,0,0,0,90,false,stim,false,2,390.0,1,0,1,31360,task1,842365,false,false,859,image-keyboard-response,26
true,7,2,2,2,true,d,false,true,0.0-2.0-0.29-0.261-3.261,0,0,0,68,false,stim,false,1,553.0,1,0,2,31360,task1,844424,false,false,862,image-keyboard-response,27
true,7,1,2,1,true,z,false,false,0.0-2.0-0.29-0.262-3.262,0,0,0,90,false,stim,false,2,401.0000000001164,1,0,0,31360,task1,846330,false,true,865,image-keyboard-response,28
true,7,1,2,2,false,d,false,true,0.0-2.0-0.29-0.263-3.263,0,0,0,90,false,stim,true,1,358.0,1,0,2,31360,task1,848194,false,true,868,image-keyboard-response,29
true,7,1,2,1,true,z,false,true,0.0-2.0-0.29-0.264-3.264,0,0,0,90,false,stim,false,2,322.0,1,0,1,31360,task1,850023,false,false,871,image-keyboard-response,30
true,7,1,2,1,true,z,false,true,0.0-2.0-0.29-0.265-3.265,0,0,0,90,false,stim,false,2,445.0,1,0,0,31360,task1,851973,false,false,874,image-keyboard-response,31
true,7,1,2,1,true,z,false,false,0.0-2.0-0.29-0.266-3.266,0,0,0,90,false,stim,false,2,394.9999999998836,1,0,1,31360,task1,853874,false,true,877,image-keyboard-response,32
true,7,2,2,1,false,z,false,false,0.0-2.0-0.29-0.267-3.267,0,0,0,68,false,stim,true,2,156.0,1,0,1,31360,task1,855535,false,false,880,image-keyboard-response,33
true,7,1,2,1,true,z,false,false,0.0-2.0-0.29-0.268-3.268,0,0,0,90,false,stim,false,2,62.0,1,0,0,31360,task1,857104,false,true,883,image-keyboard-response,34
true,7,2,2,2,true,d,false,false,0.0-2.0-0.29-0.269-3.269,0,0,0,68,false,stim,false,1,360.9999999998836,1,0,2,31360,task1,858970,false,true,886,image-keyboard-response,35
true,7,0,2,2,false,d,true,false,0.0-2.0-0.30-0.270-3.270,0,0,0,81,false,stim,false,1,192.0,1,0,2,31360,task1,860669,false,false,889,image-keyboard-response,36
true,7,1,2,2,false,d,false,false,0.0-2.0-0.30-0.271-3.271,0,0,0,90,false,stim,true,1,313.0,1,0,2,31360,task1,862488,false,false,892,image-keyboard-response,37
true,7,2,2,2,true,d,false,true,0.0-2.0-0.30-0.272-3.272,0,0,0,68,false,stim,false,1,50.999999999883585,1,0,2,31360,task1,864045,false,false,895,image-keyboard-response,38
true,7,2,2,1,false,z,false,false,0.0-2.0-0.30-0.273-3.273,0,0,0,68,false,stim,true,2,544.0,1,0,1,31360,task1,866094,false,false,898,image-keyboard-response,39
true,7,1,2,1,true,z,false,true,0.0-2.0-0.30-0.274-3.274,0,0,0,90,false,stim,false,2,109.0,1,0,0,31360,task1,867718,false,false,901,image-keyboard-response,40
true,7,2,2,1,false,z,false,false,0.0-2.0-0.30-0.275-3.275,0,0,0,68,false,stim,true,2,693.0,1,0,1,31360,task1,869917,false,false,904,image-keyboard-response,41
true,7,1,2,1,true,z,false,false,0.0-2.0-0.30-0.276-3.276,0,0,0,90,false,stim,false,2,517.0,1,0,1,31360,task1,871939,false,true,907,image-keyboard-response,42
true,8,1,2,2,false,d,false,false,0.0-2.0-0.30-0.277-3.277,0,0,0,90,true,stim,true,1,725.0,1,0,0,31360,task1,874170,false,false,910,image-keyboard-response,1
true,8,2,2,2,true,d,false,true,0.0-2.0-0.30-0.278-3.278,0,0,0,68,false,stim,false,1,246.00000000011642,1,0,0,31360,task1,875922,false,false,913,image-keyboard-response,2
true,8,2,2,1,false,z,false,false,0.0-2.0-0.31-0.279-3.279,0,0,0,68,false,stim,true,2,608.0,1,0,2,31360,task1,878037,false,false,916,image-keyboard-response,3
true,8,1,2,2,false,d,false,false,0.0-2.0-0.31-0.280-3.280,0,0,0,90,false,stim,true,1,454.0,1,0,0,31360,task1,879998,false,false,919,image-keyboard-response,4
true,8,1,2,2,false,d,false,false,0.0-2.0-0.31-0.281-3.281,0,0,0,90,false,stim,true,1,410.9999999998836,1,0,1,31360,task1,881915,false,false,922,image-keyboard-response,5
true,8,2,2,2,true,d,false,true,0.0-2.0-0.31-0.282-3.282,0,0,0,68,false,stim,false,1,227.00000000011642,1,0,0,31360,task1,883648,false,false,925,image-keyboard-response,6
true,8,2,2,1,false,z,false,true,0.0-2.0-0.31-0.283-3.283,0,0,0,68,false,stim,true,2,510.0,1,0,2,31360,task1,885664,false,true,928,image-keyboard-response,7
true,8,2,2,1,false,z,false,false,0.0-2.0-0.31-0.284-3.284,0,0,0,68,false,stim,true,2,356.0,1,0,2,31360,task1,887527,false,false,931,image-keyboard-response,8
true,8,2,2,2,true,d,false,true,0.0-2.0-0.31-0.285-3.285,0,0,0,68,false,stim,false,1,237.0,1,0,1,31360,task1,889269,false,false,934,image-keyboard-response,9
true,8,2,2,2,true,d,false,true,0.0-2.0-0.31-0.286-3.286,0,0,0,68,false,stim,false,1,491.0,1,0,0,31360,task1,891267,false,false,937,image-keyboard-response,10
true,8,2,2,2,true,d,false,true,0.0-2.0-0.31-0.287-3.287,0,0,0,68,false,stim,false,1,250.0,1,0,1,31360,task1,893021,false,false,940,image-keyboard-response,11
true,8,2,2,2,true,d,false,true,0.0-2.0-0.32-0.288-3.288,0,0,0,68,false,stim,false,1,299.0000000001164,1,0,1,31360,task1,894826,false,false,943,image-keyboard-response,12
true,8,2,2,2,true,d,false,true,0.0-2.0-0.32-0.289-3.289,0,0,0,68,false,stim,false,1,360.9999999998836,1,0,0,31360,task1,896693,false,false,946,image-keyboard-response,13
true,8,2,2,1,false,z,false,false,0.0-2.0-0.32-0.290-3.290,0,0,0,68,false,stim,true,2,295.0000000001164,1,0,2,31360,task1,898495,false,false,949,image-keyboard-response,14
true,8,2,2,2,true,d,false,true,0.0-2.0-0.32-0.291-3.291,0,0,0,68,false,stim,false,1,174.99999999988358,1,0,0,31360,task1,900175,false,false,952,image-keyboard-response,15
true,8,2,2,1,false,z,false,false,0.0-2.0-0.32-0.292-3.292,0,0,0,68,false,stim,true,2,315.0,1,0,2,31360,task1,901997,false,false,955,image-keyboard-response,16
true,8,1,2,2,false,d,false,false,0.0-2.0-0.32-0.293-3.293,0,0,0,90,false,stim,true,1,38.0,1,0,1,31360,task1,903541,false,false,958,image-keyboard-response,17
true,8,0,2,1,false,z,true,false,0.0-2.0-0.32-0.294-3.294,0,0,0,81,false,stim,false,2,41.0,1,0,2,31360,task1,905087,false,false,961,image-keyboard-response,18
true,8,2,2,2,true,d,false,true,0.0-2.0-0.32-0.295-3.295,0,0,0,68,false,stim,false,1,156.00000000011642,1,0,1,31360,task1,906750,false,false,964,image-keyboard-response,19
true,8,2,2,2,true,d,false,true,0.0-2.0-0.32-0.296-3.296,0,0,0,68,false,stim,false,1,327.0,1,0,0,31360,task1,908583,false,false,967,image-keyboard-response,20
true,8,2,2,1,false,z,false,false,0.0-2.0-0.33-0.297-3.297,0,0,0,68,false,stim,true,2,385.0000000001164,1,0,2,31360,task1,910476,false,false,970,image-keyboard-response,21
true,8,1,2,2,false,d,false,false,0.0-2.0-0.33-0.298-3.298,0,0,0,90,false,stim,true,1,305.0,1,0,0,31360,task1,912288,false,false,973,image-keyboard-response,22
true,8,2,2,2,true,d,false,true,0.0-2.0-0.33-0.299-3.299,0,0,0,68,false,stim,false,1,225.0,1,0,0,31360,task1,914019,false,false,976,image-keyboard-response,23
true,8,2,2,2,true,d,false,true,0.0-2.0-0.33-0.300-3.300,0,0,0,68,false,stim,false,1,339.0,1,0,1,31360,task1,915864,false,false,979,image-keyboard-response,24
true,8,2,2,2,true,d,false,true,0.0-2.0-0.33-0.301-3.301,0,0,0,68,false,stim,false,1,342.9999999998836,1,0,1,31360,task1,917712,false,false,982,image-keyboard-response,25
true,8,2,2,1,false,z,false,false,0.0-2.0-0.33-0.302-3.302,0,0,0,68,false,stim,true,2,246.0,1,0,2,31360,task1,919465,false,false,985,image-keyboard-response,26
true,8,0,2,2,false,d,true,false,0.0-2.0-0.33-0.303-3.303,0,0,0,81,false,stim,false,1,149.99999999988358,1,0,0,31360,task1,921121,false,false,988,image-keyboard-response,27
true,8,1,2,2,false,d,false,false,0.0-2.0-0.33-0.304-3.304,0,0,0,90,false,stim,true,1,54.0,1,0,1,31360,task1,922682,false,false,991,image-keyboard-response,28
true,8,2,2,1,false,z,false,false,0.0-2.0-0.33-0.305-3.305,0,0,0,68,false,stim,true,2,210.0,1,0,2,31360,task1,924398,false,false,994,image-keyboard-response,29
true,8,2,2,1,false,z,false,false,0.0-2.0-0.34-0.306-3.306,0,0,0,68,false,stim,true,2,246.0,1,0,2,31360,task1,926151,false,false,997,image-keyboard-response,30
true,8,2,2,2,true,d,false,true,0.0-2.0-0.34-0.307-3.307,0,0,0,68,false,stim,false,1,435.0,1,0,0,31360,task1,928092,false,false,1000,image-keyboard-response,31
true,8,2,2,1,false,z,false,true,0.0-2.0-0.34-0.308-3.308,0,0,0,68,false,stim,true,2,201.0,1,0,2,31360,task1,929804,false,true,1003,image-keyboard-response,32
true,8,2,2,2,true,d,false,true,0.0-2.0-0.34-0.309-3.309,0,0,0,68,false,stim,false,1,376.0,1,0,1,31360,task1,931686,false,false,1006,image-keyboard-response,33
true,8,2,2,2,true,d,false,true,0.0-2.0-0.34-0.310-3.310,0,0,0,68,false,stim,false,1,293.0000000001164,1,0,1,31360,task1,933486,false,false,1009,image-keyboard-response,34
true,8,2,2,2,true,d,false,true,0.0-2.0-0.34-0.311-3.311,0,0,0,68,false,stim,false,1,160.0,1,0,1,31360,task1,935152,false,false,1012,image-keyboard-response,35
true,8,2,2,2,true,d,false,true,0.0-2.0-0.34-0.312-3.312,0,0,0,68,false,stim,false,1,255.0,1,0,0,31360,task1,936912,false,false,1015,image-keyboard-response,36
true,8,2,2,2,true,d,false,true,0.0-2.0-0.34-0.313-3.313,0,0,0,68,false,stim,false,1,27.999999999883585,1,0,0,31360,task1,938446,false,false,1018,image-keyboard-response,37
true,8,2,2,1,false,z,false,false,0.0-2.0-0.34-0.314-3.314,0,0,0,68,false,stim,true,2,232.99999999988358,1,0,2,31360,task1,940185,false,false,1021,image-keyboard-response,38
true,8,1,2,1,true,z,false,true,0.0-2.0-0.35-0.315-3.315,0,0,0,90,false,stim,false,2,98.99999999988358,1,0,2,31360,task1,941791,false,false,1024,image-keyboard-response,39
true,9,1,2,2,false,d,false,false,0.0-2.0-0.35-0.316-3.316,0,0,0,90,true,stim,true,1,198.99999999988358,1,0,2,31360,task1,943497,false,false,1027,image-keyboard-response,1
true,9,1,2,1,true,z,false,true,0.0-2.0-0.35-0.317-3.317,0,0,0,90,false,stim,false,2,303.0,1,0,1,31360,task1,945306,false,false,1030,image-keyboard-response,2
true,9,1,2,1,true,z,false,true,0.0-2.0-0.35-0.318-3.318,0,0,0,90,false,stim,false,2,26.0,1,0,0,31360,task1,946839,false,false,1033,image-keyboard-response,3
true,9,1,2,1,true,z,false,true,0.0-2.0-0.35-0.319-3.319,0,0,0,90,false,stim,false,2,375.0,1,0,1,31360,task1,948721,false,false,1036,image-keyboard-response,4
true,9,1,2,1,true,z,false,true,0.0-2.0-0.35-0.320-3.320,0,0,0,90,false,stim,false,2,57.000000000116415,1,0,0,31360,task1,950285,false,false,1039,image-keyboard-response,5
true,9,1,2,1,true,z,false,false,0.0-2.0-0.35-0.321-3.321,0,0,0,90,false,stim,false,2,132.0,1,0,0,31360,task1,951923,false,true,1042,image-keyboard-response,6
true,9,2,2,2,true,d,false,true,0.0-2.0-0.35-0.322-3.322,0,0,0,68,false,stim,false,1,531.0,1,0,2,31360,task1,953963,false,false,1045,image-keyboard-response,7
true,9,2,2,1,false,z,false,false,0.0-2.0-0.35-0.323-3.323,0,0,0,68,false,stim,true,2,288.0,1,0,1,31360,task1,955759,false,false,1048,image-keyboard-response,8
true,9,0,2,2,false,d,true,true,0.0-2.0-0.36-0.324-3.324,0,0,0,81,false,stim,false,1,22.0,1,0,2,31360,task1,957289,false,true,1051,image-keyboard-response,9
true,9,0,2,1,false,z,true,false,0.0-2.0-0.36-0.325-3.325,0,0,0,81,false,stim,false,2,308.0,1,0,1,31360,task1,959104,false,false,1054,image-keyboard-response,10
true,9,1,2,2,false,d,false,true,0.0-2.0-0.36-0.326-3.326,0,0,0,90,false,stim,true,1,56.0,1,0,2,31360,task1,960666,false,true,1057,image-keyboard-response,11
true,9,1,2,1,true,z,false,true,0.0-2.0-0.36-0.327-3.327,0,0,0,90,false,stim,false,2,398.0,1,0,0,31360,task1,962570,false,false,1060,image-keyboard-response,12
true,9,1,2,1,true,z,false,true,0.0-2.0-0.36-0.328-3.328,0,0,0,90,false,stim,false,2,343.0000000001164,1,0,1,31360,task1,964419,false,false,1063,image-keyboard-response,13
true,9,1,2,2,false,d,false,false,0.0-2.0-0.36-0.329-3.329,0,0,0,90,false,stim,true,1,107.0,1,0,2,31360,task1,966032,false,false,1066,image-keyboard-response,14
true,9,2,2,1,false,z,false,false,0.0-2.0-0.36-0.330-3.330,0,0,0,68,false,stim,true,2,229.0,1,0,0,31360,task1,967767,false,false,1069,image-keyboard-response,15
true,9,0,2,1,false,z,true,false,0.0-2.0-0.36-0.331-3.331,0,0,0,81,false,stim,false,2,43.0,1,0,0,31360,task1,969317,false,false,1072,image-keyboard-response,16
true,9,1,2,1,true,z,false,true,0.0-2.0-0.36-0.332-3.332,0,0,0,90,false,stim,false,2,87.99999999988358,1,0,1,31360,task1,970911,false,false,1075,image-keyboard-response,17
true,9,1,2,2,false,d,false,false,0.0-2.0-0.37-0.333-3.333,0,0,0,90,false,stim,true,1,143.0,1,0,2,31360,task1,972561,false,false,1078,image-keyboard-response,18
true,9,2,2,1,false,z,false,false,0.0-2.0-0.37-0.334-3.334,0,0,0,68,false,stim,true,2,150.0,1,0,0,31360,task1,974217,false,false,1081,image-keyboard-response,19
true,9,0,2,1,false,z,true,false,0.0-2.0-0.37-0.335-3.335,0,0,0,81,false,stim,false,2,8.000000000116415,1,0,0,31360,task1,975732,false,false,1084,image-keyboard-response,20
true,9,1,2,1,true,z,false,true,0.0-2.0-0.37-0.336-3.336,0,0,0,90,false,stim,false,2,87.0,1,0,1,31360,task1,977325,false,false,1087,image-keyboard-response,21
true,9,1,2,2,false,d,false,false,0.0-2.0-0.37-0.337-3.337,0,0,0,90,false,stim,true,1,218.00000000011642,1,0,2,31360,task1,979050,false,false,1090,image-keyboard-response,22
true,9,2,2,1,false,z,false,true,0.0-2.0-0.37-0.338-3.338,0,0,0,68,false,stim,true,2,206.0,1,0,0,31360,task1,980762,false,true,1093,image-keyboard-response,23
true,9,2,2,1,false,z,false,false,0.0-2.0-0.37-0.339-3.339,0,0,0,68,false,stim,true,2,112.0,1,0,1,31360,task1,982379,false,false,1096,image-keyboard-response,24
true,9,1,2,2,false,d,false,false,0.0-2.0-0.37-0.340-3.340,0,0,0,90,false,stim,true,1,106.0,1,0,2,31360,task1,983987,false,false,1099,image-keyboard-response,25
true,9,0,2,1,false,z,true,false,0.0-2.0-0.37-0.341-3.341,0,0,0,81,false,stim,false,2,241.0,1,0,1,31360,task1,985737,false,false,1102,image-keyboard-response,26
true,9,2,2,1,false,z,false,false,0.0-2.0-0.38-0.342-3.342,0,0,0,68,false,stim,true,2,244.0,1,0,0,31360,task1,987509,false,false,1105,image-keyboard-response,27
true,9,1,2,2,false,d,false,false,0.0-2.0-0.38-0.343-3.343,0,0,0,90,false,stim,true,1,126.0,1,0,2,31360,task1,989142,false,false,1108,image-keyboard-response,28
true,9,2,2,1,false,z,false,false,0.0-2.0-0.38-0.344-3.344,0,0,0,68,false,stim,true,2,125.0,1,0,1,31360,task1,990773,false,false,1111,image-keyboard-response,29
true,9,0,2,2,false,d,true,true,0.0-2.0-0.38-0.345-3.345,0,0,0,81,false,stim,false,1,582.0,1,0,2,31360,task1,992861,false,true,1114,image-keyboard-response,30
true,9,0,2,1,false,z,true,true,0.0-2.0-0.38-0.346-3.346,0,0,0,81,false,stim,false,2,252.0,1,0,0,31360,task1,994620,false,true,1117,image-keyboard-response,31
true,9,0,2,1,false,z,true,false,0.0-2.0-0.38-0.347-3.347,0,0,0,81,false,stim,false,2,507.0000000001164,1,0,0,31360,task1,996632,false,false,1120,image-keyboard-response,32
true,9,1,2,1,true,z,false,true,0.0-2.0-0.38-0.348-3.348,0,0,0,90,false,stim,false,2,264.0,1,0,1,31360,task1,998402,false,false,1123,image-keyboard-response,33
true,9,1,2,1,true,z,false,true,0.0-2.0-0.38-0.349-3.349,0,0,0,90,false,stim,false,2,378.0,1,0,1,31360,task1,1000286,false,false,1126,image-keyboard-response,34
true,9,1,2,2,false,d,false,false,0.0-2.0-0.38-0.350-3.350,0,0,0,90,false,stim,true,1,375.0,1,0,2,31360,task1,1002168,false,false,1129,image-keyboard-response,35
true,9,2,2,1,false,z,false,false,0.0-2.0-0.39-0.351-3.351,0,0,0,68,false,stim,true,2,89.0,1,0,0,31360,task1,1003768,false,false,1132,image-keyboard-response,36
true,9,1,2,1,true,z,false,true,0.0-2.0-0.39-0.352-3.352,0,0,0,90,false,stim,false,2,2.0,1,0,1,31360,task1,1005275,false,false,1135,image-keyboard-response,37
true,9,1,2,1,true,z,false,true,0.0-2.0-0.39-0.353-3.353,0,0,0,90,false,stim,false,2,250.0,1,0,0,31360,task1,1007031,false,false,1138,image-keyboard-response,38
true,9,1,2,2,false,d,false,false,0.0-2.0-0.39-0.354-3.354,0,0,0,90,false,stim,true,1,261.0,1,0,2,31360,task1,1008799,false,false,1141,image-keyboard-response,39
true,9,1,2,2,false,d,false,false,0.0-2.0-0.39-0.355-3.355,0,0,0,90,false,stim,true,1,232.0,1,0,2,31360,task1,1010537,false,false,1144,image-keyboard-response,40
true,9,2,2,2,true,d,false,true,0.0-2.0-0.39-0.356-3.356,0,0,0,68,false,stim,false,1,222.0,1,0,2,31360,task1,1012265,false,false,1147,image-keyboard-response,41
true,9,1,2,1,true,z,false,true,0.0-2.0-0.39-0.357-3.357,0,0,0,90,false,stim,false,2,266.9999999998836,1,0,1,31360,task1,1014037,false,false,1150,image-keyboard-response,42
true,9,1,2,1,true,z,false,true,0.0-2.0-0.39-0.358-3.358,0,0,0,90,false,stim,false,2,296.0,1,0,1,31360,task1,1015840,false,false,1153,image-keyboard-response,43
true,10,1,2,2,false,d,false,false,0.0-2.0-0.39-0.359-3.359,0,0,0,90,true,stim,true,1,403.0,1,0,0,31360,task1,1017749,false,false,1156,image-keyboard-response,1
true,10,2,2,1,false,z,false,false,0.0-2.0-0.40-0.360-3.360,0,0,0,68,false,stim,true,2,550.0,1,0,2,31360,task1,1019806,false,false,1159,image-keyboard-response,2
true,10,1,2,2,false,d,false,false,0.0-2.0-0.40-0.361-3.361,0,0,0,90,false,stim,true,1,354.0,1,0,1,31360,task1,1021667,false,false,1162,image-keyboard-response,3
true,10,1,2,2,false,d,false,false,0.0-2.0-0.40-0.362-3.362,0,0,0,90,false,stim,true,1,290.9999999998836,1,0,1,31360,task1,1023465,false,false,1165,image-keyboard-response,4
true,10,2,2,2,true,d,false,true,0.0-2.0-0.40-0.363-3.363,0,0,0,68,false,stim,false,1,156.0,1,0,0,31360,task1,1025127,false,false,1168,image-keyboard-response,5
true,10,2,2,1,false,z,false,false,0.0-2.0-0.40-0.364-3.364,0,0,0,68,false,stim,true,2,22.999999999883585,1,0,2,31360,task1,1026658,false,false,1171,image-keyboard-response,6
true,10,0,2,2,false,d,true,true,0.0-2.0-0.40-0.365-3.365,0,0,0,81,false,stim,false,1,115.0,1,0,1,31360,task1,1028280,false,true,1174,image-keyboard-response,7
true,10,1,2,2,false,d,false,false,0.0-2.0-0.40-0.366-3.366,0,0,0,90,false,stim,true,1,513.0000000001164,1,0,0,31360,task1,1030299,false,false,1177,image-keyboard-response,8
true,10,2,2,2,true,d,false,true,0.0-2.0-0.40-0.367-3.367,0,0,0,68,false,stim,false,1,266.0,1,0,0,31360,task1,1032072,false,false,1180,image-keyboard-response,9
true,10,2,2,1,false,z,false,false,0.0-2.0-0.40-0.368-3.368,0,0,0,68,false,stim,true,2,497.99999999976717,1,0,2,31360,task1,1034077,false,false,1183,image-keyboard-response,10
true,10,0,2,2,false,d,true,true,0.0-2.0-0.41-0.369-3.369,0,0,0,81,false,stim,false,1,390.0000000001164,1,0,1,31360,task1,1035973,false,true,1186,image-keyboard-response,11
true,10,0,2,2,false,d,true,false,0.0-2.0-0.41-0.370-3.370,0,0,0,81,false,stim,false,1,482.0,1,0,1,31360,task1,1037963,false,false,1189,image-keyboard-response,12
true,10,1,2,2,false,d,false,false,0.0-2.0-0.41-0.371-3.371,0,0,0,90,false,stim,true,1,340.00000000023283,1,0,0,31360,task1,1039810,false,false,1192,image-keyboard-response,13
true,10,2,2,1,false,z,false,false,0.0-2.0-0.41-0.372-3.372,0,0,0,68,false,stim,true,2,524.0000000001164,1,0,2,31360,task1,1041837,false,false,1195,image-keyboard-response,14
true,10,0,2,2,false,d,true,false,0.0-2.0-0.41-0.373-3.373,0,0,0,81,false,stim,false,1,264.00000000023283,1,0,1,31360,task1,1043609,false,false,1198,image-keyboard-response,15
true,10,1,2,1,true,z,false,true,0.0-2.0-0.41-0.374-3.374,0,0,0,90,false,stim,false,2,503.00000000023283,1,0,2,31360,task1,1045626,false,false,1201,image-keyboard-response,16
true,10,1,2,2,false,d,false,false,0.0-2.0-0.41-0.375-3.375,0,0,0,90,false,stim,true,1,604.0,1,0,0,31360,task1,1047738,false,false,1204,image-keyboard-response,17
true,10,2,2,2,true,d,false,false,0.0-2.0-0.41-0.376-3.376,0,0,0,68,false,stim,false,1,454.0,1,0,0,31360,task1,1049699,false,true,1207,image-keyboard-response,18
true,10,0,2,1,false,z,true,false,0.0-2.0-0.41-0.377-3.377,0,0,0,81,false,stim,false,2,320.0,1,0,2,31360,task1,1051527,false,false,1210,image-keyboard-response,19
true,10,1,2,2,false,d,false,false,0.0-2.0-0.42-0.378-3.378,0,0,0,90,false,stim,true,1,175.0,1,0,1,31360,task1,1053210,false,false,1213,image-keyboard-response,20
true,10,2,2,2,true,d,false,true,0.0-2.0-0.42-0.379-3.379,0,0,0,68,false,stim,false,1,307.0,1,0,0,31360,task1,1055025,false,false,1216,image-keyboard-response,21
true,10,2,2,2,true,d,false,true,0.0-2.0-0.42-0.380-3.380,0,0,0,68,false,stim,false,1,350.0,1,0,1,31360,task1,1056881,false,false,1219,image-keyboard-response,22
true,10,1,2,1,true,z,false,true,0.0-2.0-0.42-0.381-3.381,0,0,0,90,false,stim,false,2,532.0,1,0,2,31360,task1,1058919,false,false,1222,image-keyboard-response,23
true,10,2,2,2,true,d,false,true,0.0-2.0-0.42-0.382-3.382,0,0,0,68,false,stim,false,1,566.0,1,0,0,31360,task1,1060996,false,false,1225,image-keyboard-response,24
true,10,2,2,1,false,z,false,false,0.0-2.0-0.42-0.383-3.383,0,0,0,68,false,stim,true,2,456.0,1,0,2,31360,task1,1062959,false,false,1228,image-keyboard-response,25
true,10,2,2,2,true,d,false,true,0.0-2.0-0.42-0.384-3.384,0,0,0,68,false,stim,false,1,302.0,1,0,0,31360,task1,1064768,false,false,1231,image-keyboard-response,26
true,10,2,2,2,true,d,false,true,0.0-2.0-0.42-0.385-3.385,0,0,0,68,false,stim,false,1,354.0,1,0,1,31360,task1,1066627,false,false,1234,image-keyboard-response,27
true,10,1,2,1,true,z,false,true,0.0-2.0-0.42-0.386-3.386,0,0,0,90,false,stim,false,2,427.0,1,0,2,31360,task1,1068561,false,false,1237,image-keyboard-response,28
true,10,2,2,2,true,d,false,true,0.0-2.0-0.43-0.387-3.387,0,0,0,68,false,stim,false,1,456.99999999976717,1,0,0,31360,task1,1070525,false,false,1240,image-keyboard-response,29
true,10,2,2,2,true,d,false,true,0.0-2.0-0.43-0.388-3.388,0,0,0,68,false,stim,false,1,572.0,1,0,0,31360,task1,1072603,false,false,1243,image-keyboard-response,30
true,10,2,2,1,false,z,false,false,0.0-2.0-0.43-0.389-3.389,0,0,0,68,false,stim,true,2,298.99999999976717,1,0,2,31360,task1,1074405,false,false,1246,image-keyboard-response,31
true,10,2,2,2,true,d,false,true,0.0-2.0-0.43-0.390-3.390,0,0,0,68,false,stim,false,1,476.0,1,0,1,31360,task1,1076394,false,false,1249,image-keyboard-response,32
true,10,1,2,1,true,z,false,false,0.0-2.0-0.43-0.391-3.391,0,0,0,90,false,stim,false,2,566.0,1,0,2,31360,task1,1078466,false,true,1252,image-keyboard-response,33
true,10,2,2,1,false,z,false,false,0.0-2.0-0.43-0.392-3.392,0,0,0,68,false,stim,true,2,125.0,1,0,2,31360,task1,1080097,false,false,1255,image-keyboard-response,34
true,10,2,2,2,true,d,false,true,0.0-2.0-0.43-0.393-3.393,0,0,0,68,false,stim,false,1,585.0,1,0,0,31360,task1,1082189,false,false,1258,image-keyboard-response,35
true,10,2,2,2,true,d,false,true,0.0-2.0-0.43-0.394-3.394,0,0,0,68,false,stim,false,1,797.0,1,0,1,31360,task1,1084493,false,false,1261,image-keyboard-response,36
true,10,2,2,2,true,d,false,true,0.0-2.0-0.43-0.395-3.395,0,0,0,68,false,stim,false,1,343.0,1,0,1,31360,task1,1086342,false,false,1264,image-keyboard-response,37
true,10,2,2,2,true,d,false,true,0.0-2.0-0.44-0.396-3.396,0,0,0,68,false,stim,false,1,342.0,1,0,1,31360,task1,1088193,false,false,1267,image-keyboard-response,38
true,10,2,2,2,true,d,false,true,0.0-2.0-0.44-0.397-3.397,0,0,0,68,false,stim,false,1,515.0,1,0,0,31360,task1,1090214,false,false,1270,image-keyboard-response,39
true,10,2,2,1,false,z,false,false,0.0-2.0-0.44-0.398-3.398,0,0,0,68,false,stim,true,2,302.0,1,0,2,31360,task1,1092023,false,false,1273,image-keyboard-response,40
true,10,2,2,2,true,d,false,true,0.0-2.0-0.44-0.399-3.399,0,0,0,68,false,stim,false,1,462.99999999976717,1,0,1,31360,task1,1093993,false,false,1276,image-keyboard-response,41
true,10,2,2,2,true,d,false,true,0.0-2.0-0.44-0.400-3.400,0,0,0,68,false,stim,false,1,471.0,1,0,0,31360,task1,1095970,false,false,1279,image-keyboard-response,42
true,10,2,2,1,false,z,false,false,0.0-2.0-0.44-0.401-3.401,0,0,0,68,false,stim,true,2,374.0,1,0,2,31360,task1,1097853,false,false,1282,image-keyboard-response,43
true,10,2,2,1,false,z,false,false,0.0-2.0-0.44-0.402-3.402,0,0,0,68,false,stim,true,2,469.0,1,0,2,31360,task1,1099828,false,false,1285,image-keyboard-response,44
true,11,2,1,0,false,q,false,false,0.0-2.0-0.44-0.403-3.403,0,0,0,68,true,stim,true,2,464.0,1,0,0,31360,task1,1101799,false,false,1288,image-keyboard-response,1
true,11,1,1,1,true,z,false,false,0.0-2.0-0.44-0.404-3.404,0,0,0,90,false,stim,false,2,195.0,1,0,1,31360,task1,1103500,false,true,1291,image-keyboard-response,2
true,11,0,1,2,false,d,true,true,0.0-2.0-0.45-0.405-3.405,0,0,0,81,false,stim,false,1,163.0,1,0,2,31360,task1,1105171,false,true,1294,image-keyboard-response,3
true,11,0,1,1,false,z,true,false,0.0-2.0-0.45-0.406-3.406,0,0,0,81,false,stim,false,2,330.0,1,0,1,31360,task1,1107008,false,false,1297,image-keyboard-response,4
true,11,1,1,0,false,q,true,false,0.0-2.0-0.45-0.407-3.407,0,0,0,90,false,stim,false,2,624.0,1,0,0,31360,task1,1109138,false,false,1300,image-keyboard-response,5
true,11,2,1,2,true,d,false,true,0.0-2.0-0.45-0.408-3.408,0,0,0,68,false,stim,false,1,116.0,1,0,2,31360,task1,1110767,false,false,1303,image-keyboard-response,6
true,11,1,1,0,false,q,true,false,0.0-2.0-0.45-0.409-3.409,0,0,0,90,false,stim,false,2,453.0,1,0,0,31360,task1,1112727,false,false,1306,image-keyboard-response,7
true,11,0,1,2,false,d,true,false,0.0-2.0-0.45-0.410-3.410,0,0,0,81,false,stim,false,1,210.00000000023283,1,0,2,31360,task1,1114444,false,false,1309,image-keyboard-response,8
true,11,2,1,1,false,z,false,false,0.0-2.0-0.45-0.411-3.411,0,0,0,68,false,stim,true,2,257.0,1,0,1,31360,task1,1116207,false,false,1312,image-keyboard-response,9
true,11,1,1,0,false,q,true,false,0.0-2.0-0.45-0.412-3.412,0,0,0,90,false,stim,false,2,556.0,1,0,0,31360,task1,1118270,false,false,1315,image-keyboard-response,10
true,11,2,1,1,false,z,false,false,0.0-2.0-0.45-0.413-3.413,0,0,0,68,false,stim,true,2,98.0,1,0,1,31360,task1,1119875,false,false,1318,image-keyboard-response,11
true,11,2,1,1,false,z,false,false,0.0-2.0-0.46-0.414-3.414,0,0,0,68,false,stim,true,2,532.0000000002328,1,0,1,31360,task1,1121915,false,false,1321,image-keyboard-response,12
true,11,0,1,0,true,q,false,false,0.0-2.0-0.46-0.415-3.415,0,0,0,81,false,stim,false,2,306.0,1,0,0,31360,task1,1123727,false,true,1324,image-keyboard-response,13
true,11,1,1,1,true,z,false,true,0.0-2.0-0.46-0.416-3.416,0,0,0,90,false,stim,false,2,513.0,1,0,1,31360,task1,1125747,false,false,1327,image-keyboard-response,14
true,11,0,1,2,false,d,true,true,0.0-2.0-0.46-0.417-3.417,0,0,0,81,false,stim,false,1,609.0,1,0,2,31360,task1,1127863,false,true,1330,image-keyboard-response,15
true,11,1,1,1,true,z,false,true,0.0-2.0-0.46-0.418-3.418,0,0,0,90,false,stim,false,2,611.0,1,0,1,31360,task1,1129981,false,false,1333,image-keyboard-response,16
true,11,2,1,0,false,q,false,false,0.0-2.0-0.46-0.419-3.419,0,0,0,68,false,stim,true,2,698.0,1,0,0,31360,task1,1132185,false,false,1336,image-keyboard-response,17
true,11,1,1,2,false,d,false,false,0.0-2.0-0.46-0.420-3.420,0,0,0,90,false,stim,true,1,520.0,1,0,2,31360,task1,1134211,false,false,1339,image-keyboard-response,18
true,11,0,1,0,true,q,false,true,0.0-2.0-0.46-0.421-3.421,0,0,0,81,false,stim,false,2,702.0,1,0,0,31360,task1,1136419,false,false,1342,image-keyboard-response,19
true,11,0,1,2,false,d,true,true,0.0-2.0-0.46-0.422-3.422,0,0,0,81,false,stim,false,1,401.0,1,0,2,31360,task1,1138325,false,true,1345,image-keyboard-response,20
true,11,0,1,0,true,q,false,true,0.0-2.0-0.47-0.423-3.423,0,0,0,81,false,stim,false,2,581.0,1,0,0,31360,task1,1140412,false,false,1348,image-keyboard-response,21
true,11,1,1,1,true,z,false,true,0.0-2.0-0.47-0.424-3.424,0,0,0,90,false,stim,false,2,396.0,1,0,1,31360,task1,1142314,false,false,1351,image-keyboard-response,22
true,11,0,1,2,false,d,true,false,0.0-2.0-0.47-0.425-3.425,0,0,0,81,false,stim,false,1,520.9999999997672,1,0,2,31360,task1,1144341,false,false,1354,image-keyboard-response,23
true,11,1,1,0,false,q,true,false,0.0-2.0-0.47-0.426-3.426,0,0,0,90,false,stim,false,2,406.0,1,0,0,31360,task1,1146252,false,false,1357,image-keyboard-response,24
true,11,0,1,1,false,z,true,false,0.0-2.0-0.47-0.427-3.427,0,0,0,81,false,stim,false,2,297.0,1,0,1,31360,task1,1148057,false,false,1360,image-keyboard-response,25
true,11,1,1,1,true,z,false,true,0.0-2.0-0.47-0.428-3.428,0,0,0,90,false,stim,false,2,358.0,1,0,1,31360,task1,1149921,false,false,1363,image-keyboard-response,26
true,11,0,1,2,false,d,true,false,0.0-2.0-0.47-0.429-3.429,0,0,0,81,false,stim,false,1,431.0,1,0,2,31360,task1,1151859,false,false,1366,image-keyboard-response,27
true,11,1,1,0,false,q,true,false,0.0-2.0-0.47-0.430-3.430,0,0,0,90,false,stim,false,2,396.0,1,0,0,31360,task1,1153760,false,false,1369,image-keyboard-response,28
true,11,0,1,2,false,d,true,false,0.0-2.0-0.47-0.431-3.431,0,0,0,81,false,stim,false,1,264.0,1,0,2,31360,task1,1155529,false,false,1372,image-keyboard-response,29
true,11,1,1,2,false,d,false,true,0.0-2.0-0.48-0.432-3.432,0,0,0,90,false,stim,true,1,53.0,1,0,2,31360,task1,1157090,false,true,1375,image-keyboard-response,30
true,11,1,1,1,true,z,false,true,0.0-2.0-0.48-0.433-3.433,0,0,0,90,false,stim,false,2,374.0,1,0,1,31360,task1,1158971,false,false,1378,image-keyboard-response,31
true,11,1,1,1,true,z,false,true,0.0-2.0-0.48-0.434-3.434,0,0,0,90,false,stim,false,2,481.0,1,0,1,31360,task1,1160958,false,false,1381,image-keyboard-response,32
true,11,0,1,0,true,q,false,true,0.0-2.0-0.48-0.435-3.435,0,0,0,81,false,stim,false,2,364.0,1,0,0,31360,task1,1162830,false,false,1384,image-keyboard-response,33
true,11,1,1,1,true,z,false,true,0.0-2.0-0.48-0.436-3.436,0,0,0,90,false,stim,false,2,359.00000000023283,1,0,1,31360,task1,1164695,false,false,1387,image-keyboard-response,34
true,11,0,1,2,false,d,true,false,0.0-2.0-0.48-0.437-3.437,0,0,0,81,false,stim,false,1,272.0,1,0,2,31360,task1,1166473,false,false,1390,image-keyboard-response,35
true,11,0,1,0,true,q,false,true,0.0-2.0-0.48-0.438-3.438,0,0,0,81,false,stim,false,2,499.0,1,0,0,31360,task1,1168478,false,false,1393,image-keyboard-response,36
true,11,0,1,0,true,q,false,true,0.0-2.0-0.48-0.439-3.439,0,0,0,81,false,stim,false,2,424.0,1,0,0,31360,task1,1170408,false,false,1396,image-keyboard-response,37
true,11,1,1,2,false,d,false,false,0.0-2.0-0.48-0.440-3.440,0,0,0,90,false,stim,true,1,421.0,1,0,2,31360,task1,1172335,false,false,1399,image-keyboard-response,38
true,11,0,1,1,false,z,true,false,0.0-2.0-0.49-0.441-3.441,0,0,0,81,false,stim,false,2,584.9999999997672,1,0,1,31360,task1,1174434,false,false,1402,image-keyboard-response,39
true,11,0,1,0,true,q,false,true,0.0-2.0-0.49-0.442-3.442,0,0,0,81,false,stim,false,2,356.0,1,0,0,31360,task1,1176295,false,false,1405,image-keyboard-response,40
true,11,0,1,0,true,q,false,true,0.0-2.0-0.49-0.443-3.443,0,0,0,81,false,stim,false,2,376.99999999976717,1,0,0,31360,task1,1178178,false,false,1408,image-keyboard-response,41
true,11,1,1,1,true,z,false,true,0.0-2.0-0.49-0.444-3.444,0,0,0,90,false,stim,false,2,522.0,1,0,1,31360,task1,1180207,false,false,1411,image-keyboard-response,42
true,11,0,1,0,true,q,false,true,0.0-2.0-0.49-0.445-3.445,0,0,0,81,false,stim,false,2,492.00000000023283,1,0,0,31360,task1,1182204,false,false,1414,image-keyboard-response,43
true,11,1,1,2,false,d,false,false,0.0-2.0-0.49-0.446-3.446,0,0,0,90,false,stim,true,1,628.0,1,0,2,31360,task1,1184338,false,false,1417,image-keyboard-response,44
true,12,0,1,0,true,q,false,true,0.0-2.0-0.49-0.447-3.447,0,0,0,81,true,stim,false,2,318.0,1,0,2,31360,task1,1186161,false,false,1420,image-keyboard-response,1
true,12,0,1,0,true,q,false,false,0.0-2.0-0.49-0.448-3.448,0,0,0,81,false,stim,false,2,388.0,1,0,2,31360,task1,1188056,false,true,1423,image-keyboard-response,2
true,12,1,1,0,false,q,false,false,0.0-2.0-0.49-0.449-3.449,0,0,0,90,false,stim,true,1,275.0,1,0,1,31360,task1,1189837,false,false,1426,image-keyboard-response,3
true,12,0,1,0,true,q,false,true,0.0-2.0-0.50-0.450-3.450,0,0,0,81,false,stim,false,1,186.0,1,0,1,31360,task1,1191530,false,false,1429,image-keyboard-response,4
true,12,0,1,2,false,d,false,false,0.0-2.0-0.50-0.451-3.451,0,0,0,81,false,stim,true,0,379.0,1,0,0,31360,task1,1193413,false,false,1432,image-keyboard-response,5
true,12,1,1,0,false,q,true,false,0.0-2.0-0.50-0.452-3.452,0,0,0,90,false,stim,false,2,328.0,1,0,2,31360,task1,1195247,false,false,1435,image-keyboard-response,6
true,12,0,1,2,false,d,false,false,0.0-2.0-0.50-0.453-3.453,0,0,0,81,false,stim,true,0,100.0,1,0,0,31360,task1,1196854,false,false,1438,image-keyboard-response,7
true,12,1,1,0,false,q,false,false,0.0-2.0-0.50-0.454-3.454,0,0,0,90,false,stim,true,1,615.0,1,0,1,31360,task1,1198977,false,false,1441,image-keyboard-response,8
true,12,0,1,2,false,d,false,false,0.0-2.0-0.50-0.455-3.455,0,0,0,81,false,stim,true,0,324.99999999976717,1,0,0,31360,task1,1200809,false,false,1444,image-keyboard-response,9
true,12,1,1,0,false,q,true,false,0.0-2.0-0.50-0.456-3.456,0,0,0,90,false,stim,false,2,503.0,1,0,2,31360,task1,1202817,false,false,1447,image-keyboard-response,10
true,12,2,1,0,false,q,true,false,0.0-2.0-0.50-0.457-3.457,0,0,0,68,false,stim,false,1,476.0,1,0,1,31360,task1,1204799,false,false,1450,image-keyboard-response,11
true,12,0,1,0,true,q,false,true,0.0-2.0-0.50-0.458-3.458,0,0,0,81,false,stim,false,2,393.0,1,0,2,31360,task1,1206698,false,false,1453,image-keyboard-response,12
true,12,0,1,0,true,q,false,true,0.0-2.0-0.51-0.459-3.459,0,0,0,81,false,stim,false,2,342.0,1,0,2,31360,task1,1208548,false,false,1456,image-keyboard-response,13
true,12,0,1,0,true,q,false,true,0.0-2.0-0.51-0.460-3.460,0,0,0,81,false,stim,false,1,316.0,1,0,1,31360,task1,1210371,false,false,1459,image-keyboard-response,14
true,12,0,1,0,true,q,false,true,0.0-2.0-0.51-0.461-3.461,0,0,0,81,false,stim,false,2,412.0,1,0,2,31360,task1,1212289,false,false,1462,image-keyboard-response,15
true,12,2,1,2,true,d,false,true,0.0-2.0-0.51-0.462-3.462,0,0,0,68,false,stim,false,0,575.0,1,0,0,31360,task1,1214372,false,false,1465,image-keyboard-response,16
true,12,0,1,2,false,d,false,false,0.0-2.0-0.51-0.463-3.463,0,0,0,81,false,stim,true,0,326.0,1,0,0,31360,task1,1216203,false,false,1468,image-keyboard-response,17
true,12,0,1,0,true,q,false,true,0.0-2.0-0.51-0.464-3.464,0,0,0,81,false,stim,false,1,545.0,1,0,1,31360,task1,1218255,false,false,1471,image-keyboard-response,18
true,12,0,1,0,true,q,false,true,0.0-2.0-0.51-0.465-3.465,0,0,0,81,false,stim,false,1,287.0,1,0,1,31360,task1,1220048,false,false,1474,image-keyboard-response,19
true,12,2,1,2,true,d,false,true,0.0-2.0-0.51-0.466-3.466,0,0,0,68,false,stim,false,0,532.0,1,0,0,31360,task1,1222086,false,false,1477,image-keyboard-response,20
true,12,0,1,0,true,q,false,true,0.0-2.0-0.51-0.467-3.467,0,0,0,81,false,stim,false,2,493.0,1,0,2,31360,task1,1224085,false,false,1480,image-keyboard-response,21
true,12,0,1,0,true,q,false,true,0.0-2.0-0.52-0.468-3.468,0,0,0,81,false,stim,false,1,346.0,1,0,1,31360,task1,1225938,false,false,1483,image-keyboard-response,22
true,12,0,1,0,true,q,false,true,0.0-2.0-0.52-0.469-3.469,0,0,0,81,false,stim,false,1,399.0,1,0,1,31360,task1,1227844,false,false,1486,image-keyboard-response,23
true,12,0,1,0,true,q,false,true,0.0-2.0-0.52-0.470-3.470,0,0,0,81,false,stim,false,1,275.0,1,0,1,31360,task1,1229624,false,false,1489,image-keyboard-response,24
true,12,0,1,0,true,q,false,true,0.0-2.0-0.52-0.471-3.471,0,0,0,81,false,stim,false,2,162.00000000023283,1,0,2,31360,task1,1231292,false,false,1492,image-keyboard-response,25
true,12,2,1,2,true,d,false,true,0.0-2.0-0.52-0.472-3.472,0,0,0,68,false,stim,false,0,429.0,1,0,0,31360,task1,1233229,false,false,1495,image-keyboard-response,26
true,12,2,1,2,true,d,false,true,0.0-2.0-0.52-0.473-3.473,0,0,0,68,false,stim,false,0,489.0,1,0,0,31360,task1,1235225,false,false,1498,image-keyboard-response,27
true,12,2,1,2,true,d,false,true,0.0-2.0-0.52-0.474-3.474,0,0,0,68,false,stim,false,0,435.0,1,0,0,31360,task1,1237177,false,false,1501,image-keyboard-response,28
true,12,0,1,0,true,q,false,true,0.0-2.0-0.52-0.475-3.475,0,0,0,81,false,stim,false,2,565.0,1,0,2,31360,task1,1239250,false,false,1504,image-keyboard-response,29
true,12,0,1,0,true,q,false,true,0.0-2.0-0.52-0.476-3.476,0,0,0,81,false,stim,false,2,410.0,1,0,2,31360,task1,1241167,false,false,1507,image-keyboard-response,30
true,12,0,1,0,true,q,false,true,0.0-2.0-0.53-0.477-3.477,0,0,0,81,false,stim,false,2,417.0,1,0,2,31360,task1,1243092,false,false,1510,image-keyboard-response,31
true,12,0,1,0,true,q,false,true,0.0-2.0-0.53-0.478-3.478,0,0,0,81,false,stim,false,1,418.0,1,0,1,31360,task1,1245014,false,false,1513,image-keyboard-response,32
true,12,0,1,0,true,q,false,true,0.0-2.0-0.53-0.479-3.479,0,0,0,81,false,stim,false,1,341.0,1,0,1,31360,task1,1246863,false,false,1516,image-keyboard-response,33
true,12,0,1,0,true,q,false,true,0.0-2.0-0.53-0.480-3.480,0,0,0,81,false,stim,false,1,332.99999999976717,1,0,1,31360,task1,1248703,false,false,1519,image-keyboard-response,34
true,12,2,1,2,true,d,false,true,0.0-2.0-0.53-0.481-3.481,0,0,0,68,false,stim,false,0,460.0,1,0,0,31360,task1,1250670,false,false,1522,image-keyboard-response,35
true,12,0,1,0,true,q,false,true,0.0-2.0-0.53-0.482-3.482,0,0,0,81,false,stim,false,2,319.99999999976717,1,0,2,31360,task1,1252498,false,false,1525,image-keyboard-response,36
true,12,0,1,0,true,q,false,true,0.0-2.0-0.53-0.483-3.483,0,0,0,81,false,stim,false,2,403.0,1,0,2,31360,task1,1254404,false,false,1528,image-keyboard-response,37
true,12,0,1,2,false,d,false,false,0.0-2.0-0.53-0.484-3.484,0,0,0,81,false,stim,true,0,251.0,1,0,0,31360,task1,1256161,false,false,1531,image-keyboard-response,38
true,12,2,1,2,true,d,false,true,0.0-2.0-0.53-0.485-3.485,0,0,0,68,false,stim,false,0,337.99999999976717,1,0,0,31360,task1,1258006,false,false,1534,image-keyboard-response,39
true,12,0,1,0,true,q,false,true,0.0-2.0-0.54-0.486-3.486,0,0,0,81,false,stim,false,1,455.99999999976717,1,0,1,31360,task1,1259970,false,false,1537,image-keyboard-response,40
true,12,0,1,0,true,q,false,true,0.0-2.0-0.54-0.487-3.487,0,0,0,81,false,stim,false,2,376.99999999976717,1,0,2,31360,task1,1261853,false,false,1540,image-keyboard-response,41
true,12,2,1,2,true,d,false,true,0.0-2.0-0.54-0.488-3.488,0,0,0,68,false,stim,false,0,443.0,1,0,0,31360,task1,1263803,false,false,1543,image-keyboard-response,42
true,12,0,1,0,true,q,false,true,0.0-2.0-0.54-0.489-3.489,0,0,0,81,false,stim,false,2,365.0,1,0,2,31360,task1,1265674,false,false,1546,image-keyboard-response,43
true,13,0,2,1,false,z,false,false,0.0-2.0-0.54-0.490-3.490,0,0,0,81,true,stim,true,0,365.0,1,0,1,31360,task1,1267546,false,false,1549,image-keyboard-response,1
true,13,2,2,1,false,z,false,true,0.0-2.0-0.54-0.491-3.491,0,0,0,68,false,stim,true,2,789.0000000002328,1,0,0,31360,task1,1269842,false,true,1552,image-keyboard-response,2
true,13,2,2,1,false,z,false,false,0.0-2.0-0.54-0.492-3.492,0,0,0,68,false,stim,true,2,420.0,1,0,0,31360,task1,1271767,false,false,1555,image-keyboard-response,3
true,13,0,2,2,false,d,false,false,0.0-2.0-0.54-0.493-3.493,0,0,0,81,false,stim,true,0,514.9999999997672,1,0,2,31360,task1,1273789,false,false,1558,image-keyboard-response,4
true,13,2,2,1,false,z,true,true,0.0-2.0-0.54-0.494-3.494,0,0,0,68,false,stim,false,0,541.0,1,0,1,31360,task1,1275838,false,true,1561,image-keyboard-response,5
true,13,2,2,2,true,d,false,true,0.0-2.0-0.55-0.495-3.495,0,0,0,68,false,stim,false,0,554.0,1,0,2,31360,task1,1277898,false,false,1564,image-keyboard-response,6
true,13,2,2,2,true,d,false,true,0.0-2.0-0.55-0.496-3.496,0,0,0,68,false,stim,false,0,490.0,1,0,2,31360,task1,1279896,false,false,1567,image-keyboard-response,7
true,13,0,2,1,false,z,true,false,0.0-2.0-0.55-0.497-3.497,0,0,0,81,false,stim,false,2,529.0,1,0,0,31360,task1,1281931,false,false,1570,image-keyboard-response,8
true,13,1,2,1,true,z,false,true,0.0-2.0-0.55-0.498-3.498,0,0,0,90,false,stim,false,2,407.99999999976717,1,0,0,31360,task1,1283845,false,false,1573,image-keyboard-response,9
true,13,2,2,1,false,z,false,false,0.0-2.0-0.55-0.499-3.499,0,0,0,68,false,stim,true,2,270.0,1,0,0,31360,task1,1285623,false,false,1576,image-keyboard-response,10
true,13,1,2,1,true,z,false,true,0.0-2.0-0.55-0.500-3.500,0,0,0,90,false,stim,false,0,278.00000000023283,1,0,1,31360,task1,1287409,false,false,1579,image-keyboard-response,11
true,13,2,2,2,true,d,false,true,0.0-2.0-0.55-0.501-3.501,0,0,0,68,false,stim,false,0,483.0,1,0,2,31360,task1,1289399,false,false,1582,image-keyboard-response,12
true,13,2,2,1,false,z,true,false,0.0-2.0-0.55-0.502-3.502,0,0,0,68,false,stim,false,0,415.0,1,0,1,31360,task1,1291320,false,false,1585,image-keyboard-response,13
true,13,1,2,1,true,z,false,false,0.0-2.0-0.55-0.503-3.503,0,0,0,90,false,stim,false,0,174.0,1,0,1,31360,task1,1293000,false,true,1588,image-keyboard-response,14
true,13,2,2,1,false,z,true,false,0.0-2.0-0.56-0.504-3.504,0,0,0,68,false,stim,false,0,412.0,1,0,1,31360,task1,1294923,false,false,1591,image-keyboard-response,15
true,13,0,2,1,false,z,true,false,0.0-2.0-0.56-0.505-3.505,0,0,0,81,false,stim,false,2,99.0,1,0,0,31360,task1,1296529,false,false,1594,image-keyboard-response,16
true,13,2,2,2,true,d,false,false,0.0-2.0-0.56-0.506-3.506,0,0,0,68,false,stim,false,0,606.0,1,0,2,31360,task1,1298643,false,true,1597,image-keyboard-response,17
true,13,1,2,1,true,z,false,true,0.0-2.0-0.56-0.507-3.507,0,0,0,90,false,stim,false,0,361.0,1,0,1,31360,task1,1300512,false,false,1600,image-keyboard-response,18
true,13,1,2,1,true,z,false,true,0.0-2.0-0.56-0.508-3.508,0,0,0,90,false,stim,false,2,536.0,1,0,0,31360,task1,1302567,false,false,1603,image-keyboard-response,19
true,13,1,2,2,false,d,true,false,0.0-2.0-0.56-0.509-3.509,0,0,0,90,false,stim,false,0,437.0,1,0,2,31360,task1,1304511,false,false,1606,image-keyboard-response,20
true,13,2,2,2,true,d,false,false,0.0-2.0-0.56-0.510-3.510,0,0,0,68,false,stim,false,0,468.00000000023283,1,0,2,31360,task1,1306486,false,true,1609,image-keyboard-response,21
true,13,1,2,1,true,z,false,true,0.0-2.0-0.56-0.511-3.511,0,0,0,90,false,stim,false,2,355.0,1,0,0,31360,task1,1308348,false,false,1612,image-keyboard-response,22
true,13,1,2,1,true,z,false,true,0.0-2.0-0.56-0.512-3.512,0,0,0,90,false,stim,false,0,484.0,1,0,1,31360,task1,1310339,false,false,1615,image-keyboard-response,23
true,13,1,2,1,true,z,false,true,0.0-2.0-0.57-0.513-3.513,0,0,0,90,false,stim,false,2,332.0,1,0,0,31360,task1,1312181,false,false,1618,image-keyboard-response,24
true,13,1,2,2,false,d,true,false,0.0-2.0-0.57-0.514-3.514,0,0,0,90,false,stim,false,0,659.9999999997672,1,0,2,31360,task1,1314348,false,false,1621,image-keyboard-response,25
true,13,2,2,1,false,z,false,true,0.0-2.0-0.57-0.515-3.515,0,0,0,68,false,stim,true,2,306.0,1,0,0,31360,task1,1316161,false,true,1624,image-keyboard-response,26
true,13,2,2,1,false,z,true,false,0.0-2.0-0.57-0.516-3.516,0,0,0,68,false,stim,false,0,317.0,1,0,1,31360,task1,1317984,false,false,1627,image-keyboard-response,27
true,13,1,2,1,true,z,false,true,0.0-2.0-0.57-0.517-3.517,0,0,0,90,false,stim,false,0,203.0,1,0,1,31360,task1,1319697,false,false,1630,image-keyboard-response,28
true,13,1,2,2,false,d,true,true,0.0-2.0-0.57-0.518-3.518,0,0,0,90,false,stim,false,0,400.0,1,0,2,31360,task1,1321602,false,true,1633,image-keyboard-response,29
true,13,1,2,1,true,z,false,true,0.0-2.0-0.57-0.519-3.519,0,0,0,90,false,stim,false,0,208.0,1,0,1,31360,task1,1323314,false,false,1636,image-keyboard-response,30
true,13,1,2,2,false,d,true,false,0.0-2.0-0.57-0.520-3.520,0,0,0,90,false,stim,false,0,186.0,1,0,2,31360,task1,1325007,false,false,1639,image-keyboard-response,31
true,13,2,2,1,false,z,false,false,0.0-2.0-0.57-0.521-3.521,0,0,0,68,false,stim,true,2,257.0,1,0,0,31360,task1,1326769,false,false,1642,image-keyboard-response,32
true,13,0,2,1,false,z,true,false,0.0-2.0-0.58-0.522-3.522,0,0,0,81,false,stim,false,2,184.99999999976717,1,0,0,31360,task1,1328461,false,false,1645,image-keyboard-response,33
true,13,1,2,1,true,z,false,true,0.0-2.0-0.58-0.523-3.523,0,0,0,90,false,stim,false,0,87.99999999976717,1,0,1,31360,task1,1330055,false,false,1648,image-keyboard-response,34
true,13,1,2,2,false,d,true,false,0.0-2.0-0.58-0.524-3.524,0,0,0,90,false,stim,false,0,234.0,1,0,2,31360,task1,1331798,false,false,1651,image-keyboard-response,35
true,13,2,2,1,false,z,true,false,0.0-2.0-0.58-0.525-3.525,0,0,0,68,false,stim,false,0,163.0,1,0,1,31360,task1,1333467,false,false,1654,image-keyboard-response,36
true,13,0,2,2,false,d,false,false,0.0-2.0-0.58-0.526-3.526,0,0,0,81,false,stim,true,0,58.0,1,0,2,31360,task1,1335032,false,false,1657,image-keyboard-response,37
true,13,1,2,1,true,z,false,true,0.0-2.0-0.58-0.527-3.527,0,0,0,90,false,stim,false,2,76.0,1,0,0,31360,task1,1336615,false,false,1660,image-keyboard-response,38
true,13,2,2,1,false,z,false,false,0.0-2.0-0.58-0.528-3.528,0,0,0,68,false,stim,true,2,190.99999999976717,1,1,0,31360,task1,1338313,false,false,1663,image-keyboard-response,39
true,13,1,2,2,false,d,true,false,0.0-2.0-0.58-0.529-3.529,0,0,0,90,false,stim,false,0,112.0,1,1,2,31360,task1,1339931,false,false,1666,image-keyboard-response,40
true,13,2,2,1,false,z,true,false,0.0-2.0-0.58-0.530-3.530,0,0,0,68,false,stim,false,0,113.0,1,1,1,31360,task1,1341554,false,false,1669,image-keyboard-response,41
true,13,0,2,1,false,z,false,false,0.0-2.0-0.59-0.531-3.531,0,0,0,81,false,stim,true,0,83.0,1,1,1,31360,task1,1343143,false,false,1672,image-keyboard-response,42
true,13,1,2,1,true,z,false,false,0.0-2.0-0.59-0.532-3.532,0,0,0,90,false,stim,false,0,584.0,1,1,1,31360,task1,1345233,false,true,1675,image-keyboard-response,43
true,14,0,0,2,false,d,true,false,0.0-2.0-0.59-0.533-3.533,1,1,1,81,true,stim,false,2,686.0,1,1,2,31360,task1,1467739,false,false,1798,image-keyboard-response,1
true,14,1,0,2,false,d,true,false,0.0-2.0-0.59-0.534-3.534,1,1,1,90,false,stim,false,2,355.0,1,1,2,31360,task1,1469608,false,false,1801,image-keyboard-response,2
true,14,2,0,1,false,z,true,false,0.0-2.0-0.59-0.535-3.535,1,1,1,68,false,stim,false,1,574.0000000002328,1,1,0,31360,task1,1471689,false,false,1804,image-keyboard-response,3
true,14,1,0,2,false,d,true,false,0.0-2.0-0.59-0.536-3.536,1,1,1,90,false,stim,false,2,675.0,1,1,2,31360,task1,1473871,false,false,1807,image-keyboard-response,4
true,14,2,0,1,false,z,true,false,0.0-2.0-0.59-0.537-3.537,1,1,1,68,false,stim,false,1,628.0,1,1,0,31360,task1,1476006,false,false,1810,image-keyboard-response,5
true,14,1,0,1,true,z,false,true,0.0-2.0-0.59-0.538-3.538,1,1,1,90,false,stim,false,1,898.0,1,1,1,31360,task1,1478412,false,false,1813,image-keyboard-response,6
true,14,1,0,1,true,z,false,true,0.0-2.0-0.59-0.539-3.539,1,1,1,90,false,stim,false,1,571.9999999997672,1,1,0,31360,task1,1480492,false,false,1816,image-keyboard-response,7
true,14,0,0,2,false,d,true,false,0.0-2.0-0.60-0.540-3.540,1,1,1,81,false,stim,false,2,636.0,1,1,2,31360,task1,1482637,false,false,1819,image-keyboard-response,8
true,14,1,0,1,true,z,false,true,0.0-2.0-0.60-0.541-3.541,1,1,1,90,false,stim,false,1,369.0,1,0,0,31360,task1,1484511,false,false,1822,image-keyboard-response,9
true,14,1,0,1,true,z,false,false,0.0-2.0-0.60-0.542-3.542,1,1,1,90,false,stim,false,1,409.0,1,0,0,31360,task1,1486424,false,true,1825,image-keyboard-response,10
true,14,1,0,1,true,z,false,true,0.0-2.0-0.60-0.543-3.543,1,1,1,90,false,stim,false,1,367.0,1,0,0,31360,task1,1488300,false,false,1828,image-keyboard-response,11
true,14,1,0,1,true,z,false,false,0.0-2.0-0.60-0.544-3.544,1,1,1,90,false,stim,false,1,391.99999999976717,1,0,1,31360,task1,1490197,false,true,1831,image-keyboard-response,12
true,14,2,0,1,false,z,true,false,0.0-2.0-0.60-0.545-3.545,1,1,1,68,false,stim,false,1,509.0,1,0,1,31360,task1,1492211,false,false,1834,image-keyboard-response,13
true,15,1,2,1,true,z,false,true,0.0-2.0-0.60-0.546-3.546,0,0,0,90,true,stim,false,2,583.0,1,0,2,31360,task1,1494298,false,false,1837,image-keyboard-response,1
true,15,1,2,2,false,d,false,false,0.0-2.0-0.60-0.547-3.547,0,0,0,90,false,stim,true,1,337.99999999976717,1,0,1,31360,task1,1496143,false,false,1840,image-keyboard-response,2
true,15,0,2,1,false,z,true,false,0.0-2.0-0.60-0.548-3.548,0,0,0,81,false,stim,false,2,565.0,1,0,2,31360,task1,1498215,false,false,1843,image-keyboard-response,3
true,15,1,2,1,true,z,false,true,0.0-2.0-0.61-0.549-3.549,0,0,0,90,false,stim,false,2,413.0,1,0,2,31360,task1,1500141,false,false,1846,image-keyboard-response,4
true,15,1,2,1,true,z,false,true,0.0-2.0-0.61-0.550-3.550,0,0,0,90,false,stim,false,2,239.0,1,0,2,31360,task1,1501884,false,false,1849,image-keyboard-response,5
true,15,1,2,2,false,d,false,false,0.0-2.0-0.61-0.551-3.551,0,0,0,90,false,stim,true,1,200.99999999976717,1,0,0,31360,task1,1503592,false,false,1852,image-keyboard-response,6
true,15,2,2,2,true,d,false,true,0.0-2.0-0.61-0.552-3.552,0,0,0,68,false,stim,false,1,342.0,1,0,0,31360,task1,1505441,false,false,1855,image-keyboard-response,7
true,15,1,2,2,false,d,false,false,0.0-2.0-0.61-0.553-3.553,0,0,0,90,false,stim,true,1,660.0,1,0,1,31360,task1,1507609,false,false,1858,image-keyboard-response,8
true,15,0,2,2,false,d,true,false,0.0-2.0-0.61-0.554-3.554,0,0,0,81,false,stim,false,1,5.0,1,0,0,31360,task1,1509120,false,false,1861,image-keyboard-response,9
true,15,2,2,2,true,d,false,true,0.0-2.0-0.61-0.555-3.555,0,0,0,68,false,stim,false,1,48.0,1,0,1,31360,task1,1510678,false,false,1864,image-keyboard-response,10
true,15,2,2,2,true,d,false,true,0.0-2.0-0.61-0.556-3.556,0,0,0,68,false,stim,false,1,372.0,1,0,1,31360,task1,1512558,false,false,1867,image-keyboard-response,11
true,15,2,2,1,false,z,false,false,0.0-2.0-0.61-0.557-3.557,0,0,0,68,false,stim,true,2,333.99999999976717,1,0,2,31360,task1,1514399,false,false,1870,image-keyboard-response,12
true,15,1,2,2,false,d,false,false,0.0-2.0-0.62-0.558-3.558,0,0,0,90,false,stim,true,1,272.0,1,0,1,31360,task1,1516179,false,false,1873,image-keyboard-response,13
true,15,2,2,2,true,d,false,false,0.0-2.0-0.62-0.559-3.559,0,0,0,68,false,stim,false,1,299.0,1,0,1,31360,task1,1517985,false,true,1876,image-keyboard-response,14
true,15,0,2,2,false,d,true,false,0.0-2.0-0.62-0.560-3.560,0,0,0,81,false,stim,false,1,283.0,1,0,0,31360,task1,1519774,false,false,1879,image-keyboard-response,15
true,15,1,2,2,false,d,false,false,0.0-2.0-0.62-0.561-3.561,0,0,0,90,false,stim,true,1,209.0,1,0,1,31360,task1,1521488,false,false,1882,image-keyboard-response,16
true,15,1,2,1,true,z,false,true,0.0-2.0-0.62-0.562-3.562,0,0,0,90,false,stim,false,2,298.0,1,0,2,31360,task1,1523293,false,false,1885,image-keyboard-response,17
true,15,2,2,2,true,d,false,true,0.0-2.0-0.62-0.563-3.563,0,0,0,68,false,stim,false,1,559.0,1,0,0,31360,task1,1525361,false,false,1888,image-keyboard-response,18
true,15,1,2,1,true,z,false,true,0.0-2.0-0.62-0.564-3.564,0,0,0,90,false,stim,false,2,396.0,1,0,2,31360,task1,1527263,false,false,1891,image-keyboard-response,19
true,15,2,2,2,true,d,false,true,0.0-2.0-0.62-0.565-3.565,0,0,0,68,false,stim,false,1,683.0,1,0,0,31360,task1,1529454,false,false,1894,image-keyboard-response,20
true,15,1,2,1,true,z,false,true,0.0-2.0-0.62-0.566-3.566,0,0,0,90,false,stim,false,2,371.0,1,0,2,31360,task1,1531333,false,false,1897,image-keyboard-response,21
true,15,2,2,2,true,d,false,true,0.0-2.0-0.63-0.567-3.567,0,0,0,68,false,stim,false,1,509.0,1,0,0,31360,task1,1533350,false,false,1900,image-keyboard-response,22
true,15,1,2,1,true,z,false,true,0.0-2.0-0.63-0.568-3.568,0,0,0,90,false,stim,false,2,391.99999999976717,1,0,2,31360,task1,1535265,false,false,1903,image-keyboard-response,23
true,15,1,2,1,true,z,false,false,0.0-2.0-0.63-0.569-3.569,0,0,0,90,false,stim,false,2,403.0,1,0,2,31360,task1,1537174,false,true,1906,image-keyboard-response,24
true,15,1,2,1,true,z,false,true,0.0-2.0-0.63-0.570-3.570,0,0,0,90,false,stim,false,2,483.99999999976717,1,0,2,31360,task1,1539165,false,false,1909,image-keyboard-response,25
true,15,2,2,2,true,d,false,true,0.0-2.0-0.63-0.571-3.571,0,0,0,68,false,stim,false,1,477.00000000023283,1,0,1,31360,task1,1541151,false,false,1912,image-keyboard-response,26
true,15,2,2,2,true,d,false,true,0.0-2.0-0.63-0.572-3.572,0,0,0,68,false,stim,false,1,431.0,1,0,0,31360,task1,1543089,false,false,1915,image-keyboard-response,27
true,15,2,2,2,true,d,false,true,0.0-2.0-0.63-0.573-3.573,0,0,0,68,false,stim,false,1,329.0,1,0,0,31360,task1,1544926,false,false,1918,image-keyboard-response,28
true,15,2,2,2,true,d,false,true,0.0-2.0-0.63-0.574-3.574,0,0,0,68,false,stim,false,1,366.0,1,0,1,31360,task1,1546798,false,false,1921,image-keyboard-response,29
true,15,2,2,2,true,d,false,false,0.0-2.0-0.63-0.575-3.575,0,0,0,68,false,stim,false,1,417.0,1,0,1,31360,task1,1548721,false,true,1924,image-keyboard-response,30
true,15,2,2,2,true,d,false,true,0.0-2.0-0.64-0.576-3.576,0,0,0,68,false,stim,false,1,526.0,1,0,0,31360,task1,1550753,false,false,1927,image-keyboard-response,31
true,15,2,2,2,true,d,false,true,0.0-2.0-0.64-0.577-3.577,0,0,0,68,false,stim,false,1,213.0,1,0,1,31360,task1,1552476,false,false,1930,image-keyboard-response,32
true,15,1,2,2,false,d,false,true,0.0-2.0-0.64-0.578-3.578,0,0,0,90,false,stim,true,1,569.0,1,0,0,31360,task1,1554549,false,true,1933,image-keyboard-response,33
true,15,2,2,1,false,z,false,false,0.0-2.0-0.64-0.579-3.579,0,0,0,68,false,stim,true,2,861.9999999997672,1,0,2,31360,task1,1556919,false,false,1936,image-keyboard-response,34
true,15,1,2,1,true,z,false,true,0.0-2.0-0.64-0.580-3.580,0,0,0,90,false,stim,false,2,392.0,1,0,2,31360,task1,1558817,false,false,1939,image-keyboard-response,35
true,15,1,2,2,false,d,false,false,0.0-2.0-0.64-0.581-3.581,0,0,0,90,false,stim,true,1,360.0,1,0,1,31360,task1,1560684,false,false,1942,image-keyboard-response,36
true,15,1,2,2,false,d,false,false,0.0-2.0-0.64-0.582-3.582,0,0,0,90,false,stim,true,1,646.0,1,0,0,31360,task1,1562837,false,false,1945,image-keyboard-response,37
true,15,2,2,1,false,z,false,false,0.0-2.0-0.64-0.583-3.583,0,0,0,68,false,stim,true,2,549.9999999997672,1,0,2,31360,task1,1564894,false,false,1948,image-keyboard-response,38
true,15,1,2,2,false,d,false,false,0.0-2.0-0.64-0.584-3.584,0,0,0,90,false,stim,true,1,550.0000000002328,1,0,1,31360,task1,1566950,false,false,1951,image-keyboard-response,39
true,15,2,2,2,true,d,false,true,0.0-2.0-0.65-0.585-3.585,0,0,0,68,false,stim,false,1,320.99999999976717,1,0,1,31360,task1,1568780,false,false,1954,image-keyboard-response,40
true,15,2,2,2,true,d,false,true,0.0-2.0-0.65-0.586-3.586,0,0,0,68,false,stim,false,1,299.0,1,0,0,31360,task1,1570586,false,false,1957,image-keyboard-response,41
true,16,2,2,1,false,z,false,false,0.0-2.0-0.65-0.587-3.587,0,0,0,68,true,stim,true,2,305.0,1,0,0,31360,task1,1572398,false,false,1960,image-keyboard-response,1
true,16,2,2,2,true,d,false,true,0.0-2.0-0.65-0.588-3.588,0,0,0,68,false,stim,false,1,118.0,1,0,2,31360,task1,1574024,false,false,1963,image-keyboard-response,2
true,16,2,2,2,true,d,false,true,0.0-2.0-0.65-0.589-3.589,0,0,0,68,false,stim,false,1,205.0,1,0,2,31360,task1,1575736,false,false,1966,image-keyboard-response,3
true,16,2,2,1,false,z,false,false,0.0-2.0-0.65-0.590-3.590,0,0,0,68,false,stim,true,2,169.0,1,0,1,31360,task1,1577410,false,false,1969,image-keyboard-response,4
true,16,2,2,1,false,z,false,false,0.0-2.0-0.65-0.591-3.591,0,0,0,68,false,stim,true,2,196.00000000023283,1,0,1,31360,task1,1579114,false,false,1972,image-keyboard-response,5
true,16,2,2,1,false,z,false,false,0.0-2.0-0.65-0.592-3.592,0,0,0,68,false,stim,true,2,296.0,1,0,0,31360,task1,1580918,false,false,1975,image-keyboard-response,6
true,16,1,2,2,false,d,false,false,0.0-2.0-0.65-0.593-3.593,0,0,0,90,false,stim,true,1,161.0,1,0,2,31360,task1,1582587,false,false,1978,image-keyboard-response,7
true,16,0,2,1,false,z,true,false,0.0-2.0-0.66-0.594-3.594,0,0,0,81,false,stim,false,2,519.0,1,0,0,31360,task1,1584613,false,false,1981,image-keyboard-response,8
true,16,1,2,2,false,d,false,false,0.0-2.0-0.66-0.595-3.595,0,0,0,90,false,stim,true,1,113.0,1,0,2,31360,task1,1586234,false,false,1984,image-keyboard-response,9
true,16,0,2,2,false,d,true,false,0.0-2.0-0.66-0.596-3.596,0,0,0,81,false,stim,false,1,171.0,1,0,2,31360,task1,1587913,false,false,1987,image-keyboard-response,10
true,16,2,2,1,false,z,false,false,0.0-2.0-0.66-0.597-3.597,0,0,0,68,false,stim,true,2,168.0,1,0,1,31360,task1,1589588,false,false,1990,image-keyboard-response,11
true,16,1,2,1,true,z,false,true,0.0-2.0-0.66-0.598-3.598,0,0,0,90,false,stim,false,2,147.99999999976717,1,0,0,31360,task1,1591242,false,false,1993,image-keyboard-response,12
true,16,1,2,1,true,z,false,true,0.0-2.0-0.66-0.599-3.599,0,0,0,90,false,stim,false,2,123.0,1,0,1,31360,task1,1592870,false,false,1996,image-keyboard-response,13
true,16,1,2,1,true,z,false,true,0.0-2.0-0.66-0.600-3.600,0,0,0,90,false,stim,false,2,154.0,1,0,0,31360,task1,1594530,false,false,1999,image-keyboard-response,14
true,16,1,2,1,true,z,false,false,0.0-2.0-0.66-0.601-3.601,0,0,0,90,false,stim,false,2,83.0,1,0,1,31360,task1,1596132,false,true,2002,image-keyboard-response,15
true,16,1,2,2,false,d,false,true,0.0-2.0-0.66-0.602-3.602,0,0,0,90,false,stim,true,1,66.0,1,0,2,31360,task1,1597705,false,true,2005,image-keyboard-response,16
true,16,1,2,2,false,d,false,false,0.0-2.0-0.67-0.603-3.603,0,0,0,90,false,stim,true,1,308.0,1,0,2,31360,task1,1599521,false,false,2008,image-keyboard-response,17
true,16,1,2,1,true,z,false,false,0.0-2.0-0.67-0.604-3.604,0,0,0,90,false,stim,false,2,233.0,1,0,1,31360,task1,1601264,false,true,2011,image-keyboard-response,18
true,16,2,2,2,true,d,false,true,0.0-2.0-0.67-0.605-3.605,0,0,0,68,false,stim,false,1,291.0,1,0,2,31360,task1,1603063,false,false,2014,image-keyboard-response,19
true,16,2,2,1,false,z,false,false,0.0-2.0-0.67-0.606-3.606,0,0,0,68,false,stim,true,2,161.0,1,0,0,31360,task1,1604732,false,false,2017,image-keyboard-response,20
true,16,2,2,2,true,d,false,true,0.0-2.0-0.67-0.607-3.607,0,0,0,68,false,stim,false,1,271.99999999976717,1,0,2,31360,task1,1606511,false,false,2020,image-keyboard-response,21
true,16,2,2,1,false,z,false,false,0.0-2.0-0.67-0.608-3.608,0,0,0,68,false,stim,true,2,251.0,1,0,0,31360,task1,1608270,false,false,2023,image-keyboard-response,22
true,16,0,2,1,false,z,true,false,0.0-2.0-0.67-0.609-3.609,0,0,0,81,false,stim,false,2,84.99999999976717,1,0,1,31360,task1,1609861,false,false,2026,image-keyboard-response,23
true,16,1,2,1,true,z,false,true,0.0-2.0-0.67-0.610-3.610,0,0,0,90,false,stim,false,2,134.0,1,0,0,31360,task1,1611503,false,false,2029,image-keyboard-response,24
true,16,1,2,1,true,z,false,true,0.0-2.0-0.67-0.611-3.611,0,0,0,90,false,stim,false,2,473.0,1,0,1,31360,task1,1613515,false,false,2032,image-keyboard-response,25
true,16,2,2,2,true,d,false,true,0.0-2.0-0.68-0.612-3.612,0,0,0,68,false,stim,false,1,461.0,1,0,2,31360,task1,1615484,false,false,2035,image-keyboard-response,26
true,16,1,2,2,false,d,false,false,0.0-2.0-0.68-0.613-3.613,0,0,0,90,false,stim,true,1,214.0,1,0,2,31360,task1,1617205,false,false,2038,image-keyboard-response,27
true,16,2,2,1,false,z,false,false,0.0-2.0-0.68-0.614-3.614,0,0,0,68,false,stim,true,2,233.0,1,0,1,31360,task1,1618945,false,false,2041,image-keyboard-response,28
