answered,blockNum,choice,condition,corResp,correct,correct_response,explo,fb,internal_node_id,isStable_1,isStable_2,isStable_3,key_press,newBlock,part,persev,persevResp,rt,sessNum,stableAS,stimulus,subject,task,time_elapsed,training,trap,trial_index,trial_type,trialsInBlock
true,1,1,0,1,true,z,false,true,0.0-2.0-0.0-0.0-3.0,0,0,0,90,true,stim,false,-1,1855.0,1,0,1,34858,task1,130077,false,false,115,image-keyboard-response,1
true,1,1,0,1,true,z,false,true,0.0-2.0-0.0-0.1-3.1,0,0,0,90,false,stim,false,-1,506.0,1,0,1,34858,task1,132089,false,false,118,image-keyboard-response,2
true,1,2,0,0,false,q,true,false,0.0-2.0-0.0-0.2-3.2,0,0,0,68,false,stim,false,-1,588.0,1,0,0,34858,task1,134182,false,false,121,image-keyboard-response,3
true,1,2,0,0,false,q,true,false,0.0-2.0-0.0-0.3-3.3,0,0,0,68,false,stim,false,-1,454.0,1,0,0,34858,task1,136141,false,false,124,image-keyboard-response,4
true,1,0,0,0,true,q,false,true,0.0-2.0-0.0-0.4-3.4,0,0,0,81,false,stim,false,-1,431.0,1,0,0,34858,task1,138079,false,false,127,image-keyboard-response,5
true,1,1,0,1,true,z,false,true,0.0-2.0-0.0-0.5-3.5,0,0,0,90,false,stim,false,-1,533.0,1,0,1,34858,task1,140117,false,false,130,image-keyboard-response,6
true,1,2,0,2,true,d,false,true,0.0-2.0-0.0-0.6-3.6,0,0,0,68,false,stim,false,-1,550.0,1,0,2,34858,task1,142172,false,false,133,image-keyboard-response,7
true,1,2,0,2,true,d,false,true,0.0-2.0-0.0-0.7-3.7,0,0,0,68,false,stim,false,-1,457.9999999999709,1,0,2,34858,task1,144136,false,false,136,image-keyboard-response,8
true,1,2,0,2,true,d,false,true,0.0-2.0-0.0-0.8-3.8,0,0,0,68,false,stim,false,-1,433.0,1,0,2,34858,task1,146075,false,false,139,image-keyboard-response,9
true,1,1,0,1,true,z,false,true,0.0-2.0-0.1-0.9-3.9,0,0,0,90,false,stim,false,-1,994.0,1,0,1,34858,task1,148575,false,false,142,image-keyboard-response,10
true,1,0,0,0,true,q,false,true,0.0-2.0-0.1-0.10-3.10,0,0,0,81,false,stim,false,-1,690.0,1,0,0,34858,task1,150770,false,false,145,image-keyboard-response,11
true,1,0,0,0,true,q,false,true,0.0-2.0-0.1-0.11-3.11,0,0,0,81,false,stim,false,-1,583.0,1,0,0,34858,task1,152859,false,false,148,image-keyboard-response,12
true,1,1,0,1,true,z,false,true,0.0-2.0-0.1-0.12-3.12,0,0,0,90,false,stim,false,-1,721.0,1,0,1,34858,task1,155086,false,false,151,image-keyboard-response,13
true,1,2,0,2,true,d,false,true,0.0-2.0-0.1-0.13-3.13,0,0,0,68,false,stim,false,-1,899.0,1,0,2,34858,task1,157490,false,false,154,image-keyboard-response,14
true,1,2,0,2,true,d,false,true,0.0-2.0-0.1-0.14-3.14,0,0,0,68,false,stim,false,-1,591.0,1,0,2,34858,task1,159586,false,false,157,image-keyboard-response,15
true,1,1,0,1,true,z,false,true,0.0-2.0-0.1-0.15-3.15,0,0,0,90,false,stim,false,-1,950.0000000000291,1,0,1,34858,task1,162041,false,false,160,image-keyboard-response,16
true,1,0,0,0,true,q,false,true,0.0-2.0-0.1-0.16-3.16,0,0,0,81,false,stim,false,-1,823.9999999999709,1,0,0,34858,task1,164371,false,false,163,image-keyboard-response,17
true,1,2,0,2,true,d,false,true,0.0-2.0-0.1-0.17-3.17,0,0,0,68,false,stim,false,-1,1193.0,1,0,2,34858,task1,167071,false,false,166,image-keyboard-response,18
true,1,2,0,2,true,d,false,true,0.0-2.0-0.2-0.18-3.18,0,0,0,68,false,stim,false,-1,530.0,1,0,2,34858,task1,169107,false,false,169,image-keyboard-response,19
true,1,2,0,2,true,d,false,true,0.0-2.0-0.2-0.19-3.19,0,0,0,68,false,stim,false,-1,487.0,1,0,2,34858,task1,171098,false,false,172,image-keyboard-response,20
true,1,0,0,0,true,q,false,true,0.0-2.0-0.2-0.20-3.20,0,0,0,81,false,stim,false,-1,626.0,1,0,0,34858,task1,173228,false,false,175,image-keyboard-response,21
true,1,0,0,0,true,q,false,true,0.0-2.0-0.2-0.21-3.21,0,0,0,81,false,stim,false,-1,562.0,1,0,0,34858,task1,175295,false,false,178,image-keyboard-response,22
true,1,0,0,0,true,q,false,true,0.0-2.0-0.2-0.22-3.22,0,0,0,81,false,stim,false,-1,508.0,1,0,0,34858,task1,177308,false,false,181,image-keyboard-response,23
true,1,1,0,1,true,z,false,true,0.0-2.0-0.2-0.23-3.23,0,0,0,90,false,stim,false,-1,525.0000000000291,1,0,1,34858,task1,179340,false,false,184,image-keyboard-response,24
true,1,2,0,1,false,z,true,true,0.0-2.0-0.2-0.24-3.24,0,0,0,68,false,stim,false,-1,396.0000000000291,1,0,1,34858,task1,181239,false,true,187,image-keyboard-response,25
true,1,2,0,2,true,d,false,true,0.0-2.0-0.2-0.25-3.25,0,0,0,68,false,stim,false,-1,642.9999999999709,1,0,2,34858,task1,183387,false,false,190,image-keyboard-response,26
true,2,2,1,2,true,d,false,true,0.0-2.0-0.2-0.26-3.26,0,0,0,68,true,stim,false,1,596.0,1,0,1,34858,task1,185490,false,false,193,image-keyboard-response,1
true,2,0,1,2,false,d,false,false,0.0-2.0-0.3-0.27-3.27,0,0,0,81,false,stim,true,0,496.0,1,0,0,34858,task1,187492,false,false,196,image-keyboard-response,2
true,2,2,1,0,false,q,false,false,0.0-2.0-0.3-0.28-3.28,0,0,0,68,false,stim,true,2,662.0,1,0,2,34858,task1,189660,false,false,199,image-keyboard-response,3
true,2,1,1,0,false,q,true,false,0.0-2.0-0.3-0.29-3.29,0,0,0,90,false,stim,false,2,612.0,1,0,2,34858,task1,191780,false,false,202,image-keyboard-response,4
true,2,2,1,2,true,d,false,false,0.0-2.0-0.3-0.30-3.30,0,0,0,68,false,stim,false,1,899.9999999999709,1,0,1,34858,task1,194186,false,true,205,image-keyboard-response,5
true,2,0,1,0,true,q,false,true,0.0-2.0-0.3-0.31-3.31,0,0,0,81,false,stim,false,2,848.0,1,0,2,34858,task1,196538,false,false,208,image-keyboard-response,6
true,2,0,1,2,false,d,true,false,0.0-2.0-0.3-0.32-3.32,0,0,0,81,false,stim,false,1,445.0,1,0,1,34858,task1,198488,false,false,211,image-keyboard-response,7
true,2,1,1,2,false,d,false,true,0.0-2.0-0.3-0.33-3.33,0,0,0,90,false,stim,true,1,546.0,1,0,1,34858,task1,200540,false,true,214,image-keyboard-response,8
true,2,2,1,2,true,d,false,true,0.0-2.0-0.3-0.34-3.34,0,0,0,68,false,stim,false,0,601.0,1,0,0,34858,task1,202646,false,false,217,image-keyboard-response,9
true,2,2,1,2,true,d,false,false,0.0-2.0-0.3-0.35-3.35,0,0,0,68,false,stim,false,0,558.0000000000291,1,0,0,34858,task1,204709,false,true,220,image-keyboard-response,10
true,2,0,1,0,true,q,false,true,0.0-2.0-0.4-0.36-3.36,0,0,0,81,false,stim,false,2,800.9999999999709,1,0,2,34858,task1,207017,false,false,223,image-keyboard-response,11
true,2,0,1,0,true,q,false,true,0.0-2.0-0.4-0.37-3.37,0,0,0,81,false,stim,false,2,520.0,1,0,2,34858,task1,209041,false,false,226,image-keyboard-response,12
true,2,2,1,2,true,d,false,true,0.0-2.0-0.4-0.38-3.38,0,0,0,68,false,stim,false,0,825.0,1,0,0,34858,task1,211371,false,false,229,image-keyboard-response,13
true,2,0,1,0,true,q,false,true,0.0-2.0-0.4-0.39-3.39,0,0,0,81,false,stim,false,2,931.9999999999709,1,0,2,34858,task1,213809,false,false,232,image-keyboard-response,14
true,2,1,1,2,false,d,false,false,0.0-2.0-0.4-0.40-3.40,0,0,0,90,false,stim,true,1,808.0,1,0,1,34858,task1,216123,false,false,235,image-keyboard-response,15
true,2,2,1,2,true,d,false,true,0.0-2.0-0.4-0.41-3.41,0,0,0,68,false,stim,false,1,800.0,1,0,1,34858,task1,218428,false,false,238,image-keyboard-response,16
true,2,2,1,2,true,d,false,false,0.0-2.0-0.4-0.42-3.42,0,0,0,68,false,stim,false,0,496.0000000000291,1,0,0,34858,task1,220430,false,true,241,image-keyboard-response,17
true,2,2,1,2,true,d,false,true,0.0-2.0-0.4-0.43-3.43,0,0,0,68,false,stim,false,1,777.9999999999709,1,0,1,34858,task1,222714,false,false,244,image-keyboard-response,18
true,2,2,1,2,true,d,false,true,0.0-2.0-0.4-0.44-3.44,0,0,0,68,false,stim,false,0,451.0,1,0,0,34858,task1,224670,false,false,247,image-keyboard-response,19
true,2,2,1,2,true,d,false,true,0.0-2.0-0.5-0.45-3.45,0,0,0,68,false,stim,false,0,376.0,1,0,0,34858,task1,226551,false,false,250,image-keyboard-response,20
true,2,2,1,2,true,d,false,true,0.0-2.0-0.5-0.46-3.46,0,0,0,68,false,stim,false,1,844.9999999999709,1,0,1,34858,task1,228900,false,false,253,image-keyboard-response,21
true,2,2,1,2,true,d,false,true,0.0-2.0-0.5-0.47-3.47,0,0,0,68,false,stim,false,0,819.0,1,0,0,34858,task1,231224,false,false,256,image-keyboard-response,22
true,2,0,1,0,true,q,false,true,0.0-2.0-0.5-0.48-3.48,0,0,0,81,false,stim,false,2,678.0,1,0,2,34858,task1,233407,false,false,259,image-keyboard-response,23
true,2,2,1,2,true,d,false,true,0.0-2.0-0.5-0.49-3.49,0,0,0,68,false,stim,false,1,861.9999999999709,1,0,1,34858,task1,235774,false,false,262,image-keyboard-response,24
true,2,2,1,2,true,d,false,true,0.0-2.0-0.5-0.50-3.50,0,0,0,68,false,stim,false,0,948.0,1,0,0,34858,task1,238226,false,false,265,image-keyboard-response,25
true,2,0,1,0,true,q,false,true,0.0-2.0-0.5-0.51-3.51,0,0,0,81,false,stim,false,2,985.0,1,0,2,34858,task1,240718,false,false,268,image-keyboard-response,26
true,2,0,1,0,true,q,false,true,0.0-2.0-0.5-0.52-3.52,0,0,0,81,false,stim,false,2,513.9999999999709,1,0,2,34858,task1,242736,false,false,271,image-keyboard-response,27
true,2,2,1,2,true,d,false,true,0.0-2.0-0.5-0.53-3.53,0,0,0,68,false,stim,false,1,1218.999999999971,1,0,1,34858,task1,245459,false,false,274,image-keyboard-response,28
true,2,2,1,0,false,q,false,false,0.0-2.0-0.6-0.54-3.54,0,0,0,68,false,stim,true,2,442.0000000000291,1,0,2,34858,task1,247407,false,false,277,image-keyboard-response,29
true,2,0,1,0,true,q,false,true,0.0-2.0-0.6-0.55-3.55,0,0,0,81,false,stim,false,2,507.0000000000291,1,0,2,34858,task1,249419,false,false,280,image-keyboard-response,30
true,2,0,1,0,true,q,false,true,0.0-2.0-0.6-0.56-3.56,0,0,0,81,false,stim,false,2,1005.0,1,0,2,34858,task1,251928,false,false,283,image-keyboard-response,31
true,2,2,1,2,true,d,false,true,0.0-2.0-0.6-0.57-3.57,0,0,0,68,false,stim,false,0,927.0,1,0,0,34858,task1,254362,false,false,286,image-keyboard-response,32
true,2,0,1,2,false,d,true,false,0.0-2.0-0.6-0.58-3.58,0,0,0,81,false,stim,false,1,1081.0,1,0,1,34858,task1,256948,false,false,289,image-keyboard-response,33
true,2,2,1,2,true,d,false,true,0.0-2.0-0.6-0.59-3.59,0,0,0,68,false,stim,false,0,379.0000000000291,1,0,0,34858,task1,258832,false,false,292,image-keyboard-response,34
true,2,2,1,2,true,d,false,true,0.0-2.0-0.6-0.60-3.60,0,0,0,68,false,stim,false,0,509.0,1,0,0,34858,task1,260847,false,false,295,image-keyboard-response,35
true,2,2,1,2,true,d,false,true,0.0-2.0-0.6-0.61-3.61,0,0,0,68,false,stim,false,1,1178.9999999999418,1,0,1,34858,task1,263530,false,false,298,image-keyboard-response,36
true,2,2,1,2,true,d,false,true,0.0-2.0-0.6-0.62-3.62,0,0,0,68,false,stim,false,1,617.0,1,0,1,34858,task1,265654,false,false,301,image-keyboard-response,37
true,2,2,1,2,true,d,false,false,0.0-2.0-0.7-0.63-3.63,0,0,0,68,false,stim,false,1,349.0,1,0,1,34858,task1,267507,false,true,304,image-keyboard-response,38
true,2,1,1,0,false,q,true,false,0.0-2.0-0.7-0.64-3.64,0,0,0,90,false,stim,false,2,669.9999999999418,1,0,2,34858,task1,269683,false,false,307,image-keyboard-response,39
true,2,2,1,2,true,d,false,true,0.0-2.0-0.7-0.65-3.65,0,0,0,68,false,stim,false,0,226.0,1,0,0,34858,task1,271415,false,false,310,image-keyboard-response,40
true,3,2,1,2,true,d,false,true,0.0-2.0-0.7-0.66-3.66,0,0,0,68,true,stim,false,0,1540.0,1,0,2,34858,task1,274460,false,false,313,image-keyboard-response,1
true,3,2,1,1,false,z,false,false,0.0-2.0-0.7-0.67-3.67,0,0,0,68,false,stim,true,2,1448.0,1,0,1,34858,task1,277413,false,false,316,image-keyboard-response,2
true,3,1,1,2,false,d,true,false,0.0-2.0-0.7-0.68-3.68,0,0,0,90,false,stim,false,0,516.0,1,0,2,34858,task1,279434,false,false,319,image-keyboard-response,3
true,3,0,1,1,false,z,true,false,0.0-2.0-0.7-0.69-3.69,0,0,0,81,false,stim,false,2,2129.0,1,0,1,34858,task1,283069,false,false,322,image-keyboard-response,4
true,3,0,1,1,false,z,true,false,0.0-2.0-0.7-0.70-3.70,0,0,0,81,false,stim,false,2,1525.0,1,0,0,34858,task1,286100,false,false,325,image-keyboard-response,5
false,3,-1,1,1,false,z,true,false,0.0-2.0-0.7-0.71-3.71,0,0,0,,false,stim,false,2,,1,0,0,34858,task1,290606,false,false,328,image-keyboard-response,6
true,3,2,1,1,false,z,false,false,0.0-2.0-0.8-0.72-3.72,0,0,0,68,false,stim,true,2,1167.0,1,0,1,34858,task1,293279,false,false,331,image-keyboard-response,7
false,3,-1,1,1,false,z,true,false,0.0-2.0-0.8-0.73-3.73,0,0,0,,false,stim,false,2,,1,0,1,34858,task1,297785,false,false,334,image-keyboard-response,8
true,3,2,1,2,true,d,false,true,0.0-2.0-0.8-0.74-3.74,0,0,0,68,false,stim,false,0,363.0,1,0,2,34858,task1,299653,false,false,337,image-keyboard-response,9
true,3,2,1,2,true,d,false,true,0.0-2.0-0.8-0.75-3.75,0,0,0,68,false,stim,false,0,99.0,1,0,2,34858,task1,301258,false,false,340,image-keyboard-response,10
true,3,2,1,1,false,z,false,false,0.0-2.0-0.8-0.76-3.76,0,0,0,68,false,stim,true,2,317.9999999999418,1,0,0,34858,task1,303082,false,false,343,image-keyboard-response,11
true,3,1,1,1,true,z,false,true,0.0-2.0-0.8-0.77-3.77,0,0,0,90,false,stim,false,2,317.0,1,0,0,34858,task1,304903,false,false,346,image-keyboard-response,12
true,3,2,1,1,false,z,false,false,0.0-2.0-0.8-0.78-3.78,0,0,0,68,false,stim,true,2,13.0,1,0,1,34858,task1,306421,false,false,349,image-keyboard-response,13
true,3,1,1,2,false,d,true,false,0.0-2.0-0.8-0.79-3.79,0,0,0,90,false,stim,false,0,44.0,1,0,2,34858,task1,307970,false,false,352,image-keyboard-response,14
true,3,0,1,1,false,z,true,false,0.0-2.0-0.8-0.80-3.80,0,0,0,81,false,stim,false,2,423.0,1,0,0,34858,task1,309899,false,false,355,image-keyboard-response,15
false,3,-1,1,2,false,d,true,false,0.0-2.0-0.9-0.81-3.81,0,0,0,,false,stim,false,0,,1,0,2,34858,task1,314407,false,false,358,image-keyboard-response,16
true,3,0,1,1,false,z,true,false,0.0-2.0-0.9-0.82-3.82,0,0,0,81,false,stim,false,2,1710.9999999999418,1,0,0,34858,task1,317623,false,false,361,image-keyboard-response,17
true,3,0,1,1,false,z,true,false,0.0-2.0-0.9-0.83-3.83,0,0,0,81,false,stim,false,2,611.0,1,0,1,34858,task1,319739,false,false,364,image-keyboard-response,18
true,3,1,1,1,true,z,false,true,0.0-2.0-0.9-0.84-3.84,0,0,0,90,false,stim,false,2,349.0,1,0,0,34858,task1,321594,false,false,367,image-keyboard-response,19
true,3,1,1,1,true,z,false,true,0.0-2.0-0.9-0.85-3.85,0,0,0,90,false,stim,false,2,891.0000000000582,1,0,0,34858,task1,323990,false,false,370,image-keyboard-response,20
true,3,2,1,2,true,d,false,true,0.0-2.0-0.9-0.86-3.86,0,0,0,68,false,stim,false,0,1403.0,1,0,2,34858,task1,326898,false,false,373,image-keyboard-response,21
true,3,1,1,1,true,z,false,true,0.0-2.0-0.9-0.87-3.87,0,0,0,90,false,stim,false,2,756.0,1,0,1,34858,task1,329158,false,false,376,image-keyboard-response,22
true,3,1,1,1,true,z,false,true,0.0-2.0-0.9-0.88-3.88,0,0,0,90,false,stim,false,2,2091.0,1,0,1,34858,task1,332753,false,false,379,image-keyboard-response,23
true,3,2,1,2,true,d,false,true,0.0-2.0-0.9-0.89-3.89,0,0,0,68,false,stim,false,0,682.0,1,0,2,34858,task1,334941,false,false,382,image-keyboard-response,24
true,3,0,1,1,false,z,true,false,0.0-2.0-0.10-0.90-3.90,0,0,0,81,false,stim,false,2,2177.0,1,0,1,34858,task1,338624,false,false,385,image-keyboard-response,25
true,3,0,1,2,false,d,false,true,0.0-2.0-0.10-0.91-3.91,0,0,0,81,false,stim,true,0,1600.0,1,0,2,34858,task1,341729,false,true,388,image-keyboard-response,26
true,3,0,1,1,false,z,true,false,0.0-2.0-0.10-0.92-3.92,0,0,0,81,false,stim,false,2,2836.0,1,0,1,34858,task1,346070,false,false,391,image-keyboard-response,27
true,3,0,1,1,false,z,true,false,0.0-2.0-0.10-0.93-3.93,0,0,0,81,false,stim,false,2,145.0,1,0,1,34858,task1,347721,false,false,394,image-keyboard-response,28
true,3,2,1,1,false,z,false,false,0.0-2.0-0.10-0.94-3.94,0,0,0,68,false,stim,true,2,325.0,1,0,0,34858,task1,349552,false,false,397,image-keyboard-response,29
true,3,1,1,1,true,z,false,true,0.0-2.0-0.10-0.95-3.95,0,0,0,90,false,stim,false,2,281.9999999999418,1,0,0,34858,task1,351337,false,false,400,image-keyboard-response,30
true,3,1,1,2,false,d,true,false,0.0-2.0-0.10-0.96-3.96,0,0,0,90,false,stim,false,0,1726.0,1,0,2,34858,task1,354573,false,false,403,image-keyboard-response,31
true,3,2,1,2,true,d,false,true,0.0-2.0-0.10-0.97-3.97,0,0,0,68,false,stim,false,0,1110.0,1,0,2,34858,task1,357189,false,false,406,image-keyboard-response,32
true,3,2,1,1,false,z,false,false,0.0-2.0-0.10-0.98-3.98,0,0,0,68,false,stim,true,2,1096.0,1,0,0,34858,task1,359790,false,false,409,image-keyboard-response,33
true,3,2,1,1,false,z,false,false,0.0-2.0-0.11-0.99-3.99,0,0,0,68,false,stim,true,2,1670.0,1,0,1,34858,task1,362965,false,false,412,image-keyboard-response,34
true,3,0,1,2,false,d,false,false,0.0-2.0-0.11-0.100-3.100,0,0,0,81,false,stim,true,0,1509.0,1,0,2,34858,task1,365980,false,false,415,image-keyboard-response,35
true,3,2,1,1,false,z,false,false,0.0-2.0-0.11-0.101-3.101,0,0,0,68,false,stim,true,2,2098.0,1,0,0,34858,task1,369584,false,false,418,image-keyboard-response,36
true,3,1,1,1,true,z,false,true,0.0-2.0-0.11-0.102-3.102,0,0,0,90,false,stim,false,2,203.0,1,0,1,34858,task1,371291,false,false,421,image-keyboard-response,37
true,3,1,1,1,true,z,false,true,0.0-2.0-0.11-0.103-3.103,0,0,0,90,false,stim,false,2,199.0,1,0,0,34858,task1,372996,false,false,424,image-keyboard-response,38
true,3,1,1,1,true,z,false,true,0.0-2.0-0.11-0.104-3.104,0,0,0,90,false,stim,false,2,355.0,1,0,1,34858,task1,374857,false,false,427,image-keyboard-response,39
true,3,1,1,2,false,d,true,false,0.0-2.0-0.11-0.105-3.105,0,0,0,90,false,stim,false,0,682.0,1,0,2,34858,task1,377044,false,false,430,image-keyboard-response,40
true,3,1,1,2,false,d,true,false,0.0-2.0-0.11-0.106-3.106,0,0,0,90,false,stim,false,0,2603.0,1,0,2,34858,task1,381154,false,false,433,image-keyboard-response,41
true,3,2,1,1,false,z,false,false,0.0-2.0-0.11-0.107-3.107,0,0,0,68,false,stim,true,2,188.0,1,0,0,34858,task1,382847,false,false,436,image-keyboard-response,42
true,3,0,1,1,false,z,true,false,0.0-2.0-0.12-0.108-3.108,0,0,0,81,false,stim,false,2,1596.0,1,0,1,34858,task1,385947,false,false,439,image-keyboard-response,43
true,4,0,1,2,false,d,true,false,0.0-2.0-0.12-0.109-3.109,0,0,0,81,true,stim,false,1,364.0,1,0,0,34858,task1,387818,false,false,442,image-keyboard-response,1
true,4,1,1,1,true,z,false,true,0.0-2.0-0.12-0.110-3.110,0,0,0,90,false,stim,false,2,705.0,1,0,2,34858,task1,390027,false,false,445,image-keyboard-response,2
true,4,2,1,2,true,d,false,true,0.0-2.0-0.12-0.111-3.111,0,0,0,68,false,stim,false,1,1320.0,1,0,1,34858,task1,392853,false,false,448,image-keyboard-response,3
true,4,2,1,2,true,d,false,true,0.0-2.0-0.12-0.112-3.112,0,0,0,68,false,stim,false,1,367.0,1,0,0,34858,task1,394723,false,false,451,image-keyboard-response,4
true,4,2,1,2,true,d,false,true,0.0-2.0-0.12-0.113-3.113,0,0,0,68,false,stim,false,1,333.0,1,0,1,34858,task1,396560,false,false,454,image-keyboard-response,5
true,4,2,1,2,true,d,false,true,0.0-2.0-0.12-0.114-3.114,0,0,0,68,false,stim,false,1,2383.0,1,0,0,34858,task1,400450,false,false,457,image-keyboard-response,6
true,4,2,1,1,false,z,false,true,0.0-2.0-0.12-0.115-3.115,0,0,0,68,false,stim,true,2,376.0000000000582,1,0,2,34858,task1,402331,false,true,460,image-keyboard-response,7
true,4,2,1,1,false,z,false,false,0.0-2.0-0.12-0.116-3.116,0,0,0,68,false,stim,true,2,363.0,1,0,2,34858,task1,404200,false,false,463,image-keyboard-response,8
true,4,2,1,1,false,z,false,false,0.0-2.0-0.13-0.117-3.117,0,0,0,68,false,stim,true,2,1310.9999999999418,1,0,2,34858,task1,407017,false,false,466,image-keyboard-response,9
true,4,0,1,2,false,d,true,false,0.0-2.0-0.13-0.118-3.118,0,0,0,81,false,stim,false,1,519.0,1,0,0,34858,task1,409041,false,false,469,image-keyboard-response,10
true,4,2,1,2,true,d,false,true,0.0-2.0-0.13-0.119-3.119,0,0,0,68,false,stim,false,1,59.0,1,0,0,34858,task1,410604,false,false,472,image-keyboard-response,11
true,4,0,1,2,false,d,true,true,0.0-2.0-0.13-0.120-3.120,0,0,0,81,false,stim,false,1,404.0,1,0,1,34858,task1,412513,false,true,475,image-keyboard-response,12
true,4,0,1,2,false,d,true,false,0.0-2.0-0.13-0.121-3.121,0,0,0,81,false,stim,false,1,282.0,1,0,1,34858,task1,414301,false,false,478,image-keyboard-response,13
true,4,0,1,1,false,z,true,false,0.0-2.0-0.13-0.122-3.122,0,0,0,81,false,stim,false,2,62.0,1,0,2,34858,task1,415869,false,false,481,image-keyboard-response,14
true,4,2,1,2,true,d,false,true,0.0-2.0-0.13-0.123-3.123,0,0,0,68,false,stim,false,1,331.0,1,0,1,34858,task1,417705,false,false,484,image-keyboard-response,15
true,4,0,1,1,false,z,true,false,0.0-2.0-0.13-0.124-3.124,0,0,0,81,false,stim,false,2,385.0,1,0,2,34858,task1,419596,false,false,487,image-keyboard-response,16
true,4,0,1,2,false,d,true,false,0.0-2.0-0.13-0.125-3.125,0,0,0,81,false,stim,false,1,18.0,1,0,0,34858,task1,421117,false,false,490,image-keyboard-response,17
true,4,2,1,1,false,z,false,false,0.0-2.0-0.14-0.126-3.126,0,0,0,68,false,stim,true,2,138.0,1,0,2,34858,task1,422761,false,false,493,image-keyboard-response,18
true,4,0,1,2,false,d,true,false,0.0-2.0-0.14-0.127-3.127,0,0,0,81,false,stim,false,1,301.0,1,0,1,34858,task1,424567,false,false,496,image-keyboard-response,19
true,4,1,1,2,false,d,false,true,0.0-2.0-0.14-0.128-3.128,0,0,0,90,false,stim,true,1,56.0,1,0,0,34858,task1,426129,false,true,499,image-keyboard-response,20
true,4,1,1,2,false,d,false,false,0.0-2.0-0.14-0.129-3.129,0,0,0,90,false,stim,true,1,255.0,1,0,1,34858,task1,427895,false,false,502,image-keyboard-response,21
true,4,1,1,1,true,z,false,true,0.0-2.0-0.14-0.130-3.130,0,0,0,90,false,stim,false,2,65.00000000005821,1,0,2,34858,task1,429464,false,false,505,image-keyboard-response,22
true,4,1,1,2,false,d,false,false,0.0-2.0-0.14-0.131-3.131,0,0,0,90,false,stim,true,1,422.0000000000582,1,0,0,34858,task1,431392,false,false,508,image-keyboard-response,23
true,4,2,1,2,true,d,false,false,0.0-2.0-0.14-0.132-3.132,0,0,0,68,false,stim,false,1,62.0,1,0,1,34858,task1,432959,false,true,511,image-keyboard-response,24
true,4,1,1,1,true,z,false,true,0.0-2.0-0.14-0.133-3.133,0,0,0,90,false,stim,false,2,80.99999999994179,1,0,2,34858,task1,434545,false,false,514,image-keyboard-response,25
true,4,0,1,2,false,d,true,false,0.0-2.0-0.14-0.134-3.134,0,0,0,81,false,stim,false,1,970.0,1,0,0,34858,task1,437020,false,false,517,image-keyboard-response,26
true,4,2,1,2,true,d,false,true,0.0-2.0-0.15-0.135-3.135,0,0,0,68,false,stim,false,1,1752.0,1,0,0,34858,task1,440278,false,false,520,image-keyboard-response,27
true,4,0,1,1,false,z,true,false,0.0-2.0-0.15-0.136-3.136,0,0,0,81,false,stim,false,2,465.0,1,0,2,34858,task1,442247,false,false,523,image-keyboard-response,28
true,4,0,1,1,false,z,true,false,0.0-2.0-0.15-0.137-3.137,0,0,0,81,false,stim,false,2,251.0,1,0,2,34858,task1,444004,false,false,526,image-keyboard-response,29
true,4,0,1,2,false,d,true,false,0.0-2.0-0.15-0.138-3.138,0,0,0,81,false,stim,false,1,487.0,1,0,1,34858,task1,445997,false,false,529,image-keyboard-response,30
true,4,2,1,2,true,d,false,true,0.0-2.0-0.15-0.139-3.139,0,0,0,68,false,stim,false,1,959.0,1,0,1,34858,task1,448461,false,false,532,image-keyboard-response,31
true,4,0,1,1,false,z,true,false,0.0-2.0-0.15-0.140-3.140,0,0,0,81,false,stim,false,2,1100.0000000000582,1,0,2,34858,task1,451065,false,false,535,image-keyboard-response,32
true,4,0,1,2,false,d,true,false,0.0-2.0-0.15-0.141-3.141,0,0,0,81,false,stim,false,1,94.0,1,0,0,34858,task1,452664,false,false,538,image-keyboard-response,33
true,4,2,1,2,true,d,false,true,0.0-2.0-0.15-0.142-3.142,0,0,0,68,false,stim,false,1,192.0,1,0,1,34858,task1,454362,false,false,541,image-keyboard-response,34
true,4,2,1,2,true,d,false,true,0.0-2.0-0.15-0.143-3.143,0,0,0,68,false,stim,false,1,2364.0,1,0,0,34858,task1,458231,false,false,544,image-keyboard-response,35
true,4,2,1,2,true,d,false,true,0.0-2.0-0.16-0.144-3.144,0,0,0,68,false,stim,false,1,595.0,1,0,1,34858,task1,460331,false,false,547,image-keyboard-response,36
true,4,2,1,1,false,z,false,false,0.0-2.0-0.16-0.145-3.145,0,0,0,68,false,stim,true,2,762.0,1,0,2,34858,task1,462598,false,false,550,image-keyboard-response,37
true,4,2,1,2,true,d,false,false,0.0-2.0-0.16-0.146-3.146,0,0,0,68,false,stim,false,1,596.9999999999418,1,0,0,34858,task1,464700,false,true,553,image-keyboard-response,38
true,4,0,1,2,false,d,true,false,0.0-2.0-0.16-0.147-3.147,0,0,0,81,false,stim,false,1,912.0,1,0,0,34858,task1,467116,false,false,556,image-keyboard-response,39
true,4,0,1,1,false,z,true,false,0.0-2.0-0.16-0.148-3.148,0,0,0,81,false,stim,false,2,386.0,1,0,2,34858,task1,469008,false,false,559,image-keyboard-response,40
false,4,-1,1,1,false,z,true,false,0.0-2.0-0.16-0.149-3.149,0,0,0,,false,stim,false,2,,1,0,2,34858,task1,473513,false,false,562,image-keyboard-response,41
false,4,-1,1,2,false,d,true,true,0.0-2.0-0.16-0.150-3.150,0,0,0,,false,stim,false,1,,1,0,0,34858,task1,478019,false,true,565,image-keyboard-response,42
true,5,0,2,1,false,z,true,false,0.0-2.0-0.16-0.151-3.151,0,0,0,81,true,stim,false,2,1145.0,1,0,1,34858,task1,480669,false,false,568,image-keyboard-response,1
true,5,0,2,1,false,z,true,false,0.0-2.0-0.16-0.152-3.152,0,0,0,81,false,stim,false,2,573.0,1,0,1,34858,task1,482748,false,false,571,image-keyboard-response,2
true,5,1,2,1,true,z,false,true,0.0-2.0-0.17-0.153-3.153,0,0,0,90,false,stim,false,2,600.0,1,0,1,34858,task1,484855,false,false,574,image-keyboard-response,3
true,5,1,2,1,true,z,false,true,0.0-2.0-0.17-0.154-3.154,0,0,0,90,false,stim,false,2,767.0,1,0,1,34858,task1,487128,false,false,577,image-keyboard-response,4
true,5,2,2,1,false,z,false,false,0.0-2.0-0.17-0.155-3.155,0,0,0,68,false,stim,true,2,2006.0000000000582,1,0,0,34858,task1,490638,false,false,580,image-keyboard-response,5
true,5,2,2,2,true,d,false,true,0.0-2.0-0.17-0.156-3.156,0,0,0,68,false,stim,false,1,2358.0,1,0,2,34858,task1,494502,false,false,583,image-keyboard-response,6
true,5,2,2,1,false,z,false,false,0.0-2.0-0.17-0.157-3.157,0,0,0,68,false,stim,true,2,1684.0000000000582,1,0,0,34858,task1,497692,false,false,586,image-keyboard-response,7
true,5,2,2,2,true,d,false,false,0.0-2.0-0.17-0.158-3.158,0,0,0,68,false,stim,false,1,2408.999999999942,1,0,2,34858,task1,501606,false,true,589,image-keyboard-response,8
true,5,1,2,1,true,z,false,true,0.0-2.0-0.17-0.159-3.159,0,0,0,90,false,stim,false,2,3.0,1,0,0,34858,task1,503114,false,false,592,image-keyboard-response,9
true,5,2,2,1,false,z,false,false,0.0-2.0-0.17-0.160-3.160,0,0,0,68,false,stim,true,2,275.0,1,0,1,34858,task1,504893,false,false,595,image-keyboard-response,10
true,5,2,2,2,true,d,false,true,0.0-2.0-0.17-0.161-3.161,0,0,0,68,false,stim,false,1,471.0,1,0,2,34858,task1,506869,false,false,598,image-keyboard-response,11
true,5,2,2,2,true,d,false,true,0.0-2.0-0.18-0.162-3.162,0,0,0,68,false,stim,false,1,1074.0,1,0,2,34858,task1,509454,false,false,601,image-keyboard-response,12
true,5,2,2,1,false,z,false,false,0.0-2.0-0.18-0.163-3.163,0,0,0,68,false,stim,true,2,1469.0,1,0,0,34858,task1,512429,false,false,604,image-keyboard-response,13
true,5,2,2,1,false,z,false,false,0.0-2.0-0.18-0.164-3.164,0,0,0,68,false,stim,true,2,1141.0,1,0,1,34858,task1,515075,false,false,607,image-keyboard-response,14
true,5,2,2,1,false,z,false,false,0.0-2.0-0.18-0.165-3.165,0,0,0,68,false,stim,true,2,75.00000000005821,1,0,0,34858,task1,516655,false,false,610,image-keyboard-response,15
true,5,2,2,2,true,d,false,true,0.0-2.0-0.18-0.166-3.166,0,0,0,68,false,stim,false,1,29.999999999941792,1,0,2,34858,task1,518191,false,false,613,image-keyboard-response,16
true,5,2,2,1,false,z,false,false,0.0-2.0-0.18-0.167-3.167,0,0,0,68,false,stim,true,2,15.999999999941792,1,0,0,34858,task1,519712,false,false,616,image-keyboard-response,17
true,5,1,2,1,true,z,false,true,0.0-2.0-0.18-0.168-3.168,0,0,0,90,false,stim,false,2,395.9999999999418,1,0,1,34858,task1,521614,false,false,619,image-keyboard-response,18
true,5,2,2,2,true,d,false,true,0.0-2.0-0.18-0.169-3.169,0,0,0,68,false,stim,false,1,1065.0,1,0,2,34858,task1,524184,false,false,622,image-keyboard-response,19
true,5,0,2,1,false,z,true,false,0.0-2.0-0.18-0.170-3.170,0,0,0,81,false,stim,false,2,152.00000000011642,1,0,1,34858,task1,525841,false,false,625,image-keyboard-response,20
true,5,2,2,1,false,z,false,false,0.0-2.0-0.19-0.171-3.171,0,0,0,68,false,stim,true,2,689.0,1,0,1,34858,task1,528036,false,false,628,image-keyboard-response,21
true,5,0,2,1,false,z,true,true,0.0-2.0-0.19-0.172-3.172,0,0,0,81,false,stim,false,2,1692.0,1,0,0,34858,task1,531233,false,true,631,image-keyboard-response,22
true,5,1,2,2,false,d,false,false,0.0-2.0-0.19-0.173-3.173,0,0,0,90,false,stim,true,1,573.0000000001164,1,0,2,34858,task1,533313,false,false,634,image-keyboard-response,23
true,5,2,2,2,true,d,false,false,0.0-2.0-0.19-0.174-3.174,0,0,0,68,false,stim,false,1,341.0,1,0,2,34858,task1,535159,false,true,637,image-keyboard-response,24
true,5,1,2,1,true,z,false,true,0.0-2.0-0.19-0.175-3.175,0,0,0,90,false,stim,false,2,589.0,1,0,0,34858,task1,537254,false,false,640,image-keyboard-response,25
true,5,0,2,1,false,z,true,true,0.0-2.0-0.19-0.176-3.176,0,0,0,81,false,stim,false,2,636.0,1,0,1,34858,task1,539396,false,true,643,image-keyboard-response,26
true,5,1,2,1,true,z,false,true,0.0-2.0-0.19-0.177-3.177,0,0,0,90,false,stim,false,2,575.0,1,0,0,34858,task1,541477,false,false,646,image-keyboard-response,27
true,5,2,2,2,true,d,false,true,0.0-2.0-0.19-0.178-3.178,0,0,0,68,false,stim,false,1,515.0,1,0,2,34858,task1,543498,false,false,649,image-keyboard-response,28
true,5,0,2,1,false,z,true,false,0.0-2.0-0.19-0.179-3.179,0,0,0,81,false,stim,false,2,487.0,1,0,1,34858,task1,545492,false,false,652,image-keyboard-response,29
true,5,1,2,1,true,z,false,true,0.0-2.0-0.20-0.180-3.180,0,0,0,90,false,stim,false,2,577.0,1,0,1,34858,task1,547576,false,false,655,image-keyboard-response,30
true,5,1,2,1,true,z,false,true,0.0-2.0-0.20-0.181-3.181,0,0,0,90,false,stim,false,2,717.9999999998836,1,0,0,34858,task1,549800,false,false,658,image-keyboard-response,31
true,5,2,2,2,true,d,false,true,0.0-2.0-0.20-0.182-3.182,0,0,0,68,false,stim,false,1,430.0,1,0,2,34858,task1,551735,false,false,661,image-keyboard-response,32
true,5,1,2,1,true,z,false,true,0.0-2.0-0.20-0.183-3.183,0,0,0,90,false,stim,false,2,802.0,1,0,0,34858,task1,554042,false,false,664,image-keyboard-response,33
true,5,2,2,2,true,d,false,true,0.0-2.0-0.20-0.184-3.184,0,0,0,68,false,stim,false,1,457.0,1,0,2,34858,task1,556005,false,false,667,image-keyboard-response,34
true,5,1,2,1,true,z,false,true,0.0-2.0-0.20-0.185-3.185,0,0,0,90,false,stim,false,2,749.0000000001164,1,0,0,34858,task1,558260,false,false,670,image-keyboard-response,35
true,5,1,2,1,true,z,false,true,0.0-2.0-0.20-0.186-3.186,0,0,0,90,false,stim,false,2,615.0,1,0,1,34858,task1,560381,false,false,673,image-keyboard-response,36
true,5,2,2,2,true,d,false,true,0.0-2.0-0.20-0.187-3.187,0,0,0,68,false,stim,false,1,444.0000000001164,1,0,2,34858,task1,562332,false,false,676,image-keyboard-response,37
true,5,1,2,1,true,z,false,false,0.0-2.0-0.20-0.188-3.188,0,0,0,90,false,stim,false,2,564.0,1,0,1,34858,task1,564402,false,true,679,image-keyboard-response,38
true,5,2,2,1,false,z,false,false,0.0-2.0-0.21-0.189-3.189,0,0,0,68,false,stim,true,2,592.0,1,0,1,34858,task1,566499,false,false,682,image-keyboard-response,39
true,5,2,2,2,true,d,false,true,0.0-2.0-0.21-0.190-3.190,0,0,0,68,false,stim,false,1,698.0,1,0,2,34858,task1,568703,false,false,685,image-keyboard-response,40
true,6,1,2,2,false,d,false,false,0.0-2.0-0.21-0.191-3.191,0,0,0,90,true,stim,true,1,695.0,1,0,0,34858,task1,570903,false,false,688,image-keyboard-response,1
true,6,0,2,2,false,d,true,false,0.0-2.0-0.21-0.192-3.192,0,0,0,81,false,stim,false,1,466.0,1,0,1,34858,task1,572873,false,false,691,image-keyboard-response,2
true,6,2,2,2,true,d,false,true,0.0-2.0-0.21-0.193-3.193,0,0,0,68,false,stim,false,1,621.0,1,0,0,34858,task1,575000,false,false,694,image-keyboard-response,3
true,6,2,2,2,true,d,false,true,0.0-2.0-0.21-0.194-3.194,0,0,0,68,false,stim,false,1,408.0,1,0,0,34858,task1,576914,false,false,697,image-keyboard-response,4
true,6,2,2,1,false,z,false,false,0.0-2.0-0.21-0.195-3.195,0,0,0,68,false,stim,true,2,1116.0,1,0,2,34858,task1,579536,false,false,700,image-keyboard-response,5
true,6,0,2,1,false,z,true,false,0.0-2.0-0.21-0.196-3.196,0,0,0,81,false,stim,false,2,474.0,1,0,2,34858,task1,581520,false,false,703,image-keyboard-response,6
true,6,0,2,2,false,d,true,false,0.0-2.0-0.21-0.197-3.197,0,0,0,81,false,stim,false,1,727.0,1,0,1,34858,task1,583751,false,false,706,image-keyboard-response,7
true,6,2,2,2,true,d,false,true,0.0-2.0-0.22-0.198-3.198,0,0,0,68,false,stim,false,1,637.0,1,0,0,34858,task1,585894,false,false,709,image-keyboard-response,8
true,6,2,2,2,true,d,false,true,0.0-2.0-0.22-0.199-3.199,0,0,0,68,false,stim,false,1,669.0,1,0,0,34858,task1,588069,false,false,712,image-keyboard-response,9
true,6,2,2,2,true,d,false,true,0.0-2.0-0.22-0.200-3.200,0,0,0,68,false,stim,false,1,604.0,1,0,0,34858,task1,590179,false,false,715,image-keyboard-response,10
true,6,1,2,2,false,d,false,true,0.0-2.0-0.22-0.201-3.201,0,0,0,90,false,stim,true,1,977.0,1,0,1,34858,task1,592663,false,true,718,image-keyboard-response,11
true,6,0,2,1,false,z,true,false,0.0-2.0-0.22-0.202-3.202,0,0,0,81,false,stim,false,2,846.0,1,0,2,34858,task1,595014,false,false,721,image-keyboard-response,12
true,6,2,2,1,false,z,false,false,0.0-2.0-0.22-0.203-3.203,0,0,0,68,false,stim,true,2,711.0,1,0,2,34858,task1,597232,false,false,724,image-keyboard-response,13
true,6,1,2,2,false,d,false,false,0.0-2.0-0.22-0.204-3.204,0,0,0,90,false,stim,true,1,307.9999999998836,1,0,1,34858,task1,599045,false,false,727,image-keyboard-response,14
true,6,2,2,2,true,d,false,true,0.0-2.0-0.22-0.205-3.205,0,0,0,68,false,stim,false,1,268.0,1,0,1,34858,task1,600818,false,false,730,image-keyboard-response,15
true,6,2,2,1,false,z,false,false,0.0-2.0-0.22-0.206-3.206,0,0,0,68,false,stim,true,2,413.0,1,0,2,34858,task1,602736,false,false,733,image-keyboard-response,16
true,6,2,2,2,true,d,false,true,0.0-2.0-0.23-0.207-3.207,0,0,0,68,false,stim,false,1,147.99999999988358,1,0,1,34858,task1,604390,false,false,736,image-keyboard-response,17
true,6,2,2,2,true,d,false,true,0.0-2.0-0.23-0.208-3.208,0,0,0,68,false,stim,false,1,187.0,1,0,0,34858,task1,606082,false,false,739,image-keyboard-response,18
true,6,2,2,1,false,z,false,false,0.0-2.0-0.23-0.209-3.209,0,0,0,68,false,stim,true,2,298.9999999998836,1,0,2,34858,task1,607887,false,false,742,image-keyboard-response,19
true,6,2,2,2,true,d,false,true,0.0-2.0-0.23-0.210-3.210,0,0,0,68,false,stim,false,1,62.0,1,0,0,34858,task1,609455,false,false,745,image-keyboard-response,20
true,6,2,2,2,true,d,false,true,0.0-2.0-0.23-0.211-3.211,0,0,0,68,false,stim,false,1,254.00000000011642,1,0,1,34858,task1,611213,false,false,748,image-keyboard-response,21
true,6,2,2,2,true,d,false,true,0.0-2.0-0.23-0.212-3.212,0,0,0,68,false,stim,false,1,2165.0,1,0,0,34858,task1,614885,false,false,751,image-keyboard-response,22
true,6,2,2,1,false,z,false,false,0.0-2.0-0.23-0.213-3.213,0,0,0,68,false,stim,true,2,7.0,1,0,2,34858,task1,616397,false,false,754,image-keyboard-response,23
false,6,-1,2,2,false,d,true,false,0.0-2.0-0.23-0.214-3.214,0,0,0,,false,stim,false,1,,1,0,1,34858,task1,620905,false,false,757,image-keyboard-response,24
false,6,-1,2,1,false,z,true,true,0.0-2.0-0.23-0.215-3.215,0,0,0,,false,stim,false,2,,1,0,2,34858,task1,625411,false,true,760,image-keyboard-response,25
true,6,1,2,2,false,d,false,false,0.0-2.0-0.24-0.216-3.216,0,0,0,90,false,stim,true,1,973.9999999998836,1,0,0,34858,task1,627890,false,false,763,image-keyboard-response,26
true,6,1,2,2,false,d,false,false,0.0-2.0-0.24-0.217-3.217,0,0,0,90,false,stim,true,1,371.0,1,0,0,34858,task1,629766,false,false,766,image-keyboard-response,27
true,6,2,2,2,true,d,false,false,0.0-2.0-0.24-0.218-3.218,0,0,0,68,false,stim,false,1,370.0,1,0,1,34858,task1,631641,false,true,769,image-keyboard-response,28
true,6,2,2,2,true,d,false,true,0.0-2.0-0.24-0.219-3.219,0,0,0,68,false,stim,false,1,2070.0,1,0,0,34858,task1,635217,false,false,772,image-keyboard-response,29
false,6,-1,2,1,false,z,true,false,0.0-2.0-0.24-0.220-3.220,0,0,0,,false,stim,false,2,,1,0,2,34858,task1,639725,false,false,775,image-keyboard-response,30
true,6,1,2,1,true,z,false,false,0.0-2.0-0.24-0.221-3.221,0,0,0,90,false,stim,false,2,288.0,1,0,2,34858,task1,641519,false,true,778,image-keyboard-response,31
true,6,1,2,2,false,d,false,false,0.0-2.0-0.24-0.222-3.222,0,0,0,90,false,stim,true,1,161.0,1,0,1,34858,task1,643185,false,false,781,image-keyboard-response,32
true,6,1,2,1,true,z,false,true,0.0-2.0-0.24-0.223-3.223,0,0,0,90,false,stim,false,2,925.0,1,0,2,34858,task1,645617,false,false,784,image-keyboard-response,33
true,6,2,2,2,true,d,false,true,0.0-2.0-0.24-0.224-3.224,0,0,0,68,false,stim,false,1,1510.0000000001164,1,0,1,34858,task1,648633,false,false,787,image-keyboard-response,34
true,6,1,2,2,false,d,false,false,0.0-2.0-0.25-0.225-3.225,0,0,0,90,false,stim,true,1,1243.0,1,0,0,34858,task1,651382,false,false,790,image-keyboard-response,35
true,6,1,2,2,false,d,false,false,0.0-2.0-0.25-0.226-3.226,0,0,0,90,false,stim,true,1,355.9999999998836,1,0,0,34858,task1,653248,false,false,793,image-keyboard-response,36
true,6,0,2,2,false,d,true,false,0.0-2.0-0.25-0.227-3.227,0,0,0,81,false,stim,false,1,120.0,1,0,1,34858,task1,654873,false,false,796,image-keyboard-response,37
true,6,1,2,1,true,z,false,true,0.0-2.0-0.25-0.228-3.228,0,0,0,90,false,stim,false,2,401.0,1,0,2,34858,task1,656779,false,false,799,image-keyboard-response,38
true,6,1,2,1,true,z,false,true,0.0-2.0-0.25-0.229-3.229,0,0,0,90,false,stim,false,2,351.0,1,0,2,34858,task1,658643,false,false,802,image-keyboard-response,39
true,6,1,2,2,false,d,false,false,0.0-2.0-0.25-0.230-3.230,0,0,0,90,false,stim,true,1,333.0,1,0,1,34858,task1,660486,false,false,805,image-keyboard-response,40
true,6,2,2,2,true,d,false,false,0.0-2.0-0.25-0.231-3.231,0,0,0,68,false,stim,false,1,420.0,1,0,0,34858,task1,662413,false,true,808,image-keyboard-response,41
true,6,0,2,2,false,d,true,false,0.0-2.0-0.25-0.232-3.232,0,0,0,81,false,stim,false,1,294.9999999998836,1,0,1,34858,task1,664213,false,false,811,image-keyboard-response,42
true,7,0,2,2,false,d,true,false,0.0-2.0-0.25-0.233-3.233,0,0,0,81,true,stim,false,1,319.0,1,0,2,34858,task1,666036,false,false,814,image-keyboard-response,1
true,7,1,2,1,true,z,false,true,0.0-2.0-0.26-0.234-3.234,0,0,0,90,false,stim,false,2,410.0,1,0,0,34858,task1,667953,false,false,817,image-keyboard-response,2
true,7,1,2,1,true,z,false,true,0.0-2.0-0.26-0.235-3.235,0,0,0,90,false,stim,false,2,292.0,1,0,1,34858,task1,669752,false,false,820,image-keyboard-response,3
true,7,2,2,1,false,z,false,false,0.0-2.0-0.26-0.236-3.236,0,0,0,68,false,stim,true,2,310.0,1,0,1,34858,task1,671567,false,false,823,image-keyboard-response,4
true,7,2,2,1,false,z,false,false,0.0-2.0-0.26-0.237-3.237,0,0,0,68,false,stim,true,2,331.0,1,0,0,34858,task1,673406,false,false,826,image-keyboard-response,5
true,7,0,2,2,false,d,true,false,0.0-2.0-0.26-0.238-3.238,0,0,0,81,false,stim,false,1,371.9999999998836,1,0,2,34858,task1,675284,false,false,829,image-keyboard-response,6
true,7,0,2,1,false,z,true,false,0.0-2.0-0.26-0.239-3.239,0,0,0,81,false,stim,false,2,384.0,1,0,0,34858,task1,677174,false,false,832,image-keyboard-response,7
true,7,1,2,1,true,z,false,true,0.0-2.0-0.26-0.240-3.240,0,0,0,90,false,stim,false,2,222.0,1,0,1,34858,task1,678902,false,false,835,image-keyboard-response,8
true,7,1,2,2,false,d,false,false,0.0-2.0-0.26-0.241-3.241,0,0,0,90,false,stim,true,1,377.9999999998836,1,0,2,34858,task1,680786,false,false,838,image-keyboard-response,9
true,7,2,2,2,true,d,false,true,0.0-2.0-0.26-0.242-3.242,0,0,0,68,false,stim,false,1,448.0,1,0,2,34858,task1,682738,false,false,841,image-keyboard-response,10
true,7,2,2,1,false,z,false,false,0.0-2.0-0.27-0.243-3.243,0,0,0,68,false,stim,true,2,546.0,1,0,1,34858,task1,684792,false,false,844,image-keyboard-response,11
true,7,2,2,1,false,z,false,false,0.0-2.0-0.27-0.244-3.244,0,0,0,68,false,stim,true,2,260.0,1,0,1,34858,task1,686559,false,false,847,image-keyboard-response,12
true,7,0,2,2,false,d,true,true,0.0-2.0-0.27-0.245-3.245,0,0,0,81,false,stim,false,1,238.0,1,0,2,34858,task1,688304,false,true,850,image-keyboard-response,13
true,7,0,2,1,false,z,true,false,0.0-2.0-0.27-0.246-3.246,0,0,0,81,false,stim,false,2,253.0,1,0,0,34858,task1,690063,false,false,853,image-keyboard-response,14
true,7,0,2,1,false,z,true,true,0.0-2.0-0.27-0.247-3.247,0,0,0,81,false,stim,false,2,142.00000000011642,1,0,0,34858,task1,691711,false,true,856,image-keyboard-response,15
true,7,0,2,2,false,d,true,false,0.0-2.0-0.27-0.248-3.248,0,0,0,81,false,stim,false,1,502.0,1,0,2,34858,task1,693719,false,false,859,image-keyboard-response,16
true,7,0,2,1,false,z,true,true,0.0-2.0-0.27-0.249-3.249,0,0,0,81,false,stim,false,2,320.0,1,0,1,34858,task1,695547,false,true,862,image-keyboard-response,17
true,7,0,2,2,false,d,true,false,0.0-2.0-0.27-0.250-3.250,0,0,0,81,false,stim,false,1,435.0,1,0,2,34858,task1,697488,false,false,865,image-keyboard-response,18
true,7,0,2,1,false,z,true,false,0.0-2.0-0.27-0.251-3.251,0,0,0,81,false,stim,false,2,294.0000000001164,1,0,0,34858,task1,699288,false,false,868,image-keyboard-response,19
true,7,1,2,2,false,d,false,false,0.0-2.0-0.28-0.252-3.252,0,0,0,90,false,stim,true,1,645.0,1,0,2,34858,task1,701439,false,false,871,image-keyboard-response,20
true,7,2,2,2,true,d,false,true,0.0-2.0-0.28-0.253-3.253,0,0,0,68,false,stim,false,1,574.0000000001164,1,0,2,34858,task1,703519,false,false,874,image-keyboard-response,21
true,7,1,2,1,true,z,false,true,0.0-2.0-0.28-0.254-3.254,0,0,0,90,false,stim,false,2,716.0000000001164,1,0,0,34858,task1,705740,false,false,877,image-keyboard-response,22
true,7,0,2,1,false,z,true,false,0.0-2.0-0.28-0.255-3.255,0,0,0,81,false,stim,false,2,638.0000000001164,1,0,1,34858,task1,707885,false,false,880,image-keyboard-response,23
true,7,0,2,1,false,z,true,false,0.0-2.0-0.28-0.256-3.256,0,0,0,81,false,stim,false,2,603.0,1,0,1,34858,task1,709998,false,false,883,image-keyboard-response,24
true,7,2,2,2,true,d,false,true,0.0-2.0-0.28-0.257-3.257,0,0,0,68,false,stim,false,1,508.0,1,0,2,34858,task1,712011,false,false,886,image-keyboard-response,25
true,7,1,2,1,true,z,false,true,0.0-2.0-0.28-0.258-3.258,0,0,0,90,false,stim,false,2,824.0,1,0,1,34858,task1,714340,false,false,889,image-keyboard-response,26
true,7,1,2,1,true,z,false,false,0.0-2.0-0.28-0.259-3.259,0,0,0,90,false,stim,false,2,456.9999999998836,1,0,0,34858,task1,716303,false,true,892,image-keyboard-response,27
true,7,1,2,1,true,z,false,true,0.0-2.0-0.28-0.260-3.260,0,0,0,90,false,stim,false,2,454.0,1,0,0,34858,task1,718264,false,false,895,image-keyboard-response,28
true,7,1,2,1,true,z,false,false,0.0-2.0-0.29-0.261-3.261,0,0,0,90,false,stim,false,2,420.9999999998836,1,0,1,34858,task1,720191,false,true,898,image-keyboard-response,29
true,7,2,2,2,true,d,false,true,0.0-2.0-0.29-0.262-3.262,0,0,0,68,false,stim,false,1,254.0,1,0,2,34858,task1,721955,false,false,901,image-keyboard-response,30
true,7,2,2,1,false,z,false,false,0.0-2.0-0.29-0.263-3.263,0,0,0,68,false,stim,true,2,236.0,1,0,0,34858,task1,723702,false,false,904,image-keyboard-response,31
true,7,1,2,1,true,z,false,true,0.0-2.0-0.29-0.264-3.264,0,0,0,90,false,stim,false,2,285.0000000001164,1,0,0,34858,task1,725491,false,false,907,image-keyboard-response,32
true,7,1,2,2,false,d,false,false,0.0-2.0-0.29-0.265-3.265,0,0,0,90,false,stim,true,1,617.9999999998836,1,0,2,34858,task1,727614,false,false,910,image-keyboard-response,33
true,7,0,2,2,false,d,true,false,0.0-2.0-0.29-0.266-3.266,0,0,0,81,false,stim,false,1,386.0,1,0,2,34858,task1,729506,false,false,913,image-keyboard-response,34
true,7,2,2,1,false,z,false,false,0.0-2.0-0.29-0.267-3.267,0,0,0,68,false,stim,true,2,281.0,1,0,1,34858,task1,731292,false,false,916,image-keyboard-response,35
true,7,2,2,1,false,z,false,false,0.0-2.0-0.29-0.268-3.268,0,0,0,68,false,stim,true,2,267.0,1,0,1,34858,task1,733065,false,false,919,image-keyboard-response,36
true,7,2,2,1,false,z,false,false,0.0-2.0-0.29-0.269-3.269,0,0,0,68,false,stim,true,2,324.0000000001164,1,0,0,34858,task1,734895,false,false,922,image-keyboard-response,37
true,7,2,2,1,false,z,false,false,0.0-2.0-0.30-0.270-3.270,0,0,0,68,false,stim,true,2,275.0,1,0,1,34858,task1,736679,false,false,925,image-keyboard-response,38
true,7,1,2,1,true,z,false,true,0.0-2.0-0.30-0.271-3.271,0,0,0,90,false,stim,false,2,0.0,1,0,0,34858,task1,738184,false,false,928,image-keyboard-response,39
true,8,0,2,1,false,z,true,false,0.0-2.0-0.30-0.272-3.272,0,0,0,81,true,stim,false,2,1489.0,1,0,2,34858,task1,741179,false,false,931,image-keyboard-response,1
true,8,0,2,2,false,d,true,false,0.0-2.0-0.30-0.273-3.273,0,0,0,81,false,stim,false,1,290.0,1,0,1,34858,task1,742975,false,false,934,image-keyboard-response,2
true,8,2,2,2,true,d,false,true,0.0-2.0-0.30-0.274-3.274,0,0,0,68,false,stim,false,1,500.0,1,0,0,34858,task1,744981,false,false,937,image-keyboard-response,3
true,8,2,2,2,true,d,false,true,0.0-2.0-0.30-0.275-3.275,0,0,0,68,false,stim,false,1,324.9999999998836,1,0,0,34858,task1,746811,false,false,940,image-keyboard-response,4
true,8,0,2,1,false,z,true,false,0.0-2.0-0.30-0.276-3.276,0,0,0,81,false,stim,false,2,197.0,1,0,2,34858,task1,748516,false,false,943,image-keyboard-response,5
true,8,2,2,1,false,z,false,false,0.0-2.0-0.30-0.277-3.277,0,0,0,68,false,stim,true,2,139.0,1,0,2,34858,task1,750162,false,false,946,image-keyboard-response,6
true,8,0,2,2,false,d,true,false,0.0-2.0-0.30-0.278-3.278,0,0,0,81,false,stim,false,1,223.0,1,0,1,34858,task1,751892,false,false,949,image-keyboard-response,7
true,8,0,2,2,false,d,true,false,0.0-2.0-0.31-0.279-3.279,0,0,0,81,false,stim,false,1,205.0,1,0,0,34858,task1,753604,false,false,952,image-keyboard-response,8
true,8,2,2,2,true,d,false,true,0.0-2.0-0.31-0.280-3.280,0,0,0,68,false,stim,false,1,221.0,1,0,1,34858,task1,755330,false,false,955,image-keyboard-response,9
true,8,2,2,2,true,d,false,true,0.0-2.0-0.31-0.281-3.281,0,0,0,68,false,stim,false,1,300.0,1,0,1,34858,task1,757135,false,false,958,image-keyboard-response,10
true,8,2,2,2,true,d,false,false,0.0-2.0-0.31-0.282-3.282,0,0,0,68,false,stim,false,1,377.9999999998836,1,0,1,34858,task1,759080,false,true,961,image-keyboard-response,11
true,8,2,2,1,false,z,false,false,0.0-2.0-0.31-0.283-3.283,0,0,0,68,false,stim,true,2,277.0,1,0,2,34858,task1,760861,false,false,964,image-keyboard-response,12
true,8,2,2,1,false,z,false,false,0.0-2.0-0.31-0.284-3.284,0,0,0,68,false,stim,true,2,231.0,1,0,2,34858,task1,762598,false,false,967,image-keyboard-response,13
true,8,1,2,2,false,d,false,true,0.0-2.0-0.31-0.285-3.285,0,0,0,90,false,stim,true,1,311.0,1,0,0,34858,task1,764413,false,true,970,image-keyboard-response,14
true,8,2,2,1,false,z,false,true,0.0-2.0-0.31-0.286-3.286,0,0,0,68,false,stim,true,2,514.0,1,0,2,34858,task1,766444,false,true,973,image-keyboard-response,15
true,8,1,2,2,false,d,false,false,0.0-2.0-0.31-0.287-3.287,0,0,0,90,false,stim,true,1,441.0,1,0,0,34858,task1,768391,false,false,976,image-keyboard-response,16
true,8,2,2,1,false,z,false,false,0.0-2.0-0.32-0.288-3.288,0,0,0,68,false,stim,true,2,432.0,1,0,2,34858,task1,770330,false,false,979,image-keyboard-response,17
true,8,0,2,2,false,d,true,false,0.0-2.0-0.32-0.289-3.289,0,0,0,81,false,stim,false,1,488.0,1,0,1,34858,task1,772325,false,false,982,image-keyboard-response,18
true,8,2,2,2,true,d,false,true,0.0-2.0-0.32-0.290-3.290,0,0,0,68,false,stim,false,1,247.0,1,0,0,34858,task1,774078,false,false,985,image-keyboard-response,19
true,8,1,2,1,true,z,false,true,0.0-2.0-0.32-0.291-3.291,0,0,0,90,false,stim,false,2,567.0,1,0,2,34858,task1,776151,false,false,988,image-keyboard-response,20
true,8,2,2,2,true,d,false,true,0.0-2.0-0.32-0.292-3.292,0,0,0,68,false,stim,false,1,671.0000000001164,1,0,0,34858,task1,778328,false,false,991,image-keyboard-response,21
true,8,1,2,1,true,z,false,true,0.0-2.0-0.32-0.293-3.293,0,0,0,90,false,stim,false,2,877.0,1,0,2,34858,task1,780712,false,false,994,image-keyboard-response,22
true,8,2,2,2,true,d,false,true,0.0-2.0-0.32-0.294-3.294,0,0,0,68,false,stim,false,1,596.0,1,0,0,34858,task1,782814,false,false,997,image-keyboard-response,23
true,8,0,2,2,false,d,true,false,0.0-2.0-0.32-0.295-3.295,0,0,0,81,false,stim,false,1,435.0000000001164,1,0,1,34858,task1,784755,false,false,1000,image-keyboard-response,24
true,8,1,2,2,false,d,false,false,0.0-2.0-0.32-0.296-3.296,0,0,0,90,false,stim,true,1,575.0,1,0,1,34858,task1,786840,false,false,1003,image-keyboard-response,25
true,8,1,2,1,true,z,false,true,0.0-2.0-0.33-0.297-3.297,0,0,0,90,false,stim,false,2,1395.0,1,0,2,34858,task1,789743,false,false,1006,image-keyboard-response,26
true,8,2,2,2,true,d,false,true,0.0-2.0-0.33-0.298-3.298,0,0,0,68,false,stim,false,1,542.0,1,0,1,34858,task1,791792,false,false,1009,image-keyboard-response,27
true,8,2,2,2,true,d,false,true,0.0-2.0-0.33-0.299-3.299,0,0,0,68,false,stim,false,1,491.9999999998836,1,0,0,34858,task1,793791,false,false,1012,image-keyboard-response,28
true,8,2,2,2,true,d,false,true,0.0-2.0-0.33-0.300-3.300,0,0,0,68,false,stim,false,1,660.0,1,0,1,34858,task1,795957,false,false,1015,image-keyboard-response,29
true,8,2,2,1,false,z,false,false,0.0-2.0-0.33-0.301-3.301,0,0,0,68,false,stim,true,2,199.0,1,0,2,34858,task1,797662,false,false,1018,image-keyboard-response,30
true,8,2,2,2,true,d,false,false,0.0-2.0-0.33-0.302-3.302,0,0,0,68,false,stim,false,1,492.0000000001164,1,0,0,34858,task1,799660,false,true,1021,image-keyboard-response,31
true,8,1,2,1,true,z,false,true,0.0-2.0-0.33-0.303-3.303,0,0,0,90,false,stim,false,2,728.0000000001164,1,0,2,34858,task1,801895,false,false,1024,image-keyboard-response,32
true,8,2,2,2,true,d,false,false,0.0-2.0-0.33-0.304-3.304,0,0,0,68,false,stim,false,1,682.0000000001164,1,0,1,34858,task1,804084,false,true,1027,image-keyboard-response,33
true,8,0,2,2,false,d,true,false,0.0-2.0-0.33-0.305-3.305,0,0,0,81,false,stim,false,1,473.0,1,0,0,34858,task1,806062,false,false,1030,image-keyboard-response,34
true,8,1,2,1,true,z,false,true,0.0-2.0-0.34-0.306-3.306,0,0,0,90,false,stim,false,2,903.0000000001164,1,0,2,34858,task1,808472,false,false,1033,image-keyboard-response,35
true,8,1,2,1,true,z,false,true,0.0-2.0-0.34-0.307-3.307,0,0,0,90,false,stim,false,2,530.0000000001164,1,0,2,34858,task1,810507,false,false,1036,image-keyboard-response,36
true,8,1,2,2,false,d,false,false,0.0-2.0-0.34-0.308-3.308,0,0,0,90,false,stim,true,1,483.0,1,0,1,34858,task1,812499,false,false,1039,image-keyboard-response,37
true,8,2,2,2,true,d,false,true,0.0-2.0-0.34-0.309-3.309,0,0,0,68,false,stim,false,1,570.0,1,0,0,34858,task1,814576,false,false,1042,image-keyboard-response,38
true,8,1,2,1,true,z,false,true,0.0-2.0-0.34-0.310-3.310,0,0,0,90,false,stim,false,2,783.0,1,0,2,34858,task1,816865,false,false,1045,image-keyboard-response,39
true,8,2,2,2,true,d,false,true,0.0-2.0-0.34-0.311-3.311,0,0,0,68,false,stim,false,1,131.99999999988358,1,0,1,34858,task1,818504,false,false,1048,image-keyboard-response,40
true,9,2,2,1,false,z,false,false,0.0-2.0-0.34-0.312-3.312,0,0,0,68,true,stim,true,2,360.0000000001164,1,0,0,34858,task1,820372,false,false,1051,image-keyboard-response,1
true,9,2,2,1,false,z,false,false,0.0-2.0-0.34-0.313-3.313,0,0,0,68,false,stim,true,2,295.9999999998836,1,0,1,34858,task1,822178,false,false,1054,image-keyboard-response,2
true,9,1,2,1,true,z,false,true,0.0-2.0-0.34-0.314-3.314,0,0,0,90,false,stim,false,2,272.0,1,0,0,34858,task1,823956,false,false,1057,image-keyboard-response,3
true,9,1,2,2,false,d,false,false,0.0-2.0-0.35-0.315-3.315,0,0,0,90,false,stim,true,1,327.0,1,0,2,34858,task1,825790,false,false,1060,image-keyboard-response,4
true,9,2,2,1,false,z,false,false,0.0-2.0-0.35-0.316-3.316,0,0,0,68,false,stim,true,2,225.00000000011642,1,0,1,34858,task1,827520,false,false,1063,image-keyboard-response,5
true,9,2,2,1,false,z,false,false,0.0-2.0-0.35-0.317-3.317,0,0,0,68,false,stim,true,2,335.9999999998836,1,0,1,34858,task1,829362,false,false,1066,image-keyboard-response,6
true,9,1,2,2,false,d,false,false,0.0-2.0-0.35-0.318-3.318,0,0,0,90,false,stim,true,1,392.0,1,0,2,34858,task1,831261,false,false,1069,image-keyboard-response,7
true,9,0,2,1,false,z,true,false,0.0-2.0-0.35-0.319-3.319,0,0,0,81,false,stim,false,2,252.0,1,0,0,34858,task1,833019,false,false,1072,image-keyboard-response,8
true,9,2,2,1,false,z,false,false,0.0-2.0-0.35-0.320-3.320,0,0,0,68,false,stim,true,2,406.0,1,0,0,34858,task1,834931,false,false,1075,image-keyboard-response,9
true,9,2,2,2,true,d,false,true,0.0-2.0-0.35-0.321-3.321,0,0,0,68,false,stim,false,1,289.0000000001164,1,0,2,34858,task1,836728,false,false,1078,image-keyboard-response,10
true,9,2,2,1,false,z,false,false,0.0-2.0-0.35-0.322-3.322,0,0,0,68,false,stim,true,2,198.0,1,0,0,34858,task1,838432,false,false,1081,image-keyboard-response,11
true,9,0,2,1,false,z,true,false,0.0-2.0-0.35-0.323-3.323,0,0,0,81,false,stim,false,2,313.0000000001164,1,0,1,34858,task1,840252,false,false,1084,image-keyboard-response,12
true,9,2,2,1,false,z,false,false,0.0-2.0-0.36-0.324-3.324,0,0,0,68,false,stim,true,2,288.0,1,0,1,34858,task1,842046,false,false,1087,image-keyboard-response,13
true,9,0,2,1,false,z,true,false,0.0-2.0-0.36-0.325-3.325,0,0,0,81,false,stim,false,2,213.0,1,0,0,34858,task1,843767,false,false,1090,image-keyboard-response,14
true,9,2,2,1,false,z,false,false,0.0-2.0-0.36-0.326-3.326,0,0,0,68,false,stim,true,2,356.0,1,0,1,34858,task1,845631,false,false,1093,image-keyboard-response,15
true,9,1,2,2,false,d,false,false,0.0-2.0-0.36-0.327-3.327,0,0,0,90,false,stim,true,1,178.0,1,0,2,34858,task1,847316,false,false,1096,image-keyboard-response,16
true,9,2,2,2,true,d,false,true,0.0-2.0-0.36-0.328-3.328,0,0,0,68,false,stim,false,1,267.0,1,0,2,34858,task1,849089,false,false,1099,image-keyboard-response,17
true,9,2,2,2,true,d,false,true,0.0-2.0-0.36-0.329-3.329,0,0,0,68,false,stim,false,1,241.0,1,0,2,34858,task1,850848,false,false,1102,image-keyboard-response,18
true,9,2,2,1,false,z,false,false,0.0-2.0-0.36-0.330-3.330,0,0,0,68,false,stim,true,2,360.0,1,0,1,34858,task1,852714,false,false,1105,image-keyboard-response,19
true,9,1,2,1,true,z,false,true,0.0-2.0-0.36-0.331-3.331,0,0,0,90,false,stim,false,2,527.0000000001164,1,0,0,34858,task1,854747,false,false,1108,image-keyboard-response,20
true,9,1,2,1,true,z,false,true,0.0-2.0-0.36-0.332-3.332,0,0,0,90,false,stim,false,2,383.9999999998836,1,0,0,34858,task1,856637,false,false,1111,image-keyboard-response,21
true,9,2,2,2,true,d,false,true,0.0-2.0-0.37-0.333-3.333,0,0,0,68,false,stim,false,1,537.0,1,0,2,34858,task1,858683,false,false,1114,image-keyboard-response,22
true,9,2,2,1,false,z,false,false,0.0-2.0-0.37-0.334-3.334,0,0,0,68,false,stim,true,2,418.0,1,0,1,34858,task1,860607,false,false,1117,image-keyboard-response,23
true,9,1,2,2,false,d,false,false,0.0-2.0-0.37-0.335-3.335,0,0,0,90,false,stim,true,1,654.0,1,0,2,34858,task1,862765,false,false,1120,image-keyboard-response,24
true,9,1,2,1,true,z,false,true,0.0-2.0-0.37-0.336-3.336,0,0,0,90,false,stim,false,2,570.0,1,0,0,34858,task1,864841,false,false,1123,image-keyboard-response,25
true,9,1,2,1,true,z,false,true,0.0-2.0-0.37-0.337-3.337,0,0,0,90,false,stim,false,2,588.0,1,0,0,34858,task1,866934,false,false,1126,image-keyboard-response,26
true,9,2,2,1,false,z,false,false,0.0-2.0-0.37-0.338-3.338,0,0,0,68,false,stim,true,2,752.0,1,0,1,34858,task1,869192,false,false,1129,image-keyboard-response,27
true,9,0,2,2,false,d,true,false,0.0-2.0-0.37-0.339-3.339,0,0,0,81,false,stim,false,1,322.0,1,0,2,34858,task1,871019,false,false,1132,image-keyboard-response,28
true,9,2,2,1,false,z,false,false,0.0-2.0-0.37-0.340-3.340,0,0,0,68,false,stim,true,2,341.0,1,0,1,34858,task1,872868,false,false,1135,image-keyboard-response,29
true,9,0,2,1,false,z,true,false,0.0-2.0-0.37-0.341-3.341,0,0,0,81,false,stim,false,2,395.0,1,0,0,34858,task1,874769,false,false,1138,image-keyboard-response,30
true,9,1,2,1,true,z,false,true,0.0-2.0-0.38-0.342-3.342,0,0,0,90,false,stim,false,2,670.0,1,0,0,34858,task1,876948,false,false,1141,image-keyboard-response,31
true,9,2,2,2,true,d,false,true,0.0-2.0-0.38-0.343-3.343,0,0,0,68,false,stim,false,1,457.0,1,0,2,34858,task1,878912,false,false,1144,image-keyboard-response,32
true,9,0,2,1,false,z,true,false,0.0-2.0-0.38-0.344-3.344,0,0,0,81,false,stim,false,2,822.0,1,0,1,34858,task1,881240,false,false,1147,image-keyboard-response,33
true,9,2,2,1,false,z,false,false,0.0-2.0-0.38-0.345-3.345,0,0,0,68,false,stim,true,2,323.0,1,0,1,34858,task1,883069,false,false,1150,image-keyboard-response,34
true,9,1,2,1,true,z,false,true,0.0-2.0-0.38-0.346-3.346,0,0,0,90,false,stim,false,2,282.0,1,0,0,34858,task1,884859,false,false,1153,image-keyboard-response,35
true,9,1,2,1,true,z,false,false,0.0-2.0-0.38-0.347-3.347,0,0,0,90,false,stim,false,2,480.0,1,0,1,34858,task1,886844,false,true,1156,image-keyboard-response,36
true,9,1,2,2,false,d,false,false,0.0-2.0-0.38-0.348-3.348,0,0,0,90,false,stim,true,1,688.9999999998836,1,0,2,34858,task1,889038,false,false,1159,image-keyboard-response,37
true,9,2,2,1,false,z,false,false,0.0-2.0-0.38-0.349-3.349,0,0,0,68,false,stim,true,2,291.0000000001164,1,0,0,34858,task1,890836,false,false,1162,image-keyboard-response,38
true,9,1,2,2,false,d,false,false,0.0-2.0-0.38-0.350-3.350,0,0,0,90,false,stim,true,1,508.0,1,0,2,34858,task1,892851,false,false,1165,image-keyboard-response,39
true,9,2,2,1,false,z,false,false,0.0-2.0-0.39-0.351-3.351,0,0,0,68,false,stim,true,2,532.0,1,0,0,34858,task1,894894,false,false,1168,image-keyboard-response,40
true,9,2,2,1,false,z,false,false,0.0-2.0-0.39-0.352-3.352,0,0,0,68,false,stim,true,2,447.0,1,0,0,34858,task1,896848,false,false,1171,image-keyboard-response,41
true,9,2,2,1,false,z,false,false,0.0-2.0-0.39-0.353-3.353,0,0,0,68,false,stim,true,2,434.0000000001164,1,0,0,34858,task1,898788,false,false,1174,image-keyboard-response,42
true,10,2,1,2,true,d,false,true,0.0-2.0-0.39-0.354-3.354,0,0,0,68,true,stim,false,1,539.0,1,0,1,34858,task1,900834,false,false,1177,image-keyboard-response,1
true,10,1,1,1,true,z,false,false,0.0-2.0-0.39-0.355-3.355,0,0,0,90,false,stim,false,2,663.0000000001164,1,0,2,34858,task1,903004,false,true,1180,image-keyboard-response,2
true,10,1,1,2,false,d,false,false,0.0-2.0-0.39-0.356-3.356,0,0,0,90,false,stim,true,1,1295.0,1,0,1,34858,task1,905805,false,false,1183,image-keyboard-response,3
true,10,2,1,1,false,z,false,false,0.0-2.0-0.39-0.357-3.357,0,0,0,68,false,stim,true,2,556.9999999998836,1,0,2,34858,task1,907869,false,false,1186,image-keyboard-response,4
true,10,0,1,1,false,z,true,false,0.0-2.0-0.39-0.358-3.358,0,0,0,81,false,stim,false,2,380.0,1,0,2,34858,task1,909759,false,false,1189,image-keyboard-response,5
true,10,1,1,2,false,d,false,false,0.0-2.0-0.39-0.359-3.359,0,0,0,90,false,stim,true,1,321.0,1,0,1,34858,task1,911587,false,false,1192,image-keyboard-response,6
false,10,-1,1,2,false,d,true,false,0.0-2.0-0.40-0.360-3.360,0,0,0,,false,stim,false,1,,1,0,1,34858,task1,916097,false,false,1195,image-keyboard-response,7
false,10,-1,1,2,false,d,true,false,0.0-2.0-0.40-0.361-3.361,0,0,0,,false,stim,false,1,,1,0,1,34858,task1,920604,false,false,1198,image-keyboard-response,8
true,10,2,1,1,false,z,false,false,0.0-2.0-0.40-0.362-3.362,0,0,0,68,false,stim,true,2,1124.0,1,0,2,34858,task1,923240,false,false,1201,image-keyboard-response,9
true,10,0,1,0,true,q,false,true,0.0-2.0-0.40-0.363-3.363,0,0,0,81,false,stim,false,1,729.0,1,0,0,34858,task1,925474,false,false,1204,image-keyboard-response,10
true,10,2,1,1,false,z,false,false,0.0-2.0-0.40-0.364-3.364,0,0,0,68,false,stim,true,2,380.0,1,0,2,34858,task1,927360,false,false,1207,image-keyboard-response,11
true,10,2,1,2,true,d,false,true,0.0-2.0-0.40-0.365-3.365,0,0,0,68,false,stim,false,1,325.0,1,0,1,34858,task1,929192,false,false,1210,image-keyboard-response,12
true,10,2,1,1,false,z,false,false,0.0-2.0-0.40-0.366-3.366,0,0,0,68,false,stim,true,2,263.0000000001164,1,0,2,34858,task1,930962,false,false,1213,image-keyboard-response,13
true,10,0,1,0,true,q,false,true,0.0-2.0-0.40-0.367-3.367,0,0,0,81,false,stim,false,1,389.0,1,0,0,34858,task1,932858,false,false,1216,image-keyboard-response,14
true,10,0,1,0,true,q,false,true,0.0-2.0-0.40-0.368-3.368,0,0,0,81,false,stim,false,1,928.0,1,0,0,34858,task1,935291,false,false,1219,image-keyboard-response,15
true,10,2,1,0,false,q,true,false,0.0-2.0-0.41-0.369-3.369,0,0,0,68,false,stim,false,1,146.0,1,0,0,34858,task1,936946,false,false,1222,image-keyboard-response,16
true,10,2,1,1,false,z,false,false,0.0-2.0-0.41-0.370-3.370,0,0,0,68,false,stim,true,2,445.9999999998836,1,0,2,34858,task1,938898,false,false,1225,image-keyboard-response,17
true,10,2,1,0,false,q,true,false,0.0-2.0-0.41-0.371-3.371,0,0,0,68,false,stim,false,1,1422.0,1,0,0,34858,task1,941826,false,false,1228,image-keyboard-response,18
true,10,2,1,1,false,z,false,false,0.0-2.0-0.41-0.372-3.372,0,0,0,68,false,stim,true,2,280.0,1,0,2,34858,task1,943616,false,false,1231,image-keyboard-response,19
true,10,1,1,0,false,q,false,false,0.0-2.0-0.41-0.373-3.373,0,0,0,90,false,stim,true,1,418.0,1,0,0,34858,task1,945541,false,false,1234,image-keyboard-response,20
true,10,1,1,2,false,d,false,true,0.0-2.0-0.41-0.374-3.374,0,0,0,90,false,stim,true,1,385.0,1,0,1,34858,task1,947431,false,true,1237,image-keyboard-response,21
true,10,1,1,2,false,d,false,false,0.0-2.0-0.41-0.375-3.375,0,0,0,90,false,stim,true,1,407.0,1,0,1,34858,task1,949343,false,false,1240,image-keyboard-response,22
true,10,2,1,1,false,z,false,false,0.0-2.0-0.41-0.376-3.376,0,0,0,68,false,stim,true,2,449.0000000001164,1,0,2,34858,task1,951298,false,false,1243,image-keyboard-response,23
true,10,0,1,2,false,d,true,false,0.0-2.0-0.41-0.377-3.377,0,0,0,81,false,stim,false,1,396.0000000001164,1,0,1,34858,task1,953203,false,false,1246,image-keyboard-response,24
true,10,0,1,0,true,q,false,true,0.0-2.0-0.42-0.378-3.378,0,0,0,81,false,stim,false,1,194.99999999988358,1,0,0,34858,task1,954908,false,false,1249,image-keyboard-response,25
true,10,0,1,0,true,q,false,true,0.0-2.0-0.42-0.379-3.379,0,0,0,81,false,stim,false,1,402.9999999998836,1,0,0,34858,task1,956818,false,false,1252,image-keyboard-response,26
true,10,0,1,2,false,d,true,false,0.0-2.0-0.42-0.380-3.380,0,0,0,81,false,stim,false,1,537.9999999998836,1,0,1,34858,task1,958861,false,false,1255,image-keyboard-response,27
true,10,1,1,1,true,z,false,true,0.0-2.0-0.42-0.381-3.381,0,0,0,90,false,stim,false,2,590.0,1,0,2,34858,task1,960959,false,false,1258,image-keyboard-response,28
true,10,0,1,0,true,q,false,true,0.0-2.0-0.42-0.382-3.382,0,0,0,81,false,stim,false,1,1271.0000000001164,1,0,0,34858,task1,963737,false,false,1261,image-keyboard-response,29
true,10,0,1,2,false,d,true,false,0.0-2.0-0.42-0.383-3.383,0,0,0,81,false,stim,false,1,769.0,1,0,1,34858,task1,966012,false,false,1264,image-keyboard-response,30
true,10,0,1,1,false,z,true,false,0.0-2.0-0.42-0.384-3.384,0,0,0,81,false,stim,false,2,615.0000000001164,1,0,2,34858,task1,968136,false,false,1267,image-keyboard-response,31
true,10,0,1,1,false,z,true,false,0.0-2.0-0.42-0.385-3.385,0,0,0,81,false,stim,false,2,153.0,1,0,2,34858,task1,969794,false,false,1270,image-keyboard-response,32
true,10,1,1,2,false,d,false,false,0.0-2.0-0.42-0.386-3.386,0,0,0,90,false,stim,true,1,385.0,1,0,1,34858,task1,971686,false,false,1273,image-keyboard-response,33
true,10,0,1,0,true,q,false,true,0.0-2.0-0.43-0.387-3.387,0,0,0,81,false,stim,false,1,644.0000000001164,1,0,0,34858,task1,973838,false,false,1276,image-keyboard-response,34
true,10,2,1,2,true,d,false,true,0.0-2.0-0.43-0.388-3.388,0,0,0,68,false,stim,false,1,646.0000000001164,1,0,1,34858,task1,975996,false,false,1279,image-keyboard-response,35
true,10,1,1,1,true,z,false,true,0.0-2.0-0.43-0.389-3.389,0,0,0,90,false,stim,false,2,727.0,1,0,2,34858,task1,978230,false,false,1282,image-keyboard-response,36
true,10,1,1,1,true,z,false,true,0.0-2.0-0.43-0.390-3.390,0,0,0,90,false,stim,false,2,438.9999999998836,1,0,2,34858,task1,980177,false,false,1285,image-keyboard-response,37
true,10,0,1,0,true,q,false,true,0.0-2.0-0.43-0.391-3.391,0,0,0,81,false,stim,false,1,556.0000000001164,1,0,0,34858,task1,982238,false,false,1288,image-keyboard-response,38
true,10,2,1,2,true,d,false,true,0.0-2.0-0.43-0.392-3.392,0,0,0,68,false,stim,false,1,729.0,1,0,1,34858,task1,984472,false,false,1291,image-keyboard-response,39
true,10,2,1,2,true,d,false,true,0.0-2.0-0.43-0.393-3.393,0,0,0,68,false,stim,false,1,479.0,1,0,1,34858,task1,986458,false,false,1294,image-keyboard-response,40
true,10,1,1,1,true,z,false,true,0.0-2.0-0.43-0.394-3.394,0,0,0,90,false,stim,false,2,1248.0,1,0,2,34858,task1,989213,false,false,1297,image-keyboard-response,41
true,10,0,1,0,true,q,false,true,0.0-2.0-0.43-0.395-3.395,0,0,0,81,false,stim,false,1,675.0,1,0,0,34858,task1,991397,false,false,1300,image-keyboard-response,42
true,11,0,1,1,false,z,false,false,0.0-2.0-0.44-0.396-3.396,0,0,0,81,true,stim,true,0,1123.0,1,0,0,34858,task1,994037,false,false,1303,image-keyboard-response,1
true,11,2,1,0,false,q,false,false,0.0-2.0-0.44-0.397-3.397,0,0,0,68,false,stim,true,2,1090.0,1,0,1,34858,task1,996632,false,false,1306,image-keyboard-response,2
true,11,1,1,2,false,d,false,false,0.0-2.0-0.44-0.398-3.398,0,0,0,90,false,stim,true,1,346.0,1,0,2,34858,task1,998484,false,false,1309,image-keyboard-response,3
true,11,0,1,0,true,q,false,true,0.0-2.0-0.44-0.399-3.399,0,0,0,81,false,stim,false,2,341.0,1,0,1,34858,task1,1000337,false,false,1312,image-keyboard-response,4
true,11,0,1,1,false,z,false,false,0.0-2.0-0.44-0.400-3.400,0,0,0,81,false,stim,true,0,515.0000000001164,1,0,0,34858,task1,1002358,false,false,1315,image-keyboard-response,5
true,11,2,1,0,false,q,false,false,0.0-2.0-0.44-0.401-3.401,0,0,0,68,false,stim,true,2,352.0,1,0,1,34858,task1,1004216,false,false,1318,image-keyboard-response,6
true,11,2,1,2,true,d,false,true,0.0-2.0-0.44-0.402-3.402,0,0,0,68,false,stim,false,1,503.0,1,0,2,34858,task1,1006227,false,false,1321,image-keyboard-response,7
true,11,2,1,1,false,z,true,false,0.0-2.0-0.44-0.403-3.403,0,0,0,68,false,stim,false,0,367.0,1,0,0,34858,task1,1008101,false,false,1324,image-keyboard-response,8
true,11,2,1,2,true,d,false,true,0.0-2.0-0.44-0.404-3.404,0,0,0,68,false,stim,false,1,208.99999999988358,1,0,2,34858,task1,1009817,false,false,1327,image-keyboard-response,9
true,11,2,1,2,true,d,false,true,0.0-2.0-0.45-0.405-3.405,0,0,0,68,false,stim,false,1,325.0,1,0,2,34858,task1,1011650,false,false,1330,image-keyboard-response,10
true,11,0,1,1,false,z,false,false,0.0-2.0-0.45-0.406-3.406,0,0,0,81,false,stim,true,0,650.0,1,0,0,34858,task1,1013807,false,false,1333,image-keyboard-response,11
true,11,2,1,2,true,d,false,true,0.0-2.0-0.45-0.407-3.407,0,0,0,68,false,stim,false,1,352.0,1,0,2,34858,task1,1015666,false,false,1336,image-keyboard-response,12
true,11,2,1,2,true,d,false,true,0.0-2.0-0.45-0.408-3.408,0,0,0,68,false,stim,false,1,366.0,1,0,2,34858,task1,1017539,false,false,1339,image-keyboard-response,13
true,11,1,1,1,true,z,false,true,0.0-2.0-0.45-0.409-3.409,0,0,0,90,false,stim,false,0,923.0,1,0,0,34858,task1,1019969,false,false,1342,image-keyboard-response,14
true,11,0,1,0,true,q,false,true,0.0-2.0-0.45-0.410-3.410,0,0,0,81,false,stim,false,2,652.0,1,0,1,34858,task1,1022131,false,false,1345,image-keyboard-response,15
true,11,1,1,1,true,z,false,false,0.0-2.0-0.45-0.411-3.411,0,0,0,90,false,stim,false,0,432.0,1,0,0,34858,task1,1024070,false,true,1348,image-keyboard-response,16
true,11,2,1,0,false,q,false,false,0.0-2.0-0.45-0.412-3.412,0,0,0,68,false,stim,true,2,488.0000000001164,1,0,1,34858,task1,1026063,false,false,1351,image-keyboard-response,17
true,11,0,1,0,true,q,false,true,0.0-2.0-0.45-0.413-3.413,0,0,0,81,false,stim,false,2,430.0000000001164,1,0,1,34858,task1,1028001,false,false,1354,image-keyboard-response,18
true,11,2,1,2,true,d,false,true,0.0-2.0-0.46-0.414-3.414,0,0,0,68,false,stim,false,1,615.0,1,0,2,34858,task1,1030123,false,false,1357,image-keyboard-response,19
true,11,2,1,0,false,q,false,false,0.0-2.0-0.46-0.415-3.415,0,0,0,68,false,stim,true,2,568.0,1,0,1,34858,task1,1032197,false,false,1360,image-keyboard-response,20
true,11,0,1,0,true,q,false,true,0.0-2.0-0.46-0.416-3.416,0,0,0,81,false,stim,false,2,364.0,1,0,1,34858,task1,1034067,false,false,1363,image-keyboard-response,21
true,11,2,1,2,true,d,false,true,0.0-2.0-0.46-0.417-3.417,0,0,0,68,false,stim,false,1,639.9999999998836,1,0,2,34858,task1,1036214,false,false,1366,image-keyboard-response,22
true,11,1,1,1,true,z,false,true,0.0-2.0-0.46-0.418-3.418,0,0,0,90,false,stim,false,0,442.0,1,0,0,34858,task1,1038163,false,false,1369,image-keyboard-response,23
true,11,0,1,0,true,q,false,true,0.0-2.0-0.46-0.419-3.419,0,0,0,81,false,stim,false,2,531.0000000002328,1,0,1,34858,task1,1040199,false,false,1372,image-keyboard-response,24
true,11,1,1,1,true,z,false,true,0.0-2.0-0.46-0.420-3.420,0,0,0,90,false,stim,false,0,563.0000000001164,1,0,0,34858,task1,1042267,false,false,1375,image-keyboard-response,25
true,11,2,1,2,true,d,false,true,0.0-2.0-0.46-0.421-3.421,0,0,0,68,false,stim,false,1,364.0000000001164,1,0,2,34858,task1,1044139,false,false,1378,image-keyboard-response,26
true,11,0,1,1,false,z,false,false,0.0-2.0-0.46-0.422-3.422,0,0,0,81,false,stim,true,0,625.0,1,0,0,34858,task1,1046270,false,false,1381,image-keyboard-response,27
true,11,0,1,0,true,q,false,true,0.0-2.0-0.47-0.423-3.423,0,0,0,81,false,stim,false,2,454.0,1,0,1,34858,task1,1048233,false,false,1384,image-keyboard-response,28
true,11,2,1,2,true,d,false,true,0.0-2.0-0.47-0.424-3.424,0,0,0,68,false,stim,false,1,500.0,1,0,2,34858,task1,1050239,false,false,1387,image-keyboard-response,29
true,11,2,1,2,true,d,false,true,0.0-2.0-0.47-0.425-3.425,0,0,0,68,false,stim,false,1,710.0,1,0,2,34858,task1,1052458,false,false,1390,image-keyboard-response,30
true,11,2,1,2,true,d,false,true,0.0-2.0-0.47-0.426-3.426,0,0,0,68,false,stim,false,1,424.0,1,0,2,34858,task1,1054388,false,false,1393,image-keyboard-response,31
true,11,0,1,0,true,q,false,true,0.0-2.0-0.47-0.427-3.427,0,0,0,81,false,stim,false,2,753.0,1,0,1,34858,task1,1056648,false,false,1396,image-keyboard-response,32
true,11,1,1,1,true,z,false,true,0.0-2.0-0.47-0.428-3.428,0,0,0,90,false,stim,false,0,466.0,1,0,0,34858,task1,1058620,false,false,1399,image-keyboard-response,33
true,11,1,1,1,true,z,false,true,0.0-2.0-0.47-0.429-3.429,0,0,0,90,false,stim,false,0,533.0000000002328,1,0,0,34858,task1,1060670,false,false,1402,image-keyboard-response,34
true,11,0,1,0,true,q,false,true,0.0-2.0-0.47-0.430-3.430,0,0,0,81,false,stim,false,2,795.0,1,0,1,34858,task1,1062972,false,false,1405,image-keyboard-response,35
true,11,1,1,1,true,z,false,true,0.0-2.0-0.47-0.431-3.431,0,0,0,90,false,stim,false,0,654.0,1,0,0,34858,task1,1065133,false,false,1408,image-keyboard-response,36
true,11,0,1,0,true,q,false,true,0.0-2.0-0.48-0.432-3.432,0,0,0,81,false,stim,false,2,828.9999999997672,1,0,1,34858,task1,1067471,false,false,1411,image-keyboard-response,37
true,11,2,1,2,true,d,false,true,0.0-2.0-0.48-0.433-3.433,0,0,0,68,false,stim,false,1,515.9999999997672,1,0,2,34858,task1,1069495,false,false,1414,image-keyboard-response,38
true,11,0,1,0,true,q,false,true,0.0-2.0-0.48-0.434-3.434,0,0,0,81,false,stim,false,2,560.0,1,0,1,34858,task1,1071561,false,false,1417,image-keyboard-response,39
true,11,1,1,1,true,z,false,true,0.0-2.0-0.48-0.435-3.435,0,0,0,90,false,stim,false,0,445.0,1,0,0,34858,task1,1073512,false,false,1420,image-keyboard-response,40
true,11,2,1,2,true,d,false,true,0.0-2.0-0.48-0.436-3.436,0,0,0,68,false,stim,false,1,516.0000000002328,1,0,2,34858,task1,1075535,false,false,1423,image-keyboard-response,41
true,11,1,1,1,true,z,false,false,0.0-2.0-0.48-0.437-3.437,0,0,0,90,false,stim,false,0,730.0,1,0,0,34858,task1,1077771,false,true,1426,image-keyboard-response,42
true,11,1,1,1,true,z,false,true,0.0-2.0-0.48-0.438-3.438,0,0,0,90,false,stim,false,0,623.0,1,0,0,34858,task1,1079904,false,false,1429,image-keyboard-response,43
true,11,0,1,0,true,q,false,true,0.0-2.0-0.48-0.439-3.439,0,0,0,81,false,stim,false,2,580.0,1,0,1,34858,task1,1081992,false,false,1432,image-keyboard-response,44
true,12,2,2,1,false,z,false,false,0.0-2.0-0.48-0.440-3.440,0,0,0,68,true,stim,true,2,529.0,1,0,2,34858,task1,1084028,false,false,1435,image-keyboard-response,1
true,12,0,2,2,false,d,false,false,0.0-2.0-0.49-0.441-3.441,0,0,0,81,false,stim,true,0,720.9999999997672,1,0,1,34858,task1,1086257,false,false,1438,image-keyboard-response,2
true,12,0,2,2,false,d,true,false,0.0-2.0-0.49-0.442-3.442,0,0,0,81,false,stim,false,1,509.0,1,0,0,34858,task1,1088273,false,false,1441,image-keyboard-response,3
true,12,2,2,1,false,z,false,false,0.0-2.0-0.49-0.443-3.443,0,0,0,68,false,stim,true,2,324.0,1,0,2,34858,task1,1090104,false,false,1444,image-keyboard-response,4
true,12,0,2,2,false,d,false,false,0.0-2.0-0.49-0.444-3.444,0,0,0,81,false,stim,true,0,297.0,1,0,1,34858,task1,1091907,false,false,1447,image-keyboard-response,5
true,12,2,2,2,true,d,false,true,0.0-2.0-0.49-0.445-3.445,0,0,0,68,false,stim,false,1,360.0,1,0,0,34858,task1,1093774,false,false,1450,image-keyboard-response,6
true,12,2,2,2,true,d,false,true,0.0-2.0-0.49-0.446-3.446,0,0,0,68,false,stim,false,0,426.0,1,0,1,34858,task1,1095707,false,false,1453,image-keyboard-response,7
true,12,2,2,2,true,d,false,true,0.0-2.0-0.49-0.447-3.447,0,0,0,68,false,stim,false,1,543.0,1,0,0,34858,task1,1097757,false,false,1456,image-keyboard-response,8
true,12,2,2,1,false,z,false,false,0.0-2.0-0.49-0.448-3.448,0,0,0,68,false,stim,true,2,428.0,1,0,2,34858,task1,1099694,false,false,1459,image-keyboard-response,9
true,12,1,2,1,true,z,false,false,0.0-2.0-0.49-0.449-3.449,0,0,0,90,false,stim,false,2,656.0,1,0,2,34858,task1,1101857,false,true,1462,image-keyboard-response,10
true,12,0,2,1,false,z,true,false,0.0-2.0-0.50-0.450-3.450,0,0,0,81,false,stim,false,2,374.0,1,0,2,34858,task1,1103740,false,false,1465,image-keyboard-response,11
true,12,0,2,1,false,z,true,false,0.0-2.0-0.50-0.451-3.451,0,0,0,81,false,stim,false,2,348.0,1,0,2,34858,task1,1105597,false,false,1468,image-keyboard-response,12
true,12,1,2,2,false,d,true,false,0.0-2.0-0.50-0.452-3.452,0,0,0,90,false,stim,false,0,723.0,1,0,1,34858,task1,1107827,false,false,1471,image-keyboard-response,13
true,12,2,2,2,true,d,false,true,0.0-2.0-0.50-0.453-3.453,0,0,0,68,false,stim,false,1,375.0,1,0,0,34858,task1,1109708,false,false,1474,image-keyboard-response,14
true,12,1,2,1,true,z,false,true,0.0-2.0-0.50-0.454-3.454,0,0,0,90,false,stim,false,2,663.0,1,0,2,34858,task1,1111878,false,false,1477,image-keyboard-response,15
true,12,2,2,2,true,d,false,true,0.0-2.0-0.50-0.455-3.455,0,0,0,68,false,stim,false,1,1041.0,1,0,0,34858,task1,1114428,false,false,1480,image-keyboard-response,16
true,12,2,2,2,true,d,false,false,0.0-2.0-0.50-0.456-3.456,0,0,0,68,false,stim,false,1,420.0,1,0,0,34858,task1,1116353,false,true,1483,image-keyboard-response,17
true,12,0,2,2,false,d,false,false,0.0-2.0-0.50-0.457-3.457,0,0,0,81,false,stim,true,0,574.0,1,0,1,34858,task1,1118433,false,false,1486,image-keyboard-response,18
true,12,1,2,2,false,d,true,false,0.0-2.0-0.50-0.458-3.458,0,0,0,90,false,stim,false,0,493.0,1,0,1,34858,task1,1120431,false,false,1489,image-keyboard-response,19
true,12,1,2,1,true,z,false,true,0.0-2.0-0.51-0.459-3.459,0,0,0,90,false,stim,false,2,784.0,1,0,2,34858,task1,1122727,false,false,1492,image-keyboard-response,20
true,12,1,2,1,true,z,false,true,0.0-2.0-0.51-0.460-3.460,0,0,0,90,false,stim,false,2,601.0000000002328,1,0,2,34858,task1,1124835,false,false,1495,image-keyboard-response,21
true,12,2,2,2,true,d,false,true,0.0-2.0-0.51-0.461-3.461,0,0,0,68,false,stim,false,0,486.0,1,0,1,34858,task1,1126829,false,false,1498,image-keyboard-response,22
true,12,2,2,2,true,d,false,true,0.0-2.0-0.51-0.462-3.462,0,0,0,68,false,stim,false,1,964.0,1,0,0,34858,task1,1129310,false,false,1501,image-keyboard-response,23
true,12,2,2,2,true,d,false,true,0.0-2.0-0.51-0.463-3.463,0,0,0,68,false,stim,false,1,387.99999999976717,1,0,0,34858,task1,1131204,false,false,1504,image-keyboard-response,24
true,12,2,2,2,true,d,false,true,0.0-2.0-0.51-0.464-3.464,0,0,0,68,false,stim,false,1,385.0,1,0,0,34858,task1,1133095,false,false,1507,image-keyboard-response,25
true,12,1,2,2,false,d,true,false,0.0-2.0-0.51-0.465-3.465,0,0,0,90,false,stim,false,0,831.0,1,0,1,34858,task1,1135433,false,false,1510,image-keyboard-response,26
true,12,2,2,1,false,z,false,false,0.0-2.0-0.51-0.466-3.466,0,0,0,68,false,stim,true,2,651.0,1,0,2,34858,task1,1137590,false,false,1513,image-keyboard-response,27
true,12,2,2,2,true,d,false,true,0.0-2.0-0.51-0.467-3.467,0,0,0,68,false,stim,false,0,262.0,1,0,1,34858,task1,1139362,false,false,1516,image-keyboard-response,28
true,12,0,2,1,false,z,true,false,0.0-2.0-0.52-0.468-3.468,0,0,0,81,false,stim,false,2,324.0,1,0,2,34858,task1,1141194,false,false,1519,image-keyboard-response,29
true,12,0,2,2,false,d,false,false,0.0-2.0-0.52-0.469-3.469,0,0,0,81,false,stim,true,0,357.99999999976717,1,0,1,34858,task1,1143059,false,false,1522,image-keyboard-response,30
true,12,2,2,1,false,z,false,false,0.0-2.0-0.52-0.470-3.470,0,0,0,68,false,stim,true,2,411.0,1,0,2,34858,task1,1144976,false,false,1525,image-keyboard-response,31
true,12,1,2,2,false,d,false,false,0.0-2.0-0.52-0.471-3.471,0,0,0,90,false,stim,true,1,596.0,1,0,0,34858,task1,1147080,false,false,1528,image-keyboard-response,32
true,12,1,2,2,false,d,true,false,0.0-2.0-0.52-0.472-3.472,0,0,0,90,false,stim,false,0,656.0,1,0,1,34858,task1,1149245,false,false,1531,image-keyboard-response,33
true,12,2,2,2,true,d,false,true,0.0-2.0-0.52-0.473-3.473,0,0,0,68,false,stim,false,1,519.0,1,0,0,34858,task1,1151272,false,false,1534,image-keyboard-response,34
true,12,2,2,1,false,z,false,false,0.0-2.0-0.52-0.474-3.474,0,0,0,68,false,stim,true,2,464.99999999976717,1,0,2,34858,task1,1153243,false,false,1537,image-keyboard-response,35
true,12,2,2,2,true,d,false,true,0.0-2.0-0.52-0.475-3.475,0,0,0,68,false,stim,false,1,311.99999999976717,1,0,0,34858,task1,1155061,false,false,1540,image-keyboard-response,36
true,12,2,2,2,true,d,false,true,0.0-2.0-0.52-0.476-3.476,0,0,0,68,false,stim,false,0,213.0,1,0,1,34858,task1,1156782,false,false,1543,image-keyboard-response,37
true,12,2,2,1,false,z,false,false,0.0-2.0-0.53-0.477-3.477,0,0,0,68,false,stim,true,2,152.00000000023283,1,0,2,34858,task1,1158442,false,false,1546,image-keyboard-response,38
true,12,2,2,2,true,d,false,true,0.0-2.0-0.53-0.478-3.478,0,0,0,68,false,stim,false,0,385.0,1,0,1,34858,task1,1160333,false,false,1549,image-keyboard-response,39
true,12,2,2,2,true,d,false,true,0.0-2.0-0.53-0.479-3.479,0,0,0,68,false,stim,false,1,469.0,1,0,0,34858,task1,1162309,false,false,1552,image-keyboard-response,40
true,12,2,2,2,true,d,false,true,0.0-2.0-0.53-0.480-3.480,0,0,0,68,false,stim,false,0,420.0,1,0,1,34858,task1,1164235,false,false,1555,image-keyboard-response,41
true,13,2,1,0,false,q,false,true,0.0-2.0-0.53-0.481-3.481,0,0,0,68,true,stim,true,2,337.0,1,0,1,34858,task1,1166079,false,true,1558,image-keyboard-response,1
true,13,0,1,2,false,d,true,false,0.0-2.0-0.53-0.482-3.482,0,0,0,81,false,stim,false,1,493.0,1,0,2,34858,task1,1168080,false,false,1561,image-keyboard-response,2
true,13,1,1,2,false,d,false,false,0.0-2.0-0.53-0.483-3.483,0,0,0,90,false,stim,true,1,509.0,1,0,2,34858,task1,1170097,false,false,1564,image-keyboard-response,3
true,13,0,1,0,true,q,false,false,0.0-2.0-0.53-0.484-3.484,0,0,0,81,false,stim,false,2,344.0,1,0,0,34858,task1,1171948,false,true,1567,image-keyboard-response,4
true,13,0,1,0,true,q,false,true,0.0-2.0-0.53-0.485-3.485,0,0,0,81,false,stim,false,2,241.0,1,0,0,34858,task1,1173698,false,false,1570,image-keyboard-response,5
true,13,2,1,2,true,d,false,true,0.0-2.0-0.54-0.486-3.486,0,0,0,68,false,stim,false,1,191.0,1,0,2,34858,task1,1175398,false,false,1573,image-keyboard-response,6
true,13,2,1,0,false,q,false,false,0.0-2.0-0.54-0.487-3.487,0,0,0,68,false,stim,true,2,317.0,1,0,0,34858,task1,1177222,false,false,1576,image-keyboard-response,7
true,13,0,1,0,true,q,false,true,0.0-2.0-0.54-0.488-3.488,0,0,0,81,false,stim,false,2,296.0,1,0,1,34858,task1,1179024,false,false,1579,image-keyboard-response,8
true,13,0,1,0,true,q,false,true,0.0-2.0-0.54-0.489-3.489,0,0,0,81,false,stim,false,2,421.0,1,0,1,34858,task1,1180954,false,false,1582,image-keyboard-response,9
true,13,1,1,2,false,d,false,false,0.0-2.0-0.54-0.490-3.490,0,0,0,90,false,stim,true,1,497.99999999976717,1,0,2,34858,task1,1182960,false,false,1585,image-keyboard-response,10
true,13,2,1,0,false,q,false,false,0.0-2.0-0.54-0.491-3.491,0,0,0,68,false,stim,true,2,184.0,1,0,0,34858,task1,1184651,false,false,1588,image-keyboard-response,11
true,13,0,1,0,true,q,false,true,0.0-2.0-0.54-0.492-3.492,0,0,0,81,false,stim,false,2,577.0,1,0,1,34858,task1,1186735,false,false,1591,image-keyboard-response,12
true,13,2,1,0,false,q,false,false,0.0-2.0-0.54-0.493-3.493,0,0,0,68,false,stim,true,2,584.0,1,0,0,34858,task1,1188829,false,false,1594,image-keyboard-response,13
true,13,2,1,2,true,d,false,true,0.0-2.0-0.54-0.494-3.494,0,0,0,68,false,stim,false,1,296.0,1,0,2,34858,task1,1190632,false,false,1597,image-keyboard-response,14
true,13,1,1,0,false,q,true,false,0.0-2.0-0.55-0.495-3.495,0,0,0,90,false,stim,false,2,715.0,1,0,0,34858,task1,1192856,false,false,1600,image-keyboard-response,15
true,13,0,1,0,true,q,false,true,0.0-2.0-0.55-0.496-3.496,0,0,0,81,false,stim,false,2,690.0,1,0,1,34858,task1,1195064,false,false,1603,image-keyboard-response,16
true,13,2,1,2,true,d,false,true,0.0-2.0-0.55-0.497-3.497,0,0,0,68,false,stim,false,1,631.0,1,0,2,34858,task1,1197201,false,false,1606,image-keyboard-response,17
true,13,2,1,0,false,q,false,false,0.0-2.0-0.55-0.498-3.498,0,0,0,68,false,stim,true,2,689.0,1,0,0,34858,task1,1199397,false,false,1609,image-keyboard-response,18
true,13,2,1,0,false,q,false,false,0.0-2.0-0.55-0.499-3.499,0,0,0,68,false,stim,true,2,469.0,1,0,0,34858,task1,1201372,false,false,1612,image-keyboard-response,19
true,13,0,1,0,true,q,false,true,0.0-2.0-0.55-0.500-3.500,0,0,0,81,false,stim,false,2,1082.0,1,0,1,34858,task1,1203962,false,false,1615,image-keyboard-response,20
true,13,2,1,2,true,d,false,false,0.0-2.0-0.55-0.501-3.501,0,0,0,68,false,stim,false,1,598.0,1,0,2,34858,task1,1206067,false,true,1618,image-keyboard-response,21
true,13,0,1,0,true,q,false,true,0.0-2.0-0.55-0.502-3.502,0,0,0,81,false,stim,false,2,720.0,1,0,1,34858,task1,1208294,false,false,1621,image-keyboard-response,22
true,13,2,1,2,true,d,false,true,0.0-2.0-0.55-0.503-3.503,0,0,0,68,false,stim,false,1,448.0,1,0,2,34858,task1,1210248,false,false,1624,image-keyboard-response,23
true,13,0,1,0,true,q,false,true,0.0-2.0-0.56-0.504-3.504,0,0,0,81,false,stim,false,2,734.0,1,0,1,34858,task1,1212491,false,false,1627,image-keyboard-response,24
true,13,2,1,0,false,q,false,false,0.0-2.0-0.56-0.505-3.505,0,0,0,68,false,stim,true,2,513.0,1,0,0,34858,task1,1214512,false,false,1630,image-keyboard-response,25
true,13,0,1,2,false,d,true,false,0.0-2.0-0.56-0.506-3.506,0,0,0,81,false,stim,false,1,548.9999999997672,1,0,2,34858,task1,1216569,false,false,1633,image-keyboard-response,26
true,13,2,1,0,false,q,false,false,0.0-2.0-0.56-0.507-3.507,0,0,0,68,false,stim,true,2,289.0,1,0,0,34858,task1,1218365,false,false,1636,image-keyboard-response,27
true,13,2,1,0,false,q,false,false,0.0-2.0-0.56-0.508-3.508,0,0,0,68,false,stim,true,2,83.00000000023283,1,0,1,34858,task1,1219953,false,false,1639,image-keyboard-response,28
true,13,0,1,2,false,d,true,false,0.0-2.0-0.56-0.509-3.509,0,0,0,81,false,stim,false,1,478.0,1,0,2,34858,task1,1221938,false,false,1642,image-keyboard-response,29
true,13,0,1,0,true,q,false,true,0.0-2.0-0.56-0.510-3.510,0,0,0,81,false,stim,false,2,508.0,1,0,0,34858,task1,1223953,false,false,1645,image-keyboard-response,30
true,13,0,1,0,true,q,false,true,0.0-2.0-0.56-0.511-3.511,0,0,0,81,false,stim,false,2,696.0,1,0,1,34858,task1,1226157,false,false,1648,image-keyboard-response,31
true,13,0,1,2,false,d,true,false,0.0-2.0-0.56-0.512-3.512,0,0,0,81,false,stim,false,1,524.0,1,0,2,34858,task1,1228187,false,false,1651,image-keyboard-response,32
true,13,2,1,0,false,q,false,true,0.0-2.0-0.57-0.513-3.513,0,0,0,68,false,stim,true,2,373.0,1,0,1,34858,task1,1230068,false,true,1654,image-keyboard-response,33
true,13,2,1,0,false,q,false,false,0.0-2.0-0.57-0.514-3.514,0,0,0,68,false,stim,true,2,338.0,1,0,0,34858,task1,1231913,false,false,1657,image-keyboard-response,34
true,13,0,1,2,false,d,true,false,0.0-2.0-0.57-0.515-3.515,0,0,0,81,false,stim,false,1,248.0,1,0,2,34858,task1,1233666,false,false,1660,image-keyboard-response,35
true,13,2,1,0,false,q,false,false,0.0-2.0-0.57-0.516-3.516,0,0,0,68,false,stim,true,2,293.0,1,0,0,34858,task1,1235466,false,false,1663,image-keyboard-response,36
true,13,2,1,0,false,q,false,false,0.0-2.0-0.57-0.517-3.517,0,0,0,68,false,stim,true,2,194.0,1,0,1,34858,task1,1237166,false,false,1666,image-keyboard-response,37
true,13,1,1,0,false,q,true,false,0.0-2.0-0.57-0.518-3.518,0,0,0,90,false,stim,false,2,362.00000000023283,1,0,0,34858,task1,1239040,false,false,1669,image-keyboard-response,38
true,13,1,1,2,false,d,false,false,0.0-2.0-0.57-0.519-3.519,0,0,0,90,false,stim,true,1,219.0,1,0,2,34858,task1,1240767,false,false,1672,image-keyboard-response,39
true,13,0,1,2,false,d,true,false,0.0-2.0-0.57-0.520-3.520,0,0,0,81,false,stim,false,1,174.0,1,0,2,34858,task1,1242449,false,false,1675,image-keyboard-response,40
true,13,2,1,0,false,q,false,false,0.0-2.0-0.57-0.521-3.521,0,0,0,68,false,stim,true,2,433.99999999976717,1,1,1,34858,task1,1244389,false,false,1678,image-keyboard-response,41
true,13,2,1,2,true,d,false,true,0.0-2.0-0.58-0.522-3.522,0,0,0,68,false,stim,false,1,240.0,1,1,2,34858,task1,1246138,false,false,1681,image-keyboard-response,42
true,13,0,1,0,true,q,false,true,0.0-2.0-0.58-0.523-3.523,0,0,0,81,false,stim,false,2,873.0,1,1,0,34858,task1,1248520,false,false,1684,image-keyboard-response,43
true,13,0,1,0,true,q,false,true,0.0-2.0-0.58-0.524-3.524,0,0,0,81,false,stim,false,2,245.0,1,1,1,34858,task1,1250272,false,false,1687,image-keyboard-response,44
true,13,0,1,0,true,q,false,true,0.0-2.0-0.58-0.525-3.525,0,0,0,81,false,stim,false,2,351.0,1,1,1,34858,task1,1252130,false,false,1690,image-keyboard-response,45
true,14,2,0,0,false,q,true,false,0.0-2.0-0.58-0.526-3.526,1,1,1,68,true,stim,false,0,1678.0,1,1,0,34858,task1,1336133,false,false,1735,image-keyboard-response,1
true,14,0,0,0,true,q,false,false,0.0-2.0-0.58-0.527-3.527,1,1,1,81,false,stim,false,0,425.0,1,1,1,34858,task1,1338065,false,true,1738,image-keyboard-response,2
true,14,1,0,2,false,d,true,false,0.0-2.0-0.58-0.528-3.528,1,1,1,90,false,stim,false,2,397.99999999976717,1,1,2,34858,task1,1339970,false,false,1741,image-keyboard-response,3
true,14,2,0,0,false,q,true,true,0.0-2.0-0.58-0.529-3.529,1,1,1,68,false,stim,false,0,392.00000000023283,1,1,0,34858,task1,1341870,false,true,1744,image-keyboard-response,4
true,14,1,0,2,false,d,true,false,0.0-2.0-0.58-0.530-3.530,1,1,1,90,false,stim,false,2,826.0,1,1,2,34858,task1,1344203,false,false,1747,image-keyboard-response,5
true,14,2,0,0,false,q,true,false,0.0-2.0-0.59-0.531-3.531,1,1,1,68,false,stim,false,0,404.0,1,1,0,34858,task1,1346115,false,false,1750,image-keyboard-response,6
true,14,0,0,0,true,q,false,true,0.0-2.0-0.59-0.532-3.532,1,1,1,81,false,stim,false,0,540.0,1,1,1,34858,task1,1348163,false,false,1753,image-keyboard-response,7
true,14,1,0,2,false,d,true,false,0.0-2.0-0.59-0.533-3.533,1,1,1,90,false,stim,false,2,722.0,1,1,2,34858,task1,1350392,false,false,1756,image-keyboard-response,8
true,14,0,0,0,true,q,false,false,0.0-2.0-0.59-0.534-3.534,1,1,1,81,false,stim,false,0,465.0,1,0,1,34858,task1,1352362,false,true,1759,image-keyboard-response,9
true,14,0,0,0,true,q,false,true,0.0-2.0-0.59-0.535-3.535,1,1,1,81,false,stim,false,0,440.0,1,0,1,34858,task1,1354310,false,false,1762,image-keyboard-response,10
true,14,2,0,0,false,q,true,true,0.0-2.0-0.59-0.536-3.536,1,1,1,68,false,stim,false,0,582.0000000002328,1,0,0,34858,task1,1356400,false,true,1765,image-keyboard-response,11
true,14,1,0,2,false,d,true,false,0.0-2.0-0.59-0.537-3.537,1,1,1,90,false,stim,false,2,639.0,1,0,2,34858,task1,1358546,false,false,1768,image-keyboard-response,12
true,14,2,0,0,false,q,true,false,0.0-2.0-0.59-0.538-3.538,1,1,1,68,false,stim,false,0,718.0,1,0,0,34858,task1,1360771,false,false,1771,image-keyboard-response,13
true,15,2,2,1,false,z,false,false,0.0-2.0-0.59-0.539-3.539,0,0,0,68,true,stim,true,2,603.0000000002328,1,0,2,34858,task1,1362881,false,false,1774,image-keyboard-response,1
true,15,0,2,2,false,d,false,false,0.0-2.0-0.60-0.540-3.540,0,0,0,81,false,stim,true,0,573.9999999997672,1,0,1,34858,task1,1364964,false,false,1777,image-keyboard-response,2
true,15,0,2,1,false,z,true,false,0.0-2.0-0.60-0.541-3.541,0,0,0,81,false,stim,false,2,430.0,1,0,2,34858,task1,1366901,false,false,1780,image-keyboard-response,3
true,15,2,2,2,true,d,false,true,0.0-2.0-0.60-0.542-3.542,0,0,0,68,false,stim,false,0,275.0,1,0,0,34858,task1,1368683,false,false,1783,image-keyboard-response,4
true,15,2,2,1,false,z,false,false,0.0-2.0-0.60-0.543-3.543,0,0,0,68,false,stim,true,2,330.0,1,0,2,34858,task1,1370522,false,false,1786,image-keyboard-response,5
true,15,2,2,2,true,d,false,true,0.0-2.0-0.60-0.544-3.544,0,0,0,68,false,stim,false,0,509.0,1,0,0,34858,task1,1372538,false,false,1789,image-keyboard-response,6
true,15,2,2,2,true,d,false,true,0.0-2.0-0.60-0.545-3.545,0,0,0,68,false,stim,false,0,455.0,1,0,1,34858,task1,1374500,false,false,1792,image-keyboard-response,7
true,15,2,2,2,true,d,false,true,0.0-2.0-0.60-0.546-3.546,0,0,0,68,false,stim,false,0,431.00000000023283,1,0,0,34858,task1,1376439,false,false,1795,image-keyboard-response,8
false,15,-1,2,1,false,z,true,false,0.0-2.0-0.60-0.547-3.547,0,0,0,,false,stim,false,2,,1,0,2,34858,task1,1380950,false,false,1798,image-keyboard-response,9
true,15,0,2,2,false,d,false,false,0.0-2.0-0.60-0.548-3.548,0,0,0,81,false,stim,true,0,452.0,1,0,1,34858,task1,1382923,false,false,1801,image-keyboard-response,10
true,15,2,2,2,true,d,false,true,0.0-2.0-0.61-0.549-3.549,0,0,0,68,false,stim,false,0,387.0,1,0,0,34858,task1,1384817,false,false,1804,image-keyboard-response,11
true,15,0,2,2,false,d,false,false,0.0-2.0-0.61-0.550-3.550,0,0,0,81,false,stim,true,0,623.0,1,0,0,34858,task1,1386950,false,false,1807,image-keyboard-response,12
true,15,0,2,2,false,d,false,false,0.0-2.0-0.61-0.551-3.551,0,0,0,81,false,stim,true,0,317.0,1,0,1,34858,task1,1388773,false,false,1810,image-keyboard-response,13
true,15,1,2,1,true,z,false,true,0.0-2.0-0.61-0.552-3.552,0,0,0,90,false,stim,false,2,704.0,1,0,2,34858,task1,1390984,false,false,1813,image-keyboard-response,14
true,15,2,2,1,false,z,false,false,0.0-2.0-0.61-0.553-3.553,0,0,0,68,false,stim,true,2,278.0,1,0,2,34858,task1,1392770,false,false,1816,image-keyboard-response,15
true,15,2,2,1,false,z,false,false,0.0-2.0-0.61-0.554-3.554,0,0,0,68,false,stim,true,2,129.0,1,0,2,34858,task1,1394407,false,false,1819,image-keyboard-response,16
true,15,0,2,2,false,d,false,true,0.0-2.0-0.61-0.555-3.555,0,0,0,81,false,stim,true,0,59.0,1,0,1,34858,task1,1395974,false,true,1822,image-keyboard-response,17
true,15,0,2,2,false,d,false,true,0.0-2.0-0.61-0.556-3.556,0,0,0,81,false,stim,true,0,275.0,1,0,1,34858,task1,1397756,false,true,1825,image-keyboard-response,18
true,15,2,2,2,true,d,false,true,0.0-2.0-0.61-0.557-3.557,0,0,0,68,false,stim,false,0,233.99999999976717,1,0,0,34858,task1,1399500,false,false,1828,image-keyboard-response,19
true,15,2,2,1,false,z,false,false,0.0-2.0-0.62-0.558-3.558,0,0,0,68,false,stim,true,2,195.99999999976717,1,0,2,34858,task1,1401203,false,false,1831,image-keyboard-response,20
true,15,2,2,2,true,d,false,true,0.0-2.0-0.62-0.559-3.559,0,0,0,68,false,stim,false,0,413.0,1,0,1,34858,task1,1403121,false,false,1834,image-keyboard-response,21
true,15,2,2,1,false,z,false,false,0.0-2.0-0.62-0.560-3.560,0,0,0,68,false,stim,true,2,662.0,1,0,2,34858,task1,1405290,false,false,1837,image-keyboard-response,22
true,15,2,2,2,true,d,false,true,0.0-2.0-0.62-0.561-3.561,0,0,0,68,false,stim,false,0,1406.0,1,0,1,34858,task1,1408205,false,false,1840,image-keyboard-response,23
true,15,2,2,2,true,d,false,false,0.0-2.0-0.62-0.562-3.562,0,0,0,68,false,stim,false,0,329.0,1,0,0,34858,task1,1410042,false,true,1843,image-keyboard-response,24
true,15,2,2,2,true,d,false,true,0.0-2.0-0.62-0.563-3.563,0,0,0,68,false,stim,false,0,329.0,1,0,1,34858,task1,1411879,false,false,1846,image-keyboard-response,25
true,15,2,2,2,true,d,false,true,0.0-2.0-0.62-0.564-3.564,0,0,0,68,false,stim,false,0,254.0,1,0,0,34858,task1,1413638,false,false,1849,image-keyboard-response,26
true,15,2,2,2,true,d,false,true,0.0-2.0-0.62-0.565-3.565,0,0,0,68,false,stim,false,0,338.0,1,0,0,34858,task1,1415484,false,false,1852,image-keyboard-response,27
true,15,2,2,1,false,z,false,true,0.0-2.0-0.62-0.566-3.566,0,0,0,68,false,stim,true,2,254.0,1,0,2,34858,task1,1417244,false,true,1855,image-keyboard-response,28
true,15,2,2,2,true,d,false,true,0.0-2.0-0.63-0.567-3.567,0,0,0,68,false,stim,false,0,278.0,1,0,1,34858,task1,1419029,false,false,1858,image-keyboard-response,29
true,15,2,2,1,false,z,false,false,0.0-2.0-0.63-0.568-3.568,0,0,0,68,false,stim,true,2,112.0,1,0,2,34858,task1,1420648,false,false,1861,image-keyboard-response,30
true,15,0,2,2,false,d,false,false,0.0-2.0-0.63-0.569-3.569,0,0,0,81,false,stim,true,0,74.0,1,0,0,34858,task1,1422230,false,false,1864,image-keyboard-response,31
true,15,2,2,1,false,z,false,false,0.0-2.0-0.63-0.570-3.570,0,0,0,68,false,stim,true,2,123.0,1,0,2,34858,task1,1423860,false,false,1867,image-keyboard-response,32
true,15,2,2,2,true,d,false,true,0.0-2.0-0.63-0.571-3.571,0,0,0,68,false,stim,false,0,95.0,1,0,0,34858,task1,1425462,false,false,1870,image-keyboard-response,33
true,15,2,2,2,true,d,false,true,0.0-2.0-0.63-0.572-3.572,0,0,0,68,false,stim,false,0,1088.9999999997672,1,0,0,34858,task1,1428058,false,false,1873,image-keyboard-response,34
true,15,2,2,2,true,d,false,true,0.0-2.0-0.63-0.573-3.573,0,0,0,68,false,stim,false,0,1290.0,1,0,1,34858,task1,1430857,false,false,1876,image-keyboard-response,35
true,15,2,2,1,false,z,false,false,0.0-2.0-0.63-0.574-3.574,0,0,0,68,false,stim,true,2,2526.0,1,0,2,34858,task1,1434891,false,false,1879,image-keyboard-response,36
true,15,2,2,2,true,d,false,true,0.0-2.0-0.63-0.575-3.575,0,0,0,68,false,stim,false,0,118.0,1,0,1,34858,task1,1436516,false,false,1882,image-keyboard-response,37
true,15,2,2,1,false,z,false,false,0.0-2.0-0.64-0.576-3.576,0,0,0,68,false,stim,true,2,233.0,1,0,2,34858,task1,1438257,false,false,1885,image-keyboard-response,38
true,15,2,2,2,true,d,false,true,0.0-2.0-0.64-0.577-3.577,0,0,0,68,false,stim,false,0,213.0,1,0,1,34858,task1,1439978,false,false,1888,image-keyboard-response,39
true,15,2,2,2,true,d,false,true,0.0-2.0-0.64-0.578-3.578,0,0,0,68,false,stim,false,0,417.00000000023283,1,0,0,34858,task1,1441902,false,false,1891,image-keyboard-response,40
true,15,2,2,2,true,d,false,true,0.0-2.0-0.64-0.579-3.579,0,0,0,68,false,stim,false,0,364.0,1,0,1,34858,task1,1443772,false,false,1894,image-keyboard-response,41
true,15,2,2,1,false,z,false,false,0.0-2.0-0.64-0.580-3.580,0,0,0,68,false,stim,true,2,143.0,1,0,2,34858,task1,1445423,false,false,1897,image-keyboard-response,42
true,15,1,2,2,false,d,true,false,0.0-2.0-0.64-0.581-3.581,0,0,0,90,false,stim,false,0,180.0,1,0,0,34858,task1,1447113,false,false,1900,image-keyboard-response,43
true,15,2,2,2,true,d,false,false,0.0-2.0-0.64-0.582-3.582,0,0,0,68,false,stim,false,0,967.0,1,0,0,34858,task1,1449598,false,true,1903,image-keyboard-response,44
true,15,2,2,1,false,z,false,false,0.0-2.0-0.64-0.583-3.583,0,0,0,68,false,stim,true,2,461.0,1,0,2,34858,task1,1451569,false,false,1906,image-keyboard-response,45
true,16,1,2,1,true,z,false,true,0.0-2.0-0.64-0.584-3.584,0,0,0,90,true,stim,false,2,584.0,1,0,1,34858,task1,1453659,false,false,1909,image-keyboard-response,1
true,16,2,2,2,true,d,false,true,0.0-2.0-0.65-0.585-3.585,0,0,0,68,false,stim,false,1,540.0,1,0,2,34858,task1,1455707,false,false,1912,image-keyboard-response,2
true,16,2,2,1,false,z,false,false,0.0-2.0-0.65-0.586-3.586,0,0,0,68,false,stim,true,2,2017.0,1,0,0,34858,task1,1459232,false,false,1915,image-keyboard-response,3
true,16,1,2,2,false,d,false,false,0.0-2.0-0.65-0.587-3.587,0,0,0,90,false,stim,true,1,1154.0,1,0,2,34858,task1,1461892,false,false,1918,image-keyboard-response,4
true,16,2,2,1,false,z,false,false,0.0-2.0-0.65-0.588-3.588,0,0,0,68,false,stim,true,2,560.0,1,0,1,34858,task1,1463960,false,false,1921,image-keyboard-response,5
true,16,1,2,1,true,z,false,true,0.0-2.0-0.65-0.589-3.589,0,0,0,90,false,stim,false,2,179.0,1,0,0,34858,task1,1465647,false,false,1924,image-keyboard-response,6
true,16,2,2,2,true,d,false,true,0.0-2.0-0.65-0.590-3.590,0,0,0,68,false,stim,false,1,373.0,1,0,2,34858,task1,1467527,false,false,1927,image-keyboard-response,7
true,16,2,2,1,false,z,false,false,0.0-2.0-0.65-0.591-3.591,0,0,0,68,false,stim,true,2,1848.0,1,0,1,34858,task1,1470882,false,false,1930,image-keyboard-response,8
true,16,1,2,1,true,z,false,true,0.0-2.0-0.65-0.592-3.592,0,0,0,90,false,stim,false,2,1525.0,1,0,1,34858,task1,1473918,false,false,1933,image-keyboard-response,9
true,16,2,2,1,false,z,false,false,0.0-2.0-0.65-0.593-3.593,0,0,0,68,false,stim,true,2,374.0,1,0,0,34858,task1,1475798,false,false,1936,image-keyboard-response,10
true,16,1,2,1,true,z,false,true,0.0-2.0-0.66-0.594-3.594,0,0,0,90,false,stim,false,2,2591.0,1,0,0,34858,task1,1479898,false,false,1939,image-keyboard-response,11
true,16,1,2,1,true,z,false,false,0.0-2.0-0.66-0.595-3.595,0,0,0,90,false,stim,false,2,732.0,1,0,1,34858,task1,1482137,false,true,1942,image-keyboard-response,12
true,16,1,2,1,true,z,false,false,0.0-2.0-0.66-0.596-3.596,0,0,0,90,false,stim,false,2,47.0,1,0,0,34858,task1,1483696,false,true,1945,image-keyboard-response,13
true,16,1,2,2,false,d,false,false,0.0-2.0-0.66-0.597-3.597,0,0,0,90,false,stim,true,1,2022.0,1,0,2,34858,task1,1487224,false,false,1948,image-keyboard-response,14
false,16,-1,2,1,false,z,true,false,0.0-2.0-0.66-0.598-3.598,0,0,0,,false,stim,false,2,,1,0,1,34858,task1,1491733,false,false,1951,image-keyboard-response,15
false,16,-1,2,1,false,z,true,false,0.0-2.0-0.66-0.599-3.599,0,0,0,,false,stim,false,2,,1,0,0,34858,task1,1496241,false,false,1954,image-keyboard-response,16
true,16,2,2,2,true,d,false,true,0.0-2.0-0.66-0.600-3.600,0,0,0,68,false,stim,false,1,1214.0,1,0,2,34858,task1,1498963,false,false,1957,image-keyboard-response,17
true,16,2,2,2,true,d,false,true,0.0-2.0-0.66-0.601-3.601,0,0,0,68,false,stim,false,1,536.9999999997672,1,0,2,34858,task1,1501008,false,false,1960,image-keyboard-response,18
true,16,1,2,1,true,z,false,true,0.0-2.0-0.66-0.602-3.602,0,0,0,90,false,stim,false,2,568.0,1,0,1,34858,task1,1503088,false,false,1963,image-keyboard-response,19
true,16,1,2,2,false,d,false,false,0.0-2.0-0.67-0.603-3.603,0,0,0,90,false,stim,true,1,620.0,1,0,2,34858,task1,1505218,false,false,1966,image-keyboard-response,20
true,16,2,2,2,true,d,false,true,0.0-2.0-0.67-0.604-3.604,0,0,0,68,false,stim,false,1,323.00000000023283,1,0,2,34858,task1,1507048,false,false,1969,image-keyboard-response,21
true,16,1,2,1,true,z,false,true,0.0-2.0-0.67-0.605-3.605,0,0,0,90,false,stim,false,2,1697.0,1,0,0,34858,task1,1510252,false,false,1972,image-keyboard-response,22
true,16,2,2,1,false,z,false,false,0.0-2.0-0.67-0.606-3.606,0,0,0,68,false,stim,true,2,241.00000000023283,1,0,0,34858,task1,1512001,false,false,1975,image-keyboard-response,23
true,16,1,2,1,true,z,false,true,0.0-2.0-0.67-0.607-3.607,0,0,0,90,false,stim,false,2,708.0,1,0,0,34858,task1,1514217,false,false,1978,image-keyboard-response,24
true,16,1,2,1,true,z,false,true,0.0-2.0-0.67-0.608-3.608,0,0,0,90,false,stim,false,2,1361.0000000002328,1,0,1,34858,task1,1517087,false,false,1981,image-keyboard-response,25
true,16,1,2,1,true,z,false,true,0.0-2.0-0.67-0.609-3.609,0,0,0,90,false,stim,false,2,1142.0,1,0,1,34858,task1,1519736,false,false,1984,image-keyboard-response,26
true,16,1,2,2,false,d,false,false,0.0-2.0-0.67-0.610-3.610,0,0,0,90,false,stim,true,1,1428.0,1,0,2,34858,task1,1522673,false,false,1987,image-keyboard-response,27
true,16,1,2,1,true,z,false,true,0.0-2.0-0.67-0.611-3.611,0,0,0,90,false,stim,false,2,795.0,1,0,1,34858,task1,1524974,false,false,1990,image-keyboard-response,28
true,16,1,2,1,true,z,false,true,0.0-2.0-0.68-0.612-3.612,0,0,0,90,false,stim,false,2,1052.0,1,0,1,34858,task1,1527537,false,false,1993,image-keyboard-response,29
true,16,1,2,1,true,z,false,false,0.0-2.0-0.68-0.613-3.613,0,0,0,90,false,stim,false,2,2720.0,1,0,0,34858,task1,1531767,false,true,1996,image-keyboard-response,30
true,16,1,2,1,true,z,false,false,0.0-2.0-0.68-0.614-3.614,0,0,0,90,false,stim,false,2,1878.0,1,0,1,34858,task1,1535152,false,true,1999,image-keyboard-response,31
true,16,2,2,1,false,z,false,false,0.0-2.0-0.68-0.615-3.615,0,0,0,68,false,stim,true,2,548.9999999997672,1,0,0,34858,task1,1537223,false,false,2002,image-keyboard-response,32
