answered,blockNum,choice,condition,corResp,correct,correct_response,explo,fb,internal_node_id,isStable_1,isStable_2,isStable_3,key_press,newBlock,part,persev,persevResp,rt,sessNum,stableAS,stimulus,subject,task,time_elapsed,training,trap,trial_index,trial_type,trialsInBlock
true,1,2,0,2,true,d,false,true,0.0-2.0-0.0-0.0-3.0,0,0,0,68,true,stim,false,-1,1405.000000000029,2,0,0,34858,task2,171988,false,false,186,image-keyboard-response,1
true,1,2,0,2,true,d,false,false,0.0-2.0-0.0-0.1-3.1,0,0,0,68,false,stim,false,-1,565.0,2,0,1,34858,task2,174060,false,true,189,image-keyboard-response,2
true,1,2,0,0,false,q,true,false,0.0-2.0-0.0-0.2-3.2,0,0,0,68,false,stim,false,-1,1547.000000000029,2,0,2,34858,task2,177113,false,false,192,image-keyboard-response,3
false,1,-1,0,2,false,d,false,false,0.0-2.0-0.0-0.3-3.3,0,0,0,,false,stim,true,-1,,2,0,0,34858,task2,181618,false,false,195,image-keyboard-response,4
true,1,0,0,2,false,d,true,false,0.0-2.0-0.0-0.4-3.4,0,0,0,81,false,stim,false,-1,266.0000000000291,2,0,0,34858,task2,183387,false,false,198,image-keyboard-response,5
true,1,0,0,2,false,d,true,false,0.0-2.0-0.0-0.5-3.5,0,0,0,81,false,stim,false,-1,722.0,2,0,1,34858,task2,185615,false,false,201,image-keyboard-response,6
true,1,1,0,0,false,q,true,false,0.0-2.0-0.0-0.6-3.6,0,0,0,90,false,stim,false,-1,288.9999999999709,2,0,2,34858,task2,187409,false,false,204,image-keyboard-response,7
true,1,2,0,2,true,d,false,true,0.0-2.0-0.0-0.7-3.7,0,0,0,68,false,stim,false,-1,254.0,2,0,1,34858,task2,189167,false,false,207,image-keyboard-response,8
true,1,2,0,0,false,q,true,false,0.0-2.0-0.0-0.8-3.8,0,0,0,68,false,stim,false,-1,388.0,2,0,2,34858,task2,191060,false,false,210,image-keyboard-response,9
true,1,1,0,2,false,d,true,false,0.0-2.0-0.1-0.9-3.9,0,0,0,90,false,stim,false,-1,380.0,2,0,1,34858,task2,192946,false,false,213,image-keyboard-response,10
true,1,0,0,0,true,q,false,true,0.0-2.0-0.1-0.10-3.10,0,0,0,81,false,stim,false,-1,415.0000000000291,2,0,2,34858,task2,194864,false,false,216,image-keyboard-response,11
true,1,1,0,2,false,d,true,true,0.0-2.0-0.1-0.11-3.11,0,0,0,90,false,stim,false,-1,577.0,2,0,0,34858,task2,196946,false,true,219,image-keyboard-response,12
true,1,0,0,0,true,q,false,true,0.0-2.0-0.1-0.12-3.12,0,0,0,81,false,stim,false,-1,624.0,2,0,2,34858,task2,199073,false,false,222,image-keyboard-response,13
true,1,0,0,0,true,q,false,true,0.0-2.0-0.1-0.13-3.13,0,0,0,81,false,stim,false,-1,525.0000000000291,2,0,2,34858,task2,201102,false,false,225,image-keyboard-response,14
true,1,1,0,2,false,d,true,false,0.0-2.0-0.1-0.14-3.14,0,0,0,90,false,stim,false,-1,742.9999999999709,2,0,0,34858,task2,203351,false,false,228,image-keyboard-response,15
true,1,2,0,2,true,d,false,true,0.0-2.0-0.1-0.15-3.15,0,0,0,68,false,stim,false,-1,375.0,2,0,1,34858,task2,205230,false,false,231,image-keyboard-response,16
true,1,0,0,2,false,d,true,false,0.0-2.0-0.1-0.16-3.16,0,0,0,81,false,stim,false,-1,532.0,2,0,0,34858,task2,207268,false,false,234,image-keyboard-response,17
true,1,2,0,2,true,d,false,true,0.0-2.0-0.1-0.17-3.17,0,0,0,68,false,stim,false,-1,729.0,2,0,1,34858,task2,209503,false,false,237,image-keyboard-response,18
true,1,2,0,2,true,d,false,true,0.0-2.0-0.2-0.18-3.18,0,0,0,68,false,stim,false,-1,410.0,2,0,1,34858,task2,211419,false,false,240,image-keyboard-response,19
true,1,2,0,2,true,d,false,true,0.0-2.0-0.2-0.19-3.19,0,0,0,68,false,stim,false,-1,490.0,2,0,0,34858,task2,213412,false,false,243,image-keyboard-response,20
true,1,0,0,0,true,q,false,true,0.0-2.0-0.2-0.20-3.20,0,0,0,81,false,stim,false,-1,397.0,2,0,2,34858,task2,215313,false,false,246,image-keyboard-response,21
true,1,0,0,0,true,q,false,true,0.0-2.0-0.2-0.21-3.21,0,0,0,81,false,stim,false,-1,607.9999999999709,2,0,2,34858,task2,217427,false,false,249,image-keyboard-response,22
true,1,2,0,2,true,d,false,true,0.0-2.0-0.2-0.22-3.22,0,0,0,68,false,stim,false,-1,617.9999999999709,2,0,0,34858,task2,219549,false,false,252,image-keyboard-response,23
true,1,0,0,0,true,q,false,true,0.0-2.0-0.2-0.23-3.23,0,0,0,81,false,stim,false,-1,1352.0,2,0,2,34858,task2,222406,false,false,255,image-keyboard-response,24
true,1,2,0,2,true,d,false,true,0.0-2.0-0.2-0.24-3.24,0,0,0,68,false,stim,false,-1,682.0,2,0,1,34858,task2,224592,false,false,258,image-keyboard-response,25
true,1,2,0,2,true,d,false,true,0.0-2.0-0.2-0.25-3.25,0,0,0,68,false,stim,false,-1,344.0,2,0,1,34858,task2,226442,false,false,261,image-keyboard-response,26
true,2,2,1,1,false,z,false,false,0.0-2.0-0.2-0.26-3.26,0,0,0,68,true,stim,true,2,356.0,2,0,0,34858,task2,228301,false,false,264,image-keyboard-response,1
true,2,2,1,0,false,q,false,false,0.0-2.0-0.3-0.27-3.27,0,0,0,68,false,stim,true,2,812.0,2,0,1,34858,task2,230619,false,false,267,image-keyboard-response,2
true,2,0,1,2,false,d,false,false,0.0-2.0-0.3-0.28-3.28,0,0,0,81,false,stim,true,0,697.0,2,0,2,34858,task2,232820,false,false,270,image-keyboard-response,3
true,2,1,1,0,false,q,true,false,0.0-2.0-0.3-0.29-3.29,0,0,0,90,false,stim,false,2,545.0000000000291,2,0,1,34858,task2,234871,false,false,273,image-keyboard-response,4
true,2,0,1,0,true,q,false,true,0.0-2.0-0.3-0.30-3.30,0,0,0,81,false,stim,false,2,358.0,2,0,1,34858,task2,236733,false,false,276,image-keyboard-response,5
true,2,0,1,2,false,d,false,false,0.0-2.0-0.3-0.31-3.31,0,0,0,81,false,stim,true,0,725.0,2,0,2,34858,task2,238963,false,false,279,image-keyboard-response,6
true,2,2,1,2,true,d,false,true,0.0-2.0-0.3-0.32-3.32,0,0,0,68,false,stim,false,0,440.0,2,0,2,34858,task2,240907,false,false,282,image-keyboard-response,7
true,2,2,1,1,false,z,false,false,0.0-2.0-0.3-0.33-3.33,0,0,0,68,false,stim,true,2,483.0,2,0,0,34858,task2,242893,false,false,285,image-keyboard-response,8
true,2,0,1,1,false,z,true,true,0.0-2.0-0.3-0.34-3.34,0,0,0,81,false,stim,false,2,560.0,2,0,0,34858,task2,244957,false,true,288,image-keyboard-response,9
true,2,0,1,1,false,z,true,false,0.0-2.0-0.3-0.35-3.35,0,0,0,81,false,stim,false,2,419.9999999999418,2,0,0,34858,task2,246881,false,false,291,image-keyboard-response,10
true,2,2,1,0,false,q,false,false,0.0-2.0-0.4-0.36-3.36,0,0,0,68,false,stim,true,2,620.0,2,0,1,34858,task2,249006,false,false,294,image-keyboard-response,11
true,2,2,1,2,true,d,false,true,0.0-2.0-0.4-0.37-3.37,0,0,0,68,false,stim,false,0,391.9999999999418,2,0,2,34858,task2,250904,false,false,297,image-keyboard-response,12
true,2,0,1,0,true,q,false,true,0.0-2.0-0.4-0.38-3.38,0,0,0,81,false,stim,false,2,755.0,2,0,1,34858,task2,253164,false,false,300,image-keyboard-response,13
true,2,2,1,2,true,d,false,true,0.0-2.0-0.4-0.39-3.39,0,0,0,68,false,stim,false,0,1095.0,2,0,2,34858,task2,255764,false,false,303,image-keyboard-response,14
true,2,0,1,1,false,z,true,false,0.0-2.0-0.4-0.40-3.40,0,0,0,81,false,stim,false,2,657.0,2,0,0,34858,task2,257927,false,false,306,image-keyboard-response,15
true,2,0,1,2,false,d,false,false,0.0-2.0-0.4-0.41-3.41,0,0,0,81,false,stim,true,0,760.0,2,0,2,34858,task2,260190,false,false,309,image-keyboard-response,16
true,2,2,1,1,false,z,false,false,0.0-2.0-0.4-0.42-3.42,0,0,0,68,false,stim,true,2,744.0,2,0,0,34858,task2,262437,false,false,312,image-keyboard-response,17
true,2,0,1,0,true,q,false,true,0.0-2.0-0.4-0.43-3.43,0,0,0,81,false,stim,false,2,826.0,2,0,1,34858,task2,264767,false,false,315,image-keyboard-response,18
true,2,0,1,1,false,z,true,false,0.0-2.0-0.4-0.44-3.44,0,0,0,81,false,stim,false,2,442.0,2,0,0,34858,task2,266715,false,false,318,image-keyboard-response,19
true,2,2,1,2,true,d,false,true,0.0-2.0-0.5-0.45-3.45,0,0,0,68,false,stim,false,0,1042.0,2,0,2,34858,task2,269261,false,false,321,image-keyboard-response,20
true,2,0,1,0,true,q,false,true,0.0-2.0-0.5-0.46-3.46,0,0,0,81,false,stim,false,2,1759.0,2,0,1,34858,task2,272526,false,false,324,image-keyboard-response,21
true,2,0,1,0,true,q,false,true,0.0-2.0-0.5-0.47-3.47,0,0,0,81,false,stim,false,2,657.0,2,0,1,34858,task2,274689,false,false,327,image-keyboard-response,22
true,2,0,1,1,false,z,true,true,0.0-2.0-0.5-0.48-3.48,0,0,0,81,false,stim,false,2,542.0,2,0,0,34858,task2,276735,false,true,330,image-keyboard-response,23
true,2,2,1,2,true,d,false,true,0.0-2.0-0.5-0.49-3.49,0,0,0,68,false,stim,false,0,411.0,2,0,2,34858,task2,278652,false,false,333,image-keyboard-response,24
true,2,2,1,2,true,d,false,true,0.0-2.0-0.5-0.50-3.50,0,0,0,68,false,stim,false,0,395.0,2,0,2,34858,task2,280550,false,false,336,image-keyboard-response,25
true,2,0,1,0,true,q,false,true,0.0-2.0-0.5-0.51-3.51,0,0,0,81,false,stim,false,2,561.0,2,0,1,34858,task2,282617,false,false,339,image-keyboard-response,26
true,2,0,1,1,false,z,true,false,0.0-2.0-0.5-0.52-3.52,0,0,0,81,false,stim,false,2,1265.0,2,0,0,34858,task2,285386,false,false,342,image-keyboard-response,27
true,2,0,1,1,false,z,true,false,0.0-2.0-0.5-0.53-3.53,0,0,0,81,false,stim,false,2,570.0000000000582,2,0,0,34858,task2,287460,false,false,345,image-keyboard-response,28
true,2,0,1,0,true,q,false,true,0.0-2.0-0.6-0.54-3.54,0,0,0,81,false,stim,false,2,586.0,2,0,1,34858,task2,289550,false,false,348,image-keyboard-response,29
true,2,0,1,1,false,z,true,false,0.0-2.0-0.6-0.55-3.55,0,0,0,81,false,stim,false,2,668.0,2,0,0,34858,task2,291724,false,false,351,image-keyboard-response,30
true,2,0,1,0,true,q,false,true,0.0-2.0-0.6-0.56-3.56,0,0,0,81,false,stim,false,2,874.0,2,0,1,34858,task2,294102,false,false,354,image-keyboard-response,31
true,2,2,1,2,true,d,false,false,0.0-2.0-0.6-0.57-3.57,0,0,0,68,false,stim,false,0,628.0000000000582,2,0,2,34858,task2,296235,false,true,357,image-keyboard-response,32
true,2,2,1,2,true,d,false,true,0.0-2.0-0.6-0.58-3.58,0,0,0,68,false,stim,false,0,890.0,2,0,2,34858,task2,298630,false,false,360,image-keyboard-response,33
true,2,2,1,2,true,d,false,true,0.0-2.0-0.6-0.59-3.59,0,0,0,68,false,stim,false,0,1002.0,2,0,2,34858,task2,301136,false,false,363,image-keyboard-response,34
true,2,0,1,1,false,z,true,false,0.0-2.0-0.6-0.60-3.60,0,0,0,81,false,stim,false,2,799.9999999999418,2,1,0,34858,task2,303438,false,false,366,image-keyboard-response,35
true,2,1,1,1,true,z,false,true,0.0-2.0-0.6-0.61-3.61,0,0,0,90,false,stim,false,2,923.0,2,1,0,34858,task2,305866,false,false,369,image-keyboard-response,36
true,2,0,1,0,true,q,false,false,0.0-2.0-0.6-0.62-3.62,0,0,0,81,false,stim,false,2,545.0,2,0,1,34858,task2,307914,false,true,372,image-keyboard-response,37
true,3,2,2,0,false,q,false,false,0.0-2.0-0.7-0.63-3.63,1,0,0,68,true,stim,true,2,626.0,2,0,2,34858,task2,310046,false,false,375,image-keyboard-response,1
true,3,2,2,1,false,z,true,false,0.0-2.0-0.7-0.64-3.64,1,0,0,68,false,stim,false,0,369.0,2,0,1,34858,task2,311921,false,false,378,image-keyboard-response,2
true,3,2,2,1,false,z,true,false,0.0-2.0-0.7-0.65-3.65,1,0,0,68,false,stim,false,0,605.0,2,0,1,34858,task2,314029,false,false,381,image-keyboard-response,3
true,3,0,2,1,false,z,false,false,0.0-2.0-0.7-0.66-3.66,1,0,0,81,false,stim,true,0,512.0,2,0,1,34858,task2,316047,false,false,384,image-keyboard-response,4
true,3,0,2,0,true,q,false,false,0.0-2.0-0.7-0.67-3.67,1,0,0,81,false,stim,false,2,220.0,2,0,2,34858,task2,317773,false,true,387,image-keyboard-response,5
true,3,0,2,0,true,q,false,true,0.0-2.0-0.7-0.68-3.68,1,0,0,81,false,stim,false,2,370.0,2,0,2,34858,task2,319648,false,false,390,image-keyboard-response,6
true,3,0,2,1,false,z,true,false,0.0-2.0-0.7-0.69-3.69,1,0,0,81,false,stim,false,1,543.0,2,1,0,34858,task2,321694,false,false,393,image-keyboard-response,7
true,3,0,2,1,false,z,true,false,0.0-2.0-0.7-0.70-3.70,1,0,0,81,false,stim,false,1,618.0,2,1,0,34858,task2,323816,false,false,396,image-keyboard-response,8
true,3,0,2,1,false,z,true,false,0.0-2.0-0.7-0.71-3.71,1,0,0,81,false,stim,false,1,345.0,2,1,0,34858,task2,325667,false,false,399,image-keyboard-response,9
true,3,1,2,0,false,q,true,false,0.0-2.0-0.8-0.72-3.72,1,0,0,90,false,stim,false,2,1534.0,2,0,2,34858,task2,328707,false,false,402,image-keyboard-response,10
false,3,-1,2,1,false,z,true,false,0.0-2.0-0.8-0.73-3.73,1,0,0,,false,stim,false,0,,2,0,1,34858,task2,333212,false,false,405,image-keyboard-response,11
true,3,2,2,1,false,z,true,false,0.0-2.0-0.8-0.74-3.74,1,0,0,68,false,stim,false,1,913.0,2,1,0,34858,task2,335630,false,false,408,image-keyboard-response,12
true,3,2,2,1,false,z,true,false,0.0-2.0-0.8-0.75-3.75,1,0,0,68,false,stim,false,0,395.9999999999418,2,0,1,34858,task2,337530,false,false,411,image-keyboard-response,13
true,3,2,2,1,false,z,true,false,0.0-2.0-0.8-0.76-3.76,1,0,0,68,false,stim,false,1,2854.000000000058,2,1,0,34858,task2,341889,false,false,414,image-keyboard-response,14
true,3,2,2,0,false,q,false,false,0.0-2.0-0.8-0.77-3.77,1,0,0,68,false,stim,true,2,556.0000000000582,2,0,2,34858,task2,343950,false,false,417,image-keyboard-response,15
true,3,2,2,1,false,z,true,false,0.0-2.0-0.8-0.78-3.78,1,0,0,68,false,stim,false,0,933.0,2,0,1,34858,task2,346388,false,false,420,image-keyboard-response,16
true,3,0,2,0,true,q,false,true,0.0-2.0-0.8-0.79-3.79,1,0,0,81,false,stim,false,2,1773.0,2,0,2,34858,task2,349666,false,false,423,image-keyboard-response,17
true,3,2,2,1,false,z,true,false,0.0-2.0-0.8-0.80-3.80,1,0,0,68,false,stim,false,1,114.00000000005821,2,1,0,34858,task2,351284,false,false,426,image-keyboard-response,18
false,3,-1,2,1,false,z,true,false,0.0-2.0-0.9-0.81-3.81,1,0,0,,false,stim,false,0,,2,0,1,34858,task2,355790,false,false,429,image-keyboard-response,19
true,3,0,2,0,true,q,false,false,0.0-2.0-0.9-0.82-3.82,1,0,0,81,false,stim,false,2,1860.0,2,0,2,34858,task2,359156,false,true,432,image-keyboard-response,20
true,3,2,2,1,false,z,true,false,0.0-2.0-0.9-0.83-3.83,1,0,0,68,false,stim,false,1,2396.0,2,1,0,34858,task2,363056,false,false,435,image-keyboard-response,21
true,3,0,2,1,false,z,true,false,0.0-2.0-0.9-0.84-3.84,1,0,0,81,false,stim,false,1,1773.0,2,1,0,34858,task2,366335,false,false,438,image-keyboard-response,22
true,3,0,2,1,false,z,false,false,0.0-2.0-0.9-0.85-3.85,1,0,0,81,false,stim,true,0,411.0,2,0,1,34858,task2,368253,false,false,441,image-keyboard-response,23
true,3,0,2,1,false,z,true,false,0.0-2.0-0.9-0.86-3.86,1,0,0,81,false,stim,false,1,2317.000000000058,2,1,0,34858,task2,372075,false,false,444,image-keyboard-response,24
true,3,2,2,0,false,q,false,false,0.0-2.0-0.9-0.87-3.87,1,0,0,68,false,stim,true,2,516.0,2,0,2,34858,task2,374098,false,false,447,image-keyboard-response,25
true,3,0,2,1,false,z,false,true,0.0-2.0-0.9-0.88-3.88,1,0,0,81,false,stim,true,0,131.0,2,0,1,34858,task2,375734,false,true,450,image-keyboard-response,26
true,3,2,2,0,false,q,false,true,0.0-2.0-0.9-0.89-3.89,1,0,0,68,false,stim,true,2,677.0,2,0,2,34858,task2,377915,false,true,453,image-keyboard-response,27
true,3,2,2,1,false,z,true,false,0.0-2.0-0.10-0.90-3.90,1,0,0,68,false,stim,false,1,576.0,2,1,0,34858,task2,379995,false,false,456,image-keyboard-response,28
true,3,2,2,1,false,z,true,false,0.0-2.0-0.10-0.91-3.91,1,0,0,68,false,stim,false,1,795.0,2,1,0,34858,task2,382296,false,false,459,image-keyboard-response,29
true,3,2,2,1,false,z,true,false,0.0-2.0-0.10-0.92-3.92,1,0,0,68,false,stim,false,0,111.99999999994179,2,0,1,34858,task2,383914,false,false,462,image-keyboard-response,30
true,3,2,2,0,false,q,false,false,0.0-2.0-0.10-0.93-3.93,1,0,0,68,false,stim,true,2,1100.0,2,0,2,34858,task2,386518,false,false,465,image-keyboard-response,31
true,3,2,2,1,false,z,true,false,0.0-2.0-0.10-0.94-3.94,1,0,0,68,false,stim,false,0,559.9999999999418,2,0,1,34858,task2,388583,false,false,468,image-keyboard-response,32
true,3,2,2,0,false,q,false,false,0.0-2.0-0.10-0.95-3.95,1,0,0,68,false,stim,true,2,466.0,2,0,2,34858,task2,390555,false,false,471,image-keyboard-response,33
true,4,2,2,1,false,z,true,false,0.0-2.0-0.10-0.96-3.96,1,0,0,68,true,stim,false,1,245.0,2,1,0,34858,task2,392306,false,false,474,image-keyboard-response,1
true,4,0,2,0,true,q,false,true,0.0-2.0-0.10-0.97-3.97,1,0,0,81,false,stim,false,1,280.0,2,0,1,34858,task2,394092,false,false,477,image-keyboard-response,2
true,4,2,2,1,false,z,true,false,0.0-2.0-0.10-0.98-3.98,1,0,0,68,false,stim,false,0,606.0,2,0,2,34858,task2,396203,false,false,480,image-keyboard-response,3
true,4,2,2,0,false,q,true,false,0.0-2.0-0.11-0.99-3.99,1,0,0,68,false,stim,false,1,724.0,2,0,1,34858,task2,398431,false,false,483,image-keyboard-response,4
true,4,0,2,1,false,z,true,false,0.0-2.0-0.11-0.100-3.100,1,0,0,81,false,stim,false,1,1155.0,2,1,0,34858,task2,401093,false,false,486,image-keyboard-response,5
true,4,1,2,0,false,q,false,true,0.0-2.0-0.11-0.101-3.101,1,0,0,90,false,stim,true,1,1042.0,2,0,1,34858,task2,403639,false,true,489,image-keyboard-response,6
true,4,1,2,0,false,q,false,false,0.0-2.0-0.11-0.102-3.102,1,0,0,90,false,stim,true,1,406.0,2,0,1,34858,task2,405548,false,false,492,image-keyboard-response,7
true,4,1,2,1,true,z,false,true,0.0-2.0-0.11-0.103-3.103,1,0,0,90,false,stim,false,1,313.0,2,1,0,34858,task2,407367,false,false,495,image-keyboard-response,8
true,4,2,2,1,false,z,true,false,0.0-2.0-0.11-0.104-3.104,1,0,0,68,false,stim,false,1,390.0,2,1,0,34858,task2,409261,false,false,498,image-keyboard-response,9
true,4,1,2,1,true,z,false,true,0.0-2.0-0.11-0.105-3.105,1,0,0,90,false,stim,false,0,323.0,2,0,2,34858,task2,411090,false,false,501,image-keyboard-response,10
true,4,1,2,1,true,z,false,true,0.0-2.0-0.11-0.106-3.106,1,0,0,90,false,stim,false,0,411.0,2,0,2,34858,task2,413008,false,false,504,image-keyboard-response,11
true,4,1,2,1,true,z,false,true,0.0-2.0-0.11-0.107-3.107,1,0,0,90,false,stim,false,0,802.0,2,0,2,34858,task2,415315,false,false,507,image-keyboard-response,12
true,4,1,2,1,true,z,false,true,0.0-2.0-0.12-0.108-3.108,1,0,0,90,false,stim,false,0,396.9999999999418,2,0,2,34858,task2,417218,false,false,510,image-keyboard-response,13
true,4,1,2,1,true,z,false,true,0.0-2.0-0.12-0.109-3.109,1,0,0,90,false,stim,false,0,602.0,2,0,2,34858,task2,419323,false,false,513,image-keyboard-response,14
true,4,1,2,0,false,q,false,false,0.0-2.0-0.12-0.110-3.110,1,0,0,90,false,stim,true,1,655.0,2,0,1,34858,task2,421485,false,false,516,image-keyboard-response,15
true,4,1,2,1,true,z,false,true,0.0-2.0-0.12-0.111-3.111,1,0,0,90,false,stim,false,0,1967.0,2,0,2,34858,task2,424956,false,false,519,image-keyboard-response,16
true,4,1,2,0,false,q,false,false,0.0-2.0-0.12-0.112-3.112,1,0,0,90,false,stim,true,1,503.0000000000582,2,0,1,34858,task2,426964,false,false,522,image-keyboard-response,17
false,4,-1,2,0,false,q,true,false,0.0-2.0-0.12-0.113-3.113,1,0,0,,false,stim,false,1,,2,0,1,34858,task2,431468,false,false,525,image-keyboard-response,18
true,4,1,2,1,true,z,false,false,0.0-2.0-0.12-0.114-3.114,1,0,0,90,false,stim,false,1,2597.0,2,1,0,34858,task2,435568,false,true,528,image-keyboard-response,19
true,4,1,2,1,true,z,false,true,0.0-2.0-0.12-0.115-3.115,1,0,0,90,false,stim,false,1,1765.0000000000582,2,1,0,34858,task2,438840,false,false,531,image-keyboard-response,20
true,4,1,2,1,true,z,false,true,0.0-2.0-0.12-0.116-3.116,1,0,0,90,false,stim,false,1,610.0,2,1,0,34858,task2,440955,false,false,534,image-keyboard-response,21
true,4,1,2,0,false,q,false,false,0.0-2.0-0.13-0.117-3.117,1,0,0,90,false,stim,true,1,327.9999999999418,2,0,1,34858,task2,442788,false,false,537,image-keyboard-response,22
true,4,1,2,1,true,z,false,true,0.0-2.0-0.13-0.118-3.118,1,0,0,90,false,stim,false,0,445.0000000000582,2,0,2,34858,task2,444738,false,false,540,image-keyboard-response,23
true,4,1,2,1,true,z,false,false,0.0-2.0-0.13-0.119-3.119,1,0,0,90,false,stim,false,1,1841.9999999999418,2,1,0,34858,task2,448086,false,true,543,image-keyboard-response,24
true,4,1,2,0,false,q,false,false,0.0-2.0-0.13-0.120-3.120,1,0,0,90,false,stim,true,1,963.0,2,0,1,34858,task2,450554,false,false,546,image-keyboard-response,25
false,4,-1,2,1,false,z,true,false,0.0-2.0-0.13-0.121-3.121,1,0,0,,false,stim,false,0,,2,0,2,34858,task2,455060,false,false,549,image-keyboard-response,26
true,4,0,2,1,false,z,true,false,0.0-2.0-0.13-0.122-3.122,1,0,0,81,false,stim,false,1,480.9999999999418,2,1,0,34858,task2,457047,false,false,552,image-keyboard-response,27
true,4,2,2,1,false,z,true,false,0.0-2.0-0.13-0.123-3.123,1,0,0,68,false,stim,false,1,472.0000000000582,2,1,0,34858,task2,459025,false,false,555,image-keyboard-response,28
true,4,0,2,0,true,q,false,true,0.0-2.0-0.13-0.124-3.124,1,0,0,81,false,stim,false,1,563.0,2,0,1,34858,task2,461094,false,false,558,image-keyboard-response,29
true,4,1,2,1,true,z,false,true,0.0-2.0-0.13-0.125-3.125,1,0,0,90,false,stim,false,0,562.0000000000582,2,1,2,34858,task2,463162,false,false,561,image-keyboard-response,30
true,4,0,2,0,true,q,false,true,0.0-2.0-0.14-0.126-3.126,1,0,0,81,false,stim,false,1,668.0,2,0,1,34858,task2,465335,false,false,564,image-keyboard-response,31
true,4,0,2,0,true,q,false,false,0.0-2.0-0.14-0.127-3.127,1,0,0,81,false,stim,false,1,1046.0,2,0,1,34858,task2,467887,false,true,567,image-keyboard-response,32
true,4,0,2,0,true,q,false,true,0.0-2.0-0.14-0.128-3.128,1,0,0,81,false,stim,false,1,578.0,2,0,1,34858,task2,469969,false,false,570,image-keyboard-response,33
true,4,1,2,1,true,z,false,true,0.0-2.0-0.14-0.129-3.129,1,0,0,90,false,stim,false,1,723.0,2,0,0,34858,task2,472197,false,false,573,image-keyboard-response,34
true,5,1,2,1,true,z,false,true,0.0-2.0-0.14-0.130-3.130,0,0,1,90,true,stim,false,1,764.0,2,1,2,34858,task2,474464,false,false,576,image-keyboard-response,1
true,5,1,2,0,false,q,false,false,0.0-2.0-0.14-0.131-3.131,0,0,1,90,false,stim,true,1,648.0,2,0,0,34858,task2,476616,false,false,579,image-keyboard-response,2
true,5,1,2,1,true,z,false,true,0.0-2.0-0.14-0.132-3.132,0,0,1,90,false,stim,false,1,640.0,2,1,2,34858,task2,478760,false,false,582,image-keyboard-response,3
true,5,1,2,0,false,q,false,false,0.0-2.0-0.14-0.133-3.133,0,0,1,90,false,stim,true,1,759.0000000000582,2,0,0,34858,task2,481025,false,false,585,image-keyboard-response,4
true,5,1,2,1,true,z,false,true,0.0-2.0-0.14-0.134-3.134,0,0,1,90,false,stim,false,1,706.0,2,1,2,34858,task2,483238,false,false,588,image-keyboard-response,5
true,5,1,2,1,true,z,false,false,0.0-2.0-0.15-0.135-3.135,0,0,1,90,false,stim,false,1,427.9999999999418,2,1,2,34858,task2,485173,false,true,591,image-keyboard-response,6
true,5,1,2,0,false,q,false,true,0.0-2.0-0.15-0.136-3.136,0,0,1,90,false,stim,true,1,506.0,2,0,0,34858,task2,487183,false,true,594,image-keyboard-response,7
true,5,0,2,2,false,d,false,false,0.0-2.0-0.15-0.137-3.137,0,0,1,81,false,stim,true,0,613.0,2,0,1,34858,task2,489299,false,false,597,image-keyboard-response,8
true,5,0,2,2,false,d,false,false,0.0-2.0-0.15-0.138-3.138,0,0,1,81,false,stim,true,0,423.0,2,0,1,34858,task2,491228,false,false,600,image-keyboard-response,9
true,5,0,2,2,false,d,false,false,0.0-2.0-0.15-0.139-3.139,0,0,1,81,false,stim,true,0,382.9999999999418,2,0,1,34858,task2,493118,false,false,603,image-keyboard-response,10
true,5,1,2,1,true,z,false,true,0.0-2.0-0.15-0.140-3.140,0,0,1,90,false,stim,false,1,572.0,2,1,2,34858,task2,495194,false,false,606,image-keyboard-response,11
true,5,1,2,0,false,q,false,false,0.0-2.0-0.15-0.141-3.141,0,0,1,90,false,stim,true,1,598.0,2,0,0,34858,task2,497296,false,false,609,image-keyboard-response,12
true,5,1,2,0,false,q,false,false,0.0-2.0-0.15-0.142-3.142,0,0,1,90,false,stim,true,1,452.0,2,0,0,34858,task2,499253,false,false,612,image-keyboard-response,13
true,5,2,2,1,false,z,true,false,0.0-2.0-0.15-0.143-3.143,0,0,1,68,false,stim,false,1,532.0,2,1,2,34858,task2,501291,false,false,615,image-keyboard-response,14
true,5,0,2,0,true,q,false,true,0.0-2.0-0.16-0.144-3.144,0,0,1,81,false,stim,false,1,331.0,2,0,0,34858,task2,503128,false,false,618,image-keyboard-response,15
true,5,1,2,2,false,d,true,false,0.0-2.0-0.16-0.145-3.145,0,0,1,90,false,stim,false,0,444.9999999998836,2,0,1,34858,task2,505077,false,false,621,image-keyboard-response,16
true,5,2,2,1,false,z,true,false,0.0-2.0-0.16-0.146-3.146,0,0,1,68,false,stim,false,1,742.0000000001164,2,1,2,34858,task2,507325,false,false,624,image-keyboard-response,17
true,5,1,2,0,false,q,false,false,0.0-2.0-0.16-0.147-3.147,0,0,1,90,false,stim,true,1,687.0,2,0,0,34858,task2,509517,false,false,627,image-keyboard-response,18
true,5,0,2,1,false,z,true,false,0.0-2.0-0.16-0.148-3.148,0,0,1,81,false,stim,false,1,570.0000000000582,2,1,2,34858,task2,511593,false,false,630,image-keyboard-response,19
true,5,1,2,1,true,z,false,false,0.0-2.0-0.16-0.149-3.149,0,0,1,90,false,stim,false,1,2408.0,2,1,2,34858,task2,515507,false,true,633,image-keyboard-response,20
true,5,1,2,0,false,q,false,false,0.0-2.0-0.16-0.150-3.150,0,0,1,90,false,stim,true,1,1558.0,2,0,0,34858,task2,518571,false,false,636,image-keyboard-response,21
true,5,2,2,2,true,d,false,true,0.0-2.0-0.16-0.151-3.151,0,0,1,68,false,stim,false,0,314.0,2,0,1,34858,task2,520391,false,false,639,image-keyboard-response,22
true,5,2,2,2,true,d,false,true,0.0-2.0-0.16-0.152-3.152,0,0,1,68,false,stim,false,0,483.0,2,0,1,34858,task2,522378,false,false,642,image-keyboard-response,23
true,5,2,2,1,false,z,true,false,0.0-2.0-0.17-0.153-3.153,0,0,1,68,false,stim,false,1,412.0000000001164,2,1,2,34858,task2,524295,false,false,645,image-keyboard-response,24
true,5,0,2,2,false,d,false,false,0.0-2.0-0.17-0.154-3.154,0,0,1,81,false,stim,true,0,1586.0,2,0,1,34858,task2,527387,false,false,648,image-keyboard-response,25
true,5,2,2,0,false,q,true,false,0.0-2.0-0.17-0.155-3.155,0,0,1,68,false,stim,false,1,1404.0000000001164,2,0,0,34858,task2,530295,false,false,651,image-keyboard-response,26
true,5,2,2,1,false,z,true,false,0.0-2.0-0.17-0.156-3.156,0,0,1,68,false,stim,false,1,2429.0,2,1,2,34858,task2,534230,false,false,654,image-keyboard-response,27
false,5,-1,2,2,false,d,true,false,0.0-2.0-0.17-0.157-3.157,0,0,1,,false,stim,false,0,,2,0,1,34858,task2,538736,false,false,657,image-keyboard-response,28
false,5,-1,2,2,false,d,true,false,0.0-2.0-0.17-0.158-3.158,0,0,1,,false,stim,false,0,,2,1,1,34858,task2,543243,false,false,660,image-keyboard-response,29
true,5,2,2,1,false,z,true,false,0.0-2.0-0.17-0.159-3.159,0,0,1,68,false,stim,false,1,801.0,2,0,2,34858,task2,545550,false,false,663,image-keyboard-response,30
true,5,2,2,0,false,q,true,false,0.0-2.0-0.17-0.160-3.160,0,0,1,68,false,stim,false,1,2972.0,2,0,0,34858,task2,550028,false,false,666,image-keyboard-response,31
true,5,2,2,0,false,q,true,false,0.0-2.0-0.17-0.161-3.161,0,0,1,68,false,stim,false,1,2922.0,2,0,0,34858,task2,554457,false,false,669,image-keyboard-response,32
true,5,2,2,0,false,q,true,false,0.0-2.0-0.18-0.162-3.162,0,0,1,68,false,stim,false,1,410.0,2,0,0,34858,task2,556370,false,false,672,image-keyboard-response,33
true,6,1,2,2,false,d,true,false,0.0-2.0-0.18-0.163-3.163,0,1,0,90,true,stim,false,2,345.0,2,1,1,34858,task2,558220,false,false,675,image-keyboard-response,1
true,6,2,2,2,true,d,false,true,0.0-2.0-0.18-0.164-3.164,0,1,0,68,false,stim,false,1,324.0,2,0,2,34858,task2,560047,false,false,678,image-keyboard-response,2
true,6,2,2,1,false,z,true,false,0.0-2.0-0.18-0.165-3.165,0,1,0,68,false,stim,false,0,552.0,2,0,0,34858,task2,562106,false,false,681,image-keyboard-response,3
true,6,1,2,2,false,d,false,false,0.0-2.0-0.18-0.166-3.166,0,1,0,90,false,stim,true,1,447.0,2,0,2,34858,task2,564061,false,false,684,image-keyboard-response,4
true,6,2,2,1,false,z,true,false,0.0-2.0-0.18-0.167-3.167,0,1,0,68,false,stim,false,0,349.0,2,0,0,34858,task2,565917,false,false,687,image-keyboard-response,5
true,6,0,2,2,false,d,true,false,0.0-2.0-0.18-0.168-3.168,0,1,0,81,false,stim,false,2,395.9999999998836,2,1,1,34858,task2,567817,false,false,690,image-keyboard-response,6
true,6,2,2,2,true,d,false,true,0.0-2.0-0.18-0.169-3.169,0,1,0,68,false,stim,false,1,300.0000000001164,2,0,2,34858,task2,569623,false,false,693,image-keyboard-response,7
true,6,2,2,2,true,d,false,true,0.0-2.0-0.18-0.170-3.170,0,1,0,68,false,stim,false,2,480.0,2,1,1,34858,task2,571607,false,false,696,image-keyboard-response,8
true,6,2,2,2,true,d,false,true,0.0-2.0-0.19-0.171-3.171,0,1,0,68,false,stim,false,2,419.0,2,1,1,34858,task2,573531,false,false,699,image-keyboard-response,9
true,6,2,2,2,true,d,false,true,0.0-2.0-0.19-0.172-3.172,0,1,0,68,false,stim,false,1,418.0,2,0,2,34858,task2,575460,false,false,702,image-keyboard-response,10
true,6,0,2,1,false,z,false,false,0.0-2.0-0.19-0.173-3.173,0,1,0,81,false,stim,true,0,602.0,2,0,0,34858,task2,577567,false,false,705,image-keyboard-response,11
true,6,1,2,1,true,z,false,true,0.0-2.0-0.19-0.174-3.174,0,1,0,90,false,stim,false,0,725.0,2,0,0,34858,task2,579798,false,false,708,image-keyboard-response,12
true,6,2,2,2,true,d,false,true,0.0-2.0-0.19-0.175-3.175,0,1,0,68,false,stim,false,1,477.0,2,0,2,34858,task2,581781,false,false,711,image-keyboard-response,13
true,6,1,2,1,true,z,false,false,0.0-2.0-0.19-0.176-3.176,0,1,0,90,false,stim,false,0,851.0,2,0,0,34858,task2,584137,false,true,714,image-keyboard-response,14
true,6,2,2,2,true,d,false,true,0.0-2.0-0.19-0.177-3.177,0,1,0,68,false,stim,false,2,515.0,2,1,1,34858,task2,586156,false,false,717,image-keyboard-response,15
true,6,2,2,2,true,d,false,false,0.0-2.0-0.19-0.178-3.178,0,1,0,68,false,stim,false,1,358.0000000001164,2,0,2,34858,task2,588018,false,true,720,image-keyboard-response,16
true,6,2,2,2,true,d,false,true,0.0-2.0-0.19-0.179-3.179,0,1,0,68,false,stim,false,2,544.0,2,1,1,34858,task2,590071,false,false,723,image-keyboard-response,17
true,6,2,2,2,true,d,false,true,0.0-2.0-0.20-0.180-3.180,0,1,0,68,false,stim,false,1,489.0,2,0,2,34858,task2,592071,false,false,726,image-keyboard-response,18
true,6,2,2,2,true,d,false,true,0.0-2.0-0.20-0.181-3.181,0,1,0,68,false,stim,false,2,478.0,2,1,1,34858,task2,594059,false,false,729,image-keyboard-response,19
true,6,2,2,1,false,z,true,false,0.0-2.0-0.20-0.182-3.182,0,1,0,68,false,stim,false,0,539.0,2,0,0,34858,task2,596106,false,false,732,image-keyboard-response,20
true,6,2,2,2,true,d,false,true,0.0-2.0-0.20-0.183-3.183,0,1,0,68,false,stim,false,2,482.0,2,1,1,34858,task2,598095,false,false,735,image-keyboard-response,21
true,6,2,2,1,false,z,true,true,0.0-2.0-0.20-0.184-3.184,0,1,0,68,false,stim,false,0,395.0,2,0,0,34858,task2,599997,false,true,738,image-keyboard-response,22
true,6,2,2,2,true,d,false,true,0.0-2.0-0.20-0.185-3.185,0,1,0,68,false,stim,false,1,420.0,2,0,2,34858,task2,601923,false,false,741,image-keyboard-response,23
true,6,2,2,2,true,d,false,false,0.0-2.0-0.20-0.186-3.186,0,1,0,68,false,stim,false,2,650.0,2,1,1,34858,task2,604080,false,true,744,image-keyboard-response,24
true,6,2,2,1,false,z,true,true,0.0-2.0-0.20-0.187-3.187,0,1,0,68,false,stim,false,0,1502.0,2,0,0,34858,task2,607091,false,true,747,image-keyboard-response,25
true,6,2,2,2,true,d,false,true,0.0-2.0-0.20-0.188-3.188,0,1,0,68,false,stim,false,1,466.9999999998836,2,0,2,34858,task2,609065,false,false,750,image-keyboard-response,26
true,6,2,2,1,false,z,true,false,0.0-2.0-0.21-0.189-3.189,0,1,0,68,false,stim,false,0,361.0,2,0,0,34858,task2,610933,false,false,753,image-keyboard-response,27
true,6,0,2,2,false,d,true,false,0.0-2.0-0.21-0.190-3.190,0,1,0,81,false,stim,false,2,1163.0000000001164,2,0,1,34858,task2,613601,false,false,756,image-keyboard-response,28
false,6,-1,2,1,false,z,true,false,0.0-2.0-0.21-0.191-3.191,0,1,0,,false,stim,false,0,,2,0,0,34858,task2,618110,false,false,759,image-keyboard-response,29
true,6,2,2,2,true,d,false,true,0.0-2.0-0.21-0.192-3.192,0,1,0,68,false,stim,false,1,412.0,2,0,2,34858,task2,620030,false,false,762,image-keyboard-response,30
true,6,2,2,2,true,d,false,true,0.0-2.0-0.21-0.193-3.193,0,1,0,68,false,stim,false,1,819.0,2,0,2,34858,task2,622356,false,false,765,image-keyboard-response,31
true,6,2,2,2,true,d,false,true,0.0-2.0-0.21-0.194-3.194,0,1,0,68,false,stim,false,2,486.0,2,0,1,34858,task2,624348,false,false,768,image-keyboard-response,32
true,7,2,1,2,true,d,false,true,0.0-2.0-0.21-0.195-3.195,0,0,0,68,true,stim,false,1,469.9999999998836,2,0,0,34858,task2,626325,false,false,771,image-keyboard-response,1
true,7,2,1,1,false,z,false,false,0.0-2.0-0.21-0.196-3.196,0,0,0,68,false,stim,true,2,367.0,2,0,1,34858,task2,628197,false,false,774,image-keyboard-response,2
true,7,2,1,1,false,z,false,false,0.0-2.0-0.21-0.197-3.197,0,0,0,68,false,stim,true,2,338.9999999998836,2,0,2,34858,task2,630040,false,false,777,image-keyboard-response,3
true,7,2,1,1,false,z,false,false,0.0-2.0-0.22-0.198-3.198,0,0,0,68,false,stim,true,2,306.0,2,0,2,34858,task2,631853,false,false,780,image-keyboard-response,4
true,7,1,1,1,true,z,false,true,0.0-2.0-0.22-0.199-3.199,0,0,0,90,false,stim,false,2,151.00000000011642,2,0,2,34858,task2,633511,false,false,783,image-keyboard-response,5
true,7,1,1,2,false,d,false,false,0.0-2.0-0.22-0.200-3.200,0,0,0,90,false,stim,true,1,441.0,2,0,0,34858,task2,635456,false,false,786,image-keyboard-response,6
true,7,1,1,1,true,z,false,true,0.0-2.0-0.22-0.201-3.201,0,0,0,90,false,stim,false,2,561.0,2,0,1,34858,task2,637521,false,false,789,image-keyboard-response,7
true,7,0,1,2,false,d,true,false,0.0-2.0-0.22-0.202-3.202,0,0,0,81,false,stim,false,1,352.0,2,0,0,34858,task2,639378,false,false,792,image-keyboard-response,8
true,7,2,1,2,true,d,false,true,0.0-2.0-0.22-0.203-3.203,0,0,0,68,false,stim,false,1,360.0,2,0,0,34858,task2,641244,false,false,795,image-keyboard-response,9
true,7,1,1,1,true,z,false,true,0.0-2.0-0.22-0.204-3.204,0,0,0,90,false,stim,false,2,451.0,2,0,1,34858,task2,643199,false,false,798,image-keyboard-response,10
true,7,1,1,1,true,z,false,true,0.0-2.0-0.22-0.205-3.205,0,0,0,90,false,stim,false,2,473.0,2,0,2,34858,task2,645185,false,false,801,image-keyboard-response,11
true,7,1,1,1,true,z,false,true,0.0-2.0-0.22-0.206-3.206,0,0,0,90,false,stim,false,2,418.9999999998836,2,0,1,34858,task2,647109,false,false,804,image-keyboard-response,12
true,7,1,1,1,true,z,false,true,0.0-2.0-0.23-0.207-3.207,0,0,0,90,false,stim,false,2,436.0000000001164,2,0,2,34858,task2,649055,false,false,807,image-keyboard-response,13
true,7,1,1,2,false,d,false,false,0.0-2.0-0.23-0.208-3.208,0,0,0,90,false,stim,true,1,368.0000000001164,2,0,0,34858,task2,650930,false,false,810,image-keyboard-response,14
true,7,1,1,2,false,d,false,false,0.0-2.0-0.23-0.209-3.209,0,0,0,90,false,stim,true,1,454.0000000001164,2,0,0,34858,task2,652887,false,false,813,image-keyboard-response,15
true,7,2,1,1,false,z,false,false,0.0-2.0-0.23-0.210-3.210,0,0,0,68,false,stim,true,2,242.0,2,0,1,34858,task2,654635,false,false,816,image-keyboard-response,16
true,7,1,1,1,true,z,false,true,0.0-2.0-0.23-0.211-3.211,0,0,0,90,false,stim,false,2,210.0,2,0,2,34858,task2,656351,false,false,819,image-keyboard-response,17
true,7,1,1,1,true,z,false,true,0.0-2.0-0.23-0.212-3.212,0,0,0,90,false,stim,false,2,309.0,2,0,1,34858,task2,658166,false,false,822,image-keyboard-response,18
true,7,1,1,2,false,d,false,false,0.0-2.0-0.23-0.213-3.213,0,0,0,90,false,stim,true,1,326.0,2,0,0,34858,task2,660002,false,false,825,image-keyboard-response,19
true,7,1,1,1,true,z,false,true,0.0-2.0-0.23-0.214-3.214,0,0,0,90,false,stim,false,2,264.0,2,0,1,34858,task2,661771,false,false,828,image-keyboard-response,20
true,7,2,1,1,false,z,false,false,0.0-2.0-0.23-0.215-3.215,0,0,0,68,false,stim,true,2,319.0,2,0,2,34858,task2,663596,false,false,831,image-keyboard-response,21
true,7,1,1,1,true,z,false,true,0.0-2.0-0.24-0.216-3.216,0,0,0,90,false,stim,false,2,685.0,2,0,1,34858,task2,665788,false,false,834,image-keyboard-response,22
true,7,1,1,2,false,d,false,false,0.0-2.0-0.24-0.217-3.217,0,0,0,90,false,stim,true,1,561.0,2,0,0,34858,task2,667856,false,false,837,image-keyboard-response,23
true,7,2,1,1,false,z,false,false,0.0-2.0-0.24-0.218-3.218,0,0,0,68,false,stim,true,2,467.0,2,0,2,34858,task2,669830,false,false,840,image-keyboard-response,24
true,7,1,1,1,true,z,false,true,0.0-2.0-0.24-0.219-3.219,0,0,0,90,false,stim,false,2,340.0,2,0,1,34858,task2,671677,false,false,843,image-keyboard-response,25
true,7,1,1,1,true,z,false,true,0.0-2.0-0.24-0.220-3.220,0,0,0,90,false,stim,false,2,641.0,2,0,2,34858,task2,673822,false,false,846,image-keyboard-response,26
true,7,1,1,1,true,z,false,true,0.0-2.0-0.24-0.221-3.221,0,0,0,90,false,stim,false,2,371.0,2,0,2,34858,task2,675700,false,false,849,image-keyboard-response,27
true,7,2,1,2,true,d,false,true,0.0-2.0-0.24-0.222-3.222,0,0,0,68,false,stim,false,1,461.0,2,0,0,34858,task2,677665,false,false,852,image-keyboard-response,28
true,7,1,1,1,true,z,false,true,0.0-2.0-0.24-0.223-3.223,0,0,0,90,false,stim,false,2,466.0000000001164,2,0,1,34858,task2,679638,false,false,855,image-keyboard-response,29
true,7,2,1,2,true,d,false,false,0.0-2.0-0.24-0.224-3.224,0,0,0,68,false,stim,false,1,422.0,2,0,0,34858,task2,681567,false,true,858,image-keyboard-response,30
true,7,1,1,1,true,z,false,true,0.0-2.0-0.25-0.225-3.225,0,0,0,90,false,stim,false,2,483.0,2,0,2,34858,task2,683557,false,false,861,image-keyboard-response,31
true,7,2,1,2,true,d,false,true,0.0-2.0-0.25-0.226-3.226,0,0,0,68,false,stim,false,1,395.0,2,0,0,34858,task2,685459,false,false,864,image-keyboard-response,32
true,7,2,1,1,false,z,false,false,0.0-2.0-0.25-0.227-3.227,0,0,0,68,false,stim,true,2,496.0,2,0,1,34858,task2,687459,false,false,867,image-keyboard-response,33
true,7,1,1,2,false,d,false,false,0.0-2.0-0.25-0.228-3.228,0,0,0,90,false,stim,true,1,382.0,2,0,0,34858,task2,689345,false,false,870,image-keyboard-response,34
true,7,2,1,1,false,z,false,false,0.0-2.0-0.25-0.229-3.229,0,0,0,68,false,stim,true,2,289.0,2,0,2,34858,task2,691142,false,false,873,image-keyboard-response,35
true,8,1,1,0,false,q,false,false,0.0-2.0-0.25-0.230-3.230,0,0,0,90,true,stim,true,1,687.0,2,0,2,34858,task2,693337,false,false,876,image-keyboard-response,1
true,8,2,1,2,true,d,false,true,0.0-2.0-0.25-0.231-3.231,0,0,0,68,false,stim,false,1,471.0,2,0,1,34858,task2,695315,false,false,879,image-keyboard-response,2
true,8,2,1,1,false,z,false,false,0.0-2.0-0.25-0.232-3.232,0,0,0,68,false,stim,true,2,414.0000000001164,2,0,0,34858,task2,697236,false,false,882,image-keyboard-response,3
true,8,1,1,2,false,d,false,false,0.0-2.0-0.25-0.233-3.233,0,0,0,90,false,stim,true,1,306.9999999998836,2,0,1,34858,task2,699047,false,false,885,image-keyboard-response,4
true,8,2,1,1,false,z,false,false,0.0-2.0-0.26-0.234-3.234,0,0,0,68,false,stim,true,2,1016.9999999998836,2,0,0,34858,task2,701574,false,false,888,image-keyboard-response,5
true,8,2,1,2,true,d,false,true,0.0-2.0-0.26-0.235-3.235,0,0,0,68,false,stim,false,1,1010.0,2,0,1,34858,task2,704090,false,false,891,image-keyboard-response,6
true,8,2,1,2,true,d,false,true,0.0-2.0-0.26-0.236-3.236,0,0,0,68,false,stim,false,1,637.0,2,0,1,34858,task2,706232,false,false,894,image-keyboard-response,7
true,8,1,1,0,false,q,false,false,0.0-2.0-0.26-0.237-3.237,0,0,0,90,false,stim,true,1,1523.0000000001164,2,0,2,34858,task2,709260,false,false,897,image-keyboard-response,8
true,8,0,1,1,false,z,true,false,0.0-2.0-0.26-0.238-3.238,0,0,0,81,false,stim,false,2,907.9999999998836,2,0,0,34858,task2,711673,false,false,900,image-keyboard-response,9
true,8,2,1,2,true,d,false,true,0.0-2.0-0.26-0.239-3.239,0,0,0,68,false,stim,false,1,653.0,2,0,1,34858,task2,713833,false,false,903,image-keyboard-response,10
true,8,2,1,0,false,q,true,false,0.0-2.0-0.26-0.240-3.240,0,0,0,68,false,stim,false,1,508.0,2,0,2,34858,task2,715846,false,false,906,image-keyboard-response,11
true,8,1,1,0,false,q,false,false,0.0-2.0-0.26-0.241-3.241,0,0,0,90,false,stim,true,1,292.0,2,0,2,34858,task2,717647,false,false,909,image-keyboard-response,12
true,8,1,1,1,true,z,false,true,0.0-2.0-0.26-0.242-3.242,0,0,0,90,false,stim,false,2,454.0000000001164,2,0,0,34858,task2,719606,false,false,912,image-keyboard-response,13
true,8,1,1,2,false,d,false,false,0.0-2.0-0.27-0.243-3.243,0,0,0,90,false,stim,true,1,1062.0,2,0,1,34858,task2,722176,false,false,915,image-keyboard-response,14
true,8,2,1,2,true,d,false,true,0.0-2.0-0.27-0.244-3.244,0,0,0,68,false,stim,false,1,101.0,2,0,1,34858,task2,723786,false,false,918,image-keyboard-response,15
true,8,2,1,2,true,d,false,true,0.0-2.0-0.27-0.245-3.245,0,0,0,68,false,stim,false,1,18.0,2,0,1,34858,task2,725310,false,false,921,image-keyboard-response,16
true,8,1,1,1,true,z,false,true,0.0-2.0-0.27-0.246-3.246,0,0,0,90,false,stim,false,2,466.0,2,0,0,34858,task2,727282,false,false,924,image-keyboard-response,17
true,8,1,1,1,true,z,false,true,0.0-2.0-0.27-0.247-3.247,0,0,0,90,false,stim,false,2,361.0,2,0,0,34858,task2,729148,false,false,927,image-keyboard-response,18
true,8,1,1,0,false,q,false,false,0.0-2.0-0.27-0.248-3.248,0,0,0,90,false,stim,true,1,308.0,2,0,2,34858,task2,730961,false,false,930,image-keyboard-response,19
true,8,2,1,0,false,q,true,false,0.0-2.0-0.27-0.249-3.249,0,0,0,68,false,stim,false,1,157.0,2,0,2,34858,task2,732622,false,false,933,image-keyboard-response,20
true,8,0,1,0,true,q,false,true,0.0-2.0-0.27-0.250-3.250,0,0,0,81,false,stim,false,1,345.0,2,0,2,34858,task2,734474,false,false,936,image-keyboard-response,21
true,8,0,1,1,false,z,true,false,0.0-2.0-0.27-0.251-3.251,0,0,0,81,false,stim,false,2,463.0,2,0,0,34858,task2,736442,false,false,939,image-keyboard-response,22
true,8,2,1,1,false,z,false,false,0.0-2.0-0.28-0.252-3.252,0,0,0,68,false,stim,true,2,424.0,2,0,0,34858,task2,738371,false,false,942,image-keyboard-response,23
true,8,1,1,2,false,d,false,false,0.0-2.0-0.28-0.253-3.253,0,0,0,90,false,stim,true,1,914.0,2,0,1,34858,task2,740791,false,false,945,image-keyboard-response,24
true,8,0,1,1,false,z,true,true,0.0-2.0-0.28-0.254-3.254,0,0,0,81,false,stim,false,2,353.0,2,0,0,34858,task2,742651,false,true,948,image-keyboard-response,25
true,8,0,1,0,true,q,false,false,0.0-2.0-0.28-0.255-3.255,0,0,0,81,false,stim,false,1,362.0,2,0,2,34858,task2,744519,false,true,951,image-keyboard-response,26
true,8,1,1,2,false,d,false,true,0.0-2.0-0.28-0.256-3.256,0,0,0,90,false,stim,true,1,279.0,2,0,1,34858,task2,746303,false,true,954,image-keyboard-response,27
true,8,2,1,0,false,q,true,false,0.0-2.0-0.28-0.257-3.257,0,0,0,68,false,stim,false,1,189.0,2,0,2,34858,task2,747999,false,false,957,image-keyboard-response,28
true,8,0,1,1,false,z,true,false,0.0-2.0-0.28-0.258-3.258,0,0,0,81,false,stim,false,2,205.00000000011642,2,0,0,34858,task2,749708,false,false,960,image-keyboard-response,29
true,8,1,1,2,false,d,false,false,0.0-2.0-0.28-0.259-3.259,0,0,0,90,false,stim,true,1,66.0,2,0,1,34858,task2,751278,false,false,963,image-keyboard-response,30
true,8,2,1,0,false,q,true,false,0.0-2.0-0.28-0.260-3.260,0,0,0,68,false,stim,false,1,539.0,2,0,2,34858,task2,753323,false,false,966,image-keyboard-response,31
true,8,2,1,1,false,z,false,false,0.0-2.0-0.29-0.261-3.261,0,0,0,68,false,stim,true,2,247.0,2,1,0,34858,task2,755077,false,false,969,image-keyboard-response,32
true,8,1,1,0,false,q,false,false,0.0-2.0-0.29-0.262-3.262,0,0,0,90,false,stim,true,1,391.9999999998836,2,0,2,34858,task2,756975,false,false,972,image-keyboard-response,33
true,8,1,1,2,false,d,false,false,0.0-2.0-0.29-0.263-3.263,0,0,0,90,false,stim,true,1,431.9999999998836,2,0,1,34858,task2,758914,false,false,975,image-keyboard-response,34
true,8,1,1,2,false,d,false,false,0.0-2.0-0.29-0.264-3.264,0,0,0,90,false,stim,true,1,166.0,2,0,1,34858,task2,760584,false,false,978,image-keyboard-response,35
true,8,0,1,1,false,z,true,false,0.0-2.0-0.29-0.265-3.265,0,0,0,81,false,stim,false,2,87.0,2,1,0,34858,task2,762177,false,false,981,image-keyboard-response,36
true,9,0,2,1,false,z,true,false,0.0-2.0-0.29-0.266-3.266,1,0,0,81,true,stim,false,2,369.0,2,0,1,34858,task2,764051,false,false,984,image-keyboard-response,1
true,9,2,2,2,true,d,false,true,0.0-2.0-0.29-0.267-3.267,1,0,0,68,false,stim,false,0,300.0000000001164,2,0,2,34858,task2,765857,false,false,987,image-keyboard-response,2
true,9,2,2,1,false,z,true,false,0.0-2.0-0.29-0.268-3.268,1,0,0,68,false,stim,false,1,362.0,2,1,0,34858,task2,767725,false,false,990,image-keyboard-response,3
true,9,2,2,2,true,d,false,true,0.0-2.0-0.29-0.269-3.269,1,0,0,68,false,stim,false,0,320.0,2,0,2,34858,task2,769549,false,false,993,image-keyboard-response,4
true,9,0,2,2,false,d,false,false,0.0-2.0-0.30-0.270-3.270,1,0,0,81,false,stim,true,0,347.0000000001164,2,0,2,34858,task2,771406,false,false,996,image-keyboard-response,5
true,9,0,2,1,false,z,true,true,0.0-2.0-0.30-0.271-3.271,1,0,0,81,false,stim,false,1,215.99999999988358,2,1,0,34858,task2,773127,false,true,999,image-keyboard-response,6
true,9,0,2,1,false,z,true,true,0.0-2.0-0.30-0.272-3.272,1,0,0,81,false,stim,false,1,336.0,2,1,0,34858,task2,774976,false,true,1002,image-keyboard-response,7
true,9,1,2,2,false,d,true,false,0.0-2.0-0.30-0.273-3.273,1,0,0,90,false,stim,false,0,396.0,2,0,2,34858,task2,776884,false,false,1005,image-keyboard-response,8
true,9,0,2,1,false,z,true,false,0.0-2.0-0.30-0.274-3.274,1,0,0,81,false,stim,false,2,270.0000000001164,2,0,1,34858,task2,778661,false,false,1008,image-keyboard-response,9
true,9,2,2,1,false,z,false,false,0.0-2.0-0.30-0.275-3.275,1,0,0,68,false,stim,true,2,274.9999999998836,2,0,1,34858,task2,780440,false,false,1011,image-keyboard-response,10
true,9,0,2,1,false,z,true,true,0.0-2.0-0.30-0.276-3.276,1,0,0,81,false,stim,false,2,302.9999999998836,2,0,1,34858,task2,782248,false,true,1014,image-keyboard-response,11
true,9,0,2,1,false,z,true,false,0.0-2.0-0.30-0.277-3.277,1,0,0,81,false,stim,false,1,456.0000000001164,2,1,0,34858,task2,784209,false,false,1017,image-keyboard-response,12
true,9,0,2,2,false,d,false,false,0.0-2.0-0.30-0.278-3.278,1,0,0,81,false,stim,true,0,405.0000000001164,2,0,2,34858,task2,786118,false,false,1020,image-keyboard-response,13
true,9,0,2,1,false,z,true,false,0.0-2.0-0.31-0.279-3.279,1,0,0,81,false,stim,false,2,414.0,2,0,1,34858,task2,788040,false,false,1023,image-keyboard-response,14
true,9,0,2,2,false,d,false,false,0.0-2.0-0.31-0.280-3.280,1,0,0,81,false,stim,true,0,235.0,2,0,2,34858,task2,789780,false,false,1026,image-keyboard-response,15
true,9,1,2,1,true,z,false,true,0.0-2.0-0.31-0.281-3.281,1,0,0,90,false,stim,false,2,441.9999999998836,2,0,1,34858,task2,791728,false,false,1029,image-keyboard-response,16
true,9,1,2,1,true,z,false,true,0.0-2.0-0.31-0.282-3.282,1,0,0,90,false,stim,false,2,423.0,2,0,1,34858,task2,793655,false,false,1032,image-keyboard-response,17
true,9,1,2,1,true,z,false,true,0.0-2.0-0.31-0.283-3.283,1,0,0,90,false,stim,false,1,540.0,2,1,0,34858,task2,795703,false,false,1035,image-keyboard-response,18
true,9,1,2,1,true,z,false,true,0.0-2.0-0.31-0.284-3.284,1,0,0,90,false,stim,false,1,461.0,2,1,0,34858,task2,797668,false,false,1038,image-keyboard-response,19
true,9,1,2,1,true,z,false,true,0.0-2.0-0.31-0.285-3.285,1,0,0,90,false,stim,false,1,420.0,2,1,0,34858,task2,799592,false,false,1041,image-keyboard-response,20
true,9,2,2,2,true,d,false,false,0.0-2.0-0.31-0.286-3.286,1,0,0,68,false,stim,false,0,784.0000000001164,2,0,2,34858,task2,801882,false,true,1044,image-keyboard-response,21
true,9,1,2,2,false,d,true,false,0.0-2.0-0.31-0.287-3.287,1,0,0,90,false,stim,false,0,425.0,2,0,2,34858,task2,803813,false,false,1047,image-keyboard-response,22
true,9,0,2,2,false,d,false,false,0.0-2.0-0.32-0.288-3.288,1,0,0,81,false,stim,true,0,384.0,2,0,2,34858,task2,805705,false,false,1050,image-keyboard-response,23
true,9,1,2,2,false,d,true,false,0.0-2.0-0.32-0.289-3.289,1,0,0,90,false,stim,false,0,461.9999999998836,2,0,2,34858,task2,807671,false,false,1053,image-keyboard-response,24
true,9,1,2,1,true,z,false,true,0.0-2.0-0.32-0.290-3.290,1,0,0,90,false,stim,false,1,733.0,2,1,0,34858,task2,809907,false,false,1056,image-keyboard-response,25
true,9,1,2,1,true,z,false,true,0.0-2.0-0.32-0.291-3.291,1,0,0,90,false,stim,false,1,544.0,2,1,0,34858,task2,811958,false,false,1059,image-keyboard-response,26
true,9,2,2,1,false,z,false,false,0.0-2.0-0.32-0.292-3.292,1,0,0,68,false,stim,true,2,553.0,2,0,1,34858,task2,814019,false,false,1062,image-keyboard-response,27
true,9,2,2,2,true,d,false,true,0.0-2.0-0.32-0.293-3.293,1,0,0,68,false,stim,false,0,345.0000000001164,2,0,2,34858,task2,815868,false,false,1065,image-keyboard-response,28
true,9,2,2,1,false,z,true,false,0.0-2.0-0.32-0.294-3.294,1,0,0,68,false,stim,false,1,602.0,2,1,0,34858,task2,817976,false,false,1068,image-keyboard-response,29
true,9,0,2,1,false,z,true,false,0.0-2.0-0.32-0.295-3.295,1,0,0,81,false,stim,false,2,581.0,2,0,1,34858,task2,820062,false,false,1071,image-keyboard-response,30
true,9,1,2,1,true,z,false,true,0.0-2.0-0.32-0.296-3.296,1,0,0,90,false,stim,false,2,276.0000000001164,2,0,1,34858,task2,821845,false,false,1074,image-keyboard-response,31
true,9,1,2,1,true,z,false,true,0.0-2.0-0.33-0.297-3.297,1,0,0,90,false,stim,false,2,370.0,2,0,1,34858,task2,823723,false,false,1077,image-keyboard-response,32
true,9,1,2,1,true,z,false,true,0.0-2.0-0.33-0.298-3.298,1,0,0,90,false,stim,false,1,543.0,2,0,0,34858,task2,825771,false,false,1080,image-keyboard-response,33
true,9,1,2,2,false,d,true,false,0.0-2.0-0.33-0.299-3.299,1,0,0,90,false,stim,false,0,459.0,2,0,2,34858,task2,827735,false,false,1083,image-keyboard-response,34
true,9,1,2,2,false,d,true,false,0.0-2.0-0.33-0.300-3.300,1,0,0,90,false,stim,false,0,365.9999999998836,2,0,2,34858,task2,829611,false,false,1086,image-keyboard-response,35
true,10,2,1,2,true,d,false,true,0.0-2.0-0.33-0.301-3.301,0,0,0,68,true,stim,false,1,306.0,2,0,1,34858,task2,831423,false,false,1089,image-keyboard-response,1
true,10,2,1,2,true,d,false,true,0.0-2.0-0.33-0.302-3.302,0,0,0,68,false,stim,false,1,408.0000000001164,2,0,1,34858,task2,833336,false,false,1092,image-keyboard-response,2
true,10,2,1,0,false,q,true,true,0.0-2.0-0.33-0.303-3.303,0,0,0,68,false,stim,false,1,407.0,2,0,0,34858,task2,835250,false,true,1095,image-keyboard-response,3
true,10,2,1,0,false,q,false,false,0.0-2.0-0.33-0.304-3.304,0,0,0,68,false,stim,true,2,429.0,2,0,2,34858,task2,837182,false,false,1098,image-keyboard-response,4
true,10,1,1,0,false,q,false,false,0.0-2.0-0.33-0.305-3.305,0,0,0,90,false,stim,true,1,455.0,2,0,0,34858,task2,839145,false,false,1101,image-keyboard-response,5
true,10,2,1,0,false,q,false,false,0.0-2.0-0.34-0.306-3.306,0,0,0,68,false,stim,true,2,346.0,2,0,2,34858,task2,841004,false,false,1104,image-keyboard-response,6
true,10,1,1,2,false,d,false,false,0.0-2.0-0.34-0.307-3.307,0,0,0,90,false,stim,true,1,403.0000000001164,2,0,1,34858,task2,842913,false,false,1107,image-keyboard-response,7
true,10,2,1,2,true,d,false,true,0.0-2.0-0.34-0.308-3.308,0,0,0,68,false,stim,false,1,236.0,2,0,1,34858,task2,844655,false,false,1110,image-keyboard-response,8
true,10,1,1,0,false,q,false,false,0.0-2.0-0.34-0.309-3.309,0,0,0,90,false,stim,true,1,534.0,2,0,0,34858,task2,846695,false,false,1113,image-keyboard-response,9
true,10,1,1,0,false,q,false,false,0.0-2.0-0.34-0.310-3.310,0,0,0,90,false,stim,true,1,425.0,2,0,0,34858,task2,848625,false,false,1116,image-keyboard-response,10
true,10,0,1,0,true,q,false,true,0.0-2.0-0.34-0.311-3.311,0,0,0,81,false,stim,false,2,317.0,2,0,2,34858,task2,850449,false,false,1119,image-keyboard-response,11
true,10,1,1,2,false,d,false,false,0.0-2.0-0.34-0.312-3.312,0,0,0,90,false,stim,true,1,829.0,2,0,1,34858,task2,852782,false,false,1122,image-keyboard-response,12
true,10,2,1,0,false,q,true,true,0.0-2.0-0.34-0.313-3.313,0,0,0,68,false,stim,false,1,404.9999999998836,2,0,0,34858,task2,854693,false,true,1125,image-keyboard-response,13
true,10,0,1,0,true,q,false,true,0.0-2.0-0.34-0.314-3.314,0,0,0,81,false,stim,false,2,605.0,2,0,2,34858,task2,856808,false,false,1128,image-keyboard-response,14
true,10,1,1,2,false,d,false,false,0.0-2.0-0.35-0.315-3.315,0,0,0,90,false,stim,true,1,842.0000000001164,2,0,1,34858,task2,859158,false,false,1131,image-keyboard-response,15
true,10,2,1,2,true,d,false,true,0.0-2.0-0.35-0.316-3.316,0,0,0,68,false,stim,false,1,397.9999999998836,2,0,1,34858,task2,861061,false,false,1134,image-keyboard-response,16
true,10,0,1,0,true,q,false,true,0.0-2.0-0.35-0.317-3.317,0,0,0,81,false,stim,false,2,562.0,2,0,2,34858,task2,863130,false,false,1137,image-keyboard-response,17
true,10,2,1,0,false,q,true,false,0.0-2.0-0.35-0.318-3.318,0,0,0,68,false,stim,false,1,563.0,2,0,0,34858,task2,865199,false,false,1140,image-keyboard-response,18
true,10,2,1,0,false,q,false,false,0.0-2.0-0.35-0.319-3.319,0,0,0,68,false,stim,true,2,358.0,2,0,2,34858,task2,867061,false,false,1143,image-keyboard-response,19
true,10,2,1,0,false,q,false,false,0.0-2.0-0.35-0.320-3.320,0,0,0,68,false,stim,true,2,478.9999999998836,2,0,2,34858,task2,869047,false,false,1146,image-keyboard-response,20
true,10,2,1,0,false,q,true,false,0.0-2.0-0.35-0.321-3.321,0,0,0,68,false,stim,false,1,306.0,2,0,0,34858,task2,870862,false,false,1149,image-keyboard-response,21
true,10,2,1,2,true,d,false,true,0.0-2.0-0.35-0.322-3.322,0,0,0,68,false,stim,false,1,463.0000000001164,2,0,1,34858,task2,872832,false,false,1152,image-keyboard-response,22
true,10,0,1,0,true,q,false,true,0.0-2.0-0.35-0.323-3.323,0,0,0,81,false,stim,false,1,537.0,2,0,0,34858,task2,874875,false,false,1155,image-keyboard-response,23
true,10,2,1,2,true,d,false,true,0.0-2.0-0.36-0.324-3.324,0,0,0,68,false,stim,false,1,462.0,2,0,1,34858,task2,876846,false,false,1158,image-keyboard-response,24
true,10,2,1,2,true,d,false,false,0.0-2.0-0.36-0.325-3.325,0,0,0,68,false,stim,false,1,501.0,2,0,1,34858,task2,878853,false,true,1161,image-keyboard-response,25
true,10,1,1,0,false,q,true,false,0.0-2.0-0.36-0.326-3.326,0,0,0,90,false,stim,false,2,538.0,2,0,2,34858,task2,880898,false,false,1164,image-keyboard-response,26
true,10,2,1,0,false,q,false,false,0.0-2.0-0.36-0.327-3.327,0,0,0,68,false,stim,true,2,441.0,2,0,2,34858,task2,882846,false,false,1167,image-keyboard-response,27
true,10,0,1,0,true,q,false,true,0.0-2.0-0.36-0.328-3.328,0,0,0,81,false,stim,false,2,264.0000000001164,2,0,2,34858,task2,884616,false,false,1170,image-keyboard-response,28
true,10,1,1,0,false,q,false,true,0.0-2.0-0.36-0.329-3.329,0,0,0,90,false,stim,true,1,559.0000000001164,2,0,0,34858,task2,886683,false,true,1173,image-keyboard-response,29
true,10,1,1,0,false,q,false,false,0.0-2.0-0.36-0.330-3.330,0,0,0,90,false,stim,true,1,482.9999999998836,2,0,0,34858,task2,888671,false,false,1176,image-keyboard-response,30
true,10,1,1,0,false,q,false,false,0.0-2.0-0.36-0.331-3.331,0,0,0,90,false,stim,true,1,401.0,2,0,0,34858,task2,890577,false,false,1179,image-keyboard-response,31
true,10,1,1,2,false,d,false,true,0.0-2.0-0.36-0.332-3.332,0,0,0,90,false,stim,true,1,223.0,2,0,1,34858,task2,892307,false,true,1182,image-keyboard-response,32
true,10,1,1,2,false,d,false,false,0.0-2.0-0.37-0.333-3.333,0,0,0,90,false,stim,true,1,387.0,2,0,1,34858,task2,894203,false,false,1185,image-keyboard-response,33
true,10,1,1,2,false,d,false,false,0.0-2.0-0.37-0.334-3.334,0,0,0,90,false,stim,true,1,299.9999999998836,2,0,1,34858,task2,896007,false,false,1188,image-keyboard-response,34
true,10,1,1,0,false,q,true,false,0.0-2.0-0.37-0.335-3.335,0,0,0,90,false,stim,false,2,375.0,2,0,2,34858,task2,897887,false,false,1191,image-keyboard-response,35
true,11,0,1,2,false,d,false,false,0.0-2.0-0.37-0.336-3.336,0,0,0,81,true,stim,true,0,365.9999999998836,2,0,0,34858,task2,899761,false,false,1194,image-keyboard-response,1
true,11,1,1,2,false,d,true,false,0.0-2.0-0.37-0.337-3.337,0,0,0,90,false,stim,false,0,426.9999999998836,2,0,0,34858,task2,901692,false,false,1197,image-keyboard-response,2
true,11,0,1,2,false,d,false,false,0.0-2.0-0.37-0.338-3.338,0,0,0,81,false,stim,true,0,429.0,2,0,0,34858,task2,903626,false,false,1200,image-keyboard-response,3
true,11,0,1,1,false,z,false,false,0.0-2.0-0.37-0.339-3.339,0,0,0,81,false,stim,true,0,212.0,2,0,2,34858,task2,905352,false,false,1203,image-keyboard-response,4
true,11,2,1,1,false,z,true,false,0.0-2.0-0.37-0.340-3.340,0,0,0,68,false,stim,false,0,168.0,2,0,2,34858,task2,907026,false,false,1206,image-keyboard-response,5
true,11,0,1,0,true,q,false,false,0.0-2.0-0.37-0.341-3.341,0,0,0,81,false,stim,false,2,88.0,2,0,1,34858,task2,908619,false,true,1209,image-keyboard-response,6
true,11,0,1,0,true,q,false,true,0.0-2.0-0.38-0.342-3.342,0,0,0,81,false,stim,false,2,804.0,2,0,1,34858,task2,910932,false,false,1212,image-keyboard-response,7
true,11,1,1,1,true,z,false,true,0.0-2.0-0.38-0.343-3.343,0,0,0,90,false,stim,false,0,1030.0,2,0,2,34858,task2,913466,false,false,1215,image-keyboard-response,8
true,11,2,1,1,false,z,true,false,0.0-2.0-0.38-0.344-3.344,0,0,0,68,false,stim,false,0,402.0000000001164,2,0,2,34858,task2,915371,false,false,1218,image-keyboard-response,9
true,11,1,1,2,false,d,true,false,0.0-2.0-0.38-0.345-3.345,0,0,0,90,false,stim,false,0,357.0,2,0,0,34858,task2,917234,false,false,1221,image-keyboard-response,10
true,11,2,1,0,false,q,false,false,0.0-2.0-0.38-0.346-3.346,0,0,0,68,false,stim,true,2,196.00000000011642,2,0,1,34858,task2,918934,false,false,1224,image-keyboard-response,11
true,11,0,1,2,false,d,false,true,0.0-2.0-0.38-0.347-3.347,0,0,0,81,false,stim,true,0,1054.0000000001164,2,0,0,34858,task2,921497,false,true,1227,image-keyboard-response,12
true,11,0,1,0,true,q,false,false,0.0-2.0-0.38-0.348-3.348,0,0,0,81,false,stim,false,2,2188.0,2,0,1,34858,task2,925190,false,true,1230,image-keyboard-response,13
true,11,2,1,1,false,z,true,false,0.0-2.0-0.38-0.349-3.349,0,0,0,68,false,stim,false,0,547.0,2,0,2,34858,task2,927240,false,false,1233,image-keyboard-response,14
true,11,2,1,2,true,d,false,true,0.0-2.0-0.38-0.350-3.350,0,0,0,68,false,stim,false,0,53.0,2,0,0,34858,task2,928797,false,false,1236,image-keyboard-response,15
true,11,2,1,2,true,d,false,true,0.0-2.0-0.39-0.351-3.351,0,0,0,68,false,stim,false,0,110.00000000011642,2,0,0,34858,task2,930416,false,false,1239,image-keyboard-response,16
true,11,2,1,1,false,z,true,false,0.0-2.0-0.39-0.352-3.352,0,0,0,68,false,stim,false,0,405.0000000001164,2,0,2,34858,task2,932333,false,false,1242,image-keyboard-response,17
true,11,2,1,1,false,z,true,false,0.0-2.0-0.39-0.353-3.353,0,0,0,68,false,stim,false,0,827.9999999998836,2,0,2,34858,task2,934667,false,false,1245,image-keyboard-response,18
true,11,1,1,2,false,d,true,false,0.0-2.0-0.39-0.354-3.354,0,0,0,90,false,stim,false,0,1549.0,2,0,0,34858,task2,937722,false,false,1248,image-keyboard-response,19
false,11,-1,1,0,false,q,true,false,0.0-2.0-0.39-0.355-3.355,0,0,0,,false,stim,false,2,,2,0,1,34858,task2,942226,false,false,1251,image-keyboard-response,20
false,11,-1,1,2,false,d,true,false,0.0-2.0-0.39-0.356-3.356,0,0,0,,false,stim,false,0,,2,0,0,34858,task2,946732,false,false,1254,image-keyboard-response,21
true,11,2,1,0,false,q,false,false,0.0-2.0-0.39-0.357-3.357,0,0,0,68,false,stim,true,2,505.0,2,0,1,34858,task2,948742,false,false,1257,image-keyboard-response,22
true,11,2,1,0,false,q,false,false,0.0-2.0-0.39-0.358-3.358,0,0,0,68,false,stim,true,2,783.0,2,0,1,34858,task2,951027,false,false,1260,image-keyboard-response,23
false,11,-1,1,1,false,z,true,false,0.0-2.0-0.39-0.359-3.359,0,0,0,,false,stim,false,0,,2,0,2,34858,task2,955535,false,false,1263,image-keyboard-response,24
true,11,2,1,0,false,q,false,false,0.0-2.0-0.40-0.360-3.360,0,0,0,68,false,stim,true,2,2378.9999999998836,2,0,1,34858,task2,959420,false,false,1266,image-keyboard-response,25
true,11,2,1,1,false,z,true,false,0.0-2.0-0.40-0.361-3.361,0,0,0,68,false,stim,false,0,262.0,2,0,2,34858,task2,961192,false,false,1269,image-keyboard-response,26
true,11,2,1,1,false,z,true,false,0.0-2.0-0.40-0.362-3.362,0,0,0,68,false,stim,false,0,759.0,2,0,2,34858,task2,963456,false,false,1272,image-keyboard-response,27
true,11,2,1,2,true,d,false,true,0.0-2.0-0.40-0.363-3.363,0,0,0,68,false,stim,false,0,195.0,2,0,0,34858,task2,965156,false,false,1275,image-keyboard-response,28
true,11,0,1,0,true,q,false,true,0.0-2.0-0.40-0.364-3.364,0,0,0,81,false,stim,false,2,1107.0000000001164,2,0,1,34858,task2,967773,false,false,1278,image-keyboard-response,29
true,11,2,1,2,true,d,false,true,0.0-2.0-0.40-0.365-3.365,0,0,0,68,false,stim,false,0,2896.0,2,0,0,34858,task2,972172,false,false,1281,image-keyboard-response,30
true,11,2,1,2,true,d,false,true,0.0-2.0-0.40-0.366-3.366,0,0,0,68,false,stim,false,0,1691.0,2,0,0,34858,task2,975368,false,false,1284,image-keyboard-response,31
true,11,2,1,0,false,q,false,false,0.0-2.0-0.40-0.367-3.367,0,0,0,68,false,stim,true,2,290.0,2,0,1,34858,task2,977164,false,false,1287,image-keyboard-response,32
true,11,2,1,1,false,z,true,false,0.0-2.0-0.40-0.368-3.368,0,0,0,68,false,stim,false,0,346.0,2,0,2,34858,task2,979017,false,false,1290,image-keyboard-response,33
true,11,2,1,1,false,z,true,false,0.0-2.0-0.41-0.369-3.369,0,0,0,68,false,stim,false,0,1082.0,2,0,2,34858,task2,981606,false,false,1293,image-keyboard-response,34
true,11,2,1,2,true,d,false,true,0.0-2.0-0.41-0.370-3.370,0,0,0,68,false,stim,false,0,434.0000000001164,2,0,0,34858,task2,983547,false,false,1296,image-keyboard-response,35
true,11,2,1,0,false,q,false,false,0.0-2.0-0.41-0.371-3.371,0,0,0,68,false,stim,true,2,292.0,2,0,1,34858,task2,985346,false,false,1299,image-keyboard-response,36
true,11,2,1,0,false,q,false,false,0.0-2.0-0.41-0.372-3.372,0,0,0,68,false,stim,true,2,758.0,2,0,1,34858,task2,987618,false,false,1302,image-keyboard-response,37
true,11,2,1,0,false,q,false,false,0.0-2.0-0.41-0.373-3.373,0,0,0,68,false,stim,true,2,826.0000000001164,2,0,1,34858,task2,989951,false,false,1305,image-keyboard-response,38
true,12,2,1,2,true,d,false,true,0.0-2.0-0.41-0.374-3.374,0,0,0,68,true,stim,false,1,963.0,2,0,2,34858,task2,992419,false,false,1308,image-keyboard-response,1
true,12,2,1,2,true,d,false,true,0.0-2.0-0.41-0.375-3.375,0,0,0,68,false,stim,false,1,466.0,2,0,2,34858,task2,994392,false,false,1311,image-keyboard-response,2
true,12,2,1,0,false,q,false,false,0.0-2.0-0.41-0.376-3.376,0,0,0,68,false,stim,true,2,107.00000000011642,2,0,0,34858,task2,996008,false,false,1314,image-keyboard-response,3
true,12,2,1,0,false,q,false,false,0.0-2.0-0.41-0.377-3.377,0,0,0,68,false,stim,true,2,1999.0,2,0,0,34858,task2,999511,false,false,1317,image-keyboard-response,4
true,12,1,1,2,false,d,true,false,0.0-2.0-0.42-0.378-3.378,0,0,0,90,false,stim,false,0,911.0,2,0,1,34858,task2,1001929,false,false,1320,image-keyboard-response,5
true,12,2,1,2,true,d,false,true,0.0-2.0-0.42-0.379-3.379,0,0,0,68,false,stim,false,0,1301.0,2,0,1,34858,task2,1004733,false,false,1323,image-keyboard-response,6
true,12,2,1,0,false,q,false,false,0.0-2.0-0.42-0.380-3.380,0,0,0,68,false,stim,true,2,335.0,2,0,0,34858,task2,1006573,false,false,1326,image-keyboard-response,7
true,12,2,1,2,true,d,false,true,0.0-2.0-0.42-0.381-3.381,0,0,0,68,false,stim,false,1,562.0000000001164,2,0,2,34858,task2,1008643,false,false,1329,image-keyboard-response,8
true,12,2,1,2,true,d,false,true,0.0-2.0-0.42-0.382-3.382,0,0,0,68,false,stim,false,1,266.0,2,0,2,34858,task2,1010416,false,false,1332,image-keyboard-response,9
true,12,2,1,0,false,q,false,false,0.0-2.0-0.42-0.383-3.383,0,0,0,68,false,stim,true,2,257.0,2,0,0,34858,task2,1012178,false,false,1335,image-keyboard-response,10
true,12,2,1,2,true,d,false,true,0.0-2.0-0.42-0.384-3.384,0,0,0,68,false,stim,false,1,160.0,2,0,2,34858,task2,1013842,false,false,1338,image-keyboard-response,11
true,12,2,1,2,true,d,false,true,0.0-2.0-0.42-0.385-3.385,0,0,0,68,false,stim,false,0,749.0,2,0,1,34858,task2,1016099,false,false,1341,image-keyboard-response,12
true,12,0,1,0,true,q,false,true,0.0-2.0-0.42-0.386-3.386,0,0,0,81,false,stim,false,2,566.0000000001164,2,0,0,34858,task2,1018173,false,false,1344,image-keyboard-response,13
true,12,0,1,0,true,q,false,true,0.0-2.0-0.43-0.387-3.387,0,0,0,81,false,stim,false,2,454.0,2,0,0,34858,task2,1020134,false,false,1347,image-keyboard-response,14
true,12,0,1,0,true,q,false,true,0.0-2.0-0.43-0.388-3.388,0,0,0,81,false,stim,false,2,331.0000000001164,2,0,0,34858,task2,1021973,false,false,1350,image-keyboard-response,15
true,12,2,1,2,true,d,false,true,0.0-2.0-0.43-0.389-3.389,0,0,0,68,false,stim,false,1,403.0,2,0,2,34858,task2,1023881,false,false,1353,image-keyboard-response,16
true,12,0,1,0,true,q,false,true,0.0-2.0-0.43-0.390-3.390,0,0,0,81,false,stim,false,2,371.99999999976717,2,0,0,34858,task2,1025761,false,false,1356,image-keyboard-response,17
true,12,2,1,2,true,d,false,true,0.0-2.0-0.43-0.391-3.391,0,0,0,68,false,stim,false,1,476.99999999976717,2,0,2,34858,task2,1027741,false,false,1359,image-keyboard-response,18
true,12,2,1,2,true,d,false,true,0.0-2.0-0.43-0.392-3.392,0,0,0,68,false,stim,false,1,394.9999999998836,2,0,2,34858,task2,1029641,false,false,1362,image-keyboard-response,19
true,12,2,1,2,true,d,false,true,0.0-2.0-0.43-0.393-3.393,0,0,0,68,false,stim,false,0,289.0,2,0,1,34858,task2,1031437,false,false,1365,image-keyboard-response,20
true,12,2,1,2,true,d,false,true,0.0-2.0-0.43-0.394-3.394,0,0,0,68,false,stim,false,0,403.0,2,0,1,34858,task2,1033350,false,false,1368,image-keyboard-response,21
true,12,2,1,2,true,d,false,true,0.0-2.0-0.43-0.395-3.395,0,0,0,68,false,stim,false,0,324.0000000001164,2,0,1,34858,task2,1035181,false,false,1371,image-keyboard-response,22
true,12,2,1,0,false,q,false,false,0.0-2.0-0.44-0.396-3.396,0,0,0,68,false,stim,true,2,321.0,2,0,0,34858,task2,1037008,false,false,1374,image-keyboard-response,23
true,12,2,1,0,false,q,false,true,0.0-2.0-0.44-0.397-3.397,0,0,0,68,false,stim,true,2,153.0,2,0,0,34858,task2,1038666,false,true,1377,image-keyboard-response,24
true,12,2,1,2,true,d,false,true,0.0-2.0-0.44-0.398-3.398,0,0,0,68,false,stim,false,1,323.0,2,0,2,34858,task2,1040493,false,false,1380,image-keyboard-response,25
true,12,2,1,0,false,q,false,false,0.0-2.0-0.44-0.399-3.399,0,0,0,68,false,stim,true,2,280.0,2,0,0,34858,task2,1042278,false,false,1383,image-keyboard-response,26
true,12,2,1,2,true,d,false,true,0.0-2.0-0.44-0.400-3.400,0,0,0,68,false,stim,false,0,506.0,2,0,1,34858,task2,1044290,false,false,1386,image-keyboard-response,27
true,12,2,1,2,true,d,false,true,0.0-2.0-0.44-0.401-3.401,0,0,0,68,false,stim,false,1,388.0,2,0,2,34858,task2,1046185,false,false,1389,image-keyboard-response,28
true,12,2,1,2,true,d,false,true,0.0-2.0-0.44-0.402-3.402,0,0,0,68,false,stim,false,1,241.0,2,0,2,34858,task2,1047938,false,false,1392,image-keyboard-response,29
true,12,2,1,2,true,d,false,true,0.0-2.0-0.44-0.403-3.403,0,0,0,68,false,stim,false,0,274.0,2,0,1,34858,task2,1049715,false,false,1395,image-keyboard-response,30
true,12,2,1,2,true,d,false,true,0.0-2.0-0.44-0.404-3.404,0,0,0,68,false,stim,false,0,13.0,2,0,1,34858,task2,1051230,false,false,1398,image-keyboard-response,31
true,12,0,1,0,true,q,false,true,0.0-2.0-0.45-0.405-3.405,0,0,0,81,false,stim,false,2,114.0,2,1,0,34858,task2,1052854,false,false,1401,image-keyboard-response,32
true,12,2,1,2,true,d,false,true,0.0-2.0-0.45-0.406-3.406,0,0,0,68,false,stim,false,0,478.0,2,0,1,34858,task2,1054839,false,false,1404,image-keyboard-response,33
true,12,0,1,2,false,d,true,false,0.0-2.0-0.45-0.407-3.407,0,0,0,81,false,stim,false,1,343.0,2,0,2,34858,task2,1056690,false,false,1407,image-keyboard-response,34
true,13,2,2,1,false,z,false,false,0.0-2.0-0.45-0.408-3.408,1,0,0,68,true,stim,true,2,386.00000000023283,2,0,1,34858,task2,1058580,false,false,1410,image-keyboard-response,1
true,13,2,2,1,false,z,false,false,0.0-2.0-0.45-0.409-3.409,1,0,0,68,false,stim,true,2,296.0,2,0,1,34858,task2,1060383,false,false,1413,image-keyboard-response,2
true,13,2,2,0,false,q,true,false,0.0-2.0-0.45-0.410-3.410,1,0,0,68,false,stim,false,0,203.0,2,1,0,34858,task2,1062092,false,false,1416,image-keyboard-response,3
true,13,2,2,0,false,q,false,false,0.0-2.0-0.45-0.411-3.411,1,0,0,68,false,stim,true,2,548.9999999997672,2,0,2,34858,task2,1064148,false,false,1419,image-keyboard-response,4
true,13,0,2,0,true,q,false,true,0.0-2.0-0.45-0.412-3.412,1,0,0,81,false,stim,false,0,798.0,2,1,0,34858,task2,1066453,false,false,1422,image-keyboard-response,5
true,13,0,2,0,true,q,false,true,0.0-2.0-0.45-0.413-3.413,1,0,0,81,false,stim,false,2,373.00000000023283,2,0,2,34858,task2,1068331,false,false,1425,image-keyboard-response,6
true,13,0,2,1,false,z,true,false,0.0-2.0-0.46-0.414-3.414,1,0,0,81,false,stim,false,2,398.0,2,0,1,34858,task2,1070237,false,false,1428,image-keyboard-response,7
true,13,2,2,0,false,q,false,false,0.0-2.0-0.46-0.415-3.415,1,0,0,68,false,stim,true,2,352.0,2,0,2,34858,task2,1072097,false,false,1431,image-keyboard-response,8
true,13,0,2,0,true,q,false,true,0.0-2.0-0.46-0.416-3.416,1,0,0,81,false,stim,false,2,410.0,2,0,2,34858,task2,1074014,false,false,1434,image-keyboard-response,9
true,13,2,2,1,false,z,false,false,0.0-2.0-0.46-0.417-3.417,1,0,0,68,false,stim,true,2,724.0,2,0,1,34858,task2,1076243,false,false,1437,image-keyboard-response,10
true,13,0,2,0,true,q,false,true,0.0-2.0-0.46-0.418-3.418,1,0,0,81,false,stim,false,0,317.0,2,1,0,34858,task2,1078064,false,false,1440,image-keyboard-response,11
true,13,0,2,0,true,q,false,true,0.0-2.0-0.46-0.419-3.419,1,0,0,81,false,stim,false,0,358.99999999976717,2,1,0,34858,task2,1079929,false,false,1443,image-keyboard-response,12
true,13,0,2,0,true,q,false,true,0.0-2.0-0.46-0.420-3.420,1,0,0,81,false,stim,false,2,366.0,2,0,2,34858,task2,1081800,false,false,1446,image-keyboard-response,13
true,13,2,2,1,false,z,false,true,0.0-2.0-0.46-0.421-3.421,1,0,0,68,false,stim,true,2,583.0,2,0,1,34858,task2,1083892,false,true,1449,image-keyboard-response,14
true,13,0,2,0,true,q,false,true,0.0-2.0-0.46-0.422-3.422,1,0,0,81,false,stim,false,0,614.0000000002328,2,1,0,34858,task2,1086014,false,false,1452,image-keyboard-response,15
true,13,0,2,0,true,q,false,true,0.0-2.0-0.47-0.423-3.423,1,0,0,81,false,stim,false,0,420.0,2,1,0,34858,task2,1087939,false,false,1455,image-keyboard-response,16
true,13,2,2,0,false,q,false,true,0.0-2.0-0.47-0.424-3.424,1,0,0,68,false,stim,true,2,498.0,2,0,2,34858,task2,1089945,false,true,1458,image-keyboard-response,17
true,13,2,2,0,false,q,true,false,0.0-2.0-0.47-0.425-3.425,1,0,0,68,false,stim,false,0,391.0,2,1,0,34858,task2,1091840,false,false,1461,image-keyboard-response,18
true,13,0,2,1,false,z,true,false,0.0-2.0-0.47-0.426-3.426,1,0,0,81,false,stim,false,2,649.0,2,0,1,34858,task2,1093997,false,false,1464,image-keyboard-response,19
true,13,2,2,0,false,q,true,false,0.0-2.0-0.47-0.427-3.427,1,0,0,68,false,stim,false,0,392.0,2,1,0,34858,task2,1095893,false,false,1467,image-keyboard-response,20
true,13,2,2,0,false,q,false,false,0.0-2.0-0.47-0.428-3.428,1,0,0,68,false,stim,true,2,494.0,2,0,2,34858,task2,1097894,false,false,1470,image-keyboard-response,21
true,13,0,2,0,true,q,false,true,0.0-2.0-0.47-0.429-3.429,1,0,0,81,false,stim,false,2,400.0,2,0,2,34858,task2,1099800,false,false,1473,image-keyboard-response,22
true,13,0,2,1,false,z,true,false,0.0-2.0-0.47-0.430-3.430,1,0,0,81,false,stim,false,2,821.0000000002328,2,0,1,34858,task2,1102129,false,false,1476,image-keyboard-response,23
true,13,2,2,1,false,z,false,false,0.0-2.0-0.47-0.431-3.431,1,0,0,68,false,stim,true,2,317.0,2,0,1,34858,task2,1103953,false,false,1479,image-keyboard-response,24
true,13,0,2,1,false,z,true,false,0.0-2.0-0.48-0.432-3.432,1,0,0,81,false,stim,false,2,494.0,2,0,1,34858,task2,1105952,false,false,1482,image-keyboard-response,25
true,13,2,2,0,false,q,true,true,0.0-2.0-0.48-0.433-3.433,1,0,0,68,false,stim,false,0,150.0,2,1,0,34858,task2,1107607,false,true,1485,image-keyboard-response,26
true,13,2,2,0,false,q,false,false,0.0-2.0-0.48-0.434-3.434,1,0,0,68,false,stim,true,2,382.0,2,0,2,34858,task2,1109496,false,false,1488,image-keyboard-response,27
true,13,2,2,1,false,z,false,false,0.0-2.0-0.48-0.435-3.435,1,0,0,68,false,stim,true,2,562.0000000002328,2,0,1,34858,task2,1111563,false,false,1491,image-keyboard-response,28
true,13,2,2,0,false,q,true,false,0.0-2.0-0.48-0.436-3.436,1,0,0,68,false,stim,false,0,423.0,2,0,0,34858,task2,1113492,false,false,1494,image-keyboard-response,29
true,13,0,2,0,true,q,false,true,0.0-2.0-0.48-0.437-3.437,1,0,0,81,false,stim,false,2,407.0,2,1,2,34858,task2,1115404,false,false,1497,image-keyboard-response,30
true,13,0,2,1,false,z,true,false,0.0-2.0-0.48-0.438-3.438,1,0,0,81,false,stim,false,2,509.0,2,0,1,34858,task2,1117422,false,false,1500,image-keyboard-response,31
true,13,0,2,0,true,q,false,true,0.0-2.0-0.48-0.439-3.439,1,0,0,81,false,stim,false,0,366.0,2,0,0,34858,task2,1119300,false,false,1503,image-keyboard-response,32
true,14,0,2,0,true,q,false,true,0.0-2.0-0.48-0.440-3.440,0,0,1,81,true,stim,false,0,573.0,2,1,2,34858,task2,1121381,false,false,1506,image-keyboard-response,1
true,14,0,2,0,true,q,false,true,0.0-2.0-0.49-0.441-3.441,0,0,1,81,false,stim,false,0,339.99999999976717,2,1,2,34858,task2,1123230,false,false,1509,image-keyboard-response,2
true,14,0,2,0,true,q,false,true,0.0-2.0-0.49-0.442-3.442,0,0,1,81,false,stim,false,0,425.00000000023283,2,1,2,34858,task2,1125159,false,false,1512,image-keyboard-response,3
true,14,0,2,1,false,z,false,false,0.0-2.0-0.49-0.443-3.443,0,0,1,81,false,stim,true,0,463.0,2,0,0,34858,task2,1127134,false,false,1515,image-keyboard-response,4
true,14,2,2,0,false,q,true,false,0.0-2.0-0.49-0.444-3.444,0,0,1,68,false,stim,false,1,492.0,2,0,1,34858,task2,1129133,false,false,1518,image-keyboard-response,5
true,14,0,2,0,true,q,false,true,0.0-2.0-0.49-0.445-3.445,0,0,1,81,false,stim,false,1,236.99999999976717,2,0,1,34858,task2,1130877,false,false,1521,image-keyboard-response,6
true,14,0,2,1,false,z,false,false,0.0-2.0-0.49-0.446-3.446,0,0,1,81,false,stim,true,0,239.0,2,0,0,34858,task2,1132622,false,false,1524,image-keyboard-response,7
true,14,0,2,0,true,q,false,true,0.0-2.0-0.49-0.447-3.447,0,0,1,81,false,stim,false,0,264.0,2,1,2,34858,task2,1134393,false,false,1527,image-keyboard-response,8
true,14,0,2,0,true,q,false,true,0.0-2.0-0.49-0.448-3.448,0,0,1,81,false,stim,false,1,466.0,2,0,1,34858,task2,1136366,false,false,1530,image-keyboard-response,9
true,14,0,2,1,false,z,false,false,0.0-2.0-0.49-0.449-3.449,0,0,1,81,false,stim,true,0,397.0,2,0,0,34858,task2,1138271,false,false,1533,image-keyboard-response,10
true,14,2,2,0,false,q,true,false,0.0-2.0-0.50-0.450-3.450,0,0,1,68,false,stim,false,1,250.0,2,0,1,34858,task2,1140027,false,false,1536,image-keyboard-response,11
true,14,0,2,0,true,q,false,true,0.0-2.0-0.50-0.451-3.451,0,0,1,81,false,stim,false,1,254.0,2,0,1,34858,task2,1141786,false,false,1539,image-keyboard-response,12
true,14,0,2,0,true,q,false,true,0.0-2.0-0.50-0.452-3.452,0,0,1,81,false,stim,false,0,1383.0,2,1,2,34858,task2,1144675,false,false,1542,image-keyboard-response,13
true,14,0,2,0,true,q,false,true,0.0-2.0-0.50-0.453-3.453,0,0,1,81,false,stim,false,1,735.0,2,0,1,34858,task2,1146916,false,false,1545,image-keyboard-response,14
true,14,1,2,0,false,q,true,false,0.0-2.0-0.50-0.454-3.454,0,0,1,90,false,stim,false,0,712.0,2,1,2,34858,task2,1149133,false,false,1548,image-keyboard-response,15
true,14,0,2,1,false,z,false,false,0.0-2.0-0.50-0.455-3.455,0,0,1,81,false,stim,true,0,799.9999999997672,2,0,0,34858,task2,1151440,false,false,1551,image-keyboard-response,16
true,14,0,2,0,true,q,false,true,0.0-2.0-0.50-0.456-3.456,0,0,1,81,false,stim,false,0,607.0,2,1,2,34858,task2,1153552,false,false,1554,image-keyboard-response,17
true,14,0,2,1,false,z,false,false,0.0-2.0-0.50-0.457-3.457,0,0,1,81,false,stim,true,0,641.0,2,0,0,34858,task2,1155700,false,false,1557,image-keyboard-response,18
true,14,0,2,1,false,z,false,false,0.0-2.0-0.50-0.458-3.458,0,0,1,81,false,stim,true,0,1086.0,2,0,0,34858,task2,1158290,false,false,1560,image-keyboard-response,19
true,14,2,2,0,false,q,true,false,0.0-2.0-0.51-0.459-3.459,0,0,1,68,false,stim,false,0,907.0,2,1,2,34858,task2,1160704,false,false,1563,image-keyboard-response,20
true,14,1,2,1,true,z,false,true,0.0-2.0-0.51-0.460-3.460,0,0,1,90,false,stim,false,0,1740.0,2,0,0,34858,task2,1163948,false,false,1566,image-keyboard-response,21
true,14,2,2,0,false,q,true,false,0.0-2.0-0.51-0.461-3.461,0,0,1,68,false,stim,false,0,2403.0,2,1,2,34858,task2,1167856,false,false,1569,image-keyboard-response,22
true,14,0,2,1,false,z,false,false,0.0-2.0-0.51-0.462-3.462,0,0,1,81,false,stim,true,0,2220.0,2,0,0,34858,task2,1171585,false,false,1572,image-keyboard-response,23
false,14,-1,2,0,false,q,true,false,0.0-2.0-0.51-0.463-3.463,0,0,1,,false,stim,false,1,,2,0,1,34858,task2,1176092,false,false,1575,image-keyboard-response,24
true,14,1,2,0,false,q,false,false,0.0-2.0-0.51-0.464-3.464,0,0,1,90,false,stim,true,1,2644.0,2,0,1,34858,task2,1180243,false,false,1578,image-keyboard-response,25
true,14,1,2,0,false,q,true,false,0.0-2.0-0.51-0.465-3.465,0,0,1,90,false,stim,false,0,1875.9999999997672,2,1,2,34858,task2,1183623,false,false,1581,image-keyboard-response,26
true,14,1,2,1,true,z,false,true,0.0-2.0-0.51-0.466-3.466,0,0,1,90,false,stim,false,0,183.0,2,0,0,34858,task2,1185313,false,false,1584,image-keyboard-response,27
true,14,2,2,0,false,q,true,false,0.0-2.0-0.51-0.467-3.467,0,0,1,68,false,stim,false,1,642.0,2,0,1,34858,task2,1187464,false,false,1587,image-keyboard-response,28
true,14,2,2,1,false,z,true,false,0.0-2.0-0.52-0.468-3.468,0,0,1,68,false,stim,false,0,150.0,2,0,0,34858,task2,1189119,false,false,1590,image-keyboard-response,29
true,14,1,2,0,false,q,false,false,0.0-2.0-0.52-0.469-3.469,0,0,1,90,false,stim,true,1,213.0,2,0,1,34858,task2,1190839,false,false,1593,image-keyboard-response,30
true,14,1,2,0,false,q,false,true,0.0-2.0-0.52-0.470-3.470,0,0,1,90,false,stim,true,1,239.0,2,0,1,34858,task2,1192585,false,true,1596,image-keyboard-response,31
true,14,1,2,1,true,z,false,true,0.0-2.0-0.52-0.471-3.471,0,0,1,90,false,stim,false,0,568.0,2,0,0,34858,task2,1194660,false,false,1599,image-keyboard-response,32
true,14,1,2,0,false,q,true,false,0.0-2.0-0.52-0.472-3.472,0,0,1,90,false,stim,false,0,314.0,2,0,2,34858,task2,1196491,false,false,1602,image-keyboard-response,33
true,15,1,1,2,false,d,true,true,0.0-2.0-0.52-0.473-3.473,0,0,0,90,true,stim,false,0,328.0,2,0,2,34858,task2,1198324,false,true,1605,image-keyboard-response,1
true,15,1,1,2,false,d,true,false,0.0-2.0-0.52-0.474-3.474,0,0,0,90,false,stim,false,0,228.0,2,0,2,34858,task2,1200060,false,false,1608,image-keyboard-response,2
true,15,1,1,0,false,q,false,false,0.0-2.0-0.52-0.475-3.475,0,0,0,90,false,stim,true,1,4.0,2,0,0,34858,task2,1201570,false,false,1611,image-keyboard-response,3
true,15,1,1,1,true,z,false,true,0.0-2.0-0.52-0.476-3.476,0,0,0,90,false,stim,false,0,94.0,2,0,1,34858,task2,1203171,false,false,1614,image-keyboard-response,4
true,15,1,1,2,false,d,true,false,0.0-2.0-0.53-0.477-3.477,0,0,0,90,false,stim,false,0,144.0,2,0,2,34858,task2,1204821,false,false,1617,image-keyboard-response,5
true,15,1,1,1,true,z,false,true,0.0-2.0-0.53-0.478-3.478,0,0,0,90,false,stim,false,0,178.0,2,0,1,34858,task2,1206506,false,false,1620,image-keyboard-response,6
true,15,1,1,2,false,d,true,true,0.0-2.0-0.53-0.479-3.479,0,0,0,90,false,stim,false,0,255.0,2,0,2,34858,task2,1208265,false,true,1623,image-keyboard-response,7
true,15,1,1,0,false,q,false,false,0.0-2.0-0.53-0.480-3.480,0,0,0,90,false,stim,true,1,9.0,2,0,0,34858,task2,1209780,false,false,1626,image-keyboard-response,8
true,15,2,1,1,false,z,true,false,0.0-2.0-0.53-0.481-3.481,0,0,0,68,false,stim,false,0,743.0,2,0,1,34858,task2,1212028,false,false,1629,image-keyboard-response,9
true,15,2,1,0,false,q,true,false,0.0-2.0-0.53-0.482-3.482,0,0,0,68,false,stim,false,1,589.0,2,0,0,34858,task2,1214122,false,false,1632,image-keyboard-response,10
true,15,0,1,1,false,z,false,false,0.0-2.0-0.53-0.483-3.483,0,0,0,81,false,stim,true,0,423.0,2,0,1,34858,task2,1216052,false,false,1635,image-keyboard-response,11
true,15,2,1,0,false,q,true,false,0.0-2.0-0.53-0.484-3.484,0,0,0,68,false,stim,false,1,219.0,2,0,0,34858,task2,1217779,false,false,1638,image-keyboard-response,12
true,15,0,1,2,false,d,false,false,0.0-2.0-0.53-0.485-3.485,0,0,0,81,false,stim,true,0,256.0,2,0,2,34858,task2,1219540,false,false,1641,image-keyboard-response,13
true,15,1,1,1,true,z,false,true,0.0-2.0-0.54-0.486-3.486,0,0,0,90,false,stim,false,0,266.00000000023283,2,0,1,34858,task2,1221316,false,false,1644,image-keyboard-response,14
true,15,1,1,2,false,d,true,false,0.0-2.0-0.54-0.487-3.487,0,0,0,90,false,stim,false,0,215.0,2,0,2,34858,task2,1223038,false,false,1647,image-keyboard-response,15
true,15,2,1,1,false,z,true,false,0.0-2.0-0.54-0.488-3.488,0,0,0,68,false,stim,false,0,353.0,2,0,1,34858,task2,1224898,false,false,1650,image-keyboard-response,16
true,15,2,1,2,true,d,false,false,0.0-2.0-0.54-0.489-3.489,0,0,0,68,false,stim,false,0,253.0,2,0,2,34858,task2,1226658,false,true,1653,image-keyboard-response,17
true,15,0,1,0,true,q,false,true,0.0-2.0-0.54-0.490-3.490,0,0,0,81,false,stim,false,1,386.0,2,0,0,34858,task2,1228553,false,false,1656,image-keyboard-response,18
true,15,0,1,0,true,q,false,false,0.0-2.0-0.54-0.491-3.491,0,0,0,81,false,stim,false,1,376.0,2,0,0,34858,task2,1230437,false,true,1659,image-keyboard-response,19
true,15,0,1,0,true,q,false,true,0.0-2.0-0.54-0.492-3.492,0,0,0,81,false,stim,false,1,336.99999999976717,2,0,0,34858,task2,1232278,false,false,1662,image-keyboard-response,20
true,15,0,1,2,false,d,false,false,0.0-2.0-0.54-0.493-3.493,0,0,0,81,false,stim,true,0,174.0,2,0,2,34858,task2,1233958,false,false,1665,image-keyboard-response,21
true,15,2,1,1,false,z,true,false,0.0-2.0-0.54-0.494-3.494,0,0,0,68,false,stim,false,0,3.0,2,0,1,34858,task2,1235466,false,false,1668,image-keyboard-response,22
true,15,1,1,1,true,z,false,true,0.0-2.0-0.55-0.495-3.495,0,0,0,90,false,stim,false,0,238.0,2,0,1,34858,task2,1237211,false,false,1671,image-keyboard-response,23
true,15,1,1,0,false,q,false,false,0.0-2.0-0.55-0.496-3.496,0,0,0,90,false,stim,true,1,417.0,2,0,0,34858,task2,1239133,false,false,1674,image-keyboard-response,24
true,15,1,1,0,false,q,false,false,0.0-2.0-0.55-0.497-3.497,0,0,0,90,false,stim,true,1,371.0,2,0,0,34858,task2,1241012,false,false,1677,image-keyboard-response,25
true,15,0,1,2,false,d,false,false,0.0-2.0-0.55-0.498-3.498,0,0,0,81,false,stim,true,0,338.00000000023283,2,0,2,34858,task2,1242854,false,false,1680,image-keyboard-response,26
true,15,0,1,0,true,q,false,true,0.0-2.0-0.55-0.499-3.499,0,0,0,81,false,stim,false,1,329.0,2,0,0,34858,task2,1244689,false,false,1683,image-keyboard-response,27
true,15,1,1,2,false,d,true,false,0.0-2.0-0.55-0.500-3.500,0,0,0,90,false,stim,false,0,1057.0,2,0,2,34858,task2,1247254,false,false,1686,image-keyboard-response,28
true,15,2,1,1,false,z,true,false,0.0-2.0-0.55-0.501-3.501,0,0,0,68,false,stim,false,0,736.9999999997672,2,0,1,34858,task2,1249495,false,false,1689,image-keyboard-response,29
true,15,2,1,2,true,d,false,true,0.0-2.0-0.55-0.502-3.502,0,0,0,68,false,stim,false,0,465.0,2,1,2,34858,task2,1251466,false,false,1692,image-keyboard-response,30
true,15,0,1,1,false,z,false,false,0.0-2.0-0.55-0.503-3.503,0,0,0,81,false,stim,true,0,182.0,2,0,1,34858,task2,1253152,false,false,1695,image-keyboard-response,31
true,15,0,1,2,false,d,false,false,0.0-2.0-0.56-0.504-3.504,0,0,0,81,false,stim,true,0,330.00000000023283,2,1,2,34858,task2,1254990,false,false,1698,image-keyboard-response,32
true,15,1,1,0,false,q,false,false,0.0-2.0-0.56-0.505-3.505,0,0,0,90,false,stim,true,1,334.0,2,0,0,34858,task2,1256834,false,false,1701,image-keyboard-response,33
true,15,0,1,0,true,q,false,true,0.0-2.0-0.56-0.506-3.506,0,0,0,81,false,stim,false,1,309.0,2,0,0,34858,task2,1258650,false,false,1704,image-keyboard-response,34
true,16,0,2,0,true,q,false,true,0.0-2.0-0.56-0.507-3.507,0,0,1,81,true,stim,false,1,442.0,2,0,1,34858,task2,1260599,false,false,1707,image-keyboard-response,1
true,16,0,2,2,false,d,true,false,0.0-2.0-0.56-0.508-3.508,0,0,1,81,false,stim,false,2,356.0,2,1,2,34858,task2,1262465,false,false,1710,image-keyboard-response,2
true,16,0,2,2,false,d,true,false,0.0-2.0-0.56-0.509-3.509,0,0,1,81,false,stim,false,2,204.0,2,1,2,34858,task2,1264174,false,false,1713,image-keyboard-response,3
true,16,2,2,0,false,q,true,false,0.0-2.0-0.56-0.510-3.510,0,0,1,68,false,stim,false,1,385.0,2,0,1,34858,task2,1266065,false,false,1716,image-keyboard-response,4
true,16,1,2,0,false,q,false,false,0.0-2.0-0.56-0.511-3.511,0,0,1,90,false,stim,true,1,63.00000000023283,2,0,1,34858,task2,1267634,false,false,1719,image-keyboard-response,5
true,16,0,2,2,false,d,false,false,0.0-2.0-0.56-0.512-3.512,0,0,1,81,false,stim,true,0,323.0,2,0,0,34858,task2,1269464,false,false,1722,image-keyboard-response,6
true,16,2,2,2,true,d,false,true,0.0-2.0-0.57-0.513-3.513,0,0,1,68,false,stim,false,0,130.0,2,0,0,34858,task2,1271104,false,false,1725,image-keyboard-response,7
true,16,2,2,0,false,q,true,false,0.0-2.0-0.57-0.514-3.514,0,0,1,68,false,stim,false,1,118.0,2,0,1,34858,task2,1272729,false,false,1728,image-keyboard-response,8
true,16,1,2,0,false,q,false,false,0.0-2.0-0.57-0.515-3.515,0,0,1,90,false,stim,true,1,452.0,2,0,1,34858,task2,1274685,false,false,1731,image-keyboard-response,9
true,16,2,2,2,true,d,false,true,0.0-2.0-0.57-0.516-3.516,0,0,1,68,false,stim,false,2,225.0,2,1,2,34858,task2,1276415,false,false,1734,image-keyboard-response,10
true,16,2,2,2,true,d,false,true,0.0-2.0-0.57-0.517-3.517,0,0,1,68,false,stim,false,0,322.00000000023283,2,0,0,34858,task2,1278250,false,false,1737,image-keyboard-response,11
true,16,0,2,2,false,d,true,false,0.0-2.0-0.57-0.518-3.518,0,0,1,81,false,stim,false,2,344.0,2,1,2,34858,task2,1280097,false,false,1740,image-keyboard-response,12
true,16,0,2,2,false,d,false,false,0.0-2.0-0.57-0.519-3.519,0,0,1,81,false,stim,true,0,279.0,2,0,0,34858,task2,1281882,false,false,1743,image-keyboard-response,13
true,16,0,2,0,true,q,false,true,0.0-2.0-0.57-0.520-3.520,0,0,1,81,false,stim,false,1,380.0,2,0,1,34858,task2,1283768,false,false,1746,image-keyboard-response,14
true,16,1,2,2,false,d,true,false,0.0-2.0-0.57-0.521-3.521,0,0,1,90,false,stim,false,2,364.0,2,1,2,34858,task2,1285637,false,false,1749,image-keyboard-response,15
true,16,1,2,2,false,d,true,false,0.0-2.0-0.58-0.522-3.522,0,0,1,90,false,stim,false,2,296.0,2,1,2,34858,task2,1287442,false,false,1752,image-keyboard-response,16
true,16,0,2,2,false,d,true,false,0.0-2.0-0.58-0.523-3.523,0,0,1,81,false,stim,false,2,316.0,2,1,2,34858,task2,1289263,false,false,1755,image-keyboard-response,17
true,16,2,2,0,false,q,true,false,0.0-2.0-0.58-0.524-3.524,0,0,1,68,false,stim,false,1,244.0,2,0,1,34858,task2,1291011,false,false,1758,image-keyboard-response,18
true,16,1,2,0,false,q,false,false,0.0-2.0-0.58-0.525-3.525,0,0,1,90,false,stim,true,1,592.0,2,0,1,34858,task2,1293107,false,false,1761,image-keyboard-response,19
true,16,0,2,2,false,d,false,false,0.0-2.0-0.58-0.526-3.526,0,0,1,81,false,stim,true,0,387.00000000023283,2,0,0,34858,task2,1295000,false,false,1764,image-keyboard-response,20
true,16,2,2,2,true,d,false,true,0.0-2.0-0.58-0.527-3.527,0,0,1,68,false,stim,false,0,16.0,2,0,0,34858,task2,1296522,false,false,1767,image-keyboard-response,21
true,16,2,2,2,true,d,false,true,0.0-2.0-0.58-0.528-3.528,0,0,1,68,false,stim,false,2,495.0,2,1,2,34858,task2,1298522,false,false,1770,image-keyboard-response,22
true,16,2,2,2,true,d,false,true,0.0-2.0-0.58-0.529-3.529,0,0,1,68,false,stim,false,0,481.0,2,0,0,34858,task2,1300507,false,false,1773,image-keyboard-response,23
true,16,2,2,0,false,q,true,false,0.0-2.0-0.58-0.530-3.530,0,0,1,68,false,stim,false,1,294.99999999976717,2,0,1,34858,task2,1302305,false,false,1776,image-keyboard-response,24
true,16,2,2,2,true,d,false,true,0.0-2.0-0.59-0.531-3.531,0,0,1,68,false,stim,false,2,121.0,2,1,2,34858,task2,1303938,false,false,1779,image-keyboard-response,25
true,16,1,2,0,false,q,false,false,0.0-2.0-0.59-0.532-3.532,0,0,1,90,false,stim,true,1,585.0,2,0,1,34858,task2,1306027,false,false,1782,image-keyboard-response,26
true,16,0,2,0,true,q,false,true,0.0-2.0-0.59-0.533-3.533,0,0,1,81,false,stim,false,1,416.0,2,0,1,34858,task2,1307948,false,false,1785,image-keyboard-response,27
true,16,2,2,2,true,d,false,true,0.0-2.0-0.59-0.534-3.534,0,0,1,68,false,stim,false,0,532.9999999997672,2,0,0,34858,task2,1309985,false,false,1788,image-keyboard-response,28
true,16,2,2,2,true,d,false,true,0.0-2.0-0.59-0.535-3.535,0,0,1,68,false,stim,false,2,1117.0000000002328,2,1,2,34858,task2,1312607,false,false,1791,image-keyboard-response,29
true,16,2,2,2,true,d,false,true,0.0-2.0-0.59-0.536-3.536,0,0,1,68,false,stim,false,0,523.0,2,1,0,34858,task2,1314638,false,false,1794,image-keyboard-response,30
true,16,2,2,2,true,d,false,true,0.0-2.0-0.59-0.537-3.537,0,0,1,68,false,stim,false,2,319.99999999976717,2,1,2,34858,task2,1316466,false,false,1797,image-keyboard-response,31
true,16,2,2,2,true,d,false,true,0.0-2.0-0.59-0.538-3.538,0,0,1,68,false,stim,false,0,545.0,2,1,0,34858,task2,1318516,false,false,1800,image-keyboard-response,32
true,16,0,2,0,true,q,false,true,0.0-2.0-0.59-0.539-3.539,0,0,1,81,false,stim,false,1,787.0,2,1,1,34858,task2,1320814,false,false,1803,image-keyboard-response,33
true,16,0,2,0,true,q,false,true,0.0-2.0-0.60-0.540-3.540,0,0,1,81,false,stim,false,1,422.0,2,1,1,34858,task2,1322744,false,false,1806,image-keyboard-response,34
false,17,-1,0,2,false,d,true,false,0.0-2.0-0.60-0.541-3.541,1,1,1,,true,stim,false,2,,2,1,2,34858,task2,1447519,false,false,1929,image-keyboard-response,1
false,17,-1,0,2,false,d,true,true,0.0-2.0-0.60-0.542-3.542,1,1,1,,false,stim,false,2,,2,1,2,34858,task2,1452025,false,true,1932,image-keyboard-response,2
true,17,2,0,2,true,d,false,true,0.0-2.0-0.60-0.543-3.543,1,1,1,68,false,stim,false,2,1982.0,2,1,0,34858,task2,1455513,false,false,1935,image-keyboard-response,3
true,17,2,0,0,false,q,true,false,0.0-2.0-0.60-0.544-3.544,1,1,1,68,false,stim,false,0,454.0,2,1,1,34858,task2,1457471,false,false,1938,image-keyboard-response,4
true,17,2,0,2,true,d,false,true,0.0-2.0-0.60-0.545-3.545,1,1,1,68,false,stim,false,2,333.0,2,1,0,34858,task2,1459310,false,false,1941,image-keyboard-response,5
true,17,2,0,2,true,d,false,true,0.0-2.0-0.60-0.546-3.546,1,1,1,68,false,stim,false,2,336.0,2,1,0,34858,task2,1461154,false,false,1944,image-keyboard-response,6
true,17,2,0,2,true,d,false,false,0.0-2.0-0.60-0.547-3.547,1,1,1,68,false,stim,false,2,280.0,2,1,2,34858,task2,1462941,false,true,1947,image-keyboard-response,7
true,17,2,0,0,false,q,true,false,0.0-2.0-0.60-0.548-3.548,1,1,1,68,false,stim,false,0,343.0,2,1,1,34858,task2,1464793,false,false,1950,image-keyboard-response,8
true,17,2,0,2,true,d,false,true,0.0-2.0-0.61-0.549-3.549,1,1,1,68,false,stim,false,2,390.0,2,0,0,34858,task2,1466690,false,false,1953,image-keyboard-response,9
true,17,2,0,2,true,d,false,true,0.0-2.0-0.61-0.550-3.550,1,1,1,68,false,stim,false,2,285.0,2,0,2,34858,task2,1468481,false,false,1956,image-keyboard-response,10
true,17,0,0,0,true,q,false,true,0.0-2.0-0.61-0.551-3.551,1,1,1,81,false,stim,false,0,624.0,2,0,1,34858,task2,1470610,false,false,1959,image-keyboard-response,11
true,17,0,0,0,true,q,false,true,0.0-2.0-0.61-0.552-3.552,1,1,1,81,false,stim,false,0,472.0,2,0,1,34858,task2,1472588,false,false,1962,image-keyboard-response,12
true,17,2,0,2,true,d,false,true,0.0-2.0-0.61-0.553-3.553,1,1,1,68,false,stim,false,2,445.0,2,0,0,34858,task2,1474541,false,false,1965,image-keyboard-response,13
true,18,0,1,1,false,z,false,false,0.0-2.0-0.61-0.554-3.554,0,0,0,81,true,stim,true,0,652.0000000002328,2,0,1,34858,task2,1476698,false,false,1968,image-keyboard-response,1
false,18,-1,1,0,false,q,true,false,0.0-2.0-0.61-0.555-3.555,0,0,0,,false,stim,false,2,,2,0,0,34858,task2,1481204,false,false,1971,image-keyboard-response,2
false,18,-1,1,1,false,z,true,false,0.0-2.0-0.61-0.556-3.556,0,0,0,,false,stim,false,2,,2,0,2,34858,task2,1485716,false,false,1974,image-keyboard-response,3
false,18,-1,1,1,false,z,true,false,0.0-2.0-0.61-0.557-3.557,0,0,0,,false,stim,false,2,,2,0,2,34858,task2,1490222,false,false,1977,image-keyboard-response,4
false,18,-1,1,1,false,z,true,false,0.0-2.0-0.62-0.558-3.558,0,0,0,,false,stim,false,2,,2,0,2,34858,task2,1494730,false,false,1980,image-keyboard-response,5
false,18,-1,1,1,false,z,true,false,0.0-2.0-0.62-0.559-3.559,0,0,0,,false,stim,false,0,,2,0,1,34858,task2,1499235,false,false,1983,image-keyboard-response,6
true,18,2,1,0,false,q,false,true,0.0-2.0-0.62-0.560-3.560,0,0,0,68,false,stim,true,2,600.0,2,0,0,34858,task2,1507137,false,true,1987,image-keyboard-response,7
true,18,1,1,1,true,z,false,true,0.0-2.0-0.62-0.561-3.561,0,0,0,90,false,stim,false,2,452.0,2,0,2,34858,task2,1509097,false,false,1990,image-keyboard-response,8
true,18,0,1,1,false,z,false,false,0.0-2.0-0.62-0.562-3.562,0,0,0,81,false,stim,true,0,547.0,2,0,1,34858,task2,1511153,false,false,1993,image-keyboard-response,9
true,18,1,1,1,true,z,false,true,0.0-2.0-0.62-0.563-3.563,0,0,0,90,false,stim,false,2,954.9999999997672,2,0,2,34858,task2,1513616,false,false,1996,image-keyboard-response,10
true,18,2,1,0,false,q,false,false,0.0-2.0-0.62-0.564-3.564,0,0,0,68,false,stim,true,2,467.0,2,0,0,34858,task2,1515591,false,false,1999,image-keyboard-response,11
true,18,2,1,0,false,q,false,false,0.0-2.0-0.62-0.565-3.565,0,0,0,68,false,stim,true,2,477.0,2,0,0,34858,task2,1517586,false,false,2002,image-keyboard-response,12
true,18,0,1,1,false,z,false,false,0.0-2.0-0.62-0.566-3.566,0,0,0,81,false,stim,true,0,407.0,2,0,1,34858,task2,1519500,false,false,2005,image-keyboard-response,13
true,18,2,1,1,false,z,false,false,0.0-2.0-0.63-0.567-3.567,0,0,0,68,false,stim,true,2,1398.0,2,0,2,34858,task2,1522403,false,false,2008,image-keyboard-response,14
true,18,1,1,1,true,z,false,true,0.0-2.0-0.63-0.568-3.568,0,0,0,90,false,stim,false,2,192.0,2,0,2,34858,task2,1524103,false,false,2011,image-keyboard-response,15
true,18,2,1,1,false,z,true,false,0.0-2.0-0.63-0.569-3.569,0,0,0,68,false,stim,false,0,524.0,2,0,1,34858,task2,1526135,false,false,2014,image-keyboard-response,16
true,18,0,1,0,true,q,false,true,0.0-2.0-0.63-0.570-3.570,0,0,0,81,false,stim,false,2,488.00000000023283,2,0,0,34858,task2,1528132,false,false,2017,image-keyboard-response,17
true,18,0,1,1,false,z,false,true,0.0-2.0-0.63-0.571-3.571,0,0,0,81,false,stim,true,0,514.0,2,0,1,34858,task2,1530153,false,true,2020,image-keyboard-response,18
true,18,0,1,1,false,z,true,false,0.0-2.0-0.63-0.572-3.572,0,0,0,81,false,stim,false,2,450.99999999976717,2,0,2,34858,task2,1532112,false,false,2023,image-keyboard-response,19
true,18,2,1,1,false,z,true,false,0.0-2.0-0.63-0.573-3.573,0,0,0,68,false,stim,false,0,280.0,2,0,1,34858,task2,1533899,false,false,2026,image-keyboard-response,20
true,18,1,1,0,false,q,true,false,0.0-2.0-0.63-0.574-3.574,0,0,0,90,false,stim,false,2,310.0,2,0,0,34858,task2,1535718,false,false,2029,image-keyboard-response,21
true,18,0,1,0,true,q,false,true,0.0-2.0-0.63-0.575-3.575,0,0,0,81,false,stim,false,2,68.0,2,0,0,34858,task2,1537291,false,false,2032,image-keyboard-response,22
true,18,0,1,0,true,q,false,true,0.0-2.0-0.64-0.576-3.576,0,0,0,81,false,stim,false,2,403.0,2,0,0,34858,task2,1539200,false,false,2035,image-keyboard-response,23
true,18,2,1,1,false,z,false,false,0.0-2.0-0.64-0.577-3.577,0,0,0,68,false,stim,true,2,589.0,2,0,2,34858,task2,1541295,false,false,2038,image-keyboard-response,24
true,18,0,1,0,true,q,false,true,0.0-2.0-0.64-0.578-3.578,0,0,0,81,false,stim,false,2,318.0,2,0,0,34858,task2,1543119,false,false,2041,image-keyboard-response,25
true,18,1,1,1,true,z,false,true,0.0-2.0-0.64-0.579-3.579,0,0,0,90,false,stim,false,0,383.0,2,0,1,34858,task2,1545008,false,false,2044,image-keyboard-response,26
true,18,0,1,0,true,q,false,true,0.0-2.0-0.64-0.580-3.580,0,0,0,81,false,stim,false,2,559.0,2,0,0,34858,task2,1547074,false,false,2047,image-keyboard-response,27
true,18,1,1,1,true,z,false,true,0.0-2.0-0.64-0.581-3.581,0,0,0,90,false,stim,false,0,384.0,2,0,1,34858,task2,1548965,false,false,2050,image-keyboard-response,28
true,18,1,1,1,true,z,false,true,0.0-2.0-0.64-0.582-3.582,0,0,0,90,false,stim,false,0,322.99999999976717,2,0,1,34858,task2,1550793,false,false,2053,image-keyboard-response,29
true,18,1,1,1,true,z,false,false,0.0-2.0-0.64-0.583-3.583,0,0,0,90,false,stim,false,2,403.0,2,0,2,34858,task2,1552702,false,true,2056,image-keyboard-response,30
true,18,0,1,1,false,z,true,false,0.0-2.0-0.64-0.584-3.584,0,0,0,81,false,stim,false,2,306.0,2,0,2,34858,task2,1554512,false,false,2059,image-keyboard-response,31
true,18,2,1,1,false,z,false,false,0.0-2.0-0.65-0.585-3.585,0,0,0,68,false,stim,true,2,357.0,2,0,2,34858,task2,1556378,false,false,2062,image-keyboard-response,32
true,18,2,1,1,false,z,true,false,0.0-2.0-0.65-0.586-3.586,0,0,0,68,false,stim,false,0,616.0,2,0,1,34858,task2,1558502,false,false,2065,image-keyboard-response,33
true,18,2,1,1,false,z,false,false,0.0-2.0-0.65-0.587-3.587,0,0,0,68,false,stim,true,2,688.9999999997672,2,1,2,34858,task2,1560697,false,false,2068,image-keyboard-response,34
true,18,0,1,0,true,q,false,true,0.0-2.0-0.65-0.588-3.588,0,0,0,81,false,stim,false,2,271.0,2,0,0,34858,task2,1562473,false,false,2071,image-keyboard-response,35
true,18,0,1,0,true,q,false,true,0.0-2.0-0.65-0.589-3.589,0,0,0,81,false,stim,false,2,430.0,2,0,0,34858,task2,1564408,false,false,2074,image-keyboard-response,36
true,18,0,1,1,false,z,true,false,0.0-2.0-0.65-0.590-3.590,0,0,0,81,false,stim,false,2,300.0,2,1,2,34858,task2,1566217,false,false,2077,image-keyboard-response,37
true,18,1,1,0,false,q,true,false,0.0-2.0-0.65-0.591-3.591,0,0,0,90,false,stim,false,2,141.0,2,0,0,34858,task2,1567864,false,false,2080,image-keyboard-response,38
true,19,2,2,2,true,d,false,true,0.0-2.0-0.65-0.592-3.592,0,0,1,68,true,stim,false,1,1387.9999999997672,2,0,1,34858,task2,1570761,false,false,2083,image-keyboard-response,1
true,19,2,2,2,true,d,false,false,0.0-2.0-0.65-0.593-3.593,0,0,1,68,false,stim,false,1,1104.0,2,0,1,34858,task2,1573370,false,true,2086,image-keyboard-response,2
true,19,1,2,2,false,d,false,false,0.0-2.0-0.66-0.594-3.594,0,0,1,90,false,stim,true,1,1501.0,2,0,1,34858,task2,1576380,false,false,2089,image-keyboard-response,3
true,19,1,2,2,false,d,false,false,0.0-2.0-0.66-0.595-3.595,0,0,1,90,false,stim,true,1,544.0,2,0,1,34858,task2,1578433,false,false,2092,image-keyboard-response,4
true,19,0,2,1,false,z,true,false,0.0-2.0-0.66-0.596-3.596,0,0,1,81,false,stim,false,1,134.0,2,1,2,34858,task2,1580073,false,false,2095,image-keyboard-response,5
true,19,1,2,1,true,z,false,true,0.0-2.0-0.66-0.597-3.597,0,0,1,90,false,stim,false,1,981.0,2,1,2,34858,task2,1582562,false,false,2098,image-keyboard-response,6
true,19,1,2,2,false,d,true,false,0.0-2.0-0.66-0.598-3.598,0,0,1,90,false,stim,false,0,743.0,2,0,0,34858,task2,1584823,false,false,2101,image-keyboard-response,7
true,19,0,2,2,false,d,false,false,0.0-2.0-0.66-0.599-3.599,0,0,1,81,false,stim,true,0,338.0,2,0,0,34858,task2,1586671,false,false,2104,image-keyboard-response,8
true,19,1,2,2,false,d,false,false,0.0-2.0-0.66-0.600-3.600,0,0,1,90,false,stim,true,1,1564.0,2,0,1,34858,task2,1589743,false,false,2107,image-keyboard-response,9
true,19,0,2,2,false,d,false,false,0.0-2.0-0.66-0.601-3.601,0,0,1,81,false,stim,true,0,1298.0,2,0,0,34858,task2,1592552,false,false,2110,image-keyboard-response,10
true,19,0,2,1,false,z,true,false,0.0-2.0-0.66-0.602-3.602,0,0,1,81,false,stim,false,1,1763.0,2,1,2,34858,task2,1595823,false,false,2113,image-keyboard-response,11
true,19,2,2,2,true,d,false,true,0.0-2.0-0.67-0.603-3.603,0,0,1,68,false,stim,false,0,746.0,2,0,0,34858,task2,1598079,false,false,2116,image-keyboard-response,12
true,19,2,2,2,true,d,false,true,0.0-2.0-0.67-0.604-3.604,0,0,1,68,false,stim,false,1,954.0,2,0,1,34858,task2,1600539,false,false,2119,image-keyboard-response,13
true,19,2,2,1,false,z,true,false,0.0-2.0-0.67-0.605-3.605,0,0,1,68,false,stim,false,1,1661.0,2,1,2,34858,task2,1603705,false,false,2122,image-keyboard-response,14
false,19,-1,2,1,false,z,true,false,0.0-2.0-0.67-0.606-3.606,0,0,1,,false,stim,false,1,,2,1,2,34858,task2,1608210,false,false,2125,image-keyboard-response,15
true,19,0,2,2,false,d,true,false,0.0-2.0-0.67-0.607-3.607,0,0,1,81,false,stim,false,1,1942.0,2,0,1,34858,task2,1611656,false,false,2128,image-keyboard-response,16
true,19,1,2,2,false,d,false,false,0.0-2.0-0.67-0.608-3.608,0,0,1,90,false,stim,true,1,910.0,2,0,1,34858,task2,1614076,false,false,2131,image-keyboard-response,17
true,19,1,2,1,true,z,false,true,0.0-2.0-0.67-0.609-3.609,0,0,1,90,false,stim,false,1,196.00000000023283,2,1,2,34858,task2,1615780,false,false,2134,image-keyboard-response,18
true,19,1,2,2,false,d,true,false,0.0-2.0-0.67-0.610-3.610,0,0,1,90,false,stim,false,0,790.0000000002328,2,0,0,34858,task2,1618077,false,false,2137,image-keyboard-response,19
true,19,2,2,2,true,d,false,true,0.0-2.0-0.67-0.611-3.611,0,0,1,68,false,stim,false,0,1095.0,2,0,0,34858,task2,1620680,false,false,2140,image-keyboard-response,20
true,19,0,2,1,false,z,true,false,0.0-2.0-0.68-0.612-3.612,0,0,1,81,false,stim,false,1,266.0,2,1,2,34858,task2,1622456,false,false,2143,image-keyboard-response,21
false,19,-1,2,2,false,d,true,false,0.0-2.0-0.68-0.613-3.613,0,0,1,,false,stim,false,1,,2,0,1,34858,task2,1626961,false,false,2146,image-keyboard-response,22
true,19,2,2,2,true,d,false,true,0.0-2.0-0.68-0.614-3.614,0,0,1,68,false,stim,false,1,1384.0,2,0,1,34858,task2,1629850,false,false,2149,image-keyboard-response,23
true,19,1,2,2,false,d,true,false,0.0-2.0-0.68-0.615-3.615,0,0,1,90,false,stim,false,0,608.0,2,0,0,34858,task2,1631967,false,false,2152,image-keyboard-response,24
