answered,blockNum,choice,condition,corResp,correct,correct_response,explo,fb,internal_node_id,isStable_1,isStable_2,isStable_3,key_press,newBlock,part,persev,persevResp,rt,sessNum,stableAS,stimulus,subject,task,time_elapsed,training,trap,trial_index,trial_type,trialsInBlock
true,1,1,0,0,false,q,true,false,0.0-2.0-0.0-0.0-3.0,0,0,0,90,true,stim,false,-1,1262.999999999971,0,0,2,34858,task3,227259,false,false,162,image-keyboard-response,1
true,1,1,0,1,true,z,false,true,0.0-2.0-0.0-0.1-3.1,0,0,0,90,false,stim,false,-1,913.0,0,0,0,34858,task3,229677,false,false,165,image-keyboard-response,2
true,1,1,0,1,true,z,false,true,0.0-2.0-0.0-0.2-3.2,0,0,0,90,false,stim,false,-1,733.0,0,0,0,34858,task3,231917,false,false,168,image-keyboard-response,3
true,1,0,0,2,false,d,true,true,0.0-2.0-0.0-0.3-3.3,0,0,0,81,false,stim,false,-1,894.0000000000291,0,0,1,34858,task3,234317,false,true,171,image-keyboard-response,4
true,1,1,0,1,true,z,false,true,0.0-2.0-0.0-0.4-3.4,0,0,0,90,false,stim,false,-1,796.9999999999709,0,0,0,34858,task3,236620,false,false,174,image-keyboard-response,5
true,1,0,0,2,false,d,true,false,0.0-2.0-0.0-0.5-3.5,0,0,0,81,false,stim,false,-1,552.0,0,0,1,34858,task3,238677,false,false,177,image-keyboard-response,6
true,1,2,0,2,true,d,false,true,0.0-2.0-0.0-0.6-3.6,0,0,0,68,false,stim,false,-1,1298.0,0,0,1,34858,task3,241481,false,false,180,image-keyboard-response,7
true,1,0,0,0,true,q,false,true,0.0-2.0-0.0-0.7-3.7,0,0,0,81,false,stim,false,-1,1173.0,0,0,2,34858,task3,244160,false,false,183,image-keyboard-response,8
true,1,0,0,0,true,q,false,true,0.0-2.0-0.0-0.8-3.8,0,0,0,81,false,stim,false,-1,1163.000000000029,0,0,2,34858,task3,246829,false,false,186,image-keyboard-response,9
true,1,2,0,2,true,d,false,true,0.0-2.0-0.1-0.9-3.9,0,0,0,68,false,stim,false,-1,655.0,0,0,1,34858,task3,248990,false,false,189,image-keyboard-response,10
true,1,2,0,2,true,d,false,true,0.0-2.0-0.1-0.10-3.10,0,0,0,68,false,stim,false,-1,440.0,0,0,1,34858,task3,250935,false,false,192,image-keyboard-response,11
true,1,0,0,0,true,q,false,true,0.0-2.0-0.1-0.11-3.11,0,0,0,81,false,stim,false,-1,851.0,0,0,2,34858,task3,253290,false,false,195,image-keyboard-response,12
true,1,1,0,2,false,d,true,false,0.0-2.0-0.1-0.12-3.12,0,0,0,90,false,stim,false,-1,870.9999999999709,0,0,1,34858,task3,255666,false,false,198,image-keyboard-response,13
true,1,0,0,0,true,q,false,true,0.0-2.0-0.1-0.13-3.13,0,0,0,81,false,stim,false,-1,419.0000000000291,0,0,2,34858,task3,257593,false,false,201,image-keyboard-response,14
true,1,2,0,1,false,z,true,false,0.0-2.0-0.1-0.14-3.14,0,0,0,68,false,stim,false,-1,791.0,0,0,0,34858,task3,259943,false,false,204,image-keyboard-response,15
true,1,2,0,1,false,z,true,false,0.0-2.0-0.1-0.15-3.15,0,0,0,68,false,stim,false,-1,973.0,0,0,0,34858,task3,262421,false,false,207,image-keyboard-response,16
true,1,1,0,0,false,q,true,false,0.0-2.0-0.1-0.16-3.16,0,0,0,90,false,stim,false,-1,692.0000000000582,0,0,2,34858,task3,264617,false,false,210,image-keyboard-response,17
true,1,0,0,1,false,z,true,false,0.0-2.0-0.1-0.17-3.17,0,0,0,81,false,stim,false,-1,428.0,0,0,0,34858,task3,266550,false,false,213,image-keyboard-response,18
true,1,0,0,1,false,z,true,false,0.0-2.0-0.2-0.18-3.18,0,0,0,81,false,stim,false,-1,494.0,0,0,0,34858,task3,268550,false,false,216,image-keyboard-response,19
true,1,1,0,1,true,z,false,true,0.0-2.0-0.2-0.19-3.19,0,0,0,90,false,stim,false,-1,523.0,0,0,0,34858,task3,270579,false,false,219,image-keyboard-response,20
true,1,2,0,2,true,d,false,true,0.0-2.0-0.2-0.20-3.20,0,0,0,68,false,stim,false,-1,937.0,0,0,1,34858,task3,273022,false,false,222,image-keyboard-response,21
true,1,2,0,2,true,d,false,true,0.0-2.0-0.2-0.21-3.21,0,0,0,68,false,stim,false,-1,1369.0,0,0,1,34858,task3,275895,false,false,225,image-keyboard-response,22
true,1,2,0,2,true,d,false,false,0.0-2.0-0.2-0.22-3.22,0,0,0,68,false,stim,false,-1,589.0,0,0,1,34858,task3,277989,false,true,228,image-keyboard-response,23
true,1,1,0,0,false,q,true,false,0.0-2.0-0.2-0.23-3.23,0,0,0,90,false,stim,false,-1,751.0,0,0,2,34858,task3,280245,false,false,231,image-keyboard-response,24
true,1,0,0,0,true,q,false,true,0.0-2.0-0.2-0.24-3.24,0,0,0,81,false,stim,false,-1,833.0,0,0,2,34858,task3,282584,false,false,234,image-keyboard-response,25
true,1,0,0,0,true,q,false,true,0.0-2.0-0.2-0.25-3.25,0,0,0,81,false,stim,false,-1,733.9999999999418,0,0,2,34858,task3,284823,false,false,237,image-keyboard-response,26
true,1,1,0,1,true,z,false,true,0.0-2.0-0.2-0.26-3.26,0,0,0,90,false,stim,false,-1,946.0,0,1,0,34858,task3,287275,false,false,240,image-keyboard-response,27
true,1,0,0,0,true,q,false,true,0.0-2.0-0.3-0.27-3.27,0,0,0,81,false,stim,false,-1,890.0,0,0,2,34858,task3,289672,false,false,243,image-keyboard-response,28
true,1,1,0,0,false,q,true,false,0.0-2.0-0.3-0.28-3.28,0,0,0,90,false,stim,false,-1,1429.0,0,0,2,34858,task3,292606,false,false,246,image-keyboard-response,29
true,2,1,1,1,true,z,false,true,0.0-2.0-0.3-0.29-3.29,1,0,0,90,true,stim,false,1,805.0000000000582,0,1,0,34858,task3,294916,false,false,249,image-keyboard-response,1
true,2,2,1,1,false,z,false,true,0.0-2.0-0.3-0.30-3.30,1,0,0,68,false,stim,true,2,912.0,0,0,1,34858,task3,297332,false,true,252,image-keyboard-response,2
true,2,2,1,1,false,z,false,false,0.0-2.0-0.3-0.31-3.31,1,0,0,68,false,stim,true,2,632.0,0,0,1,34858,task3,299470,false,false,255,image-keyboard-response,3
true,2,0,1,1,false,z,true,false,0.0-2.0-0.3-0.32-3.32,1,0,0,81,false,stim,false,1,1085.9999999999418,0,1,0,34858,task3,302062,false,false,258,image-keyboard-response,4
true,2,1,1,2,false,d,true,false,0.0-2.0-0.3-0.33-3.33,1,0,0,90,false,stim,false,0,1226.0,0,0,2,34858,task3,304794,false,false,261,image-keyboard-response,5
true,2,2,1,1,false,z,false,false,0.0-2.0-0.3-0.34-3.34,1,0,0,68,false,stim,true,2,1338.0,0,0,1,34858,task3,307637,false,false,264,image-keyboard-response,6
true,2,1,1,1,true,z,false,false,0.0-2.0-0.3-0.35-3.35,1,0,0,90,false,stim,false,1,826.9999999999418,0,1,0,34858,task3,309970,false,true,267,image-keyboard-response,7
true,2,0,1,1,false,z,true,false,0.0-2.0-0.4-0.36-3.36,1,0,0,81,false,stim,false,2,765.9999999999418,0,0,1,34858,task3,312243,false,false,270,image-keyboard-response,8
true,2,2,1,2,true,d,false,false,0.0-2.0-0.4-0.37-3.37,1,0,0,68,false,stim,false,0,372.0,0,0,2,34858,task3,314120,false,true,273,image-keyboard-response,9
true,2,1,1,1,true,z,false,true,0.0-2.0-0.4-0.38-3.38,1,0,0,90,false,stim,false,1,1843.9999999999418,0,1,0,34858,task3,317470,false,false,276,image-keyboard-response,10
true,2,2,1,2,true,d,false,true,0.0-2.0-0.4-0.39-3.39,1,0,0,68,false,stim,false,0,1423.0,0,0,2,34858,task3,320397,false,false,279,image-keyboard-response,11
true,2,0,1,1,false,z,true,false,0.0-2.0-0.4-0.40-3.40,1,0,0,81,false,stim,false,2,982.0,0,0,1,34858,task3,322885,false,false,282,image-keyboard-response,12
true,2,1,1,2,false,d,true,false,0.0-2.0-0.4-0.41-3.41,1,0,0,90,false,stim,false,0,773.0,0,0,2,34858,task3,325163,false,false,285,image-keyboard-response,13
true,2,1,1,1,true,z,false,true,0.0-2.0-0.4-0.42-3.42,1,0,0,90,false,stim,false,1,931.9999999999418,0,1,0,34858,task3,327599,false,false,288,image-keyboard-response,14
true,2,1,1,1,true,z,false,true,0.0-2.0-0.4-0.43-3.43,1,0,0,90,false,stim,false,1,559.0,0,1,0,34858,task3,329663,false,false,291,image-keyboard-response,15
true,2,0,1,1,false,z,true,false,0.0-2.0-0.4-0.44-3.44,1,0,0,81,false,stim,false,2,1570.0,0,0,1,34858,task3,332738,false,false,294,image-keyboard-response,16
true,2,2,1,2,true,d,false,true,0.0-2.0-0.5-0.45-3.45,1,0,0,68,false,stim,false,0,1689.9999999999418,0,0,2,34858,task3,335934,false,false,297,image-keyboard-response,17
true,2,2,1,2,true,d,false,true,0.0-2.0-0.5-0.46-3.46,1,0,0,68,false,stim,false,0,570.0,0,0,2,34858,task3,338010,false,false,300,image-keyboard-response,18
true,2,1,1,1,true,z,false,true,0.0-2.0-0.5-0.47-3.47,1,0,0,90,false,stim,false,1,1178.0,0,1,0,34858,task3,340696,false,false,303,image-keyboard-response,19
true,2,1,1,1,true,z,false,true,0.0-2.0-0.5-0.48-3.48,1,0,0,90,false,stim,false,2,1524.0,0,0,1,34858,task3,343724,false,false,306,image-keyboard-response,20
true,2,2,1,2,true,d,false,true,0.0-2.0-0.5-0.49-3.49,1,0,0,68,false,stim,false,0,1826.0,0,1,2,34858,task3,347056,false,false,309,image-keyboard-response,21
true,2,1,1,1,true,z,false,true,0.0-2.0-0.5-0.50-3.50,1,0,0,90,false,stim,false,1,1724.0,0,0,0,34858,task3,350285,false,false,312,image-keyboard-response,22
true,2,1,1,1,true,z,false,false,0.0-2.0-0.5-0.51-3.51,1,0,0,90,false,stim,false,2,912.0,0,0,1,34858,task3,352703,false,true,315,image-keyboard-response,23
true,2,1,1,1,true,z,false,true,0.0-2.0-0.5-0.52-3.52,1,0,0,90,false,stim,false,2,780.0,0,0,1,34858,task3,354989,false,false,318,image-keyboard-response,24
true,2,1,1,1,true,z,false,true,0.0-2.0-0.5-0.53-3.53,1,0,0,90,false,stim,false,1,929.0,0,0,0,34858,task3,357422,false,false,321,image-keyboard-response,25
true,3,1,1,0,false,q,false,false,0.0-2.0-0.6-0.54-3.54,0,0,1,90,true,stim,true,1,720.0,0,0,1,34858,task3,359648,false,false,324,image-keyboard-response,1
true,3,2,1,2,true,d,false,true,0.0-2.0-0.6-0.55-3.55,0,0,1,68,false,stim,false,2,1100.0,0,1,2,34858,task3,362253,false,false,327,image-keyboard-response,2
true,3,2,1,2,true,d,false,true,0.0-2.0-0.6-0.56-3.56,0,0,1,68,false,stim,false,2,682.0,0,1,2,34858,task3,364441,false,false,330,image-keyboard-response,3
true,3,1,1,2,false,d,false,false,0.0-2.0-0.6-0.57-3.57,0,0,1,90,false,stim,true,1,802.0,0,0,0,34858,task3,366750,false,false,333,image-keyboard-response,4
true,3,2,1,2,true,d,false,false,0.0-2.0-0.6-0.58-3.58,0,0,1,68,false,stim,false,2,905.0,0,1,2,34858,task3,369160,false,true,336,image-keyboard-response,5
true,3,1,1,2,false,d,false,false,0.0-2.0-0.6-0.59-3.59,0,0,1,90,false,stim,true,1,1220.0,0,0,0,34858,task3,371886,false,false,339,image-keyboard-response,6
true,3,0,1,2,false,d,true,false,0.0-2.0-0.6-0.60-3.60,0,0,1,81,false,stim,false,1,434.0,0,0,0,34858,task3,373827,false,false,342,image-keyboard-response,7
true,3,1,1,0,false,q,false,false,0.0-2.0-0.6-0.61-3.61,0,0,1,90,false,stim,true,1,1573.0,0,0,1,34858,task3,376906,false,false,345,image-keyboard-response,8
true,3,1,1,0,false,q,false,false,0.0-2.0-0.6-0.62-3.62,0,0,1,90,false,stim,true,1,663.0,0,0,1,34858,task3,379075,false,false,348,image-keyboard-response,9
true,3,2,1,2,true,d,false,false,0.0-2.0-0.7-0.63-3.63,0,0,1,68,false,stim,false,2,2426.0,0,1,2,34858,task3,383007,false,true,351,image-keyboard-response,10
true,3,1,1,0,false,q,false,false,0.0-2.0-0.7-0.64-3.64,0,0,1,90,false,stim,true,1,1124.0,0,0,1,34858,task3,385636,false,false,354,image-keyboard-response,11
true,3,2,1,0,false,q,true,true,0.0-2.0-0.7-0.65-3.65,0,0,1,68,false,stim,false,1,750.0,0,0,1,34858,task3,387892,false,true,357,image-keyboard-response,12
true,3,1,1,2,false,d,true,false,0.0-2.0-0.7-0.66-3.66,0,0,1,90,false,stim,false,2,1054.0,0,1,2,34858,task3,390452,false,false,360,image-keyboard-response,13
true,3,0,1,2,false,d,true,false,0.0-2.0-0.7-0.67-3.67,0,0,1,81,false,stim,false,1,1299.0000000000582,0,0,0,34858,task3,393259,false,false,363,image-keyboard-response,14
true,3,2,1,0,false,q,true,false,0.0-2.0-0.7-0.68-3.68,0,0,1,68,false,stim,false,1,648.0,0,0,1,34858,task3,395412,false,false,366,image-keyboard-response,15
true,3,2,1,2,true,d,false,true,0.0-2.0-0.7-0.69-3.69,0,0,1,68,false,stim,false,1,353.0,0,0,0,34858,task3,397272,false,false,369,image-keyboard-response,16
true,3,2,1,2,true,d,false,false,0.0-2.0-0.7-0.70-3.70,0,0,1,68,false,stim,false,2,1243.0,0,1,2,34858,task3,400020,false,true,372,image-keyboard-response,17
true,3,2,1,2,true,d,false,true,0.0-2.0-0.7-0.71-3.71,0,0,1,68,false,stim,false,1,946.0,0,0,0,34858,task3,402471,false,false,375,image-keyboard-response,18
true,3,2,1,2,true,d,false,true,0.0-2.0-0.8-0.72-3.72,0,0,1,68,false,stim,false,1,516.0,0,1,0,34858,task3,404494,false,false,378,image-keyboard-response,19
true,3,2,1,2,true,d,false,true,0.0-2.0-0.8-0.73-3.73,0,0,1,68,false,stim,false,1,591.0,0,1,0,34858,task3,406590,false,false,381,image-keyboard-response,20
true,3,2,1,2,true,d,false,true,0.0-2.0-0.8-0.74-3.74,0,0,1,68,false,stim,false,1,759.0,0,1,0,34858,task3,408855,false,false,384,image-keyboard-response,21
true,3,1,1,0,false,q,false,false,0.0-2.0-0.8-0.75-3.75,0,0,1,90,false,stim,true,1,1156.0000000000582,0,0,1,34858,task3,411515,false,false,387,image-keyboard-response,22
true,3,0,1,0,true,q,false,true,0.0-2.0-0.8-0.76-3.76,0,0,1,81,false,stim,false,1,916.9999999999418,0,0,1,34858,task3,413938,false,false,390,image-keyboard-response,23
true,4,1,2,2,false,d,true,false,0.0-2.0-0.8-0.77-3.77,1,0,1,90,true,stim,false,2,752.0,0,1,2,34858,task3,416195,false,false,393,image-keyboard-response,1
true,4,0,2,2,false,d,true,false,0.0-2.0-0.8-0.78-3.78,1,0,1,81,false,stim,false,2,1060.0,0,1,2,34858,task3,418761,false,false,396,image-keyboard-response,2
true,4,2,2,1,false,z,true,false,0.0-2.0-0.8-0.79-3.79,1,0,1,68,false,stim,false,0,349.0,0,0,1,34858,task3,420615,false,false,399,image-keyboard-response,3
true,4,2,2,2,true,d,false,true,0.0-2.0-0.8-0.80-3.80,1,0,1,68,false,stim,false,2,470.0,0,1,2,34858,task3,422593,false,false,402,image-keyboard-response,4
true,4,2,2,2,true,d,false,true,0.0-2.0-0.9-0.81-3.81,1,0,1,68,false,stim,false,2,422.0,0,1,2,34858,task3,424522,false,false,405,image-keyboard-response,5
true,4,1,2,1,true,z,false,true,0.0-2.0-0.9-0.82-3.82,1,0,1,90,false,stim,false,0,727.9999999999418,0,0,1,34858,task3,426756,false,false,408,image-keyboard-response,6
true,4,0,2,2,false,d,true,false,0.0-2.0-0.9-0.83-3.83,1,0,1,81,false,stim,false,2,1112.0,0,1,0,34858,task3,429374,false,false,411,image-keyboard-response,7
true,4,1,2,2,false,d,true,false,0.0-2.0-0.9-0.84-3.84,1,0,1,90,false,stim,false,2,983.0,0,1,0,34858,task3,431863,false,false,414,image-keyboard-response,8
true,4,1,2,1,true,z,false,true,0.0-2.0-0.9-0.85-3.85,1,0,1,90,false,stim,false,0,1252.9999999999418,0,0,1,34858,task3,434620,false,false,417,image-keyboard-response,9
true,4,2,2,2,true,d,false,true,0.0-2.0-0.9-0.86-3.86,1,0,1,68,false,stim,false,2,1977.0,0,1,2,34858,task3,438102,false,false,420,image-keyboard-response,10
true,4,2,2,2,true,d,false,true,0.0-2.0-0.9-0.87-3.87,1,0,1,68,false,stim,false,2,821.0,0,1,0,34858,task3,440429,false,false,423,image-keyboard-response,11
true,4,1,2,1,true,z,false,true,0.0-2.0-0.9-0.88-3.88,1,0,1,90,false,stim,false,0,967.0,0,1,1,34858,task3,442901,false,false,426,image-keyboard-response,12
true,4,2,2,2,true,d,false,true,0.0-2.0-0.9-0.89-3.89,1,0,1,68,false,stim,false,2,982.0,0,0,2,34858,task3,445389,false,false,429,image-keyboard-response,13
true,4,1,2,1,true,z,false,true,0.0-2.0-0.10-0.90-3.90,1,0,1,90,false,stim,false,0,1087.0,0,1,1,34858,task3,447981,false,false,432,image-keyboard-response,14
true,4,2,2,2,true,d,false,true,0.0-2.0-0.10-0.91-3.91,1,0,1,68,false,stim,false,2,652.0,0,1,0,34858,task3,450138,false,false,435,image-keyboard-response,15
true,5,2,2,1,false,z,false,false,0.0-2.0-0.10-0.92-3.92,1,1,0,68,true,stim,true,2,1434.0,0,0,2,34858,task3,453078,false,false,438,image-keyboard-response,1
true,5,1,2,1,true,z,false,true,0.0-2.0-0.10-0.93-3.93,1,1,0,90,false,stim,false,1,1094.0000000000582,0,1,1,34858,task3,455678,false,false,441,image-keyboard-response,2
true,5,2,2,2,true,d,false,true,0.0-2.0-0.10-0.94-3.94,1,1,0,68,false,stim,false,2,714.0,0,1,0,34858,task3,457899,false,false,444,image-keyboard-response,3
true,5,2,2,2,true,d,false,false,0.0-2.0-0.10-0.95-3.95,1,1,0,68,false,stim,false,2,476.0,0,1,0,34858,task3,459882,false,true,447,image-keyboard-response,4
true,5,1,2,1,true,z,false,true,0.0-2.0-0.10-0.96-3.96,1,1,0,90,false,stim,false,1,731.0000000000582,0,1,1,34858,task3,462118,false,false,450,image-keyboard-response,5
true,5,2,2,1,false,z,false,false,0.0-2.0-0.10-0.97-3.97,1,1,0,68,false,stim,true,2,1707.0,0,0,2,34858,task3,465329,false,false,453,image-keyboard-response,6
true,5,0,2,1,false,z,true,false,0.0-2.0-0.10-0.98-3.98,1,1,0,81,false,stim,false,2,755.0000000000582,0,0,2,34858,task3,467590,false,false,456,image-keyboard-response,7
true,5,2,2,1,false,z,false,false,0.0-2.0-0.11-0.99-3.99,1,1,0,68,false,stim,true,2,651.9999999999418,0,0,2,34858,task3,469747,false,false,459,image-keyboard-response,8
true,5,2,2,2,true,d,false,true,0.0-2.0-0.11-0.100-3.100,1,1,0,68,false,stim,false,2,1587.0000000000582,0,1,0,34858,task3,472840,false,false,462,image-keyboard-response,9
true,5,1,2,1,true,z,false,true,0.0-2.0-0.11-0.101-3.101,1,1,0,90,false,stim,false,1,690.0,0,1,1,34858,task3,475036,false,false,465,image-keyboard-response,10
true,5,2,2,2,true,d,false,true,0.0-2.0-0.11-0.102-3.102,1,1,0,68,false,stim,false,2,2020.0,0,1,0,34858,task3,478561,false,false,468,image-keyboard-response,11
true,5,2,2,1,false,z,false,false,0.0-2.0-0.11-0.103-3.103,1,1,0,68,false,stim,true,2,726.0,0,0,2,34858,task3,480793,false,false,471,image-keyboard-response,12
true,5,1,2,1,true,z,false,true,0.0-2.0-0.11-0.104-3.104,1,1,0,90,false,stim,false,1,851.0,0,1,1,34858,task3,483150,false,false,474,image-keyboard-response,13
true,5,2,2,1,false,z,false,false,0.0-2.0-0.11-0.105-3.105,1,1,0,68,false,stim,true,2,647.9999999999418,0,0,2,34858,task3,485303,false,false,477,image-keyboard-response,14
true,5,0,2,2,false,d,true,true,0.0-2.0-0.11-0.106-3.106,1,1,0,81,false,stim,false,2,478.9999999999418,0,1,0,34858,task3,487287,false,true,480,image-keyboard-response,15
true,5,1,2,1,true,z,false,true,0.0-2.0-0.11-0.107-3.107,1,1,0,90,false,stim,false,1,2805.0,0,1,1,34858,task3,491599,false,false,483,image-keyboard-response,16
true,5,2,2,1,false,z,false,false,0.0-2.0-0.12-0.108-3.108,1,1,0,68,false,stim,true,2,786.0,0,0,2,34858,task3,493890,false,false,486,image-keyboard-response,17
true,5,0,2,1,false,z,true,false,0.0-2.0-0.12-0.109-3.109,1,1,0,81,false,stim,false,2,847.0,0,0,2,34858,task3,496243,false,false,489,image-keyboard-response,18
true,5,1,2,1,true,z,false,true,0.0-2.0-0.12-0.110-3.110,1,1,0,90,false,stim,false,2,484.9999999999418,0,0,2,34858,task3,498234,false,false,492,image-keyboard-response,19
true,5,0,2,2,false,d,true,false,0.0-2.0-0.12-0.111-3.111,1,1,0,81,false,stim,false,2,1002.0,0,1,0,34858,task3,500742,false,false,495,image-keyboard-response,20
true,5,2,2,1,false,z,true,false,0.0-2.0-0.12-0.112-3.112,1,1,0,68,false,stim,false,1,757.0,0,1,1,34858,task3,503005,false,false,498,image-keyboard-response,21
true,5,1,2,2,false,d,true,false,0.0-2.0-0.12-0.113-3.113,1,1,0,90,false,stim,false,2,862.0,0,1,0,34858,task3,505375,false,false,501,image-keyboard-response,22
true,5,0,2,1,false,z,true,false,0.0-2.0-0.12-0.114-3.114,1,1,0,81,false,stim,false,1,273.0,0,1,1,34858,task3,507153,false,false,504,image-keyboard-response,23
true,5,2,2,1,false,z,true,true,0.0-2.0-0.12-0.115-3.115,1,1,0,68,false,stim,false,1,329.0,0,1,1,34858,task3,508988,false,true,507,image-keyboard-response,24
true,5,1,2,2,false,d,true,false,0.0-2.0-0.12-0.116-3.116,1,1,0,90,false,stim,false,2,2644.0,0,1,0,34858,task3,513138,false,false,510,image-keyboard-response,25
true,5,0,2,2,false,d,true,false,0.0-2.0-0.13-0.117-3.117,1,1,0,81,false,stim,false,2,952.0,0,1,0,34858,task3,515595,false,false,513,image-keyboard-response,26
true,5,1,2,1,true,z,false,true,0.0-2.0-0.13-0.118-3.118,1,1,0,90,false,stim,false,2,791.9999999999418,0,0,2,34858,task3,517894,false,false,516,image-keyboard-response,27
true,5,1,2,1,true,z,false,true,0.0-2.0-0.13-0.119-3.119,1,1,0,90,false,stim,false,2,1294.9999999999418,0,0,2,34858,task3,520695,false,false,519,image-keyboard-response,28
true,6,2,2,1,false,z,true,false,0.0-2.0-0.13-0.120-3.120,1,1,0,68,true,stim,false,1,587.0,0,1,1,34858,task3,522788,false,false,522,image-keyboard-response,1
true,6,1,2,2,false,d,true,false,0.0-2.0-0.13-0.121-3.121,1,1,0,90,false,stim,false,2,417.0,0,1,0,34858,task3,524710,false,false,525,image-keyboard-response,2
true,6,0,2,1,false,z,true,false,0.0-2.0-0.13-0.122-3.122,1,1,0,81,false,stim,false,1,418.0,0,1,1,34858,task3,526633,false,false,528,image-keyboard-response,3
true,6,2,2,0,false,q,true,false,0.0-2.0-0.13-0.123-3.123,1,1,0,68,false,stim,false,1,730.0,0,0,2,34858,task3,528869,false,false,531,image-keyboard-response,4
true,6,1,2,1,true,z,false,true,0.0-2.0-0.13-0.124-3.124,1,1,0,90,false,stim,false,1,468.0,0,1,1,34858,task3,530843,false,false,534,image-keyboard-response,5
true,6,1,2,2,false,d,true,false,0.0-2.0-0.13-0.125-3.125,1,1,0,90,false,stim,false,2,583.0,0,1,0,34858,task3,532931,false,false,537,image-keyboard-response,6
true,6,2,2,0,false,q,true,false,0.0-2.0-0.14-0.126-3.126,1,1,0,68,false,stim,false,1,392.0000000001164,0,0,2,34858,task3,534829,false,false,540,image-keyboard-response,7
true,6,0,2,2,false,d,true,false,0.0-2.0-0.14-0.127-3.127,1,1,0,81,false,stim,false,2,2181.0,0,1,0,34858,task3,538515,false,false,543,image-keyboard-response,8
true,6,1,2,1,true,z,false,true,0.0-2.0-0.14-0.128-3.128,1,1,0,90,false,stim,false,1,739.0,0,1,1,34858,task3,540760,false,false,546,image-keyboard-response,9
true,6,1,2,1,true,z,false,true,0.0-2.0-0.14-0.129-3.129,1,1,0,90,false,stim,false,1,437.0000000001164,0,1,1,34858,task3,542703,false,false,549,image-keyboard-response,10
true,6,2,2,0,false,q,true,false,0.0-2.0-0.14-0.130-3.130,1,1,0,68,false,stim,false,1,961.0,0,1,2,34858,task3,545169,false,false,552,image-keyboard-response,11
true,6,0,2,2,false,d,true,false,0.0-2.0-0.14-0.131-3.131,1,1,0,81,false,stim,false,2,618.0,0,0,0,34858,task3,547292,false,false,555,image-keyboard-response,12
true,6,1,2,1,true,z,false,true,0.0-2.0-0.14-0.132-3.132,1,1,0,90,false,stim,false,1,494.0,0,1,1,34858,task3,549292,false,false,558,image-keyboard-response,13
true,6,2,2,0,false,q,true,false,0.0-2.0-0.14-0.133-3.133,1,1,0,68,false,stim,false,1,503.0,0,1,2,34858,task3,551301,false,false,561,image-keyboard-response,14
true,7,0,2,1,false,z,true,false,0.0-2.0-0.14-0.134-3.134,0,1,1,81,true,stim,false,2,794.0,0,0,0,34858,task3,553601,false,false,564,image-keyboard-response,1
true,7,1,2,1,true,z,false,true,0.0-2.0-0.15-0.135-3.135,0,1,1,90,false,stim,false,2,440.0,0,0,0,34858,task3,555546,false,false,567,image-keyboard-response,2
true,7,2,2,0,false,q,true,false,0.0-2.0-0.15-0.136-3.136,0,1,1,68,false,stim,false,0,1441.0,0,1,2,34858,task3,558493,false,false,570,image-keyboard-response,3
true,7,1,2,0,false,q,true,false,0.0-2.0-0.15-0.137-3.137,0,1,1,90,false,stim,false,0,490.0,0,1,2,34858,task3,560488,false,false,573,image-keyboard-response,4
true,7,0,2,0,true,q,false,false,0.0-2.0-0.15-0.138-3.138,0,1,1,81,false,stim,false,0,1933.0,0,1,2,34858,task3,563926,false,true,576,image-keyboard-response,5
true,7,1,2,1,true,z,false,true,0.0-2.0-0.15-0.139-3.139,0,1,1,90,false,stim,false,1,487.9999999998836,0,1,1,34858,task3,565918,false,false,579,image-keyboard-response,6
true,7,1,2,1,true,z,false,true,0.0-2.0-0.15-0.140-3.140,0,1,1,90,false,stim,false,1,409.0,0,1,1,34858,task3,567833,false,false,582,image-keyboard-response,7
true,7,1,2,1,true,z,false,true,0.0-2.0-0.15-0.141-3.141,0,1,1,90,false,stim,false,2,448.0,0,0,0,34858,task3,569788,false,false,585,image-keyboard-response,8
true,7,1,2,1,true,z,false,true,0.0-2.0-0.15-0.142-3.142,0,1,1,90,false,stim,false,1,429.0000000001164,0,1,1,34858,task3,571724,false,false,588,image-keyboard-response,9
true,7,1,2,1,true,z,false,true,0.0-2.0-0.15-0.143-3.143,0,1,1,90,false,stim,false,2,862.0,0,0,0,34858,task3,574092,false,false,591,image-keyboard-response,10
true,7,1,2,1,true,z,false,true,0.0-2.0-0.16-0.144-3.144,0,1,1,90,false,stim,false,1,487.9999999998836,0,1,1,34858,task3,576087,false,false,594,image-keyboard-response,11
true,7,2,2,0,false,q,true,true,0.0-2.0-0.16-0.145-3.145,0,1,1,68,false,stim,false,0,1950.0,0,1,2,34858,task3,579542,false,true,597,image-keyboard-response,12
true,7,1,2,1,true,z,false,false,0.0-2.0-0.16-0.146-3.146,0,1,1,90,false,stim,false,1,1188.0,0,1,1,34858,task3,582234,false,true,600,image-keyboard-response,13
true,7,1,2,1,true,z,false,true,0.0-2.0-0.16-0.147-3.147,0,1,1,90,false,stim,false,1,536.0,0,1,1,34858,task3,584281,false,false,603,image-keyboard-response,14
true,7,1,2,1,true,z,false,false,0.0-2.0-0.16-0.148-3.148,0,1,1,90,false,stim,false,2,711.0000000001164,0,0,0,34858,task3,586498,false,true,606,image-keyboard-response,15
true,7,0,2,1,false,z,true,false,0.0-2.0-0.16-0.149-3.149,0,1,1,81,false,stim,false,2,1231.0,0,0,0,34858,task3,589235,false,false,609,image-keyboard-response,16
true,7,2,2,0,false,q,true,false,0.0-2.0-0.16-0.150-3.150,0,1,1,68,false,stim,false,0,989.0,0,1,2,34858,task3,591728,false,false,612,image-keyboard-response,17
true,7,0,2,0,true,q,false,true,0.0-2.0-0.16-0.151-3.151,0,1,1,81,false,stim,false,0,630.0,0,1,2,34858,task3,593864,false,false,615,image-keyboard-response,18
true,7,1,2,1,true,z,false,true,0.0-2.0-0.16-0.152-3.152,0,1,1,90,false,stim,false,2,599.0,0,0,0,34858,task3,595969,false,false,618,image-keyboard-response,19
true,7,1,2,1,true,z,false,true,0.0-2.0-0.17-0.153-3.153,0,1,1,90,false,stim,false,2,734.9999999998836,0,0,0,34858,task3,598210,false,false,621,image-keyboard-response,20
true,7,1,2,1,true,z,false,true,0.0-2.0-0.17-0.154-3.154,0,1,1,90,false,stim,false,2,500.0,0,0,0,34858,task3,600214,false,false,624,image-keyboard-response,21
true,7,0,2,0,true,q,false,true,0.0-2.0-0.17-0.155-3.155,0,1,1,81,false,stim,false,0,832.0,0,1,2,34858,task3,602552,false,false,627,image-keyboard-response,22
true,7,1,2,1,true,z,false,true,0.0-2.0-0.17-0.156-3.156,0,1,1,90,false,stim,false,1,775.0,0,1,1,34858,task3,604833,false,false,630,image-keyboard-response,23
true,7,0,2,0,true,q,false,true,0.0-2.0-0.17-0.157-3.157,0,1,1,81,false,stim,false,0,1335.0,0,1,2,34858,task3,607676,false,false,633,image-keyboard-response,24
true,7,0,2,0,true,q,false,true,0.0-2.0-0.17-0.158-3.158,0,1,1,81,false,stim,false,0,1426.0,0,1,2,34858,task3,610606,false,false,636,image-keyboard-response,25
true,7,1,2,1,true,z,false,true,0.0-2.0-0.17-0.159-3.159,0,1,1,90,false,stim,false,2,846.0,0,0,0,34858,task3,612958,false,false,639,image-keyboard-response,26
true,7,1,2,1,true,z,false,true,0.0-2.0-0.17-0.160-3.160,0,1,1,90,false,stim,false,1,1102.0,0,1,1,34858,task3,615566,false,false,642,image-keyboard-response,27
true,8,1,2,1,true,z,false,true,0.0-2.0-0.17-0.161-3.161,0,1,1,90,true,stim,false,1,634.0000000001164,0,1,1,34858,task3,617706,false,false,645,image-keyboard-response,1
true,8,1,2,1,true,z,false,true,0.0-2.0-0.18-0.162-3.162,0,1,1,90,false,stim,false,1,455.0,0,1,1,34858,task3,619666,false,false,648,image-keyboard-response,2
true,8,0,2,0,true,q,false,true,0.0-2.0-0.18-0.163-3.163,0,1,1,81,false,stim,false,0,775.0,0,1,2,34858,task3,621945,false,false,651,image-keyboard-response,3
true,8,1,2,0,false,q,false,false,0.0-2.0-0.18-0.164-3.164,0,1,1,90,false,stim,true,1,554.0,0,0,0,34858,task3,624006,false,false,654,image-keyboard-response,4
true,8,1,2,0,false,q,false,false,0.0-2.0-0.18-0.165-3.165,0,1,1,90,false,stim,true,1,594.0,0,0,0,34858,task3,626107,false,false,657,image-keyboard-response,5
true,8,1,2,1,true,z,false,true,0.0-2.0-0.18-0.166-3.166,0,1,1,90,false,stim,false,1,485.0,0,1,1,34858,task3,628098,false,false,660,image-keyboard-response,6
true,8,1,2,0,false,q,true,false,0.0-2.0-0.18-0.167-3.167,0,1,1,90,false,stim,false,0,459.0,0,1,2,34858,task3,630063,false,false,663,image-keyboard-response,7
true,8,0,2,1,false,z,true,false,0.0-2.0-0.18-0.168-3.168,0,1,1,81,false,stim,false,1,325.0,0,0,1,34858,task3,631894,false,false,666,image-keyboard-response,8
true,8,1,2,0,false,q,false,false,0.0-2.0-0.18-0.169-3.169,0,1,1,90,false,stim,true,1,653.0,0,1,0,34858,task3,634053,false,false,669,image-keyboard-response,9
true,8,1,2,0,false,q,true,false,0.0-2.0-0.18-0.170-3.170,0,1,1,90,false,stim,false,0,439.0,0,0,2,34858,task3,635998,false,false,672,image-keyboard-response,10
true,8,0,2,0,true,q,false,true,0.0-2.0-0.19-0.171-3.171,0,1,1,81,false,stim,false,0,309.0,0,0,2,34858,task3,637812,false,false,675,image-keyboard-response,11
true,8,0,2,0,true,q,false,true,0.0-2.0-0.19-0.172-3.172,0,1,1,81,false,stim,false,1,435.0,0,1,0,34858,task3,639750,false,false,678,image-keyboard-response,12
true,9,0,1,2,false,d,true,false,0.0-2.0-0.19-0.173-3.173,1,0,0,81,true,stim,false,1,248.99999999988358,0,0,1,34858,task3,641504,false,false,681,image-keyboard-response,1
true,9,1,1,0,false,q,true,true,0.0-2.0-0.19-0.174-3.174,1,0,0,90,false,stim,false,0,412.0,0,1,0,34858,task3,643422,false,true,684,image-keyboard-response,2
true,9,1,1,2,false,d,false,false,0.0-2.0-0.19-0.175-3.175,1,0,0,90,false,stim,true,1,137.0,0,0,1,34858,task3,645067,false,false,687,image-keyboard-response,3
true,9,1,1,2,false,d,false,false,0.0-2.0-0.19-0.176-3.176,1,0,0,90,false,stim,true,1,262.0,0,0,1,34858,task3,646834,false,false,690,image-keyboard-response,4
true,9,0,1,1,false,z,false,false,0.0-2.0-0.19-0.177-3.177,1,0,0,81,false,stim,true,0,129.0,0,0,2,34858,task3,648468,false,false,693,image-keyboard-response,5
true,9,2,1,1,false,z,true,false,0.0-2.0-0.19-0.178-3.178,1,0,0,68,false,stim,false,0,427.0,0,0,2,34858,task3,650402,false,false,696,image-keyboard-response,6
true,9,1,1,0,false,q,true,false,0.0-2.0-0.19-0.179-3.179,1,0,0,90,false,stim,false,0,524.0,0,1,0,34858,task3,652431,false,false,699,image-keyboard-response,7
true,9,1,1,1,true,z,false,true,0.0-2.0-0.20-0.180-3.180,1,0,0,90,false,stim,false,0,66.0,0,0,2,34858,task3,654010,false,false,702,image-keyboard-response,8
true,9,1,1,2,false,d,false,false,0.0-2.0-0.20-0.181-3.181,1,0,0,90,false,stim,true,1,634.0,0,0,1,34858,task3,656150,false,false,705,image-keyboard-response,9
true,9,1,1,1,true,z,false,true,0.0-2.0-0.20-0.182-3.182,1,0,0,90,false,stim,false,0,565.0,0,0,2,34858,task3,658221,false,false,708,image-keyboard-response,10
true,9,0,1,0,true,q,false,true,0.0-2.0-0.20-0.183-3.183,1,0,0,81,false,stim,false,0,598.9999999998836,0,1,0,34858,task3,660325,false,false,711,image-keyboard-response,11
true,9,1,1,2,false,d,false,false,0.0-2.0-0.20-0.184-3.184,1,0,0,90,false,stim,true,1,827.0,0,0,1,34858,task3,662659,false,false,714,image-keyboard-response,12
true,9,0,1,0,true,q,false,true,0.0-2.0-0.20-0.185-3.185,1,0,0,81,false,stim,false,0,696.0,0,1,0,34858,task3,664860,false,false,717,image-keyboard-response,13
true,9,2,1,2,true,d,false,true,0.0-2.0-0.20-0.186-3.186,1,0,0,68,false,stim,false,1,912.0,0,0,1,34858,task3,667278,false,false,720,image-keyboard-response,14
true,9,1,1,0,false,q,true,false,0.0-2.0-0.20-0.187-3.187,1,0,0,90,false,stim,false,0,668.9999999998836,0,1,0,34858,task3,669453,false,false,723,image-keyboard-response,15
true,9,1,1,1,true,z,false,true,0.0-2.0-0.20-0.188-3.188,1,0,0,90,false,stim,false,0,398.0,0,0,2,34858,task3,671357,false,false,726,image-keyboard-response,16
true,9,1,1,1,true,z,false,true,0.0-2.0-0.21-0.189-3.189,1,0,0,90,false,stim,false,0,716.0,0,0,2,34858,task3,673581,false,false,729,image-keyboard-response,17
true,9,0,1,0,true,q,false,false,0.0-2.0-0.21-0.190-3.190,1,0,0,81,false,stim,false,0,444.0,0,1,0,34858,task3,675531,false,true,732,image-keyboard-response,18
true,9,0,1,0,true,q,false,true,0.0-2.0-0.21-0.191-3.191,1,0,0,81,false,stim,false,0,494.0,0,1,0,34858,task3,677532,false,false,735,image-keyboard-response,19
true,9,2,1,2,true,d,false,true,0.0-2.0-0.21-0.192-3.192,1,0,0,68,false,stim,false,1,835.0,0,0,1,34858,task3,679873,false,false,738,image-keyboard-response,20
true,9,1,1,1,true,z,false,true,0.0-2.0-0.21-0.193-3.193,1,0,0,90,false,stim,false,0,871.0,0,0,2,34858,task3,682250,false,false,741,image-keyboard-response,21
true,9,1,1,1,true,z,false,true,0.0-2.0-0.21-0.194-3.194,1,0,0,90,false,stim,false,0,501.9999999998836,0,0,2,34858,task3,684257,false,false,744,image-keyboard-response,22
true,9,2,1,2,true,d,false,true,0.0-2.0-0.21-0.195-3.195,1,0,0,68,false,stim,false,1,1014.0,0,0,1,34858,task3,686777,false,false,747,image-keyboard-response,23
true,9,2,1,2,true,d,false,true,0.0-2.0-0.21-0.196-3.196,1,0,0,68,false,stim,false,1,423.0,0,0,1,34858,task3,688706,false,false,750,image-keyboard-response,24
true,9,0,1,0,true,q,false,true,0.0-2.0-0.21-0.197-3.197,1,0,0,81,false,stim,false,0,1397.0,0,1,0,34858,task3,691610,false,false,753,image-keyboard-response,25
true,9,1,1,1,true,z,false,true,0.0-2.0-0.22-0.198-3.198,1,0,0,90,false,stim,false,0,1445.0,0,1,2,34858,task3,694564,false,false,756,image-keyboard-response,26
true,9,2,1,2,true,d,false,false,0.0-2.0-0.22-0.199-3.199,1,0,0,68,false,stim,false,1,783.0000000001164,0,0,1,34858,task3,696852,false,true,759,image-keyboard-response,27
true,9,2,1,2,true,d,false,true,0.0-2.0-0.22-0.200-3.200,1,0,0,68,false,stim,false,1,771.9999999998836,0,0,1,34858,task3,699129,false,false,762,image-keyboard-response,28
true,9,0,1,0,true,q,false,true,0.0-2.0-0.22-0.201-3.201,1,0,0,81,false,stim,false,0,1352.0,0,1,0,34858,task3,701987,false,false,765,image-keyboard-response,29
true,10,0,2,0,true,q,false,true,0.0-2.0-0.22-0.202-3.202,1,0,1,81,true,stim,false,0,1031.0,0,1,0,34858,task3,704525,false,false,768,image-keyboard-response,1
true,10,2,2,0,false,q,false,false,0.0-2.0-0.22-0.203-3.203,1,0,1,68,false,stim,true,2,1024.9999999998836,0,0,1,34858,task3,707056,false,false,771,image-keyboard-response,2
true,10,1,2,1,true,z,false,true,0.0-2.0-0.22-0.204-3.204,1,0,1,90,false,stim,false,1,1567.0,0,1,2,34858,task3,710128,false,false,774,image-keyboard-response,3
true,10,1,2,1,true,z,false,true,0.0-2.0-0.22-0.205-3.205,1,0,1,90,false,stim,false,1,707.0,0,1,2,34858,task3,712340,false,false,777,image-keyboard-response,4
true,10,0,2,0,true,q,false,true,0.0-2.0-0.22-0.206-3.206,1,0,1,81,false,stim,false,0,698.0,0,1,0,34858,task3,714543,false,false,780,image-keyboard-response,5
true,10,2,2,0,false,q,false,false,0.0-2.0-0.23-0.207-3.207,1,0,1,68,false,stim,true,2,864.9999999998836,0,0,1,34858,task3,716915,false,false,783,image-keyboard-response,6
true,10,1,2,1,true,z,false,true,0.0-2.0-0.23-0.208-3.208,1,0,1,90,false,stim,false,1,876.0,0,1,2,34858,task3,719298,false,false,786,image-keyboard-response,7
true,10,1,2,1,true,z,false,true,0.0-2.0-0.23-0.209-3.209,1,0,1,90,false,stim,false,1,597.9999999998836,0,1,2,34858,task3,721403,false,false,789,image-keyboard-response,8
true,10,2,2,0,false,q,false,true,0.0-2.0-0.23-0.210-3.210,1,0,1,68,false,stim,true,2,1244.0,0,0,1,34858,task3,724153,false,true,792,image-keyboard-response,9
true,10,2,2,0,false,q,false,false,0.0-2.0-0.23-0.211-3.211,1,0,1,68,false,stim,true,2,681.0,0,0,1,34858,task3,726342,false,false,795,image-keyboard-response,10
true,10,0,2,0,true,q,false,true,0.0-2.0-0.23-0.212-3.212,1,0,1,81,false,stim,false,0,1343.9999999998836,0,1,0,34858,task3,729192,false,false,798,image-keyboard-response,11
true,10,0,2,0,true,q,false,true,0.0-2.0-0.23-0.213-3.213,1,0,1,81,false,stim,false,0,533.0,0,1,0,34858,task3,731238,false,false,801,image-keyboard-response,12
true,10,0,2,0,true,q,false,true,0.0-2.0-0.23-0.214-3.214,1,0,1,81,false,stim,false,0,572.0,0,1,0,34858,task3,733316,false,false,804,image-keyboard-response,13
true,10,1,2,1,true,z,false,true,0.0-2.0-0.23-0.215-3.215,1,0,1,90,false,stim,false,1,1153.0,0,1,2,34858,task3,735975,false,false,807,image-keyboard-response,14
true,10,0,2,0,true,q,false,true,0.0-2.0-0.24-0.216-3.216,1,0,1,81,false,stim,false,0,1095.0,0,1,0,34858,task3,738576,false,false,810,image-keyboard-response,15
true,10,0,2,0,true,q,false,true,0.0-2.0-0.24-0.217-3.217,1,0,1,81,false,stim,false,0,621.0000000001164,0,1,0,34858,task3,740704,false,false,813,image-keyboard-response,16
true,10,1,2,1,true,z,false,true,0.0-2.0-0.24-0.218-3.218,1,0,1,90,false,stim,false,1,1757.0,0,1,2,34858,task3,743968,false,false,816,image-keyboard-response,17
true,10,2,2,0,false,q,false,false,0.0-2.0-0.24-0.219-3.219,1,0,1,68,false,stim,true,2,537.0,0,0,1,34858,task3,746012,false,false,819,image-keyboard-response,18
true,10,1,2,1,true,z,false,true,0.0-2.0-0.24-0.220-3.220,1,0,1,90,false,stim,false,1,887.0,0,1,2,34858,task3,748404,false,false,822,image-keyboard-response,19
true,10,2,2,0,false,q,false,true,0.0-2.0-0.24-0.221-3.221,1,0,1,68,false,stim,true,2,714.9999999998836,0,0,1,34858,task3,750626,false,true,825,image-keyboard-response,20
true,10,1,2,1,true,z,false,false,0.0-2.0-0.24-0.222-3.222,1,0,1,90,false,stim,false,1,960.0,0,1,2,34858,task3,753091,false,true,828,image-keyboard-response,21
true,10,2,2,0,false,q,false,true,0.0-2.0-0.24-0.223-3.223,1,0,1,68,false,stim,true,2,794.0,0,0,1,34858,task3,755392,false,true,831,image-keyboard-response,22
true,10,0,2,0,true,q,false,true,0.0-2.0-0.24-0.224-3.224,1,0,1,81,false,stim,false,0,995.0,0,1,0,34858,task3,757892,false,false,834,image-keyboard-response,23
true,10,1,2,1,true,z,false,true,0.0-2.0-0.25-0.225-3.225,1,0,1,90,false,stim,false,1,702.0,0,1,2,34858,task3,760104,false,false,837,image-keyboard-response,24
true,11,0,2,0,true,q,false,true,0.0-2.0-0.25-0.226-3.226,1,0,1,81,true,stim,false,0,753.0,0,1,0,34858,task3,762364,false,false,840,image-keyboard-response,1
true,11,0,2,0,true,q,false,true,0.0-2.0-0.25-0.227-3.227,1,0,1,81,false,stim,false,0,653.0000000001164,0,1,0,34858,task3,764522,false,false,843,image-keyboard-response,2
true,11,2,2,1,false,z,true,false,0.0-2.0-0.25-0.228-3.228,1,0,1,68,false,stim,false,0,780.0,0,0,1,34858,task3,766808,false,false,846,image-keyboard-response,3
true,11,2,2,1,false,z,true,false,0.0-2.0-0.25-0.229-3.229,1,0,1,68,false,stim,false,0,601.0,0,0,1,34858,task3,768915,false,false,849,image-keyboard-response,4
true,11,2,2,1,false,z,true,false,0.0-2.0-0.25-0.230-3.230,1,0,1,68,false,stim,false,0,520.0,0,0,1,34858,task3,770944,false,false,852,image-keyboard-response,5
true,11,1,2,1,true,z,false,true,0.0-2.0-0.25-0.231-3.231,1,0,1,90,false,stim,false,1,1472.0,0,1,2,34858,task3,773920,false,false,855,image-keyboard-response,6
true,11,0,2,0,true,q,false,true,0.0-2.0-0.25-0.232-3.232,1,0,1,81,false,stim,false,0,763.9999999998836,0,1,0,34858,task3,776190,false,false,858,image-keyboard-response,7
true,11,1,2,1,true,z,false,true,0.0-2.0-0.25-0.233-3.233,1,0,1,90,false,stim,false,1,956.0000000001164,0,0,2,34858,task3,778653,false,false,861,image-keyboard-response,8
true,11,2,2,1,false,z,true,false,0.0-2.0-0.26-0.234-3.234,1,0,1,68,false,stim,false,0,712.0,0,1,1,34858,task3,780871,false,false,864,image-keyboard-response,9
true,11,0,2,0,true,q,false,true,0.0-2.0-0.26-0.235-3.235,1,0,1,81,false,stim,false,0,638.9999999998836,0,1,0,34858,task3,783018,false,false,867,image-keyboard-response,10
true,11,1,2,1,true,z,false,true,0.0-2.0-0.26-0.236-3.236,1,0,1,90,false,stim,false,1,760.0,0,0,2,34858,task3,785286,false,false,870,image-keyboard-response,11
true,12,1,2,2,false,d,false,false,0.0-2.0-0.26-0.237-3.237,1,1,0,90,true,stim,true,1,673.0,0,0,2,34858,task3,787465,false,false,873,image-keyboard-response,1
true,12,0,2,0,true,q,false,true,0.0-2.0-0.26-0.238-3.238,1,1,0,81,false,stim,false,0,739.0,0,1,0,34858,task3,789710,false,false,876,image-keyboard-response,2
true,12,0,2,0,true,q,false,true,0.0-2.0-0.26-0.239-3.239,1,1,0,81,false,stim,false,0,574.0,0,1,0,34858,task3,791790,false,false,879,image-keyboard-response,3
true,12,2,2,1,false,z,true,false,0.0-2.0-0.26-0.240-3.240,1,1,0,68,false,stim,false,1,1057.0,0,1,1,34858,task3,794353,false,false,882,image-keyboard-response,4
true,12,1,2,2,false,d,false,false,0.0-2.0-0.26-0.241-3.241,1,1,0,90,false,stim,true,1,1168.0,0,0,2,34858,task3,797029,false,false,885,image-keyboard-response,5
true,12,2,2,1,false,z,true,false,0.0-2.0-0.26-0.242-3.242,1,1,0,68,false,stim,false,1,694.0000000001164,0,1,1,34858,task3,799230,false,false,888,image-keyboard-response,6
true,12,2,2,2,true,d,false,true,0.0-2.0-0.27-0.243-3.243,1,1,0,68,false,stim,false,1,826.0,0,0,2,34858,task3,801564,false,false,891,image-keyboard-response,7
true,12,0,2,0,true,q,false,true,0.0-2.0-0.27-0.244-3.244,1,1,0,81,false,stim,false,0,1274.0,0,1,0,34858,task3,804344,false,false,894,image-keyboard-response,8
true,12,1,2,1,true,z,false,true,0.0-2.0-0.27-0.245-3.245,1,1,0,90,false,stim,false,1,747.0,0,1,1,34858,task3,806600,false,false,897,image-keyboard-response,9
true,12,2,2,2,true,d,false,false,0.0-2.0-0.27-0.246-3.246,1,1,0,68,false,stim,false,1,1083.0000000001164,0,0,2,34858,task3,809188,false,true,900,image-keyboard-response,10
true,12,1,2,1,true,z,false,true,0.0-2.0-0.27-0.247-3.247,1,1,0,90,false,stim,false,1,835.9999999998836,0,0,1,34858,task3,811538,false,false,903,image-keyboard-response,11
true,12,1,2,1,true,z,false,true,0.0-2.0-0.27-0.248-3.248,1,1,0,90,false,stim,false,1,616.0,0,0,1,34858,task3,813660,false,false,906,image-keyboard-response,12
true,12,0,2,0,true,q,false,true,0.0-2.0-0.27-0.249-3.249,1,1,0,81,false,stim,false,0,624.0,0,1,0,34858,task3,815790,false,false,909,image-keyboard-response,13
true,12,0,2,0,true,q,false,true,0.0-2.0-0.27-0.250-3.250,1,1,0,81,false,stim,false,0,674.0,0,1,0,34858,task3,817969,false,false,912,image-keyboard-response,14
true,12,2,2,2,true,d,false,true,0.0-2.0-0.27-0.251-3.251,1,1,0,68,false,stim,false,1,803.0,0,1,2,34858,task3,820281,false,false,915,image-keyboard-response,15
true,13,2,2,2,true,d,false,false,0.0-2.0-0.28-0.252-3.252,1,0,1,68,true,stim,false,2,514.0,0,1,2,34858,task3,822302,false,true,918,image-keyboard-response,1
true,13,0,2,0,true,q,false,true,0.0-2.0-0.28-0.253-3.253,1,0,1,81,false,stim,false,0,899.0,0,1,0,34858,task3,824707,false,false,921,image-keyboard-response,2
true,13,1,2,2,false,d,false,false,0.0-2.0-0.28-0.254-3.254,1,0,1,90,false,stim,true,1,896.9999999998836,0,0,1,34858,task3,827109,false,false,924,image-keyboard-response,3
true,13,0,2,0,true,q,false,true,0.0-2.0-0.28-0.255-3.255,1,0,1,81,false,stim,false,0,836.0,0,1,0,34858,task3,829450,false,false,927,image-keyboard-response,4
true,13,1,2,2,false,d,false,false,0.0-2.0-0.28-0.256-3.256,1,0,1,90,false,stim,true,1,715.0000000001164,0,0,1,34858,task3,831674,false,false,930,image-keyboard-response,5
true,13,2,2,2,true,d,false,true,0.0-2.0-0.28-0.257-3.257,1,0,1,68,false,stim,false,2,676.0000000001164,0,1,2,34858,task3,833856,false,false,933,image-keyboard-response,6
true,13,2,2,2,true,d,false,true,0.0-2.0-0.28-0.258-3.258,1,0,1,68,false,stim,false,2,513.0000000001164,0,1,2,34858,task3,835875,false,false,936,image-keyboard-response,7
true,13,0,2,2,false,d,true,false,0.0-2.0-0.28-0.259-3.259,1,0,1,81,false,stim,false,1,913.0,0,1,1,34858,task3,838296,false,false,939,image-keyboard-response,8
true,13,0,2,0,true,q,false,true,0.0-2.0-0.28-0.260-3.260,1,0,1,81,false,stim,false,0,748.0,0,1,0,34858,task3,840550,false,false,942,image-keyboard-response,9
true,13,2,2,2,true,d,false,true,0.0-2.0-0.29-0.261-3.261,1,0,1,68,false,stim,false,1,685.0,0,1,1,34858,task3,842744,false,false,945,image-keyboard-response,10
true,13,0,2,0,true,q,false,true,0.0-2.0-0.29-0.262-3.262,1,0,1,81,false,stim,false,0,2534.0,0,1,0,34858,task3,846783,false,false,948,image-keyboard-response,11
true,13,2,2,2,true,d,false,false,0.0-2.0-0.29-0.263-3.263,1,0,1,68,false,stim,false,2,735.0,0,0,2,34858,task3,849023,false,true,951,image-keyboard-response,12
true,14,2,2,2,true,d,false,false,0.0-2.0-0.29-0.264-3.264,1,1,0,68,true,stim,false,2,970.0,0,1,1,34858,task3,851499,false,true,954,image-keyboard-response,1
true,14,2,2,0,false,q,false,true,0.0-2.0-0.29-0.265-3.265,1,1,0,68,false,stim,true,2,559.0000000001164,0,0,2,34858,task3,853564,false,true,957,image-keyboard-response,2
true,14,0,2,0,true,q,false,true,0.0-2.0-0.29-0.266-3.266,1,1,0,81,false,stim,false,0,870.0,0,1,0,34858,task3,855942,false,false,960,image-keyboard-response,3
true,14,2,2,0,false,q,false,false,0.0-2.0-0.29-0.267-3.267,1,1,0,68,false,stim,true,2,583.9999999998836,0,0,2,34858,task3,858032,false,false,963,image-keyboard-response,4
true,14,2,2,2,true,d,false,true,0.0-2.0-0.29-0.268-3.268,1,1,0,68,false,stim,false,2,1447.9999999998836,0,1,1,34858,task3,860983,false,false,966,image-keyboard-response,5
true,14,0,2,0,true,q,false,true,0.0-2.0-0.29-0.269-3.269,1,1,0,81,false,stim,false,0,740.0,0,1,0,34858,task3,863229,false,false,969,image-keyboard-response,6
true,14,0,2,0,true,q,false,true,0.0-2.0-0.30-0.270-3.270,1,1,0,81,false,stim,false,0,533.0,0,1,0,34858,task3,865272,false,false,972,image-keyboard-response,7
true,14,2,2,2,true,d,false,true,0.0-2.0-0.30-0.271-3.271,1,1,0,68,false,stim,false,2,867.0,0,1,1,34858,task3,867645,false,false,975,image-keyboard-response,8
true,14,1,2,0,false,q,true,false,0.0-2.0-0.30-0.272-3.272,1,1,0,90,false,stim,false,2,947.0,0,0,2,34858,task3,870099,false,false,978,image-keyboard-response,9
true,14,0,2,0,true,q,false,true,0.0-2.0-0.30-0.273-3.273,1,1,0,81,false,stim,false,0,828.0,0,1,0,34858,task3,872433,false,false,981,image-keyboard-response,10
true,14,0,2,0,true,q,false,true,0.0-2.0-0.30-0.274-3.274,1,1,0,81,false,stim,false,2,924.0000000001164,0,0,2,34858,task3,874862,false,false,984,image-keyboard-response,11
true,14,0,2,0,true,q,false,false,0.0-2.0-0.30-0.275-3.275,1,1,0,81,false,stim,false,0,685.0,0,1,0,34858,task3,877054,false,true,987,image-keyboard-response,12
true,14,2,2,2,true,d,false,true,0.0-2.0-0.30-0.276-3.276,1,1,0,68,false,stim,false,2,751.9999999998836,0,1,1,34858,task3,879312,false,false,990,image-keyboard-response,13
true,14,1,2,0,false,q,true,false,0.0-2.0-0.30-0.277-3.277,1,1,0,90,false,stim,false,2,790.0000000001164,0,0,2,34858,task3,881608,false,false,993,image-keyboard-response,14
true,14,2,2,2,true,d,false,true,0.0-2.0-0.30-0.278-3.278,1,1,0,68,false,stim,false,2,1077.0,0,1,1,34858,task3,884192,false,false,996,image-keyboard-response,15
true,14,0,2,0,true,q,false,false,0.0-2.0-0.31-0.279-3.279,1,1,0,81,false,stim,false,0,699.9999999998836,0,1,0,34858,task3,886399,false,true,999,image-keyboard-response,16
true,14,2,2,2,true,d,false,true,0.0-2.0-0.31-0.280-3.280,1,1,0,68,false,stim,false,2,422.0000000001164,0,1,1,34858,task3,888334,false,false,1002,image-keyboard-response,17
true,14,2,2,0,false,q,false,false,0.0-2.0-0.31-0.281-3.281,1,1,0,68,false,stim,true,2,420.0,0,0,2,34858,task3,890261,false,false,1005,image-keyboard-response,18
true,14,0,2,0,true,q,false,true,0.0-2.0-0.31-0.282-3.282,1,1,0,81,false,stim,false,2,767.0,0,0,2,34858,task3,892535,false,false,1008,image-keyboard-response,19
true,14,1,2,0,false,q,true,false,0.0-2.0-0.31-0.283-3.283,1,1,0,90,false,stim,false,0,1277.0,0,0,0,34858,task3,895319,false,false,1011,image-keyboard-response,20
true,14,0,2,2,false,d,true,false,0.0-2.0-0.31-0.284-3.284,1,1,0,81,false,stim,false,2,719.0,0,1,1,34858,task3,897546,false,false,1014,image-keyboard-response,21
true,14,0,2,0,true,q,false,true,0.0-2.0-0.31-0.285-3.285,1,1,0,81,false,stim,false,0,464.0,0,0,0,34858,task3,899515,false,false,1017,image-keyboard-response,22
true,14,0,2,0,true,q,false,true,0.0-2.0-0.31-0.286-3.286,1,1,0,81,false,stim,false,2,622.0,0,0,2,34858,task3,901643,false,false,1020,image-keyboard-response,23
true,14,2,2,2,true,d,false,true,0.0-2.0-0.31-0.287-3.287,1,1,0,68,false,stim,false,2,395.0,0,1,1,34858,task3,903544,false,false,1023,image-keyboard-response,24
true,15,0,1,1,false,z,false,false,0.0-2.0-0.32-0.288-3.288,0,1,0,81,true,stim,true,0,651.0,0,0,0,34858,task3,905701,false,false,1026,image-keyboard-response,1
true,15,1,1,1,true,z,false,true,0.0-2.0-0.32-0.289-3.289,0,1,0,90,false,stim,false,0,866.0,0,0,0,34858,task3,908074,false,false,1029,image-keyboard-response,2
true,15,2,1,2,true,d,false,true,0.0-2.0-0.32-0.290-3.290,0,1,0,68,false,stim,false,2,1256.9999999998836,0,1,1,34858,task3,910837,false,false,1032,image-keyboard-response,3
true,15,2,1,2,true,d,false,true,0.0-2.0-0.32-0.291-3.291,0,1,0,68,false,stim,false,2,533.0,0,1,1,34858,task3,912877,false,false,1035,image-keyboard-response,4
true,15,0,1,1,false,z,false,false,0.0-2.0-0.32-0.292-3.292,0,1,0,81,false,stim,true,0,884.0,0,0,2,34858,task3,915268,false,false,1038,image-keyboard-response,5
true,15,1,1,1,true,z,false,true,0.0-2.0-0.32-0.293-3.293,0,1,0,90,false,stim,false,0,767.0,0,0,0,34858,task3,917543,false,false,1041,image-keyboard-response,6
true,15,2,1,1,false,z,true,false,0.0-2.0-0.32-0.294-3.294,0,1,0,68,false,stim,false,0,848.0,0,0,2,34858,task3,919898,false,false,1044,image-keyboard-response,7
true,15,0,1,1,false,z,false,false,0.0-2.0-0.32-0.295-3.295,0,1,0,81,false,stim,true,0,1626.0,0,0,2,34858,task3,923030,false,false,1047,image-keyboard-response,8
true,15,2,1,2,true,d,false,true,0.0-2.0-0.32-0.296-3.296,0,1,0,68,false,stim,false,2,949.0,0,1,1,34858,task3,925487,false,false,1050,image-keyboard-response,9
true,15,2,1,2,true,d,false,true,0.0-2.0-0.33-0.297-3.297,0,1,0,68,false,stim,false,2,1152.0,0,1,1,34858,task3,928147,false,false,1053,image-keyboard-response,10
true,15,1,1,1,true,z,false,true,0.0-2.0-0.33-0.298-3.298,0,1,0,90,false,stim,false,0,1337.0,0,0,2,34858,task3,930989,false,false,1056,image-keyboard-response,11
true,15,1,1,1,true,z,false,true,0.0-2.0-0.33-0.299-3.299,0,1,0,90,false,stim,false,0,573.0,0,0,0,34858,task3,933069,false,false,1059,image-keyboard-response,12
true,15,2,1,2,true,d,false,true,0.0-2.0-0.33-0.300-3.300,0,1,0,68,false,stim,false,2,853.0,0,1,1,34858,task3,935429,false,false,1062,image-keyboard-response,13
true,15,1,1,1,true,z,false,true,0.0-2.0-0.33-0.301-3.301,0,1,0,90,false,stim,false,0,1113.0,0,0,0,34858,task3,938053,false,false,1065,image-keyboard-response,14
true,15,2,1,2,true,d,false,true,0.0-2.0-0.33-0.302-3.302,0,1,0,68,false,stim,false,2,762.0,0,1,1,34858,task3,940322,false,false,1068,image-keyboard-response,15
true,15,1,1,1,true,z,false,true,0.0-2.0-0.33-0.303-3.303,0,1,0,90,false,stim,false,0,847.0,0,0,0,34858,task3,942675,false,false,1071,image-keyboard-response,16
true,15,1,1,1,true,z,false,true,0.0-2.0-0.33-0.304-3.304,0,1,0,90,false,stim,false,0,854.9999999998836,0,0,2,34858,task3,945037,false,false,1074,image-keyboard-response,17
true,15,1,1,1,true,z,false,true,0.0-2.0-0.33-0.305-3.305,0,1,0,90,false,stim,false,0,631.0,0,0,2,34858,task3,947175,false,false,1077,image-keyboard-response,18
true,15,1,1,1,true,z,false,true,0.0-2.0-0.34-0.306-3.306,0,1,0,90,false,stim,false,0,836.0,0,1,0,34858,task3,949516,false,false,1080,image-keyboard-response,19
true,15,2,1,2,true,d,false,false,0.0-2.0-0.34-0.307-3.307,0,1,0,68,false,stim,false,2,449.0,0,0,1,34858,task3,951471,false,true,1083,image-keyboard-response,20
true,15,0,1,1,false,z,false,false,0.0-2.0-0.34-0.308-3.308,0,1,0,81,false,stim,true,0,479.0,0,0,2,34858,task3,953456,false,false,1086,image-keyboard-response,21
true,15,1,1,1,true,z,false,true,0.0-2.0-0.34-0.309-3.309,0,1,0,90,false,stim,false,0,476.0,0,0,2,34858,task3,955439,false,false,1089,image-keyboard-response,22
true,15,1,1,2,false,d,true,false,0.0-2.0-0.34-0.310-3.310,0,1,0,90,false,stim,false,2,933.0,0,0,1,34858,task3,957877,false,false,1092,image-keyboard-response,23
true,16,1,1,0,false,q,false,false,0.0-2.0-0.34-0.311-3.311,1,0,0,90,true,stim,true,1,693.0,0,0,2,34858,task3,960080,false,false,1095,image-keyboard-response,1
true,16,0,1,1,false,z,true,true,0.0-2.0-0.34-0.312-3.312,1,0,0,81,false,stim,false,1,607.0,0,1,0,34858,task3,962195,false,true,1098,image-keyboard-response,2
true,16,1,1,0,false,q,true,false,0.0-2.0-0.34-0.313-3.313,1,0,0,90,false,stim,false,2,630.9999999998836,0,0,1,34858,task3,964342,false,false,1101,image-keyboard-response,3
true,16,0,1,1,false,z,true,true,0.0-2.0-0.34-0.314-3.314,1,0,0,81,false,stim,false,1,602.0,0,1,0,34858,task3,966450,false,true,1104,image-keyboard-response,4
true,16,1,1,0,false,q,false,false,0.0-2.0-0.35-0.315-3.315,1,0,0,90,false,stim,true,1,751.9999999998836,0,0,2,34858,task3,968709,false,false,1107,image-keyboard-response,5
true,16,2,1,0,false,q,false,false,0.0-2.0-0.35-0.316-3.316,1,0,0,68,false,stim,true,2,657.0,0,0,1,34858,task3,970871,false,false,1110,image-keyboard-response,6
true,16,0,1,0,true,q,false,false,0.0-2.0-0.35-0.317-3.317,1,0,0,81,false,stim,false,1,676.0000000001164,0,0,2,34858,task3,973057,false,true,1113,image-keyboard-response,7
true,16,0,1,0,true,q,false,true,0.0-2.0-0.35-0.318-3.318,1,0,0,81,false,stim,false,2,1447.0,0,0,1,34858,task3,976011,false,false,1116,image-keyboard-response,8
true,16,0,1,1,false,z,true,false,0.0-2.0-0.35-0.319-3.319,1,0,0,81,false,stim,false,1,1041.0,0,1,0,34858,task3,978558,false,false,1119,image-keyboard-response,9
true,16,2,1,0,false,q,false,false,0.0-2.0-0.35-0.320-3.320,1,0,0,68,false,stim,true,2,810.0000000001164,0,0,1,34858,task3,980875,false,false,1122,image-keyboard-response,10
true,16,1,1,1,true,z,false,true,0.0-2.0-0.35-0.321-3.321,1,0,0,90,false,stim,false,1,1514.0,0,1,0,34858,task3,983899,false,false,1125,image-keyboard-response,11
true,16,1,1,1,true,z,false,true,0.0-2.0-0.35-0.322-3.322,1,0,0,90,false,stim,false,1,823.0,0,1,0,34858,task3,986229,false,false,1128,image-keyboard-response,12
true,16,0,1,0,true,q,false,false,0.0-2.0-0.35-0.323-3.323,1,0,0,81,false,stim,false,1,942.0,0,0,2,34858,task3,988678,false,true,1131,image-keyboard-response,13
true,16,1,1,1,true,z,false,true,0.0-2.0-0.36-0.324-3.324,1,0,0,90,false,stim,false,1,600.0,0,1,0,34858,task3,990786,false,false,1134,image-keyboard-response,14
true,16,0,1,0,true,q,false,true,0.0-2.0-0.36-0.325-3.325,1,0,0,81,false,stim,false,2,782.0,0,0,1,34858,task3,993075,false,false,1137,image-keyboard-response,15
true,16,1,1,1,true,z,false,true,0.0-2.0-0.36-0.326-3.326,1,0,0,90,false,stim,false,1,948.0000000001164,0,1,0,34858,task3,995529,false,false,1140,image-keyboard-response,16
true,16,2,1,0,false,q,true,false,0.0-2.0-0.36-0.327-3.327,1,0,0,68,false,stim,false,1,810.0,0,0,2,34858,task3,997849,false,false,1143,image-keyboard-response,17
true,16,0,1,0,true,q,false,true,0.0-2.0-0.36-0.328-3.328,1,0,0,81,false,stim,false,2,730.0,0,0,1,34858,task3,1000085,false,false,1146,image-keyboard-response,18
true,16,1,1,0,false,q,false,false,0.0-2.0-0.36-0.329-3.329,1,0,0,90,false,stim,true,1,1211.9999999998836,0,0,2,34858,task3,1002804,false,false,1149,image-keyboard-response,19
true,16,0,1,0,true,q,false,true,0.0-2.0-0.36-0.330-3.330,1,0,0,81,false,stim,false,2,762.0,0,0,1,34858,task3,1005072,false,false,1152,image-keyboard-response,20
true,16,0,1,0,true,q,false,true,0.0-2.0-0.36-0.331-3.331,1,0,0,81,false,stim,false,1,461.0,0,0,2,34858,task3,1007042,false,false,1155,image-keyboard-response,21
true,16,1,1,1,true,z,false,true,0.0-2.0-0.36-0.332-3.332,1,0,0,90,false,stim,false,1,756.0,0,1,0,34858,task3,1009304,false,false,1158,image-keyboard-response,22
true,16,0,1,0,true,q,false,true,0.0-2.0-0.37-0.333-3.333,1,0,0,81,false,stim,false,2,834.0,0,1,1,34858,task3,1011645,false,false,1161,image-keyboard-response,23
true,16,0,1,0,true,q,false,true,0.0-2.0-0.37-0.334-3.334,1,0,0,81,false,stim,false,2,598.0,0,1,1,34858,task3,1013752,false,false,1164,image-keyboard-response,24
true,16,1,1,1,true,z,false,true,0.0-2.0-0.37-0.335-3.335,1,0,0,90,false,stim,false,1,1224.0,0,1,0,34858,task3,1016482,false,false,1167,image-keyboard-response,25
true,16,1,1,1,true,z,false,true,0.0-2.0-0.37-0.336-3.336,1,0,0,90,false,stim,false,1,689.0,0,1,0,34858,task3,1018676,false,false,1170,image-keyboard-response,26
true,16,1,1,1,true,z,false,true,0.0-2.0-0.37-0.337-3.337,1,0,0,90,false,stim,false,1,801.0,0,1,0,34858,task3,1020983,false,false,1173,image-keyboard-response,27
true,17,0,2,1,false,z,false,false,0.0-2.0-0.37-0.338-3.338,1,1,0,81,true,stim,true,0,755.0,0,0,2,34858,task3,1023246,false,false,1176,image-keyboard-response,1
true,17,0,2,0,true,q,false,true,0.0-2.0-0.37-0.339-3.339,1,1,0,81,false,stim,false,0,909.0000000001164,0,1,1,34858,task3,1025662,false,false,1179,image-keyboard-response,2
true,17,0,2,1,false,z,false,false,0.0-2.0-0.37-0.340-3.340,1,1,0,81,false,stim,true,0,2724.9999999998836,0,0,2,34858,task3,1029892,false,false,1182,image-keyboard-response,3
true,17,1,2,1,true,z,false,true,0.0-2.0-0.37-0.341-3.341,1,1,0,90,false,stim,false,0,683.9999999998836,0,0,2,34858,task3,1032084,false,false,1185,image-keyboard-response,4
true,17,1,2,1,true,z,false,true,0.0-2.0-0.38-0.342-3.342,1,1,0,90,false,stim,false,1,2588.0,0,1,0,34858,task3,1036180,false,false,1188,image-keyboard-response,5
true,17,0,2,0,true,q,false,true,0.0-2.0-0.38-0.343-3.343,1,1,0,81,false,stim,false,0,653.0,0,1,1,34858,task3,1038339,false,false,1191,image-keyboard-response,6
true,17,0,2,0,true,q,false,true,0.0-2.0-0.38-0.344-3.344,1,1,0,81,false,stim,false,0,733.9999999998836,0,1,1,34858,task3,1040580,false,false,1194,image-keyboard-response,7
true,17,1,2,1,true,z,false,true,0.0-2.0-0.38-0.345-3.345,1,1,0,90,false,stim,false,0,1089.9999999998836,0,1,2,34858,task3,1043178,false,false,1197,image-keyboard-response,8
true,17,1,2,1,true,z,false,true,0.0-2.0-0.38-0.346-3.346,1,1,0,90,false,stim,false,0,517.0000000001164,0,1,2,34858,task3,1045202,false,false,1200,image-keyboard-response,9
true,17,0,2,1,false,z,true,false,0.0-2.0-0.38-0.347-3.347,1,1,0,81,false,stim,false,1,797.0,0,0,0,34858,task3,1047515,false,false,1203,image-keyboard-response,10
true,17,1,2,1,true,z,false,true,0.0-2.0-0.38-0.348-3.348,1,1,0,90,false,stim,false,0,942.0,0,1,2,34858,task3,1049964,false,false,1206,image-keyboard-response,11
true,18,1,2,2,false,d,false,false,0.0-2.0-0.38-0.349-3.349,0,1,1,90,true,stim,true,1,751.9999999997672,0,0,0,34858,task3,1052223,false,false,1209,image-keyboard-response,1
true,18,2,2,0,false,q,true,false,0.0-2.0-0.38-0.350-3.350,0,1,1,68,false,stim,false,0,915.9999999997672,0,1,1,34858,task3,1054647,false,false,1212,image-keyboard-response,2
true,18,1,2,1,true,z,false,true,0.0-2.0-0.39-0.351-3.351,0,1,1,90,false,stim,false,1,1001.9999999997672,0,1,2,34858,task3,1057155,false,false,1215,image-keyboard-response,3
true,18,0,2,0,true,q,false,true,0.0-2.0-0.39-0.352-3.352,0,1,1,81,false,stim,false,0,1055.0,0,1,1,34858,task3,1059717,false,false,1218,image-keyboard-response,4
true,18,1,2,1,true,z,false,true,0.0-2.0-0.39-0.353-3.353,0,1,1,90,false,stim,false,1,1238.0,0,1,2,34858,task3,1062461,false,false,1221,image-keyboard-response,5
true,18,2,2,2,true,d,false,true,0.0-2.0-0.39-0.354-3.354,0,1,1,68,false,stim,false,1,745.0,0,0,0,34858,task3,1064713,false,false,1224,image-keyboard-response,6
true,18,0,2,0,true,q,false,true,0.0-2.0-0.39-0.355-3.355,0,1,1,81,false,stim,false,0,888.0,0,1,1,34858,task3,1067108,false,false,1227,image-keyboard-response,7
true,18,0,2,0,true,q,false,true,0.0-2.0-0.39-0.356-3.356,0,1,1,81,false,stim,false,0,596.9999999997672,0,1,1,34858,task3,1069212,false,false,1230,image-keyboard-response,8
true,18,1,2,1,true,z,false,true,0.0-2.0-0.39-0.357-3.357,0,1,1,90,false,stim,false,1,929.0,0,1,2,34858,task3,1071647,false,false,1233,image-keyboard-response,9
true,18,2,2,2,true,d,false,true,0.0-2.0-0.39-0.358-3.358,0,1,1,68,false,stim,false,1,1402.0,0,1,0,34858,task3,1074556,false,false,1236,image-keyboard-response,10
true,18,2,2,2,true,d,false,false,0.0-2.0-0.39-0.359-3.359,0,1,1,68,false,stim,false,1,697.0,0,1,0,34858,task3,1076760,false,true,1239,image-keyboard-response,11
true,18,0,2,0,true,q,false,true,0.0-2.0-0.40-0.360-3.360,0,1,1,81,false,stim,false,0,1370.0,0,0,1,34858,task3,1079638,false,false,1242,image-keyboard-response,12
true,18,0,2,2,false,d,true,false,0.0-2.0-0.40-0.361-3.361,0,1,1,81,false,stim,false,1,831.0,0,1,0,34858,task3,1081976,false,false,1245,image-keyboard-response,13
true,18,1,2,1,true,z,false,true,0.0-2.0-0.40-0.362-3.362,0,1,1,90,false,stim,false,1,750.0,0,0,2,34858,task3,1084233,false,false,1248,image-keyboard-response,14
true,19,1,1,0,false,q,false,false,0.0-2.0-0.40-0.363-3.363,1,0,0,90,true,stim,true,1,753.0,0,0,2,34858,task3,1086493,false,false,1251,image-keyboard-response,1
true,19,2,1,2,true,d,false,true,0.0-2.0-0.40-0.364-3.364,1,0,0,68,false,stim,false,2,701.0,0,1,0,34858,task3,1088701,false,false,1254,image-keyboard-response,2
true,19,0,1,2,false,d,false,false,0.0-2.0-0.40-0.365-3.365,1,0,0,81,false,stim,true,0,982.0,0,0,1,34858,task3,1091190,false,false,1257,image-keyboard-response,3
true,19,2,1,0,false,q,true,false,0.0-2.0-0.40-0.366-3.366,1,0,0,68,false,stim,false,1,572.0,0,0,2,34858,task3,1093269,false,false,1260,image-keyboard-response,4
true,19,2,1,2,true,d,false,true,0.0-2.0-0.40-0.367-3.367,1,0,0,68,false,stim,false,2,596.0,0,1,0,34858,task3,1095372,false,false,1263,image-keyboard-response,5
true,19,1,1,2,false,d,true,false,0.0-2.0-0.40-0.368-3.368,1,0,0,90,false,stim,false,0,952.0,0,0,1,34858,task3,1097830,false,false,1266,image-keyboard-response,6
true,19,0,1,0,true,q,false,true,0.0-2.0-0.41-0.369-3.369,1,0,0,81,false,stim,false,1,820.9999999997672,0,0,2,34858,task3,1100158,false,false,1269,image-keyboard-response,7
true,19,2,1,2,true,d,false,false,0.0-2.0-0.41-0.370-3.370,1,0,0,68,false,stim,false,2,1692.0000000002328,0,1,0,34858,task3,1103358,false,true,1272,image-keyboard-response,8
true,19,2,1,2,true,d,false,true,0.0-2.0-0.41-0.371-3.371,1,0,0,68,false,stim,false,2,965.0,0,1,0,34858,task3,1105829,false,false,1275,image-keyboard-response,9
true,19,0,1,0,true,q,false,false,0.0-2.0-0.41-0.372-3.372,1,0,0,81,false,stim,false,1,797.0,0,0,2,34858,task3,1108133,false,true,1278,image-keyboard-response,10
true,19,1,1,0,false,q,false,false,0.0-2.0-0.41-0.373-3.373,1,0,0,90,false,stim,true,1,920.0,0,0,2,34858,task3,1110561,false,false,1281,image-keyboard-response,11
true,19,0,1,2,false,d,false,false,0.0-2.0-0.41-0.374-3.374,1,0,0,81,false,stim,true,0,695.0,0,0,1,34858,task3,1112763,false,false,1284,image-keyboard-response,12
true,19,2,1,2,true,d,false,true,0.0-2.0-0.41-0.375-3.375,1,0,0,68,false,stim,false,0,731.0,0,0,1,34858,task3,1115001,false,false,1287,image-keyboard-response,13
true,19,2,1,2,true,d,false,true,0.0-2.0-0.41-0.376-3.376,1,0,0,68,false,stim,false,0,614.0,0,0,1,34858,task3,1117122,false,false,1290,image-keyboard-response,14
true,19,2,1,2,true,d,false,true,0.0-2.0-0.41-0.377-3.377,1,0,0,68,false,stim,false,2,707.0,0,1,0,34858,task3,1119336,false,false,1293,image-keyboard-response,15
true,19,2,1,2,true,d,false,true,0.0-2.0-0.42-0.378-3.378,1,0,0,68,false,stim,false,2,978.0,0,1,0,34858,task3,1121821,false,false,1296,image-keyboard-response,16
true,19,0,1,0,true,q,false,true,0.0-2.0-0.42-0.379-3.379,1,0,0,81,false,stim,false,1,1472.0000000002328,0,0,2,34858,task3,1124799,false,false,1299,image-keyboard-response,17
true,19,2,1,2,true,d,false,true,0.0-2.0-0.42-0.380-3.380,1,0,0,68,false,stim,false,2,775.0,0,1,0,34858,task3,1127089,false,false,1302,image-keyboard-response,18
true,19,2,1,2,true,d,false,true,0.0-2.0-0.42-0.381-3.381,1,0,0,68,false,stim,false,0,905.0,0,1,1,34858,task3,1129501,false,false,1305,image-keyboard-response,19
true,19,2,1,2,true,d,false,false,0.0-2.0-0.42-0.382-3.382,1,0,0,68,false,stim,false,0,396.0,0,1,1,34858,task3,1131404,false,true,1308,image-keyboard-response,20
true,19,0,1,0,true,q,false,true,0.0-2.0-0.42-0.383-3.383,1,0,0,81,false,stim,false,1,766.0,0,0,2,34858,task3,1133677,false,false,1311,image-keyboard-response,21
true,19,2,1,2,true,d,false,true,0.0-2.0-0.42-0.384-3.384,1,0,0,68,false,stim,false,0,1219.0,0,1,1,34858,task3,1136402,false,false,1314,image-keyboard-response,22
true,19,1,1,2,false,d,true,false,0.0-2.0-0.42-0.385-3.385,1,0,0,90,false,stim,false,2,1770.0,0,0,0,34858,task3,1139680,false,false,1317,image-keyboard-response,23
true,20,0,1,2,false,d,false,false,0.0-2.0-0.42-0.386-3.386,0,1,0,81,true,stim,true,0,569.0,0,0,2,34858,task3,1141756,false,false,1320,image-keyboard-response,1
true,20,2,1,2,true,d,false,true,0.0-2.0-0.43-0.387-3.387,0,1,0,68,false,stim,false,2,445.0,0,1,1,34858,task3,1143709,false,false,1323,image-keyboard-response,2
true,20,0,1,2,false,d,false,false,0.0-2.0-0.43-0.388-3.388,0,1,0,81,false,stim,true,0,784.0,0,0,2,34858,task3,1146000,false,false,1326,image-keyboard-response,3
true,20,1,1,2,false,d,true,false,0.0-2.0-0.43-0.389-3.389,0,1,0,90,false,stim,false,0,590.0,0,0,2,34858,task3,1148096,false,false,1329,image-keyboard-response,4
true,20,0,1,1,false,z,true,false,0.0-2.0-0.43-0.390-3.390,0,1,0,81,false,stim,false,2,860.0,0,0,0,34858,task3,1150462,false,false,1332,image-keyboard-response,5
true,20,1,1,1,true,z,false,true,0.0-2.0-0.43-0.391-3.391,0,1,0,90,false,stim,false,2,1024.0000000002328,0,0,0,34858,task3,1152993,false,false,1335,image-keyboard-response,6
true,20,2,1,2,true,d,false,true,0.0-2.0-0.43-0.392-3.392,0,1,0,68,false,stim,false,0,617.0,0,0,2,34858,task3,1155116,false,false,1338,image-keyboard-response,7
true,20,2,1,2,true,d,false,true,0.0-2.0-0.43-0.393-3.393,0,1,0,68,false,stim,false,2,772.0,0,1,1,34858,task3,1157396,false,false,1341,image-keyboard-response,8
true,20,2,1,2,true,d,false,false,0.0-2.0-0.43-0.394-3.394,0,1,0,68,false,stim,false,2,472.0,0,1,1,34858,task3,1159374,false,true,1344,image-keyboard-response,9
true,20,2,1,1,false,z,false,false,0.0-2.0-0.43-0.395-3.395,0,1,0,68,false,stim,true,2,2867.0,0,0,0,34858,task3,1163746,false,false,1347,image-keyboard-response,10
true,20,0,1,2,false,d,false,false,0.0-2.0-0.44-0.396-3.396,0,1,0,81,false,stim,true,0,892.0000000002328,0,0,2,34858,task3,1166147,false,false,1350,image-keyboard-response,11
true,20,2,1,2,true,d,false,true,0.0-2.0-0.44-0.397-3.397,0,1,0,68,false,stim,false,0,320.0,0,0,2,34858,task3,1167973,false,false,1353,image-keyboard-response,12
true,20,1,1,2,false,d,true,false,0.0-2.0-0.44-0.398-3.398,0,1,0,90,false,stim,false,2,740.0,0,1,1,34858,task3,1170219,false,false,1356,image-keyboard-response,13
true,20,0,1,1,false,z,true,true,0.0-2.0-0.44-0.399-3.399,0,1,0,81,false,stim,false,2,516.0,0,0,0,34858,task3,1172242,false,true,1359,image-keyboard-response,14
true,20,1,1,2,false,d,true,false,0.0-2.0-0.44-0.400-3.400,0,1,0,90,false,stim,false,2,752.0,0,1,1,34858,task3,1174502,false,false,1362,image-keyboard-response,15
true,20,0,1,2,false,d,false,false,0.0-2.0-0.44-0.401-3.401,0,1,0,81,false,stim,true,0,1726.0000000002328,0,0,2,34858,task3,1177735,false,false,1365,image-keyboard-response,16
true,20,2,1,1,false,z,false,false,0.0-2.0-0.44-0.402-3.402,0,1,0,68,false,stim,true,2,504.0,0,0,0,34858,task3,1179746,false,false,1368,image-keyboard-response,17
true,20,0,1,2,false,d,true,false,0.0-2.0-0.44-0.403-3.403,0,1,0,81,false,stim,false,2,516.9999999997672,0,1,1,34858,task3,1181770,false,false,1371,image-keyboard-response,18
true,20,1,1,1,true,z,false,true,0.0-2.0-0.44-0.404-3.404,0,1,0,90,false,stim,false,2,611.0,0,0,0,34858,task3,1183888,false,false,1374,image-keyboard-response,19
true,20,2,1,2,true,d,false,true,0.0-2.0-0.45-0.405-3.405,0,1,0,68,false,stim,false,0,708.0,0,0,2,34858,task3,1186104,false,false,1377,image-keyboard-response,20
true,20,2,1,2,true,d,false,true,0.0-2.0-0.45-0.406-3.406,0,1,0,68,false,stim,false,2,760.9999999997672,0,1,1,34858,task3,1188371,false,false,1380,image-keyboard-response,21
true,20,1,1,1,true,z,false,true,0.0-2.0-0.45-0.407-3.407,0,1,0,90,false,stim,false,2,1006.0,0,0,0,34858,task3,1190884,false,false,1383,image-keyboard-response,22
true,20,1,1,1,true,z,false,true,0.0-2.0-0.45-0.408-3.408,0,1,0,90,false,stim,false,2,1124.0,0,0,0,34858,task3,1193515,false,false,1386,image-keyboard-response,23
true,20,2,1,2,true,d,false,true,0.0-2.0-0.45-0.409-3.409,0,1,0,68,false,stim,false,0,1126.0000000002328,0,1,2,34858,task3,1196148,false,false,1389,image-keyboard-response,24
true,20,2,1,2,true,d,false,true,0.0-2.0-0.45-0.410-3.410,0,1,0,68,false,stim,false,2,658.0,0,0,1,34858,task3,1198313,false,false,1392,image-keyboard-response,25
true,20,2,1,2,true,d,false,true,0.0-2.0-0.45-0.411-3.411,0,1,0,68,false,stim,false,2,567.0,0,0,1,34858,task3,1200386,false,false,1395,image-keyboard-response,26
true,20,0,1,2,false,d,false,false,0.0-2.0-0.45-0.412-3.412,0,1,0,81,false,stim,true,0,1509.0,0,1,2,34858,task3,1203401,false,false,1398,image-keyboard-response,27
true,20,1,1,1,true,z,false,true,0.0-2.0-0.45-0.413-3.413,0,1,0,90,false,stim,false,2,1781.9999999997672,0,0,0,34858,task3,1206700,false,false,1401,image-keyboard-response,28
true,21,2,1,0,false,q,false,false,0.0-2.0-0.46-0.414-3.414,0,0,1,68,true,stim,true,2,653.0,0,0,1,34858,task3,1208861,false,false,1404,image-keyboard-response,1
true,21,0,1,2,false,d,true,false,0.0-2.0-0.46-0.415-3.415,0,0,1,81,false,stim,false,2,1215.0,0,1,2,34858,task3,1211583,false,false,1407,image-keyboard-response,2
true,21,2,1,0,false,q,true,false,0.0-2.0-0.46-0.416-3.416,0,0,1,68,false,stim,false,1,469.0,0,0,0,34858,task3,1213558,false,false,1410,image-keyboard-response,3
true,21,2,1,2,true,d,false,true,0.0-2.0-0.46-0.417-3.417,0,0,1,68,false,stim,false,2,498.0,0,1,2,34858,task3,1215564,false,false,1413,image-keyboard-response,4
true,21,1,1,0,false,q,true,false,0.0-2.0-0.46-0.418-3.418,0,0,1,90,false,stim,false,2,824.0,0,0,1,34858,task3,1217894,false,false,1416,image-keyboard-response,5
true,21,0,1,0,true,q,false,true,0.0-2.0-0.46-0.419-3.419,0,0,1,81,false,stim,false,2,715.0,0,0,1,34858,task3,1220116,false,false,1419,image-keyboard-response,6
true,21,2,1,2,true,d,false,true,0.0-2.0-0.46-0.420-3.420,0,0,1,68,false,stim,false,2,704.0,0,1,2,34858,task3,1222326,false,false,1422,image-keyboard-response,7
true,21,1,1,0,false,q,false,false,0.0-2.0-0.46-0.421-3.421,0,0,1,90,false,stim,true,1,899.0,0,0,0,34858,task3,1224733,false,false,1425,image-keyboard-response,8
true,21,2,1,0,false,q,true,false,0.0-2.0-0.46-0.422-3.422,0,0,1,68,false,stim,false,1,568.0,0,0,0,34858,task3,1226808,false,false,1428,image-keyboard-response,9
true,21,0,1,0,true,q,false,true,0.0-2.0-0.47-0.423-3.423,0,0,1,81,false,stim,false,1,910.0,0,0,0,34858,task3,1229225,false,false,1431,image-keyboard-response,10
true,21,2,1,2,true,d,false,true,0.0-2.0-0.47-0.424-3.424,0,0,1,68,false,stim,false,2,819.0,0,1,2,34858,task3,1231552,false,false,1434,image-keyboard-response,11
true,21,0,1,0,true,q,false,true,0.0-2.0-0.47-0.425-3.425,0,0,1,81,false,stim,false,2,697.0,0,0,1,34858,task3,1233756,false,false,1437,image-keyboard-response,12
true,21,0,1,2,false,d,true,false,0.0-2.0-0.47-0.426-3.426,0,0,1,81,false,stim,false,2,1050.0,0,1,2,34858,task3,1236313,false,false,1440,image-keyboard-response,13
true,21,0,1,0,true,q,false,true,0.0-2.0-0.47-0.427-3.427,0,0,1,81,false,stim,false,2,784.0,0,0,1,34858,task3,1238604,false,false,1443,image-keyboard-response,14
true,21,0,1,0,true,q,false,true,0.0-2.0-0.47-0.428-3.428,0,0,1,81,false,stim,false,2,612.0,0,0,1,34858,task3,1240723,false,false,1446,image-keyboard-response,15
true,21,2,1,0,false,q,true,false,0.0-2.0-0.47-0.429-3.429,0,0,1,68,false,stim,false,1,689.0,0,0,0,34858,task3,1242920,false,false,1449,image-keyboard-response,16
true,21,2,1,0,false,q,true,false,0.0-2.0-0.47-0.430-3.430,0,0,1,68,false,stim,false,1,506.0,0,0,0,34858,task3,1244934,false,false,1452,image-keyboard-response,17
true,21,2,1,2,true,d,false,true,0.0-2.0-0.47-0.431-3.431,0,0,1,68,false,stim,false,2,266.0,0,1,2,34858,task3,1246705,false,false,1455,image-keyboard-response,18
true,21,1,1,0,false,q,false,false,0.0-2.0-0.48-0.432-3.432,0,0,1,90,false,stim,true,1,890.0,0,0,0,34858,task3,1249104,false,false,1458,image-keyboard-response,19
true,21,2,1,0,false,q,false,false,0.0-2.0-0.48-0.433-3.433,0,0,1,68,false,stim,true,2,153.0,0,0,1,34858,task3,1250764,false,false,1461,image-keyboard-response,20
true,21,2,1,0,false,q,false,false,0.0-2.0-0.48-0.434-3.434,0,0,1,68,false,stim,true,2,342.0,0,0,1,34858,task3,1252613,false,false,1464,image-keyboard-response,21
true,21,0,1,0,true,q,false,true,0.0-2.0-0.48-0.435-3.435,0,0,1,81,false,stim,false,2,381.0,0,0,1,34858,task3,1254501,false,false,1467,image-keyboard-response,22
true,21,1,1,2,false,d,true,false,0.0-2.0-0.48-0.436-3.436,0,0,1,90,false,stim,false,2,784.0,0,0,2,34858,task3,1256792,false,false,1470,image-keyboard-response,23
true,21,2,1,2,true,d,false,false,0.0-2.0-0.48-0.437-3.437,0,0,1,68,false,stim,false,2,198.0,0,0,2,34858,task3,1258497,false,true,1473,image-keyboard-response,24
true,21,0,1,2,false,d,true,false,0.0-2.0-0.48-0.438-3.438,0,0,1,81,false,stim,false,2,253.0,0,0,2,34858,task3,1260257,false,false,1476,image-keyboard-response,25
true,21,0,1,0,true,q,false,true,0.0-2.0-0.48-0.439-3.439,0,0,1,81,false,stim,false,1,234.0,0,0,0,34858,task3,1261998,false,false,1479,image-keyboard-response,26
true,21,2,1,0,false,q,true,false,0.0-2.0-0.48-0.440-3.440,0,0,1,68,false,stim,false,1,598.9999999997672,0,0,0,34858,task3,1264106,false,false,1482,image-keyboard-response,27
true,22,0,1,0,true,q,false,true,0.0-2.0-0.49-0.441-3.441,0,1,0,81,true,stim,false,2,134.0,0,0,2,34858,task3,1265749,false,false,1485,image-keyboard-response,1
true,22,0,1,0,true,q,false,true,0.0-2.0-0.49-0.442-3.442,0,1,0,81,false,stim,false,2,652.9999999997672,0,0,2,34858,task3,1267909,false,false,1488,image-keyboard-response,2
true,22,1,1,0,false,q,true,false,0.0-2.0-0.49-0.443-3.443,0,1,0,90,false,stim,false,0,807.0,0,1,1,34858,task3,1270225,false,false,1491,image-keyboard-response,3
true,22,2,1,2,true,d,false,true,0.0-2.0-0.49-0.444-3.444,0,1,0,68,false,stim,false,0,292.0,0,0,0,34858,task3,1272024,false,false,1494,image-keyboard-response,4
true,22,2,1,0,false,q,false,false,0.0-2.0-0.49-0.445-3.445,0,1,0,68,false,stim,true,2,527.0,0,0,2,34858,task3,1274058,false,false,1497,image-keyboard-response,5
true,22,1,1,0,false,q,true,false,0.0-2.0-0.49-0.446-3.446,0,1,0,90,false,stim,false,0,53.0,0,1,1,34858,task3,1275620,false,false,1500,image-keyboard-response,6
true,22,2,1,0,false,q,true,false,0.0-2.0-0.49-0.447-3.447,0,1,0,68,false,stim,false,0,546.0,0,1,1,34858,task3,1277683,false,false,1503,image-keyboard-response,7
true,22,2,1,2,true,d,false,true,0.0-2.0-0.49-0.448-3.448,0,1,0,68,false,stim,false,0,339.0,0,0,0,34858,task3,1279533,false,false,1506,image-keyboard-response,8
true,22,2,1,2,true,d,false,true,0.0-2.0-0.49-0.449-3.449,0,1,0,68,false,stim,false,0,443.0,0,0,0,34858,task3,1281483,false,false,1509,image-keyboard-response,9
true,22,1,1,0,false,q,true,false,0.0-2.0-0.50-0.450-3.450,0,1,0,90,false,stim,false,2,549.0,0,0,2,34858,task3,1283540,false,false,1512,image-keyboard-response,10
true,22,0,1,0,true,q,false,true,0.0-2.0-0.50-0.451-3.451,0,1,0,81,false,stim,false,0,183.0,0,1,1,34858,task3,1285229,false,false,1515,image-keyboard-response,11
true,22,1,1,0,false,q,true,false,0.0-2.0-0.50-0.452-3.452,0,1,0,90,false,stim,false,2,890.9999999997672,0,0,2,34858,task3,1287628,false,false,1518,image-keyboard-response,12
true,22,0,1,0,true,q,false,false,0.0-2.0-0.50-0.453-3.453,0,1,0,81,false,stim,false,0,411.0,0,1,1,34858,task3,1289547,false,true,1521,image-keyboard-response,13
true,22,2,1,0,false,q,true,false,0.0-2.0-0.50-0.454-3.454,0,1,0,68,false,stim,false,0,684.9999999997672,0,1,1,34858,task3,1291740,false,false,1524,image-keyboard-response,14
true,22,1,1,2,false,d,true,false,0.0-2.0-0.50-0.455-3.455,0,1,0,90,false,stim,false,0,2236.0,0,0,0,34858,task3,1295482,false,false,1527,image-keyboard-response,15
true,22,2,1,2,true,d,false,true,0.0-2.0-0.50-0.456-3.456,0,1,0,68,false,stim,false,0,773.0,0,0,0,34858,task3,1297763,false,false,1530,image-keyboard-response,16
true,22,0,1,0,true,q,false,false,0.0-2.0-0.50-0.457-3.457,0,1,0,81,false,stim,false,2,832.0,0,0,2,34858,task3,1300102,false,true,1533,image-keyboard-response,17
true,22,2,1,2,true,d,false,true,0.0-2.0-0.50-0.458-3.458,0,1,0,68,false,stim,false,0,517.0,0,0,0,34858,task3,1302127,false,false,1536,image-keyboard-response,18
true,22,1,1,0,false,q,true,false,0.0-2.0-0.51-0.459-3.459,0,1,0,90,false,stim,false,0,578.0,0,1,1,34858,task3,1304212,false,false,1539,image-keyboard-response,19
true,22,2,1,0,false,q,false,false,0.0-2.0-0.51-0.460-3.460,0,1,0,68,false,stim,true,2,665.9999999997672,0,0,2,34858,task3,1306385,false,false,1542,image-keyboard-response,20
true,22,2,1,0,false,q,false,false,0.0-2.0-0.51-0.461-3.461,0,1,0,68,false,stim,true,2,545.0,0,0,2,34858,task3,1308435,false,false,1545,image-keyboard-response,21
true,22,0,1,2,false,d,false,false,0.0-2.0-0.51-0.462-3.462,0,1,0,81,false,stim,true,0,398.0,0,0,0,34858,task3,1310340,false,false,1548,image-keyboard-response,22
true,22,2,1,2,true,d,false,true,0.0-2.0-0.51-0.463-3.463,0,1,0,68,false,stim,false,0,341.0,0,0,0,34858,task3,1312189,false,false,1551,image-keyboard-response,23
true,22,1,1,0,false,q,true,false,0.0-2.0-0.51-0.464-3.464,0,1,0,90,false,stim,false,0,569.0,0,0,1,34858,task3,1314265,false,false,1554,image-keyboard-response,24
true,22,0,1,0,true,q,false,true,0.0-2.0-0.51-0.465-3.465,0,1,0,81,false,stim,false,2,715.0,0,1,2,34858,task3,1316486,false,false,1557,image-keyboard-response,25
true,22,2,1,2,true,d,false,true,0.0-2.0-0.51-0.466-3.466,0,1,0,68,false,stim,false,0,509.0,0,0,0,34858,task3,1318502,false,false,1560,image-keyboard-response,26
true,22,1,1,0,false,q,true,false,0.0-2.0-0.51-0.467-3.467,0,1,0,90,false,stim,false,0,550.0,0,0,1,34858,task3,1320559,false,false,1563,image-keyboard-response,27
true,23,0,1,0,true,q,false,true,0.0-2.0-0.52-0.468-3.468,0,0,1,81,true,stim,false,0,553.0,0,1,2,34858,task3,1322621,false,false,1566,image-keyboard-response,1
true,23,2,1,1,false,z,false,false,0.0-2.0-0.52-0.469-3.469,0,0,1,68,false,stim,true,2,535.0,0,0,0,34858,task3,1324664,false,false,1569,image-keyboard-response,2
true,23,1,1,2,false,d,true,false,0.0-2.0-0.52-0.470-3.470,0,0,1,90,false,stim,false,0,962.9999999997672,0,0,1,34858,task3,1327134,false,false,1572,image-keyboard-response,3
true,23,0,1,2,false,d,false,false,0.0-2.0-0.52-0.471-3.471,0,0,1,81,false,stim,true,0,325.0,0,0,1,34858,task3,1328969,false,false,1575,image-keyboard-response,4
true,23,2,1,2,true,d,false,true,0.0-2.0-0.52-0.472-3.472,0,0,1,68,false,stim,false,0,326.0,0,0,1,34858,task3,1330803,false,false,1578,image-keyboard-response,5
true,23,2,1,0,false,q,true,false,0.0-2.0-0.52-0.473-3.473,0,0,1,68,false,stim,false,0,480.0,0,1,2,34858,task3,1332791,false,false,1581,image-keyboard-response,6
true,23,2,1,0,false,q,true,true,0.0-2.0-0.52-0.474-3.474,0,0,1,68,false,stim,false,0,347.0,0,1,2,34858,task3,1334645,false,true,1584,image-keyboard-response,7
true,23,0,1,1,false,z,true,false,0.0-2.0-0.52-0.475-3.475,0,0,1,81,false,stim,false,2,732.9999999997672,0,0,0,34858,task3,1336885,false,false,1587,image-keyboard-response,8
true,23,2,1,1,false,z,false,false,0.0-2.0-0.52-0.476-3.476,0,0,1,68,false,stim,true,2,463.99999999976717,0,0,0,34858,task3,1338856,false,false,1590,image-keyboard-response,9
true,23,2,1,1,false,z,false,false,0.0-2.0-0.53-0.477-3.477,0,0,1,68,false,stim,true,2,403.0,0,0,0,34858,task3,1340768,false,false,1593,image-keyboard-response,10
true,23,2,1,0,false,q,true,false,0.0-2.0-0.53-0.478-3.478,0,0,1,68,false,stim,false,0,305.99999999976717,0,1,2,34858,task3,1342584,false,false,1596,image-keyboard-response,11
true,23,1,1,2,false,d,true,false,0.0-2.0-0.53-0.479-3.479,0,0,1,90,false,stim,false,0,507.0,0,0,1,34858,task3,1344598,false,false,1599,image-keyboard-response,12
true,23,0,1,0,true,q,false,true,0.0-2.0-0.53-0.480-3.480,0,0,1,81,false,stim,false,0,271.0,0,1,2,34858,task3,1346388,false,false,1602,image-keyboard-response,13
true,23,0,1,1,false,z,true,false,0.0-2.0-0.53-0.481-3.481,0,0,1,81,false,stim,false,2,373.00000000023283,0,0,0,34858,task3,1348268,false,false,1605,image-keyboard-response,14
true,23,2,1,0,false,q,true,false,0.0-2.0-0.53-0.482-3.482,0,0,1,68,false,stim,false,0,304.0,0,1,2,34858,task3,1350079,false,false,1608,image-keyboard-response,15
true,23,2,1,2,true,d,false,true,0.0-2.0-0.53-0.483-3.483,0,0,1,68,false,stim,false,0,530.0,0,0,1,34858,task3,1352116,false,false,1611,image-keyboard-response,16
true,23,2,1,2,true,d,false,true,0.0-2.0-0.53-0.484-3.484,0,0,1,68,false,stim,false,0,590.9999999997672,0,0,1,34858,task3,1354215,false,false,1614,image-keyboard-response,17
true,23,2,1,1,false,z,false,false,0.0-2.0-0.53-0.485-3.485,0,0,1,68,false,stim,true,2,568.0,0,1,0,34858,task3,1356291,false,false,1617,image-keyboard-response,18
true,23,2,1,1,false,z,false,false,0.0-2.0-0.54-0.486-3.486,0,0,1,68,false,stim,true,2,328.0,0,1,0,34858,task3,1358128,false,false,1620,image-keyboard-response,19
true,23,0,1,1,false,z,true,false,0.0-2.0-0.54-0.487-3.487,0,0,1,81,false,stim,false,2,590.0,0,1,0,34858,task3,1360227,false,false,1623,image-keyboard-response,20
true,23,2,1,2,true,d,false,true,0.0-2.0-0.54-0.488-3.488,0,0,1,68,false,stim,false,0,796.0,0,0,1,34858,task3,1362531,false,false,1626,image-keyboard-response,21
true,23,1,1,0,false,q,true,false,0.0-2.0-0.54-0.489-3.489,0,0,1,90,false,stim,false,0,1209.9999999997672,0,0,2,34858,task3,1365248,false,false,1629,image-keyboard-response,22
true,24,0,1,2,false,d,false,false,0.0-2.0-0.54-0.490-3.490,1,0,0,81,true,stim,true,0,751.0,0,0,2,34858,task3,1367506,false,false,1632,image-keyboard-response,1
true,24,2,1,1,false,z,false,false,0.0-2.0-0.54-0.491-3.491,1,0,0,68,false,stim,true,2,764.0,0,0,1,34858,task3,1369777,false,false,1635,image-keyboard-response,2
true,24,2,1,2,true,d,false,true,0.0-2.0-0.54-0.492-3.492,1,0,0,68,false,stim,false,0,357.0,0,0,2,34858,task3,1371639,false,false,1638,image-keyboard-response,3
true,24,0,1,1,false,z,true,false,0.0-2.0-0.54-0.493-3.493,1,0,0,81,false,stim,false,2,826.0,0,0,1,34858,task3,1373971,false,false,1641,image-keyboard-response,4
true,24,1,1,1,true,z,false,true,0.0-2.0-0.54-0.494-3.494,1,0,0,90,false,stim,false,1,664.0,0,1,0,34858,task3,1376142,false,false,1644,image-keyboard-response,5
true,24,2,1,2,true,d,false,false,0.0-2.0-0.55-0.495-3.495,1,0,0,68,false,stim,false,0,586.0,0,0,2,34858,task3,1378236,false,true,1647,image-keyboard-response,6
true,24,0,1,1,false,z,true,false,0.0-2.0-0.55-0.496-3.496,1,0,0,81,false,stim,false,2,721.0,0,0,1,34858,task3,1380465,false,false,1650,image-keyboard-response,7
true,24,2,1,1,false,z,false,true,0.0-2.0-0.55-0.497-3.497,1,0,0,68,false,stim,true,2,700.0000000002328,0,0,1,34858,task3,1382673,false,true,1653,image-keyboard-response,8
true,24,1,1,1,true,z,false,true,0.0-2.0-0.55-0.498-3.498,1,0,0,90,false,stim,false,1,626.0,0,1,0,34858,task3,1384806,false,false,1656,image-keyboard-response,9
true,24,1,1,1,true,z,false,false,0.0-2.0-0.55-0.499-3.499,1,0,0,90,false,stim,false,1,566.0,0,1,0,34858,task3,1386879,false,true,1659,image-keyboard-response,10
true,24,0,1,2,false,d,false,false,0.0-2.0-0.55-0.500-3.500,1,0,0,81,false,stim,true,0,855.0000000002328,0,0,2,34858,task3,1389241,false,false,1662,image-keyboard-response,11
true,24,2,1,2,true,d,false,true,0.0-2.0-0.55-0.501-3.501,1,0,0,68,false,stim,false,0,727.0,0,0,2,34858,task3,1391475,false,false,1665,image-keyboard-response,12
true,24,2,1,1,false,z,false,false,0.0-2.0-0.55-0.502-3.502,1,0,0,68,false,stim,true,2,934.0,0,0,1,34858,task3,1393916,false,false,1668,image-keyboard-response,13
true,24,1,1,1,true,z,false,true,0.0-2.0-0.55-0.503-3.503,1,0,0,90,false,stim,false,1,431.00000000023283,0,1,0,34858,task3,1395856,false,false,1671,image-keyboard-response,14
true,24,0,1,1,false,z,true,false,0.0-2.0-0.56-0.504-3.504,1,0,0,81,false,stim,false,2,679.0,0,0,1,34858,task3,1398043,false,false,1674,image-keyboard-response,15
true,24,2,1,2,true,d,false,true,0.0-2.0-0.56-0.505-3.505,1,0,0,68,false,stim,false,0,186.0,0,0,2,34858,task3,1399737,false,false,1677,image-keyboard-response,16
true,24,1,1,1,true,z,false,true,0.0-2.0-0.56-0.506-3.506,1,0,0,90,false,stim,false,1,558.0,0,1,0,34858,task3,1401804,false,false,1680,image-keyboard-response,17
true,24,1,1,1,true,z,false,true,0.0-2.0-0.56-0.507-3.507,1,0,0,90,false,stim,false,1,786.0,0,1,0,34858,task3,1404097,false,false,1683,image-keyboard-response,18
true,24,2,1,2,true,d,false,false,0.0-2.0-0.56-0.508-3.508,1,0,0,68,false,stim,false,0,644.0,0,0,2,34858,task3,1406247,false,true,1686,image-keyboard-response,19
true,24,0,1,2,false,d,false,false,0.0-2.0-0.56-0.509-3.509,1,0,0,81,false,stim,true,0,686.0000000002328,0,0,2,34858,task3,1408443,false,false,1689,image-keyboard-response,20
true,24,2,1,1,false,z,false,false,0.0-2.0-0.56-0.510-3.510,1,0,0,68,false,stim,true,2,870.0,0,0,1,34858,task3,1410821,false,false,1692,image-keyboard-response,21
true,24,1,1,1,true,z,false,false,0.0-2.0-0.56-0.511-3.511,1,0,0,90,false,stim,false,2,952.9999999997672,0,0,1,34858,task3,1413281,false,true,1695,image-keyboard-response,22
true,24,1,1,1,true,z,false,true,0.0-2.0-0.56-0.512-3.512,1,0,0,90,false,stim,false,1,759.0,0,1,0,34858,task3,1415549,false,false,1698,image-keyboard-response,23
true,24,1,1,1,true,z,false,true,0.0-2.0-0.57-0.513-3.513,1,0,0,90,false,stim,false,1,702.0,0,1,0,34858,task3,1417774,false,false,1701,image-keyboard-response,24
true,24,0,1,1,false,z,true,false,0.0-2.0-0.57-0.514-3.514,1,0,0,81,false,stim,false,2,529.0,0,0,1,34858,task3,1419814,false,false,1704,image-keyboard-response,25
true,24,2,1,1,false,z,false,false,0.0-2.0-0.57-0.515-3.515,1,0,0,68,false,stim,true,2,693.0,0,0,1,34858,task3,1422018,false,false,1707,image-keyboard-response,26
true,24,2,1,2,true,d,false,true,0.0-2.0-0.57-0.516-3.516,1,0,0,68,false,stim,false,0,1635.0,0,1,2,34858,task3,1425164,false,false,1710,image-keyboard-response,27
true,24,1,1,1,true,z,false,true,0.0-2.0-0.57-0.517-3.517,1,0,0,90,false,stim,false,1,586.0,0,0,0,34858,task3,1427258,false,false,1713,image-keyboard-response,28
true,24,1,1,1,true,z,false,true,0.0-2.0-0.57-0.518-3.518,1,0,0,90,false,stim,false,1,504.0,0,0,0,34858,task3,1429270,false,false,1716,image-keyboard-response,29
true,25,2,1,2,true,d,false,true,0.0-2.0-0.57-0.519-3.519,0,0,1,68,true,stim,false,2,589.0,0,1,2,34858,task3,1431368,false,false,1719,image-keyboard-response,1
true,25,0,1,0,true,q,false,true,0.0-2.0-0.57-0.520-3.520,0,0,1,81,false,stim,false,1,690.0,0,0,1,34858,task3,1433566,false,false,1722,image-keyboard-response,2
true,25,2,1,2,true,d,false,true,0.0-2.0-0.57-0.521-3.521,0,0,1,68,false,stim,false,2,685.9999999997672,0,1,2,34858,task3,1435761,false,false,1725,image-keyboard-response,3
true,25,1,1,2,false,d,false,true,0.0-2.0-0.58-0.522-3.522,0,0,1,90,false,stim,true,1,693.0,0,0,0,34858,task3,1437963,false,true,1728,image-keyboard-response,4
true,25,0,1,0,true,q,false,true,0.0-2.0-0.58-0.523-3.523,0,0,1,81,false,stim,false,1,474.0,0,0,1,34858,task3,1439944,false,false,1731,image-keyboard-response,5
true,25,2,1,2,true,d,false,true,0.0-2.0-0.58-0.524-3.524,0,0,1,68,false,stim,false,2,713.0000000002328,0,1,2,34858,task3,1442165,false,false,1734,image-keyboard-response,6
true,25,1,1,2,false,d,false,false,0.0-2.0-0.58-0.525-3.525,0,0,1,90,false,stim,true,1,981.0,0,0,0,34858,task3,1444654,false,false,1737,image-keyboard-response,7
true,25,0,1,0,true,q,false,true,0.0-2.0-0.58-0.526-3.526,0,0,1,81,false,stim,false,1,829.0,0,0,1,34858,task3,1446991,false,false,1740,image-keyboard-response,8
true,25,0,1,0,true,q,false,true,0.0-2.0-0.58-0.527-3.527,0,0,1,81,false,stim,false,1,595.0,0,0,1,34858,task3,1449094,false,false,1743,image-keyboard-response,9
true,25,2,1,2,true,d,false,true,0.0-2.0-0.58-0.528-3.528,0,0,1,68,false,stim,false,1,958.0,0,1,0,34858,task3,1451560,false,false,1746,image-keyboard-response,10
true,25,2,1,2,true,d,false,true,0.0-2.0-0.58-0.529-3.529,0,0,1,68,false,stim,false,2,894.0,0,1,2,34858,task3,1453960,false,false,1749,image-keyboard-response,11
true,25,2,1,2,true,d,false,true,0.0-2.0-0.58-0.530-3.530,0,0,1,68,false,stim,false,2,526.0,0,1,2,34858,task3,1455994,false,false,1752,image-keyboard-response,12
true,25,2,1,2,true,d,false,true,0.0-2.0-0.59-0.531-3.531,0,0,1,68,false,stim,false,2,394.0,0,1,2,34858,task3,1457897,false,false,1755,image-keyboard-response,13
true,25,2,1,2,true,d,false,true,0.0-2.0-0.59-0.532-3.532,0,0,1,68,false,stim,false,1,744.0,0,1,0,34858,task3,1460149,false,false,1758,image-keyboard-response,14
false,26,-1,0,2,false,d,true,false,0.0-2.0-0.59-0.533-3.533,1,1,1,,true,stim,false,2,,0,1,2,34858,task3,1503010,false,false,1800,image-keyboard-response,1
true,26,2,0,2,true,d,false,true,0.0-2.0-0.59-0.534-3.534,1,1,1,68,false,stim,false,2,1834.0,0,1,0,34858,task3,1506364,false,false,1803,image-keyboard-response,2
true,26,1,0,2,false,d,true,false,0.0-2.0-0.59-0.535-3.535,1,1,1,90,false,stim,false,2,1337.0,0,1,2,34858,task3,1509208,false,false,1806,image-keyboard-response,3
true,26,0,0,0,true,q,false,true,0.0-2.0-0.59-0.536-3.536,1,1,1,81,false,stim,false,0,617.0,0,1,1,34858,task3,1511332,false,false,1809,image-keyboard-response,4
true,26,0,0,0,true,q,false,true,0.0-2.0-0.59-0.537-3.537,1,1,1,81,false,stim,false,0,527.0,0,1,1,34858,task3,1513367,false,false,1812,image-keyboard-response,5
true,26,2,0,2,true,d,false,true,0.0-2.0-0.59-0.538-3.538,1,1,1,68,false,stim,false,2,643.0,0,1,0,34858,task3,1515517,false,false,1815,image-keyboard-response,6
true,26,0,0,0,true,q,false,true,0.0-2.0-0.59-0.539-3.539,1,1,1,81,false,stim,false,0,666.0,0,1,1,34858,task3,1517690,false,false,1818,image-keyboard-response,7
true,26,1,0,2,false,d,true,true,0.0-2.0-0.60-0.540-3.540,1,1,1,90,false,stim,false,2,785.9999999997672,0,0,2,34858,task3,1519988,false,true,1821,image-keyboard-response,8
true,26,2,0,2,true,d,false,true,0.0-2.0-0.60-0.541-3.541,1,1,1,68,false,stim,false,2,548.0,0,1,0,34858,task3,1522042,false,false,1824,image-keyboard-response,9
true,26,2,0,2,true,d,false,false,0.0-2.0-0.60-0.542-3.542,1,1,1,68,false,stim,false,2,1297.0000000002328,0,1,0,34858,task3,1524846,false,true,1827,image-keyboard-response,10
true,26,1,0,2,false,d,true,false,0.0-2.0-0.60-0.543-3.543,1,1,1,90,false,stim,false,2,876.9999999997672,0,0,2,34858,task3,1527232,false,false,1830,image-keyboard-response,11
true,26,0,0,0,true,q,false,true,0.0-2.0-0.60-0.544-3.544,1,1,1,81,false,stim,false,0,361.0,0,0,1,34858,task3,1529100,false,false,1833,image-keyboard-response,12
true,27,0,1,2,false,d,false,false,0.0-2.0-0.60-0.545-3.545,1,0,0,81,true,stim,true,0,503.0,0,0,1,34858,task3,1531111,false,false,1836,image-keyboard-response,1
true,27,0,1,1,false,z,true,true,0.0-2.0-0.60-0.546-3.546,1,0,0,81,false,stim,false,2,484.0,0,0,2,34858,task3,1533104,false,true,1839,image-keyboard-response,2
true,27,1,1,2,false,d,true,false,0.0-2.0-0.60-0.547-3.547,1,0,0,90,false,stim,false,0,489.0,0,0,1,34858,task3,1535098,false,false,1842,image-keyboard-response,3
true,27,2,1,2,true,d,false,true,0.0-2.0-0.60-0.548-3.548,1,0,0,68,false,stim,false,2,681.0,0,1,0,34858,task3,1537285,false,false,1845,image-keyboard-response,4
true,27,0,1,1,false,z,true,false,0.0-2.0-0.61-0.549-3.549,1,0,0,81,false,stim,false,2,1067.0,0,0,2,34858,task3,1539861,false,false,1848,image-keyboard-response,5
true,27,2,1,2,true,d,false,true,0.0-2.0-0.61-0.550-3.550,1,0,0,68,false,stim,false,2,557.0,0,1,0,34858,task3,1541925,false,false,1851,image-keyboard-response,6
true,27,2,1,2,true,d,false,true,0.0-2.0-0.61-0.551-3.551,1,0,0,68,false,stim,false,2,485.99999999976717,0,1,0,34858,task3,1543919,false,false,1854,image-keyboard-response,7
true,27,1,1,2,false,d,true,true,0.0-2.0-0.61-0.552-3.552,1,0,0,90,false,stim,false,0,645.0,0,0,1,34858,task3,1546072,false,true,1857,image-keyboard-response,8
true,27,2,1,1,false,z,false,true,0.0-2.0-0.61-0.553-3.553,1,0,0,68,false,stim,true,2,1101.0,0,0,2,34858,task3,1548680,false,true,1860,image-keyboard-response,9
true,27,2,1,1,false,z,false,false,0.0-2.0-0.61-0.554-3.554,1,0,0,68,false,stim,true,2,587.0,0,0,2,34858,task3,1550774,false,false,1863,image-keyboard-response,10
true,27,1,1,2,false,d,true,false,0.0-2.0-0.61-0.555-3.555,1,0,0,90,false,stim,false,0,746.0,0,0,1,34858,task3,1553029,false,false,1866,image-keyboard-response,11
true,27,2,1,2,true,d,false,true,0.0-2.0-0.61-0.556-3.556,1,0,0,68,false,stim,false,2,762.0,0,1,0,34858,task3,1555299,false,false,1869,image-keyboard-response,12
true,27,1,1,2,false,d,true,false,0.0-2.0-0.61-0.557-3.557,1,0,0,90,false,stim,false,0,783.0,0,0,1,34858,task3,1557589,false,false,1872,image-keyboard-response,13
true,27,2,1,1,false,z,false,false,0.0-2.0-0.62-0.558-3.558,1,0,0,68,false,stim,true,2,504.0,0,0,2,34858,task3,1559604,false,false,1875,image-keyboard-response,14
true,27,0,1,1,false,z,true,false,0.0-2.0-0.62-0.559-3.559,1,0,0,81,false,stim,false,2,589.0,0,0,2,34858,task3,1561698,false,false,1878,image-keyboard-response,15
true,27,1,1,1,true,z,false,true,0.0-2.0-0.62-0.560-3.560,1,0,0,90,false,stim,false,2,403.0,0,0,2,34858,task3,1563608,false,false,1881,image-keyboard-response,16
true,27,2,1,2,true,d,false,true,0.0-2.0-0.62-0.561-3.561,1,0,0,68,false,stim,false,0,781.0,0,0,1,34858,task3,1565899,false,false,1884,image-keyboard-response,17
true,27,2,1,2,true,d,false,true,0.0-2.0-0.62-0.562-3.562,1,0,0,68,false,stim,false,0,617.0,0,0,1,34858,task3,1568024,false,false,1887,image-keyboard-response,18
true,27,0,1,2,false,d,true,false,0.0-2.0-0.62-0.563-3.563,1,0,0,81,false,stim,false,2,647.0,0,1,0,34858,task3,1570179,false,false,1890,image-keyboard-response,19
true,27,2,1,2,true,d,false,true,0.0-2.0-0.62-0.564-3.564,1,0,0,68,false,stim,false,0,556.0000000002328,0,0,1,34858,task3,1572242,false,false,1893,image-keyboard-response,20
true,27,2,1,2,true,d,false,true,0.0-2.0-0.62-0.565-3.565,1,0,0,68,false,stim,false,2,1090.0000000002328,0,1,0,34858,task3,1574838,false,false,1896,image-keyboard-response,21
true,27,2,1,2,true,d,false,false,0.0-2.0-0.62-0.566-3.566,1,0,0,68,false,stim,false,2,505.0,0,1,0,34858,task3,1576850,false,true,1899,image-keyboard-response,22
true,27,2,1,2,true,d,false,true,0.0-2.0-0.63-0.567-3.567,1,0,0,68,false,stim,false,0,822.0,0,0,1,34858,task3,1579192,false,false,1902,image-keyboard-response,23
true,27,2,1,2,true,d,false,true,0.0-2.0-0.63-0.568-3.568,1,0,0,68,false,stim,false,0,468.0,0,0,1,34858,task3,1581166,false,false,1905,image-keyboard-response,24
true,27,2,1,2,true,d,false,false,0.0-2.0-0.63-0.569-3.569,1,0,0,68,false,stim,false,2,742.0,0,1,0,34858,task3,1583416,false,true,1908,image-keyboard-response,25
true,28,1,1,2,false,d,true,false,0.0-2.0-0.63-0.570-3.570,1,0,0,90,true,stim,false,2,817.0,0,1,0,34858,task3,1585742,false,false,1911,image-keyboard-response,1
true,28,1,1,2,false,d,false,false,0.0-2.0-0.63-0.571-3.571,1,0,0,90,false,stim,true,1,2047.0,0,0,2,34858,task3,1589296,false,false,1914,image-keyboard-response,2
true,28,2,1,1,false,z,false,false,0.0-2.0-0.63-0.572-3.572,1,0,0,68,false,stim,true,2,981.0,0,0,1,34858,task3,1591783,false,false,1917,image-keyboard-response,3
true,28,1,1,2,false,d,false,false,0.0-2.0-0.63-0.573-3.573,1,0,0,90,false,stim,true,1,654.0,0,0,2,34858,task3,1593944,false,false,1920,image-keyboard-response,4
true,28,0,1,2,false,d,true,false,0.0-2.0-0.63-0.574-3.574,1,0,0,81,false,stim,false,2,567.0,0,1,0,34858,task3,1596018,false,false,1923,image-keyboard-response,5
true,28,0,1,2,false,d,true,false,0.0-2.0-0.63-0.575-3.575,1,0,0,81,false,stim,false,1,429.00000000023283,0,0,2,34858,task3,1597955,false,false,1926,image-keyboard-response,6
true,28,0,1,2,false,d,true,false,0.0-2.0-0.64-0.576-3.576,1,0,0,81,false,stim,false,2,370.99999999976717,0,1,0,34858,task3,1599834,false,false,1929,image-keyboard-response,7
true,28,0,1,1,false,z,true,false,0.0-2.0-0.64-0.577-3.577,1,0,0,81,false,stim,false,2,727.0,0,0,1,34858,task3,1602069,false,false,1932,image-keyboard-response,8
true,28,2,1,1,false,z,false,false,0.0-2.0-0.64-0.578-3.578,1,0,0,68,false,stim,true,2,330.00000000023283,0,0,1,34858,task3,1603906,false,false,1935,image-keyboard-response,9
true,28,1,1,2,false,d,false,false,0.0-2.0-0.64-0.579-3.579,1,0,0,90,false,stim,true,1,473.0,0,0,2,34858,task3,1605886,false,false,1938,image-keyboard-response,10
true,28,0,1,2,false,d,true,false,0.0-2.0-0.64-0.580-3.580,1,0,0,81,false,stim,false,1,500.0,0,0,2,34858,task3,1607895,false,false,1941,image-keyboard-response,11
true,28,2,1,2,true,d,false,true,0.0-2.0-0.64-0.581-3.581,1,0,0,68,false,stim,false,2,559.0,0,1,0,34858,task3,1609962,false,false,1944,image-keyboard-response,12
true,28,2,1,2,true,d,false,true,0.0-2.0-0.64-0.582-3.582,1,0,0,68,false,stim,false,2,667.0,0,1,0,34858,task3,1612136,false,false,1947,image-keyboard-response,13
true,28,1,1,1,true,z,false,true,0.0-2.0-0.64-0.583-3.583,1,0,0,90,false,stim,false,2,593.0,0,0,1,34858,task3,1614237,false,false,1950,image-keyboard-response,14
true,28,0,1,2,false,d,true,false,0.0-2.0-0.64-0.584-3.584,1,0,0,81,false,stim,false,1,596.0,0,0,2,34858,task3,1616341,false,false,1953,image-keyboard-response,15
true,28,1,1,2,false,d,false,false,0.0-2.0-0.65-0.585-3.585,1,0,0,90,false,stim,true,1,702.0,0,0,2,34858,task3,1618552,false,false,1956,image-keyboard-response,16
true,28,2,1,2,true,d,false,true,0.0-2.0-0.65-0.586-3.586,1,0,0,68,false,stim,false,1,921.9999999997672,0,0,2,34858,task3,1620983,false,false,1959,image-keyboard-response,17
true,28,2,1,2,true,d,false,true,0.0-2.0-0.65-0.587-3.587,1,0,0,68,false,stim,false,2,625.0,0,1,0,34858,task3,1623114,false,false,1962,image-keyboard-response,18
true,28,1,1,1,true,z,false,true,0.0-2.0-0.65-0.588-3.588,1,0,0,90,false,stim,false,2,839.0,0,0,1,34858,task3,1625460,false,false,1965,image-keyboard-response,19
true,28,2,1,2,true,d,false,true,0.0-2.0-0.65-0.589-3.589,1,0,0,68,false,stim,false,1,567.0,0,0,2,34858,task3,1627534,false,false,1968,image-keyboard-response,20
true,28,1,1,1,true,z,false,true,0.0-2.0-0.65-0.590-3.590,1,0,0,90,false,stim,false,2,425.0,0,1,1,34858,task3,1629469,false,false,1971,image-keyboard-response,21
true,28,1,1,1,true,z,false,true,0.0-2.0-0.65-0.591-3.591,1,0,0,90,false,stim,false,2,638.0,0,1,1,34858,task3,1631615,false,false,1974,image-keyboard-response,22
true,28,2,1,2,true,d,false,true,0.0-2.0-0.65-0.592-3.592,1,0,0,68,false,stim,false,2,447.0,0,1,0,34858,task3,1633570,false,false,1977,image-keyboard-response,23
true,28,2,1,2,true,d,false,true,0.0-2.0-0.65-0.593-3.593,1,0,0,68,false,stim,false,2,374.0,0,1,0,34858,task3,1635450,false,false,1980,image-keyboard-response,24
true,28,1,1,1,true,z,false,true,0.0-2.0-0.66-0.594-3.594,1,0,0,90,false,stim,false,2,875.0,0,1,1,34858,task3,1637833,false,false,1983,image-keyboard-response,25
true,29,2,2,1,false,z,false,false,0.0-2.0-0.66-0.595-3.595,1,1,0,68,true,stim,true,2,747.9999999997672,0,0,2,34858,task3,1640088,false,false,1986,image-keyboard-response,1
true,29,0,2,1,false,z,true,false,0.0-2.0-0.66-0.596-3.596,1,1,0,81,false,stim,false,2,735.0,0,0,2,34858,task3,1642332,false,false,1989,image-keyboard-response,2
true,29,1,2,1,true,z,false,true,0.0-2.0-0.66-0.597-3.597,1,1,0,90,false,stim,false,2,493.0,0,0,2,34858,task3,1644332,false,false,1992,image-keyboard-response,3
true,29,2,2,2,true,d,false,true,0.0-2.0-0.66-0.598-3.598,1,1,0,68,false,stim,false,2,688.0,0,1,0,34858,task3,1646527,false,false,1995,image-keyboard-response,4
true,29,2,2,2,true,d,false,true,0.0-2.0-0.66-0.599-3.599,1,1,0,68,false,stim,false,2,665.0,0,1,0,34858,task3,1648701,false,false,1998,image-keyboard-response,5
true,29,2,2,2,true,d,false,true,0.0-2.0-0.66-0.600-3.600,1,1,0,68,false,stim,false,2,493.0,0,1,0,34858,task3,1650713,false,false,2001,image-keyboard-response,6
true,29,1,2,1,true,z,false,true,0.0-2.0-0.66-0.601-3.601,1,1,0,90,false,stim,false,1,566.0,0,1,1,34858,task3,1652786,false,false,2004,image-keyboard-response,7
true,29,1,2,1,true,z,false,true,0.0-2.0-0.66-0.602-3.602,1,1,0,90,false,stim,false,1,519.9999999997672,0,1,1,34858,task3,1654812,false,false,2007,image-keyboard-response,8
true,29,1,2,1,true,z,false,true,0.0-2.0-0.67-0.603-3.603,1,1,0,90,false,stim,false,1,464.00000000023283,0,1,1,34858,task3,1656784,false,false,2010,image-keyboard-response,9
true,29,1,2,2,false,d,true,true,0.0-2.0-0.67-0.604-3.604,1,1,0,90,false,stim,false,2,930.0,0,1,0,34858,task3,1659222,false,true,2013,image-keyboard-response,10
true,29,2,2,2,true,d,false,true,0.0-2.0-0.67-0.605-3.605,1,1,0,68,false,stim,false,2,837.0,0,1,0,34858,task3,1661567,false,false,2016,image-keyboard-response,11
true,29,2,2,1,false,z,false,false,0.0-2.0-0.67-0.606-3.606,1,1,0,68,false,stim,true,2,868.0,0,0,2,34858,task3,1663943,false,false,2019,image-keyboard-response,12
true,29,1,2,2,false,d,true,false,0.0-2.0-0.67-0.607-3.607,1,1,0,90,false,stim,false,2,813.0000000002328,0,1,0,34858,task3,1666264,false,false,2022,image-keyboard-response,13
true,29,2,2,1,false,z,false,false,0.0-2.0-0.67-0.608-3.608,1,1,0,68,false,stim,true,2,604.0,0,0,2,34858,task3,1668375,false,false,2025,image-keyboard-response,14
true,29,1,2,1,true,z,false,true,0.0-2.0-0.67-0.609-3.609,1,1,0,90,false,stim,false,2,347.0,0,0,2,34858,task3,1670229,false,false,2028,image-keyboard-response,15
true,29,1,2,1,true,z,false,true,0.0-2.0-0.67-0.610-3.610,1,1,0,90,false,stim,false,1,566.0000000002328,0,1,1,34858,task3,1672302,false,false,2031,image-keyboard-response,16
true,29,1,2,1,true,z,false,true,0.0-2.0-0.67-0.611-3.611,1,1,0,90,false,stim,false,1,406.00000000023283,0,1,1,34858,task3,1674216,false,false,2034,image-keyboard-response,17
true,29,2,2,1,false,z,false,false,0.0-2.0-0.68-0.612-3.612,1,1,0,68,false,stim,true,2,762.0,0,0,2,34858,task3,1676487,false,false,2037,image-keyboard-response,18
true,29,1,2,2,false,d,true,false,0.0-2.0-0.68-0.613-3.613,1,1,0,90,false,stim,false,2,708.0,0,1,0,34858,task3,1678702,false,false,2040,image-keyboard-response,19
true,29,2,2,2,true,d,false,true,0.0-2.0-0.68-0.614-3.614,1,1,0,68,false,stim,false,2,662.0,0,1,0,34858,task3,1680871,false,false,2043,image-keyboard-response,20
true,29,1,2,1,true,z,false,true,0.0-2.0-0.68-0.615-3.615,1,1,0,90,false,stim,false,2,658.0,0,0,2,34858,task3,1683035,false,false,2046,image-keyboard-response,21
