answered,blockNum,choice,condition,corResp,correct,correct_response,explo,fb,internal_node_id,isStable_1,isStable_2,isStable_3,key_press,newBlock,part,persev,persevResp,rt,sessNum,stableAS,stimulus,subject,task,time_elapsed,training,trap,trial_index,trial_type,trialsInBlock
true,1,1,0,0,false,q,true,false,0.0-2.0-0.0-0.0-3.0,0,0,0,90,true,stim,false,-1,1203.0,1,0,1,36461,task2,66946,false,false,79,image-keyboard-response,1
true,1,1,0,0,false,q,true,false,0.0-2.0-0.0-0.1-3.1,0,0,0,90,false,stim,false,-1,568.0000000000146,1,0,1,36461,task2,69019,false,false,82,image-keyboard-response,2
true,1,0,0,2,false,d,true,true,0.0-2.0-0.0-0.2-3.2,0,0,0,81,false,stim,false,-1,704.0,1,0,0,36461,task2,71229,false,true,85,image-keyboard-response,3
true,1,0,0,2,false,d,true,false,0.0-2.0-0.0-0.3-3.3,0,0,0,81,false,stim,false,-1,465.0,1,0,0,36461,task2,73199,false,false,88,image-keyboard-response,4
true,1,1,0,1,true,z,false,true,0.0-2.0-0.0-0.4-3.4,0,0,0,90,false,stim,false,-1,1178.0,1,0,2,36461,task2,75883,false,false,91,image-keyboard-response,5
true,1,1,0,1,true,z,false,false,0.0-2.0-0.0-0.5-3.5,0,0,0,90,false,stim,false,-1,456.0,1,0,2,36461,task2,77845,false,true,94,image-keyboard-response,6
true,1,0,0,2,false,d,true,false,0.0-2.0-0.0-0.6-3.6,0,0,0,81,false,stim,false,-1,716.0,1,0,0,36461,task2,80067,false,false,97,image-keyboard-response,7
true,1,1,0,0,false,q,true,false,0.0-2.0-0.0-0.7-3.7,0,0,0,90,false,stim,false,-1,640.0,1,0,1,36461,task2,82212,false,false,100,image-keyboard-response,8
true,1,1,0,1,true,z,false,true,0.0-2.0-0.0-0.8-3.8,0,0,0,90,false,stim,false,-1,721.0,1,0,2,36461,task2,84439,false,false,103,image-keyboard-response,9
true,1,0,0,2,false,d,true,false,0.0-2.0-0.1-0.9-3.9,0,0,0,81,false,stim,false,-1,731.0,1,0,0,36461,task2,86677,false,false,106,image-keyboard-response,10
true,1,2,0,2,true,d,false,true,0.0-2.0-0.1-0.10-3.10,0,0,0,68,false,stim,false,-1,908.0,1,0,0,36461,task2,89091,false,false,109,image-keyboard-response,11
true,1,2,0,0,false,q,true,false,0.0-2.0-0.1-0.11-3.11,0,0,0,68,false,stim,false,-1,1243.0,1,0,1,36461,task2,91839,false,false,112,image-keyboard-response,12
true,1,1,0,1,true,z,false,true,0.0-2.0-0.1-0.12-3.12,0,0,0,90,false,stim,false,-1,609.0,1,0,2,36461,task2,93954,false,false,115,image-keyboard-response,13
true,1,1,0,1,true,z,false,false,0.0-2.0-0.1-0.13-3.13,0,0,0,90,false,stim,false,-1,1962.0,1,0,2,36461,task2,97421,false,true,118,image-keyboard-response,14
true,1,1,0,1,true,z,false,true,0.0-2.0-0.1-0.14-3.14,0,0,0,90,false,stim,false,-1,889.0000000000146,1,0,2,36461,task2,99815,false,false,121,image-keyboard-response,15
true,1,2,0,2,true,d,false,true,0.0-2.0-0.1-0.15-3.15,0,0,0,68,false,stim,false,-1,1176.0,1,0,0,36461,task2,102497,false,false,124,image-keyboard-response,16
true,1,0,0,0,true,q,false,true,0.0-2.0-0.1-0.16-3.16,0,0,0,81,false,stim,false,-1,841.0,1,0,1,36461,task2,104843,false,false,127,image-keyboard-response,17
true,1,0,0,0,true,q,false,false,0.0-2.0-0.1-0.17-3.17,0,0,0,81,false,stim,false,-1,520.0,1,0,1,36461,task2,106868,false,true,130,image-keyboard-response,18
true,1,0,0,0,true,q,false,true,0.0-2.0-0.2-0.18-3.18,0,0,0,81,false,stim,false,-1,384.0,1,0,1,36461,task2,108757,false,false,133,image-keyboard-response,19
true,1,2,0,2,true,d,false,true,0.0-2.0-0.2-0.19-3.19,0,0,0,68,false,stim,false,-1,1191.0,1,0,0,36461,task2,111453,false,false,136,image-keyboard-response,20
true,1,1,0,1,true,z,false,true,0.0-2.0-0.2-0.20-3.20,0,0,0,90,false,stim,false,-1,751.0,1,0,2,36461,task2,113709,false,false,139,image-keyboard-response,21
true,1,2,0,2,true,d,false,true,0.0-2.0-0.2-0.21-3.21,0,0,0,68,false,stim,false,-1,1018.0,1,0,0,36461,task2,116232,false,false,142,image-keyboard-response,22
true,1,1,0,0,false,q,true,true,0.0-2.0-0.2-0.22-3.22,0,0,0,90,false,stim,false,-1,1159.0,1,0,1,36461,task2,118896,false,true,145,image-keyboard-response,23
true,1,0,0,2,false,d,true,false,0.0-2.0-0.2-0.23-3.23,0,0,0,81,false,stim,false,-1,823.9999999999854,1,0,0,36461,task2,121225,false,false,148,image-keyboard-response,24
true,1,1,0,0,false,q,true,false,0.0-2.0-0.2-0.24-3.24,0,0,0,90,false,stim,false,-1,621.0,1,0,1,36461,task2,123351,false,false,151,image-keyboard-response,25
true,1,1,0,1,true,z,false,false,0.0-2.0-0.2-0.25-3.25,0,0,0,90,false,stim,false,-1,1723.0,1,1,2,36461,task2,126579,false,true,154,image-keyboard-response,26
true,2,0,2,1,false,z,true,false,0.0-2.0-0.2-0.26-3.26,0,0,1,81,true,stim,false,1,816.9999999999709,1,1,2,36461,task2,128900,false,false,157,image-keyboard-response,1
true,2,2,2,2,true,d,false,true,0.0-2.0-0.3-0.27-3.27,0,0,1,68,false,stim,false,0,614.0000000000291,1,0,1,36461,task2,131019,false,false,160,image-keyboard-response,2
true,2,2,2,1,false,z,true,false,0.0-2.0-0.3-0.28-3.28,0,0,1,68,false,stim,false,1,1091.0,1,1,2,36461,task2,133615,false,false,163,image-keyboard-response,3
true,2,1,2,1,true,z,false,true,0.0-2.0-0.3-0.29-3.29,0,0,1,90,false,stim,false,1,284.0,1,1,2,36461,task2,135403,false,false,166,image-keyboard-response,4
true,2,1,2,2,false,d,true,false,0.0-2.0-0.3-0.30-3.30,0,0,1,90,false,stim,false,0,482.0,1,0,1,36461,task2,137390,false,false,169,image-keyboard-response,5
true,2,0,2,2,false,d,false,false,0.0-2.0-0.3-0.31-3.31,0,0,1,81,false,stim,true,0,583.0,1,0,1,36461,task2,139478,false,false,172,image-keyboard-response,6
true,2,0,2,1,false,z,true,false,0.0-2.0-0.3-0.32-3.32,0,0,1,81,false,stim,false,2,1420.999999999971,1,0,0,36461,task2,142405,false,false,175,image-keyboard-response,7
true,2,1,2,1,true,z,false,true,0.0-2.0-0.3-0.33-3.33,0,0,1,90,false,stim,false,2,667.0,1,0,0,36461,task2,144578,false,false,178,image-keyboard-response,8
true,2,2,2,1,false,z,true,false,0.0-2.0-0.3-0.34-3.34,0,0,1,68,false,stim,false,1,1410.0,1,1,2,36461,task2,147493,false,false,181,image-keyboard-response,9
true,2,1,2,1,true,z,false,true,0.0-2.0-0.3-0.35-3.35,0,0,1,90,false,stim,false,2,1469.0,1,0,0,36461,task2,150467,false,false,184,image-keyboard-response,10
true,2,1,2,1,true,z,false,true,0.0-2.0-0.4-0.36-3.36,0,0,1,90,false,stim,false,2,588.0,1,0,0,36461,task2,152560,false,false,187,image-keyboard-response,11
true,2,2,2,1,false,z,true,false,0.0-2.0-0.4-0.37-3.37,0,0,1,68,false,stim,false,1,761.0,1,1,2,36461,task2,154827,false,false,190,image-keyboard-response,12
true,2,0,2,1,false,z,true,false,0.0-2.0-0.4-0.38-3.38,0,0,1,81,false,stim,false,2,566.0,1,0,0,36461,task2,156898,false,false,193,image-keyboard-response,13
true,2,0,2,1,false,z,true,false,0.0-2.0-0.4-0.39-3.39,0,0,1,81,false,stim,false,1,1370.0,1,1,2,36461,task2,159774,false,false,196,image-keyboard-response,14
true,2,1,2,2,false,d,true,false,0.0-2.0-0.4-0.40-3.40,0,0,1,90,false,stim,false,0,1322.0,1,0,1,36461,task2,162601,false,false,199,image-keyboard-response,15
true,2,1,2,1,true,z,false,true,0.0-2.0-0.4-0.41-3.41,0,0,1,90,false,stim,false,1,446.0,1,1,2,36461,task2,164553,false,false,202,image-keyboard-response,16
true,2,1,2,1,true,z,false,true,0.0-2.0-0.4-0.42-3.42,0,0,1,90,false,stim,false,2,862.0,1,0,0,36461,task2,166921,false,false,205,image-keyboard-response,17
true,2,2,2,2,true,d,false,true,0.0-2.0-0.4-0.43-3.43,0,0,1,68,false,stim,false,0,1266.0,1,0,1,36461,task2,169693,false,false,208,image-keyboard-response,18
true,2,2,2,2,true,d,false,true,0.0-2.0-0.4-0.44-3.44,0,0,1,68,false,stim,false,0,792.0,1,0,1,36461,task2,171991,false,false,211,image-keyboard-response,19
true,2,1,2,1,true,z,false,true,0.0-2.0-0.5-0.45-3.45,0,0,1,90,false,stim,false,2,598.0,1,0,0,36461,task2,174095,false,false,214,image-keyboard-response,20
true,2,2,2,2,true,d,false,true,0.0-2.0-0.5-0.46-3.46,0,0,1,68,false,stim,false,0,822.0,1,0,1,36461,task2,176422,false,false,217,image-keyboard-response,21
true,2,1,2,1,true,z,false,false,0.0-2.0-0.5-0.47-3.47,0,0,1,90,false,stim,false,2,808.0,1,0,0,36461,task2,178735,false,true,220,image-keyboard-response,22
true,2,1,2,1,true,z,false,true,0.0-2.0-0.5-0.48-3.48,0,0,1,90,false,stim,false,1,480.9999999999709,1,1,2,36461,task2,180721,false,false,223,image-keyboard-response,23
true,2,2,2,1,false,z,false,false,0.0-2.0-0.5-0.49-3.49,0,0,1,68,false,stim,true,2,572.0,1,0,0,36461,task2,182798,false,false,226,image-keyboard-response,24
true,2,1,2,1,true,z,false,true,0.0-2.0-0.5-0.50-3.50,0,0,1,90,false,stim,false,1,1709.0,1,1,2,36461,task2,186011,false,false,229,image-keyboard-response,25
true,2,2,2,2,true,d,false,true,0.0-2.0-0.5-0.51-3.51,0,0,1,68,false,stim,false,0,1075.0,1,0,1,36461,task2,188592,false,false,232,image-keyboard-response,26
true,2,2,2,2,true,d,false,true,0.0-2.0-0.5-0.52-3.52,0,0,1,68,false,stim,false,0,694.0,1,0,1,36461,task2,190792,false,false,235,image-keyboard-response,27
true,2,2,2,1,false,z,true,false,0.0-2.0-0.5-0.53-3.53,0,0,1,68,false,stim,false,1,969.0,1,1,2,36461,task2,193267,false,false,238,image-keyboard-response,28
true,2,2,2,2,true,d,false,false,0.0-2.0-0.6-0.54-3.54,0,0,1,68,false,stim,false,0,1106.0,1,0,1,36461,task2,195878,false,true,241,image-keyboard-response,29
true,2,1,2,1,true,z,false,true,0.0-2.0-0.6-0.55-3.55,0,0,1,90,false,stim,false,1,958.9999999999709,1,0,2,36461,task2,198342,false,false,244,image-keyboard-response,30
true,2,1,2,1,true,z,false,true,0.0-2.0-0.6-0.56-3.56,0,0,1,90,false,stim,false,2,663.0,1,1,0,36461,task2,200511,false,false,247,image-keyboard-response,31
true,2,2,2,2,true,d,false,true,0.0-2.0-0.6-0.57-3.57,0,0,1,68,false,stim,false,0,895.0,1,0,1,36461,task2,202910,false,false,250,image-keyboard-response,32
true,2,2,2,2,true,d,false,true,0.0-2.0-0.6-0.58-3.58,0,0,1,68,false,stim,false,0,578.0,1,0,1,36461,task2,204993,false,false,253,image-keyboard-response,33
true,3,1,2,2,false,d,false,true,0.0-2.0-0.6-0.59-3.59,1,0,0,90,true,stim,true,1,703.0,1,0,2,36461,task2,207200,false,true,256,image-keyboard-response,1
true,3,1,2,2,false,d,false,false,0.0-2.0-0.6-0.60-3.60,1,0,0,90,false,stim,true,1,1544.0,1,0,2,36461,task2,210250,false,false,259,image-keyboard-response,2
true,3,2,2,1,false,z,true,false,0.0-2.0-0.6-0.61-3.61,1,0,0,68,false,stim,false,1,865.0000000000291,1,1,0,36461,task2,212621,false,false,262,image-keyboard-response,3
true,3,1,2,1,true,z,false,true,0.0-2.0-0.6-0.62-3.62,1,0,0,90,false,stim,false,1,736.9999999999709,1,1,0,36461,task2,214864,false,false,265,image-keyboard-response,4
true,3,1,2,1,true,z,false,true,0.0-2.0-0.7-0.63-3.63,1,0,0,90,false,stim,false,2,1242.0,1,0,1,36461,task2,217612,false,false,268,image-keyboard-response,5
true,3,1,2,2,false,d,false,false,0.0-2.0-0.7-0.64-3.64,1,0,0,90,false,stim,true,1,1011.0,1,0,2,36461,task2,220129,false,false,271,image-keyboard-response,6
true,3,1,2,1,true,z,false,false,0.0-2.0-0.7-0.65-3.65,1,0,0,90,false,stim,false,2,669.0,1,0,1,36461,task2,222303,false,true,274,image-keyboard-response,7
true,3,1,2,1,true,z,false,true,0.0-2.0-0.7-0.66-3.66,1,0,0,90,false,stim,false,1,1163.000000000029,1,1,0,36461,task2,224973,false,false,277,image-keyboard-response,8
true,3,1,2,2,false,d,false,false,0.0-2.0-0.7-0.67-3.67,1,0,0,90,false,stim,true,1,1219.999999999971,1,0,2,36461,task2,227698,false,false,280,image-keyboard-response,9
true,3,2,2,1,false,z,false,false,0.0-2.0-0.7-0.68-3.68,1,0,0,68,false,stim,true,2,2966.0,1,0,1,36461,task2,232170,false,false,283,image-keyboard-response,10
true,3,1,2,2,false,d,false,false,0.0-2.0-0.7-0.69-3.69,1,0,0,90,false,stim,true,1,1009.0,1,0,2,36461,task2,234685,false,false,286,image-keyboard-response,11
true,3,1,2,1,true,z,false,true,0.0-2.0-0.7-0.70-3.70,1,0,0,90,false,stim,false,1,1212.0,1,1,0,36461,task2,237402,false,false,289,image-keyboard-response,12
true,3,1,2,1,true,z,false,true,0.0-2.0-0.7-0.71-3.71,1,0,0,90,false,stim,false,1,736.0,1,1,0,36461,task2,239642,false,false,292,image-keyboard-response,13
true,3,2,2,1,false,z,false,false,0.0-2.0-0.8-0.72-3.72,1,0,0,68,false,stim,true,2,1349.0,1,0,1,36461,task2,242497,false,false,295,image-keyboard-response,14
true,3,1,2,1,true,z,false,true,0.0-2.0-0.8-0.73-3.73,1,0,0,90,false,stim,false,1,521.0,1,1,0,36461,task2,244524,false,false,298,image-keyboard-response,15
true,3,1,2,2,false,d,false,true,0.0-2.0-0.8-0.74-3.74,1,0,0,90,false,stim,true,1,601.9999999999709,1,0,2,36461,task2,246635,false,true,301,image-keyboard-response,16
true,3,1,2,1,true,z,false,true,0.0-2.0-0.8-0.75-3.75,1,0,0,90,false,stim,false,1,584.0,1,1,0,36461,task2,248725,false,false,304,image-keyboard-response,17
true,3,0,2,1,false,z,true,false,0.0-2.0-0.8-0.76-3.76,1,0,0,81,false,stim,false,2,870.0,1,0,1,36461,task2,251100,false,false,307,image-keyboard-response,18
true,3,1,2,2,false,d,false,true,0.0-2.0-0.8-0.77-3.77,1,0,0,90,false,stim,true,1,963.0,1,0,2,36461,task2,253569,false,true,310,image-keyboard-response,19
true,3,1,2,2,false,d,false,false,0.0-2.0-0.8-0.78-3.78,1,0,0,90,false,stim,true,1,479.0000000000291,1,0,2,36461,task2,255553,false,false,313,image-keyboard-response,20
true,3,1,2,1,true,z,false,false,0.0-2.0-0.8-0.79-3.79,1,0,0,90,false,stim,false,2,515.9999999999709,1,0,1,36461,task2,257574,false,true,316,image-keyboard-response,21
true,3,1,2,1,true,z,false,true,0.0-2.0-0.8-0.80-3.80,1,0,0,90,false,stim,false,1,769.0,1,1,0,36461,task2,259848,false,false,319,image-keyboard-response,22
true,3,2,2,1,false,z,false,false,0.0-2.0-0.9-0.81-3.81,1,0,0,68,false,stim,true,2,1120.0,1,0,1,36461,task2,262475,false,false,322,image-keyboard-response,23
true,3,1,2,1,true,z,false,true,0.0-2.0-0.9-0.82-3.82,1,0,0,90,false,stim,false,1,453.0,1,1,0,36461,task2,264434,false,false,325,image-keyboard-response,24
true,3,1,2,1,true,z,false,true,0.0-2.0-0.9-0.83-3.83,1,0,0,90,false,stim,false,1,966.0000000000582,1,1,0,36461,task2,266905,false,false,328,image-keyboard-response,25
true,3,0,2,1,false,z,true,false,0.0-2.0-0.9-0.84-3.84,1,0,0,81,false,stim,false,2,864.0,1,0,1,36461,task2,269275,false,false,331,image-keyboard-response,26
true,3,2,2,1,false,z,false,false,0.0-2.0-0.9-0.85-3.85,1,0,0,68,false,stim,true,2,854.0,1,0,1,36461,task2,271634,false,false,334,image-keyboard-response,27
true,3,1,2,1,true,z,false,true,0.0-2.0-0.9-0.86-3.86,1,0,0,90,false,stim,false,1,421.0,1,1,0,36461,task2,273560,false,false,337,image-keyboard-response,28
true,3,1,2,2,false,d,false,true,0.0-2.0-0.9-0.87-3.87,1,0,0,90,false,stim,true,1,401.9999999999418,1,0,2,36461,task2,275467,false,true,340,image-keyboard-response,29
true,3,1,2,2,false,d,false,false,0.0-2.0-0.9-0.88-3.88,1,0,0,90,false,stim,true,1,901.0,1,0,2,36461,task2,277872,false,false,343,image-keyboard-response,30
true,3,1,2,2,false,d,false,false,0.0-2.0-0.9-0.89-3.89,1,0,0,90,false,stim,true,1,556.0,1,0,2,36461,task2,279933,false,false,346,image-keyboard-response,31
true,3,1,2,1,true,z,false,true,0.0-2.0-0.10-0.90-3.90,1,0,0,90,false,stim,false,1,602.0000000000582,1,0,0,36461,task2,282042,false,false,349,image-keyboard-response,32
true,3,1,2,2,false,d,false,false,0.0-2.0-0.10-0.91-3.91,1,0,0,90,false,stim,true,1,596.0000000000582,1,0,2,36461,task2,284143,false,false,352,image-keyboard-response,33
true,3,1,2,1,true,z,false,false,0.0-2.0-0.10-0.92-3.92,1,0,0,90,false,stim,false,1,621.0,1,0,0,36461,task2,286269,false,true,355,image-keyboard-response,34
true,3,1,2,1,true,z,false,true,0.0-2.0-0.10-0.93-3.93,1,0,0,90,false,stim,false,1,413.0,1,0,0,36461,task2,288188,false,false,358,image-keyboard-response,35
true,4,1,1,1,true,z,false,true,0.0-2.0-0.10-0.94-3.94,0,0,0,90,true,stim,false,2,632.0,1,0,2,36461,task2,290326,false,false,361,image-keyboard-response,1
true,4,1,1,0,false,q,false,true,0.0-2.0-0.10-0.95-3.95,0,0,0,90,false,stim,true,1,1520.0000000000582,1,0,1,36461,task2,293351,false,true,364,image-keyboard-response,2
true,4,1,1,0,false,q,false,false,0.0-2.0-0.10-0.96-3.96,0,0,0,90,false,stim,true,1,478.9999999999418,1,0,1,36461,task2,295335,false,false,367,image-keyboard-response,3
true,4,1,1,1,true,z,false,true,0.0-2.0-0.10-0.97-3.97,0,0,0,90,false,stim,false,2,629.9999999999418,1,0,2,36461,task2,297470,false,false,370,image-keyboard-response,4
true,4,1,1,0,false,q,false,false,0.0-2.0-0.10-0.98-3.98,0,0,0,90,false,stim,true,1,438.0,1,0,1,36461,task2,299413,false,false,373,image-keyboard-response,5
true,4,1,1,1,true,z,false,true,0.0-2.0-0.11-0.99-3.99,0,0,0,90,false,stim,false,2,483.0,1,0,2,36461,task2,301402,false,false,376,image-keyboard-response,6
true,4,1,1,1,true,z,false,true,0.0-2.0-0.11-0.100-3.100,0,0,0,90,false,stim,false,2,502.0,1,0,2,36461,task2,303410,false,false,379,image-keyboard-response,7
true,4,1,1,0,false,q,false,false,0.0-2.0-0.11-0.101-3.101,0,0,0,90,false,stim,true,1,554.0,1,0,0,36461,task2,305470,false,false,382,image-keyboard-response,8
true,4,1,1,1,true,z,false,true,0.0-2.0-0.11-0.102-3.102,0,0,0,90,false,stim,false,2,665.0,1,0,2,36461,task2,307640,false,false,385,image-keyboard-response,9
true,4,1,1,0,false,q,false,false,0.0-2.0-0.11-0.103-3.103,0,0,0,90,false,stim,true,1,479.0,1,0,1,36461,task2,309625,false,false,388,image-keyboard-response,10
true,4,1,1,0,false,q,false,false,0.0-2.0-0.11-0.104-3.104,0,0,0,90,false,stim,true,1,537.0,1,0,0,36461,task2,311666,false,false,391,image-keyboard-response,11
true,4,1,1,0,false,q,false,true,0.0-2.0-0.11-0.105-3.105,0,0,0,90,false,stim,true,1,544.0,1,0,1,36461,task2,313714,false,true,394,image-keyboard-response,12
true,4,1,1,0,false,q,false,false,0.0-2.0-0.11-0.106-3.106,0,0,0,90,false,stim,true,1,717.0,1,0,0,36461,task2,315937,false,false,397,image-keyboard-response,13
true,4,1,1,0,false,q,false,true,0.0-2.0-0.11-0.107-3.107,0,0,0,90,false,stim,true,1,624.0000000000582,1,0,1,36461,task2,318067,false,true,400,image-keyboard-response,14
true,4,1,1,1,true,z,false,true,0.0-2.0-0.12-0.108-3.108,0,0,0,90,false,stim,false,2,811.0,1,0,2,36461,task2,320386,false,false,403,image-keyboard-response,15
true,4,1,1,0,false,q,false,false,0.0-2.0-0.12-0.109-3.109,0,0,0,90,false,stim,true,1,457.0,1,0,0,36461,task2,322348,false,false,406,image-keyboard-response,16
true,4,1,1,0,false,q,false,false,0.0-2.0-0.12-0.110-3.110,0,0,0,90,false,stim,true,1,931.0,1,0,1,36461,task2,324785,false,false,409,image-keyboard-response,17
true,4,0,1,0,true,q,false,true,0.0-2.0-0.12-0.111-3.111,0,0,0,81,false,stim,false,1,824.0000000000582,1,0,0,36461,task2,327114,false,false,412,image-keyboard-response,18
true,4,1,1,1,true,z,false,true,0.0-2.0-0.12-0.112-3.112,0,0,0,90,false,stim,false,2,705.9999999999418,1,0,2,36461,task2,329325,false,false,415,image-keyboard-response,19
true,4,1,1,1,true,z,false,true,0.0-2.0-0.12-0.113-3.113,0,0,0,90,false,stim,false,2,819.0,1,0,2,36461,task2,331649,false,false,418,image-keyboard-response,20
true,4,1,1,0,false,q,false,false,0.0-2.0-0.12-0.114-3.114,0,0,0,90,false,stim,true,1,550.0,1,0,1,36461,task2,333704,false,false,421,image-keyboard-response,21
true,4,0,1,0,true,q,false,true,0.0-2.0-0.12-0.115-3.115,0,0,0,81,false,stim,false,1,667.0,1,0,1,36461,task2,335877,false,false,424,image-keyboard-response,22
true,4,1,1,0,false,q,false,false,0.0-2.0-0.12-0.116-3.116,0,0,0,90,false,stim,true,1,508.0,1,0,0,36461,task2,337891,false,false,427,image-keyboard-response,23
true,4,1,1,0,false,q,false,false,0.0-2.0-0.13-0.117-3.117,0,0,0,90,false,stim,true,1,725.0,1,0,0,36461,task2,340122,false,false,430,image-keyboard-response,24
true,4,0,1,0,true,q,false,true,0.0-2.0-0.13-0.118-3.118,0,0,0,81,false,stim,false,1,1136.0,1,0,1,36461,task2,342764,false,false,433,image-keyboard-response,25
true,4,1,1,0,false,q,false,false,0.0-2.0-0.13-0.119-3.119,0,0,0,90,false,stim,true,1,566.0,1,0,0,36461,task2,344835,false,false,436,image-keyboard-response,26
true,4,0,1,0,true,q,false,true,0.0-2.0-0.13-0.120-3.120,0,0,0,81,false,stim,false,1,732.9999999999418,1,0,1,36461,task2,347073,false,false,439,image-keyboard-response,27
true,4,1,1,1,true,z,false,true,0.0-2.0-0.13-0.121-3.121,0,0,0,90,false,stim,false,2,792.9999999999418,1,0,2,36461,task2,349372,false,false,442,image-keyboard-response,28
true,4,2,1,0,false,q,true,false,0.0-2.0-0.13-0.122-3.122,0,0,0,68,false,stim,false,1,633.0,1,0,0,36461,task2,351510,false,false,445,image-keyboard-response,29
true,4,0,1,0,true,q,false,true,0.0-2.0-0.13-0.123-3.123,0,0,0,81,false,stim,false,1,982.0,1,0,1,36461,task2,353997,false,false,448,image-keyboard-response,30
true,4,1,1,1,true,z,false,true,0.0-2.0-0.13-0.124-3.124,0,0,0,90,false,stim,false,2,769.0,1,0,2,36461,task2,356272,false,false,451,image-keyboard-response,31
true,4,1,1,1,true,z,false,true,0.0-2.0-0.13-0.125-3.125,0,0,0,90,false,stim,false,2,775.0,1,0,2,36461,task2,358553,false,false,454,image-keyboard-response,32
true,4,1,1,1,true,z,false,false,0.0-2.0-0.14-0.126-3.126,0,0,0,90,false,stim,false,2,537.0,1,0,2,36461,task2,360596,false,true,457,image-keyboard-response,33
true,4,0,1,0,true,q,false,true,0.0-2.0-0.14-0.127-3.127,0,0,0,81,false,stim,false,1,925.0,1,1,0,36461,task2,363026,false,false,460,image-keyboard-response,34
true,4,0,1,0,true,q,false,true,0.0-2.0-0.14-0.128-3.128,0,0,0,81,false,stim,false,1,529.0,1,0,1,36461,task2,365061,false,false,463,image-keyboard-response,35
true,4,1,1,1,true,z,false,true,0.0-2.0-0.14-0.129-3.129,0,0,0,90,false,stim,false,2,670.9999999999418,1,0,2,36461,task2,367238,false,false,466,image-keyboard-response,36
true,4,0,1,0,true,q,false,true,0.0-2.0-0.14-0.130-3.130,0,0,0,81,false,stim,false,1,783.0,1,0,1,36461,task2,369527,false,false,469,image-keyboard-response,37
true,4,0,1,0,true,q,false,false,0.0-2.0-0.14-0.131-3.131,0,0,0,81,false,stim,false,1,394.0,1,1,0,36461,task2,371426,false,true,472,image-keyboard-response,38
true,5,0,2,0,true,q,false,true,0.0-2.0-0.14-0.132-3.132,1,0,0,81,true,stim,false,0,610.0,1,1,0,36461,task2,373542,false,false,475,image-keyboard-response,1
true,5,1,2,0,false,q,false,true,0.0-2.0-0.14-0.133-3.133,1,0,0,90,false,stim,true,1,676.0,1,0,2,36461,task2,375721,false,true,478,image-keyboard-response,2
true,5,0,2,1,false,z,false,false,0.0-2.0-0.14-0.134-3.134,1,0,0,81,false,stim,true,0,664.9999999999418,1,0,1,36461,task2,377892,false,false,481,image-keyboard-response,3
true,5,0,2,0,true,q,false,false,0.0-2.0-0.15-0.135-3.135,1,0,0,81,false,stim,false,0,405.0,1,1,0,36461,task2,379803,false,true,484,image-keyboard-response,4
true,5,1,2,0,false,q,false,false,0.0-2.0-0.15-0.136-3.136,1,0,0,90,false,stim,true,1,656.0000000000582,1,0,2,36461,task2,381965,false,false,487,image-keyboard-response,5
true,5,0,2,1,false,z,false,false,0.0-2.0-0.15-0.137-3.137,1,0,0,81,false,stim,true,0,449.0,1,0,1,36461,task2,383920,false,false,490,image-keyboard-response,6
true,5,0,2,1,false,z,false,false,0.0-2.0-0.15-0.138-3.138,1,0,0,81,false,stim,true,0,627.0,1,0,1,36461,task2,386052,false,false,493,image-keyboard-response,7
true,5,1,2,0,false,q,false,false,0.0-2.0-0.15-0.139-3.139,1,0,0,90,false,stim,true,1,961.0000000000582,1,0,2,36461,task2,388519,false,false,496,image-keyboard-response,8
true,5,0,2,0,true,q,false,true,0.0-2.0-0.15-0.140-3.140,1,0,0,81,false,stim,false,0,904.0,1,1,0,36461,task2,390928,false,false,499,image-keyboard-response,9
true,5,2,2,1,false,z,true,false,0.0-2.0-0.15-0.141-3.141,1,0,0,68,false,stim,false,0,745.0,1,0,1,36461,task2,393182,false,false,502,image-keyboard-response,10
true,5,0,2,0,true,q,false,true,0.0-2.0-0.15-0.142-3.142,1,0,0,81,false,stim,false,0,1639.0,1,1,0,36461,task2,396327,false,false,505,image-keyboard-response,11
true,5,1,2,0,false,q,false,false,0.0-2.0-0.15-0.143-3.143,1,0,0,90,false,stim,true,1,478.0,1,0,2,36461,task2,398310,false,false,508,image-keyboard-response,12
true,5,0,2,0,true,q,false,true,0.0-2.0-0.16-0.144-3.144,1,0,0,81,false,stim,false,0,844.0,1,1,0,36461,task2,400659,false,false,511,image-keyboard-response,13
true,5,1,2,1,true,z,false,true,0.0-2.0-0.16-0.145-3.145,1,0,0,90,false,stim,false,0,598.0,1,0,1,36461,task2,402763,false,false,514,image-keyboard-response,14
true,5,1,2,1,true,z,false,true,0.0-2.0-0.16-0.146-3.146,1,0,0,90,false,stim,false,0,873.9999999999418,1,0,1,36461,task2,405143,false,false,517,image-keyboard-response,15
true,5,2,2,0,false,q,true,false,0.0-2.0-0.16-0.147-3.147,1,0,0,68,false,stim,false,1,890.0000000000582,1,0,2,36461,task2,407538,false,false,520,image-keyboard-response,16
true,5,1,2,0,false,q,false,false,0.0-2.0-0.16-0.148-3.148,1,0,0,90,false,stim,true,1,934.0000000000582,1,0,2,36461,task2,409978,false,false,523,image-keyboard-response,17
true,5,0,2,0,true,q,false,true,0.0-2.0-0.16-0.149-3.149,1,0,0,81,false,stim,false,1,536.0,1,0,2,36461,task2,412020,false,false,526,image-keyboard-response,18
true,5,0,2,0,true,q,false,true,0.0-2.0-0.16-0.150-3.150,1,0,0,81,false,stim,false,0,680.0,1,1,0,36461,task2,414205,false,false,529,image-keyboard-response,19
true,5,1,2,1,true,z,false,false,0.0-2.0-0.16-0.151-3.151,1,0,0,90,false,stim,false,0,1479.0,1,0,1,36461,task2,417189,false,true,532,image-keyboard-response,20
true,5,0,2,0,true,q,false,true,0.0-2.0-0.16-0.152-3.152,1,0,0,81,false,stim,false,0,644.0,1,1,0,36461,task2,419338,false,false,535,image-keyboard-response,21
true,5,1,2,0,false,q,false,false,0.0-2.0-0.17-0.153-3.153,1,0,0,90,false,stim,true,1,453.0,1,0,2,36461,task2,421296,false,false,538,image-keyboard-response,22
true,5,1,2,1,true,z,false,true,0.0-2.0-0.17-0.154-3.154,1,0,0,90,false,stim,false,0,1134.0,1,0,1,36461,task2,423936,false,false,541,image-keyboard-response,23
true,5,1,2,1,true,z,false,true,0.0-2.0-0.17-0.155-3.155,1,0,0,90,false,stim,false,0,724.9999999999418,1,0,1,36461,task2,426167,false,false,544,image-keyboard-response,24
true,5,0,2,0,true,q,false,true,0.0-2.0-0.17-0.156-3.156,1,0,0,81,false,stim,false,1,580.0000000000582,1,0,2,36461,task2,428252,false,false,547,image-keyboard-response,25
true,5,0,2,0,true,q,false,true,0.0-2.0-0.17-0.157-3.157,1,0,0,81,false,stim,false,1,452.0,1,0,2,36461,task2,430208,false,false,550,image-keyboard-response,26
true,5,0,2,0,true,q,false,true,0.0-2.0-0.17-0.158-3.158,1,0,0,81,false,stim,false,0,526.0000000000582,1,1,0,36461,task2,432240,false,false,553,image-keyboard-response,27
true,5,0,2,0,true,q,false,true,0.0-2.0-0.17-0.159-3.159,1,0,0,81,false,stim,false,0,525.0,1,1,0,36461,task2,434271,false,false,556,image-keyboard-response,28
true,5,1,2,1,true,z,false,true,0.0-2.0-0.17-0.160-3.160,1,0,0,90,false,stim,false,0,768.9999999999418,1,0,1,36461,task2,436544,false,false,559,image-keyboard-response,29
true,5,0,2,0,true,q,false,true,0.0-2.0-0.17-0.161-3.161,1,0,0,81,false,stim,false,0,759.0,1,0,0,36461,task2,438808,false,false,562,image-keyboard-response,30
true,5,1,2,1,true,z,false,true,0.0-2.0-0.18-0.162-3.162,1,0,0,90,false,stim,false,0,945.0,1,0,1,36461,task2,441258,false,false,565,image-keyboard-response,31
true,5,1,2,1,true,z,false,true,0.0-2.0-0.18-0.163-3.163,1,0,0,90,false,stim,false,0,409.0,1,0,1,36461,task2,443172,false,false,568,image-keyboard-response,32
true,5,0,2,0,true,q,false,true,0.0-2.0-0.18-0.164-3.164,1,0,0,81,false,stim,false,1,576.0,1,0,2,36461,task2,445254,false,false,571,image-keyboard-response,33
true,6,0,1,1,false,z,false,false,0.0-2.0-0.18-0.165-3.165,0,0,0,81,true,stim,true,0,601.0,1,0,0,36461,task2,447360,false,false,574,image-keyboard-response,1
true,6,1,1,0,false,q,false,true,0.0-2.0-0.18-0.166-3.166,0,0,0,90,false,stim,true,1,774.9999999999418,1,0,1,36461,task2,449640,false,true,577,image-keyboard-response,2
true,6,0,1,2,false,d,false,false,0.0-2.0-0.18-0.167-3.167,0,0,0,81,false,stim,true,0,697.0,1,0,2,36461,task2,451842,false,false,580,image-keyboard-response,3
true,6,0,1,1,false,z,false,false,0.0-2.0-0.18-0.168-3.168,0,0,0,81,false,stim,true,0,534.0,1,0,0,36461,task2,453881,false,false,583,image-keyboard-response,4
true,6,0,1,2,false,d,false,false,0.0-2.0-0.18-0.169-3.169,0,0,0,81,false,stim,true,0,858.0,1,0,2,36461,task2,456244,false,false,586,image-keyboard-response,5
true,6,0,1,1,false,z,false,true,0.0-2.0-0.18-0.170-3.170,0,0,0,81,false,stim,true,0,655.0,1,0,0,36461,task2,458405,false,true,589,image-keyboard-response,6
true,6,0,1,1,false,z,false,false,0.0-2.0-0.19-0.171-3.171,0,0,0,81,false,stim,true,0,863.0,1,0,0,36461,task2,460774,false,false,592,image-keyboard-response,7
true,6,1,1,0,false,q,false,false,0.0-2.0-0.19-0.172-3.172,0,0,0,90,false,stim,true,1,745.0,1,0,1,36461,task2,463025,false,false,595,image-keyboard-response,8
true,6,1,1,2,false,d,true,false,0.0-2.0-0.19-0.173-3.173,0,0,0,90,false,stim,false,0,1077.9999999999418,1,0,2,36461,task2,465609,false,false,598,image-keyboard-response,9
true,6,0,1,1,false,z,false,false,0.0-2.0-0.19-0.174-3.174,0,0,0,81,false,stim,true,0,684.0,1,0,0,36461,task2,467803,false,false,601,image-keyboard-response,10
true,6,0,1,2,false,d,false,false,0.0-2.0-0.19-0.175-3.175,0,0,0,81,false,stim,true,0,1083.0,1,0,2,36461,task2,470392,false,false,604,image-keyboard-response,11
true,6,1,1,0,false,q,false,false,0.0-2.0-0.19-0.176-3.176,0,0,0,90,false,stim,true,1,603.0,1,0,1,36461,task2,472500,false,false,607,image-keyboard-response,12
true,6,0,1,2,false,d,false,false,0.0-2.0-0.19-0.177-3.177,0,0,0,81,false,stim,true,0,588.0,1,0,2,36461,task2,474595,false,false,610,image-keyboard-response,13
true,6,1,1,0,false,q,false,false,0.0-2.0-0.19-0.178-3.178,0,0,0,90,false,stim,true,1,1099.0000000000582,1,0,1,36461,task2,477199,false,false,613,image-keyboard-response,14
true,6,0,1,1,false,z,false,false,0.0-2.0-0.19-0.179-3.179,0,0,0,81,false,stim,true,0,557.0,1,0,0,36461,task2,479263,false,false,616,image-keyboard-response,15
true,6,0,1,0,true,q,false,true,0.0-2.0-0.20-0.180-3.180,0,0,0,81,false,stim,false,1,1658.9999999999418,1,0,1,36461,task2,482428,false,false,619,image-keyboard-response,16
true,6,2,1,2,true,d,false,true,0.0-2.0-0.20-0.181-3.181,0,0,0,68,false,stim,false,0,1314.0,1,0,2,36461,task2,485247,false,false,622,image-keyboard-response,17
true,6,0,1,0,true,q,false,true,0.0-2.0-0.20-0.182-3.182,0,0,0,81,false,stim,false,1,722.9999999999418,1,0,1,36461,task2,487476,false,false,625,image-keyboard-response,18
true,6,1,1,1,true,z,false,true,0.0-2.0-0.20-0.183-3.183,0,0,0,90,false,stim,false,0,883.0,1,0,0,36461,task2,489864,false,false,628,image-keyboard-response,19
true,6,2,1,1,false,z,true,false,0.0-2.0-0.20-0.184-3.184,0,0,0,68,false,stim,false,0,823.0000000000582,1,0,0,36461,task2,492193,false,false,631,image-keyboard-response,20
true,6,2,1,2,true,d,false,true,0.0-2.0-0.20-0.185-3.185,0,0,0,68,false,stim,false,0,824.0,1,0,2,36461,task2,494522,false,false,634,image-keyboard-response,21
true,6,2,1,2,true,d,false,true,0.0-2.0-0.20-0.186-3.186,0,0,0,68,false,stim,false,0,677.0,1,0,2,36461,task2,496705,false,false,637,image-keyboard-response,22
true,6,1,1,1,true,z,false,true,0.0-2.0-0.20-0.187-3.187,0,0,0,90,false,stim,false,0,582.0,1,0,0,36461,task2,498793,false,false,640,image-keyboard-response,23
true,6,0,1,0,true,q,false,true,0.0-2.0-0.20-0.188-3.188,0,0,0,81,false,stim,false,1,824.0,1,0,1,36461,task2,501122,false,false,643,image-keyboard-response,24
true,6,1,1,1,true,z,false,true,0.0-2.0-0.21-0.189-3.189,0,0,0,90,false,stim,false,0,1052.0000000000582,1,0,0,36461,task2,503680,false,false,646,image-keyboard-response,25
true,6,2,1,2,true,d,false,true,0.0-2.0-0.21-0.190-3.190,0,0,0,68,false,stim,false,0,572.0,1,0,2,36461,task2,505756,false,false,649,image-keyboard-response,26
true,6,2,1,2,true,d,false,true,0.0-2.0-0.21-0.191-3.191,0,0,0,68,false,stim,false,0,487.0,1,0,2,36461,task2,507749,false,false,652,image-keyboard-response,27
true,6,2,1,2,true,d,false,true,0.0-2.0-0.21-0.192-3.192,0,0,0,68,false,stim,false,0,435.0,1,0,2,36461,task2,509690,false,false,655,image-keyboard-response,28
true,6,1,1,1,true,z,false,true,0.0-2.0-0.21-0.193-3.193,0,0,0,90,false,stim,false,0,690.0000000000582,1,0,0,36461,task2,511886,false,false,658,image-keyboard-response,29
true,6,0,1,0,true,q,false,true,0.0-2.0-0.21-0.194-3.194,0,0,0,81,false,stim,false,1,1037.0,1,0,1,36461,task2,514429,false,false,661,image-keyboard-response,30
true,6,0,1,0,true,q,false,true,0.0-2.0-0.21-0.195-3.195,0,0,0,81,false,stim,false,1,1446.0,1,1,1,36461,task2,517380,false,false,664,image-keyboard-response,31
true,6,0,1,0,true,q,false,true,0.0-2.0-0.21-0.196-3.196,0,0,0,81,false,stim,false,1,489.0000000000582,1,1,1,36461,task2,519374,false,false,667,image-keyboard-response,32
true,6,1,1,1,true,z,false,true,0.0-2.0-0.21-0.197-3.197,0,0,0,90,false,stim,false,0,928.9999999999418,1,0,0,36461,task2,521808,false,false,670,image-keyboard-response,33
true,6,1,1,1,true,z,false,true,0.0-2.0-0.22-0.198-3.198,0,0,0,90,false,stim,false,0,1073.0,1,0,0,36461,task2,524388,false,false,673,image-keyboard-response,34
true,6,0,1,0,true,q,false,true,0.0-2.0-0.22-0.199-3.199,0,0,0,81,false,stim,false,1,771.0,1,1,1,36461,task2,526666,false,false,676,image-keyboard-response,35
true,7,1,2,2,false,d,false,false,0.0-2.0-0.22-0.200-3.200,0,1,0,90,true,stim,true,1,656.0,1,0,0,36461,task2,528829,false,false,679,image-keyboard-response,1
true,7,1,2,2,false,d,false,false,0.0-2.0-0.22-0.201-3.201,0,1,0,90,false,stim,true,1,735.0,1,0,0,36461,task2,531070,false,false,682,image-keyboard-response,2
true,7,2,2,0,false,q,false,false,0.0-2.0-0.22-0.202-3.202,0,1,0,68,false,stim,true,2,708.0,1,0,2,36461,task2,533283,false,false,685,image-keyboard-response,3
true,7,2,2,0,false,q,false,false,0.0-2.0-0.22-0.203-3.203,0,1,0,68,false,stim,true,2,481.0,1,0,2,36461,task2,535271,false,false,688,image-keyboard-response,4
true,7,1,2,0,false,q,true,false,0.0-2.0-0.22-0.204-3.204,0,1,0,90,false,stim,false,0,718.0,1,1,1,36461,task2,537494,false,false,691,image-keyboard-response,5
true,7,0,2,0,true,q,false,true,0.0-2.0-0.22-0.205-3.205,0,1,0,81,false,stim,false,0,466.0,1,1,1,36461,task2,539467,false,false,694,image-keyboard-response,6
true,7,2,2,0,false,q,false,false,0.0-2.0-0.22-0.206-3.206,0,1,0,68,false,stim,true,2,774.0,1,0,2,36461,task2,541747,false,false,697,image-keyboard-response,7
true,7,1,2,0,false,q,true,false,0.0-2.0-0.23-0.207-3.207,0,1,0,90,false,stim,false,0,685.0,1,1,1,36461,task2,543938,false,false,700,image-keyboard-response,8
true,7,0,2,2,false,d,true,false,0.0-2.0-0.23-0.208-3.208,0,1,0,81,false,stim,false,1,938.0,1,0,0,36461,task2,546387,false,false,703,image-keyboard-response,9
true,7,0,2,0,true,q,false,false,0.0-2.0-0.23-0.209-3.209,0,1,0,81,false,stim,false,0,850.0,1,1,1,36461,task2,548743,false,true,706,image-keyboard-response,10
true,7,1,2,2,false,d,false,false,0.0-2.0-0.23-0.210-3.210,0,1,0,90,false,stim,true,1,465.0,1,0,0,36461,task2,550713,false,false,709,image-keyboard-response,11
true,7,2,2,0,false,q,false,false,0.0-2.0-0.23-0.211-3.211,0,1,0,68,false,stim,true,2,437.0,1,0,2,36461,task2,552656,false,false,712,image-keyboard-response,12
true,7,2,2,0,false,q,false,false,0.0-2.0-0.23-0.212-3.212,0,1,0,68,false,stim,true,2,452.0,1,0,2,36461,task2,554613,false,false,715,image-keyboard-response,13
true,7,0,2,0,true,q,false,true,0.0-2.0-0.23-0.213-3.213,0,1,0,81,false,stim,false,0,1470.0,1,1,1,36461,task2,557589,false,false,718,image-keyboard-response,14
true,7,2,2,0,false,q,false,false,0.0-2.0-0.23-0.214-3.214,0,1,0,68,false,stim,true,2,742.0000000001164,1,0,2,36461,task2,559837,false,false,721,image-keyboard-response,15
true,7,1,2,2,false,d,false,false,0.0-2.0-0.23-0.215-3.215,0,1,0,90,false,stim,true,1,936.0,1,0,0,36461,task2,562277,false,false,724,image-keyboard-response,16
true,7,0,2,0,true,q,false,true,0.0-2.0-0.24-0.216-3.216,0,1,0,81,false,stim,false,0,1288.9999999998836,1,1,1,36461,task2,565072,false,false,727,image-keyboard-response,17
true,7,2,2,2,true,d,false,true,0.0-2.0-0.24-0.217-3.217,0,1,0,68,false,stim,false,1,891.0,1,0,0,36461,task2,567469,false,false,730,image-keyboard-response,18
true,7,2,2,2,true,d,false,true,0.0-2.0-0.24-0.218-3.218,0,1,0,68,false,stim,false,1,538.0,1,0,0,36461,task2,569513,false,false,733,image-keyboard-response,19
true,7,0,2,0,true,q,false,true,0.0-2.0-0.24-0.219-3.219,0,1,0,81,false,stim,false,0,894.0000000001164,1,1,1,36461,task2,571913,false,false,736,image-keyboard-response,20
true,7,1,2,0,false,q,true,false,0.0-2.0-0.24-0.220-3.220,0,1,0,90,false,stim,false,2,1318.0,1,0,2,36461,task2,574737,false,false,739,image-keyboard-response,21
true,7,0,2,0,true,q,false,true,0.0-2.0-0.24-0.221-3.221,0,1,0,81,false,stim,false,2,633.0,1,0,2,36461,task2,576875,false,false,742,image-keyboard-response,22
true,7,2,2,2,true,d,false,true,0.0-2.0-0.24-0.222-3.222,0,1,0,68,false,stim,false,1,1194.0,1,0,0,36461,task2,579575,false,false,745,image-keyboard-response,23
true,7,0,2,0,true,q,false,true,0.0-2.0-0.24-0.223-3.223,0,1,0,81,false,stim,false,0,983.0,1,1,1,36461,task2,582063,false,false,748,image-keyboard-response,24
true,7,0,2,0,true,q,false,true,0.0-2.0-0.24-0.224-3.224,0,1,0,81,false,stim,false,2,489.0,1,0,2,36461,task2,584058,false,false,751,image-keyboard-response,25
true,7,0,2,0,true,q,false,true,0.0-2.0-0.25-0.225-3.225,0,1,0,81,false,stim,false,2,1112.0,1,0,2,36461,task2,586676,false,false,754,image-keyboard-response,26
true,7,0,2,0,true,q,false,true,0.0-2.0-0.25-0.226-3.226,0,1,0,81,false,stim,false,0,744.9999999998836,1,0,1,36461,task2,588927,false,false,757,image-keyboard-response,27
true,7,0,2,0,true,q,false,true,0.0-2.0-0.25-0.227-3.227,0,1,0,81,false,stim,false,2,1387.0,1,0,2,36461,task2,591820,false,false,760,image-keyboard-response,28
true,7,0,2,2,false,d,true,false,0.0-2.0-0.25-0.228-3.228,0,1,0,81,false,stim,false,1,740.0,1,0,0,36461,task2,594067,false,false,763,image-keyboard-response,29
true,7,2,2,2,true,d,false,false,0.0-2.0-0.25-0.229-3.229,0,1,0,68,false,stim,false,1,452.0,1,0,0,36461,task2,596024,false,true,766,image-keyboard-response,30
true,7,2,2,2,true,d,false,true,0.0-2.0-0.25-0.230-3.230,0,1,0,68,false,stim,false,1,334.0,1,0,0,36461,task2,597864,false,false,769,image-keyboard-response,31
true,8,0,1,2,false,d,false,false,0.0-2.0-0.25-0.231-3.231,0,0,0,81,true,stim,true,0,981.0,1,0,2,36461,task2,600351,false,false,772,image-keyboard-response,1
true,8,0,1,2,false,d,false,false,0.0-2.0-0.25-0.232-3.232,0,0,0,81,false,stim,true,0,1217.0,1,0,1,36461,task2,603075,false,false,775,image-keyboard-response,2
true,8,0,1,2,false,d,false,false,0.0-2.0-0.25-0.233-3.233,0,0,0,81,false,stim,true,0,1280.0000000001164,1,0,1,36461,task2,605860,false,false,778,image-keyboard-response,3
true,8,0,1,2,false,d,false,false,0.0-2.0-0.26-0.234-3.234,0,0,0,81,false,stim,true,0,1241.0,1,0,2,36461,task2,608613,false,false,781,image-keyboard-response,4
true,8,0,1,2,false,d,false,false,0.0-2.0-0.26-0.235-3.235,0,0,0,81,false,stim,true,0,1662.0,1,0,1,36461,task2,611782,false,false,784,image-keyboard-response,5
true,8,0,1,2,false,d,false,false,0.0-2.0-0.26-0.236-3.236,0,0,0,81,false,stim,true,0,1109.9999999998836,1,0,2,36461,task2,614398,false,false,787,image-keyboard-response,6
true,8,2,1,1,false,z,false,false,0.0-2.0-0.26-0.237-3.237,0,0,0,68,false,stim,true,2,1187.0,1,0,0,36461,task2,617092,false,false,790,image-keyboard-response,7
true,8,0,1,2,false,d,false,false,0.0-2.0-0.26-0.238-3.238,0,0,0,81,false,stim,true,0,1134.0,1,0,2,36461,task2,619731,false,false,793,image-keyboard-response,8
true,8,1,1,2,false,d,true,false,0.0-2.0-0.26-0.239-3.239,0,0,0,90,false,stim,false,0,1190.0,1,0,1,36461,task2,622427,false,false,796,image-keyboard-response,9
true,8,2,1,2,true,d,false,false,0.0-2.0-0.26-0.240-3.240,0,0,0,68,false,stim,false,0,800.9999999998836,1,0,1,36461,task2,624733,false,true,799,image-keyboard-response,10
true,8,2,1,1,false,z,false,false,0.0-2.0-0.26-0.241-3.241,0,0,0,68,false,stim,true,2,1219.0,1,0,0,36461,task2,627462,false,false,802,image-keyboard-response,11
true,8,1,1,1,true,z,false,true,0.0-2.0-0.26-0.242-3.242,0,0,0,90,false,stim,false,2,683.0,1,0,0,36461,task2,629649,false,false,805,image-keyboard-response,12
true,8,1,1,1,true,z,false,true,0.0-2.0-0.27-0.243-3.243,0,0,0,90,false,stim,false,2,557.0,1,0,0,36461,task2,631713,false,false,808,image-keyboard-response,13
true,8,0,1,2,false,d,false,false,0.0-2.0-0.27-0.244-3.244,0,0,0,81,false,stim,true,0,822.0,1,0,2,36461,task2,634041,false,false,811,image-keyboard-response,14
true,8,2,1,2,true,d,false,true,0.0-2.0-0.27-0.245-3.245,0,0,0,68,false,stim,false,0,966.0,1,0,2,36461,task2,636511,false,false,814,image-keyboard-response,15
true,8,1,1,2,false,d,true,false,0.0-2.0-0.27-0.246-3.246,0,0,0,90,false,stim,false,0,1069.0000000001164,1,0,1,36461,task2,639087,false,false,817,image-keyboard-response,16
true,8,2,1,2,true,d,false,true,0.0-2.0-0.27-0.247-3.247,0,0,0,68,false,stim,false,0,942.0,1,0,2,36461,task2,641534,false,false,820,image-keyboard-response,17
true,8,0,1,2,false,d,false,false,0.0-2.0-0.27-0.248-3.248,0,0,0,81,false,stim,true,0,1452.0,1,0,1,36461,task2,644493,false,false,823,image-keyboard-response,18
true,8,1,1,1,true,z,false,true,0.0-2.0-0.27-0.249-3.249,0,0,0,90,false,stim,false,2,576.0,1,0,0,36461,task2,646574,false,false,826,image-keyboard-response,19
true,8,1,1,1,true,z,false,true,0.0-2.0-0.27-0.250-3.250,0,0,0,90,false,stim,false,2,577.0,1,0,0,36461,task2,648658,false,false,829,image-keyboard-response,20
true,8,0,1,2,false,d,false,false,0.0-2.0-0.27-0.251-3.251,0,0,0,81,false,stim,true,0,1305.0,1,0,1,36461,task2,651468,false,false,832,image-keyboard-response,21
true,8,2,1,2,true,d,false,true,0.0-2.0-0.28-0.252-3.252,0,0,0,68,false,stim,false,0,809.0,1,0,2,36461,task2,653783,false,false,835,image-keyboard-response,22
true,8,1,1,1,true,z,false,true,0.0-2.0-0.28-0.253-3.253,0,0,0,90,false,stim,false,2,1175.9999999998836,1,0,0,36461,task2,656465,false,false,838,image-keyboard-response,23
true,8,2,1,2,true,d,false,true,0.0-2.0-0.28-0.254-3.254,0,0,0,68,false,stim,false,0,689.0000000001164,1,0,1,36461,task2,658658,false,false,841,image-keyboard-response,24
true,8,1,1,1,true,z,false,true,0.0-2.0-0.28-0.255-3.255,0,0,0,90,false,stim,false,2,857.0,1,0,0,36461,task2,661022,false,false,844,image-keyboard-response,25
true,8,2,1,2,true,d,false,true,0.0-2.0-0.28-0.256-3.256,0,0,0,68,false,stim,false,0,709.0,1,0,1,36461,task2,663237,false,false,847,image-keyboard-response,26
true,8,1,1,1,true,z,false,true,0.0-2.0-0.28-0.257-3.257,0,0,0,90,false,stim,false,2,681.0,1,0,0,36461,task2,665424,false,false,850,image-keyboard-response,27
true,8,2,1,2,true,d,false,false,0.0-2.0-0.28-0.258-3.258,0,0,0,68,false,stim,false,0,769.0,1,0,2,36461,task2,667700,false,true,853,image-keyboard-response,28
true,8,2,1,2,true,d,false,true,0.0-2.0-0.28-0.259-3.259,0,0,0,68,false,stim,false,0,580.0,1,0,1,36461,task2,669786,false,false,856,image-keyboard-response,29
true,8,2,1,2,true,d,false,true,0.0-2.0-0.28-0.260-3.260,0,0,0,68,false,stim,false,0,610.0,1,0,2,36461,task2,671903,false,false,859,image-keyboard-response,30
true,8,2,1,2,true,d,false,true,0.0-2.0-0.29-0.261-3.261,0,0,0,68,false,stim,false,0,550.0,1,0,2,36461,task2,673960,false,false,862,image-keyboard-response,31
true,8,2,1,2,true,d,false,true,0.0-2.0-0.29-0.262-3.262,0,0,0,68,false,stim,false,0,606.0,1,0,2,36461,task2,676072,false,false,865,image-keyboard-response,32
true,8,2,1,2,true,d,false,true,0.0-2.0-0.29-0.263-3.263,0,0,0,68,false,stim,false,0,556.9999999998836,1,0,1,36461,task2,678133,false,false,868,image-keyboard-response,33
true,8,1,1,1,true,z,false,true,0.0-2.0-0.29-0.264-3.264,0,0,0,90,false,stim,false,2,669.9999999998836,1,0,0,36461,task2,680310,false,false,871,image-keyboard-response,34
true,9,1,1,0,false,q,false,false,0.0-2.0-0.29-0.265-3.265,0,0,0,90,true,stim,true,1,1075.0,1,0,0,36461,task2,682891,false,false,874,image-keyboard-response,1
true,9,2,1,1,false,z,false,false,0.0-2.0-0.29-0.266-3.266,0,0,0,68,false,stim,true,2,1251.0,1,0,1,36461,task2,685648,false,false,877,image-keyboard-response,2
true,9,1,1,0,false,q,false,false,0.0-2.0-0.29-0.267-3.267,0,0,0,90,false,stim,true,1,861.0,1,0,0,36461,task2,688015,false,false,880,image-keyboard-response,3
true,9,2,1,1,false,z,false,false,0.0-2.0-0.29-0.268-3.268,0,0,0,68,false,stim,true,2,1246.0,1,0,1,36461,task2,690767,false,false,883,image-keyboard-response,4
true,9,2,1,1,false,z,false,true,0.0-2.0-0.29-0.269-3.269,0,0,0,68,false,stim,true,2,500.0,1,0,2,36461,task2,692772,false,true,886,image-keyboard-response,5
true,9,1,1,0,false,q,false,false,0.0-2.0-0.30-0.270-3.270,0,0,0,90,false,stim,true,1,744.0,1,0,0,36461,task2,695020,false,false,889,image-keyboard-response,6
true,9,2,1,1,false,z,false,false,0.0-2.0-0.30-0.271-3.271,0,0,0,68,false,stim,true,2,624.0,1,0,2,36461,task2,697151,false,false,892,image-keyboard-response,7
true,9,2,1,1,false,z,false,false,0.0-2.0-0.30-0.272-3.272,0,0,0,68,false,stim,true,2,1064.0,1,0,1,36461,task2,699721,false,false,895,image-keyboard-response,8
true,9,2,1,1,false,z,false,false,0.0-2.0-0.30-0.273-3.273,0,0,0,68,false,stim,true,2,905.0,1,0,2,36461,task2,702132,false,false,898,image-keyboard-response,9
true,9,0,1,1,false,z,true,false,0.0-2.0-0.30-0.274-3.274,0,0,0,81,false,stim,false,2,1135.0,1,0,1,36461,task2,704781,false,false,901,image-keyboard-response,10
true,9,0,1,0,true,q,false,false,0.0-2.0-0.30-0.275-3.275,0,0,0,81,false,stim,false,1,1339.0,1,0,0,36461,task2,707626,false,true,904,image-keyboard-response,11
true,9,2,1,1,false,z,false,false,0.0-2.0-0.30-0.276-3.276,0,0,0,68,false,stim,true,2,967.0,1,0,2,36461,task2,710101,false,false,907,image-keyboard-response,12
true,9,1,1,1,true,z,false,true,0.0-2.0-0.30-0.277-3.277,0,0,0,90,false,stim,false,2,1119.0,1,0,1,36461,task2,712726,false,false,910,image-keyboard-response,13
true,9,1,1,0,false,q,false,false,0.0-2.0-0.30-0.278-3.278,0,0,0,90,false,stim,true,1,1369.0,1,0,0,36461,task2,715602,false,false,913,image-keyboard-response,14
true,9,2,1,1,false,z,false,false,0.0-2.0-0.31-0.279-3.279,0,0,0,68,false,stim,true,2,885.0,1,0,2,36461,task2,717995,false,false,916,image-keyboard-response,15
true,9,1,1,1,true,z,false,false,0.0-2.0-0.31-0.280-3.280,0,0,0,90,false,stim,false,2,525.0,1,0,1,36461,task2,720026,false,true,919,image-keyboard-response,16
true,9,2,1,0,false,q,true,false,0.0-2.0-0.31-0.281-3.281,0,0,0,68,false,stim,false,1,756.0000000001164,1,0,0,36461,task2,722289,false,false,922,image-keyboard-response,17
true,9,1,1,1,true,z,false,true,0.0-2.0-0.31-0.282-3.282,0,0,0,90,false,stim,false,2,949.0,1,0,1,36461,task2,724744,false,false,925,image-keyboard-response,18
true,9,0,1,0,true,q,false,true,0.0-2.0-0.31-0.283-3.283,0,0,0,81,false,stim,false,1,588.0,1,0,0,36461,task2,726836,false,false,928,image-keyboard-response,19
true,9,1,1,1,true,z,false,false,0.0-2.0-0.31-0.284-3.284,0,0,0,90,false,stim,false,2,1725.0,1,0,2,36461,task2,730066,false,true,931,image-keyboard-response,20
true,9,0,1,1,false,z,true,false,0.0-2.0-0.31-0.285-3.285,0,0,0,81,false,stim,false,2,585.0,1,0,2,36461,task2,732156,false,false,934,image-keyboard-response,21
true,9,1,1,1,true,z,false,true,0.0-2.0-0.31-0.286-3.286,0,0,0,90,false,stim,false,2,1112.9999999998836,1,0,1,36461,task2,734778,false,false,937,image-keyboard-response,22
true,9,0,1,0,true,q,false,true,0.0-2.0-0.31-0.287-3.287,0,0,0,81,false,stim,false,1,636.9999999998836,1,0,0,36461,task2,736921,false,false,940,image-keyboard-response,23
true,9,2,1,1,false,z,false,true,0.0-2.0-0.32-0.288-3.288,0,0,0,68,false,stim,true,2,665.9999999998836,1,0,2,36461,task2,739094,false,true,943,image-keyboard-response,24
true,9,1,1,0,false,q,false,false,0.0-2.0-0.32-0.289-3.289,0,0,0,90,false,stim,true,1,1780.0000000001164,1,0,0,36461,task2,742380,false,false,946,image-keyboard-response,25
true,9,1,1,0,false,q,false,false,0.0-2.0-0.32-0.290-3.290,0,0,0,90,false,stim,true,1,1526.0,1,0,0,36461,task2,745412,false,false,949,image-keyboard-response,26
true,9,0,1,1,false,z,true,false,0.0-2.0-0.32-0.291-3.291,0,0,0,81,false,stim,false,2,467.0,1,0,1,36461,task2,747386,false,false,952,image-keyboard-response,27
true,9,1,1,1,true,z,false,true,0.0-2.0-0.32-0.292-3.292,0,0,0,90,false,stim,false,2,431.0,1,0,1,36461,task2,749324,false,false,955,image-keyboard-response,28
true,9,0,1,0,true,q,false,false,0.0-2.0-0.32-0.293-3.293,0,0,0,81,false,stim,false,1,584.0000000001164,1,0,0,36461,task2,751414,false,true,958,image-keyboard-response,29
true,9,2,1,1,false,z,false,false,0.0-2.0-0.32-0.294-3.294,0,0,0,68,false,stim,true,2,836.0,1,0,2,36461,task2,753757,false,false,961,image-keyboard-response,30
true,9,2,1,1,false,z,false,false,0.0-2.0-0.32-0.295-3.295,0,0,0,68,false,stim,true,2,706.0,1,0,2,36461,task2,755970,false,false,964,image-keyboard-response,31
true,9,1,1,1,true,z,false,true,0.0-2.0-0.32-0.296-3.296,0,0,0,90,false,stim,false,2,2462.0,1,1,1,36461,task2,759937,false,false,967,image-keyboard-response,32
true,9,0,1,0,true,q,false,false,0.0-2.0-0.33-0.297-3.297,0,0,0,81,false,stim,false,1,640.0,1,0,0,36461,task2,762084,false,true,970,image-keyboard-response,33
true,9,0,1,0,true,q,false,true,0.0-2.0-0.33-0.298-3.298,0,0,0,81,false,stim,false,1,628.0,1,0,0,36461,task2,764218,false,false,973,image-keyboard-response,34
true,10,2,2,0,false,q,true,false,0.0-2.0-0.33-0.299-3.299,0,1,0,68,true,stim,false,1,908.0,1,0,2,36461,task2,766633,false,false,976,image-keyboard-response,1
true,10,1,2,1,true,z,false,true,0.0-2.0-0.33-0.300-3.300,0,1,0,90,false,stim,false,1,889.0,1,1,1,36461,task2,769029,false,false,979,image-keyboard-response,2
true,10,2,2,0,false,q,true,false,0.0-2.0-0.33-0.301-3.301,0,1,0,68,false,stim,false,1,843.0,1,0,2,36461,task2,771377,false,false,982,image-keyboard-response,3
true,10,1,2,1,true,z,false,true,0.0-2.0-0.33-0.302-3.302,0,1,0,90,false,stim,false,1,1020.0,1,1,1,36461,task2,773903,false,false,985,image-keyboard-response,4
true,10,2,2,0,false,q,true,false,0.0-2.0-0.33-0.303-3.303,0,1,0,68,false,stim,false,1,741.9999999998836,1,0,2,36461,task2,776152,false,false,988,image-keyboard-response,5
true,10,1,2,1,true,z,false,false,0.0-2.0-0.33-0.304-3.304,0,1,0,90,false,stim,false,1,704.0000000001164,1,1,1,36461,task2,778362,false,true,991,image-keyboard-response,6
true,10,0,2,2,false,d,false,false,0.0-2.0-0.33-0.305-3.305,0,1,0,81,false,stim,true,0,654.0,1,0,0,36461,task2,780522,false,false,994,image-keyboard-response,7
true,10,0,2,2,false,d,false,false,0.0-2.0-0.34-0.306-3.306,0,1,0,81,false,stim,true,0,1317.0,1,0,0,36461,task2,783346,false,false,997,image-keyboard-response,8
true,10,2,2,0,false,q,true,false,0.0-2.0-0.34-0.307-3.307,0,1,0,68,false,stim,false,1,680.9999999998836,1,0,2,36461,task2,785533,false,false,1000,image-keyboard-response,9
true,10,1,2,2,false,d,true,false,0.0-2.0-0.34-0.308-3.308,0,1,0,90,false,stim,false,0,1024.0,1,0,0,36461,task2,788070,false,false,1003,image-keyboard-response,10
true,10,2,2,0,false,q,true,false,0.0-2.0-0.34-0.309-3.309,0,1,0,68,false,stim,false,1,771.0,1,0,2,36461,task2,790348,false,false,1006,image-keyboard-response,11
true,10,0,2,2,false,d,false,false,0.0-2.0-0.34-0.310-3.310,0,1,0,81,false,stim,true,0,956.0,1,0,0,36461,task2,792810,false,false,1009,image-keyboard-response,12
true,10,1,2,1,true,z,false,true,0.0-2.0-0.34-0.311-3.311,0,1,0,90,false,stim,false,1,1010.0,1,1,1,36461,task2,795325,false,false,1012,image-keyboard-response,13
true,10,1,2,1,true,z,false,true,0.0-2.0-0.34-0.312-3.312,0,1,0,90,false,stim,false,1,916.0,1,1,1,36461,task2,797750,false,false,1015,image-keyboard-response,14
true,10,0,2,0,true,q,false,true,0.0-2.0-0.34-0.313-3.313,0,1,0,81,false,stim,false,1,642.9999999998836,1,0,2,36461,task2,799899,false,false,1018,image-keyboard-response,15
true,10,1,2,1,true,z,false,true,0.0-2.0-0.34-0.314-3.314,0,1,0,90,false,stim,false,1,884.0000000001164,1,1,1,36461,task2,802289,false,false,1021,image-keyboard-response,16
true,10,0,2,2,false,d,false,false,0.0-2.0-0.35-0.315-3.315,0,1,0,81,false,stim,true,0,946.0,1,0,0,36461,task2,804742,false,false,1024,image-keyboard-response,17
true,10,1,2,2,false,d,true,false,0.0-2.0-0.35-0.316-3.316,0,1,0,90,false,stim,false,0,1107.0,1,0,0,36461,task2,807355,false,false,1027,image-keyboard-response,18
true,10,1,2,1,true,z,false,true,0.0-2.0-0.35-0.317-3.317,0,1,0,90,false,stim,false,1,835.9999999998836,1,1,1,36461,task2,809698,false,false,1030,image-keyboard-response,19
true,10,0,2,0,true,q,false,true,0.0-2.0-0.35-0.318-3.318,0,1,0,81,false,stim,false,1,571.0,1,0,2,36461,task2,811776,false,false,1033,image-keyboard-response,20
true,10,2,2,1,false,z,true,true,0.0-2.0-0.35-0.319-3.319,0,1,0,68,false,stim,false,1,1407.0,1,1,1,36461,task2,814688,false,true,1036,image-keyboard-response,21
true,10,0,2,0,true,q,false,true,0.0-2.0-0.35-0.320-3.320,0,1,0,81,false,stim,false,1,1173.0,1,0,2,36461,task2,817367,false,false,1039,image-keyboard-response,22
true,10,1,2,2,false,d,true,false,0.0-2.0-0.35-0.321-3.321,0,1,0,90,false,stim,false,0,1053.0,1,0,0,36461,task2,819926,false,false,1042,image-keyboard-response,23
true,10,1,2,1,true,z,false,true,0.0-2.0-0.35-0.322-3.322,0,1,0,90,false,stim,false,1,1280.9999999998836,1,1,1,36461,task2,822715,false,false,1045,image-keyboard-response,24
true,10,0,2,0,true,q,false,true,0.0-2.0-0.35-0.323-3.323,0,1,0,81,false,stim,false,1,1097.0,1,0,2,36461,task2,825318,false,false,1048,image-keyboard-response,25
true,10,1,2,1,true,z,false,true,0.0-2.0-0.36-0.324-3.324,0,1,0,90,false,stim,false,1,979.0,1,1,1,36461,task2,827803,false,false,1051,image-keyboard-response,26
true,10,0,2,0,true,q,false,true,0.0-2.0-0.36-0.325-3.325,0,1,0,81,false,stim,false,1,1230.0,1,0,2,36461,task2,830541,false,false,1054,image-keyboard-response,27
true,10,0,2,0,true,q,false,true,0.0-2.0-0.36-0.326-3.326,0,1,0,81,false,stim,false,1,923.0,1,0,2,36461,task2,832971,false,false,1057,image-keyboard-response,28
true,10,0,2,0,true,q,false,true,0.0-2.0-0.36-0.327-3.327,0,1,0,81,false,stim,false,1,853.9999999998836,1,0,2,36461,task2,835331,false,false,1060,image-keyboard-response,29
true,10,1,2,2,false,d,true,false,0.0-2.0-0.36-0.328-3.328,0,1,0,90,false,stim,false,0,1304.0000000001164,1,1,0,36461,task2,838141,false,false,1063,image-keyboard-response,30
true,10,2,2,2,true,d,false,true,0.0-2.0-0.36-0.329-3.329,0,1,0,68,false,stim,false,0,630.0,1,1,0,36461,task2,840277,false,false,1066,image-keyboard-response,31
true,10,1,2,1,true,z,false,true,0.0-2.0-0.36-0.330-3.330,0,1,0,90,false,stim,false,1,1375.0,1,0,1,36461,task2,843160,false,false,1069,image-keyboard-response,32
true,11,2,2,2,true,d,false,true,0.0-2.0-0.36-0.331-3.331,1,0,0,68,true,stim,false,2,1232.9999999998836,1,1,0,36461,task2,845899,false,false,1072,image-keyboard-response,1
true,11,1,2,2,false,d,false,false,0.0-2.0-0.36-0.332-3.332,1,0,0,90,false,stim,true,1,1760.9999999998836,1,0,1,36461,task2,849166,false,false,1075,image-keyboard-response,2
true,11,0,2,2,false,d,true,false,0.0-2.0-0.37-0.333-3.333,1,0,0,81,false,stim,false,2,707.0,1,1,0,36461,task2,851380,false,false,1078,image-keyboard-response,3
true,11,2,2,1,false,z,true,false,0.0-2.0-0.37-0.334-3.334,1,0,0,68,false,stim,false,0,1338.0,1,0,2,36461,task2,854226,false,false,1081,image-keyboard-response,4
true,11,1,2,2,false,d,false,false,0.0-2.0-0.37-0.335-3.335,1,0,0,90,false,stim,true,1,1237.9999999998836,1,0,1,36461,task2,856971,false,false,1084,image-keyboard-response,5
true,11,2,2,1,false,z,true,false,0.0-2.0-0.37-0.336-3.336,1,0,0,68,false,stim,false,0,1157.9999999998836,1,0,2,36461,task2,859635,false,false,1087,image-keyboard-response,6
true,11,0,2,2,false,d,true,false,0.0-2.0-0.37-0.337-3.337,1,0,0,81,false,stim,false,2,1873.9999999998836,1,1,0,36461,task2,863015,false,false,1090,image-keyboard-response,7
true,11,1,2,2,false,d,false,false,0.0-2.0-0.37-0.338-3.338,1,0,0,90,false,stim,true,1,2926.0,1,0,1,36461,task2,867447,false,false,1093,image-keyboard-response,8
true,11,0,2,2,false,d,true,false,0.0-2.0-0.37-0.339-3.339,1,0,0,81,false,stim,false,2,861.0,1,1,0,36461,task2,869814,false,false,1096,image-keyboard-response,9
true,11,2,2,2,true,d,false,true,0.0-2.0-0.37-0.340-3.340,1,0,0,68,false,stim,false,1,1618.0,1,0,1,36461,task2,872938,false,false,1099,image-keyboard-response,10
true,11,2,2,1,false,z,true,false,0.0-2.0-0.37-0.341-3.341,1,0,0,68,false,stim,false,0,683.0,1,0,2,36461,task2,875134,false,false,1102,image-keyboard-response,11
true,11,1,2,2,false,d,true,false,0.0-2.0-0.38-0.342-3.342,1,0,0,90,false,stim,false,2,979.0,1,1,0,36461,task2,877620,false,false,1105,image-keyboard-response,12
true,11,0,2,2,false,d,true,false,0.0-2.0-0.38-0.343-3.343,1,0,0,81,false,stim,false,1,566.0,1,0,1,36461,task2,879691,false,false,1108,image-keyboard-response,13
true,11,2,2,2,true,d,false,true,0.0-2.0-0.38-0.344-3.344,1,0,0,68,false,stim,false,1,570.0000000001164,1,0,1,36461,task2,881767,false,false,1111,image-keyboard-response,14
true,11,1,2,1,true,z,false,true,0.0-2.0-0.38-0.345-3.345,1,0,0,90,false,stim,false,0,1220.0,1,0,2,36461,task2,884493,false,false,1114,image-keyboard-response,15
true,11,2,2,2,true,d,false,false,0.0-2.0-0.38-0.346-3.346,1,0,0,68,false,stim,false,1,1021.0,1,0,1,36461,task2,887019,false,true,1117,image-keyboard-response,16
true,11,1,2,1,true,z,false,false,0.0-2.0-0.38-0.347-3.347,1,0,0,90,false,stim,false,0,873.0,1,0,2,36461,task2,889398,false,true,1120,image-keyboard-response,17
true,11,0,2,2,false,d,true,false,0.0-2.0-0.38-0.348-3.348,1,0,0,81,false,stim,false,2,755.0,1,1,0,36461,task2,891659,false,false,1123,image-keyboard-response,18
true,11,1,2,1,true,z,false,true,0.0-2.0-0.38-0.349-3.349,1,0,0,90,false,stim,false,0,1446.0,1,0,2,36461,task2,894611,false,false,1126,image-keyboard-response,19
true,11,0,2,2,false,d,true,true,0.0-2.0-0.38-0.350-3.350,1,0,0,81,false,stim,false,2,1448.0,1,1,0,36461,task2,897566,false,true,1129,image-keyboard-response,20
true,11,1,2,2,false,d,false,false,0.0-2.0-0.39-0.351-3.351,1,0,0,90,false,stim,true,1,2294.0,1,0,1,36461,task2,901367,false,false,1132,image-keyboard-response,21
true,11,0,2,2,false,d,true,false,0.0-2.0-0.39-0.352-3.352,1,0,0,81,false,stim,false,2,1153.0,1,1,0,36461,task2,904029,false,false,1135,image-keyboard-response,22
true,11,2,2,2,true,d,false,true,0.0-2.0-0.39-0.353-3.353,1,0,0,68,false,stim,false,1,776.0,1,0,1,36461,task2,906311,false,false,1138,image-keyboard-response,23
true,11,1,2,1,true,z,false,true,0.0-2.0-0.39-0.354-3.354,1,0,0,90,false,stim,false,0,488.0000000001164,1,0,2,36461,task2,908305,false,false,1141,image-keyboard-response,24
true,11,2,2,2,true,d,false,true,0.0-2.0-0.39-0.355-3.355,1,0,0,68,false,stim,false,2,1438.0,1,1,0,36461,task2,911250,false,false,1144,image-keyboard-response,25
true,11,0,2,2,false,d,true,false,0.0-2.0-0.39-0.356-3.356,1,0,0,81,false,stim,false,1,1387.0,1,0,1,36461,task2,914145,false,false,1147,image-keyboard-response,26
true,11,1,2,2,false,d,true,false,0.0-2.0-0.39-0.357-3.357,1,0,0,90,false,stim,false,2,1344.9999999998836,1,1,0,36461,task2,916996,false,false,1150,image-keyboard-response,27
true,11,1,2,1,true,z,false,true,0.0-2.0-0.39-0.358-3.358,1,0,0,90,false,stim,false,0,1065.9999999998836,1,0,2,36461,task2,919568,false,false,1153,image-keyboard-response,28
true,11,1,2,1,true,z,false,true,0.0-2.0-0.39-0.359-3.359,1,0,0,90,false,stim,false,0,823.9999999998836,1,0,2,36461,task2,921898,false,false,1156,image-keyboard-response,29
true,11,1,2,1,true,z,false,true,0.0-2.0-0.40-0.360-3.360,1,0,0,90,false,stim,false,0,495.0,1,0,2,36461,task2,923900,false,false,1159,image-keyboard-response,30
true,11,2,2,2,true,d,false,true,0.0-2.0-0.40-0.361-3.361,1,0,0,68,false,stim,false,2,894.9999999998836,1,0,0,36461,task2,926301,false,false,1162,image-keyboard-response,31
true,11,0,2,2,false,d,true,false,0.0-2.0-0.40-0.362-3.362,1,0,0,81,false,stim,false,1,725.0,1,0,1,36461,task2,928533,false,false,1165,image-keyboard-response,32
true,12,1,1,0,false,q,false,false,0.0-2.0-0.40-0.363-3.363,0,0,0,90,true,stim,true,1,1208.0,1,0,2,36461,task2,931246,false,false,1168,image-keyboard-response,1
true,12,2,1,1,false,z,false,false,0.0-2.0-0.40-0.364-3.364,0,0,0,68,false,stim,true,2,2318.9999999998836,1,0,1,36461,task2,935071,false,false,1171,image-keyboard-response,2
true,12,0,1,1,false,z,true,false,0.0-2.0-0.40-0.365-3.365,0,0,0,81,false,stim,false,2,1552.0,1,0,0,36461,task2,938130,false,false,1174,image-keyboard-response,3
true,12,1,1,1,true,z,false,true,0.0-2.0-0.40-0.366-3.366,0,0,0,90,false,stim,false,2,521.9999999998836,1,0,0,36461,task2,940159,false,false,1177,image-keyboard-response,4
true,12,1,1,1,true,z,false,true,0.0-2.0-0.40-0.367-3.367,0,0,0,90,false,stim,false,2,1399.0,1,0,1,36461,task2,943063,false,false,1180,image-keyboard-response,5
true,12,2,1,0,false,q,true,false,0.0-2.0-0.40-0.368-3.368,0,0,0,68,false,stim,false,1,870.0,1,0,2,36461,task2,945439,false,false,1183,image-keyboard-response,6
true,12,1,1,0,false,q,false,false,0.0-2.0-0.41-0.369-3.369,0,0,0,90,false,stim,true,1,383.9999999998836,1,0,2,36461,task2,947333,false,false,1186,image-keyboard-response,7
true,12,1,1,1,true,z,false,true,0.0-2.0-0.41-0.370-3.370,0,0,0,90,false,stim,false,2,944.9999999998836,1,0,0,36461,task2,949784,false,false,1189,image-keyboard-response,8
true,12,1,1,0,false,q,false,false,0.0-2.0-0.41-0.371-3.371,0,0,0,90,false,stim,true,1,1668.0,1,0,2,36461,task2,952959,false,false,1192,image-keyboard-response,9
true,12,1,1,1,true,z,false,false,0.0-2.0-0.41-0.372-3.372,0,0,0,90,false,stim,false,2,682.0,1,0,0,36461,task2,955148,false,true,1195,image-keyboard-response,10
true,12,1,1,1,true,z,false,true,0.0-2.0-0.41-0.373-3.373,0,0,0,90,false,stim,false,2,514.0,1,0,1,36461,task2,957167,false,false,1198,image-keyboard-response,11
true,12,1,1,1,true,z,false,true,0.0-2.0-0.41-0.374-3.374,0,0,0,90,false,stim,false,2,964.0,1,0,1,36461,task2,959647,false,false,1201,image-keyboard-response,12
true,12,0,1,1,false,z,true,false,0.0-2.0-0.41-0.375-3.375,0,0,0,81,false,stim,false,2,647.0000000001164,1,0,0,36461,task2,961800,false,false,1204,image-keyboard-response,13
true,12,1,1,1,true,z,false,true,0.0-2.0-0.41-0.376-3.376,0,0,0,90,false,stim,false,2,2223.0000000001164,1,0,1,36461,task2,965532,false,false,1207,image-keyboard-response,14
true,12,0,1,0,true,q,false,true,0.0-2.0-0.41-0.377-3.377,0,0,0,81,false,stim,false,1,1113.0000000001164,1,0,2,36461,task2,968151,false,false,1210,image-keyboard-response,15
true,12,1,1,1,true,z,false,true,0.0-2.0-0.42-0.378-3.378,0,0,0,90,false,stim,false,2,477.0,1,0,0,36461,task2,970136,false,false,1213,image-keyboard-response,16
true,12,1,1,1,true,z,false,true,0.0-2.0-0.42-0.379-3.379,0,0,0,90,false,stim,false,2,597.9999999998836,1,0,0,36461,task2,972240,false,false,1216,image-keyboard-response,17
true,12,0,1,0,true,q,false,true,0.0-2.0-0.42-0.380-3.380,0,0,0,81,false,stim,false,1,1126.0,1,0,2,36461,task2,974872,false,false,1219,image-keyboard-response,18
true,12,1,1,1,true,z,false,true,0.0-2.0-0.42-0.381-3.381,0,0,0,90,false,stim,false,2,335.0,1,0,1,36461,task2,976714,false,false,1222,image-keyboard-response,19
true,12,1,1,1,true,z,false,true,0.0-2.0-0.42-0.382-3.382,0,0,0,90,false,stim,false,2,340.0000000001164,1,0,1,36461,task2,978561,false,false,1225,image-keyboard-response,20
true,12,1,1,1,true,z,false,true,0.0-2.0-0.42-0.383-3.383,0,0,0,90,false,stim,false,2,775.0,1,0,0,36461,task2,980843,false,false,1228,image-keyboard-response,21
true,12,1,1,1,true,z,false,true,0.0-2.0-0.42-0.384-3.384,0,0,0,90,false,stim,false,2,1046.0,1,0,1,36461,task2,983396,false,false,1231,image-keyboard-response,22
true,12,0,1,0,true,q,false,true,0.0-2.0-0.42-0.385-3.385,0,0,0,81,false,stim,false,1,613.0000000001164,1,0,2,36461,task2,985517,false,false,1234,image-keyboard-response,23
true,12,0,1,0,true,q,false,true,0.0-2.0-0.42-0.386-3.386,0,0,0,81,false,stim,false,1,697.0,1,0,2,36461,task2,987720,false,false,1237,image-keyboard-response,24
true,12,1,1,1,true,z,false,true,0.0-2.0-0.43-0.387-3.387,0,0,0,90,false,stim,false,2,388.9999999998836,1,0,0,36461,task2,989617,false,false,1240,image-keyboard-response,25
true,12,1,1,0,false,q,false,false,0.0-2.0-0.43-0.388-3.388,0,0,0,90,false,stim,true,1,388.0000000001164,1,0,2,36461,task2,991512,false,false,1243,image-keyboard-response,26
true,12,1,1,1,true,z,false,true,0.0-2.0-0.43-0.389-3.389,0,0,0,90,false,stim,false,2,910.0000000001164,1,0,1,36461,task2,993930,false,false,1246,image-keyboard-response,27
true,12,1,1,1,true,z,false,true,0.0-2.0-0.43-0.390-3.390,0,0,0,90,false,stim,false,2,1014.0,1,0,0,36461,task2,996451,false,false,1249,image-keyboard-response,28
true,12,0,1,0,true,q,false,true,0.0-2.0-0.43-0.391-3.391,0,0,0,81,false,stim,false,1,728.0000000001164,1,0,2,36461,task2,998686,false,false,1252,image-keyboard-response,29
true,12,1,1,1,true,z,false,true,0.0-2.0-0.43-0.392-3.392,0,0,0,90,false,stim,false,2,1326.0,1,0,1,36461,task2,1001519,false,false,1255,image-keyboard-response,30
true,12,1,1,1,true,z,false,true,0.0-2.0-0.43-0.393-3.393,0,0,0,90,false,stim,false,2,1326.0,1,0,0,36461,task2,1004352,false,false,1258,image-keyboard-response,31
true,12,1,1,1,true,z,false,true,0.0-2.0-0.43-0.394-3.394,0,0,0,90,false,stim,false,2,479.0,1,0,1,36461,task2,1006337,false,false,1261,image-keyboard-response,32
true,12,0,1,0,true,q,false,true,0.0-2.0-0.43-0.395-3.395,0,0,0,81,false,stim,false,1,507.0,1,0,2,36461,task2,1008349,false,false,1264,image-keyboard-response,33
true,12,1,1,1,true,z,false,true,0.0-2.0-0.44-0.396-3.396,0,0,0,90,false,stim,false,2,363.0,1,0,0,36461,task2,1010220,false,false,1267,image-keyboard-response,34
true,12,1,1,0,false,q,false,false,0.0-2.0-0.44-0.397-3.397,0,0,0,90,false,stim,true,1,402.0000000001164,1,0,2,36461,task2,1012128,false,false,1270,image-keyboard-response,35
true,12,1,1,1,true,z,false,true,0.0-2.0-0.44-0.398-3.398,0,0,0,90,false,stim,false,2,1002.0,1,0,0,36461,task2,1014635,false,false,1273,image-keyboard-response,36
true,13,1,1,0,false,q,false,false,0.0-2.0-0.44-0.399-3.399,0,0,0,90,true,stim,true,1,548.0,1,0,0,36461,task2,1016689,false,false,1276,image-keyboard-response,1
true,13,1,1,2,false,d,false,false,0.0-2.0-0.44-0.400-3.400,0,0,0,90,false,stim,true,1,734.0,1,0,1,36461,task2,1018930,false,false,1279,image-keyboard-response,2
true,13,0,1,1,false,z,false,false,0.0-2.0-0.44-0.401-3.401,0,0,0,81,false,stim,true,0,822.0,1,0,2,36461,task2,1021260,false,false,1282,image-keyboard-response,3
true,13,1,1,2,false,d,false,false,0.0-2.0-0.44-0.402-3.402,0,0,0,90,false,stim,true,1,490.0,1,0,1,36461,task2,1023256,false,false,1285,image-keyboard-response,4
true,13,1,1,2,false,d,false,false,0.0-2.0-0.44-0.403-3.403,0,0,0,90,false,stim,true,1,288.0,1,0,1,36461,task2,1025051,false,false,1288,image-keyboard-response,5
true,13,0,1,1,false,z,false,false,0.0-2.0-0.44-0.404-3.404,0,0,0,81,false,stim,true,0,771.0000000002328,1,0,2,36461,task2,1027328,false,false,1291,image-keyboard-response,6
true,13,1,1,2,false,d,false,false,0.0-2.0-0.45-0.405-3.405,0,0,0,90,false,stim,true,1,630.0000000001164,1,0,1,36461,task2,1029463,false,false,1294,image-keyboard-response,7
true,13,1,1,0,false,q,false,false,0.0-2.0-0.45-0.406-3.406,0,0,0,90,false,stim,true,1,1421.0,1,0,0,36461,task2,1032391,false,false,1297,image-keyboard-response,8
true,13,0,1,1,false,z,false,false,0.0-2.0-0.45-0.407-3.407,0,0,0,81,false,stim,true,0,1023.9999999998836,1,0,2,36461,task2,1034921,false,false,1300,image-keyboard-response,9
true,13,2,1,2,true,d,false,true,0.0-2.0-0.45-0.408-3.408,0,0,0,68,false,stim,false,1,688.9999999997672,1,0,1,36461,task2,1037124,false,false,1303,image-keyboard-response,10
true,13,2,1,2,true,d,false,true,0.0-2.0-0.45-0.409-3.409,0,0,0,68,false,stim,false,1,548.0,1,0,1,36461,task2,1039178,false,false,1306,image-keyboard-response,11
true,13,1,1,0,false,q,false,false,0.0-2.0-0.45-0.410-3.410,0,0,0,90,false,stim,true,1,923.0,1,0,0,36461,task2,1041607,false,false,1309,image-keyboard-response,12
true,13,0,1,1,false,z,false,false,0.0-2.0-0.45-0.411-3.411,0,0,0,81,false,stim,true,0,1202.0,1,0,2,36461,task2,1044317,false,false,1312,image-keyboard-response,13
true,13,2,1,1,false,z,true,false,0.0-2.0-0.45-0.412-3.412,0,0,0,68,false,stim,false,0,1136.0,1,0,2,36461,task2,1046960,false,false,1315,image-keyboard-response,14
true,13,2,1,0,false,q,true,false,0.0-2.0-0.45-0.413-3.413,0,0,0,68,false,stim,false,1,1175.0,1,0,0,36461,task2,1049642,false,false,1318,image-keyboard-response,15
true,13,2,1,2,true,d,false,true,0.0-2.0-0.46-0.414-3.414,0,0,0,68,false,stim,false,1,1076.0,1,0,1,36461,task2,1052226,false,false,1321,image-keyboard-response,16
true,13,1,1,1,true,z,false,true,0.0-2.0-0.46-0.415-3.415,0,0,0,90,false,stim,false,0,1456.0,1,0,2,36461,task2,1055189,false,false,1324,image-keyboard-response,17
true,13,0,1,2,false,d,true,true,0.0-2.0-0.46-0.416-3.416,0,0,0,81,false,stim,false,1,1145.0,1,0,1,36461,task2,1057842,false,true,1327,image-keyboard-response,18
true,13,1,1,1,true,z,false,true,0.0-2.0-0.46-0.417-3.417,0,0,0,90,false,stim,false,0,2092.0,1,0,2,36461,task2,1061441,false,false,1330,image-keyboard-response,19
true,13,1,1,0,false,q,false,false,0.0-2.0-0.46-0.418-3.418,0,0,0,90,false,stim,true,1,502.0,1,0,0,36461,task2,1063449,false,false,1333,image-keyboard-response,20
true,13,1,1,1,true,z,false,true,0.0-2.0-0.46-0.419-3.419,0,0,0,90,false,stim,false,0,1666.0,1,0,2,36461,task2,1066623,false,false,1336,image-keyboard-response,21
true,13,2,1,0,false,q,true,false,0.0-2.0-0.46-0.420-3.420,0,0,0,68,false,stim,false,1,596.0,1,0,0,36461,task2,1068725,false,false,1339,image-keyboard-response,22
true,13,0,1,2,false,d,true,false,0.0-2.0-0.46-0.421-3.421,0,0,0,81,false,stim,false,1,1034.0,1,0,1,36461,task2,1071264,false,false,1342,image-keyboard-response,23
true,13,2,1,0,false,q,true,false,0.0-2.0-0.46-0.422-3.422,0,0,0,68,false,stim,false,1,1843.9999999997672,1,0,0,36461,task2,1074614,false,false,1345,image-keyboard-response,24
true,13,0,1,2,false,d,true,true,0.0-2.0-0.47-0.423-3.423,0,0,0,81,false,stim,false,1,1776.0,1,0,1,36461,task2,1077897,false,true,1348,image-keyboard-response,25
true,13,1,1,1,true,z,false,true,0.0-2.0-0.47-0.424-3.424,0,0,0,90,false,stim,false,0,1948.0,1,0,2,36461,task2,1081352,false,false,1351,image-keyboard-response,26
true,13,0,1,2,false,d,true,false,0.0-2.0-0.47-0.425-3.425,0,0,0,81,false,stim,false,1,1169.0,1,0,1,36461,task2,1084027,false,false,1354,image-keyboard-response,27
true,13,2,1,0,false,q,true,false,0.0-2.0-0.47-0.426-3.426,0,0,0,68,false,stim,false,1,1302.0,1,0,0,36461,task2,1086835,false,false,1357,image-keyboard-response,28
true,13,2,1,0,false,q,true,false,0.0-2.0-0.47-0.427-3.427,0,0,0,68,false,stim,false,1,681.0,1,0,0,36461,task2,1089024,false,false,1360,image-keyboard-response,29
true,13,1,1,1,true,z,false,true,0.0-2.0-0.47-0.428-3.428,0,0,0,90,false,stim,false,0,677.0,1,0,2,36461,task2,1091208,false,false,1363,image-keyboard-response,30
true,13,0,1,0,true,q,false,false,0.0-2.0-0.47-0.429-3.429,0,0,0,81,false,stim,false,1,609.0,1,0,0,36461,task2,1093322,false,true,1366,image-keyboard-response,31
true,13,2,1,2,true,d,false,true,0.0-2.0-0.47-0.430-3.430,0,0,0,68,false,stim,false,1,1823.0,1,0,1,36461,task2,1096652,false,false,1369,image-keyboard-response,32
true,13,1,1,1,true,z,false,true,0.0-2.0-0.47-0.431-3.431,0,0,0,90,false,stim,false,0,1171.0,1,0,2,36461,task2,1099330,false,false,1372,image-keyboard-response,33
true,13,2,1,2,true,d,false,true,0.0-2.0-0.48-0.432-3.432,0,0,0,68,false,stim,false,1,633.9999999997672,1,0,1,36461,task2,1101472,false,false,1375,image-keyboard-response,34
true,13,0,1,0,true,q,false,true,0.0-2.0-0.48-0.433-3.433,0,0,0,81,false,stim,false,1,1266.0,1,0,0,36461,task2,1104245,false,false,1378,image-keyboard-response,35
true,13,1,1,1,true,z,false,true,0.0-2.0-0.48-0.434-3.434,0,0,0,90,false,stim,false,0,1999.0,1,0,2,36461,task2,1107749,false,false,1381,image-keyboard-response,36
true,13,1,1,1,true,z,false,true,0.0-2.0-0.48-0.435-3.435,0,0,0,90,false,stim,false,0,707.0,1,0,2,36461,task2,1109964,false,false,1384,image-keyboard-response,37
true,14,0,1,1,false,z,false,false,0.0-2.0-0.48-0.436-3.436,0,0,0,81,true,stim,true,0,1381.0,1,0,0,36461,task2,1112851,false,false,1387,image-keyboard-response,1
true,14,1,1,0,false,q,false,false,0.0-2.0-0.48-0.437-3.437,0,0,0,90,false,stim,true,1,1242.0,1,0,2,36461,task2,1115599,false,false,1390,image-keyboard-response,2
true,14,2,1,0,false,q,false,false,0.0-2.0-0.48-0.438-3.438,0,0,0,68,false,stim,true,2,860.0,1,0,1,36461,task2,1117965,false,false,1393,image-keyboard-response,3
true,14,0,1,1,false,z,false,false,0.0-2.0-0.48-0.439-3.439,0,0,0,81,false,stim,true,0,1307.9999999997672,1,0,0,36461,task2,1120781,false,false,1396,image-keyboard-response,4
true,14,2,1,0,false,q,false,false,0.0-2.0-0.48-0.440-3.440,0,0,0,68,false,stim,true,2,1315.0,1,0,1,36461,task2,1123603,false,false,1399,image-keyboard-response,5
true,14,0,1,1,false,z,false,false,0.0-2.0-0.49-0.441-3.441,0,0,0,81,false,stim,true,0,1329.0,1,0,0,36461,task2,1126447,false,false,1402,image-keyboard-response,6
true,14,2,1,0,false,q,false,false,0.0-2.0-0.49-0.442-3.442,0,0,0,68,false,stim,true,2,1808.0000000002328,1,0,1,36461,task2,1129760,false,false,1405,image-keyboard-response,7
true,14,1,1,0,false,q,false,false,0.0-2.0-0.49-0.443-3.443,0,0,0,90,false,stim,true,1,792.0000000002328,1,0,2,36461,task2,1132059,false,false,1408,image-keyboard-response,8
true,14,2,1,0,false,q,false,false,0.0-2.0-0.49-0.444-3.444,0,0,0,68,false,stim,true,2,989.0,1,0,1,36461,task2,1134557,false,false,1411,image-keyboard-response,9
true,14,0,1,1,false,z,false,false,0.0-2.0-0.49-0.445-3.445,0,0,0,81,false,stim,true,0,1371.0,1,0,0,36461,task2,1137435,false,false,1414,image-keyboard-response,10
true,14,1,1,1,true,z,false,true,0.0-2.0-0.49-0.446-3.446,0,0,0,90,false,stim,false,0,598.0000000002328,1,0,0,36461,task2,1139539,false,false,1417,image-keyboard-response,11
true,14,2,1,0,false,q,false,false,0.0-2.0-0.49-0.447-3.447,0,0,0,68,false,stim,true,2,800.0,1,0,1,36461,task2,1141845,false,false,1420,image-keyboard-response,12
true,14,0,1,0,true,q,false,true,0.0-2.0-0.49-0.448-3.448,0,0,0,81,false,stim,false,1,1319.0,1,0,2,36461,task2,1144670,false,false,1423,image-keyboard-response,13
true,14,0,1,0,true,q,false,true,0.0-2.0-0.49-0.449-3.449,0,0,0,81,false,stim,false,1,669.0,1,0,2,36461,task2,1146846,false,false,1426,image-keyboard-response,14
true,14,0,1,0,true,q,false,true,0.0-2.0-0.50-0.450-3.450,0,0,0,81,false,stim,false,1,537.0,1,0,2,36461,task2,1148889,false,false,1429,image-keyboard-response,15
true,14,1,1,1,true,z,false,true,0.0-2.0-0.50-0.451-3.451,0,0,0,90,false,stim,false,0,1093.0,1,0,0,36461,task2,1151488,false,false,1432,image-keyboard-response,16
true,14,1,1,1,true,z,false,true,0.0-2.0-0.50-0.452-3.452,0,0,0,90,false,stim,false,0,488.0,1,0,0,36461,task2,1153483,false,false,1435,image-keyboard-response,17
true,14,2,1,0,false,q,false,false,0.0-2.0-0.50-0.453-3.453,0,0,0,68,false,stim,true,2,1437.0,1,0,1,36461,task2,1156428,false,false,1438,image-keyboard-response,18
true,14,1,1,1,true,z,false,true,0.0-2.0-0.50-0.454-3.454,0,0,0,90,false,stim,false,0,874.0000000002328,1,0,0,36461,task2,1158809,false,false,1441,image-keyboard-response,19
true,14,2,1,0,false,q,false,true,0.0-2.0-0.50-0.455-3.455,0,0,0,68,false,stim,true,2,2026.0,1,0,1,36461,task2,1162342,false,true,1444,image-keyboard-response,20
true,14,0,1,0,true,q,false,true,0.0-2.0-0.50-0.456-3.456,0,0,0,81,false,stim,false,1,1414.9999999997672,1,0,2,36461,task2,1165263,false,false,1447,image-keyboard-response,21
true,14,1,1,0,false,q,true,false,0.0-2.0-0.50-0.457-3.457,0,0,0,90,false,stim,false,2,1501.9999999997672,1,0,1,36461,task2,1168273,false,false,1450,image-keyboard-response,22
true,14,2,1,0,false,q,true,false,0.0-2.0-0.50-0.458-3.458,0,0,0,68,false,stim,false,1,556.0,1,0,2,36461,task2,1170336,false,false,1453,image-keyboard-response,23
true,14,0,1,1,false,z,false,false,0.0-2.0-0.51-0.459-3.459,0,0,0,81,false,stim,true,0,658.0,1,0,0,36461,task2,1172501,false,false,1456,image-keyboard-response,24
true,14,1,1,0,false,q,true,false,0.0-2.0-0.51-0.460-3.460,0,0,0,90,false,stim,false,2,324.0,1,0,1,36461,task2,1174331,false,false,1459,image-keyboard-response,25
true,14,1,1,0,false,q,true,false,0.0-2.0-0.51-0.461-3.461,0,0,0,90,false,stim,false,2,1851.0,1,0,1,36461,task2,1177688,false,false,1462,image-keyboard-response,26
true,14,1,1,0,false,q,true,false,0.0-2.0-0.51-0.462-3.462,0,0,0,90,false,stim,false,2,676.0,1,0,1,36461,task2,1179872,false,false,1465,image-keyboard-response,27
true,14,2,1,0,false,q,true,false,0.0-2.0-0.51-0.463-3.463,0,0,0,68,false,stim,false,1,1577.0,1,0,2,36461,task2,1182955,false,false,1468,image-keyboard-response,28
true,14,0,1,1,false,z,false,false,0.0-2.0-0.51-0.464-3.464,0,0,0,81,false,stim,true,0,428.0,1,0,0,36461,task2,1184890,false,false,1471,image-keyboard-response,29
true,14,0,1,0,true,q,false,true,0.0-2.0-0.51-0.465-3.465,0,0,0,81,false,stim,false,1,2212.0,1,0,2,36461,task2,1188611,false,false,1474,image-keyboard-response,30
true,14,0,1,0,true,q,false,true,0.0-2.0-0.51-0.466-3.466,0,0,0,81,false,stim,false,1,565.0,1,1,2,36461,task2,1190683,false,false,1477,image-keyboard-response,31
true,14,1,1,1,true,z,false,true,0.0-2.0-0.51-0.467-3.467,0,0,0,90,false,stim,false,0,808.0,1,0,0,36461,task2,1192998,false,false,1480,image-keyboard-response,32
true,14,0,1,0,true,q,false,true,0.0-2.0-0.52-0.468-3.468,0,0,0,81,false,stim,false,1,1365.0,1,1,2,36461,task2,1195871,false,false,1483,image-keyboard-response,33
true,14,2,1,0,false,q,false,false,0.0-2.0-0.52-0.469-3.469,0,0,0,68,false,stim,true,2,1189.0,1,0,1,36461,task2,1198569,false,false,1486,image-keyboard-response,34
true,14,0,1,1,false,z,false,false,0.0-2.0-0.52-0.470-3.470,0,0,0,81,false,stim,true,0,836.0,1,0,0,36461,task2,1200911,false,false,1489,image-keyboard-response,35
true,15,0,2,0,true,q,false,true,0.0-2.0-0.52-0.471-3.471,0,0,1,81,true,stim,false,1,1002.0,1,0,0,36461,task2,1203419,false,false,1492,image-keyboard-response,1
true,15,2,2,2,true,d,false,true,0.0-2.0-0.52-0.472-3.472,0,0,1,68,false,stim,false,0,2385.0,1,0,1,36461,task2,1207312,false,false,1495,image-keyboard-response,2
true,15,1,2,0,false,q,false,false,0.0-2.0-0.52-0.473-3.473,0,0,1,90,false,stim,true,1,888.9999999997672,1,0,0,36461,task2,1209709,false,false,1498,image-keyboard-response,3
true,15,0,2,0,true,q,false,true,0.0-2.0-0.52-0.474-3.474,0,0,1,81,false,stim,false,0,954.0,1,1,2,36461,task2,1212178,false,false,1501,image-keyboard-response,4
true,15,2,2,2,true,d,false,true,0.0-2.0-0.52-0.475-3.475,0,0,1,68,false,stim,false,0,2729.0,1,0,1,36461,task2,1216415,false,false,1504,image-keyboard-response,5
true,15,1,2,0,false,q,true,false,0.0-2.0-0.52-0.476-3.476,0,0,1,90,false,stim,false,0,933.0,1,1,2,36461,task2,1218854,false,false,1507,image-keyboard-response,6
true,15,0,2,0,true,q,false,true,0.0-2.0-0.53-0.477-3.477,0,0,1,81,false,stim,false,0,1242.0,1,1,2,36461,task2,1221606,false,false,1510,image-keyboard-response,7
true,15,1,2,0,false,q,false,false,0.0-2.0-0.53-0.478-3.478,0,0,1,90,false,stim,true,1,620.0000000002328,1,0,0,36461,task2,1223733,false,false,1513,image-keyboard-response,8
true,15,2,2,2,true,d,false,true,0.0-2.0-0.53-0.479-3.479,0,0,1,68,false,stim,false,0,806.0,1,0,1,36461,task2,1226046,false,false,1516,image-keyboard-response,9
true,15,0,2,0,true,q,false,true,0.0-2.0-0.53-0.480-3.480,0,0,1,81,false,stim,false,0,537.0,1,1,2,36461,task2,1228090,false,false,1519,image-keyboard-response,10
true,15,2,2,2,true,d,false,true,0.0-2.0-0.53-0.481-3.481,0,0,1,68,false,stim,false,0,2046.9999999997672,1,0,1,36461,task2,1231645,false,false,1522,image-keyboard-response,11
true,15,2,2,2,true,d,false,true,0.0-2.0-0.53-0.482-3.482,0,0,1,68,false,stim,false,0,725.0000000002328,1,0,1,36461,task2,1233877,false,false,1525,image-keyboard-response,12
true,15,1,2,0,false,q,true,false,0.0-2.0-0.53-0.483-3.483,0,0,1,90,false,stim,false,0,811.0,1,1,2,36461,task2,1236194,false,false,1528,image-keyboard-response,13
true,15,1,2,0,false,q,false,false,0.0-2.0-0.53-0.484-3.484,0,0,1,90,false,stim,true,1,1293.0,1,0,0,36461,task2,1238996,false,false,1531,image-keyboard-response,14
true,15,0,2,0,true,q,false,true,0.0-2.0-0.53-0.485-3.485,0,0,1,81,false,stim,false,1,777.9999999997672,1,0,0,36461,task2,1241281,false,false,1534,image-keyboard-response,15
true,15,0,2,0,true,q,false,false,0.0-2.0-0.54-0.486-3.486,0,0,1,81,false,stim,false,0,736.0,1,1,2,36461,task2,1243524,false,true,1537,image-keyboard-response,16
true,15,0,2,0,true,q,false,true,0.0-2.0-0.54-0.487-3.487,0,0,1,81,false,stim,false,1,536.0,1,0,0,36461,task2,1245566,false,false,1540,image-keyboard-response,17
true,15,0,2,0,true,q,false,true,0.0-2.0-0.54-0.488-3.488,0,0,1,81,false,stim,false,0,1037.0,1,1,2,36461,task2,1248110,false,false,1543,image-keyboard-response,18
true,15,0,2,0,true,q,false,true,0.0-2.0-0.54-0.489-3.489,0,0,1,81,false,stim,false,1,509.0,1,0,0,36461,task2,1250125,false,false,1546,image-keyboard-response,19
true,15,2,2,2,true,d,false,true,0.0-2.0-0.54-0.490-3.490,0,0,1,68,false,stim,false,0,1054.0,1,0,1,36461,task2,1252685,false,false,1549,image-keyboard-response,20
true,15,2,2,2,true,d,false,true,0.0-2.0-0.54-0.491-3.491,0,0,1,68,false,stim,false,0,876.0,1,0,1,36461,task2,1255069,false,false,1552,image-keyboard-response,21
true,15,0,2,0,true,q,false,true,0.0-2.0-0.54-0.492-3.492,0,0,1,81,false,stim,false,0,683.0,1,1,2,36461,task2,1257259,false,false,1555,image-keyboard-response,22
true,15,2,2,2,true,d,false,true,0.0-2.0-0.54-0.493-3.493,0,0,1,68,false,stim,false,0,830.0,1,0,1,36461,task2,1259596,false,false,1558,image-keyboard-response,23
true,15,0,2,0,true,q,false,true,0.0-2.0-0.54-0.494-3.494,0,0,1,81,false,stim,false,1,445.0,1,0,0,36461,task2,1261547,false,false,1561,image-keyboard-response,24
true,15,0,2,0,true,q,false,true,0.0-2.0-0.55-0.495-3.495,0,0,1,81,false,stim,false,0,785.0000000002328,1,1,2,36461,task2,1263840,false,false,1564,image-keyboard-response,25
true,15,0,2,0,true,q,false,true,0.0-2.0-0.55-0.496-3.496,0,0,1,81,false,stim,false,0,516.0,1,1,2,36461,task2,1265863,false,false,1567,image-keyboard-response,26
true,15,0,2,0,true,q,false,true,0.0-2.0-0.55-0.497-3.497,0,0,1,81,false,stim,false,1,568.0,1,1,0,36461,task2,1267937,false,false,1570,image-keyboard-response,27
true,15,0,2,0,true,q,false,true,0.0-2.0-0.55-0.498-3.498,0,0,1,81,false,stim,false,1,575.0,1,1,0,36461,task2,1270018,false,false,1573,image-keyboard-response,28
true,15,2,2,2,true,d,false,true,0.0-2.0-0.55-0.499-3.499,0,0,1,68,false,stim,false,0,700.0,1,0,1,36461,task2,1272227,false,false,1576,image-keyboard-response,29
true,15,2,2,2,true,d,false,true,0.0-2.0-0.55-0.500-3.500,0,0,1,68,false,stim,false,0,445.0,1,0,1,36461,task2,1274179,false,false,1579,image-keyboard-response,30
true,15,0,2,0,true,q,false,true,0.0-2.0-0.55-0.501-3.501,0,0,1,81,false,stim,false,0,633.0,1,0,2,36461,task2,1276319,false,false,1582,image-keyboard-response,31
true,16,2,2,1,false,z,false,false,0.0-2.0-0.55-0.502-3.502,1,0,0,68,true,stim,true,2,968.0,1,0,1,36461,task2,1278794,false,false,1585,image-keyboard-response,1
true,16,0,2,0,true,q,false,true,0.0-2.0-0.55-0.503-3.503,1,0,0,81,false,stim,false,0,642.9999999997672,1,1,0,36461,task2,1280944,false,false,1588,image-keyboard-response,2
true,16,0,2,0,true,q,false,true,0.0-2.0-0.56-0.504-3.504,1,0,0,81,false,stim,false,0,1032.0,1,1,0,36461,task2,1283485,false,false,1591,image-keyboard-response,3
true,16,2,2,2,true,d,false,true,0.0-2.0-0.56-0.505-3.505,1,0,0,68,false,stim,false,0,861.0,1,0,2,36461,task2,1285854,false,false,1594,image-keyboard-response,4
true,16,0,2,1,false,z,true,false,0.0-2.0-0.56-0.506-3.506,1,0,0,81,false,stim,false,2,808.0,1,0,1,36461,task2,1288171,false,false,1597,image-keyboard-response,5
true,16,1,2,1,true,z,false,true,0.0-2.0-0.56-0.507-3.507,1,0,0,90,false,stim,false,2,834.0,1,0,1,36461,task2,1290511,false,false,1600,image-keyboard-response,6
true,16,0,2,0,true,q,false,true,0.0-2.0-0.56-0.508-3.508,1,0,0,81,false,stim,false,0,857.0,1,1,0,36461,task2,1292883,false,false,1603,image-keyboard-response,7
true,16,1,2,1,true,z,false,true,0.0-2.0-0.56-0.509-3.509,1,0,0,90,false,stim,false,2,647.0,1,0,1,36461,task2,1295036,false,false,1606,image-keyboard-response,8
true,16,2,2,2,true,d,false,true,0.0-2.0-0.56-0.510-3.510,1,0,0,68,false,stim,false,0,428.0,1,0,2,36461,task2,1296972,false,false,1609,image-keyboard-response,9
true,16,0,2,0,true,q,false,true,0.0-2.0-0.56-0.511-3.511,1,0,0,81,false,stim,false,0,1636.0,1,1,0,36461,task2,1300115,false,false,1612,image-keyboard-response,10
true,16,2,2,2,true,d,false,true,0.0-2.0-0.56-0.512-3.512,1,0,0,68,false,stim,false,0,632.0000000002328,1,0,2,36461,task2,1302253,false,false,1615,image-keyboard-response,11
true,16,1,2,0,false,q,true,false,0.0-2.0-0.57-0.513-3.513,1,0,0,90,false,stim,false,0,492.00000000023283,1,1,0,36461,task2,1304254,false,false,1618,image-keyboard-response,12
true,16,2,2,1,false,z,false,false,0.0-2.0-0.57-0.514-3.514,1,0,0,68,false,stim,true,2,1187.0,1,0,1,36461,task2,1306948,false,false,1621,image-keyboard-response,13
true,16,0,2,0,true,q,false,true,0.0-2.0-0.57-0.515-3.515,1,0,0,81,false,stim,false,0,981.0,1,1,0,36461,task2,1309435,false,false,1624,image-keyboard-response,14
true,16,1,2,1,true,z,false,false,0.0-2.0-0.57-0.516-3.516,1,0,0,90,false,stim,false,2,689.0,1,0,1,36461,task2,1311630,false,true,1627,image-keyboard-response,15
true,16,2,2,2,true,d,false,true,0.0-2.0-0.57-0.517-3.517,1,0,0,68,false,stim,false,0,634.0,1,0,2,36461,task2,1313770,false,false,1630,image-keyboard-response,16
true,16,2,2,2,true,d,false,true,0.0-2.0-0.57-0.518-3.518,1,0,0,68,false,stim,false,0,535.0,1,0,2,36461,task2,1315813,false,false,1633,image-keyboard-response,17
true,16,1,2,0,false,q,true,false,0.0-2.0-0.57-0.519-3.519,1,0,0,90,false,stim,false,0,629.9999999997672,1,1,0,36461,task2,1317950,false,false,1636,image-keyboard-response,18
true,16,2,2,2,true,d,false,true,0.0-2.0-0.57-0.520-3.520,1,0,0,68,false,stim,false,0,1090.0,1,0,2,36461,task2,1320547,false,false,1639,image-keyboard-response,19
true,16,1,2,1,true,z,false,true,0.0-2.0-0.57-0.521-3.521,1,0,0,90,false,stim,false,2,1429.0,1,0,1,36461,task2,1323482,false,false,1642,image-keyboard-response,20
true,16,2,2,2,true,d,false,true,0.0-2.0-0.58-0.522-3.522,1,0,0,68,false,stim,false,0,685.0,1,0,2,36461,task2,1325676,false,false,1645,image-keyboard-response,21
true,16,2,2,2,true,d,false,false,0.0-2.0-0.58-0.523-3.523,1,0,0,68,false,stim,false,0,751.0,1,0,2,36461,task2,1327934,false,true,1648,image-keyboard-response,22
true,16,0,2,0,true,q,false,true,0.0-2.0-0.58-0.524-3.524,1,0,0,81,false,stim,false,0,1034.0000000002328,1,1,0,36461,task2,1330475,false,false,1651,image-keyboard-response,23
true,16,0,2,0,true,q,false,true,0.0-2.0-0.58-0.525-3.525,1,0,0,81,false,stim,false,0,921.9999999997672,1,1,0,36461,task2,1332905,false,false,1654,image-keyboard-response,24
true,16,2,2,2,true,d,false,true,0.0-2.0-0.58-0.526-3.526,1,0,0,68,false,stim,false,0,845.0,1,0,2,36461,task2,1335257,false,false,1657,image-keyboard-response,25
true,16,1,2,0,false,q,true,false,0.0-2.0-0.58-0.527-3.527,1,0,0,90,false,stim,false,0,1149.0,1,1,0,36461,task2,1337913,false,false,1660,image-keyboard-response,26
true,16,1,2,1,true,z,false,true,0.0-2.0-0.58-0.528-3.528,1,0,0,90,false,stim,false,2,2338.0,1,0,1,36461,task2,1341758,false,false,1663,image-keyboard-response,27
true,16,1,2,1,true,z,false,true,0.0-2.0-0.58-0.529-3.529,1,0,0,90,false,stim,false,2,665.0,1,1,1,36461,task2,1343930,false,false,1666,image-keyboard-response,28
true,16,1,2,1,true,z,false,true,0.0-2.0-0.58-0.530-3.530,1,0,0,90,false,stim,false,2,449.0,1,1,1,36461,task2,1345885,false,false,1669,image-keyboard-response,29
true,16,1,2,1,true,z,false,true,0.0-2.0-0.59-0.531-3.531,1,0,0,90,false,stim,false,2,572.0000000002328,1,1,1,36461,task2,1347964,false,false,1672,image-keyboard-response,30
true,16,2,2,2,true,d,false,true,0.0-2.0-0.59-0.532-3.532,1,0,0,68,false,stim,false,0,681.0,1,1,2,36461,task2,1350152,false,false,1675,image-keyboard-response,31
true,16,2,2,2,true,d,false,false,0.0-2.0-0.59-0.533-3.533,1,0,0,68,false,stim,false,0,609.0,1,1,2,36461,task2,1352268,false,true,1678,image-keyboard-response,32
true,17,0,0,1,false,z,true,false,0.0-2.0-0.59-0.534-3.534,1,1,1,81,true,stim,false,1,1621.0000000002328,1,1,1,36461,task2,1475707,false,false,1801,image-keyboard-response,1
true,17,1,0,0,false,q,true,false,0.0-2.0-0.59-0.535-3.535,1,1,1,90,false,stim,false,0,729.0,1,1,0,36461,task2,1477944,false,false,1804,image-keyboard-response,2
true,17,0,0,0,true,q,false,true,0.0-2.0-0.59-0.536-3.536,1,1,1,81,false,stim,false,0,583.0,1,1,0,36461,task2,1480034,false,false,1807,image-keyboard-response,3
true,17,2,0,2,true,d,false,true,0.0-2.0-0.59-0.537-3.537,1,1,1,68,false,stim,false,2,611.9999999997672,1,1,2,36461,task2,1482155,false,false,1810,image-keyboard-response,4
true,17,1,0,1,true,z,false,true,0.0-2.0-0.59-0.538-3.538,1,1,1,90,false,stim,false,1,808.0,1,1,1,36461,task2,1484469,false,false,1813,image-keyboard-response,5
true,17,0,0,0,true,q,false,true,0.0-2.0-0.59-0.539-3.539,1,1,1,81,false,stim,false,0,892.9999999997672,1,1,0,36461,task2,1486869,false,false,1816,image-keyboard-response,6
true,17,2,0,2,true,d,false,true,0.0-2.0-0.60-0.540-3.540,1,1,1,68,false,stim,false,2,605.0,1,1,2,36461,task2,1488983,false,false,1819,image-keyboard-response,7
true,17,2,0,2,true,d,false,true,0.0-2.0-0.60-0.541-3.541,1,1,1,68,false,stim,false,2,611.0,1,1,2,36461,task2,1491102,false,false,1822,image-keyboard-response,8
true,17,1,0,0,false,q,true,false,0.0-2.0-0.60-0.542-3.542,1,1,1,90,false,stim,false,0,472.0,1,0,0,36461,task2,1493080,false,false,1825,image-keyboard-response,9
true,17,0,0,0,true,q,false,true,0.0-2.0-0.60-0.543-3.543,1,1,1,81,false,stim,false,0,585.0,1,0,0,36461,task2,1495172,false,false,1828,image-keyboard-response,10
true,17,1,0,1,true,z,false,true,0.0-2.0-0.60-0.544-3.544,1,1,1,90,false,stim,false,1,593.0000000002328,1,0,1,36461,task2,1497274,false,false,1831,image-keyboard-response,11
true,17,1,0,1,true,z,false,true,0.0-2.0-0.60-0.545-3.545,1,1,1,90,false,stim,false,1,703.0,1,0,1,36461,task2,1499484,false,false,1834,image-keyboard-response,12
true,17,1,0,1,true,z,false,true,0.0-2.0-0.60-0.546-3.546,1,1,1,90,false,stim,false,1,1308.0,1,0,1,36461,task2,1502299,false,false,1837,image-keyboard-response,13
true,18,0,1,1,false,z,false,true,0.0-2.0-0.60-0.547-3.547,0,0,0,81,true,stim,true,0,745.0,1,0,0,36461,task2,1504551,false,true,1840,image-keyboard-response,1
true,18,2,1,1,false,z,false,false,0.0-2.0-0.60-0.548-3.548,0,0,0,68,false,stim,true,2,594.0,1,0,2,36461,task2,1506654,false,false,1843,image-keyboard-response,2
true,18,1,1,0,false,q,false,false,0.0-2.0-0.61-0.549-3.549,0,0,0,90,false,stim,true,1,1020.0,1,0,1,36461,task2,1509182,false,false,1846,image-keyboard-response,3
true,18,1,1,0,false,q,false,false,0.0-2.0-0.61-0.550-3.550,0,0,0,90,false,stim,true,1,440.00000000023283,1,0,1,36461,task2,1511129,false,false,1849,image-keyboard-response,4
true,18,0,1,1,false,z,false,false,0.0-2.0-0.61-0.551-3.551,0,0,0,81,false,stim,true,0,1132.0,1,0,0,36461,task2,1513771,false,false,1852,image-keyboard-response,5
true,18,0,1,1,false,z,false,false,0.0-2.0-0.61-0.552-3.552,0,0,0,81,false,stim,true,0,1157.0,1,0,0,36461,task2,1516435,false,false,1855,image-keyboard-response,6
true,18,1,1,0,false,q,false,true,0.0-2.0-0.61-0.553-3.553,0,0,0,90,false,stim,true,1,714.0,1,0,1,36461,task2,1518656,false,true,1858,image-keyboard-response,7
true,18,0,1,1,false,z,false,false,0.0-2.0-0.61-0.554-3.554,0,0,0,81,false,stim,true,0,533.0,1,0,0,36461,task2,1520695,false,false,1861,image-keyboard-response,8
true,18,2,1,1,false,z,false,false,0.0-2.0-0.61-0.555-3.555,0,0,0,68,false,stim,true,2,621.0,1,0,2,36461,task2,1522825,false,false,1864,image-keyboard-response,9
true,18,2,1,1,false,z,false,false,0.0-2.0-0.61-0.556-3.556,0,0,0,68,false,stim,true,2,501.99999999976717,1,0,2,36461,task2,1524835,false,false,1867,image-keyboard-response,10
true,18,2,1,1,false,z,false,false,0.0-2.0-0.61-0.557-3.557,0,0,0,68,false,stim,true,2,871.9999999997672,1,0,2,36461,task2,1527213,false,false,1870,image-keyboard-response,11
true,18,1,1,0,false,q,false,false,0.0-2.0-0.62-0.558-3.558,0,0,0,90,false,stim,true,1,741.0,1,0,1,36461,task2,1529464,false,false,1873,image-keyboard-response,12
true,18,2,1,1,false,z,false,false,0.0-2.0-0.62-0.559-3.559,0,0,0,68,false,stim,true,2,806.0,1,0,2,36461,task2,1531776,false,false,1876,image-keyboard-response,13
true,18,1,1,0,false,q,false,false,0.0-2.0-0.62-0.560-3.560,0,0,0,90,false,stim,true,1,1034.0,1,0,1,36461,task2,1534316,false,false,1879,image-keyboard-response,14
true,18,0,1,1,false,z,false,false,0.0-2.0-0.62-0.561-3.561,0,0,0,81,false,stim,true,0,448.99999999976717,1,0,0,36461,task2,1536271,false,false,1882,image-keyboard-response,15
true,18,0,1,0,true,q,false,false,0.0-2.0-0.62-0.562-3.562,0,0,0,81,false,stim,false,1,1632.0,1,0,1,36461,task2,1539412,false,true,1885,image-keyboard-response,16
true,18,1,1,1,true,z,false,true,0.0-2.0-0.62-0.563-3.563,0,0,0,90,false,stim,false,0,889.0,1,0,0,36461,task2,1541809,false,false,1888,image-keyboard-response,17
true,18,2,1,1,false,z,false,false,0.0-2.0-0.62-0.564-3.564,0,0,0,68,false,stim,true,2,674.0,1,0,2,36461,task2,1543989,false,false,1891,image-keyboard-response,18
true,18,1,1,1,true,z,false,true,0.0-2.0-0.62-0.565-3.565,0,0,0,90,false,stim,false,0,605.0000000002328,1,0,0,36461,task2,1546102,false,false,1894,image-keyboard-response,19
true,18,1,1,1,true,z,false,true,0.0-2.0-0.62-0.566-3.566,0,0,0,90,false,stim,false,2,1158.0,1,0,2,36461,task2,1548766,false,false,1897,image-keyboard-response,20
true,18,1,1,0,false,q,false,false,0.0-2.0-0.63-0.567-3.567,0,0,0,90,false,stim,true,1,820.9999999997672,1,0,1,36461,task2,1551095,false,false,1900,image-keyboard-response,21
true,18,2,1,1,false,z,true,false,0.0-2.0-0.63-0.568-3.568,0,0,0,68,false,stim,false,0,2016.0,1,0,0,36461,task2,1554628,false,false,1903,image-keyboard-response,22
true,18,1,1,1,true,z,false,true,0.0-2.0-0.63-0.569-3.569,0,0,0,90,false,stim,false,0,667.0000000002328,1,0,0,36461,task2,1556803,false,false,1906,image-keyboard-response,23
true,18,1,1,1,true,z,false,true,0.0-2.0-0.63-0.570-3.570,0,0,0,90,false,stim,false,0,558.0,1,0,0,36461,task2,1558870,false,false,1909,image-keyboard-response,24
true,18,1,1,1,true,z,false,true,0.0-2.0-0.63-0.571-3.571,0,0,0,90,false,stim,false,2,511.0,1,0,2,36461,task2,1560889,false,false,1912,image-keyboard-response,25
true,18,1,1,1,true,z,false,true,0.0-2.0-0.63-0.572-3.572,0,0,0,90,false,stim,false,2,525.0,1,0,2,36461,task2,1562921,false,false,1915,image-keyboard-response,26
true,18,1,1,1,true,z,false,true,0.0-2.0-0.63-0.573-3.573,0,0,0,90,false,stim,false,2,613.0,1,0,2,36461,task2,1565040,false,false,1918,image-keyboard-response,27
true,18,2,1,0,false,q,true,true,0.0-2.0-0.63-0.574-3.574,0,0,0,68,false,stim,false,1,1457.0,1,0,1,36461,task2,1568004,false,true,1921,image-keyboard-response,28
true,18,2,1,0,false,q,true,false,0.0-2.0-0.63-0.575-3.575,0,0,0,68,false,stim,false,1,822.0,1,0,1,36461,task2,1570333,false,false,1924,image-keyboard-response,29
true,18,2,1,0,false,q,true,false,0.0-2.0-0.64-0.576-3.576,0,0,0,68,false,stim,false,1,664.0000000002328,1,0,1,36461,task2,1572504,false,false,1927,image-keyboard-response,30
true,18,2,1,0,false,q,true,false,0.0-2.0-0.64-0.577-3.577,0,0,0,68,false,stim,false,1,452.0,1,0,1,36461,task2,1574464,false,false,1930,image-keyboard-response,31
true,18,1,1,1,true,z,false,true,0.0-2.0-0.64-0.578-3.578,0,0,0,90,false,stim,false,2,863.0,1,0,2,36461,task2,1576836,false,false,1933,image-keyboard-response,32
true,18,1,1,1,true,z,false,false,0.0-2.0-0.64-0.579-3.579,0,0,0,90,false,stim,false,0,462.99999999976717,1,0,0,36461,task2,1578805,false,true,1936,image-keyboard-response,33
true,18,2,1,0,false,q,true,false,0.0-2.0-0.64-0.580-3.580,0,0,0,68,false,stim,false,1,798.0,1,1,1,36461,task2,1581110,false,false,1939,image-keyboard-response,34
true,18,1,1,1,true,z,false,true,0.0-2.0-0.64-0.581-3.581,0,0,0,90,false,stim,false,0,790.0000000002328,1,0,0,36461,task2,1583409,false,false,1942,image-keyboard-response,35
true,18,2,1,1,false,z,false,false,0.0-2.0-0.64-0.582-3.582,0,0,0,68,false,stim,true,2,961.0,1,0,2,36461,task2,1585877,false,false,1945,image-keyboard-response,36
true,19,2,2,2,true,d,false,true,0.0-2.0-0.64-0.583-3.583,0,1,0,68,true,stim,false,1,598.0,1,0,2,36461,task2,1587982,false,false,1948,image-keyboard-response,1
true,19,1,2,2,false,d,false,false,0.0-2.0-0.64-0.584-3.584,0,1,0,90,false,stim,true,1,621.0,1,0,0,36461,task2,1590109,false,false,1951,image-keyboard-response,2
true,19,2,2,0,false,q,true,true,0.0-2.0-0.65-0.585-3.585,0,1,0,68,false,stim,false,0,1730.0,1,1,1,36461,task2,1593347,false,true,1954,image-keyboard-response,3
true,19,1,2,2,false,d,false,false,0.0-2.0-0.65-0.586-3.586,0,1,0,90,false,stim,true,1,448.0,1,0,2,36461,task2,1595302,false,false,1957,image-keyboard-response,4
true,19,2,2,0,false,q,true,false,0.0-2.0-0.65-0.587-3.587,0,1,0,68,false,stim,false,0,762.0,1,1,1,36461,task2,1597571,false,false,1960,image-keyboard-response,5
true,19,1,2,2,false,d,false,false,0.0-2.0-0.65-0.588-3.588,0,1,0,90,false,stim,true,1,585.0,1,0,2,36461,task2,1599664,false,false,1963,image-keyboard-response,6
true,19,2,2,0,false,q,true,false,0.0-2.0-0.65-0.589-3.589,0,1,0,68,false,stim,false,0,1719.0000000002328,1,1,1,36461,task2,1602890,false,false,1966,image-keyboard-response,7
true,19,1,2,2,false,d,false,false,0.0-2.0-0.65-0.590-3.590,0,1,0,90,false,stim,true,1,391.0,1,0,0,36461,task2,1604788,false,false,1969,image-keyboard-response,8
true,19,2,2,2,true,d,false,true,0.0-2.0-0.65-0.591-3.591,0,1,0,68,false,stim,false,1,383.00000000023283,1,0,0,36461,task2,1606678,false,false,1972,image-keyboard-response,9
true,19,2,2,2,true,d,false,false,0.0-2.0-0.65-0.592-3.592,0,1,0,68,false,stim,false,1,1112.0,1,0,2,36461,task2,1609298,false,true,1975,image-keyboard-response,10
true,19,1,2,2,false,d,false,true,0.0-2.0-0.65-0.593-3.593,0,1,0,90,false,stim,true,1,810.0,1,0,0,36461,task2,1611616,false,true,1978,image-keyboard-response,11
true,19,1,2,2,false,d,false,false,0.0-2.0-0.66-0.594-3.594,0,1,0,90,false,stim,true,1,753.0,1,0,0,36461,task2,1613875,false,false,1981,image-keyboard-response,12
true,19,1,2,2,false,d,false,false,0.0-2.0-0.66-0.595-3.595,0,1,0,90,false,stim,true,1,589.0,1,0,0,36461,task2,1615971,false,false,1984,image-keyboard-response,13
true,19,1,2,0,false,q,true,false,0.0-2.0-0.66-0.596-3.596,0,1,0,90,false,stim,false,0,731.0,1,1,1,36461,task2,1618209,false,false,1987,image-keyboard-response,14
true,19,2,2,2,true,d,false,true,0.0-2.0-0.66-0.597-3.597,0,1,0,68,false,stim,false,1,1330.0,1,0,2,36461,task2,1621046,false,false,1990,image-keyboard-response,15
true,19,1,2,2,false,d,false,false,0.0-2.0-0.66-0.598-3.598,0,1,0,90,false,stim,true,1,712.0,1,0,0,36461,task2,1623265,false,false,1993,image-keyboard-response,16
true,19,2,2,2,true,d,false,true,0.0-2.0-0.66-0.599-3.599,0,1,0,68,false,stim,false,1,647.0000000002328,1,0,2,36461,task2,1625419,false,false,1996,image-keyboard-response,17
true,19,0,2,0,true,q,false,true,0.0-2.0-0.66-0.600-3.600,0,1,0,81,false,stim,false,0,916.0000000002328,1,1,1,36461,task2,1627842,false,false,1999,image-keyboard-response,18
true,19,2,2,2,true,d,false,true,0.0-2.0-0.66-0.601-3.601,0,1,0,68,false,stim,false,1,568.0,1,0,2,36461,task2,1629932,false,false,2002,image-keyboard-response,19
true,19,0,2,0,true,q,false,true,0.0-2.0-0.66-0.602-3.602,0,1,0,81,false,stim,false,0,396.0,1,1,1,36461,task2,1631835,false,false,2005,image-keyboard-response,20
true,19,0,2,0,true,q,false,true,0.0-2.0-0.67-0.603-3.603,0,1,0,81,false,stim,false,0,545.0,1,1,1,36461,task2,1633888,false,false,2008,image-keyboard-response,21
true,19,0,2,0,true,q,false,true,0.0-2.0-0.67-0.604-3.604,0,1,0,81,false,stim,false,0,707.0,1,1,1,36461,task2,1636104,false,false,2011,image-keyboard-response,22
true,19,2,2,2,true,d,false,true,0.0-2.0-0.67-0.605-3.605,0,1,0,68,false,stim,false,1,540.0000000002328,1,0,2,36461,task2,1638150,false,false,2014,image-keyboard-response,23
true,19,1,2,2,false,d,false,true,0.0-2.0-0.67-0.606-3.606,0,1,0,90,false,stim,true,1,1061.0,1,0,0,36461,task2,1640718,false,true,2017,image-keyboard-response,24
true,19,2,2,2,true,d,false,false,0.0-2.0-0.67-0.607-3.607,0,1,0,68,false,stim,false,1,687.0,1,0,2,36461,task2,1642912,false,true,2020,image-keyboard-response,25
true,19,1,2,2,false,d,false,false,0.0-2.0-0.67-0.608-3.608,0,1,0,90,false,stim,true,1,1588.0,1,0,0,36461,task2,1646009,false,false,2023,image-keyboard-response,26
true,19,2,2,2,true,d,false,true,0.0-2.0-0.67-0.609-3.609,0,1,0,68,false,stim,false,1,765.0,1,0,2,36461,task2,1648282,false,false,2026,image-keyboard-response,27
true,19,1,2,2,false,d,false,false,0.0-2.0-0.67-0.610-3.610,0,1,0,90,false,stim,true,1,459.0,1,0,0,36461,task2,1650247,false,false,2029,image-keyboard-response,28
true,19,0,2,0,true,q,false,true,0.0-2.0-0.67-0.611-3.611,0,1,0,81,false,stim,false,0,756.0,1,0,1,36461,task2,1652510,false,false,2032,image-keyboard-response,29
true,19,0,2,2,false,d,true,false,0.0-2.0-0.68-0.612-3.612,0,1,0,81,false,stim,false,1,493.0,1,0,0,36461,task2,1654513,false,false,2035,image-keyboard-response,30
true,19,2,2,2,true,d,false,true,0.0-2.0-0.68-0.613-3.613,0,1,0,68,false,stim,false,1,570.0,1,0,0,36461,task2,1656590,false,false,2038,image-keyboard-response,31
true,19,2,2,2,true,d,false,true,0.0-2.0-0.68-0.614-3.614,0,1,0,68,false,stim,false,1,600.0,1,0,2,36461,task2,1658697,false,false,2041,image-keyboard-response,32
