answered,blockNum,choice,condition,corResp,correct,correct_response,explo,fb,internal_node_id,isStable_1,isStable_2,isStable_3,key_press,newBlock,part,persev,persevResp,rt,sessNum,stableAS,stimulus,subject,task,time_elapsed,training,trap,trial_index,trial_type,trialsInBlock
true,1,0,0,0,true,q,false,true,0.0-2.0-0.0-0.0-3.0,0,0,0,81,true,stim,false,-1,2254.0,0,0,2,36461,task3,298965,false,false,85,image-keyboard-response,1
true,1,1,0,1,true,z,false,false,0.0-2.0-0.0-0.1-3.1,0,0,0,90,false,stim,false,-1,1651.0000000000582,0,0,1,36461,task3,302123,false,true,88,image-keyboard-response,2
true,1,2,0,2,true,d,false,true,0.0-2.0-0.0-0.2-3.2,0,0,0,68,false,stim,false,-1,2483.000000000058,0,0,0,36461,task3,306112,false,false,91,image-keyboard-response,3
true,1,0,0,1,false,z,true,false,0.0-2.0-0.0-0.3-3.3,0,0,0,81,false,stim,false,-1,2717.0,0,0,1,36461,task3,310333,false,false,94,image-keyboard-response,4
true,1,0,0,0,true,q,false,true,0.0-2.0-0.0-0.4-3.4,0,0,0,81,false,stim,false,-1,1730.0,0,0,2,36461,task3,313569,false,false,97,image-keyboard-response,5
true,1,2,0,2,true,d,false,true,0.0-2.0-0.0-0.5-3.5,0,0,0,68,false,stim,false,-1,1927.0,0,0,0,36461,task3,317001,false,false,100,image-keyboard-response,6
true,1,1,0,0,false,q,true,false,0.0-2.0-0.0-0.6-3.6,0,0,0,90,false,stim,false,-1,1452.0,0,0,2,36461,task3,319959,false,false,103,image-keyboard-response,7
true,1,1,0,2,false,d,true,false,0.0-2.0-0.0-0.7-3.7,0,0,0,90,false,stim,false,-1,2072.0,0,0,0,36461,task3,323536,false,false,106,image-keyboard-response,8
true,1,1,0,1,true,z,false,false,0.0-2.0-0.0-0.8-3.8,0,0,0,90,false,stim,false,-1,2695.000000000058,0,0,1,36461,task3,327737,false,true,109,image-keyboard-response,9
true,1,0,0,0,true,q,false,true,0.0-2.0-0.1-0.9-3.9,0,0,0,81,false,stim,false,-1,2494.000000000058,0,0,2,36461,task3,331737,false,false,112,image-keyboard-response,10
false,1,-1,0,0,false,q,false,true,0.0-2.0-0.1-0.10-3.10,0,0,0,,false,stim,true,-1,,0,0,2,36461,task3,336243,false,true,115,image-keyboard-response,11
true,1,0,0,2,false,d,true,false,0.0-2.0-0.1-0.11-3.11,0,0,0,81,false,stim,false,-1,1956.0,0,0,0,36461,task3,339705,false,false,118,image-keyboard-response,12
true,1,2,0,0,false,q,true,false,0.0-2.0-0.1-0.12-3.12,0,0,0,68,false,stim,false,-1,1692.0,0,0,2,36461,task3,342902,false,false,121,image-keyboard-response,13
true,1,2,0,2,true,d,false,true,0.0-2.0-0.1-0.13-3.13,0,0,0,68,false,stim,false,-1,2213.0,0,0,0,36461,task3,346622,false,false,124,image-keyboard-response,14
true,1,1,0,1,true,z,false,true,0.0-2.0-0.1-0.14-3.14,0,0,0,90,false,stim,false,-1,1505.0,0,0,1,36461,task3,349633,false,false,127,image-keyboard-response,15
true,1,2,0,1,false,z,true,false,0.0-2.0-0.1-0.15-3.15,0,0,0,68,false,stim,false,-1,2945.000000000058,0,0,1,36461,task3,354084,false,false,130,image-keyboard-response,16
true,1,1,0,1,true,z,false,false,0.0-2.0-0.1-0.16-3.16,0,0,0,90,false,stim,false,-1,1565.0,0,0,1,36461,task3,357153,false,true,133,image-keyboard-response,17
true,1,2,0,2,true,d,false,true,0.0-2.0-0.1-0.17-3.17,0,0,0,68,false,stim,false,-1,2319.0,0,0,0,36461,task3,360978,false,false,136,image-keyboard-response,18
true,1,2,0,2,true,d,false,true,0.0-2.0-0.2-0.18-3.18,0,0,0,68,false,stim,false,-1,2094.0,0,0,0,36461,task3,364578,false,false,139,image-keyboard-response,19
true,1,1,0,2,false,d,true,false,0.0-2.0-0.2-0.19-3.19,0,0,0,90,false,stim,false,-1,2710.0,0,0,0,36461,task3,368793,false,false,142,image-keyboard-response,20
true,1,2,0,0,false,q,true,false,0.0-2.0-0.2-0.20-3.20,0,0,0,68,false,stim,false,-1,1501.9999999999418,0,0,2,36461,task3,371801,false,false,145,image-keyboard-response,21
true,1,0,0,2,false,d,true,false,0.0-2.0-0.2-0.21-3.21,0,0,0,81,false,stim,false,-1,2817.0,0,0,0,36461,task3,376123,false,false,148,image-keyboard-response,22
true,1,1,0,1,true,z,false,true,0.0-2.0-0.2-0.22-3.22,0,0,0,90,false,stim,false,-1,1548.0,0,1,1,36461,task3,379177,false,false,151,image-keyboard-response,23
true,1,1,0,1,true,z,false,true,0.0-2.0-0.2-0.23-3.23,0,0,0,90,false,stim,false,-1,1358.0,0,1,1,36461,task3,382040,false,false,154,image-keyboard-response,24
true,1,0,0,0,true,q,false,true,0.0-2.0-0.2-0.24-3.24,0,0,0,81,false,stim,false,-1,2556.0,0,0,2,36461,task3,386101,false,false,157,image-keyboard-response,25
true,1,1,0,1,true,z,false,true,0.0-2.0-0.2-0.25-3.25,0,0,0,90,false,stim,false,-1,2024.0,0,1,1,36461,task3,389631,false,false,160,image-keyboard-response,26
true,2,2,1,2,true,d,false,true,0.0-2.0-0.2-0.26-3.26,0,1,0,68,true,stim,false,0,1400.0,0,0,2,36461,task3,392536,false,false,163,image-keyboard-response,1
true,2,2,1,1,false,z,true,false,0.0-2.0-0.3-0.27-3.27,0,1,0,68,false,stim,false,1,1715.0,0,1,1,36461,task3,395757,false,false,166,image-keyboard-response,2
true,2,0,1,1,false,z,true,false,0.0-2.0-0.3-0.28-3.28,0,1,0,81,false,stim,false,1,2819.0,0,1,1,36461,task3,400081,false,false,169,image-keyboard-response,3
true,2,1,1,1,true,z,false,true,0.0-2.0-0.3-0.29-3.29,0,1,0,90,false,stim,false,1,1818.0,0,1,1,36461,task3,403406,false,false,172,image-keyboard-response,4
true,2,2,1,2,true,d,false,true,0.0-2.0-0.3-0.30-3.30,0,1,0,68,false,stim,false,0,1228.0000000000582,0,0,2,36461,task3,406139,false,false,175,image-keyboard-response,5
true,2,2,1,2,true,d,false,true,0.0-2.0-0.3-0.31-3.31,0,1,0,68,false,stim,false,0,2161.0,0,0,2,36461,task3,409806,false,false,178,image-keyboard-response,6
true,2,0,1,1,false,z,true,true,0.0-2.0-0.3-0.32-3.32,0,1,0,81,false,stim,false,2,1387.0,0,0,0,36461,task3,412699,false,true,181,image-keyboard-response,7
false,2,-1,1,1,false,z,true,false,0.0-2.0-0.3-0.33-3.33,0,1,0,,false,stim,false,2,,0,0,0,36461,task3,417205,false,false,184,image-keyboard-response,8
true,2,0,1,1,false,z,true,false,0.0-2.0-0.3-0.34-3.34,0,1,0,81,false,stim,false,2,1815.0,0,0,0,36461,task3,420526,false,false,187,image-keyboard-response,9
true,2,2,1,2,true,d,false,true,0.0-2.0-0.3-0.35-3.35,0,1,0,68,false,stim,false,0,2577.0,0,0,2,36461,task3,424608,false,false,190,image-keyboard-response,10
true,2,2,1,2,true,d,false,true,0.0-2.0-0.4-0.36-3.36,0,1,0,68,false,stim,false,0,1527.0,0,0,2,36461,task3,427640,false,false,193,image-keyboard-response,11
true,2,0,1,1,false,z,true,false,0.0-2.0-0.4-0.37-3.37,0,1,0,81,false,stim,false,2,2921.999999999942,0,0,0,36461,task3,432068,false,false,196,image-keyboard-response,12
true,2,1,1,1,true,z,false,true,0.0-2.0-0.4-0.38-3.38,0,1,0,90,false,stim,false,1,1675.0,0,1,1,36461,task3,435249,false,false,199,image-keyboard-response,13
true,2,2,1,2,true,d,false,true,0.0-2.0-0.4-0.39-3.39,0,1,0,68,false,stim,false,0,1402.0,0,0,2,36461,task3,438157,false,false,202,image-keyboard-response,14
true,2,1,1,1,true,z,false,true,0.0-2.0-0.4-0.40-3.40,0,1,0,90,false,stim,false,1,2688.0,0,1,1,36461,task3,442350,false,false,205,image-keyboard-response,15
false,2,-1,1,1,false,z,true,false,0.0-2.0-0.4-0.41-3.41,0,1,0,,false,stim,false,2,,0,0,0,36461,task3,446858,false,false,208,image-keyboard-response,16
true,2,2,1,2,true,d,false,true,0.0-2.0-0.4-0.42-3.42,0,1,0,68,false,stim,false,0,1068.0,0,0,2,36461,task3,449431,false,false,211,image-keyboard-response,17
true,2,1,1,1,true,z,false,true,0.0-2.0-0.4-0.43-3.43,0,1,0,90,false,stim,false,2,1750.0,0,0,0,36461,task3,452686,false,false,214,image-keyboard-response,18
true,2,1,1,1,true,z,false,true,0.0-2.0-0.4-0.44-3.44,0,1,0,90,false,stim,false,1,1928.0,0,1,1,36461,task3,456120,false,false,217,image-keyboard-response,19
true,2,1,1,1,true,z,false,true,0.0-2.0-0.5-0.45-3.45,0,1,0,90,false,stim,false,1,959.0,0,1,1,36461,task3,458585,false,false,220,image-keyboard-response,20
true,2,2,1,2,true,d,false,true,0.0-2.0-0.5-0.46-3.46,0,1,0,68,false,stim,false,0,980.0000000000582,0,0,2,36461,task3,461070,false,false,223,image-keyboard-response,21
true,2,2,1,1,false,z,true,false,0.0-2.0-0.5-0.47-3.47,0,1,0,68,false,stim,false,1,1135.9999999999418,0,0,1,36461,task3,463711,false,false,226,image-keyboard-response,22
true,2,1,1,1,true,z,false,true,0.0-2.0-0.5-0.48-3.48,0,1,0,90,false,stim,false,2,2204.0,0,1,0,36461,task3,467420,false,false,229,image-keyboard-response,23
true,2,1,1,1,true,z,false,false,0.0-2.0-0.5-0.49-3.49,0,1,0,90,false,stim,false,1,915.9999999999418,0,0,1,36461,task3,469843,false,true,232,image-keyboard-response,24
true,2,2,1,2,true,d,false,false,0.0-2.0-0.5-0.50-3.50,0,1,0,68,false,stim,false,0,1254.0,0,0,2,36461,task3,472602,false,true,235,image-keyboard-response,25
true,3,1,1,1,true,z,false,true,0.0-2.0-0.5-0.51-3.51,1,0,0,90,true,stim,false,1,1732.0,0,1,0,36461,task3,475841,false,false,238,image-keyboard-response,1
true,3,1,1,1,true,z,false,true,0.0-2.0-0.5-0.52-3.52,1,0,0,90,false,stim,false,1,600.0,0,1,0,36461,task3,477946,false,false,241,image-keyboard-response,2
true,3,2,1,1,false,z,false,false,0.0-2.0-0.5-0.53-3.53,1,0,0,68,false,stim,true,2,1065.0,0,0,2,36461,task3,480517,false,false,244,image-keyboard-response,3
true,3,1,1,1,true,z,false,false,0.0-2.0-0.6-0.54-3.54,1,0,0,90,false,stim,false,1,1839.0,0,1,0,36461,task3,483862,false,true,247,image-keyboard-response,4
true,3,0,1,1,false,z,true,false,0.0-2.0-0.6-0.55-3.55,1,0,0,81,false,stim,false,2,1438.0,0,0,2,36461,task3,486805,false,false,250,image-keyboard-response,5
false,3,-1,1,1,false,z,true,true,0.0-2.0-0.6-0.56-3.56,1,0,0,,false,stim,false,1,,0,1,0,36461,task3,491311,false,true,253,image-keyboard-response,6
true,3,1,1,1,true,z,false,true,0.0-2.0-0.6-0.57-3.57,1,0,0,90,false,stim,false,2,2011.0,0,0,2,36461,task3,494828,false,false,256,image-keyboard-response,7
true,3,1,1,0,false,q,false,false,0.0-2.0-0.6-0.58-3.58,1,0,0,90,false,stim,true,1,1067.9999999999418,0,0,1,36461,task3,497401,false,false,259,image-keyboard-response,8
true,3,0,1,0,true,q,false,true,0.0-2.0-0.6-0.59-3.59,1,0,0,81,false,stim,false,1,1425.0,0,0,1,36461,task3,500331,false,false,262,image-keyboard-response,9
true,3,1,1,1,true,z,false,true,0.0-2.0-0.6-0.60-3.60,1,0,0,90,false,stim,false,2,1689.0,0,0,2,36461,task3,503525,false,false,265,image-keyboard-response,10
false,3,-1,1,1,false,z,true,false,0.0-2.0-0.6-0.61-3.61,1,0,0,,false,stim,false,1,,0,1,0,36461,task3,508032,false,false,268,image-keyboard-response,11
true,3,0,1,0,true,q,false,true,0.0-2.0-0.6-0.62-3.62,1,0,0,81,false,stim,false,1,1581.0,0,0,1,36461,task3,511119,false,false,271,image-keyboard-response,12
true,3,1,1,1,true,z,false,true,0.0-2.0-0.7-0.63-3.63,1,0,0,90,false,stim,false,1,1591.9999999999418,0,1,0,36461,task3,514217,false,false,274,image-keyboard-response,13
true,3,1,1,1,true,z,false,true,0.0-2.0-0.7-0.64-3.64,1,0,0,90,false,stim,false,2,1303.0,0,0,2,36461,task3,517025,false,false,277,image-keyboard-response,14
true,3,1,1,1,true,z,false,true,0.0-2.0-0.7-0.65-3.65,1,0,0,90,false,stim,false,1,726.9999999999418,0,1,0,36461,task3,519257,false,false,280,image-keyboard-response,15
true,3,0,1,0,true,q,false,true,0.0-2.0-0.7-0.66-3.66,1,0,0,81,false,stim,false,1,1315.9999999999418,0,0,1,36461,task3,522076,false,false,283,image-keyboard-response,16
true,3,1,1,1,true,z,false,true,0.0-2.0-0.7-0.67-3.67,1,0,0,90,false,stim,false,2,1616.0,0,0,2,36461,task3,525197,false,false,286,image-keyboard-response,17
true,3,1,1,1,true,z,false,true,0.0-2.0-0.7-0.68-3.68,1,0,0,90,false,stim,false,2,577.9999999998836,0,0,2,36461,task3,527281,false,false,289,image-keyboard-response,18
true,3,1,1,1,true,z,false,true,0.0-2.0-0.7-0.69-3.69,1,0,0,90,false,stim,false,1,1726.0,0,1,0,36461,task3,530511,false,false,292,image-keyboard-response,19
true,3,0,1,0,true,q,false,false,0.0-2.0-0.7-0.70-3.70,1,0,0,81,false,stim,false,1,581.0,0,0,1,36461,task3,532596,false,true,295,image-keyboard-response,20
true,3,1,1,0,false,q,false,false,0.0-2.0-0.7-0.71-3.71,1,0,0,90,false,stim,true,1,1138.0,0,0,1,36461,task3,535240,false,false,298,image-keyboard-response,21
true,3,1,1,1,true,z,false,true,0.0-2.0-0.8-0.72-3.72,1,0,0,90,false,stim,false,2,2349.0,0,0,2,36461,task3,539096,false,false,301,image-keyboard-response,22
true,3,1,1,0,false,q,false,false,0.0-2.0-0.8-0.73-3.73,1,0,0,90,false,stim,true,1,760.0,0,0,1,36461,task3,541361,false,false,304,image-keyboard-response,23
true,3,0,1,0,true,q,false,true,0.0-2.0-0.8-0.74-3.74,1,0,0,81,false,stim,false,1,2360.0000000001164,0,0,1,36461,task3,545228,false,false,307,image-keyboard-response,24
true,3,0,1,0,true,q,false,true,0.0-2.0-0.8-0.75-3.75,1,0,0,81,false,stim,false,1,998.0,0,0,1,36461,task3,547731,false,false,310,image-keyboard-response,25
true,3,0,1,1,false,z,true,false,0.0-2.0-0.8-0.76-3.76,1,0,0,81,false,stim,false,1,1402.0,0,1,0,36461,task3,550639,false,false,313,image-keyboard-response,26
true,3,1,1,1,true,z,false,false,0.0-2.0-0.8-0.77-3.77,1,0,0,90,false,stim,false,2,481.0,0,1,2,36461,task3,552625,false,true,316,image-keyboard-response,27
true,3,0,1,1,false,z,true,false,0.0-2.0-0.8-0.78-3.78,1,0,0,81,false,stim,false,1,1906.0000000001164,0,1,0,36461,task3,556036,false,false,319,image-keyboard-response,28
true,4,1,2,1,true,z,false,true,0.0-2.0-0.8-0.79-3.79,1,0,1,90,true,stim,false,1,1582.0,0,1,0,36461,task3,559122,false,false,322,image-keyboard-response,1
true,4,1,2,1,true,z,false,true,0.0-2.0-0.8-0.80-3.80,1,0,1,90,false,stim,false,1,1844.0,0,1,2,36461,task3,562473,false,false,325,image-keyboard-response,2
true,4,0,2,2,false,d,false,false,0.0-2.0-0.9-0.81-3.81,1,0,1,81,false,stim,true,0,2373.9999999998836,0,0,1,36461,task3,566352,false,false,328,image-keyboard-response,3
true,4,1,2,1,true,z,false,true,0.0-2.0-0.9-0.82-3.82,1,0,1,90,false,stim,false,1,846.0,0,1,2,36461,task3,568702,false,false,331,image-keyboard-response,4
true,4,1,2,1,true,z,false,true,0.0-2.0-0.9-0.83-3.83,1,0,1,90,false,stim,false,1,769.0,0,1,2,36461,task3,570977,false,false,334,image-keyboard-response,5
true,4,2,2,2,true,d,false,true,0.0-2.0-0.9-0.84-3.84,1,0,1,68,false,stim,false,0,1594.0,0,0,1,36461,task3,574076,false,false,337,image-keyboard-response,6
true,4,1,2,1,true,z,false,true,0.0-2.0-0.9-0.85-3.85,1,0,1,90,false,stim,false,1,1324.0,0,1,0,36461,task3,576904,false,false,340,image-keyboard-response,7
true,4,2,2,1,false,z,true,false,0.0-2.0-0.9-0.86-3.86,1,0,1,68,false,stim,false,1,997.0000000001164,0,1,0,36461,task3,579407,false,false,343,image-keyboard-response,8
true,4,2,2,2,true,d,false,true,0.0-2.0-0.9-0.87-3.87,1,0,1,68,false,stim,false,0,1617.9999999998836,0,0,1,36461,task3,582529,false,false,346,image-keyboard-response,9
true,4,1,2,1,true,z,false,true,0.0-2.0-0.9-0.88-3.88,1,0,1,90,false,stim,false,1,1223.0000000001164,0,1,0,36461,task3,585258,false,false,349,image-keyboard-response,10
true,4,1,2,1,true,z,false,true,0.0-2.0-0.9-0.89-3.89,1,0,1,90,false,stim,false,1,1136.0,0,1,2,36461,task3,587900,false,false,352,image-keyboard-response,11
true,4,2,2,2,true,d,false,false,0.0-2.0-0.10-0.90-3.90,1,0,1,68,false,stim,false,0,588.0,0,0,1,36461,task3,589994,false,true,355,image-keyboard-response,12
true,4,1,2,1,true,z,false,true,0.0-2.0-0.10-0.91-3.91,1,0,1,90,false,stim,false,1,1593.0,0,1,2,36461,task3,593094,false,false,358,image-keyboard-response,13
true,4,1,2,1,true,z,false,true,0.0-2.0-0.10-0.92-3.92,1,0,1,90,false,stim,false,1,754.0,0,1,2,36461,task3,595354,false,false,361,image-keyboard-response,14
true,4,2,2,2,true,d,false,true,0.0-2.0-0.10-0.93-3.93,1,0,1,68,false,stim,false,0,2202.0,0,0,1,36461,task3,599061,false,false,364,image-keyboard-response,15
true,4,1,2,1,true,z,false,true,0.0-2.0-0.10-0.94-3.94,1,0,1,90,false,stim,false,1,893.0,0,1,0,36461,task3,601458,false,false,367,image-keyboard-response,16
true,4,1,2,1,true,z,false,true,0.0-2.0-0.10-0.95-3.95,1,0,1,90,false,stim,false,1,787.0,0,1,2,36461,task3,603749,false,false,370,image-keyboard-response,17
true,4,2,2,2,true,d,false,true,0.0-2.0-0.10-0.96-3.96,1,0,1,68,false,stim,false,0,761.0000000001164,0,0,1,36461,task3,606014,false,false,373,image-keyboard-response,18
true,4,1,2,1,true,z,false,true,0.0-2.0-0.10-0.97-3.97,1,0,1,90,false,stim,false,1,462.0,0,0,0,36461,task3,607981,false,false,376,image-keyboard-response,19
true,4,2,2,1,false,z,true,false,0.0-2.0-0.10-0.98-3.98,1,0,1,68,false,stim,false,1,2268.0,0,0,0,36461,task3,611755,false,false,379,image-keyboard-response,20
true,4,1,2,1,true,z,false,true,0.0-2.0-0.11-0.99-3.99,1,0,1,90,false,stim,false,1,704.0,0,0,0,36461,task3,613965,false,false,382,image-keyboard-response,21
true,4,1,2,1,true,z,false,false,0.0-2.0-0.11-0.100-3.100,1,0,1,90,false,stim,false,1,2063.0,0,0,0,36461,task3,617533,false,true,385,image-keyboard-response,22
true,4,1,2,1,true,z,false,true,0.0-2.0-0.11-0.101-3.101,1,0,1,90,false,stim,false,1,2298.0,0,1,2,36461,task3,621336,false,false,388,image-keyboard-response,23
true,5,2,1,0,false,q,false,true,0.0-2.0-0.11-0.102-3.102,0,0,1,68,true,stim,true,2,908.0,0,0,1,36461,task3,623750,false,true,391,image-keyboard-response,1
true,5,2,1,0,false,q,false,false,0.0-2.0-0.11-0.103-3.103,0,0,1,68,false,stim,true,2,1242.0,0,0,1,36461,task3,626498,false,false,394,image-keyboard-response,2
true,5,1,1,1,true,z,false,true,0.0-2.0-0.11-0.104-3.104,0,0,1,90,false,stim,false,1,1318.0,0,1,2,36461,task3,629323,false,false,397,image-keyboard-response,3
true,5,2,1,1,false,z,true,false,0.0-2.0-0.11-0.105-3.105,0,0,1,68,false,stim,false,1,1181.0,0,1,2,36461,task3,632012,false,false,400,image-keyboard-response,4
true,5,1,1,0,false,q,false,false,0.0-2.0-0.11-0.106-3.106,0,0,1,90,false,stim,true,1,1184.0,0,0,0,36461,task3,634707,false,false,403,image-keyboard-response,5
true,5,1,1,0,false,q,true,false,0.0-2.0-0.11-0.107-3.107,0,0,1,90,false,stim,false,2,2386.0,0,0,1,36461,task3,638601,false,false,406,image-keyboard-response,6
true,5,1,1,0,false,q,false,false,0.0-2.0-0.12-0.108-3.108,0,0,1,90,false,stim,true,1,1636.0,0,0,0,36461,task3,641744,false,false,409,image-keyboard-response,7
true,5,2,1,0,false,q,false,false,0.0-2.0-0.12-0.109-3.109,0,0,1,68,false,stim,true,2,1755.0,0,0,1,36461,task3,645005,false,false,412,image-keyboard-response,8
true,5,0,1,0,true,q,false,true,0.0-2.0-0.12-0.110-3.110,0,0,1,81,false,stim,false,2,1514.0000000001164,0,0,1,36461,task3,648026,false,false,415,image-keyboard-response,9
true,5,0,1,1,false,z,true,false,0.0-2.0-0.12-0.111-3.111,0,0,1,81,false,stim,false,1,1720.0,0,1,2,36461,task3,651251,false,false,418,image-keyboard-response,10
true,5,0,1,0,true,q,false,true,0.0-2.0-0.12-0.112-3.112,0,0,1,81,false,stim,false,2,1013.0,0,0,1,36461,task3,653769,false,false,421,image-keyboard-response,11
true,5,1,1,1,true,z,false,true,0.0-2.0-0.12-0.113-3.113,0,0,1,90,false,stim,false,1,2117.9999999998836,0,1,2,36461,task3,657390,false,false,424,image-keyboard-response,12
false,5,-1,1,0,false,q,true,false,0.0-2.0-0.12-0.114-3.114,0,0,1,,false,stim,false,1,,0,0,0,36461,task3,661898,false,false,427,image-keyboard-response,13
true,5,1,1,1,true,z,false,true,0.0-2.0-0.12-0.115-3.115,0,0,1,90,false,stim,false,1,1814.9999999998836,0,1,2,36461,task3,665219,false,false,430,image-keyboard-response,14
true,5,2,1,0,false,q,true,false,0.0-2.0-0.12-0.116-3.116,0,0,1,68,false,stim,false,1,1450.0,0,0,0,36461,task3,668176,false,false,433,image-keyboard-response,15
true,5,1,1,0,false,q,false,false,0.0-2.0-0.13-0.117-3.117,0,0,1,90,false,stim,true,1,1924.0,0,0,0,36461,task3,671606,false,false,436,image-keyboard-response,16
true,5,1,1,1,true,z,false,true,0.0-2.0-0.13-0.118-3.118,0,0,1,90,false,stim,false,1,971.0,0,1,2,36461,task3,674082,false,false,439,image-keyboard-response,17
true,5,0,1,0,true,q,false,true,0.0-2.0-0.13-0.119-3.119,0,0,1,81,false,stim,false,2,607.0,0,0,1,36461,task3,676194,false,false,442,image-keyboard-response,18
true,5,1,1,1,true,z,false,true,0.0-2.0-0.13-0.120-3.120,0,0,1,90,false,stim,false,1,1334.0,0,1,2,36461,task3,679033,false,false,445,image-keyboard-response,19
true,5,1,1,0,false,q,false,false,0.0-2.0-0.13-0.121-3.121,0,0,1,90,false,stim,true,1,1530.0000000001164,0,0,0,36461,task3,682068,false,false,448,image-keyboard-response,20
true,5,0,1,0,true,q,false,true,0.0-2.0-0.13-0.122-3.122,0,0,1,81,false,stim,false,2,1308.9999999998836,0,0,1,36461,task3,684883,false,false,451,image-keyboard-response,21
true,5,1,1,1,true,z,false,true,0.0-2.0-0.13-0.123-3.123,0,0,1,90,false,stim,false,1,767.0000000001164,0,0,2,36461,task3,687156,false,false,454,image-keyboard-response,22
true,5,0,1,0,true,q,false,true,0.0-2.0-0.13-0.124-3.124,0,0,1,81,false,stim,false,1,930.0,0,1,0,36461,task3,689592,false,false,457,image-keyboard-response,23
true,5,0,1,0,true,q,false,true,0.0-2.0-0.13-0.125-3.125,0,0,1,81,false,stim,false,2,2098.9999999998836,0,0,1,36461,task3,693197,false,false,460,image-keyboard-response,24
true,5,1,1,1,true,z,false,false,0.0-2.0-0.14-0.126-3.126,0,0,1,90,false,stim,false,1,805.0,0,0,2,36461,task3,695507,false,true,463,image-keyboard-response,25
true,5,0,1,0,true,q,false,true,0.0-2.0-0.14-0.127-3.127,0,0,1,81,false,stim,false,2,687.0,0,0,1,36461,task3,697700,false,false,466,image-keyboard-response,26
true,6,0,1,1,false,z,false,false,0.0-2.0-0.14-0.128-3.128,1,0,0,81,true,stim,true,0,788.0,0,0,1,36461,task3,699994,false,false,469,image-keyboard-response,1
true,6,0,1,1,false,z,false,false,0.0-2.0-0.14-0.129-3.129,1,0,0,81,false,stim,true,0,895.0,0,0,1,36461,task3,702396,false,false,472,image-keyboard-response,2
true,6,0,1,0,true,q,false,true,0.0-2.0-0.14-0.130-3.130,1,0,0,81,false,stim,false,0,1498.9999999998836,0,1,0,36461,task3,705401,false,false,475,image-keyboard-response,3
true,6,1,1,0,false,q,false,false,0.0-2.0-0.14-0.131-3.131,1,0,0,90,false,stim,true,1,1120.0,0,0,2,36461,task3,708027,false,false,478,image-keyboard-response,4
true,6,2,1,0,false,q,true,false,0.0-2.0-0.14-0.132-3.132,1,0,0,68,false,stim,false,1,1550.0,0,0,2,36461,task3,711083,false,false,481,image-keyboard-response,5
true,6,0,1,0,true,q,false,true,0.0-2.0-0.14-0.133-3.133,1,0,0,81,false,stim,false,0,1032.0,0,1,0,36461,task3,713621,false,false,484,image-keyboard-response,6
true,6,0,1,0,true,q,false,true,0.0-2.0-0.14-0.134-3.134,1,0,0,81,false,stim,false,0,721.0,0,1,0,36461,task3,715847,false,false,487,image-keyboard-response,7
true,6,0,1,0,true,q,false,true,0.0-2.0-0.15-0.135-3.135,1,0,0,81,false,stim,false,1,1017.0,0,0,2,36461,task3,718370,false,false,490,image-keyboard-response,8
true,6,0,1,1,false,z,false,true,0.0-2.0-0.15-0.136-3.136,1,0,0,81,false,stim,true,0,864.0,0,0,1,36461,task3,720739,false,true,493,image-keyboard-response,9
true,6,0,1,1,false,z,false,false,0.0-2.0-0.15-0.137-3.137,1,0,0,81,false,stim,true,0,441.0,0,0,1,36461,task3,722686,false,false,496,image-keyboard-response,10
true,6,0,1,0,true,q,false,true,0.0-2.0-0.15-0.138-3.138,1,0,0,81,false,stim,false,0,726.0,0,1,0,36461,task3,724918,false,false,499,image-keyboard-response,11
true,6,1,1,1,true,z,false,true,0.0-2.0-0.15-0.139-3.139,1,0,0,90,false,stim,false,0,637.9999999998836,0,0,1,36461,task3,727064,false,false,502,image-keyboard-response,12
true,6,0,1,0,true,q,false,true,0.0-2.0-0.15-0.140-3.140,1,0,0,81,false,stim,false,0,1188.0,0,1,0,36461,task3,729758,false,false,505,image-keyboard-response,13
true,6,2,1,0,false,q,true,false,0.0-2.0-0.15-0.141-3.141,1,0,0,68,false,stim,false,1,878.0,0,0,2,36461,task3,732141,false,false,508,image-keyboard-response,14
true,6,1,1,0,false,q,false,false,0.0-2.0-0.15-0.142-3.142,1,0,0,90,false,stim,true,1,2359.9999999998836,0,0,2,36461,task3,736008,false,false,511,image-keyboard-response,15
true,6,0,1,0,true,q,false,true,0.0-2.0-0.15-0.143-3.143,1,0,0,81,false,stim,false,0,685.0,0,1,0,36461,task3,738198,false,false,514,image-keyboard-response,16
true,6,0,1,0,true,q,false,true,0.0-2.0-0.16-0.144-3.144,1,0,0,81,false,stim,false,1,1396.0000000001164,0,0,2,36461,task3,741100,false,false,517,image-keyboard-response,17
true,6,1,1,1,true,z,false,true,0.0-2.0-0.16-0.145-3.145,1,0,0,90,false,stim,false,0,1849.9999999998836,0,0,1,36461,task3,744455,false,false,520,image-keyboard-response,18
true,6,0,1,0,true,q,false,true,0.0-2.0-0.16-0.146-3.146,1,0,0,81,false,stim,false,1,1291.0,0,0,2,36461,task3,747252,false,false,523,image-keyboard-response,19
true,6,1,1,1,true,z,false,true,0.0-2.0-0.16-0.147-3.147,1,0,0,90,false,stim,false,0,999.0,0,0,1,36461,task3,749757,false,false,526,image-keyboard-response,20
true,6,0,1,0,true,q,false,true,0.0-2.0-0.16-0.148-3.148,1,0,0,81,false,stim,false,1,1577.0,0,0,2,36461,task3,752840,false,false,529,image-keyboard-response,21
true,6,1,1,1,true,z,false,true,0.0-2.0-0.16-0.149-3.149,1,0,0,90,false,stim,false,0,2029.0,0,1,1,36461,task3,756376,false,false,532,image-keyboard-response,22
true,6,0,1,0,true,q,false,false,0.0-2.0-0.16-0.150-3.150,1,0,0,81,false,stim,false,0,1432.0,0,1,0,36461,task3,759314,false,true,535,image-keyboard-response,23
true,6,0,1,0,true,q,false,true,0.0-2.0-0.16-0.151-3.151,1,0,0,81,false,stim,false,0,543.0,0,1,0,36461,task3,761363,false,false,538,image-keyboard-response,24
true,6,0,1,0,true,q,false,true,0.0-2.0-0.16-0.152-3.152,1,0,0,81,false,stim,false,0,733.0,0,1,0,36461,task3,763601,false,false,541,image-keyboard-response,25
true,7,0,2,0,true,q,false,true,0.0-2.0-0.17-0.153-3.153,1,1,0,81,true,stim,false,0,654.0,0,1,0,36461,task3,765762,false,false,544,image-keyboard-response,1
true,7,0,2,2,false,d,false,false,0.0-2.0-0.17-0.154-3.154,1,1,0,81,false,stim,true,0,1801.0,0,0,2,36461,task3,769069,false,false,547,image-keyboard-response,2
true,7,1,2,1,true,z,false,true,0.0-2.0-0.17-0.155-3.155,1,1,0,90,false,stim,false,1,812.0,0,1,1,36461,task3,771386,false,false,550,image-keyboard-response,3
true,7,1,2,1,true,z,false,true,0.0-2.0-0.17-0.156-3.156,1,1,0,90,false,stim,false,1,1591.0,0,1,1,36461,task3,774482,false,false,553,image-keyboard-response,4
true,7,1,2,1,true,z,false,false,0.0-2.0-0.17-0.157-3.157,1,1,0,90,false,stim,false,1,1529.0,0,1,1,36461,task3,777517,false,true,556,image-keyboard-response,5
true,7,0,2,2,false,d,false,false,0.0-2.0-0.17-0.158-3.158,1,1,0,81,false,stim,true,0,793.0,0,0,2,36461,task3,779816,false,false,559,image-keyboard-response,6
true,7,0,2,0,true,q,false,true,0.0-2.0-0.17-0.159-3.159,1,1,0,81,false,stim,false,0,1755.0,0,1,0,36461,task3,783077,false,false,562,image-keyboard-response,7
true,7,1,2,2,false,d,true,false,0.0-2.0-0.17-0.160-3.160,1,1,0,90,false,stim,false,0,815.9999999998836,0,0,2,36461,task3,785398,false,false,565,image-keyboard-response,8
true,7,0,2,0,true,q,false,true,0.0-2.0-0.17-0.161-3.161,1,1,0,81,false,stim,false,0,1396.9999999998836,0,1,0,36461,task3,788301,false,false,568,image-keyboard-response,9
true,7,2,2,2,true,d,false,true,0.0-2.0-0.18-0.162-3.162,1,1,0,68,false,stim,false,0,787.0,0,0,2,36461,task3,790593,false,false,571,image-keyboard-response,10
true,7,0,2,1,false,z,true,false,0.0-2.0-0.18-0.163-3.163,1,1,0,81,false,stim,false,1,883.0,0,1,1,36461,task3,792983,false,false,574,image-keyboard-response,11
true,7,0,2,0,true,q,false,true,0.0-2.0-0.18-0.164-3.164,1,1,0,81,false,stim,false,0,1114.0,0,1,0,36461,task3,795602,false,false,577,image-keyboard-response,12
true,7,0,2,0,true,q,false,true,0.0-2.0-0.18-0.165-3.165,1,1,0,81,false,stim,false,0,1998.0,0,1,0,36461,task3,799106,false,false,580,image-keyboard-response,13
true,7,2,2,2,true,d,false,true,0.0-2.0-0.18-0.166-3.166,1,1,0,68,false,stim,false,0,565.0,0,0,2,36461,task3,801176,false,false,583,image-keyboard-response,14
true,7,1,2,1,true,z,false,true,0.0-2.0-0.18-0.167-3.167,1,1,0,90,false,stim,false,1,1051.0,0,1,1,36461,task3,803733,false,false,586,image-keyboard-response,15
true,7,2,2,1,false,z,true,false,0.0-2.0-0.18-0.168-3.168,1,1,0,68,false,stim,false,1,1824.0,0,1,1,36461,task3,807063,false,false,589,image-keyboard-response,16
true,7,0,2,0,true,q,false,true,0.0-2.0-0.18-0.169-3.169,1,1,0,81,false,stim,false,0,1237.0,0,1,0,36461,task3,809805,false,false,592,image-keyboard-response,17
true,7,2,2,2,true,d,false,true,0.0-2.0-0.18-0.170-3.170,1,1,0,68,false,stim,false,0,1280.0,0,0,2,36461,task3,812591,false,false,595,image-keyboard-response,18
true,7,1,2,1,true,z,false,false,0.0-2.0-0.19-0.171-3.171,1,1,0,90,false,stim,false,1,507.9999999998836,0,1,1,36461,task3,814605,false,true,598,image-keyboard-response,19
true,7,0,2,0,true,q,false,true,0.0-2.0-0.19-0.172-3.172,1,1,0,81,false,stim,false,0,740.0,0,1,0,36461,task3,816854,false,false,601,image-keyboard-response,20
true,7,2,2,2,true,d,false,false,0.0-2.0-0.19-0.173-3.173,1,1,0,68,false,stim,false,0,651.0,0,0,2,36461,task3,819010,false,true,604,image-keyboard-response,21
true,7,1,2,0,false,q,true,false,0.0-2.0-0.19-0.174-3.174,1,1,0,90,false,stim,false,0,510.0000000001164,0,1,0,36461,task3,821025,false,false,607,image-keyboard-response,22
true,7,2,2,2,true,d,false,true,0.0-2.0-0.19-0.175-3.175,1,1,0,68,false,stim,false,0,1175.9999999998836,0,0,2,36461,task3,823707,false,false,610,image-keyboard-response,23
true,7,1,2,1,true,z,false,true,0.0-2.0-0.19-0.176-3.176,1,1,0,90,false,stim,false,1,1704.0,0,1,1,36461,task3,826916,false,false,613,image-keyboard-response,24
true,7,0,2,0,true,q,false,true,0.0-2.0-0.19-0.177-3.177,1,1,0,81,false,stim,false,0,769.0,0,1,0,36461,task3,829191,false,false,616,image-keyboard-response,25
true,7,1,2,1,true,z,false,true,0.0-2.0-0.19-0.178-3.178,1,1,0,90,false,stim,false,1,1384.0,0,1,1,36461,task3,832081,false,false,619,image-keyboard-response,26
true,8,2,2,1,false,z,false,false,0.0-2.0-0.19-0.179-3.179,1,1,0,68,true,stim,true,2,837.0,0,0,2,36461,task3,834423,false,false,622,image-keyboard-response,1
true,8,2,2,1,false,z,false,false,0.0-2.0-0.20-0.180-3.180,1,1,0,68,false,stim,true,2,1456.9999999998836,0,0,2,36461,task3,837386,false,false,625,image-keyboard-response,2
true,8,0,2,0,true,q,false,true,0.0-2.0-0.20-0.181-3.181,1,1,0,81,false,stim,false,0,1478.0,0,1,0,36461,task3,840371,false,false,628,image-keyboard-response,3
true,8,1,2,1,true,z,false,false,0.0-2.0-0.20-0.182-3.182,1,1,0,90,false,stim,false,2,1691.9999999998836,0,0,2,36461,task3,843569,false,true,631,image-keyboard-response,4
true,8,0,2,0,true,q,false,true,0.0-2.0-0.20-0.183-3.183,1,1,0,81,false,stim,false,0,1020.0,0,1,0,36461,task3,846095,false,false,634,image-keyboard-response,5
true,8,0,2,0,true,q,false,true,0.0-2.0-0.20-0.184-3.184,1,1,0,81,false,stim,false,0,792.0,0,1,0,36461,task3,848393,false,false,637,image-keyboard-response,6
true,8,1,2,1,true,z,false,true,0.0-2.0-0.20-0.185-3.185,1,1,0,90,false,stim,false,1,977.0,0,1,1,36461,task3,850876,false,false,640,image-keyboard-response,7
true,8,1,2,1,true,z,false,true,0.0-2.0-0.20-0.186-3.186,1,1,0,90,false,stim,false,1,1226.0,0,1,1,36461,task3,853608,false,false,643,image-keyboard-response,8
true,8,1,2,1,true,z,false,true,0.0-2.0-0.20-0.187-3.187,1,1,0,90,false,stim,false,1,1231.0,0,1,1,36461,task3,856345,false,false,646,image-keyboard-response,9
true,8,0,2,1,false,z,true,false,0.0-2.0-0.20-0.188-3.188,1,1,0,81,false,stim,false,2,1426.0000000001164,0,0,2,36461,task3,859277,false,false,649,image-keyboard-response,10
true,8,1,2,1,true,z,false,true,0.0-2.0-0.21-0.189-3.189,1,1,0,90,false,stim,false,1,882.0,0,1,1,36461,task3,861665,false,false,652,image-keyboard-response,11
true,8,0,2,0,true,q,false,true,0.0-2.0-0.21-0.190-3.190,1,1,0,81,false,stim,false,0,611.0,0,1,0,36461,task3,863782,false,false,655,image-keyboard-response,12
true,8,0,2,0,true,q,false,false,0.0-2.0-0.21-0.191-3.191,1,1,0,81,false,stim,false,0,976.0,0,1,0,36461,task3,866264,false,true,658,image-keyboard-response,13
true,8,1,2,1,true,z,false,true,0.0-2.0-0.21-0.192-3.192,1,1,0,90,false,stim,false,2,1458.0000000001164,0,0,2,36461,task3,869228,false,false,661,image-keyboard-response,14
true,8,1,2,1,true,z,false,true,0.0-2.0-0.21-0.193-3.193,1,1,0,90,false,stim,false,2,1137.9999999998836,0,0,2,36461,task3,871871,false,false,664,image-keyboard-response,15
true,8,1,2,1,true,z,false,true,0.0-2.0-0.21-0.194-3.194,1,1,0,90,false,stim,false,1,856.0,0,1,1,36461,task3,874234,false,false,667,image-keyboard-response,16
true,8,1,2,1,true,z,false,true,0.0-2.0-0.21-0.195-3.195,1,1,0,90,false,stim,false,1,590.0000000001164,0,1,1,36461,task3,876330,false,false,670,image-keyboard-response,17
true,8,1,2,0,false,q,true,false,0.0-2.0-0.21-0.196-3.196,1,1,0,90,false,stim,false,0,543.0,0,1,0,36461,task3,878380,false,false,673,image-keyboard-response,18
true,8,0,2,1,false,z,true,false,0.0-2.0-0.21-0.197-3.197,1,1,0,81,false,stim,false,2,994.0,0,0,2,36461,task3,880880,false,false,676,image-keyboard-response,19
true,8,2,2,1,false,z,false,false,0.0-2.0-0.22-0.198-3.198,1,1,0,68,false,stim,true,2,2374.0,0,0,2,36461,task3,884760,false,false,679,image-keyboard-response,20
true,8,1,2,1,true,z,false,false,0.0-2.0-0.22-0.199-3.199,1,1,0,90,false,stim,false,2,1571.0,0,0,2,36461,task3,887837,false,true,682,image-keyboard-response,21
true,8,0,2,1,false,z,true,false,0.0-2.0-0.22-0.200-3.200,1,1,0,81,false,stim,false,1,1186.0,0,1,1,36461,task3,890529,false,false,685,image-keyboard-response,22
true,8,0,2,0,true,q,false,true,0.0-2.0-0.22-0.201-3.201,1,1,0,81,false,stim,false,0,1605.0,0,1,0,36461,task3,893639,false,false,688,image-keyboard-response,23
true,8,0,2,0,true,q,false,true,0.0-2.0-0.22-0.202-3.202,1,1,0,81,false,stim,false,0,735.0,0,1,0,36461,task3,895881,false,false,691,image-keyboard-response,24
true,8,1,2,1,true,z,false,true,0.0-2.0-0.22-0.203-3.203,1,1,0,90,false,stim,false,1,716.0,0,0,1,36461,task3,898103,false,false,694,image-keyboard-response,25
true,8,1,2,1,true,z,false,false,0.0-2.0-0.22-0.204-3.204,1,1,0,90,false,stim,false,1,599.0000000001164,0,0,1,36461,task3,900206,false,true,697,image-keyboard-response,26
true,8,1,2,1,true,z,false,true,0.0-2.0-0.22-0.205-3.205,1,1,0,90,false,stim,false,2,592.9999999998836,0,0,2,36461,task3,902304,false,false,700,image-keyboard-response,27
true,8,1,2,0,false,q,true,false,0.0-2.0-0.22-0.206-3.206,1,1,0,90,false,stim,false,0,613.0,0,1,0,36461,task3,904428,false,false,703,image-keyboard-response,28
true,8,1,2,1,true,z,false,true,0.0-2.0-0.23-0.207-3.207,1,1,0,90,false,stim,false,1,702.0,0,0,1,36461,task3,906635,false,false,706,image-keyboard-response,29
true,9,1,1,2,false,d,false,true,0.0-2.0-0.23-0.208-3.208,1,0,0,90,true,stim,true,1,585.0,0,0,2,36461,task3,908725,false,true,709,image-keyboard-response,1
true,9,1,1,2,false,d,false,false,0.0-2.0-0.23-0.209-3.209,1,0,0,90,false,stim,true,1,563.0,0,0,1,36461,task3,910794,false,false,712,image-keyboard-response,2
true,9,1,1,0,false,q,true,false,0.0-2.0-0.23-0.210-3.210,1,0,0,90,false,stim,false,0,573.0,0,1,0,36461,task3,912872,false,false,715,image-keyboard-response,3
true,9,0,1,2,false,d,true,false,0.0-2.0-0.23-0.211-3.211,1,0,0,81,false,stim,false,1,1443.0000000001164,0,0,2,36461,task3,915821,false,false,718,image-keyboard-response,4
true,9,1,1,2,false,d,false,false,0.0-2.0-0.23-0.212-3.212,1,0,0,90,false,stim,true,1,517.9999999998836,0,0,1,36461,task3,917844,false,false,721,image-keyboard-response,5
true,9,2,1,2,true,d,false,true,0.0-2.0-0.23-0.213-3.213,1,0,0,68,false,stim,false,1,1122.9999999998836,0,0,2,36461,task3,920473,false,false,724,image-keyboard-response,6
true,9,0,1,0,true,q,false,false,0.0-2.0-0.23-0.214-3.214,1,0,0,81,false,stim,false,0,1135.0,0,1,0,36461,task3,923112,false,true,727,image-keyboard-response,7
true,9,1,1,0,false,q,true,false,0.0-2.0-0.23-0.215-3.215,1,0,0,90,false,stim,false,0,1056.0,0,1,0,36461,task3,925674,false,false,730,image-keyboard-response,8
true,9,2,1,0,false,q,true,true,0.0-2.0-0.24-0.216-3.216,1,0,0,68,false,stim,false,0,967.0,0,1,0,36461,task3,928147,false,true,733,image-keyboard-response,9
true,9,2,1,2,true,d,false,false,0.0-2.0-0.24-0.217-3.217,1,0,0,68,false,stim,false,1,544.0000000001164,0,0,2,36461,task3,930197,false,true,736,image-keyboard-response,10
true,9,1,1,2,false,d,false,false,0.0-2.0-0.24-0.218-3.218,1,0,0,90,false,stim,true,1,1255.0,0,0,1,36461,task3,932959,false,false,739,image-keyboard-response,11
true,9,2,1,2,true,d,false,true,0.0-2.0-0.24-0.219-3.219,1,0,0,68,false,stim,false,1,965.0,0,0,2,36461,task3,935430,false,false,742,image-keyboard-response,12
true,9,2,1,0,false,q,true,false,0.0-2.0-0.24-0.220-3.220,1,0,0,68,false,stim,false,0,488.0,0,1,0,36461,task3,937424,false,false,745,image-keyboard-response,13
true,9,2,1,2,true,d,false,true,0.0-2.0-0.24-0.221-3.221,1,0,0,68,false,stim,false,1,473.0,0,0,2,36461,task3,939403,false,false,748,image-keyboard-response,14
true,9,2,1,2,true,d,false,true,0.0-2.0-0.24-0.222-3.222,1,0,0,68,false,stim,false,1,2169.9999999998836,0,0,1,36461,task3,943079,false,false,751,image-keyboard-response,15
true,9,2,1,0,false,q,true,false,0.0-2.0-0.24-0.223-3.223,1,0,0,68,false,stim,false,0,1115.0,0,1,0,36461,task3,945700,false,false,754,image-keyboard-response,16
true,9,2,1,2,true,d,false,true,0.0-2.0-0.24-0.224-3.224,1,0,0,68,false,stim,false,1,675.0,0,0,1,36461,task3,947881,false,false,757,image-keyboard-response,17
true,9,1,1,0,false,q,true,false,0.0-2.0-0.25-0.225-3.225,1,0,0,90,false,stim,false,0,876.0,0,1,0,36461,task3,950264,false,false,760,image-keyboard-response,18
true,9,2,1,2,true,d,false,true,0.0-2.0-0.25-0.226-3.226,1,0,0,68,false,stim,false,1,1060.0,0,0,1,36461,task3,952829,false,false,763,image-keyboard-response,19
true,9,2,1,2,true,d,false,true,0.0-2.0-0.25-0.227-3.227,1,0,0,68,false,stim,false,1,550.0,0,0,2,36461,task3,954884,false,false,766,image-keyboard-response,20
true,9,2,1,2,true,d,false,true,0.0-2.0-0.25-0.228-3.228,1,0,0,68,false,stim,false,1,899.0,0,0,1,36461,task3,957289,false,false,769,image-keyboard-response,21
true,9,2,1,2,true,d,false,true,0.0-2.0-0.25-0.229-3.229,1,0,0,68,false,stim,false,1,432.0,0,0,1,36461,task3,959228,false,false,772,image-keyboard-response,22
true,9,2,1,2,true,d,false,true,0.0-2.0-0.25-0.230-3.230,1,0,0,68,false,stim,false,1,396.0,0,0,2,36461,task3,961135,false,false,775,image-keyboard-response,23
true,9,0,1,0,true,q,false,true,0.0-2.0-0.25-0.231-3.231,1,0,0,81,false,stim,false,0,1006.0,0,0,0,36461,task3,963648,false,false,778,image-keyboard-response,24
true,9,0,1,0,true,q,false,true,0.0-2.0-0.25-0.232-3.232,1,0,0,81,false,stim,false,0,711.0,0,0,0,36461,task3,965865,false,false,781,image-keyboard-response,25
true,9,2,1,2,true,d,false,true,0.0-2.0-0.25-0.233-3.233,1,0,0,68,false,stim,false,1,613.9999999998836,0,0,2,36461,task3,967985,false,false,784,image-keyboard-response,26
true,9,0,1,0,true,q,false,true,0.0-2.0-0.26-0.234-3.234,1,0,0,81,false,stim,false,0,548.0,0,0,0,36461,task3,970042,false,false,787,image-keyboard-response,27
true,10,2,1,0,false,q,false,false,0.0-2.0-0.26-0.235-3.235,0,1,0,68,true,stim,true,2,511.0000000001164,0,0,2,36461,task3,972058,false,false,790,image-keyboard-response,1
true,10,2,1,0,false,q,false,false,0.0-2.0-0.26-0.236-3.236,0,1,0,68,false,stim,true,2,402.9999999998836,0,0,2,36461,task3,973966,false,false,793,image-keyboard-response,2
true,10,0,1,2,false,d,false,false,0.0-2.0-0.26-0.237-3.237,0,1,0,81,false,stim,true,0,630.0,0,0,0,36461,task3,976101,false,false,796,image-keyboard-response,3
true,10,0,1,2,false,d,false,false,0.0-2.0-0.26-0.238-3.238,0,1,0,81,false,stim,true,0,788.9999999998836,0,0,0,36461,task3,978396,false,false,799,image-keyboard-response,4
true,10,0,1,2,false,d,true,false,0.0-2.0-0.26-0.239-3.239,0,1,0,81,false,stim,false,2,1046.0000000001164,0,1,1,36461,task3,980953,false,false,802,image-keyboard-response,5
true,10,2,1,2,true,d,false,true,0.0-2.0-0.26-0.240-3.240,0,1,0,68,false,stim,false,2,445.0,0,1,1,36461,task3,982904,false,false,805,image-keyboard-response,6
true,10,2,1,0,false,q,false,false,0.0-2.0-0.26-0.241-3.241,0,1,0,68,false,stim,true,2,974.9999999998836,0,0,2,36461,task3,985385,false,false,808,image-keyboard-response,7
true,10,2,1,2,true,d,false,true,0.0-2.0-0.26-0.242-3.242,0,1,0,68,false,stim,false,2,2135.0,0,1,1,36461,task3,989026,false,false,811,image-keyboard-response,8
true,10,1,1,0,false,q,true,true,0.0-2.0-0.27-0.243-3.243,0,1,0,90,false,stim,false,2,1291.0,0,0,2,36461,task3,991824,false,true,814,image-keyboard-response,9
true,10,1,1,0,false,q,true,false,0.0-2.0-0.27-0.244-3.244,0,1,0,90,false,stim,false,2,1476.0,0,0,2,36461,task3,994806,false,false,817,image-keyboard-response,10
true,10,0,1,2,false,d,false,false,0.0-2.0-0.27-0.245-3.245,0,1,0,81,false,stim,true,0,1002.0,0,0,0,36461,task3,997314,false,false,820,image-keyboard-response,11
true,10,2,1,2,true,d,false,true,0.0-2.0-0.27-0.246-3.246,0,1,0,68,false,stim,false,0,1326.0,0,0,0,36461,task3,1000145,false,false,823,image-keyboard-response,12
true,10,1,1,2,false,d,true,false,0.0-2.0-0.27-0.247-3.247,0,1,0,90,false,stim,false,2,2315.9999999998836,0,1,1,36461,task3,1003967,false,false,826,image-keyboard-response,13
true,10,2,1,2,true,d,false,true,0.0-2.0-0.27-0.248-3.248,0,1,0,68,false,stim,false,0,1375.0,0,0,0,36461,task3,1006846,false,false,829,image-keyboard-response,14
true,10,2,1,0,false,q,false,false,0.0-2.0-0.27-0.249-3.249,0,1,0,68,false,stim,true,2,1781.0,0,0,2,36461,task3,1010133,false,false,832,image-keyboard-response,15
true,10,0,1,2,false,d,true,false,0.0-2.0-0.27-0.250-3.250,0,1,0,81,false,stim,false,2,2880.0,0,1,1,36461,task3,1014518,false,false,835,image-keyboard-response,16
true,10,2,1,2,true,d,false,false,0.0-2.0-0.27-0.251-3.251,0,1,0,68,false,stim,false,2,906.0,0,1,1,36461,task3,1016931,false,true,838,image-keyboard-response,17
false,10,-1,1,2,false,d,true,false,0.0-2.0-0.28-0.252-3.252,0,1,0,,false,stim,false,0,,0,0,0,36461,task3,1021439,false,false,841,image-keyboard-response,18
true,10,2,1,0,false,q,false,false,0.0-2.0-0.28-0.253-3.253,0,1,0,68,false,stim,true,2,1590.0000000001164,0,0,2,36461,task3,1024536,false,false,844,image-keyboard-response,19
true,10,1,1,2,false,d,true,false,0.0-2.0-0.28-0.254-3.254,0,1,0,90,false,stim,false,0,661.0,0,0,0,36461,task3,1026701,false,false,847,image-keyboard-response,20
true,10,0,1,0,true,q,false,true,0.0-2.0-0.28-0.255-3.255,0,1,0,81,false,stim,false,2,775.9999999998836,0,0,2,36461,task3,1028983,false,false,850,image-keyboard-response,21
true,10,0,1,0,true,q,false,true,0.0-2.0-0.28-0.256-3.256,0,1,0,81,false,stim,false,2,964.9999999998836,0,0,2,36461,task3,1031454,false,false,853,image-keyboard-response,22
true,10,2,1,2,true,d,false,false,0.0-2.0-0.28-0.257-3.257,0,1,0,68,false,stim,false,2,2034.9999999997672,0,1,1,36461,task3,1034995,false,true,856,image-keyboard-response,23
true,10,1,1,2,false,d,true,false,0.0-2.0-0.28-0.258-3.258,0,1,0,90,false,stim,false,2,670.0,0,1,1,36461,task3,1037172,false,false,859,image-keyboard-response,24
true,10,0,1,2,false,d,true,false,0.0-2.0-0.28-0.259-3.259,0,1,0,81,false,stim,false,2,1079.0000000002328,0,1,1,36461,task3,1039756,false,false,862,image-keyboard-response,25
true,10,0,1,2,false,d,false,false,0.0-2.0-0.28-0.260-3.260,0,1,0,81,false,stim,true,0,1068.9999999998836,0,1,0,36461,task3,1042330,false,false,865,image-keyboard-response,26
true,10,1,1,0,false,q,true,true,0.0-2.0-0.29-0.261-3.261,0,1,0,90,false,stim,false,2,2265.0000000001164,0,0,2,36461,task3,1046102,false,true,868,image-keyboard-response,27
true,10,0,1,2,false,d,true,false,0.0-2.0-0.29-0.262-3.262,0,1,0,81,false,stim,false,2,2390.0,0,1,1,36461,task3,1049997,false,false,871,image-keyboard-response,28
true,11,2,2,2,true,d,false,true,0.0-2.0-0.29-0.263-3.263,1,1,0,68,true,stim,false,2,790.0,0,1,1,36461,task3,1052294,false,false,874,image-keyboard-response,1
true,11,2,2,2,true,d,false,true,0.0-2.0-0.29-0.264-3.264,1,1,0,68,false,stim,false,2,1196.0,0,1,0,36461,task3,1054996,false,false,877,image-keyboard-response,2
true,11,1,2,1,true,z,false,true,0.0-2.0-0.29-0.265-3.265,1,1,0,90,false,stim,false,0,1823.0000000002328,0,0,2,36461,task3,1058323,false,false,880,image-keyboard-response,3
true,11,1,2,1,true,z,false,true,0.0-2.0-0.29-0.266-3.266,1,1,0,90,false,stim,false,0,1802.0,0,0,2,36461,task3,1061632,false,false,883,image-keyboard-response,4
true,11,2,2,2,true,d,false,true,0.0-2.0-0.29-0.267-3.267,1,1,0,68,false,stim,false,2,768.0,0,1,0,36461,task3,1063904,false,false,886,image-keyboard-response,5
true,11,2,2,2,true,d,false,true,0.0-2.0-0.29-0.268-3.268,1,1,0,68,false,stim,false,2,691.0,0,1,1,36461,task3,1066102,false,false,889,image-keyboard-response,6
true,11,1,2,2,false,d,true,true,0.0-2.0-0.29-0.269-3.269,1,1,0,90,false,stim,false,2,438.0,0,0,0,36461,task3,1068046,false,true,892,image-keyboard-response,7
true,11,2,2,1,false,z,true,false,0.0-2.0-0.30-0.270-3.270,1,1,0,68,false,stim,false,0,33.0,0,1,2,36461,task3,1069585,false,false,895,image-keyboard-response,8
true,11,1,2,1,true,z,false,true,0.0-2.0-0.30-0.271-3.271,1,1,0,90,false,stim,false,0,1584.0,0,1,2,36461,task3,1072675,false,false,898,image-keyboard-response,9
true,11,2,2,2,true,d,false,true,0.0-2.0-0.30-0.272-3.272,1,1,0,68,false,stim,false,2,802.0,0,1,1,36461,task3,1074990,false,false,901,image-keyboard-response,10
true,11,2,2,2,true,d,false,true,0.0-2.0-0.30-0.273-3.273,1,1,0,68,false,stim,false,2,646.0,0,1,1,36461,task3,1077142,false,false,904,image-keyboard-response,11
true,12,1,2,1,true,z,false,true,0.0-2.0-0.30-0.274-3.274,0,1,1,90,true,stim,false,1,988.0,0,1,2,36461,task3,1079637,false,false,907,image-keyboard-response,1
true,12,2,2,2,true,d,false,true,0.0-2.0-0.30-0.275-3.275,0,1,1,68,false,stim,false,2,902.0000000002328,0,1,1,36461,task3,1082045,false,false,910,image-keyboard-response,2
true,12,2,2,0,false,q,false,false,0.0-2.0-0.30-0.276-3.276,0,1,1,68,false,stim,true,2,484.00000000023283,0,0,0,36461,task3,1084035,false,false,913,image-keyboard-response,3
true,12,2,2,0,false,q,false,false,0.0-2.0-0.30-0.277-3.277,0,1,1,68,false,stim,true,2,637.0,0,0,0,36461,task3,1086178,false,false,916,image-keyboard-response,4
true,12,0,2,0,true,q,false,true,0.0-2.0-0.30-0.278-3.278,0,1,1,81,false,stim,false,2,1193.0,0,0,0,36461,task3,1088878,false,false,919,image-keyboard-response,5
true,12,0,2,0,true,q,false,true,0.0-2.0-0.31-0.279-3.279,0,1,1,81,false,stim,false,2,560.0,0,0,0,36461,task3,1090944,false,false,922,image-keyboard-response,6
true,12,2,2,2,true,d,false,true,0.0-2.0-0.31-0.280-3.280,0,1,1,68,false,stim,false,2,1461.0,0,1,1,36461,task3,1093911,false,false,925,image-keyboard-response,7
true,12,2,2,2,true,d,false,true,0.0-2.0-0.31-0.281-3.281,0,1,1,68,false,stim,false,2,740.0,0,1,1,36461,task3,1096157,false,false,928,image-keyboard-response,8
true,12,2,2,2,true,d,false,true,0.0-2.0-0.31-0.282-3.282,0,1,1,68,false,stim,false,2,464.0,0,1,1,36461,task3,1098127,false,false,931,image-keyboard-response,9
true,12,2,2,1,false,z,true,false,0.0-2.0-0.31-0.283-3.283,0,1,1,68,false,stim,false,1,949.0,0,0,2,36461,task3,1100582,false,false,934,image-keyboard-response,10
true,12,1,2,1,true,z,false,true,0.0-2.0-0.31-0.284-3.284,0,1,1,90,false,stim,false,1,429.0,0,0,2,36461,task3,1102515,false,false,937,image-keyboard-response,11
true,12,0,2,0,true,q,false,true,0.0-2.0-0.31-0.285-3.285,0,1,1,81,false,stim,false,2,1045.0,0,1,0,36461,task3,1105065,false,false,940,image-keyboard-response,12
true,13,1,2,0,false,q,false,true,0.0-2.0-0.31-0.286-3.286,1,1,0,90,true,stim,true,1,697.0,0,0,2,36461,task3,1107268,false,true,943,image-keyboard-response,1
true,13,0,2,0,true,q,false,true,0.0-2.0-0.31-0.287-3.287,1,1,0,81,false,stim,false,0,959.0,0,1,0,36461,task3,1109733,false,false,946,image-keyboard-response,2
true,13,1,2,0,false,q,false,false,0.0-2.0-0.32-0.288-3.288,1,1,0,90,false,stim,true,1,575.0000000002328,0,0,2,36461,task3,1111815,false,false,949,image-keyboard-response,3
true,13,2,2,2,true,d,false,true,0.0-2.0-0.32-0.289-3.289,1,1,0,68,false,stim,false,2,2507.0,0,1,1,36461,task3,1115829,false,false,952,image-keyboard-response,4
true,13,1,2,0,false,q,false,false,0.0-2.0-0.32-0.290-3.290,1,1,0,90,false,stim,true,1,789.0,0,0,2,36461,task3,1118126,false,false,955,image-keyboard-response,5
true,13,0,2,0,true,q,false,true,0.0-2.0-0.32-0.291-3.291,1,1,0,81,false,stim,false,0,1206.0,0,1,0,36461,task3,1120838,false,false,958,image-keyboard-response,6
true,13,0,2,0,true,q,false,true,0.0-2.0-0.32-0.292-3.292,1,1,0,81,false,stim,false,0,982.0000000002328,0,1,0,36461,task3,1123326,false,false,961,image-keyboard-response,7
true,13,1,2,0,false,q,false,false,0.0-2.0-0.32-0.293-3.293,1,1,0,90,false,stim,true,1,926.0,0,0,2,36461,task3,1125757,false,false,964,image-keyboard-response,8
true,13,2,2,0,false,q,true,false,0.0-2.0-0.32-0.294-3.294,1,1,0,68,false,stim,false,0,357.0,0,1,0,36461,task3,1127621,false,false,967,image-keyboard-response,9
true,13,1,2,2,false,d,true,true,0.0-2.0-0.32-0.295-3.295,1,1,0,90,false,stim,false,2,1562.0,0,1,1,36461,task3,1130688,false,true,970,image-keyboard-response,10
true,13,1,2,2,false,d,true,false,0.0-2.0-0.32-0.296-3.296,1,1,0,90,false,stim,false,2,593.0,0,0,1,36461,task3,1132787,false,false,973,image-keyboard-response,11
true,13,0,2,0,true,q,false,true,0.0-2.0-0.33-0.297-3.297,1,1,0,81,false,stim,false,0,1173.0,0,0,0,36461,task3,1135469,false,false,976,image-keyboard-response,12
true,13,0,2,0,true,q,false,true,0.0-2.0-0.33-0.298-3.298,1,1,0,81,false,stim,false,0,676.0,0,0,0,36461,task3,1137651,false,false,979,image-keyboard-response,13
true,13,0,2,0,true,q,false,true,0.0-2.0-0.33-0.299-3.299,1,1,0,81,false,stim,false,0,583.0,0,0,0,36461,task3,1139739,false,false,982,image-keyboard-response,14
true,13,2,2,0,false,q,true,false,0.0-2.0-0.33-0.300-3.300,1,1,0,68,false,stim,false,1,1722.0,0,1,2,36461,task3,1142968,false,false,985,image-keyboard-response,15
true,14,1,1,0,false,q,true,true,0.0-2.0-0.33-0.301-3.301,0,0,1,90,true,stim,false,2,1318.0,0,0,1,36461,task3,1145792,false,true,988,image-keyboard-response,1
true,14,0,1,0,true,q,false,true,0.0-2.0-0.33-0.302-3.302,0,0,1,81,false,stim,false,0,1484.0,0,1,2,36461,task3,1148782,false,false,991,image-keyboard-response,2
true,14,0,1,0,true,q,false,false,0.0-2.0-0.33-0.303-3.303,0,0,1,81,false,stim,false,0,575.0,0,1,2,36461,task3,1150863,false,true,994,image-keyboard-response,3
true,14,1,1,0,false,q,true,false,0.0-2.0-0.33-0.304-3.304,0,0,1,90,false,stim,false,2,1142.0,0,0,1,36461,task3,1153510,false,false,997,image-keyboard-response,4
true,14,1,1,0,false,q,true,false,0.0-2.0-0.33-0.305-3.305,0,0,1,90,false,stim,false,2,446.99999999976717,0,0,1,36461,task3,1155465,false,false,1000,image-keyboard-response,5
true,14,2,1,0,false,q,false,false,0.0-2.0-0.34-0.306-3.306,0,0,1,68,false,stim,true,2,477.0,0,0,1,36461,task3,1157455,false,false,1003,image-keyboard-response,6
true,14,0,1,2,false,d,false,false,0.0-2.0-0.34-0.307-3.307,0,0,1,81,false,stim,true,0,697.0,0,0,0,36461,task3,1159661,false,false,1006,image-keyboard-response,7
true,14,0,1,2,false,d,false,false,0.0-2.0-0.34-0.308-3.308,0,0,1,81,false,stim,true,0,591.0,0,0,0,36461,task3,1161757,false,false,1009,image-keyboard-response,8
true,14,0,1,0,true,q,false,true,0.0-2.0-0.34-0.309-3.309,0,0,1,81,false,stim,false,0,711.0,0,1,2,36461,task3,1163973,false,false,1012,image-keyboard-response,9
true,14,1,1,2,false,d,true,false,0.0-2.0-0.34-0.310-3.310,0,0,1,90,false,stim,false,0,1198.0,0,0,0,36461,task3,1166677,false,false,1015,image-keyboard-response,10
true,14,0,1,0,true,q,false,true,0.0-2.0-0.34-0.311-3.311,0,0,1,81,false,stim,false,2,1063.0,0,0,1,36461,task3,1169247,false,false,1018,image-keyboard-response,11
true,14,2,1,0,false,q,true,false,0.0-2.0-0.34-0.312-3.312,0,0,1,68,false,stim,false,0,868.0,0,1,2,36461,task3,1171622,false,false,1021,image-keyboard-response,12
true,14,1,1,0,false,q,true,false,0.0-2.0-0.34-0.313-3.313,0,0,1,90,false,stim,false,0,1025.0000000002328,0,1,2,36461,task3,1174154,false,false,1024,image-keyboard-response,13
true,14,0,1,0,true,q,false,false,0.0-2.0-0.34-0.314-3.314,0,0,1,81,false,stim,false,2,999.0,0,0,1,36461,task3,1176660,false,true,1027,image-keyboard-response,14
true,14,0,1,2,false,d,false,false,0.0-2.0-0.35-0.315-3.315,0,0,1,81,false,stim,true,0,1297.0,0,0,0,36461,task3,1179464,false,false,1030,image-keyboard-response,15
true,14,1,1,2,false,d,true,false,0.0-2.0-0.35-0.316-3.316,0,0,1,90,false,stim,false,0,913.0,0,0,0,36461,task3,1181885,false,false,1033,image-keyboard-response,16
true,14,1,1,0,false,q,true,false,0.0-2.0-0.35-0.317-3.317,0,0,1,90,false,stim,false,2,1044.0,0,0,1,36461,task3,1184435,false,false,1036,image-keyboard-response,17
true,14,2,1,0,false,q,true,false,0.0-2.0-0.35-0.318-3.318,0,0,1,68,false,stim,false,0,1491.0,0,1,2,36461,task3,1187432,false,false,1039,image-keyboard-response,18
true,14,1,1,0,false,q,true,false,0.0-2.0-0.35-0.319-3.319,0,0,1,90,false,stim,false,0,1479.0,0,1,2,36461,task3,1190417,false,false,1042,image-keyboard-response,19
true,14,2,1,0,false,q,false,true,0.0-2.0-0.35-0.320-3.320,0,0,1,68,false,stim,true,2,1768.0000000002328,0,1,1,36461,task3,1193693,false,true,1045,image-keyboard-response,20
true,14,1,1,0,false,q,true,false,0.0-2.0-0.35-0.321-3.321,0,0,1,90,false,stim,false,2,1642.0,0,1,1,36461,task3,1196842,false,false,1048,image-keyboard-response,21
true,14,2,1,0,false,q,true,false,0.0-2.0-0.35-0.322-3.322,0,0,1,68,false,stim,false,0,1468.0,0,0,2,36461,task3,1199815,false,false,1051,image-keyboard-response,22
true,14,0,1,2,false,d,false,false,0.0-2.0-0.35-0.323-3.323,0,0,1,81,false,stim,true,0,1649.0,0,0,0,36461,task3,1202971,false,false,1054,image-keyboard-response,23
true,14,2,1,0,false,q,false,false,0.0-2.0-0.36-0.324-3.324,0,0,1,68,false,stim,true,2,1357.0,0,1,1,36461,task3,1205836,false,false,1057,image-keyboard-response,24
true,15,2,1,0,false,q,false,false,0.0-2.0-0.36-0.325-3.325,0,1,0,68,true,stim,true,2,603.0,0,0,0,36461,task3,1207945,false,false,1060,image-keyboard-response,1
true,15,1,1,0,false,q,true,false,0.0-2.0-0.36-0.326-3.326,0,1,0,90,false,stim,false,2,637.0000000002328,0,0,0,36461,task3,1210087,false,false,1063,image-keyboard-response,2
true,15,0,1,2,false,d,false,false,0.0-2.0-0.36-0.327-3.327,0,1,0,81,false,stim,true,0,1791.0000000002328,0,0,2,36461,task3,1213385,false,false,1066,image-keyboard-response,3
true,15,1,1,2,false,d,true,false,0.0-2.0-0.36-0.328-3.328,0,1,0,90,false,stim,false,0,1295.0,0,0,2,36461,task3,1216187,false,false,1069,image-keyboard-response,4
true,15,2,1,0,false,q,true,false,0.0-2.0-0.36-0.329-3.329,0,1,0,68,false,stim,false,0,717.0,0,1,1,36461,task3,1218411,false,false,1072,image-keyboard-response,5
true,15,0,1,0,true,q,false,true,0.0-2.0-0.36-0.330-3.330,0,1,0,81,false,stim,false,2,2016.0,0,0,0,36461,task3,1221934,false,false,1075,image-keyboard-response,6
true,15,1,1,0,false,q,true,false,0.0-2.0-0.36-0.331-3.331,0,1,0,90,false,stim,false,0,1472.0,0,1,1,36461,task3,1224912,false,false,1078,image-keyboard-response,7
true,15,2,1,2,true,d,false,true,0.0-2.0-0.36-0.332-3.332,0,1,0,68,false,stim,false,0,823.0000000002328,0,0,2,36461,task3,1227242,false,false,1081,image-keyboard-response,8
true,15,1,1,0,false,q,true,true,0.0-2.0-0.37-0.333-3.333,0,1,0,90,false,stim,false,0,1848.0,0,1,1,36461,task3,1230597,false,true,1084,image-keyboard-response,9
true,15,2,1,0,false,q,false,false,0.0-2.0-0.37-0.334-3.334,0,1,0,68,false,stim,true,2,571.0,0,0,0,36461,task3,1232676,false,false,1087,image-keyboard-response,10
true,15,0,1,2,false,d,false,false,0.0-2.0-0.37-0.335-3.335,0,1,0,81,false,stim,true,0,750.0,0,0,2,36461,task3,1234933,false,false,1090,image-keyboard-response,11
true,15,1,1,2,false,d,true,false,0.0-2.0-0.37-0.336-3.336,0,1,0,90,false,stim,false,0,551.0,0,0,2,36461,task3,1236990,false,false,1093,image-keyboard-response,12
true,15,2,1,0,false,q,false,true,0.0-2.0-0.37-0.337-3.337,0,1,0,68,false,stim,true,2,411.0,0,0,0,36461,task3,1238908,false,true,1096,image-keyboard-response,13
true,15,0,1,0,true,q,false,true,0.0-2.0-0.37-0.338-3.338,0,1,0,81,false,stim,false,2,2134.000000000233,0,0,0,36461,task3,1242549,false,false,1099,image-keyboard-response,14
true,15,1,1,0,false,q,true,true,0.0-2.0-0.37-0.339-3.339,0,1,0,90,false,stim,false,0,1108.0,0,1,1,36461,task3,1245172,false,true,1102,image-keyboard-response,15
true,15,1,1,0,false,q,true,false,0.0-2.0-0.37-0.340-3.340,0,1,0,90,false,stim,false,0,1502.0,0,1,1,36461,task3,1248181,false,false,1105,image-keyboard-response,16
true,15,2,1,2,true,d,false,true,0.0-2.0-0.37-0.341-3.341,0,1,0,68,false,stim,false,0,931.0,0,0,2,36461,task3,1250618,false,false,1108,image-keyboard-response,17
true,15,1,1,0,false,q,true,false,0.0-2.0-0.38-0.342-3.342,0,1,0,90,false,stim,false,0,855.0,0,1,1,36461,task3,1252980,false,false,1111,image-keyboard-response,18
true,15,2,1,2,true,d,false,true,0.0-2.0-0.38-0.343-3.343,0,1,0,68,false,stim,false,0,702.0,0,1,2,36461,task3,1255188,false,false,1114,image-keyboard-response,19
true,15,0,1,0,true,q,false,true,0.0-2.0-0.38-0.344-3.344,0,1,0,81,false,stim,false,2,859.9999999997672,0,0,0,36461,task3,1257554,false,false,1117,image-keyboard-response,20
true,15,2,1,2,true,d,false,true,0.0-2.0-0.38-0.345-3.345,0,1,0,68,false,stim,false,0,634.0000000002328,0,1,2,36461,task3,1259694,false,false,1120,image-keyboard-response,21
true,15,0,1,0,true,q,false,false,0.0-2.0-0.38-0.346-3.346,0,1,0,81,false,stim,false,2,1117.0,0,0,0,36461,task3,1262317,false,true,1123,image-keyboard-response,22
true,15,2,1,2,true,d,false,true,0.0-2.0-0.38-0.347-3.347,0,1,0,68,false,stim,false,0,692.0,0,1,2,36461,task3,1264514,false,false,1126,image-keyboard-response,23
true,16,1,2,0,false,q,true,false,0.0-2.0-0.38-0.348-3.348,0,1,1,90,true,stim,false,0,603.0,0,1,1,36461,task3,1266623,false,false,1129,image-keyboard-response,1
true,16,1,2,0,false,q,true,false,0.0-2.0-0.38-0.349-3.349,0,1,1,90,false,stim,false,0,1161.0,0,1,1,36461,task3,1269291,false,false,1132,image-keyboard-response,2
true,16,0,2,1,false,z,false,false,0.0-2.0-0.38-0.350-3.350,0,1,1,81,false,stim,true,0,1036.0,0,0,0,36461,task3,1271834,false,false,1135,image-keyboard-response,3
true,16,2,2,2,true,d,false,true,0.0-2.0-0.39-0.351-3.351,0,1,1,68,false,stim,false,2,893.0000000002328,0,1,2,36461,task3,1274234,false,false,1138,image-keyboard-response,4
true,16,0,2,1,false,z,false,false,0.0-2.0-0.39-0.352-3.352,0,1,1,81,false,stim,true,0,1093.0,0,0,0,36461,task3,1276834,false,false,1141,image-keyboard-response,5
true,16,2,2,2,true,d,false,true,0.0-2.0-0.39-0.353-3.353,0,1,1,68,false,stim,false,2,1034.0,0,1,2,36461,task3,1279375,false,false,1144,image-keyboard-response,6
true,16,1,2,0,false,q,true,true,0.0-2.0-0.39-0.354-3.354,0,1,1,90,false,stim,false,0,1112.0000000002328,0,1,1,36461,task3,1281993,false,true,1147,image-keyboard-response,7
true,16,1,2,0,false,q,true,false,0.0-2.0-0.39-0.355-3.355,0,1,1,90,false,stim,false,0,2983.0,0,1,1,36461,task3,1286482,false,false,1150,image-keyboard-response,8
true,16,0,2,1,false,z,false,false,0.0-2.0-0.39-0.356-3.356,0,1,1,81,false,stim,true,0,601.0,0,0,0,36461,task3,1288588,false,false,1153,image-keyboard-response,9
true,16,1,2,0,false,q,true,true,0.0-2.0-0.39-0.357-3.357,0,1,1,90,false,stim,false,0,937.0,0,1,1,36461,task3,1291031,false,true,1156,image-keyboard-response,10
true,16,0,2,1,false,z,false,false,0.0-2.0-0.39-0.358-3.358,0,1,1,81,false,stim,true,0,692.0,0,0,0,36461,task3,1293230,false,false,1159,image-keyboard-response,11
true,16,2,2,2,true,d,false,true,0.0-2.0-0.39-0.359-3.359,0,1,1,68,false,stim,false,2,546.0,0,1,2,36461,task3,1295281,false,false,1162,image-keyboard-response,12
true,16,0,2,1,false,z,false,false,0.0-2.0-0.40-0.360-3.360,0,1,1,81,false,stim,true,0,684.0,0,0,0,36461,task3,1297472,false,false,1165,image-keyboard-response,13
true,16,1,2,0,false,q,true,false,0.0-2.0-0.40-0.361-3.361,0,1,1,90,false,stim,false,0,599.0,0,1,1,36461,task3,1299578,false,false,1168,image-keyboard-response,14
true,16,2,2,2,true,d,false,true,0.0-2.0-0.40-0.362-3.362,0,1,1,68,false,stim,false,2,1910.0,0,1,2,36461,task3,1302992,false,false,1171,image-keyboard-response,15
true,16,1,2,0,false,q,true,false,0.0-2.0-0.40-0.363-3.363,0,1,1,90,false,stim,false,0,1545.0,0,1,1,36461,task3,1306045,false,false,1174,image-keyboard-response,16
true,16,2,2,2,true,d,false,true,0.0-2.0-0.40-0.364-3.364,0,1,1,68,false,stim,false,2,891.0,0,1,2,36461,task3,1308442,false,false,1177,image-keyboard-response,17
true,16,2,2,2,true,d,false,true,0.0-2.0-0.40-0.365-3.365,0,1,1,68,false,stim,false,2,619.0,0,1,2,36461,task3,1310567,false,false,1180,image-keyboard-response,18
true,16,0,2,1,false,z,false,true,0.0-2.0-0.40-0.366-3.366,0,1,1,81,false,stim,true,0,845.0,0,0,0,36461,task3,1312918,false,true,1183,image-keyboard-response,19
true,16,0,2,1,false,z,false,true,0.0-2.0-0.40-0.367-3.367,0,1,1,81,false,stim,true,0,716.0,0,0,0,36461,task3,1315141,false,true,1186,image-keyboard-response,20
true,16,1,2,0,false,q,true,false,0.0-2.0-0.40-0.368-3.368,0,1,1,90,false,stim,false,0,720.0000000002328,0,1,1,36461,task3,1317369,false,false,1189,image-keyboard-response,21
true,16,2,2,2,true,d,false,false,0.0-2.0-0.41-0.369-3.369,0,1,1,68,false,stim,false,2,542.0,0,0,2,36461,task3,1319418,false,true,1192,image-keyboard-response,22
true,16,2,2,2,true,d,false,true,0.0-2.0-0.41-0.370-3.370,0,1,1,68,false,stim,false,2,658.0,0,0,2,36461,task3,1321582,false,false,1195,image-keyboard-response,23
true,17,0,1,0,true,q,false,true,0.0-2.0-0.41-0.371-3.371,0,1,0,81,true,stim,false,0,694.0,0,1,1,36461,task3,1323781,false,false,1198,image-keyboard-response,1
true,17,1,1,0,false,q,true,false,0.0-2.0-0.41-0.372-3.372,0,1,0,90,false,stim,false,0,844.0,0,1,1,36461,task3,1326139,false,false,1201,image-keyboard-response,2
true,17,1,1,0,false,q,true,true,0.0-2.0-0.41-0.373-3.373,0,1,0,90,false,stim,false,0,2158.000000000233,0,1,1,36461,task3,1329803,false,true,1204,image-keyboard-response,3
true,17,0,1,2,false,d,true,false,0.0-2.0-0.41-0.374-3.374,0,1,0,81,false,stim,false,1,675.0,0,0,0,36461,task3,1331985,false,false,1207,image-keyboard-response,4
true,17,0,1,2,false,d,true,false,0.0-2.0-0.41-0.375-3.375,0,1,0,81,false,stim,false,1,1290.0,0,0,0,36461,task3,1334781,false,false,1210,image-keyboard-response,5
true,17,2,1,1,false,z,false,false,0.0-2.0-0.41-0.376-3.376,0,1,0,68,false,stim,true,2,572.0,0,0,2,36461,task3,1336859,false,false,1213,image-keyboard-response,6
true,17,0,1,2,false,d,true,false,0.0-2.0-0.41-0.377-3.377,0,1,0,81,false,stim,false,1,661.0,0,0,0,36461,task3,1339027,false,false,1216,image-keyboard-response,7
true,17,2,1,1,false,z,false,false,0.0-2.0-0.42-0.378-3.378,0,1,0,68,false,stim,true,2,731.9999999997672,0,0,2,36461,task3,1341266,false,false,1219,image-keyboard-response,8
true,17,1,1,0,false,q,true,false,0.0-2.0-0.42-0.379-3.379,0,1,0,90,false,stim,false,0,1123.0,0,1,1,36461,task3,1343896,false,false,1222,image-keyboard-response,9
true,17,2,1,1,false,z,false,false,0.0-2.0-0.42-0.380-3.380,0,1,0,68,false,stim,true,2,767.0,0,0,2,36461,task3,1346168,false,false,1225,image-keyboard-response,10
true,17,0,1,0,true,q,false,true,0.0-2.0-0.42-0.381-3.381,0,1,0,81,false,stim,false,0,492.0,0,1,1,36461,task3,1348167,false,false,1228,image-keyboard-response,11
true,17,0,1,2,false,d,true,false,0.0-2.0-0.42-0.382-3.382,0,1,0,81,false,stim,false,1,764.0,0,0,0,36461,task3,1350438,false,false,1231,image-keyboard-response,12
true,17,2,1,1,false,z,false,false,0.0-2.0-0.42-0.383-3.383,0,1,0,68,false,stim,true,2,640.0,0,0,2,36461,task3,1352586,false,false,1234,image-keyboard-response,13
true,17,1,1,0,false,q,true,false,0.0-2.0-0.42-0.384-3.384,0,1,0,90,false,stim,false,0,1725.0,0,1,1,36461,task3,1355818,false,false,1237,image-keyboard-response,14
true,17,0,1,2,false,d,true,false,0.0-2.0-0.42-0.385-3.385,0,1,0,81,false,stim,false,1,748.0,0,0,0,36461,task3,1358073,false,false,1240,image-keyboard-response,15
true,17,0,1,2,false,d,true,false,0.0-2.0-0.42-0.386-3.386,0,1,0,81,false,stim,false,1,777.0,0,0,0,36461,task3,1360356,false,false,1243,image-keyboard-response,16
true,17,1,1,0,false,q,true,false,0.0-2.0-0.43-0.387-3.387,0,1,0,90,false,stim,false,0,1424.0,0,1,1,36461,task3,1363291,false,false,1246,image-keyboard-response,17
true,17,0,1,2,false,d,true,false,0.0-2.0-0.43-0.388-3.388,0,1,0,81,false,stim,false,1,796.0,0,0,0,36461,task3,1365592,false,false,1249,image-keyboard-response,18
true,17,1,1,0,false,q,true,true,0.0-2.0-0.43-0.389-3.389,0,1,0,90,false,stim,false,0,1615.0,0,1,1,36461,task3,1368713,false,true,1252,image-keyboard-response,19
true,17,2,1,1,false,z,false,false,0.0-2.0-0.43-0.390-3.390,0,1,0,68,false,stim,true,2,491.0,0,0,2,36461,task3,1370711,false,false,1255,image-keyboard-response,20
true,17,2,1,1,false,z,false,false,0.0-2.0-0.43-0.391-3.391,0,1,0,68,false,stim,true,2,721.0,0,0,2,36461,task3,1372940,false,false,1258,image-keyboard-response,21
true,17,2,1,1,false,z,false,false,0.0-2.0-0.43-0.392-3.392,0,1,0,68,false,stim,true,2,811.0,0,0,2,36461,task3,1375256,false,false,1261,image-keyboard-response,22
true,17,0,1,2,false,d,true,false,0.0-2.0-0.43-0.393-3.393,0,1,0,81,false,stim,false,1,753.0,0,0,0,36461,task3,1377516,false,false,1264,image-keyboard-response,23
true,17,1,1,0,false,q,true,false,0.0-2.0-0.43-0.394-3.394,0,1,0,90,false,stim,false,0,1085.0,0,1,1,36461,task3,1380106,false,false,1267,image-keyboard-response,24
true,18,0,1,1,false,z,true,true,0.0-2.0-0.43-0.395-3.395,0,1,0,81,true,stim,false,2,2177.0,0,0,0,36461,task3,1383792,false,true,1270,image-keyboard-response,1
true,18,1,1,0,false,q,true,false,0.0-2.0-0.44-0.396-3.396,0,1,0,90,false,stim,false,0,1297.0,0,1,1,36461,task3,1386596,false,false,1273,image-keyboard-response,2
true,18,0,1,0,true,q,false,true,0.0-2.0-0.44-0.397-3.397,0,1,0,81,false,stim,false,1,2331.999999999767,0,0,2,36461,task3,1390434,false,false,1276,image-keyboard-response,3
true,18,0,1,0,true,q,false,true,0.0-2.0-0.44-0.398-3.398,0,1,0,81,false,stim,false,0,923.0,0,1,1,36461,task3,1392863,false,false,1279,image-keyboard-response,4
true,18,2,1,1,false,z,false,false,0.0-2.0-0.44-0.399-3.399,0,1,0,68,false,stim,true,2,1164.0,0,0,0,36461,task3,1395536,false,false,1282,image-keyboard-response,5
true,18,0,1,1,false,z,true,false,0.0-2.0-0.44-0.400-3.400,0,1,0,81,false,stim,false,2,1762.0000000002328,0,0,0,36461,task3,1398805,false,false,1285,image-keyboard-response,6
true,18,1,1,0,false,q,true,false,0.0-2.0-0.44-0.401-3.401,0,1,0,90,false,stim,false,0,940.0,0,1,1,36461,task3,1401252,false,false,1288,image-keyboard-response,7
true,18,0,1,1,false,z,true,false,0.0-2.0-0.44-0.402-3.402,0,1,0,81,false,stim,false,2,896.0,0,0,0,36461,task3,1403654,false,false,1291,image-keyboard-response,8
true,18,2,1,0,false,q,true,false,0.0-2.0-0.44-0.403-3.403,0,1,0,68,false,stim,false,1,639.9999999997672,0,0,2,36461,task3,1405801,false,false,1294,image-keyboard-response,9
true,18,2,1,0,false,q,true,false,0.0-2.0-0.44-0.404-3.404,0,1,0,68,false,stim,false,1,548.0,0,1,2,36461,task3,1407857,false,false,1297,image-keyboard-response,10
true,18,2,1,0,false,q,true,false,0.0-2.0-0.45-0.405-3.405,0,1,0,68,false,stim,false,1,673.0,0,1,2,36461,task3,1410036,false,false,1300,image-keyboard-response,11
true,18,0,1,1,false,z,true,false,0.0-2.0-0.45-0.406-3.406,0,1,0,81,false,stim,false,2,803.0,0,1,0,36461,task3,1412353,false,false,1303,image-keyboard-response,12
true,18,1,1,0,false,q,true,false,0.0-2.0-0.45-0.407-3.407,0,1,0,90,false,stim,false,0,829.0,0,0,1,36461,task3,1414688,false,false,1306,image-keyboard-response,13
true,18,0,1,1,false,z,true,false,0.0-2.0-0.45-0.408-3.408,0,1,0,81,false,stim,false,2,1572.0000000002328,0,1,0,36461,task3,1417766,false,false,1309,image-keyboard-response,14
true,19,1,2,1,true,z,false,true,0.0-2.0-0.45-0.409-3.409,1,0,1,90,true,stim,false,0,660.0,0,0,1,36461,task3,1419935,false,false,1312,image-keyboard-response,1
true,19,1,2,1,true,z,false,true,0.0-2.0-0.45-0.410-3.410,1,0,1,90,false,stim,false,0,1321.0,0,0,1,36461,task3,1422763,false,false,1315,image-keyboard-response,2
true,19,2,2,0,false,q,true,false,0.0-2.0-0.45-0.411-3.411,1,0,1,68,false,stim,false,0,604.0,0,1,2,36461,task3,1424873,false,false,1318,image-keyboard-response,3
true,19,2,2,0,false,q,true,false,0.0-2.0-0.45-0.412-3.412,1,0,1,68,false,stim,false,0,582.0,0,1,2,36461,task3,1426961,false,false,1321,image-keyboard-response,4
true,19,0,2,1,false,z,true,false,0.0-2.0-0.45-0.413-3.413,1,0,1,81,false,stim,false,1,1468.0,0,1,0,36461,task3,1429934,false,false,1324,image-keyboard-response,5
true,19,2,2,0,false,q,true,false,0.0-2.0-0.46-0.414-3.414,1,0,1,68,false,stim,false,0,581.0,0,1,2,36461,task3,1432025,false,false,1327,image-keyboard-response,6
true,19,0,2,1,false,z,true,false,0.0-2.0-0.46-0.415-3.415,1,0,1,81,false,stim,false,1,646.0,0,1,0,36461,task3,1434178,false,false,1330,image-keyboard-response,7
true,19,1,2,1,true,z,false,true,0.0-2.0-0.46-0.416-3.416,1,0,1,90,false,stim,false,0,617.0,0,0,1,36461,task3,1436300,false,false,1333,image-keyboard-response,8
true,19,1,2,1,true,z,false,true,0.0-2.0-0.46-0.417-3.417,1,0,1,90,false,stim,false,0,855.0000000002328,0,0,1,36461,task3,1438662,false,false,1336,image-keyboard-response,9
true,19,2,2,0,false,q,true,false,0.0-2.0-0.46-0.418-3.418,1,0,1,68,false,stim,false,0,428.0,0,1,2,36461,task3,1440597,false,false,1339,image-keyboard-response,10
true,19,1,2,1,true,z,false,true,0.0-2.0-0.46-0.419-3.419,1,0,1,90,false,stim,false,0,1528.0000000002328,0,0,1,36461,task3,1443633,false,false,1342,image-keyboard-response,11
true,19,0,2,1,false,z,true,false,0.0-2.0-0.46-0.420-3.420,1,0,1,81,false,stim,false,1,668.0,0,1,0,36461,task3,1445807,false,false,1345,image-keyboard-response,12
true,19,2,2,0,false,q,true,false,0.0-2.0-0.46-0.421-3.421,1,0,1,68,false,stim,false,0,712.0,0,1,2,36461,task3,1448025,false,false,1348,image-keyboard-response,13
true,19,1,2,1,true,z,false,true,0.0-2.0-0.46-0.422-3.422,1,0,1,90,false,stim,false,1,722.0,0,1,0,36461,task3,1450254,false,false,1351,image-keyboard-response,14
true,19,0,2,1,false,z,false,true,0.0-2.0-0.47-0.423-3.423,1,0,1,81,false,stim,true,0,685.0,0,0,1,36461,task3,1452448,false,true,1354,image-keyboard-response,15
true,19,2,2,0,false,q,true,false,0.0-2.0-0.47-0.424-3.424,1,0,1,68,false,stim,false,0,802.0,0,1,2,36461,task3,1454757,false,false,1357,image-keyboard-response,16
true,19,0,2,1,false,z,false,true,0.0-2.0-0.47-0.425-3.425,1,0,1,81,false,stim,true,0,1713.0,0,0,1,36461,task3,1457976,false,true,1360,image-keyboard-response,17
true,19,1,2,1,true,z,false,true,0.0-2.0-0.47-0.426-3.426,1,0,1,90,false,stim,false,1,979.0,0,1,0,36461,task3,1460461,false,false,1363,image-keyboard-response,18
true,19,2,2,0,false,q,true,false,0.0-2.0-0.47-0.427-3.427,1,0,1,68,false,stim,false,0,97.0,0,1,2,36461,task3,1462064,false,false,1366,image-keyboard-response,19
true,19,1,2,0,false,q,true,false,0.0-2.0-0.47-0.428-3.428,1,0,1,90,false,stim,false,0,1502.0,0,1,2,36461,task3,1465075,false,false,1369,image-keyboard-response,20
true,19,1,2,1,true,z,false,true,0.0-2.0-0.47-0.429-3.429,1,0,1,90,false,stim,false,1,2780.0,0,1,0,36461,task3,1469359,false,false,1372,image-keyboard-response,21
true,19,1,2,1,true,z,false,true,0.0-2.0-0.47-0.430-3.430,1,0,1,90,false,stim,false,1,567.0,0,1,0,36461,task3,1471433,false,false,1375,image-keyboard-response,22
true,19,0,2,1,false,z,false,false,0.0-2.0-0.47-0.431-3.431,1,0,1,81,false,stim,true,0,876.0,0,0,1,36461,task3,1473815,false,false,1378,image-keyboard-response,23
true,19,0,2,1,false,z,false,false,0.0-2.0-0.48-0.432-3.432,1,0,1,81,false,stim,true,0,651.0,0,0,1,36461,task3,1475975,false,false,1381,image-keyboard-response,24
true,19,1,2,1,true,z,false,true,0.0-2.0-0.48-0.433-3.433,1,0,1,90,false,stim,false,1,1703.0,0,1,0,36461,task3,1479184,false,false,1384,image-keyboard-response,25
true,19,2,2,1,false,z,true,false,0.0-2.0-0.48-0.434-3.434,1,0,1,68,false,stim,false,0,984.0,0,0,1,36461,task3,1481674,false,false,1387,image-keyboard-response,26
false,19,-1,2,1,false,z,true,false,0.0-2.0-0.48-0.435-3.435,1,0,1,,false,stim,false,1,,0,1,0,36461,task3,1486181,false,false,1390,image-keyboard-response,27
true,20,0,1,2,false,d,false,false,0.0-2.0-0.48-0.436-3.436,1,0,0,81,true,stim,true,0,2363.0,0,0,2,36461,task3,1490053,false,false,1393,image-keyboard-response,1
true,20,0,1,2,false,d,true,false,0.0-2.0-0.48-0.437-3.437,1,0,0,81,false,stim,false,1,1516.0,0,0,1,36461,task3,1493075,false,false,1396,image-keyboard-response,2
true,20,1,1,1,true,z,false,true,0.0-2.0-0.48-0.438-3.438,1,0,0,90,false,stim,false,1,1516.0,0,1,0,36461,task3,1496098,false,false,1399,image-keyboard-response,3
true,20,1,1,2,false,d,true,false,0.0-2.0-0.48-0.439-3.439,1,0,0,90,false,stim,false,0,1577.0,0,0,2,36461,task3,1499190,false,false,1402,image-keyboard-response,4
true,20,0,1,2,false,d,false,false,0.0-2.0-0.48-0.440-3.440,1,0,0,81,false,stim,true,0,850.0,0,0,2,36461,task3,1501546,false,false,1405,image-keyboard-response,5
true,20,1,1,1,true,z,false,true,0.0-2.0-0.49-0.441-3.441,1,0,0,90,false,stim,false,1,1954.0,0,1,0,36461,task3,1505007,false,false,1408,image-keyboard-response,6
true,20,2,1,2,true,d,false,true,0.0-2.0-0.49-0.442-3.442,1,0,0,68,false,stim,false,0,894.0,0,0,2,36461,task3,1507408,false,false,1411,image-keyboard-response,7
true,20,2,1,2,true,d,false,true,0.0-2.0-0.49-0.443-3.443,1,0,0,68,false,stim,false,0,750.0,0,0,2,36461,task3,1509664,false,false,1414,image-keyboard-response,8
true,20,2,1,2,true,d,false,true,0.0-2.0-0.49-0.444-3.444,1,0,0,68,false,stim,false,0,452.0,0,0,2,36461,task3,1511622,false,false,1417,image-keyboard-response,9
true,20,0,1,2,false,d,true,false,0.0-2.0-0.49-0.445-3.445,1,0,0,81,false,stim,false,1,1630.0,0,0,1,36461,task3,1514759,false,false,1420,image-keyboard-response,10
true,20,1,1,1,true,z,false,true,0.0-2.0-0.49-0.446-3.446,1,0,0,90,false,stim,false,1,689.0,0,1,0,36461,task3,1516954,false,false,1423,image-keyboard-response,11
true,20,1,1,1,true,z,false,true,0.0-2.0-0.49-0.447-3.447,1,0,0,90,false,stim,false,1,1438.0,0,1,0,36461,task3,1519898,false,false,1426,image-keyboard-response,12
true,20,0,1,2,false,d,true,false,0.0-2.0-0.49-0.448-3.448,1,0,0,81,false,stim,false,1,2154.0,0,0,1,36461,task3,1523558,false,false,1429,image-keyboard-response,13
true,20,1,1,2,false,d,false,false,0.0-2.0-0.49-0.449-3.449,1,0,0,90,false,stim,true,1,1032.0,0,0,1,36461,task3,1526095,false,false,1432,image-keyboard-response,14
true,20,2,1,2,true,d,false,true,0.0-2.0-0.50-0.450-3.450,1,0,0,68,false,stim,false,0,617.0,0,0,2,36461,task3,1528219,false,false,1435,image-keyboard-response,15
true,20,2,1,2,true,d,false,true,0.0-2.0-0.50-0.451-3.451,1,0,0,68,false,stim,false,0,496.00000000023283,0,0,2,36461,task3,1530221,false,false,1438,image-keyboard-response,16
true,20,2,1,2,true,d,false,true,0.0-2.0-0.50-0.452-3.452,1,0,0,68,false,stim,false,0,560.0,0,0,2,36461,task3,1532287,false,false,1441,image-keyboard-response,17
true,20,1,1,1,true,z,false,true,0.0-2.0-0.50-0.453-3.453,1,0,0,90,false,stim,false,1,745.0,0,1,0,36461,task3,1534538,false,false,1444,image-keyboard-response,18
true,20,1,1,1,true,z,false,true,0.0-2.0-0.50-0.454-3.454,1,0,0,90,false,stim,false,1,440.0,0,1,0,36461,task3,1536487,false,false,1447,image-keyboard-response,19
true,20,2,1,2,true,d,false,true,0.0-2.0-0.50-0.455-3.455,1,0,0,68,false,stim,false,1,1271.0,0,1,1,36461,task3,1539265,false,false,1450,image-keyboard-response,20
true,20,1,1,1,true,z,false,true,0.0-2.0-0.50-0.456-3.456,1,0,0,90,false,stim,false,1,862.9999999997672,0,1,0,36461,task3,1541633,false,false,1453,image-keyboard-response,21
true,20,2,1,2,true,d,false,true,0.0-2.0-0.50-0.457-3.457,1,0,0,68,false,stim,false,1,943.0,0,1,1,36461,task3,1544081,false,false,1456,image-keyboard-response,22
true,20,2,1,2,true,d,false,true,0.0-2.0-0.50-0.458-3.458,1,0,0,68,false,stim,false,1,415.0,0,1,1,36461,task3,1546004,false,false,1459,image-keyboard-response,23
true,21,1,2,1,true,z,false,true,0.0-2.0-0.51-0.459-3.459,1,1,0,90,true,stim,false,1,1101.0,0,1,0,36461,task3,1548613,false,false,1462,image-keyboard-response,1
true,21,1,2,1,true,z,false,true,0.0-2.0-0.51-0.460-3.460,1,1,0,90,false,stim,false,1,2007.0,0,1,0,36461,task3,1552127,false,false,1465,image-keyboard-response,2
true,21,1,2,1,true,z,false,true,0.0-2.0-0.51-0.461-3.461,1,1,0,90,false,stim,false,1,754.0,0,1,0,36461,task3,1554388,false,false,1468,image-keyboard-response,3
true,21,2,2,0,false,q,false,false,0.0-2.0-0.51-0.462-3.462,1,1,0,68,false,stim,true,2,440.0,0,0,2,36461,task3,1556335,false,false,1471,image-keyboard-response,4
true,21,2,2,2,true,d,false,true,0.0-2.0-0.51-0.463-3.463,1,1,0,68,false,stim,false,2,1328.0,0,1,1,36461,task3,1559168,false,false,1474,image-keyboard-response,5
true,21,2,2,2,true,d,false,true,0.0-2.0-0.51-0.464-3.464,1,1,0,68,false,stim,false,2,900.9999999997672,0,1,1,36461,task3,1561575,false,false,1477,image-keyboard-response,6
true,21,2,2,0,false,q,false,false,0.0-2.0-0.51-0.465-3.465,1,1,0,68,false,stim,true,2,650.0,0,0,2,36461,task3,1563732,false,false,1480,image-keyboard-response,7
true,21,2,2,0,false,q,false,false,0.0-2.0-0.51-0.466-3.466,1,1,0,68,false,stim,true,2,570.0,0,1,2,36461,task3,1565808,false,false,1483,image-keyboard-response,8
true,21,1,2,2,false,d,true,false,0.0-2.0-0.51-0.467-3.467,1,1,0,90,false,stim,false,2,640.0,0,0,1,36461,task3,1567954,false,false,1486,image-keyboard-response,9
true,21,2,2,2,true,d,false,true,0.0-2.0-0.52-0.468-3.468,1,1,0,68,false,stim,false,2,1069.9999999997672,0,0,1,36461,task3,1570532,false,false,1489,image-keyboard-response,10
true,21,2,2,2,true,d,false,true,0.0-2.0-0.52-0.469-3.469,1,1,0,68,false,stim,false,2,499.0,0,0,1,36461,task3,1572540,false,false,1492,image-keyboard-response,11
true,21,2,2,2,true,d,false,true,0.0-2.0-0.52-0.470-3.470,1,1,0,68,false,stim,false,2,670.0,0,0,1,36461,task3,1574717,false,false,1495,image-keyboard-response,12
true,22,0,1,0,true,q,false,true,0.0-2.0-0.52-0.471-3.471,0,0,1,81,true,stim,false,0,1390.0,0,1,2,36461,task3,1577614,false,false,1498,image-keyboard-response,1
true,22,1,1,2,false,d,false,false,0.0-2.0-0.52-0.472-3.472,0,0,1,90,false,stim,true,1,1146.0,0,0,0,36461,task3,1580276,false,false,1501,image-keyboard-response,2
true,22,2,1,0,false,q,true,false,0.0-2.0-0.52-0.473-3.473,0,0,1,68,false,stim,false,0,881.0,0,1,2,36461,task3,1582663,false,false,1504,image-keyboard-response,3
true,22,0,1,2,false,d,true,false,0.0-2.0-0.52-0.474-3.474,0,0,1,81,false,stim,false,1,1237.0,0,0,0,36461,task3,1585407,false,false,1507,image-keyboard-response,4
true,22,0,1,0,true,q,false,true,0.0-2.0-0.52-0.475-3.475,0,0,1,81,false,stim,false,0,1593.9999999997672,0,1,2,36461,task3,1588509,false,false,1510,image-keyboard-response,5
true,22,1,1,2,false,d,false,false,0.0-2.0-0.52-0.476-3.476,0,0,1,90,false,stim,true,1,1566.0,0,0,0,36461,task3,1591583,false,false,1513,image-keyboard-response,6
true,22,0,1,0,true,q,false,false,0.0-2.0-0.53-0.477-3.477,0,0,1,81,false,stim,false,0,1013.0,0,0,2,36461,task3,1594106,false,true,1516,image-keyboard-response,7
true,22,2,1,1,false,z,false,false,0.0-2.0-0.53-0.478-3.478,0,0,1,68,false,stim,true,2,1398.0,0,1,1,36461,task3,1597011,false,false,1519,image-keyboard-response,8
true,22,1,1,1,true,z,false,true,0.0-2.0-0.53-0.479-3.479,0,0,1,90,false,stim,false,2,1194.0,0,1,1,36461,task3,1599711,false,false,1522,image-keyboard-response,9
true,22,2,1,2,true,d,false,true,0.0-2.0-0.53-0.480-3.480,0,0,1,68,false,stim,false,1,1769.0,0,1,0,36461,task3,1602988,false,false,1525,image-keyboard-response,10
true,22,2,1,2,true,d,false,false,0.0-2.0-0.53-0.481-3.481,0,0,1,68,false,stim,false,1,2191.000000000233,0,1,0,36461,task3,1606685,false,true,1528,image-keyboard-response,11
true,23,1,2,1,true,z,false,false,0.0-2.0-0.53-0.482-3.482,1,1,0,90,true,stim,false,1,1279.0,0,1,1,36461,task3,1609471,false,true,1531,image-keyboard-response,1
true,23,2,2,2,true,d,false,true,0.0-2.0-0.53-0.483-3.483,1,1,0,68,false,stim,false,2,2153.0,0,1,0,36461,task3,1613130,false,false,1534,image-keyboard-response,2
true,23,0,2,1,false,z,false,false,0.0-2.0-0.53-0.484-3.484,1,1,0,81,false,stim,true,0,1432.0,0,0,2,36461,task3,1616069,false,false,1537,image-keyboard-response,3
true,23,1,2,1,true,z,false,true,0.0-2.0-0.53-0.485-3.485,1,1,0,90,false,stim,false,0,637.0,0,0,2,36461,task3,1618213,false,false,1540,image-keyboard-response,4
true,23,0,2,1,false,z,true,false,0.0-2.0-0.54-0.486-3.486,1,1,0,81,false,stim,false,1,2080.000000000233,0,1,1,36461,task3,1621802,false,false,1543,image-keyboard-response,5
true,23,1,2,1,true,z,false,false,0.0-2.0-0.54-0.487-3.487,1,1,0,90,false,stim,false,1,654.0,0,1,1,36461,task3,1623963,false,true,1546,image-keyboard-response,6
true,23,2,2,1,false,z,true,false,0.0-2.0-0.54-0.488-3.488,1,1,0,68,false,stim,false,1,449.0,0,1,1,36461,task3,1625918,false,false,1549,image-keyboard-response,7
true,23,2,2,2,true,d,false,true,0.0-2.0-0.54-0.489-3.489,1,1,0,68,false,stim,false,2,1417.0,0,1,0,36461,task3,1628842,false,false,1552,image-keyboard-response,8
true,23,1,2,1,true,z,false,true,0.0-2.0-0.54-0.490-3.490,1,1,0,90,false,stim,false,0,789.0000000002328,0,0,2,36461,task3,1631138,false,false,1555,image-keyboard-response,9
true,23,1,2,1,true,z,false,true,0.0-2.0-0.54-0.491-3.491,1,1,0,90,false,stim,false,0,774.0,0,0,2,36461,task3,1633419,false,false,1558,image-keyboard-response,10
true,23,1,2,1,true,z,false,true,0.0-2.0-0.54-0.492-3.492,1,1,0,90,false,stim,false,0,446.0,0,0,2,36461,task3,1635373,false,false,1561,image-keyboard-response,11
true,23,0,2,2,false,d,true,false,0.0-2.0-0.54-0.493-3.493,1,1,0,81,false,stim,false,2,837.0,0,1,0,36461,task3,1637717,false,false,1564,image-keyboard-response,12
true,23,2,2,2,true,d,false,true,0.0-2.0-0.54-0.494-3.494,1,1,0,68,false,stim,false,2,542.0,0,1,0,36461,task3,1639765,false,false,1567,image-keyboard-response,13
true,23,1,2,1,true,z,false,true,0.0-2.0-0.55-0.495-3.495,1,1,0,90,false,stim,false,1,1423.0,0,1,1,36461,task3,1642697,false,false,1570,image-keyboard-response,14
true,23,2,2,1,false,z,true,false,0.0-2.0-0.55-0.496-3.496,1,1,0,68,false,stim,false,0,1108.0000000002328,0,0,2,36461,task3,1645312,false,false,1573,image-keyboard-response,15
true,23,1,2,1,true,z,false,true,0.0-2.0-0.55-0.497-3.497,1,1,0,90,false,stim,false,1,719.0,0,1,1,36461,task3,1647538,false,false,1576,image-keyboard-response,16
true,23,1,2,1,true,z,false,true,0.0-2.0-0.55-0.498-3.498,1,1,0,90,false,stim,false,0,513.0,0,0,2,36461,task3,1649557,false,false,1579,image-keyboard-response,17
true,23,2,2,2,true,d,false,true,0.0-2.0-0.55-0.499-3.499,1,1,0,68,false,stim,false,2,1250.0,0,1,0,36461,task3,1652314,false,false,1582,image-keyboard-response,18
true,23,2,2,2,true,d,false,true,0.0-2.0-0.55-0.500-3.500,1,1,0,68,false,stim,false,2,1142.0,0,1,0,36461,task3,1654964,false,false,1585,image-keyboard-response,19
true,23,2,2,2,true,d,false,true,0.0-2.0-0.55-0.501-3.501,1,1,0,68,false,stim,false,2,597.0,0,1,0,36461,task3,1657067,false,false,1588,image-keyboard-response,20
true,23,1,2,1,true,z,false,true,0.0-2.0-0.55-0.502-3.502,1,1,0,90,false,stim,false,1,678.0,0,1,1,36461,task3,1659252,false,false,1591,image-keyboard-response,21
true,23,1,2,1,true,z,false,false,0.0-2.0-0.55-0.503-3.503,1,1,0,90,false,stim,false,0,716.0,0,0,2,36461,task3,1661475,false,true,1594,image-keyboard-response,22
true,23,1,2,1,true,z,false,false,0.0-2.0-0.56-0.504-3.504,1,1,0,90,false,stim,false,0,2078.0,0,0,2,36461,task3,1665062,false,true,1597,image-keyboard-response,23
true,23,2,2,2,true,d,false,false,0.0-2.0-0.56-0.505-3.505,1,1,0,68,false,stim,false,2,1316.0,0,1,0,36461,task3,1667884,false,true,1600,image-keyboard-response,24
true,23,1,2,1,true,z,false,true,0.0-2.0-0.56-0.506-3.506,1,1,0,90,false,stim,false,0,602.0,0,0,2,36461,task3,1670003,false,false,1603,image-keyboard-response,25
true,23,1,2,1,true,z,false,true,0.0-2.0-0.56-0.507-3.507,1,1,0,90,false,stim,false,1,1082.0,0,1,1,36461,task3,1672593,false,false,1606,image-keyboard-response,26
true,23,1,2,1,true,z,false,true,0.0-2.0-0.56-0.508-3.508,1,1,0,90,false,stim,false,1,1072.0,0,1,1,36461,task3,1675172,false,false,1609,image-keyboard-response,27
true,23,2,2,2,true,d,false,true,0.0-2.0-0.56-0.509-3.509,1,1,0,68,false,stim,false,2,2020.9999999997672,0,1,0,36461,task3,1678699,false,false,1612,image-keyboard-response,28
true,24,2,2,2,true,d,false,true,0.0-2.0-0.56-0.510-3.510,1,1,0,68,true,stim,false,2,1737.0,0,1,0,36461,task3,1681943,false,false,1615,image-keyboard-response,1
true,24,1,2,2,false,d,false,false,0.0-2.0-0.56-0.511-3.511,1,1,0,90,false,stim,true,1,1493.0,0,0,2,36461,task3,1684943,false,false,1618,image-keyboard-response,2
true,24,1,2,1,true,z,false,true,0.0-2.0-0.56-0.512-3.512,1,1,0,90,false,stim,false,1,587.0,0,1,1,36461,task3,1687037,false,false,1621,image-keyboard-response,3
true,24,2,2,2,true,d,false,true,0.0-2.0-0.57-0.513-3.513,1,1,0,68,false,stim,false,1,598.0,0,0,2,36461,task3,1689143,false,false,1624,image-keyboard-response,4
true,24,2,2,2,true,d,false,true,0.0-2.0-0.57-0.514-3.514,1,1,0,68,false,stim,false,2,1238.9999999997672,0,1,0,36461,task3,1691888,false,false,1627,image-keyboard-response,5
true,24,2,2,2,true,d,false,true,0.0-2.0-0.57-0.515-3.515,1,1,0,68,false,stim,false,1,581.0000000002328,0,0,2,36461,task3,1693976,false,false,1630,image-keyboard-response,6
true,24,1,2,1,true,z,false,true,0.0-2.0-0.57-0.516-3.516,1,1,0,90,false,stim,false,1,728.0,0,1,1,36461,task3,1696212,false,false,1633,image-keyboard-response,7
true,24,2,2,2,true,d,false,true,0.0-2.0-0.57-0.517-3.517,1,1,0,68,false,stim,false,2,1909.9999999997672,0,1,0,36461,task3,1699627,false,false,1636,image-keyboard-response,8
true,24,1,2,1,true,z,false,true,0.0-2.0-0.57-0.518-3.518,1,1,0,90,false,stim,false,1,645.0,0,1,1,36461,task3,1701779,false,false,1639,image-keyboard-response,9
true,24,2,2,2,true,d,false,true,0.0-2.0-0.57-0.519-3.519,1,1,0,68,false,stim,false,1,875.0,0,1,2,36461,task3,1704161,false,false,1642,image-keyboard-response,10
true,24,2,2,2,true,d,false,true,0.0-2.0-0.57-0.520-3.520,1,1,0,68,false,stim,false,2,1142.9999999997672,0,1,0,36461,task3,1706812,false,false,1645,image-keyboard-response,11
true,24,1,2,1,true,z,false,true,0.0-2.0-0.57-0.521-3.521,1,1,0,90,false,stim,false,1,568.0,0,0,1,36461,task3,1708885,false,false,1648,image-keyboard-response,12
true,24,2,2,2,true,d,false,true,0.0-2.0-0.58-0.522-3.522,1,1,0,68,false,stim,false,2,449.00000000023283,0,1,0,36461,task3,1710843,false,false,1651,image-keyboard-response,13
true,24,2,2,2,true,d,false,true,0.0-2.0-0.58-0.523-3.523,1,1,0,68,false,stim,false,2,448.0,0,1,0,36461,task3,1712799,false,false,1654,image-keyboard-response,14
true,25,2,2,0,false,q,true,false,0.0-2.0-0.58-0.524-3.524,1,0,1,68,true,stim,false,1,586.0,0,0,1,36461,task3,1714892,false,false,1657,image-keyboard-response,1
true,25,2,2,2,true,d,false,false,0.0-2.0-0.58-0.525-3.525,1,0,1,68,false,stim,false,2,813.0,0,1,0,36461,task3,1717211,false,true,1660,image-keyboard-response,2
true,25,2,2,2,true,d,false,true,0.0-2.0-0.58-0.526-3.526,1,0,1,68,false,stim,false,2,1459.0000000002328,0,1,2,36461,task3,1720179,false,false,1663,image-keyboard-response,3
true,25,2,2,2,true,d,false,true,0.0-2.0-0.58-0.527-3.527,1,0,1,68,false,stim,false,2,1017.0,0,1,2,36461,task3,1722703,false,false,1666,image-keyboard-response,4
true,25,1,2,0,false,q,false,false,0.0-2.0-0.58-0.528-3.528,1,0,1,90,false,stim,true,1,881.0,0,0,1,36461,task3,1725091,false,false,1669,image-keyboard-response,5
true,25,1,2,0,false,q,false,false,0.0-2.0-0.58-0.529-3.529,1,0,1,90,false,stim,true,1,628.0000000002328,0,1,1,36461,task3,1727227,false,false,1672,image-keyboard-response,6
true,25,2,2,2,true,d,false,true,0.0-2.0-0.58-0.530-3.530,1,0,1,68,false,stim,false,2,644.0,0,1,2,36461,task3,1729379,false,false,1675,image-keyboard-response,7
true,25,0,2,0,true,q,false,true,0.0-2.0-0.59-0.531-3.531,1,0,1,81,false,stim,false,1,1030.0,0,1,1,36461,task3,1731917,false,false,1678,image-keyboard-response,8
true,25,2,2,2,true,d,false,true,0.0-2.0-0.59-0.532-3.532,1,0,1,68,false,stim,false,2,1883.0,0,1,0,36461,task3,1735307,false,false,1681,image-keyboard-response,9
true,25,2,2,2,true,d,false,false,0.0-2.0-0.59-0.533-3.533,1,0,1,68,false,stim,false,2,598.0,0,1,0,36461,task3,1737414,false,true,1684,image-keyboard-response,10
true,26,0,0,2,false,d,true,false,0.0-2.0-0.59-0.534-3.534,1,1,1,81,true,stim,false,2,2670.0,0,1,2,36461,task3,1861906,false,false,1807,image-keyboard-response,1
true,26,0,0,2,false,d,true,false,0.0-2.0-0.59-0.535-3.535,1,1,1,81,false,stim,false,2,2797.000000000233,0,1,2,36461,task3,1866209,false,false,1810,image-keyboard-response,2
true,26,1,0,0,false,q,true,false,0.0-2.0-0.59-0.536-3.536,1,1,1,90,false,stim,false,0,2086.0,0,1,1,36461,task3,1869803,false,false,1813,image-keyboard-response,3
true,26,1,0,0,false,q,true,true,0.0-2.0-0.59-0.537-3.537,1,1,1,90,false,stim,false,0,830.0,0,1,1,36461,task3,1872140,false,true,1816,image-keyboard-response,4
true,26,2,0,2,true,d,false,true,0.0-2.0-0.59-0.538-3.538,1,1,1,68,false,stim,false,2,813.0,0,1,2,36461,task3,1874459,false,false,1819,image-keyboard-response,5
true,26,0,0,2,false,d,true,false,0.0-2.0-0.59-0.539-3.539,1,1,1,81,false,stim,false,2,968.0,0,1,0,36461,task3,1876934,false,false,1822,image-keyboard-response,6
true,26,1,0,2,false,d,true,false,0.0-2.0-0.60-0.540-3.540,1,1,1,90,false,stim,false,2,933.0,0,1,0,36461,task3,1879377,false,false,1825,image-keyboard-response,7
true,26,0,0,0,true,q,false,false,0.0-2.0-0.60-0.541-3.541,1,1,1,81,false,stim,false,0,1512.9999999997672,0,1,1,36461,task3,1882397,false,true,1828,image-keyboard-response,8
true,26,1,0,0,false,q,true,false,0.0-2.0-0.60-0.542-3.542,1,1,1,90,false,stim,false,0,525.0,0,1,1,36461,task3,1884429,false,false,1831,image-keyboard-response,9
true,26,2,0,2,true,d,false,true,0.0-2.0-0.60-0.543-3.543,1,1,1,68,false,stim,false,2,470.0,0,0,2,36461,task3,1886407,false,false,1834,image-keyboard-response,10
true,26,1,0,0,false,q,true,false,0.0-2.0-0.60-0.544-3.544,1,1,1,90,false,stim,false,0,1004.0,0,1,1,36461,task3,1888919,false,false,1837,image-keyboard-response,11
true,26,1,0,2,false,d,true,false,0.0-2.0-0.60-0.545-3.545,1,1,1,90,false,stim,false,2,1653.0,0,0,0,36461,task3,1892079,false,false,1840,image-keyboard-response,12
true,26,2,0,2,true,d,false,true,0.0-2.0-0.60-0.546-3.546,1,1,1,68,false,stim,false,2,591.9999999997672,0,0,2,36461,task3,1894177,false,false,1843,image-keyboard-response,13
true,26,2,0,2,true,d,false,true,0.0-2.0-0.60-0.547-3.547,1,1,1,68,false,stim,false,2,564.0000000002328,0,0,2,36461,task3,1896249,false,false,1846,image-keyboard-response,14
true,27,1,1,0,false,q,true,false,0.0-2.0-0.60-0.548-3.548,0,1,0,90,true,stim,false,2,1739.0,0,0,0,36461,task3,1899496,false,false,1849,image-keyboard-response,1
true,27,2,1,0,false,q,true,false,0.0-2.0-0.61-0.549-3.549,0,1,0,68,false,stim,false,0,1261.0,0,1,1,36461,task3,1902265,false,false,1852,image-keyboard-response,2
true,27,2,1,1,false,z,false,false,0.0-2.0-0.61-0.550-3.550,0,1,0,68,false,stim,true,2,647.0,0,0,2,36461,task3,1904419,false,false,1855,image-keyboard-response,3
true,27,2,1,1,false,z,false,true,0.0-2.0-0.61-0.551-3.551,0,1,0,68,false,stim,true,2,745.0000000002328,0,0,2,36461,task3,1906673,false,true,1858,image-keyboard-response,4
true,27,1,1,0,false,q,true,false,0.0-2.0-0.61-0.552-3.552,0,1,0,90,false,stim,false,2,1908.0,0,0,0,36461,task3,1910087,false,false,1861,image-keyboard-response,5
true,27,2,1,1,false,z,false,false,0.0-2.0-0.61-0.553-3.553,0,1,0,68,false,stim,true,2,634.0,0,0,2,36461,task3,1912227,false,false,1864,image-keyboard-response,6
true,27,1,1,0,false,q,true,false,0.0-2.0-0.61-0.554-3.554,0,1,0,90,false,stim,false,2,1809.0,0,0,0,36461,task3,1915544,false,false,1867,image-keyboard-response,7
true,27,0,1,0,true,q,false,true,0.0-2.0-0.61-0.555-3.555,0,1,0,81,false,stim,false,0,898.0,0,1,1,36461,task3,1917948,false,false,1870,image-keyboard-response,8
true,27,0,1,0,true,q,false,true,0.0-2.0-0.61-0.556-3.556,0,1,0,81,false,stim,false,0,948.0000000002328,0,1,1,36461,task3,1920403,false,false,1873,image-keyboard-response,9
true,27,1,1,0,false,q,true,false,0.0-2.0-0.61-0.557-3.557,0,1,0,90,false,stim,false,2,959.0,0,0,0,36461,task3,1922870,false,false,1876,image-keyboard-response,10
true,27,2,1,0,false,q,false,false,0.0-2.0-0.62-0.558-3.558,0,1,0,68,false,stim,true,2,1115.0,0,0,0,36461,task3,1925492,false,false,1879,image-keyboard-response,11
true,27,2,1,1,false,z,false,false,0.0-2.0-0.62-0.559-3.559,0,1,0,68,false,stim,true,2,697.0,0,0,2,36461,task3,1927696,false,false,1882,image-keyboard-response,12
true,27,2,1,1,false,z,false,false,0.0-2.0-0.62-0.560-3.560,0,1,0,68,false,stim,true,2,516.9999999997672,0,0,2,36461,task3,1929719,false,false,1885,image-keyboard-response,13
true,27,0,1,0,true,q,false,true,0.0-2.0-0.62-0.561-3.561,0,1,0,81,false,stim,false,2,1946.0,0,0,0,36461,task3,1933171,false,false,1888,image-keyboard-response,14
true,27,0,1,0,true,q,false,true,0.0-2.0-0.62-0.562-3.562,0,1,0,81,false,stim,false,0,724.0,0,1,1,36461,task3,1935403,false,false,1891,image-keyboard-response,15
true,27,0,1,0,true,q,false,true,0.0-2.0-0.62-0.563-3.563,0,1,0,81,false,stim,false,2,569.0,0,0,0,36461,task3,1937479,false,false,1894,image-keyboard-response,16
true,27,1,1,1,true,z,false,true,0.0-2.0-0.62-0.564-3.564,0,1,0,90,false,stim,false,2,1045.0,0,0,2,36461,task3,1940031,false,false,1897,image-keyboard-response,17
true,27,0,1,0,true,q,false,true,0.0-2.0-0.62-0.565-3.565,0,1,0,81,false,stim,false,0,655.0000000002328,0,1,1,36461,task3,1942193,false,false,1900,image-keyboard-response,18
true,27,0,1,0,true,q,false,true,0.0-2.0-0.62-0.566-3.566,0,1,0,81,false,stim,false,0,1178.0,0,1,1,36461,task3,1944888,false,false,1903,image-keyboard-response,19
true,27,0,1,0,true,q,false,false,0.0-2.0-0.63-0.567-3.567,0,1,0,81,false,stim,false,0,466.0,0,1,1,36461,task3,1946862,false,true,1906,image-keyboard-response,20
true,27,0,1,0,true,q,false,true,0.0-2.0-0.63-0.568-3.568,0,1,0,81,false,stim,false,2,470.0,0,0,0,36461,task3,1948839,false,false,1909,image-keyboard-response,21
true,27,0,1,0,true,q,false,false,0.0-2.0-0.63-0.569-3.569,0,1,0,81,false,stim,false,0,902.0,0,1,1,36461,task3,1951248,false,true,1912,image-keyboard-response,22
true,27,1,1,1,true,z,false,false,0.0-2.0-0.63-0.570-3.570,0,1,0,90,false,stim,false,2,638.0,0,0,2,36461,task3,1953393,false,true,1915,image-keyboard-response,23
true,27,1,1,1,true,z,false,true,0.0-2.0-0.63-0.571-3.571,0,1,0,90,false,stim,false,2,1010.0,0,1,2,36461,task3,1955909,false,false,1918,image-keyboard-response,24
true,27,1,1,1,true,z,false,true,0.0-2.0-0.63-0.572-3.572,0,1,0,90,false,stim,false,2,603.0000000002328,0,1,2,36461,task3,1958020,false,false,1921,image-keyboard-response,25
true,27,0,1,0,true,q,false,true,0.0-2.0-0.63-0.573-3.573,0,1,0,81,false,stim,false,2,877.0000000002328,0,0,0,36461,task3,1960405,false,false,1924,image-keyboard-response,26
true,27,0,1,0,true,q,false,true,0.0-2.0-0.63-0.574-3.574,0,1,0,81,false,stim,false,2,787.0,0,0,0,36461,task3,1962699,false,false,1927,image-keyboard-response,27
true,27,0,1,0,true,q,false,true,0.0-2.0-0.63-0.575-3.575,0,1,0,81,false,stim,false,0,882.0000000002328,0,1,1,36461,task3,1965088,false,false,1930,image-keyboard-response,28
true,28,0,2,0,true,q,false,true,0.0-2.0-0.64-0.576-3.576,0,1,1,81,true,stim,false,0,530.9999999997672,0,1,1,36461,task3,1967129,false,false,1933,image-keyboard-response,1
true,28,1,2,1,true,z,false,true,0.0-2.0-0.64-0.577-3.577,0,1,1,90,false,stim,false,1,664.0,0,1,2,36461,task3,1969300,false,false,1936,image-keyboard-response,2
true,28,0,2,0,true,q,false,true,0.0-2.0-0.64-0.578-3.578,0,1,1,81,false,stim,false,0,1188.0,0,1,1,36461,task3,1971994,false,false,1939,image-keyboard-response,3
true,28,1,2,1,true,z,false,true,0.0-2.0-0.64-0.579-3.579,0,1,1,90,false,stim,false,1,637.0,0,1,2,36461,task3,1974140,false,false,1942,image-keyboard-response,4
true,28,1,2,1,true,z,false,true,0.0-2.0-0.64-0.580-3.580,0,1,1,90,false,stim,false,1,714.0,0,1,2,36461,task3,1976362,false,false,1945,image-keyboard-response,5
true,28,0,2,1,false,z,false,false,0.0-2.0-0.64-0.581-3.581,0,1,1,81,false,stim,true,0,697.0,0,0,0,36461,task3,1978565,false,false,1948,image-keyboard-response,6
true,28,0,2,1,false,z,false,false,0.0-2.0-0.64-0.582-3.582,0,1,1,81,false,stim,true,0,452.0,0,0,0,36461,task3,1980524,false,false,1951,image-keyboard-response,7
true,28,0,2,0,true,q,false,true,0.0-2.0-0.64-0.583-3.583,0,1,1,81,false,stim,false,0,1351.0,0,1,1,36461,task3,1983385,false,false,1954,image-keyboard-response,8
true,28,1,2,1,true,z,false,true,0.0-2.0-0.64-0.584-3.584,0,1,1,90,false,stim,false,0,809.0,0,0,0,36461,task3,1985700,false,false,1957,image-keyboard-response,9
true,28,0,2,0,true,q,false,true,0.0-2.0-0.65-0.585-3.585,0,1,1,81,false,stim,false,0,980.0,0,1,1,36461,task3,1988188,false,false,1960,image-keyboard-response,10
true,28,1,2,1,true,z,false,true,0.0-2.0-0.65-0.586-3.586,0,1,1,90,false,stim,false,1,610.0,0,1,2,36461,task3,1990305,false,false,1963,image-keyboard-response,11
true,28,1,2,1,true,z,false,true,0.0-2.0-0.65-0.587-3.587,0,1,1,90,false,stim,false,0,1354.0,0,1,0,36461,task3,1993167,false,false,1966,image-keyboard-response,12
true,28,0,2,0,true,q,false,true,0.0-2.0-0.65-0.588-3.588,0,1,1,81,false,stim,false,0,400.0,0,0,1,36461,task3,1995074,false,false,1969,image-keyboard-response,13
true,28,1,2,1,true,z,false,true,0.0-2.0-0.65-0.589-3.589,0,1,1,90,false,stim,false,0,543.0,0,1,0,36461,task3,1997124,false,false,1972,image-keyboard-response,14
true,28,1,2,1,true,z,false,true,0.0-2.0-0.65-0.590-3.590,0,1,1,90,false,stim,false,1,762.0,0,1,2,36461,task3,1999394,false,false,1975,image-keyboard-response,15
true,29,0,2,2,false,d,false,false,0.0-2.0-0.65-0.591-3.591,1,0,1,81,true,stim,true,0,680.0,0,0,1,36461,task3,2001581,false,false,1978,image-keyboard-response,1
true,29,1,2,1,true,z,false,true,0.0-2.0-0.65-0.592-3.592,1,0,1,90,false,stim,false,1,2033.0,0,1,0,36461,task3,2005123,false,false,1981,image-keyboard-response,2
true,29,1,2,1,true,z,false,true,0.0-2.0-0.65-0.593-3.593,1,0,1,90,false,stim,false,1,1388.0,0,1,2,36461,task3,2008019,false,false,1984,image-keyboard-response,3
true,29,1,2,1,true,z,false,true,0.0-2.0-0.66-0.594-3.594,1,0,1,90,false,stim,false,1,870.0000000002328,0,1,2,36461,task3,2010397,false,false,1987,image-keyboard-response,4
true,29,0,2,2,false,d,false,true,0.0-2.0-0.66-0.595-3.595,1,0,1,81,false,stim,true,0,1616.0,0,0,1,36461,task3,2013520,false,true,1990,image-keyboard-response,5
true,29,1,2,2,false,d,true,true,0.0-2.0-0.66-0.596-3.596,1,0,1,90,false,stim,false,0,1666.0,0,0,1,36461,task3,2016694,false,true,1993,image-keyboard-response,6
true,29,1,2,1,true,z,false,true,0.0-2.0-0.66-0.597-3.597,1,0,1,90,false,stim,false,1,1269.0,0,1,2,36461,task3,2019468,false,false,1996,image-keyboard-response,7
true,29,1,2,1,true,z,false,true,0.0-2.0-0.66-0.598-3.598,1,0,1,90,false,stim,false,1,1161.9999999997672,0,1,0,36461,task3,2022136,false,false,1999,image-keyboard-response,8
true,29,1,2,1,true,z,false,true,0.0-2.0-0.66-0.599-3.599,1,0,1,90,false,stim,false,1,1342.9999999997672,0,1,0,36461,task3,2024999,false,false,2002,image-keyboard-response,9
true,29,1,2,1,true,z,false,false,0.0-2.0-0.66-0.600-3.600,1,0,1,90,false,stim,false,1,473.0,0,1,0,36461,task3,2026982,false,true,2005,image-keyboard-response,10
true,29,1,2,1,true,z,false,true,0.0-2.0-0.66-0.601-3.601,1,0,1,90,false,stim,false,1,700.0,0,1,2,36461,task3,2029190,false,false,2008,image-keyboard-response,11
true,29,0,2,2,false,d,false,false,0.0-2.0-0.66-0.602-3.602,1,0,1,81,false,stim,true,0,687.0,0,0,1,36461,task3,2031384,false,false,2011,image-keyboard-response,12
true,29,1,2,1,true,z,false,true,0.0-2.0-0.67-0.603-3.603,1,0,1,90,false,stim,false,1,644.0,0,1,2,36461,task3,2033537,false,false,2014,image-keyboard-response,13
true,29,1,2,2,false,d,true,false,0.0-2.0-0.67-0.604-3.604,1,0,1,90,false,stim,false,0,382.00000000023283,0,0,1,36461,task3,2035427,false,false,2017,image-keyboard-response,14
true,29,1,2,1,true,z,false,true,0.0-2.0-0.67-0.605-3.605,1,0,1,90,false,stim,false,1,2248.0,0,1,2,36461,task3,2039182,false,false,2020,image-keyboard-response,15
true,29,1,2,2,false,d,true,false,0.0-2.0-0.67-0.606-3.606,1,0,1,90,false,stim,false,0,434.0,0,0,1,36461,task3,2041123,false,false,2023,image-keyboard-response,16
true,29,1,2,1,true,z,false,true,0.0-2.0-0.67-0.607-3.607,1,0,1,90,false,stim,false,1,1307.0000000002328,0,1,2,36461,task3,2043937,false,false,2026,image-keyboard-response,17
true,29,1,2,1,true,z,false,true,0.0-2.0-0.67-0.608-3.608,1,0,1,90,false,stim,false,1,1341.0,0,1,0,36461,task3,2046785,false,false,2029,image-keyboard-response,18
true,29,1,2,1,true,z,false,true,0.0-2.0-0.67-0.609-3.609,1,0,1,90,false,stim,false,1,1817.0,0,1,0,36461,task3,2050109,false,false,2032,image-keyboard-response,19
true,29,0,2,2,false,d,false,false,0.0-2.0-0.67-0.610-3.610,1,0,1,81,false,stim,true,0,448.99999999953434,0,0,1,36461,task3,2052065,false,false,2035,image-keyboard-response,20
true,29,1,2,1,true,z,false,true,0.0-2.0-0.67-0.611-3.611,1,0,1,90,false,stim,false,1,846.0,0,1,0,36461,task3,2054421,false,false,2038,image-keyboard-response,21
true,29,1,2,1,true,z,false,true,0.0-2.0-0.68-0.612-3.612,1,0,1,90,false,stim,false,1,481.00000000023283,0,1,0,36461,task3,2056410,false,false,2041,image-keyboard-response,22
true,29,1,2,1,true,z,false,true,0.0-2.0-0.68-0.613-3.613,1,0,1,90,false,stim,false,1,808.0,0,0,2,36461,task3,2058726,false,false,2044,image-keyboard-response,23
true,29,0,2,2,false,d,false,true,0.0-2.0-0.68-0.614-3.614,1,0,1,81,false,stim,true,0,643.9999999997672,0,0,1,36461,task3,2060877,false,true,2047,image-keyboard-response,24
