answered,blockNum,choice,condition,corResp,correct,correct_response,explo,fb,internal_node_id,isStable_1,isStable_2,isStable_3,key_press,newBlock,part,persev,persevResp,rt,sessNum,stableAS,stimulus,subject,task,time_elapsed,training,trap,trial_index,trial_type,trialsInBlock
true,1,1,0,0,false,q,true,false,0.0-2.0-0.0-0.0-3.0,0,0,0,90,true,stim,false,-1,768.0,2,0,2,36461,task1,113171,false,false,79,image-keyboard-response,1
true,1,0,0,2,false,d,true,true,0.0-2.0-0.0-0.1-3.1,0,0,0,81,false,stim,false,-1,558.0000000000146,2,0,0,36461,task1,115235,false,true,82,image-keyboard-response,2
true,1,1,0,0,false,q,true,false,0.0-2.0-0.0-0.2-3.2,0,0,0,90,false,stim,false,-1,668.0000000000146,2,0,2,36461,task1,117407,false,false,85,image-keyboard-response,3
true,1,0,0,2,false,d,true,false,0.0-2.0-0.0-0.3-3.3,0,0,0,81,false,stim,false,-1,740.0,2,0,0,36461,task1,119652,false,false,88,image-keyboard-response,4
true,1,0,0,2,false,d,true,false,0.0-2.0-0.0-0.4-3.4,0,0,0,81,false,stim,false,-1,656.9999999999854,2,0,0,36461,task1,121814,false,false,91,image-keyboard-response,5
true,1,1,0,0,false,q,true,false,0.0-2.0-0.0-0.5-3.5,0,0,0,90,false,stim,false,-1,1281.0,2,0,1,36461,task1,124600,false,false,94,image-keyboard-response,6
true,1,2,0,0,false,q,true,false,0.0-2.0-0.0-0.6-3.6,0,0,0,68,false,stim,false,-1,569.0,2,0,1,36461,task1,126674,false,false,97,image-keyboard-response,7
true,1,0,0,0,true,q,false,true,0.0-2.0-0.0-0.7-3.7,0,0,0,81,false,stim,false,-1,1319.0,2,0,2,36461,task1,129500,false,false,100,image-keyboard-response,8
true,1,0,0,0,true,q,false,true,0.0-2.0-0.0-0.8-3.8,0,0,0,81,false,stim,false,-1,853.0,2,0,1,36461,task1,131859,false,false,103,image-keyboard-response,9
true,1,0,0,2,false,d,true,true,0.0-2.0-0.1-0.9-3.9,0,0,0,81,false,stim,false,-1,437.0,2,0,0,36461,task1,133801,false,true,106,image-keyboard-response,10
true,1,0,0,2,false,d,true,false,0.0-2.0-0.1-0.10-3.10,0,0,0,81,false,stim,false,-1,346.0,2,0,0,36461,task1,135652,false,false,109,image-keyboard-response,11
true,1,0,0,0,true,q,false,true,0.0-2.0-0.1-0.11-3.11,0,0,0,81,false,stim,false,-1,428.0,2,0,2,36461,task1,137586,false,false,112,image-keyboard-response,12
true,1,0,0,2,false,d,true,false,0.0-2.0-0.1-0.12-3.12,0,0,0,81,false,stim,false,-1,595.0,2,0,0,36461,task1,139686,false,false,115,image-keyboard-response,13
true,1,0,0,0,true,q,false,true,0.0-2.0-0.1-0.13-3.13,0,0,0,81,false,stim,false,-1,547.0,2,0,2,36461,task1,141739,false,false,118,image-keyboard-response,14
true,1,0,0,0,true,q,false,true,0.0-2.0-0.1-0.14-3.14,0,0,0,81,false,stim,false,-1,420.0,2,0,2,36461,task1,143664,false,false,121,image-keyboard-response,15
true,1,0,0,0,true,q,false,false,0.0-2.0-0.1-0.15-3.15,0,0,0,81,false,stim,false,-1,529.0,2,0,1,36461,task1,145697,false,true,124,image-keyboard-response,16
true,1,0,0,0,true,q,false,true,0.0-2.0-0.1-0.16-3.16,0,0,0,81,false,stim,false,-1,442.0,2,0,1,36461,task1,147645,false,false,127,image-keyboard-response,17
true,1,0,0,0,true,q,false,true,0.0-2.0-0.1-0.17-3.17,0,0,0,81,false,stim,false,-1,541.0,2,0,1,36461,task1,149690,false,false,130,image-keyboard-response,18
true,1,0,0,0,true,q,false,true,0.0-2.0-0.2-0.18-3.18,0,0,0,81,false,stim,false,-1,381.0,2,0,1,36461,task1,151576,false,false,133,image-keyboard-response,19
true,1,0,0,0,true,q,false,true,0.0-2.0-0.2-0.19-3.19,0,0,0,81,false,stim,false,-1,590.0,2,0,1,36461,task1,153670,false,false,136,image-keyboard-response,20
true,1,0,0,0,true,q,false,true,0.0-2.0-0.2-0.20-3.20,0,0,0,81,false,stim,false,-1,302.0,2,0,2,36461,task1,155477,false,false,139,image-keyboard-response,21
true,1,0,0,0,true,q,false,true,0.0-2.0-0.2-0.21-3.21,0,0,0,81,false,stim,false,-1,372.9999999999709,2,0,1,36461,task1,157354,false,false,142,image-keyboard-response,22
true,1,0,0,2,false,d,true,false,0.0-2.0-0.2-0.22-3.22,0,0,0,81,false,stim,false,-1,557.0,2,0,0,36461,task1,159416,false,false,145,image-keyboard-response,23
true,1,0,0,0,true,q,false,true,0.0-2.0-0.2-0.23-3.23,0,0,0,81,false,stim,false,-1,583.0,2,0,2,36461,task1,161502,false,false,148,image-keyboard-response,24
true,1,1,0,2,false,d,true,false,0.0-2.0-0.2-0.24-3.24,0,0,0,90,false,stim,false,-1,536.0,2,0,0,36461,task1,163542,false,false,151,image-keyboard-response,25
true,1,0,0,0,true,q,false,true,0.0-2.0-0.2-0.25-3.25,0,0,0,81,false,stim,false,-1,521.0,2,0,2,36461,task1,165569,false,false,154,image-keyboard-response,26
true,2,2,1,1,false,z,false,false,0.0-2.0-0.2-0.26-3.26,0,0,0,68,true,stim,true,2,730.0,2,0,0,36461,task1,167805,false,false,157,image-keyboard-response,1
true,2,1,1,1,true,z,false,true,0.0-2.0-0.3-0.27-3.27,0,0,0,90,false,stim,false,2,600.0,2,0,0,36461,task1,169910,false,false,160,image-keyboard-response,2
true,2,0,1,1,false,z,false,false,0.0-2.0-0.3-0.28-3.28,0,0,0,81,false,stim,true,0,941.0,2,0,2,36461,task1,172356,false,false,163,image-keyboard-response,3
true,2,1,1,1,true,z,false,true,0.0-2.0-0.3-0.29-3.29,0,0,0,90,false,stim,false,2,390.9999999999709,2,0,0,36461,task1,174252,false,false,166,image-keyboard-response,4
true,2,0,1,2,false,d,false,false,0.0-2.0-0.3-0.30-3.30,0,0,0,81,false,stim,true,0,548.0,2,0,1,36461,task1,176305,false,false,169,image-keyboard-response,5
true,2,0,1,2,false,d,false,false,0.0-2.0-0.3-0.31-3.31,0,0,0,81,false,stim,true,0,404.0,2,0,1,36461,task1,178214,false,false,172,image-keyboard-response,6
true,2,1,1,1,true,z,false,true,0.0-2.0-0.3-0.32-3.32,0,0,0,90,false,stim,false,0,656.0,2,0,2,36461,task1,180375,false,false,175,image-keyboard-response,7
true,2,1,1,2,false,d,true,false,0.0-2.0-0.3-0.33-3.33,0,0,0,90,false,stim,false,0,891.0,2,0,1,36461,task1,182770,false,false,178,image-keyboard-response,8
true,2,1,1,1,true,z,false,true,0.0-2.0-0.3-0.34-3.34,0,0,0,90,false,stim,false,0,649.0,2,0,2,36461,task1,184925,false,false,181,image-keyboard-response,9
true,2,0,1,1,false,z,true,false,0.0-2.0-0.3-0.35-3.35,0,0,0,81,false,stim,false,2,1476.0,2,0,0,36461,task1,187907,false,false,184,image-keyboard-response,10
true,2,1,1,1,true,z,false,true,0.0-2.0-0.4-0.36-3.36,0,0,0,90,false,stim,false,2,418.0000000000291,2,0,0,36461,task1,189830,false,false,187,image-keyboard-response,11
true,2,2,1,2,true,d,false,true,0.0-2.0-0.4-0.37-3.37,0,0,0,68,false,stim,false,0,678.0,2,0,1,36461,task1,192013,false,false,190,image-keyboard-response,12
true,2,1,1,1,true,z,false,false,0.0-2.0-0.4-0.38-3.38,0,0,0,90,false,stim,false,0,746.0,2,0,2,36461,task1,194264,false,true,193,image-keyboard-response,13
true,2,1,1,1,true,z,false,true,0.0-2.0-0.4-0.39-3.39,0,0,0,90,false,stim,false,0,639.0,2,0,2,36461,task1,196407,false,false,196,image-keyboard-response,14
true,2,1,1,1,true,z,false,true,0.0-2.0-0.4-0.40-3.40,0,0,0,90,false,stim,false,2,774.0,2,0,0,36461,task1,198685,false,false,199,image-keyboard-response,15
true,2,2,1,2,true,d,false,true,0.0-2.0-0.4-0.41-3.41,0,0,0,68,false,stim,false,0,564.0,2,0,1,36461,task1,200756,false,false,202,image-keyboard-response,16
true,2,2,1,2,true,d,false,true,0.0-2.0-0.4-0.42-3.42,0,0,0,68,false,stim,false,0,543.0,2,0,1,36461,task1,202805,false,false,205,image-keyboard-response,17
true,2,1,1,1,true,z,false,true,0.0-2.0-0.4-0.43-3.43,0,0,0,90,false,stim,false,2,370.0,2,0,0,36461,task1,204680,false,false,208,image-keyboard-response,18
true,2,1,1,1,true,z,false,false,0.0-2.0-0.4-0.44-3.44,0,0,0,90,false,stim,false,0,600.0,2,0,2,36461,task1,206785,false,true,211,image-keyboard-response,19
true,2,1,1,2,false,d,true,false,0.0-2.0-0.5-0.45-3.45,0,0,0,90,false,stim,false,0,526.0,2,0,1,36461,task1,208817,false,false,214,image-keyboard-response,20
true,2,1,1,1,true,z,false,true,0.0-2.0-0.5-0.46-3.46,0,0,0,90,false,stim,false,2,639.0,2,0,0,36461,task1,210961,false,false,217,image-keyboard-response,21
true,2,1,1,1,true,z,false,true,0.0-2.0-0.5-0.47-3.47,0,0,0,90,false,stim,false,0,1058.0,2,0,2,36461,task1,213524,false,false,220,image-keyboard-response,22
true,2,1,1,1,true,z,false,true,0.0-2.0-0.5-0.48-3.48,0,0,0,90,false,stim,false,2,762.0,2,0,0,36461,task1,215790,false,false,223,image-keyboard-response,23
true,2,1,1,1,true,z,false,false,0.0-2.0-0.5-0.49-3.49,0,0,0,90,false,stim,false,0,1280.0,2,0,2,36461,task1,218573,false,true,226,image-keyboard-response,24
true,2,1,1,1,true,z,false,true,0.0-2.0-0.5-0.50-3.50,0,0,0,90,false,stim,false,0,1235.999999999971,2,0,2,36461,task1,221314,false,false,229,image-keyboard-response,25
true,2,1,1,1,true,z,false,true,0.0-2.0-0.5-0.51-3.51,0,0,0,90,false,stim,false,2,474.0,2,0,0,36461,task1,223294,false,false,232,image-keyboard-response,26
true,2,2,1,2,true,d,false,false,0.0-2.0-0.5-0.52-3.52,0,0,0,68,false,stim,false,0,811.0,2,0,1,36461,task1,225610,false,true,235,image-keyboard-response,27
true,2,2,1,2,true,d,false,true,0.0-2.0-0.5-0.53-3.53,0,0,0,68,false,stim,false,0,538.0,2,0,1,36461,task1,227653,false,false,238,image-keyboard-response,28
true,2,1,1,1,true,z,false,true,0.0-2.0-0.6-0.54-3.54,0,0,0,90,false,stim,false,2,609.0,2,0,0,36461,task1,229765,false,false,241,image-keyboard-response,29
true,2,1,1,2,false,d,true,false,0.0-2.0-0.6-0.55-3.55,0,0,0,90,false,stim,false,0,499.0000000000291,2,0,1,36461,task1,231769,false,false,244,image-keyboard-response,30
true,2,1,1,1,true,z,false,true,0.0-2.0-0.6-0.56-3.56,0,0,0,90,false,stim,false,0,1003.0,2,0,2,36461,task1,234277,false,false,247,image-keyboard-response,31
true,2,1,1,1,true,z,false,false,0.0-2.0-0.6-0.57-3.57,0,0,0,90,false,stim,false,2,683.0000000000291,2,0,0,36461,task1,236465,false,true,250,image-keyboard-response,32
true,2,1,1,1,true,z,false,true,0.0-2.0-0.6-0.58-3.58,0,0,0,90,false,stim,false,0,1017.0,2,0,2,36461,task1,238986,false,false,253,image-keyboard-response,33
true,2,2,1,2,true,d,false,true,0.0-2.0-0.6-0.59-3.59,0,0,0,68,false,stim,false,0,773.0,2,0,1,36461,task1,241264,false,false,256,image-keyboard-response,34
true,2,1,1,1,true,z,false,true,0.0-2.0-0.6-0.60-3.60,0,0,0,90,false,stim,false,2,960.9999999999709,2,0,0,36461,task1,243730,false,false,259,image-keyboard-response,35
true,2,1,1,2,false,d,true,false,0.0-2.0-0.6-0.61-3.61,0,0,0,90,false,stim,false,0,739.0,2,0,1,36461,task1,245973,false,false,262,image-keyboard-response,36
true,2,1,1,1,true,z,false,true,0.0-2.0-0.6-0.62-3.62,0,0,0,90,false,stim,false,0,1004.0,2,0,2,36461,task1,248481,false,false,265,image-keyboard-response,37
true,2,1,1,1,true,z,false,true,0.0-2.0-0.7-0.63-3.63,0,0,0,90,false,stim,false,2,1565.999999999971,2,0,0,36461,task1,251552,false,false,268,image-keyboard-response,38
true,2,1,1,1,true,z,false,false,0.0-2.0-0.7-0.64-3.64,0,0,0,90,false,stim,false,0,1251.000000000029,2,0,2,36461,task1,254309,false,true,271,image-keyboard-response,39
true,2,1,1,1,true,z,false,false,0.0-2.0-0.7-0.65-3.65,0,0,0,90,false,stim,false,2,613.0,2,0,0,36461,task1,256426,false,true,274,image-keyboard-response,40
true,2,1,1,1,true,z,false,true,0.0-2.0-0.7-0.66-3.66,0,0,0,90,false,stim,false,0,502.0,2,0,2,36461,task1,258434,false,false,277,image-keyboard-response,41
true,2,2,1,2,true,d,false,false,0.0-2.0-0.7-0.67-3.67,0,0,0,68,false,stim,false,0,549.0,2,0,1,36461,task1,260488,false,true,280,image-keyboard-response,42
true,3,1,1,0,false,q,false,false,0.0-2.0-0.7-0.68-3.68,0,0,0,90,true,stim,true,1,552.0,2,0,2,36461,task1,262544,false,false,283,image-keyboard-response,1
true,3,1,1,0,false,q,false,false,0.0-2.0-0.7-0.69-3.69,0,0,0,90,false,stim,true,1,603.9999999999418,2,0,0,36461,task1,264653,false,false,286,image-keyboard-response,2
true,3,2,1,1,false,z,false,false,0.0-2.0-0.7-0.70-3.70,0,0,0,68,false,stim,true,2,668.0,2,0,1,36461,task1,266826,false,false,289,image-keyboard-response,3
true,3,2,1,1,false,z,false,false,0.0-2.0-0.7-0.71-3.71,0,0,0,68,false,stim,true,2,1152.0,2,0,1,36461,task1,269483,false,false,292,image-keyboard-response,4
true,3,0,1,1,false,z,true,false,0.0-2.0-0.8-0.72-3.72,0,0,0,81,false,stim,false,2,502.0,2,0,1,36461,task1,271491,false,false,295,image-keyboard-response,5
true,3,1,1,0,false,q,false,false,0.0-2.0-0.8-0.73-3.73,0,0,0,90,false,stim,true,1,803.0,2,0,2,36461,task1,273800,false,false,298,image-keyboard-response,6
true,3,1,1,0,false,q,false,false,0.0-2.0-0.8-0.74-3.74,0,0,0,90,false,stim,true,1,540.0,2,0,0,36461,task1,275846,false,false,301,image-keyboard-response,7
true,3,1,1,0,false,q,false,false,0.0-2.0-0.8-0.75-3.75,0,0,0,90,false,stim,true,1,392.0,2,0,0,36461,task1,277743,false,false,304,image-keyboard-response,8
true,3,0,1,0,true,q,false,true,0.0-2.0-0.8-0.76-3.76,0,0,0,81,false,stim,false,1,858.0,2,0,2,36461,task1,280106,false,false,307,image-keyboard-response,9
true,3,0,1,1,false,z,true,false,0.0-2.0-0.8-0.77-3.77,0,0,0,81,false,stim,false,2,1540.0,2,0,1,36461,task1,283150,false,false,310,image-keyboard-response,10
true,3,1,1,1,true,z,false,true,0.0-2.0-0.8-0.78-3.78,0,0,0,90,false,stim,false,2,523.0,2,0,1,36461,task1,285178,false,false,313,image-keyboard-response,11
true,3,2,1,0,false,q,true,false,0.0-2.0-0.8-0.79-3.79,0,0,0,68,false,stim,false,1,932.0,2,0,0,36461,task1,287615,false,false,316,image-keyboard-response,12
true,3,0,1,0,true,q,false,true,0.0-2.0-0.8-0.80-3.80,0,0,0,81,false,stim,false,1,867.0,2,0,2,36461,task1,289987,false,false,319,image-keyboard-response,13
true,3,1,1,0,false,q,false,false,0.0-2.0-0.9-0.81-3.81,0,0,0,90,false,stim,true,1,1225.0,2,0,0,36461,task1,292717,false,false,322,image-keyboard-response,14
true,3,0,1,0,true,q,false,true,0.0-2.0-0.9-0.82-3.82,0,0,0,81,false,stim,false,1,1131.0,2,0,2,36461,task1,295353,false,false,325,image-keyboard-response,15
true,3,1,1,1,true,z,false,true,0.0-2.0-0.9-0.83-3.83,0,0,0,90,false,stim,false,2,1473.0,2,0,1,36461,task1,298332,false,false,328,image-keyboard-response,16
true,3,0,1,0,true,q,false,true,0.0-2.0-0.9-0.84-3.84,0,0,0,81,false,stim,false,1,567.0,2,0,2,36461,task1,300404,false,false,331,image-keyboard-response,17
true,3,0,1,0,true,q,false,true,0.0-2.0-0.9-0.85-3.85,0,0,0,81,false,stim,false,1,1433.0,2,0,2,36461,task1,303341,false,false,334,image-keyboard-response,18
true,3,1,1,0,false,q,false,false,0.0-2.0-0.9-0.86-3.86,0,0,0,90,false,stim,true,1,1251.9999999999418,2,0,0,36461,task1,306098,false,false,337,image-keyboard-response,19
true,3,0,1,0,true,q,false,true,0.0-2.0-0.9-0.87-3.87,0,0,0,81,false,stim,false,1,511.0,2,0,0,36461,task1,308115,false,false,340,image-keyboard-response,20
true,3,1,1,1,true,z,false,true,0.0-2.0-0.9-0.88-3.88,0,0,0,90,false,stim,false,2,1064.0000000000582,2,0,1,36461,task1,310685,false,false,343,image-keyboard-response,21
true,3,1,1,1,true,z,false,true,0.0-2.0-0.9-0.89-3.89,0,0,0,90,false,stim,false,2,873.0,2,0,1,36461,task1,313063,false,false,346,image-keyboard-response,22
true,3,0,1,0,true,q,false,true,0.0-2.0-0.10-0.90-3.90,0,0,0,81,false,stim,false,1,898.0,2,0,2,36461,task1,315467,false,false,349,image-keyboard-response,23
true,3,0,1,0,true,q,false,false,0.0-2.0-0.10-0.91-3.91,0,0,0,81,false,stim,false,1,474.0,2,0,0,36461,task1,317447,false,true,352,image-keyboard-response,24
true,3,0,1,0,true,q,false,true,0.0-2.0-0.10-0.92-3.92,0,0,0,81,false,stim,false,1,868.0,2,0,0,36461,task1,319820,false,false,355,image-keyboard-response,25
true,3,1,1,1,true,z,false,true,0.0-2.0-0.10-0.93-3.93,0,0,0,90,false,stim,false,2,626.0,2,0,1,36461,task1,321952,false,false,358,image-keyboard-response,26
true,3,0,1,0,true,q,false,true,0.0-2.0-0.10-0.94-3.94,0,0,0,81,false,stim,false,1,849.9999999999418,2,0,2,36461,task1,324307,false,false,361,image-keyboard-response,27
true,3,0,1,0,true,q,false,true,0.0-2.0-0.10-0.95-3.95,0,0,0,81,false,stim,false,1,584.0,2,0,2,36461,task1,326396,false,false,364,image-keyboard-response,28
true,3,1,1,1,true,z,false,true,0.0-2.0-0.10-0.96-3.96,0,0,0,90,false,stim,false,2,976.0,2,0,1,36461,task1,328877,false,false,367,image-keyboard-response,29
true,3,0,1,0,true,q,false,true,0.0-2.0-0.10-0.97-3.97,0,0,0,81,false,stim,false,1,710.0,2,0,0,36461,task1,331092,false,false,370,image-keyboard-response,30
true,3,1,1,1,true,z,false,true,0.0-2.0-0.10-0.98-3.98,0,0,0,90,false,stim,false,2,884.0,2,0,1,36461,task1,333482,false,false,373,image-keyboard-response,31
true,3,0,1,0,true,q,false,true,0.0-2.0-0.11-0.99-3.99,0,0,0,81,false,stim,false,1,643.0000000000582,2,0,2,36461,task1,335630,false,false,376,image-keyboard-response,32
true,3,0,1,0,true,q,false,true,0.0-2.0-0.11-0.100-3.100,0,0,0,81,false,stim,false,1,1012.0,2,0,0,36461,task1,338146,false,false,379,image-keyboard-response,33
true,3,0,1,0,true,q,false,true,0.0-2.0-0.11-0.101-3.101,0,0,0,81,false,stim,false,1,646.0,2,0,0,36461,task1,340296,false,false,382,image-keyboard-response,34
true,3,0,1,0,true,q,false,true,0.0-2.0-0.11-0.102-3.102,0,0,0,81,false,stim,false,1,1201.0,2,0,2,36461,task1,343003,false,false,385,image-keyboard-response,35
true,3,1,1,1,true,z,false,true,0.0-2.0-0.11-0.103-3.103,0,0,0,90,false,stim,false,2,693.0000000000582,2,0,1,36461,task1,345202,false,false,388,image-keyboard-response,36
true,3,1,1,1,true,z,false,true,0.0-2.0-0.11-0.104-3.104,0,0,0,90,false,stim,false,2,528.0,2,0,1,36461,task1,347236,false,false,391,image-keyboard-response,37
true,3,0,1,0,true,q,false,true,0.0-2.0-0.11-0.105-3.105,0,0,0,81,false,stim,false,1,551.0,2,0,0,36461,task1,349291,false,false,394,image-keyboard-response,38
true,3,1,1,1,true,z,false,true,0.0-2.0-0.11-0.106-3.106,0,0,0,90,false,stim,false,2,1417.0,2,0,1,36461,task1,352213,false,false,397,image-keyboard-response,39
true,3,0,1,0,true,q,false,true,0.0-2.0-0.11-0.107-3.107,0,0,0,81,false,stim,false,1,899.0,2,0,2,36461,task1,354617,false,false,400,image-keyboard-response,40
true,3,1,1,1,true,z,false,true,0.0-2.0-0.12-0.108-3.108,0,0,0,90,false,stim,false,2,929.0,2,0,1,36461,task1,357053,false,false,403,image-keyboard-response,41
true,4,1,1,2,false,d,false,false,0.0-2.0-0.12-0.109-3.109,0,0,0,90,true,stim,true,1,628.0,2,0,1,36461,task1,359185,false,false,406,image-keyboard-response,1
true,4,0,1,1,false,z,false,false,0.0-2.0-0.12-0.110-3.110,0,0,0,81,false,stim,true,0,655.0,2,0,2,36461,task1,361345,false,false,409,image-keyboard-response,2
true,4,0,1,2,false,d,false,false,0.0-2.0-0.12-0.111-3.111,0,0,0,81,false,stim,true,0,907.0,2,0,0,36461,task1,363758,false,false,412,image-keyboard-response,3
true,4,0,1,2,false,d,false,false,0.0-2.0-0.12-0.112-3.112,0,0,0,81,false,stim,true,0,1120.0,2,0,0,36461,task1,366383,false,false,415,image-keyboard-response,4
true,4,1,1,2,false,d,false,false,0.0-2.0-0.12-0.113-3.113,0,0,0,90,false,stim,true,1,1249.0,2,0,1,36461,task1,369137,false,false,418,image-keyboard-response,5
true,4,0,1,1,false,z,false,false,0.0-2.0-0.12-0.114-3.114,0,0,0,81,false,stim,true,0,733.0,2,0,2,36461,task1,371375,false,false,421,image-keyboard-response,6
true,4,0,1,1,false,z,false,false,0.0-2.0-0.12-0.115-3.115,0,0,0,81,false,stim,true,0,606.0,2,0,2,36461,task1,373487,false,false,424,image-keyboard-response,7
true,4,0,1,2,false,d,false,false,0.0-2.0-0.12-0.116-3.116,0,0,0,81,false,stim,true,0,746.9999999999418,2,0,0,36461,task1,375738,false,false,427,image-keyboard-response,8
true,4,0,1,1,false,z,false,false,0.0-2.0-0.13-0.117-3.117,0,0,0,81,false,stim,true,0,828.0,2,0,2,36461,task1,378071,false,false,430,image-keyboard-response,9
true,4,2,1,1,false,z,true,false,0.0-2.0-0.13-0.118-3.118,0,0,0,68,false,stim,false,0,789.0000000000582,2,0,2,36461,task1,380366,false,false,433,image-keyboard-response,10
true,4,0,1,2,false,d,true,false,0.0-2.0-0.13-0.119-3.119,0,0,0,81,false,stim,false,1,1293.0,2,0,1,36461,task1,383165,false,false,436,image-keyboard-response,11
true,4,1,1,1,true,z,false,true,0.0-2.0-0.13-0.120-3.120,0,0,0,90,false,stim,false,0,948.0,2,0,2,36461,task1,385617,false,false,439,image-keyboard-response,12
true,4,1,1,2,false,d,true,false,0.0-2.0-0.13-0.121-3.121,0,0,0,90,false,stim,false,0,888.0,2,0,0,36461,task1,388010,false,false,442,image-keyboard-response,13
true,4,1,1,2,false,d,false,true,0.0-2.0-0.13-0.122-3.122,0,0,0,90,false,stim,true,1,1510.0,2,0,1,36461,task1,391025,false,true,445,image-keyboard-response,14
true,4,2,1,2,true,d,false,true,0.0-2.0-0.13-0.123-3.123,0,0,0,68,false,stim,false,0,909.0,2,0,0,36461,task1,393439,false,false,448,image-keyboard-response,15
true,4,1,1,2,false,d,false,false,0.0-2.0-0.13-0.124-3.124,0,0,0,90,false,stim,true,1,894.0,2,0,1,36461,task1,395838,false,false,451,image-keyboard-response,16
true,4,2,1,2,true,d,false,true,0.0-2.0-0.13-0.125-3.125,0,0,0,68,false,stim,false,0,843.0,2,0,0,36461,task1,398186,false,false,454,image-keyboard-response,17
true,4,1,1,2,false,d,false,true,0.0-2.0-0.14-0.126-3.126,0,0,0,90,false,stim,true,1,495.0,2,0,1,36461,task1,400186,false,true,457,image-keyboard-response,18
true,4,1,1,1,true,z,false,true,0.0-2.0-0.14-0.127-3.127,0,0,0,90,false,stim,false,0,675.0000000000582,2,0,2,36461,task1,402364,false,false,460,image-keyboard-response,19
true,4,2,1,2,true,d,false,true,0.0-2.0-0.14-0.128-3.128,0,0,0,68,false,stim,false,0,539.0,2,0,0,36461,task1,404408,false,false,463,image-keyboard-response,20
true,4,1,1,2,false,d,false,false,0.0-2.0-0.14-0.129-3.129,0,0,0,90,false,stim,true,1,443.9999999999418,2,0,1,36461,task1,406356,false,false,466,image-keyboard-response,21
true,4,1,1,2,false,d,false,true,0.0-2.0-0.14-0.130-3.130,0,0,0,90,false,stim,true,1,428.0,2,0,1,36461,task1,408289,false,true,469,image-keyboard-response,22
true,4,1,1,1,true,z,false,true,0.0-2.0-0.14-0.131-3.131,0,0,0,90,false,stim,false,0,588.0,2,0,2,36461,task1,410381,false,false,472,image-keyboard-response,23
true,4,1,1,1,true,z,false,true,0.0-2.0-0.14-0.132-3.132,0,0,0,90,false,stim,false,0,1255.0,2,0,2,36461,task1,413142,false,false,475,image-keyboard-response,24
true,4,2,1,2,true,d,false,true,0.0-2.0-0.14-0.133-3.133,0,0,0,68,false,stim,false,0,1734.0,2,0,0,36461,task1,416380,false,false,478,image-keyboard-response,25
true,4,2,1,2,true,d,false,false,0.0-2.0-0.14-0.134-3.134,0,0,0,68,false,stim,false,0,1088.0,2,0,0,36461,task1,418974,false,true,481,image-keyboard-response,26
true,4,1,1,2,false,d,false,false,0.0-2.0-0.15-0.135-3.135,0,0,0,90,false,stim,true,1,662.0,2,0,1,36461,task1,421141,false,false,484,image-keyboard-response,27
true,4,2,1,2,true,d,false,true,0.0-2.0-0.15-0.136-3.136,0,0,0,68,false,stim,false,0,1097.0,2,0,0,36461,task1,423742,false,false,487,image-keyboard-response,28
true,4,1,1,1,true,z,false,true,0.0-2.0-0.15-0.137-3.137,0,0,0,90,false,stim,false,0,756.0,2,0,2,36461,task1,426003,false,false,490,image-keyboard-response,29
true,4,1,1,1,true,z,false,true,0.0-2.0-0.15-0.138-3.138,0,0,0,90,false,stim,false,0,523.0,2,0,2,36461,task1,428032,false,false,493,image-keyboard-response,30
true,4,2,1,2,true,d,false,true,0.0-2.0-0.15-0.139-3.139,0,0,0,68,false,stim,false,0,1253.0000000000582,2,0,0,36461,task1,430792,false,false,496,image-keyboard-response,31
true,4,1,1,2,false,d,false,false,0.0-2.0-0.15-0.140-3.140,0,0,0,90,false,stim,true,1,527.0,2,0,1,36461,task1,432823,false,false,499,image-keyboard-response,32
true,4,1,1,2,false,d,false,false,0.0-2.0-0.15-0.141-3.141,0,0,0,90,false,stim,true,1,506.0,2,0,1,36461,task1,434837,false,false,502,image-keyboard-response,33
true,4,2,1,2,true,d,false,true,0.0-2.0-0.15-0.142-3.142,0,0,0,68,false,stim,false,0,787.0,2,0,0,36461,task1,437130,false,false,505,image-keyboard-response,34
true,4,1,1,1,true,z,false,true,0.0-2.0-0.15-0.143-3.143,0,0,0,90,false,stim,false,0,597.0,2,0,2,36461,task1,439231,false,false,508,image-keyboard-response,35
true,4,1,1,1,true,z,false,true,0.0-2.0-0.16-0.144-3.144,0,0,0,90,false,stim,false,0,647.0,2,0,2,36461,task1,441384,false,false,511,image-keyboard-response,36
true,4,0,1,2,false,d,true,false,0.0-2.0-0.16-0.145-3.145,0,0,0,81,false,stim,false,1,1015.0,2,0,1,36461,task1,443904,false,false,514,image-keyboard-response,37
true,4,2,1,2,true,d,false,true,0.0-2.0-0.16-0.146-3.146,0,0,0,68,false,stim,false,0,1760.0,2,0,0,36461,task1,447169,false,false,517,image-keyboard-response,38
true,4,1,1,1,true,z,false,true,0.0-2.0-0.16-0.147-3.147,0,0,0,90,false,stim,false,0,957.0000000000582,2,0,2,36461,task1,449631,false,false,520,image-keyboard-response,39
true,4,2,1,2,true,d,false,true,0.0-2.0-0.16-0.148-3.148,0,0,0,68,false,stim,false,0,1327.0,2,0,0,36461,task1,452464,false,false,523,image-keyboard-response,40
true,4,2,1,2,true,d,false,true,0.0-2.0-0.16-0.149-3.149,0,0,0,68,false,stim,false,0,570.0,2,0,0,36461,task1,454540,false,false,526,image-keyboard-response,41
true,4,2,1,2,true,d,false,true,0.0-2.0-0.16-0.150-3.150,0,0,0,68,false,stim,false,1,679.0,2,0,1,36461,task1,456724,false,false,529,image-keyboard-response,42
true,4,1,1,1,true,z,false,true,0.0-2.0-0.16-0.151-3.151,0,0,0,90,false,stim,false,0,1257.0,2,0,2,36461,task1,459485,false,false,532,image-keyboard-response,43
true,4,2,1,2,true,d,false,true,0.0-2.0-0.16-0.152-3.152,0,0,0,68,false,stim,false,1,522.0,2,0,1,36461,task1,461511,false,false,535,image-keyboard-response,44
true,5,1,2,0,false,q,false,false,0.0-2.0-0.17-0.153-3.153,0,0,0,90,true,stim,true,1,683.0000000000582,2,0,2,36461,task1,463700,false,false,538,image-keyboard-response,1
true,5,2,2,1,false,z,false,false,0.0-2.0-0.17-0.154-3.154,0,0,0,68,false,stim,true,2,654.0,2,0,1,36461,task1,465859,false,false,541,image-keyboard-response,2
true,5,2,2,0,false,q,false,true,0.0-2.0-0.17-0.155-3.155,0,0,0,68,false,stim,true,2,1932.0000000000582,2,0,0,36461,task1,469297,false,true,544,image-keyboard-response,3
true,5,2,2,1,false,z,false,false,0.0-2.0-0.17-0.156-3.156,0,0,0,68,false,stim,true,2,463.9999999999418,2,0,1,36461,task1,471265,false,false,547,image-keyboard-response,4
true,5,2,2,0,false,q,false,false,0.0-2.0-0.17-0.157-3.157,0,0,0,68,false,stim,true,2,833.0,2,0,0,36461,task1,473604,false,false,550,image-keyboard-response,5
true,5,2,2,1,false,z,false,false,0.0-2.0-0.17-0.158-3.158,0,0,0,68,false,stim,true,2,593.0,2,0,1,36461,task1,475701,false,false,553,image-keyboard-response,6
true,5,1,2,0,false,q,false,false,0.0-2.0-0.17-0.159-3.159,0,0,0,90,false,stim,true,1,584.0,2,0,2,36461,task1,477790,false,false,556,image-keyboard-response,7
true,5,2,2,0,false,q,false,false,0.0-2.0-0.17-0.160-3.160,0,0,0,68,false,stim,true,2,1553.0,2,0,0,36461,task1,480847,false,false,559,image-keyboard-response,8
true,5,1,2,0,false,q,false,false,0.0-2.0-0.17-0.161-3.161,0,0,0,90,false,stim,true,1,526.0,2,0,2,36461,task1,482878,false,false,562,image-keyboard-response,9
true,5,0,2,1,false,z,true,false,0.0-2.0-0.18-0.162-3.162,0,0,0,81,false,stim,false,2,1620.0,2,0,1,36461,task1,486005,false,false,565,image-keyboard-response,10
true,5,0,2,0,true,q,false,true,0.0-2.0-0.18-0.163-3.163,0,0,0,81,false,stim,false,1,1192.0,2,0,2,36461,task1,488702,false,false,568,image-keyboard-response,11
true,5,0,2,0,true,q,false,true,0.0-2.0-0.18-0.164-3.164,0,0,0,81,false,stim,false,2,1001.0,2,0,0,36461,task1,491208,false,false,571,image-keyboard-response,12
true,5,0,2,0,true,q,false,true,0.0-2.0-0.18-0.165-3.165,0,0,0,81,false,stim,false,2,755.0,2,0,0,36461,task1,493469,false,false,574,image-keyboard-response,13
true,5,0,2,1,false,z,true,false,0.0-2.0-0.18-0.166-3.166,0,0,0,81,false,stim,false,2,621.0,2,0,1,36461,task1,495595,false,false,577,image-keyboard-response,14
true,5,1,2,1,true,z,false,true,0.0-2.0-0.18-0.167-3.167,0,0,0,90,false,stim,false,2,506.0,2,0,1,36461,task1,497606,false,false,580,image-keyboard-response,15
true,5,0,2,0,true,q,false,true,0.0-2.0-0.18-0.168-3.168,0,0,0,81,false,stim,false,2,728.0,2,0,0,36461,task1,499840,false,false,583,image-keyboard-response,16
true,5,0,2,0,true,q,false,true,0.0-2.0-0.18-0.169-3.169,0,0,0,81,false,stim,false,1,473.0,2,0,2,36461,task1,501817,false,false,586,image-keyboard-response,17
true,5,0,2,0,true,q,false,true,0.0-2.0-0.18-0.170-3.170,0,0,0,81,false,stim,false,1,449.0,2,0,2,36461,task1,503772,false,false,589,image-keyboard-response,18
true,5,0,2,0,true,q,false,true,0.0-2.0-0.19-0.171-3.171,0,0,0,81,false,stim,false,2,445.0,2,0,0,36461,task1,505723,false,false,592,image-keyboard-response,19
true,5,0,2,0,true,q,false,true,0.0-2.0-0.19-0.172-3.172,0,0,0,81,false,stim,false,1,394.0,2,0,2,36461,task1,507623,false,false,595,image-keyboard-response,20
true,5,0,2,0,true,q,false,true,0.0-2.0-0.19-0.173-3.173,0,0,0,81,false,stim,false,1,554.0,2,0,2,36461,task1,509681,false,false,598,image-keyboard-response,21
true,5,1,2,1,true,z,false,true,0.0-2.0-0.19-0.174-3.174,0,0,0,90,false,stim,false,2,1058.9999999999418,2,0,1,36461,task1,512250,false,false,601,image-keyboard-response,22
true,5,0,2,0,true,q,false,true,0.0-2.0-0.19-0.175-3.175,0,0,0,81,false,stim,false,2,500.0,2,0,0,36461,task1,514255,false,false,604,image-keyboard-response,23
true,5,1,2,1,true,z,false,true,0.0-2.0-0.19-0.176-3.176,0,0,0,90,false,stim,false,2,829.9999999998836,2,0,1,36461,task1,516590,false,false,607,image-keyboard-response,24
true,5,0,2,0,true,q,false,true,0.0-2.0-0.19-0.177-3.177,0,0,0,81,false,stim,false,2,529.0,2,0,0,36461,task1,518625,false,false,610,image-keyboard-response,25
true,5,1,2,0,false,q,false,false,0.0-2.0-0.19-0.178-3.178,0,0,0,90,false,stim,true,1,797.0,2,0,2,36461,task1,520928,false,false,613,image-keyboard-response,26
true,5,0,2,1,false,z,true,false,0.0-2.0-0.19-0.179-3.179,0,0,0,81,false,stim,false,2,756.0,2,0,1,36461,task1,523190,false,false,616,image-keyboard-response,27
true,5,1,2,1,true,z,false,true,0.0-2.0-0.20-0.180-3.180,0,0,0,90,false,stim,false,2,441.0,2,0,1,36461,task1,525136,false,false,619,image-keyboard-response,28
true,5,0,2,0,true,q,false,true,0.0-2.0-0.20-0.181-3.181,0,0,0,81,false,stim,false,1,498.0000000001164,2,0,2,36461,task1,527138,false,false,622,image-keyboard-response,29
true,5,0,2,0,true,q,false,true,0.0-2.0-0.20-0.182-3.182,0,0,0,81,false,stim,false,2,463.0,2,0,0,36461,task1,529106,false,false,625,image-keyboard-response,30
true,5,1,2,1,true,z,false,true,0.0-2.0-0.20-0.183-3.183,0,0,0,90,false,stim,false,2,478.0,2,0,1,36461,task1,531090,false,false,628,image-keyboard-response,31
true,5,0,2,0,true,q,false,true,0.0-2.0-0.20-0.184-3.184,0,0,0,81,false,stim,false,1,609.0,2,0,2,36461,task1,533204,false,false,631,image-keyboard-response,32
true,5,0,2,0,true,q,false,true,0.0-2.0-0.20-0.185-3.185,0,0,0,81,false,stim,false,2,541.0,2,0,0,36461,task1,535251,false,false,634,image-keyboard-response,33
true,5,1,2,1,true,z,false,true,0.0-2.0-0.20-0.186-3.186,0,0,0,90,false,stim,false,2,489.0,2,0,1,36461,task1,537245,false,false,637,image-keyboard-response,34
true,5,0,2,0,true,q,false,true,0.0-2.0-0.20-0.187-3.187,0,0,0,81,false,stim,false,2,673.0,2,0,0,36461,task1,539422,false,false,640,image-keyboard-response,35
true,5,0,2,0,true,q,false,true,0.0-2.0-0.20-0.188-3.188,0,0,0,81,false,stim,false,1,798.0,2,0,2,36461,task1,541726,false,false,643,image-keyboard-response,36
true,5,0,2,0,true,q,false,true,0.0-2.0-0.21-0.189-3.189,0,0,0,81,false,stim,false,1,526.0,2,0,2,36461,task1,543756,false,false,646,image-keyboard-response,37
true,5,1,2,1,true,z,false,true,0.0-2.0-0.21-0.190-3.190,0,0,0,90,false,stim,false,2,596.0,2,0,1,36461,task1,545857,false,false,649,image-keyboard-response,38
true,5,0,2,0,true,q,false,false,0.0-2.0-0.21-0.191-3.191,0,0,0,81,false,stim,false,2,527.0,2,0,0,36461,task1,547889,false,true,652,image-keyboard-response,39
true,5,1,2,1,true,z,false,true,0.0-2.0-0.21-0.192-3.192,0,0,0,90,false,stim,false,2,904.0,2,0,1,36461,task1,550299,false,false,655,image-keyboard-response,40
true,5,0,2,0,true,q,false,true,0.0-2.0-0.21-0.193-3.193,0,0,0,81,false,stim,false,1,534.9999999998836,2,0,2,36461,task1,552340,false,false,658,image-keyboard-response,41
true,5,0,2,0,true,q,false,true,0.0-2.0-0.21-0.194-3.194,0,0,0,81,false,stim,false,2,423.0,2,0,0,36461,task1,554269,false,false,661,image-keyboard-response,42
true,5,0,2,0,true,q,false,true,0.0-2.0-0.21-0.195-3.195,0,0,0,81,false,stim,false,1,674.0,2,0,2,36461,task1,556448,false,false,664,image-keyboard-response,43
true,5,1,2,1,true,z,false,true,0.0-2.0-0.21-0.196-3.196,0,0,0,90,false,stim,false,2,556.0,2,0,1,36461,task1,558510,false,false,667,image-keyboard-response,44
true,5,0,2,0,true,q,false,true,0.0-2.0-0.21-0.197-3.197,0,0,0,81,false,stim,false,2,613.0,2,0,0,36461,task1,560628,false,false,670,image-keyboard-response,45
true,6,0,1,1,false,z,false,false,0.0-2.0-0.22-0.198-3.198,0,0,0,81,true,stim,true,0,488.0,2,0,0,36461,task1,562622,false,false,673,image-keyboard-response,1
true,6,0,1,1,false,z,false,false,0.0-2.0-0.22-0.199-3.199,0,0,0,81,false,stim,true,0,1947.0,2,0,2,36461,task1,566074,false,false,676,image-keyboard-response,2
true,6,0,1,1,false,z,false,false,0.0-2.0-0.22-0.200-3.200,0,0,0,81,false,stim,true,0,466.0,2,0,2,36461,task1,568045,false,false,679,image-keyboard-response,3
true,6,0,1,1,false,z,false,false,0.0-2.0-0.22-0.201-3.201,0,0,0,81,false,stim,true,0,791.0,2,0,0,36461,task1,570343,false,false,682,image-keyboard-response,4
true,6,1,1,0,false,q,false,false,0.0-2.0-0.22-0.202-3.202,0,0,0,90,false,stim,true,1,370.0,2,0,1,36461,task1,572219,false,false,685,image-keyboard-response,5
true,6,1,1,0,false,q,false,false,0.0-2.0-0.22-0.203-3.203,0,0,0,90,false,stim,true,1,870.0,2,0,1,36461,task1,574594,false,false,688,image-keyboard-response,6
true,6,0,1,1,false,z,false,false,0.0-2.0-0.22-0.204-3.204,0,0,0,81,false,stim,true,0,726.0,2,0,0,36461,task1,576825,false,false,691,image-keyboard-response,7
true,6,0,1,1,false,z,false,false,0.0-2.0-0.22-0.205-3.205,0,0,0,81,false,stim,true,0,904.0,2,0,2,36461,task1,579235,false,false,694,image-keyboard-response,8
true,6,2,1,0,false,q,true,false,0.0-2.0-0.22-0.206-3.206,0,0,0,68,false,stim,false,1,944.0000000001164,2,0,1,36461,task1,581684,false,false,697,image-keyboard-response,9
true,6,1,1,1,true,z,false,true,0.0-2.0-0.23-0.207-3.207,0,0,0,90,false,stim,false,0,2140.0,2,0,2,36461,task1,585330,false,false,700,image-keyboard-response,10
true,6,1,1,1,true,z,false,true,0.0-2.0-0.23-0.208-3.208,0,0,0,90,false,stim,false,0,973.0000000001164,2,0,0,36461,task1,587814,false,false,703,image-keyboard-response,11
true,6,1,1,1,true,z,false,true,0.0-2.0-0.23-0.209-3.209,0,0,0,90,false,stim,false,0,651.0,2,0,0,36461,task1,589971,false,false,706,image-keyboard-response,12
true,6,1,1,1,true,z,false,true,0.0-2.0-0.23-0.210-3.210,0,0,0,90,false,stim,false,0,463.0,2,0,0,36461,task1,591939,false,false,709,image-keyboard-response,13
true,6,1,1,0,false,q,false,false,0.0-2.0-0.23-0.211-3.211,0,0,0,90,false,stim,true,1,1070.0,2,0,1,36461,task1,594515,false,false,712,image-keyboard-response,14
true,6,0,1,0,true,q,false,true,0.0-2.0-0.23-0.212-3.212,0,0,0,81,false,stim,false,1,524.0,2,0,1,36461,task1,596545,false,false,715,image-keyboard-response,15
true,6,0,1,0,true,q,false,true,0.0-2.0-0.23-0.213-3.213,0,0,0,81,false,stim,false,1,586.0,2,0,1,36461,task1,598637,false,false,718,image-keyboard-response,16
true,6,1,1,1,true,z,false,true,0.0-2.0-0.23-0.214-3.214,0,0,0,90,false,stim,false,0,584.0,2,0,2,36461,task1,600727,false,false,721,image-keyboard-response,17
true,6,1,1,1,true,z,false,true,0.0-2.0-0.23-0.215-3.215,0,0,0,90,false,stim,false,0,1023.0,2,0,2,36461,task1,603256,false,false,724,image-keyboard-response,18
true,6,1,1,1,true,z,false,true,0.0-2.0-0.24-0.216-3.216,0,0,0,90,false,stim,false,0,456.0,2,0,0,36461,task1,605218,false,false,727,image-keyboard-response,19
true,6,1,1,1,true,z,false,true,0.0-2.0-0.24-0.217-3.217,0,0,0,90,false,stim,false,0,533.0,2,0,2,36461,task1,607258,false,false,730,image-keyboard-response,20
true,6,1,1,1,true,z,false,true,0.0-2.0-0.24-0.218-3.218,0,0,0,90,false,stim,false,0,478.0,2,0,0,36461,task1,609242,false,false,733,image-keyboard-response,21
true,6,1,1,0,false,q,false,true,0.0-2.0-0.24-0.219-3.219,0,0,0,90,false,stim,true,1,377.0,2,0,1,36461,task1,611124,false,true,736,image-keyboard-response,22
true,6,1,1,0,false,q,false,false,0.0-2.0-0.24-0.220-3.220,0,0,0,90,false,stim,true,1,698.0,2,0,1,36461,task1,613328,false,false,739,image-keyboard-response,23
true,6,1,1,1,true,z,false,true,0.0-2.0-0.24-0.221-3.221,0,0,0,90,false,stim,false,0,722.0,2,0,0,36461,task1,615557,false,false,742,image-keyboard-response,24
true,6,1,1,1,true,z,false,true,0.0-2.0-0.24-0.222-3.222,0,0,0,90,false,stim,false,0,812.9999999998836,2,0,2,36461,task1,617875,false,false,745,image-keyboard-response,25
true,6,1,1,0,false,q,false,false,0.0-2.0-0.24-0.223-3.223,0,0,0,90,false,stim,true,1,768.0,2,0,1,36461,task1,620148,false,false,748,image-keyboard-response,26
true,6,1,1,1,true,z,false,true,0.0-2.0-0.24-0.224-3.224,0,0,0,90,false,stim,false,0,480.0,2,0,2,36461,task1,622139,false,false,751,image-keyboard-response,27
true,6,1,1,1,true,z,false,true,0.0-2.0-0.25-0.225-3.225,0,0,0,90,false,stim,false,0,1103.0,2,0,0,36461,task1,624749,false,false,754,image-keyboard-response,28
true,6,1,1,1,true,z,false,true,0.0-2.0-0.25-0.226-3.226,0,0,0,90,false,stim,false,0,536.0,2,0,0,36461,task1,626791,false,false,757,image-keyboard-response,29
true,6,0,1,0,true,q,false,true,0.0-2.0-0.25-0.227-3.227,0,0,0,81,false,stim,false,1,641.0,2,0,1,36461,task1,628938,false,false,760,image-keyboard-response,30
true,6,1,1,1,true,z,false,true,0.0-2.0-0.25-0.228-3.228,0,0,0,90,false,stim,false,0,646.0,2,0,2,36461,task1,631090,false,false,763,image-keyboard-response,31
true,6,0,1,0,true,q,false,true,0.0-2.0-0.25-0.229-3.229,0,0,0,81,false,stim,false,1,785.0,2,0,1,36461,task1,633381,false,false,766,image-keyboard-response,32
true,6,1,1,1,true,z,false,true,0.0-2.0-0.25-0.230-3.230,0,0,0,90,false,stim,false,0,639.0,2,0,2,36461,task1,635526,false,false,769,image-keyboard-response,33
true,6,1,1,1,true,z,false,true,0.0-2.0-0.25-0.231-3.231,0,0,0,90,false,stim,false,0,493.9999999998836,2,0,0,36461,task1,637526,false,false,772,image-keyboard-response,34
true,6,1,1,1,true,z,false,true,0.0-2.0-0.25-0.232-3.232,0,0,0,90,false,stim,false,0,584.0,2,0,2,36461,task1,639615,false,false,775,image-keyboard-response,35
true,6,0,1,0,true,q,false,true,0.0-2.0-0.25-0.233-3.233,0,0,0,81,false,stim,false,1,790.0,2,0,1,36461,task1,641910,false,false,778,image-keyboard-response,36
true,6,1,1,1,true,z,false,true,0.0-2.0-0.26-0.234-3.234,0,0,0,90,false,stim,false,0,376.0,2,0,2,36461,task1,643793,false,false,781,image-keyboard-response,37
true,6,1,1,1,true,z,false,false,0.0-2.0-0.26-0.235-3.235,0,0,0,90,false,stim,false,0,1256.9999999998836,2,0,0,36461,task1,646558,false,true,784,image-keyboard-response,38
true,6,1,1,1,true,z,false,true,0.0-2.0-0.26-0.236-3.236,0,0,0,90,false,stim,false,0,518.0,2,0,0,36461,task1,648582,false,false,787,image-keyboard-response,39
true,6,0,1,0,true,q,false,true,0.0-2.0-0.26-0.237-3.237,0,0,0,81,false,stim,false,1,727.0,2,0,1,36461,task1,650813,false,false,790,image-keyboard-response,40
true,6,1,1,1,true,z,false,true,0.0-2.0-0.26-0.238-3.238,0,0,0,90,false,stim,false,0,1289.0000000001164,2,0,2,36461,task1,653608,false,false,793,image-keyboard-response,41
true,6,1,1,1,true,z,false,true,0.0-2.0-0.26-0.239-3.239,0,0,0,90,false,stim,false,0,677.0,2,0,2,36461,task1,655791,false,false,796,image-keyboard-response,42
true,6,1,1,1,true,z,false,true,0.0-2.0-0.26-0.240-3.240,0,0,0,90,false,stim,false,0,1179.0,2,0,0,36461,task1,658476,false,false,799,image-keyboard-response,43
true,6,0,1,0,true,q,false,true,0.0-2.0-0.26-0.241-3.241,0,0,0,81,false,stim,false,1,1158.0,2,0,1,36461,task1,661146,false,false,802,image-keyboard-response,44
true,6,0,1,0,true,q,false,true,0.0-2.0-0.26-0.242-3.242,0,0,0,81,false,stim,false,1,725.0000000001164,2,0,1,36461,task1,663377,false,false,805,image-keyboard-response,45
true,7,1,2,0,false,q,false,false,0.0-2.0-0.27-0.243-3.243,0,0,0,90,true,stim,true,1,549.0,2,0,0,36461,task1,665432,false,false,808,image-keyboard-response,1
true,7,0,2,1,false,z,false,false,0.0-2.0-0.27-0.244-3.244,0,0,0,81,false,stim,true,0,1108.0,2,0,1,36461,task1,668044,false,false,811,image-keyboard-response,2
true,7,0,2,1,false,z,false,false,0.0-2.0-0.27-0.245-3.245,0,0,0,81,false,stim,true,0,1400.9999999998836,2,0,1,36461,task1,670950,false,false,814,image-keyboard-response,3
true,7,1,2,0,false,q,false,false,0.0-2.0-0.27-0.246-3.246,0,0,0,90,false,stim,true,1,473.0,2,0,2,36461,task1,672930,false,false,817,image-keyboard-response,4
true,7,1,2,0,false,q,false,false,0.0-2.0-0.27-0.247-3.247,0,0,0,90,false,stim,true,1,599.0,2,0,2,36461,task1,675035,false,false,820,image-keyboard-response,5
true,7,0,2,0,true,q,false,true,0.0-2.0-0.27-0.248-3.248,0,0,0,81,false,stim,false,1,689.0,2,0,0,36461,task1,677230,false,false,823,image-keyboard-response,6
true,7,0,2,1,false,z,false,false,0.0-2.0-0.27-0.249-3.249,0,0,0,81,false,stim,true,0,1129.0,2,0,1,36461,task1,679865,false,false,826,image-keyboard-response,7
true,7,0,2,0,true,q,false,true,0.0-2.0-0.27-0.250-3.250,0,0,0,81,false,stim,false,1,727.9999999998836,2,0,0,36461,task1,682099,false,false,829,image-keyboard-response,8
true,7,2,2,0,false,q,true,false,0.0-2.0-0.27-0.251-3.251,0,0,0,68,false,stim,false,1,1146.0000000001164,2,0,2,36461,task1,684750,false,false,832,image-keyboard-response,9
true,7,0,2,0,true,q,false,true,0.0-2.0-0.28-0.252-3.252,0,0,0,81,false,stim,false,1,939.0000000001164,2,0,0,36461,task1,687197,false,false,835,image-keyboard-response,10
true,7,0,2,0,true,q,false,true,0.0-2.0-0.28-0.253-3.253,0,0,0,81,false,stim,false,1,1090.0,2,0,2,36461,task1,689793,false,false,838,image-keyboard-response,11
true,7,0,2,0,true,q,false,true,0.0-2.0-0.28-0.254-3.254,0,0,0,81,false,stim,false,1,512.0,2,0,2,36461,task1,691812,false,false,841,image-keyboard-response,12
true,7,0,2,1,false,z,false,false,0.0-2.0-0.28-0.255-3.255,0,0,0,81,false,stim,true,0,870.0,2,0,1,36461,task1,694187,false,false,844,image-keyboard-response,13
true,7,1,2,1,true,z,false,false,0.0-2.0-0.28-0.256-3.256,0,0,0,90,false,stim,false,0,501.0,2,0,1,36461,task1,696193,false,true,847,image-keyboard-response,14
true,7,0,2,0,true,q,false,true,0.0-2.0-0.28-0.257-3.257,0,0,0,81,false,stim,false,1,565.0,2,0,2,36461,task1,698266,false,false,850,image-keyboard-response,15
true,7,0,2,0,true,q,false,true,0.0-2.0-0.28-0.258-3.258,0,0,0,81,false,stim,false,1,595.0,2,0,0,36461,task1,700367,false,false,853,image-keyboard-response,16
true,7,2,2,1,false,z,true,false,0.0-2.0-0.28-0.259-3.259,0,0,0,68,false,stim,false,0,739.0,2,0,1,36461,task1,702612,false,false,856,image-keyboard-response,17
true,7,0,2,0,true,q,false,true,0.0-2.0-0.28-0.260-3.260,0,0,0,81,false,stim,false,1,593.0,2,0,0,36461,task1,704711,false,false,859,image-keyboard-response,18
true,7,0,2,0,true,q,false,true,0.0-2.0-0.29-0.261-3.261,0,0,0,81,false,stim,false,1,674.0,2,0,2,36461,task1,706892,false,false,862,image-keyboard-response,19
true,7,0,2,1,false,z,false,false,0.0-2.0-0.29-0.262-3.262,0,0,0,81,false,stim,true,0,438.0,2,0,1,36461,task1,708837,false,false,865,image-keyboard-response,20
true,7,0,2,0,true,q,false,true,0.0-2.0-0.29-0.263-3.263,0,0,0,81,false,stim,false,1,814.0,2,0,0,36461,task1,711156,false,false,868,image-keyboard-response,21
true,7,0,2,0,true,q,false,true,0.0-2.0-0.29-0.264-3.264,0,0,0,81,false,stim,false,1,683.0000000001164,2,0,2,36461,task1,713345,false,false,871,image-keyboard-response,22
true,7,0,2,0,true,q,false,true,0.0-2.0-0.29-0.265-3.265,0,0,0,81,false,stim,false,1,574.0,2,0,0,36461,task1,715425,false,false,874,image-keyboard-response,23
true,7,0,2,0,true,q,false,true,0.0-2.0-0.29-0.266-3.266,0,0,0,81,false,stim,false,1,496.0000000001164,2,0,0,36461,task1,717427,false,false,877,image-keyboard-response,24
true,7,0,2,0,true,q,false,true,0.0-2.0-0.29-0.267-3.267,0,0,0,81,false,stim,false,1,893.0000000001164,2,0,2,36461,task1,719826,false,false,880,image-keyboard-response,25
true,7,1,2,1,true,z,false,true,0.0-2.0-0.29-0.268-3.268,0,0,0,90,false,stim,false,0,610.0,2,0,1,36461,task1,721944,false,false,883,image-keyboard-response,26
true,7,1,2,1,true,z,false,true,0.0-2.0-0.29-0.269-3.269,0,0,0,90,false,stim,false,0,669.0,2,0,1,36461,task1,724118,false,false,886,image-keyboard-response,27
true,7,0,2,0,true,q,false,false,0.0-2.0-0.30-0.270-3.270,0,0,0,81,false,stim,false,1,541.9999999998836,2,0,2,36461,task1,726166,false,true,889,image-keyboard-response,28
true,7,1,2,1,true,z,false,true,0.0-2.0-0.30-0.271-3.271,0,0,0,90,false,stim,false,0,685.0,2,0,1,36461,task1,728358,false,false,892,image-keyboard-response,29
true,7,0,2,0,true,q,false,false,0.0-2.0-0.30-0.272-3.272,0,0,0,81,false,stim,false,1,577.0,2,0,0,36461,task1,730442,false,true,895,image-keyboard-response,30
true,7,0,2,0,true,q,false,true,0.0-2.0-0.30-0.273-3.273,0,0,0,81,false,stim,false,1,576.0,2,0,0,36461,task1,732523,false,false,898,image-keyboard-response,31
true,7,1,2,1,true,z,false,true,0.0-2.0-0.30-0.274-3.274,0,0,0,90,false,stim,false,0,1613.0000000001164,2,0,1,36461,task1,735647,false,false,901,image-keyboard-response,32
true,7,1,2,1,true,z,false,true,0.0-2.0-0.30-0.275-3.275,0,0,0,90,false,stim,false,0,519.0,2,0,1,36461,task1,737672,false,false,904,image-keyboard-response,33
true,7,0,2,0,true,q,false,true,0.0-2.0-0.30-0.276-3.276,0,0,0,81,false,stim,false,1,634.0,2,0,2,36461,task1,739812,false,false,907,image-keyboard-response,34
true,7,0,2,0,true,q,false,true,0.0-2.0-0.30-0.277-3.277,0,0,0,81,false,stim,false,1,438.0,2,0,2,36461,task1,741754,false,false,910,image-keyboard-response,35
true,7,0,2,0,true,q,false,true,0.0-2.0-0.30-0.278-3.278,0,0,0,81,false,stim,false,1,389.0,2,0,0,36461,task1,743649,false,false,913,image-keyboard-response,36
true,7,0,2,0,true,q,false,true,0.0-2.0-0.31-0.279-3.279,0,0,0,81,false,stim,false,1,1824.0,2,0,2,36461,task1,746981,false,false,916,image-keyboard-response,37
true,7,0,2,0,true,q,false,true,0.0-2.0-0.31-0.280-3.280,0,0,0,81,false,stim,false,1,499.0,2,0,2,36461,task1,748987,false,false,919,image-keyboard-response,38
true,7,1,2,1,true,z,false,true,0.0-2.0-0.31-0.281-3.281,0,0,0,90,false,stim,false,0,663.9999999998836,2,0,1,36461,task1,751156,false,false,922,image-keyboard-response,39
true,7,0,2,0,true,q,false,true,0.0-2.0-0.31-0.282-3.282,0,0,0,81,false,stim,false,1,729.0,2,0,0,36461,task1,753390,false,false,925,image-keyboard-response,40
true,7,1,2,1,true,z,false,true,0.0-2.0-0.31-0.283-3.283,0,0,0,90,false,stim,false,0,1182.0,2,0,1,36461,task1,756077,false,false,928,image-keyboard-response,41
true,7,1,2,1,true,z,false,true,0.0-2.0-0.31-0.284-3.284,0,0,0,90,false,stim,false,0,627.0,2,0,1,36461,task1,758211,false,false,931,image-keyboard-response,42
true,8,0,2,2,false,d,false,false,0.0-2.0-0.31-0.285-3.285,0,0,0,81,true,stim,true,0,742.0,2,0,0,36461,task1,760458,false,false,934,image-keyboard-response,1
true,8,0,2,1,false,z,false,false,0.0-2.0-0.31-0.286-3.286,0,0,0,81,false,stim,true,0,1045.0,2,0,2,36461,task1,763009,false,false,937,image-keyboard-response,2
true,8,0,2,2,false,d,false,false,0.0-2.0-0.31-0.287-3.287,0,0,0,81,false,stim,true,0,741.9999999998836,2,0,0,36461,task1,765258,false,false,940,image-keyboard-response,3
true,8,1,2,2,false,d,false,false,0.0-2.0-0.32-0.288-3.288,0,0,0,90,false,stim,true,1,597.0,2,0,1,36461,task1,767362,false,false,943,image-keyboard-response,4
true,8,0,2,2,false,d,false,false,0.0-2.0-0.32-0.289-3.289,0,0,0,81,false,stim,true,0,576.0,2,0,0,36461,task1,769446,false,false,946,image-keyboard-response,5
true,8,1,2,2,false,d,true,false,0.0-2.0-0.32-0.290-3.290,0,0,0,90,false,stim,false,0,1114.0,2,0,0,36461,task1,772065,false,false,949,image-keyboard-response,6
true,8,0,2,1,false,z,false,false,0.0-2.0-0.32-0.291-3.291,0,0,0,81,false,stim,true,0,966.0,2,0,2,36461,task1,774537,false,false,952,image-keyboard-response,7
true,8,1,2,2,false,d,false,false,0.0-2.0-0.32-0.292-3.292,0,0,0,90,false,stim,true,1,832.0,2,0,1,36461,task1,776875,false,false,955,image-keyboard-response,8
true,8,2,2,2,true,d,false,false,0.0-2.0-0.32-0.293-3.293,0,0,0,68,false,stim,false,0,916.0,2,0,0,36461,task1,779297,false,true,958,image-keyboard-response,9
true,8,0,2,1,false,z,false,false,0.0-2.0-0.32-0.294-3.294,0,0,0,81,false,stim,true,0,1459.9999999998836,2,0,2,36461,task1,782264,false,false,961,image-keyboard-response,10
true,8,0,2,2,false,d,true,false,0.0-2.0-0.32-0.295-3.295,0,0,0,81,false,stim,false,1,1322.0,2,0,1,36461,task1,785093,false,false,964,image-keyboard-response,11
true,8,2,2,1,false,z,true,false,0.0-2.0-0.32-0.296-3.296,0,0,0,68,false,stim,false,0,979.0000000001164,2,0,2,36461,task1,787578,false,false,967,image-keyboard-response,12
true,8,1,2,1,true,z,false,true,0.0-2.0-0.33-0.297-3.297,0,0,0,90,false,stim,false,0,510.0,2,0,2,36461,task1,789594,false,false,970,image-keyboard-response,13
true,8,1,2,2,false,d,true,false,0.0-2.0-0.33-0.298-3.298,0,0,0,90,false,stim,false,0,639.0,2,0,0,36461,task1,791738,false,false,973,image-keyboard-response,14
true,8,1,2,1,true,z,false,true,0.0-2.0-0.33-0.299-3.299,0,0,0,90,false,stim,false,0,712.0,2,0,2,36461,task1,793956,false,false,976,image-keyboard-response,15
true,8,2,2,2,true,d,false,true,0.0-2.0-0.33-0.300-3.300,0,0,0,68,false,stim,false,1,861.0,2,0,1,36461,task1,796324,false,false,979,image-keyboard-response,16
true,8,2,2,2,true,d,false,true,0.0-2.0-0.33-0.301-3.301,0,0,0,68,false,stim,false,1,545.0000000001164,2,0,1,36461,task1,798375,false,false,982,image-keyboard-response,17
true,8,0,2,2,false,d,false,false,0.0-2.0-0.33-0.302-3.302,0,0,0,81,false,stim,true,0,1291.0,2,0,0,36461,task1,801172,false,false,985,image-keyboard-response,18
true,8,1,2,2,false,d,true,false,0.0-2.0-0.33-0.303-3.303,0,0,0,90,false,stim,false,0,505.9999999998836,2,0,0,36461,task1,803184,false,false,988,image-keyboard-response,19
true,8,1,2,1,true,z,false,true,0.0-2.0-0.33-0.304-3.304,0,0,0,90,false,stim,false,0,1827.0,2,0,2,36461,task1,806517,false,false,991,image-keyboard-response,20
true,8,2,2,2,true,d,false,true,0.0-2.0-0.33-0.305-3.305,0,0,0,68,false,stim,false,1,460.0,2,0,1,36461,task1,808483,false,false,994,image-keyboard-response,21
true,8,1,2,1,true,z,false,true,0.0-2.0-0.34-0.306-3.306,0,0,0,90,false,stim,false,0,1270.0,2,0,2,36461,task1,811261,false,false,997,image-keyboard-response,22
true,8,2,2,2,true,d,false,true,0.0-2.0-0.34-0.307-3.307,0,0,0,68,false,stim,false,0,825.0,2,0,0,36461,task1,813592,false,false,1000,image-keyboard-response,23
true,8,2,2,2,true,d,false,false,0.0-2.0-0.34-0.308-3.308,0,0,0,68,false,stim,false,0,522.0,2,0,0,36461,task1,815628,false,true,1003,image-keyboard-response,24
true,8,1,2,1,true,z,false,true,0.0-2.0-0.34-0.309-3.309,0,0,0,90,false,stim,false,0,1270.0,2,0,2,36461,task1,818405,false,false,1006,image-keyboard-response,25
true,8,2,2,2,true,d,false,true,0.0-2.0-0.34-0.310-3.310,0,0,0,68,false,stim,false,1,462.0,2,0,1,36461,task1,820373,false,false,1009,image-keyboard-response,26
true,8,2,2,2,true,d,false,true,0.0-2.0-0.34-0.311-3.311,0,0,0,68,false,stim,false,1,663.0,2,0,1,36461,task1,822543,false,false,1012,image-keyboard-response,27
true,8,1,2,1,true,z,false,true,0.0-2.0-0.34-0.312-3.312,0,0,0,90,false,stim,false,0,792.0,2,0,2,36461,task1,824841,false,false,1015,image-keyboard-response,28
true,8,2,2,2,true,d,false,true,0.0-2.0-0.34-0.313-3.313,0,0,0,68,false,stim,false,1,1317.0,2,0,1,36461,task1,827666,false,false,1018,image-keyboard-response,29
true,8,2,2,2,true,d,false,true,0.0-2.0-0.34-0.314-3.314,0,0,0,68,false,stim,false,0,400.9999999998836,2,0,0,36461,task1,829572,false,false,1021,image-keyboard-response,30
true,8,2,2,2,true,d,false,true,0.0-2.0-0.35-0.315-3.315,0,0,0,68,false,stim,false,1,543.0,2,0,1,36461,task1,831622,false,false,1024,image-keyboard-response,31
true,8,2,2,2,true,d,false,true,0.0-2.0-0.35-0.316-3.316,0,0,0,68,false,stim,false,0,410.0,2,0,0,36461,task1,833539,false,false,1027,image-keyboard-response,32
true,8,2,2,2,true,d,false,true,0.0-2.0-0.35-0.317-3.317,0,0,0,68,false,stim,false,1,1286.9999999998836,2,0,1,36461,task1,836333,false,false,1030,image-keyboard-response,33
true,8,2,2,1,false,z,true,false,0.0-2.0-0.35-0.318-3.318,0,0,0,68,false,stim,false,0,1010.0,2,0,2,36461,task1,838850,false,false,1033,image-keyboard-response,34
true,8,2,2,2,true,d,false,false,0.0-2.0-0.35-0.319-3.319,0,0,0,68,false,stim,false,0,979.0,2,0,0,36461,task1,841335,false,true,1036,image-keyboard-response,35
true,8,2,2,1,false,z,true,true,0.0-2.0-0.35-0.320-3.320,0,0,0,68,false,stim,false,0,1075.0000000001164,2,0,2,36461,task1,843916,false,true,1039,image-keyboard-response,36
true,8,2,2,1,false,z,true,false,0.0-2.0-0.35-0.321-3.321,0,0,0,68,false,stim,false,0,581.0,2,0,2,36461,task1,846004,false,false,1042,image-keyboard-response,37
true,8,2,2,2,true,d,false,false,0.0-2.0-0.35-0.322-3.322,0,0,0,68,false,stim,false,1,1447.9999999998836,2,0,1,36461,task1,848959,false,true,1045,image-keyboard-response,38
true,8,2,2,2,true,d,false,false,0.0-2.0-0.35-0.323-3.323,0,0,0,68,false,stim,false,0,1418.0,2,0,0,36461,task1,851884,false,true,1048,image-keyboard-response,39
true,9,1,1,2,false,d,false,false,0.0-2.0-0.36-0.324-3.324,0,0,0,90,true,stim,true,1,1098.0000000001164,2,0,2,36461,task1,854487,false,false,1051,image-keyboard-response,1
true,9,1,1,2,false,d,false,false,0.0-2.0-0.36-0.325-3.325,0,0,0,90,false,stim,true,1,1058.9999999998836,2,0,2,36461,task1,857051,false,false,1054,image-keyboard-response,2
true,9,2,1,2,true,d,false,true,0.0-2.0-0.36-0.326-3.326,0,0,0,68,false,stim,false,1,448.9999999998836,2,0,2,36461,task1,859008,false,false,1057,image-keyboard-response,3
true,9,2,1,0,false,q,false,false,0.0-2.0-0.36-0.327-3.327,0,0,0,68,false,stim,true,2,1603.0,2,0,0,36461,task1,862118,false,false,1060,image-keyboard-response,4
true,9,0,1,0,true,q,false,true,0.0-2.0-0.36-0.328-3.328,0,0,0,81,false,stim,false,2,579.0,2,0,0,36461,task1,864201,false,false,1063,image-keyboard-response,5
true,9,0,1,0,true,q,false,true,0.0-2.0-0.36-0.329-3.329,0,0,0,81,false,stim,false,2,462.9999999998836,2,0,0,36461,task1,866171,false,false,1066,image-keyboard-response,6
true,9,1,1,0,false,q,true,false,0.0-2.0-0.36-0.330-3.330,0,0,0,90,false,stim,false,2,926.0,2,0,1,36461,task1,868604,false,false,1069,image-keyboard-response,7
true,9,2,1,0,false,q,false,false,0.0-2.0-0.36-0.331-3.331,0,0,0,68,false,stim,true,2,481.0,2,0,1,36461,task1,873155,false,false,1072,image-keyboard-response,8
true,9,2,1,0,false,q,false,true,0.0-2.0-0.36-0.332-3.332,0,0,0,68,false,stim,true,2,423.0,2,0,1,36461,task1,875084,false,true,1075,image-keyboard-response,9
true,9,2,1,0,false,q,false,true,0.0-2.0-0.37-0.333-3.333,0,0,0,68,false,stim,true,2,2089.0,2,0,1,36461,task1,878683,false,true,1078,image-keyboard-response,10
true,9,2,1,0,false,q,false,false,0.0-2.0-0.37-0.334-3.334,0,0,0,68,false,stim,true,2,495.0,2,0,1,36461,task1,880684,false,false,1081,image-keyboard-response,11
true,9,0,1,0,true,q,false,true,0.0-2.0-0.37-0.335-3.335,0,0,0,81,false,stim,false,2,729.0,2,0,0,36461,task1,882917,false,false,1084,image-keyboard-response,12
true,9,2,1,2,true,d,false,true,0.0-2.0-0.37-0.336-3.336,0,0,0,68,false,stim,false,1,697.0,2,0,2,36461,task1,885119,false,false,1087,image-keyboard-response,13
true,9,0,1,0,true,q,false,true,0.0-2.0-0.37-0.337-3.337,0,0,0,81,false,stim,false,2,970.0,2,0,0,36461,task1,887596,false,false,1090,image-keyboard-response,14
true,9,0,1,0,true,q,false,true,0.0-2.0-0.37-0.338-3.338,0,0,0,81,false,stim,false,2,609.0,2,0,0,36461,task1,889709,false,false,1093,image-keyboard-response,15
true,9,2,1,2,true,d,false,true,0.0-2.0-0.37-0.339-3.339,0,0,0,68,false,stim,false,1,492.0,2,0,2,36461,task1,891707,false,false,1096,image-keyboard-response,16
true,9,2,1,0,false,q,false,false,0.0-2.0-0.37-0.340-3.340,0,0,0,68,false,stim,true,2,1041.0,2,0,1,36461,task1,894254,false,false,1099,image-keyboard-response,17
true,9,2,1,2,true,d,false,true,0.0-2.0-0.37-0.341-3.341,0,0,0,68,false,stim,false,1,1000.0,2,0,2,36461,task1,896769,false,false,1102,image-keyboard-response,18
true,9,2,1,0,false,q,false,false,0.0-2.0-0.38-0.342-3.342,0,0,0,68,false,stim,true,2,737.9999999998836,2,0,1,36461,task1,899014,false,false,1105,image-keyboard-response,19
true,9,0,1,0,true,q,false,true,0.0-2.0-0.38-0.343-3.343,0,0,0,81,false,stim,false,2,662.9999999998836,2,0,0,36461,task1,901184,false,false,1108,image-keyboard-response,20
true,9,2,1,0,false,q,false,false,0.0-2.0-0.38-0.344-3.344,0,0,0,68,false,stim,true,2,437.0,2,0,1,36461,task1,903130,false,false,1111,image-keyboard-response,21
true,9,0,1,0,true,q,false,true,0.0-2.0-0.38-0.345-3.345,0,0,0,81,false,stim,false,2,678.0,2,0,0,36461,task1,905313,false,false,1114,image-keyboard-response,22
true,9,0,1,0,true,q,false,true,0.0-2.0-0.38-0.346-3.346,0,0,0,81,false,stim,false,2,551.0,2,0,0,36461,task1,907370,false,false,1117,image-keyboard-response,23
true,9,2,1,2,true,d,false,true,0.0-2.0-0.38-0.347-3.347,0,0,0,68,false,stim,false,1,1037.0,2,0,2,36461,task1,909913,false,false,1120,image-keyboard-response,24
true,9,1,1,0,false,q,true,false,0.0-2.0-0.38-0.348-3.348,0,0,0,90,false,stim,false,2,560.0000000001164,2,0,1,36461,task1,911978,false,false,1123,image-keyboard-response,25
true,9,2,1,2,true,d,false,true,0.0-2.0-0.38-0.349-3.349,0,0,0,68,false,stim,false,1,1211.9999999998836,2,0,2,36461,task1,914695,false,false,1126,image-keyboard-response,26
true,9,2,1,2,true,d,false,true,0.0-2.0-0.38-0.350-3.350,0,0,0,68,false,stim,false,1,1420.0,2,0,2,36461,task1,917623,false,false,1129,image-keyboard-response,27
true,9,2,1,2,true,d,false,true,0.0-2.0-0.39-0.351-3.351,0,0,0,68,false,stim,false,1,647.0,2,0,2,36461,task1,919776,false,false,1132,image-keyboard-response,28
true,9,1,1,0,false,q,true,false,0.0-2.0-0.39-0.352-3.352,0,0,0,90,false,stim,false,2,1065.0,2,0,1,36461,task1,922347,false,false,1135,image-keyboard-response,29
true,9,0,1,0,true,q,false,true,0.0-2.0-0.39-0.353-3.353,0,0,0,81,false,stim,false,2,1579.0,2,0,0,36461,task1,925431,false,false,1138,image-keyboard-response,30
true,9,2,1,2,true,d,false,true,0.0-2.0-0.39-0.354-3.354,0,0,0,68,false,stim,false,1,1007.0,2,0,2,36461,task1,927945,false,false,1141,image-keyboard-response,31
true,9,2,1,2,true,d,false,true,0.0-2.0-0.39-0.355-3.355,0,0,0,68,false,stim,false,1,588.0,2,0,2,36461,task1,930039,false,false,1144,image-keyboard-response,32
true,9,0,1,0,true,q,false,true,0.0-2.0-0.39-0.356-3.356,0,0,0,81,false,stim,false,2,571.0,2,0,0,36461,task1,932116,false,false,1147,image-keyboard-response,33
true,9,0,1,0,true,q,false,true,0.0-2.0-0.39-0.357-3.357,0,0,0,81,false,stim,false,2,777.0,2,0,1,36461,task1,934399,false,false,1150,image-keyboard-response,34
true,9,0,1,0,true,q,false,true,0.0-2.0-0.39-0.358-3.358,0,0,0,81,false,stim,false,2,500.9999999998836,2,0,1,36461,task1,936406,false,false,1153,image-keyboard-response,35
true,9,0,1,0,true,q,false,true,0.0-2.0-0.39-0.359-3.359,0,0,0,81,false,stim,false,2,381.0,2,0,0,36461,task1,938294,false,false,1156,image-keyboard-response,36
true,9,2,1,2,true,d,false,false,0.0-2.0-0.40-0.360-3.360,0,0,0,68,false,stim,false,1,853.0000000001164,2,0,2,36461,task1,940655,false,true,1159,image-keyboard-response,37
true,9,2,1,2,true,d,false,true,0.0-2.0-0.40-0.361-3.361,0,0,0,68,false,stim,false,1,472.0,2,0,2,36461,task1,942633,false,false,1162,image-keyboard-response,38
true,9,0,1,0,true,q,false,true,0.0-2.0-0.40-0.362-3.362,0,0,0,81,false,stim,false,2,525.0,2,0,0,36461,task1,944665,false,false,1165,image-keyboard-response,39
true,9,0,1,0,true,q,false,true,0.0-2.0-0.40-0.363-3.363,0,0,0,81,false,stim,false,2,367.0,2,0,1,36461,task1,946538,false,false,1168,image-keyboard-response,40
true,9,0,1,0,true,q,false,true,0.0-2.0-0.40-0.364-3.364,0,0,0,81,false,stim,false,2,641.0000000001164,2,0,1,36461,task1,948683,false,false,1171,image-keyboard-response,41
true,9,0,1,0,true,q,false,true,0.0-2.0-0.40-0.365-3.365,0,0,0,81,false,stim,false,2,650.0,2,0,1,36461,task1,950840,false,false,1174,image-keyboard-response,42
true,9,0,1,0,true,q,false,true,0.0-2.0-0.40-0.366-3.366,0,0,0,81,false,stim,false,2,574.9999999998836,2,0,0,36461,task1,952922,false,false,1177,image-keyboard-response,43
true,10,2,2,1,false,z,false,false,0.0-2.0-0.40-0.367-3.367,0,0,0,68,true,stim,true,2,785.0,2,0,2,36461,task1,955213,false,false,1180,image-keyboard-response,1
true,10,0,2,2,false,d,false,false,0.0-2.0-0.40-0.368-3.368,0,0,0,81,false,stim,true,0,622.0,2,0,0,36461,task1,957341,false,false,1183,image-keyboard-response,2
true,10,2,2,1,false,z,false,false,0.0-2.0-0.41-0.369-3.369,0,0,0,68,false,stim,true,2,654.0,2,0,2,36461,task1,959502,false,false,1186,image-keyboard-response,3
true,10,0,2,2,false,d,false,false,0.0-2.0-0.41-0.370-3.370,0,0,0,81,false,stim,true,0,634.0,2,0,1,36461,task1,961643,false,false,1189,image-keyboard-response,4
true,10,0,2,2,false,d,false,false,0.0-2.0-0.41-0.371-3.371,0,0,0,81,false,stim,true,0,547.0000000001164,2,0,0,36461,task1,963697,false,false,1192,image-keyboard-response,5
true,10,1,2,1,true,z,false,true,0.0-2.0-0.41-0.372-3.372,0,0,0,90,false,stim,false,2,1621.0,2,0,2,36461,task1,966825,false,false,1195,image-keyboard-response,6
true,10,1,2,1,true,z,false,true,0.0-2.0-0.41-0.373-3.373,0,0,0,90,false,stim,false,2,671.9999999998836,2,0,2,36461,task1,969004,false,false,1198,image-keyboard-response,7
true,10,0,2,2,false,d,false,false,0.0-2.0-0.41-0.374-3.374,0,0,0,81,false,stim,true,0,616.0,2,0,0,36461,task1,971133,false,false,1201,image-keyboard-response,8
true,10,0,2,2,false,d,false,false,0.0-2.0-0.41-0.375-3.375,0,0,0,81,false,stim,true,0,754.0,2,0,1,36461,task1,973392,false,false,1204,image-keyboard-response,9
true,10,1,2,2,false,d,true,false,0.0-2.0-0.41-0.376-3.376,0,0,0,90,false,stim,false,0,1257.0,2,0,1,36461,task1,976156,false,false,1207,image-keyboard-response,10
true,10,0,2,2,false,d,false,false,0.0-2.0-0.41-0.377-3.377,0,0,0,81,false,stim,true,0,1621.0,2,0,0,36461,task1,979282,false,false,1210,image-keyboard-response,11
true,10,2,2,1,false,z,false,false,0.0-2.0-0.42-0.378-3.378,0,0,0,68,false,stim,true,2,1773.0,2,0,2,36461,task1,982562,false,false,1213,image-keyboard-response,12
true,10,1,2,2,false,d,true,false,0.0-2.0-0.42-0.379-3.379,0,0,0,90,false,stim,false,0,2136.0,2,0,1,36461,task1,986205,false,false,1216,image-keyboard-response,13
true,10,1,2,2,false,d,true,false,0.0-2.0-0.42-0.380-3.380,0,0,0,90,false,stim,false,0,2147.0,2,0,0,36461,task1,989858,false,false,1219,image-keyboard-response,14
true,10,1,2,1,true,z,false,true,0.0-2.0-0.42-0.381-3.381,0,0,0,90,false,stim,false,2,639.0,2,0,2,36461,task1,992003,false,false,1222,image-keyboard-response,15
true,10,0,2,2,false,d,false,false,0.0-2.0-0.42-0.382-3.382,0,0,0,81,false,stim,true,0,1550.9999999998836,2,0,1,36461,task1,995059,false,false,1225,image-keyboard-response,16
true,10,2,2,2,true,d,false,true,0.0-2.0-0.42-0.383-3.383,0,0,0,68,false,stim,false,0,856.0,2,0,1,36461,task1,997421,false,false,1228,image-keyboard-response,17
true,10,2,2,2,true,d,false,true,0.0-2.0-0.42-0.384-3.384,0,0,0,68,false,stim,false,0,1502.0000000001164,2,0,0,36461,task1,1000431,false,false,1231,image-keyboard-response,18
true,10,2,2,2,true,d,false,true,0.0-2.0-0.42-0.385-3.385,0,0,0,68,false,stim,false,0,609.0000000001164,2,0,0,36461,task1,1002546,false,false,1234,image-keyboard-response,19
true,10,1,2,1,true,z,false,true,0.0-2.0-0.42-0.386-3.386,0,0,0,90,false,stim,false,2,871.0,2,0,2,36461,task1,1004923,false,false,1237,image-keyboard-response,20
true,10,2,2,2,true,d,false,true,0.0-2.0-0.43-0.387-3.387,0,0,0,68,false,stim,false,0,575.0,2,0,1,36461,task1,1007005,false,false,1240,image-keyboard-response,21
true,10,2,2,2,true,d,false,true,0.0-2.0-0.43-0.388-3.388,0,0,0,68,false,stim,false,0,470.0,2,0,0,36461,task1,1008981,false,false,1243,image-keyboard-response,22
true,10,2,2,2,true,d,false,true,0.0-2.0-0.43-0.389-3.389,0,0,0,68,false,stim,false,0,792.0,2,0,1,36461,task1,1011278,false,false,1246,image-keyboard-response,23
true,10,1,2,1,true,z,false,true,0.0-2.0-0.43-0.390-3.390,0,0,0,90,false,stim,false,2,647.0000000001164,2,0,2,36461,task1,1013430,false,false,1249,image-keyboard-response,24
true,10,1,2,1,true,z,false,true,0.0-2.0-0.43-0.391-3.391,0,0,0,90,false,stim,false,2,1023.0,2,0,2,36461,task1,1015958,false,false,1252,image-keyboard-response,25
true,10,2,2,2,true,d,false,true,0.0-2.0-0.43-0.392-3.392,0,0,0,68,false,stim,false,0,475.0000000001164,2,0,0,36461,task1,1017939,false,false,1255,image-keyboard-response,26
true,10,1,2,1,true,z,false,true,0.0-2.0-0.43-0.393-3.393,0,0,0,90,false,stim,false,2,898.0,2,0,2,36461,task1,1020342,false,false,1258,image-keyboard-response,27
true,10,2,2,2,true,d,false,true,0.0-2.0-0.43-0.394-3.394,0,0,0,68,false,stim,false,0,729.0000000001164,2,0,0,36461,task1,1022578,false,false,1261,image-keyboard-response,28
true,10,2,2,2,true,d,false,true,0.0-2.0-0.43-0.395-3.395,0,0,0,68,false,stim,false,0,641.0000000001164,2,0,1,36461,task1,1024725,false,false,1264,image-keyboard-response,29
true,10,1,2,1,true,z,false,true,0.0-2.0-0.44-0.396-3.396,0,0,0,90,false,stim,false,2,876.9999999998836,2,0,2,36461,task1,1027109,false,false,1267,image-keyboard-response,30
true,10,2,2,2,true,d,false,true,0.0-2.0-0.44-0.397-3.397,0,0,0,68,false,stim,false,0,396.9999999998836,2,0,0,36461,task1,1029013,false,false,1270,image-keyboard-response,31
true,10,2,2,2,true,d,false,true,0.0-2.0-0.44-0.398-3.398,0,0,0,68,false,stim,false,0,424.9999999998836,2,0,0,36461,task1,1030945,false,false,1273,image-keyboard-response,32
true,10,2,2,2,true,d,false,true,0.0-2.0-0.44-0.399-3.399,0,0,0,68,false,stim,false,0,496.0000000001164,2,0,1,36461,task1,1032946,false,false,1276,image-keyboard-response,33
true,10,1,2,1,true,z,false,true,0.0-2.0-0.44-0.400-3.400,0,0,0,90,false,stim,false,2,600.0000000001164,2,0,2,36461,task1,1035051,false,false,1279,image-keyboard-response,34
true,10,1,2,1,true,z,false,false,0.0-2.0-0.44-0.401-3.401,0,0,0,90,false,stim,false,2,717.0000000001164,2,0,2,36461,task1,1037274,false,true,1282,image-keyboard-response,35
true,10,2,2,2,true,d,false,true,0.0-2.0-0.44-0.402-3.402,0,0,0,68,false,stim,false,0,1550.0000000001164,2,0,0,36461,task1,1040330,false,false,1285,image-keyboard-response,36
true,10,2,2,2,true,d,false,true,0.0-2.0-0.44-0.403-3.403,0,0,0,68,false,stim,false,0,662.0,2,0,1,36461,task1,1042499,false,false,1288,image-keyboard-response,37
true,10,2,2,2,true,d,false,true,0.0-2.0-0.44-0.404-3.404,0,0,0,68,false,stim,false,0,612.9999999998836,2,0,1,36461,task1,1044618,false,false,1291,image-keyboard-response,38
true,10,1,2,1,true,z,false,true,0.0-2.0-0.45-0.405-3.405,0,0,0,90,false,stim,false,2,778.0,2,0,2,36461,task1,1046903,false,false,1294,image-keyboard-response,39
true,10,2,2,2,true,d,false,true,0.0-2.0-0.45-0.406-3.406,0,0,0,68,false,stim,false,0,934.0,2,0,1,36461,task1,1049344,false,false,1297,image-keyboard-response,40
true,10,1,2,1,true,z,false,true,0.0-2.0-0.45-0.407-3.407,0,0,0,90,false,stim,false,2,658.0,2,0,2,36461,task1,1051507,false,false,1300,image-keyboard-response,41
true,10,1,2,1,true,z,false,true,0.0-2.0-0.45-0.408-3.408,0,0,0,90,false,stim,false,2,894.0,2,0,2,36461,task1,1053914,false,false,1303,image-keyboard-response,42
true,10,2,2,2,true,d,false,true,0.0-2.0-0.45-0.409-3.409,0,0,0,68,false,stim,false,0,1349.0,2,0,1,36461,task1,1056772,false,false,1306,image-keyboard-response,43
true,11,2,1,1,false,z,false,false,0.0-2.0-0.45-0.410-3.410,0,0,0,68,true,stim,true,2,487.0,2,0,0,36461,task1,1058764,false,false,1309,image-keyboard-response,1
true,11,2,1,1,false,z,false,false,0.0-2.0-0.45-0.411-3.411,0,0,0,68,false,stim,true,2,536.0,2,0,0,36461,task1,1060806,false,false,1312,image-keyboard-response,2
true,11,2,1,1,false,z,false,false,0.0-2.0-0.45-0.412-3.412,0,0,0,68,false,stim,true,2,1388.0,2,0,1,36461,task1,1063702,false,false,1315,image-keyboard-response,3
true,11,0,1,1,false,z,true,false,0.0-2.0-0.45-0.413-3.413,0,0,0,81,false,stim,false,2,676.0,2,0,0,36461,task1,1065884,false,false,1318,image-keyboard-response,4
true,11,1,1,2,false,d,false,false,0.0-2.0-0.46-0.414-3.414,0,0,0,90,false,stim,true,1,1179.0,2,0,2,36461,task1,1068569,false,false,1321,image-keyboard-response,5
true,11,2,1,1,false,z,false,false,0.0-2.0-0.46-0.415-3.415,0,0,0,68,false,stim,true,2,2310.0,2,0,1,36461,task1,1072385,false,false,1324,image-keyboard-response,6
true,11,1,1,2,false,d,false,false,0.0-2.0-0.46-0.416-3.416,0,0,0,90,false,stim,true,1,1129.0,2,0,2,36461,task1,1075022,false,false,1327,image-keyboard-response,7
true,11,0,1,2,false,d,true,false,0.0-2.0-0.46-0.417-3.417,0,0,0,81,false,stim,false,1,679.0,2,0,2,36461,task1,1077208,false,false,1330,image-keyboard-response,8
true,11,0,1,1,false,z,true,false,0.0-2.0-0.46-0.418-3.418,0,0,0,81,false,stim,false,2,1237.0,2,0,0,36461,task1,1079952,false,false,1333,image-keyboard-response,9
true,11,1,1,1,true,z,false,true,0.0-2.0-0.46-0.419-3.419,0,0,0,90,false,stim,false,2,1592.0,2,0,1,36461,task1,1083050,false,false,1336,image-keyboard-response,10
true,11,1,1,1,true,z,false,true,0.0-2.0-0.46-0.420-3.420,0,0,0,90,false,stim,false,2,692.0,2,0,1,36461,task1,1085250,false,false,1339,image-keyboard-response,11
true,11,1,1,1,true,z,false,true,0.0-2.0-0.46-0.421-3.421,0,0,0,90,false,stim,false,2,705.0,2,0,0,36461,task1,1087461,false,false,1342,image-keyboard-response,12
true,11,1,1,1,true,z,false,false,0.0-2.0-0.46-0.422-3.422,0,0,0,90,false,stim,false,2,458.00000000023283,2,0,0,36461,task1,1089424,false,true,1345,image-keyboard-response,13
true,11,1,1,1,true,z,false,true,0.0-2.0-0.47-0.423-3.423,0,0,0,90,false,stim,false,2,438.0,2,0,0,36461,task1,1091368,false,false,1348,image-keyboard-response,14
true,11,1,1,1,true,z,false,true,0.0-2.0-0.47-0.424-3.424,0,0,0,90,false,stim,false,2,388.0,2,0,1,36461,task1,1093263,false,false,1351,image-keyboard-response,15
true,11,2,1,2,true,d,false,true,0.0-2.0-0.47-0.425-3.425,0,0,0,68,false,stim,false,1,793.0,2,0,2,36461,task1,1095564,false,false,1354,image-keyboard-response,16
true,11,2,1,2,true,d,false,false,0.0-2.0-0.47-0.426-3.426,0,0,0,68,false,stim,false,1,550.0,2,0,2,36461,task1,1097621,false,true,1357,image-keyboard-response,17
true,11,1,1,1,true,z,false,true,0.0-2.0-0.47-0.427-3.427,0,0,0,90,false,stim,false,2,714.0,2,0,1,36461,task1,1099840,false,false,1360,image-keyboard-response,18
true,11,1,1,1,true,z,false,true,0.0-2.0-0.47-0.428-3.428,0,0,0,90,false,stim,false,2,424.00000000023283,2,0,1,36461,task1,1101769,false,false,1363,image-keyboard-response,19
true,11,1,1,1,true,z,false,true,0.0-2.0-0.47-0.429-3.429,0,0,0,90,false,stim,false,2,450.0,2,0,0,36461,task1,1103726,false,false,1366,image-keyboard-response,20
true,11,2,1,2,true,d,false,true,0.0-2.0-0.47-0.430-3.430,0,0,0,68,false,stim,false,1,643.0000000002328,2,0,2,36461,task1,1105875,false,false,1369,image-keyboard-response,21
true,11,1,1,1,true,z,false,true,0.0-2.0-0.47-0.431-3.431,0,0,0,90,false,stim,false,2,622.0,2,0,0,36461,task1,1108003,false,false,1372,image-keyboard-response,22
true,11,1,1,1,true,z,false,true,0.0-2.0-0.48-0.432-3.432,0,0,0,90,false,stim,false,2,374.0,2,0,0,36461,task1,1109883,false,false,1375,image-keyboard-response,23
true,11,1,1,1,true,z,false,true,0.0-2.0-0.48-0.433-3.433,0,0,0,90,false,stim,false,2,580.0,2,0,1,36461,task1,1111970,false,false,1378,image-keyboard-response,24
true,11,2,1,2,true,d,false,true,0.0-2.0-0.48-0.434-3.434,0,0,0,68,false,stim,false,1,631.0,2,0,2,36461,task1,1114107,false,false,1381,image-keyboard-response,25
true,11,1,1,1,true,z,false,true,0.0-2.0-0.48-0.435-3.435,0,0,0,90,false,stim,false,2,546.0,2,0,0,36461,task1,1116160,false,false,1384,image-keyboard-response,26
true,11,2,1,2,true,d,false,true,0.0-2.0-0.48-0.436-3.436,0,0,0,68,false,stim,false,1,682.0,2,0,2,36461,task1,1118348,false,false,1387,image-keyboard-response,27
true,11,1,1,1,true,z,false,true,0.0-2.0-0.48-0.437-3.437,0,0,0,90,false,stim,false,2,590.0,2,0,1,36461,task1,1120444,false,false,1390,image-keyboard-response,28
true,11,2,1,2,true,d,false,true,0.0-2.0-0.48-0.438-3.438,0,0,0,68,false,stim,false,1,629.0,2,0,2,36461,task1,1122581,false,false,1393,image-keyboard-response,29
true,11,1,1,1,true,z,false,true,0.0-2.0-0.48-0.439-3.439,0,0,0,90,false,stim,false,2,1077.0,2,0,1,36461,task1,1125165,false,false,1396,image-keyboard-response,30
true,11,1,1,1,true,z,false,true,0.0-2.0-0.48-0.440-3.440,0,0,0,90,false,stim,false,2,677.0,2,0,0,36461,task1,1127348,false,false,1399,image-keyboard-response,31
true,11,2,1,2,true,d,false,true,0.0-2.0-0.49-0.441-3.441,0,0,0,68,false,stim,false,1,476.0,2,0,2,36461,task1,1129342,false,false,1402,image-keyboard-response,32
true,11,2,1,2,true,d,false,true,0.0-2.0-0.49-0.442-3.442,0,0,0,68,false,stim,false,1,655.0,2,0,2,36461,task1,1131503,false,false,1405,image-keyboard-response,33
true,11,1,1,1,true,z,false,true,0.0-2.0-0.49-0.443-3.443,0,0,0,90,false,stim,false,2,530.0,2,0,0,36461,task1,1133540,false,false,1408,image-keyboard-response,34
true,11,2,1,2,true,d,false,true,0.0-2.0-0.49-0.444-3.444,0,0,0,68,false,stim,false,1,606.0,2,0,2,36461,task1,1135653,false,false,1411,image-keyboard-response,35
true,11,1,1,1,true,z,false,false,0.0-2.0-0.49-0.445-3.445,0,0,0,90,false,stim,false,2,796.0,2,0,1,36461,task1,1137957,false,true,1414,image-keyboard-response,36
true,11,1,1,1,true,z,false,true,0.0-2.0-0.49-0.446-3.446,0,0,0,90,false,stim,false,2,500.0,2,0,0,36461,task1,1139964,false,false,1417,image-keyboard-response,37
true,11,1,1,1,true,z,false,true,0.0-2.0-0.49-0.447-3.447,0,0,0,90,false,stim,false,2,514.0,2,0,0,36461,task1,1141984,false,false,1420,image-keyboard-response,38
true,11,1,1,1,true,z,false,true,0.0-2.0-0.49-0.448-3.448,0,0,0,90,false,stim,false,2,444.0,2,0,1,36461,task1,1143934,false,false,1423,image-keyboard-response,39
true,11,1,1,1,true,z,false,true,0.0-2.0-0.49-0.449-3.449,0,0,0,90,false,stim,false,2,593.0,2,0,1,36461,task1,1146033,false,false,1426,image-keyboard-response,40
true,11,1,1,1,true,z,false,true,0.0-2.0-0.50-0.450-3.450,0,0,0,90,false,stim,false,2,597.0,2,0,0,36461,task1,1148137,false,false,1429,image-keyboard-response,41
true,11,2,1,2,true,d,false,true,0.0-2.0-0.50-0.451-3.451,0,0,0,68,false,stim,false,1,627.0,2,0,2,36461,task1,1150271,false,false,1432,image-keyboard-response,42
true,11,1,1,1,true,z,false,true,0.0-2.0-0.50-0.452-3.452,0,0,0,90,false,stim,false,2,535.0,2,0,1,36461,task1,1152313,false,false,1435,image-keyboard-response,43
true,12,2,2,1,false,z,false,false,0.0-2.0-0.50-0.453-3.453,0,0,0,68,true,stim,true,2,600.0,2,0,2,36461,task1,1154420,false,false,1438,image-keyboard-response,1
true,12,1,2,2,false,d,false,false,0.0-2.0-0.50-0.454-3.454,0,0,0,90,false,stim,true,1,804.0,2,0,0,36461,task1,1156730,false,false,1441,image-keyboard-response,2
true,12,2,2,1,false,z,false,false,0.0-2.0-0.50-0.455-3.455,0,0,0,68,false,stim,true,2,1104.0,2,0,2,36461,task1,1159341,false,false,1444,image-keyboard-response,3
true,12,1,2,2,false,d,false,false,0.0-2.0-0.50-0.456-3.456,0,0,0,90,false,stim,true,1,591.0,2,0,1,36461,task1,1161439,false,false,1447,image-keyboard-response,4
true,12,1,2,2,false,d,false,false,0.0-2.0-0.50-0.457-3.457,0,0,0,90,false,stim,true,1,571.0,2,0,1,36461,task1,1163516,false,false,1450,image-keyboard-response,5
true,12,0,2,2,false,d,true,false,0.0-2.0-0.50-0.458-3.458,0,0,0,81,false,stim,false,1,589.0,2,0,0,36461,task1,1165612,false,false,1453,image-keyboard-response,6
true,12,2,2,2,true,d,false,true,0.0-2.0-0.51-0.459-3.459,0,0,0,68,false,stim,false,1,885.0,2,0,0,36461,task1,1168005,false,false,1456,image-keyboard-response,7
true,12,1,2,1,true,z,false,true,0.0-2.0-0.51-0.460-3.460,0,0,0,90,false,stim,false,2,1039.0,2,0,2,36461,task1,1170550,false,false,1459,image-keyboard-response,8
true,12,0,2,2,false,d,true,true,0.0-2.0-0.51-0.461-3.461,0,0,0,81,false,stim,false,1,986.0,2,0,1,36461,task1,1173042,false,true,1462,image-keyboard-response,9
true,12,1,2,1,true,z,false,true,0.0-2.0-0.51-0.462-3.462,0,0,0,90,false,stim,false,2,1456.0,2,0,2,36461,task1,1176006,false,false,1465,image-keyboard-response,10
true,12,1,2,1,true,z,false,true,0.0-2.0-0.51-0.463-3.463,0,0,0,90,false,stim,false,2,891.0,2,0,2,36461,task1,1178403,false,false,1468,image-keyboard-response,11
true,12,0,2,2,false,d,true,false,0.0-2.0-0.51-0.464-3.464,0,0,0,81,false,stim,false,1,1222.0,2,0,0,36461,task1,1181131,false,false,1471,image-keyboard-response,12
true,12,0,2,2,false,d,true,false,0.0-2.0-0.51-0.465-3.465,0,0,0,81,false,stim,false,1,1158.0,2,0,1,36461,task1,1183796,false,false,1474,image-keyboard-response,13
true,12,2,2,2,true,d,false,true,0.0-2.0-0.51-0.466-3.466,0,0,0,68,false,stim,false,1,1647.0,2,0,0,36461,task1,1186950,false,false,1477,image-keyboard-response,14
true,12,0,2,2,false,d,true,false,0.0-2.0-0.51-0.467-3.467,0,0,0,81,false,stim,false,1,1216.0,2,0,1,36461,task1,1189672,false,false,1480,image-keyboard-response,15
true,12,0,2,2,false,d,true,false,0.0-2.0-0.52-0.468-3.468,0,0,0,81,false,stim,false,1,462.00000000023283,2,0,1,36461,task1,1191640,false,false,1483,image-keyboard-response,16
true,12,1,2,1,true,z,false,true,0.0-2.0-0.52-0.469-3.469,0,0,0,90,false,stim,false,2,1466.0,2,0,2,36461,task1,1194612,false,false,1486,image-keyboard-response,17
true,12,1,2,1,true,z,false,true,0.0-2.0-0.52-0.470-3.470,0,0,0,90,false,stim,false,2,442.0,2,0,2,36461,task1,1196563,false,false,1489,image-keyboard-response,18
true,12,1,2,1,true,z,false,true,0.0-2.0-0.52-0.471-3.471,0,0,0,90,false,stim,false,2,598.0,2,0,2,36461,task1,1198667,false,false,1492,image-keyboard-response,19
true,12,0,2,2,false,d,true,false,0.0-2.0-0.52-0.472-3.472,0,0,0,81,false,stim,false,1,711.0,2,0,1,36461,task1,1200885,false,false,1495,image-keyboard-response,20
true,12,2,2,2,true,d,false,true,0.0-2.0-0.52-0.473-3.473,0,0,0,68,false,stim,false,1,1381.0,2,0,0,36461,task1,1203773,false,false,1498,image-keyboard-response,21
true,12,1,2,2,false,d,false,false,0.0-2.0-0.52-0.474-3.474,0,0,0,90,false,stim,true,1,1149.0000000002328,2,0,1,36461,task1,1206438,false,false,1501,image-keyboard-response,22
true,12,2,2,2,true,d,false,false,0.0-2.0-0.52-0.475-3.475,0,0,0,68,false,stim,false,1,1578.0,2,0,0,36461,task1,1209521,false,true,1504,image-keyboard-response,23
true,12,2,2,2,true,d,false,true,0.0-2.0-0.52-0.476-3.476,0,0,0,68,false,stim,false,1,464.0,2,0,0,36461,task1,1211492,false,false,1507,image-keyboard-response,24
true,12,1,2,1,true,z,false,true,0.0-2.0-0.53-0.477-3.477,0,0,0,90,false,stim,false,2,1373.0,2,0,2,36461,task1,1214372,false,false,1510,image-keyboard-response,25
true,12,1,2,1,true,z,false,true,0.0-2.0-0.53-0.478-3.478,0,0,0,90,false,stim,false,2,1362.0,2,0,2,36461,task1,1217242,false,false,1513,image-keyboard-response,26
true,12,2,2,2,true,d,false,true,0.0-2.0-0.53-0.479-3.479,0,0,0,68,false,stim,false,1,529.0,2,0,1,36461,task1,1219277,false,false,1516,image-keyboard-response,27
true,12,2,2,2,true,d,false,true,0.0-2.0-0.53-0.480-3.480,0,0,0,68,false,stim,false,1,503.99999999976717,2,0,1,36461,task1,1221288,false,false,1519,image-keyboard-response,28
true,12,2,2,2,true,d,false,true,0.0-2.0-0.53-0.481-3.481,0,0,0,68,false,stim,false,1,393.0,2,0,0,36461,task1,1223188,false,false,1522,image-keyboard-response,29
true,12,1,2,1,true,z,false,true,0.0-2.0-0.53-0.482-3.482,0,0,0,90,false,stim,false,2,730.0,2,0,2,36461,task1,1225426,false,false,1525,image-keyboard-response,30
true,12,2,2,2,true,d,false,true,0.0-2.0-0.53-0.483-3.483,0,0,0,68,false,stim,false,1,1213.0,2,0,0,36461,task1,1228145,false,false,1528,image-keyboard-response,31
true,12,2,2,2,true,d,false,true,0.0-2.0-0.53-0.484-3.484,0,0,0,68,false,stim,false,1,432.0,2,0,1,36461,task1,1230083,false,false,1531,image-keyboard-response,32
true,12,2,2,2,true,d,false,true,0.0-2.0-0.53-0.485-3.485,0,0,0,68,false,stim,false,1,501.00000000023283,2,0,0,36461,task1,1232091,false,false,1534,image-keyboard-response,33
true,12,2,2,2,true,d,false,true,0.0-2.0-0.54-0.486-3.486,0,0,0,68,false,stim,false,1,457.99999999976717,2,0,0,36461,task1,1234059,false,false,1537,image-keyboard-response,34
true,12,2,2,2,true,d,false,true,0.0-2.0-0.54-0.487-3.487,0,0,0,68,false,stim,false,1,966.0,2,0,1,36461,task1,1236531,false,false,1540,image-keyboard-response,35
true,12,2,2,2,true,d,false,true,0.0-2.0-0.54-0.488-3.488,0,0,0,68,false,stim,false,1,527.0,2,0,1,36461,task1,1238565,false,false,1543,image-keyboard-response,36
true,12,2,2,1,false,z,false,false,0.0-2.0-0.54-0.489-3.489,0,0,0,68,false,stim,true,2,791.9999999997672,2,0,2,36461,task1,1240863,false,false,1546,image-keyboard-response,37
true,12,2,2,2,true,d,false,true,0.0-2.0-0.54-0.490-3.490,0,0,0,68,false,stim,false,1,651.0,2,0,0,36461,task1,1243022,false,false,1549,image-keyboard-response,38
true,12,2,2,2,true,d,false,true,0.0-2.0-0.54-0.491-3.491,0,0,0,68,false,stim,false,1,613.0,2,0,0,36461,task1,1245141,false,false,1552,image-keyboard-response,39
true,12,1,2,2,false,d,false,false,0.0-2.0-0.54-0.492-3.492,0,0,0,90,false,stim,true,1,913.0,2,0,1,36461,task1,1247561,false,false,1555,image-keyboard-response,40
true,12,1,2,1,true,z,false,true,0.0-2.0-0.54-0.493-3.493,0,0,0,90,false,stim,false,2,1267.0,2,0,2,36461,task1,1250334,false,false,1558,image-keyboard-response,41
true,13,1,2,0,false,q,false,false,0.0-2.0-0.54-0.494-3.494,0,0,0,90,true,stim,true,1,791.0,2,0,2,36461,task1,1252634,false,false,1561,image-keyboard-response,1
true,13,1,2,0,false,q,false,false,0.0-2.0-0.55-0.495-3.495,0,0,0,90,false,stim,true,1,404.0,2,0,2,36461,task1,1254545,false,false,1564,image-keyboard-response,2
true,13,2,2,1,false,z,false,true,0.0-2.0-0.55-0.496-3.496,0,0,0,68,false,stim,true,2,838.0,2,0,1,36461,task1,1256888,false,true,1567,image-keyboard-response,3
true,13,2,2,0,false,q,false,false,0.0-2.0-0.55-0.497-3.497,0,0,0,68,false,stim,true,2,534.0,2,0,0,36461,task1,1258929,false,false,1570,image-keyboard-response,4
true,13,2,2,0,false,q,true,false,0.0-2.0-0.55-0.498-3.498,0,0,0,68,false,stim,false,1,653.0000000002328,2,0,2,36461,task1,1261090,false,false,1573,image-keyboard-response,5
true,13,2,2,1,false,z,false,false,0.0-2.0-0.55-0.499-3.499,0,0,0,68,false,stim,true,2,1396.0,2,0,1,36461,task1,1263992,false,false,1576,image-keyboard-response,6
true,13,2,2,1,false,z,false,false,0.0-2.0-0.55-0.500-3.500,0,0,0,68,false,stim,true,2,1182.0,2,0,1,36461,task1,1266679,false,false,1579,image-keyboard-response,7
true,13,2,2,0,false,q,false,false,0.0-2.0-0.55-0.501-3.501,0,0,0,68,false,stim,true,2,778.0000000002328,2,0,0,36461,task1,1268964,false,false,1582,image-keyboard-response,8
true,13,2,2,0,false,q,false,false,0.0-2.0-0.55-0.502-3.502,0,0,0,68,false,stim,true,2,621.0,2,0,0,36461,task1,1271093,false,false,1585,image-keyboard-response,9
true,13,1,2,0,false,q,false,false,0.0-2.0-0.55-0.503-3.503,0,0,0,90,false,stim,true,1,686.0,2,0,2,36461,task1,1273286,false,false,1588,image-keyboard-response,10
true,13,1,2,0,false,q,false,false,0.0-2.0-0.56-0.504-3.504,0,0,0,90,false,stim,true,1,822.0,2,0,2,36461,task1,1275615,false,false,1591,image-keyboard-response,11
true,13,0,2,0,true,q,false,true,0.0-2.0-0.56-0.505-3.505,0,0,0,81,false,stim,false,2,916.0,2,0,0,36461,task1,1278037,false,false,1594,image-keyboard-response,12
true,13,0,2,0,true,q,false,true,0.0-2.0-0.56-0.506-3.506,0,0,0,81,false,stim,false,1,925.0,2,0,2,36461,task1,1280470,false,false,1597,image-keyboard-response,13
true,13,0,2,0,true,q,false,true,0.0-2.0-0.56-0.507-3.507,0,0,0,81,false,stim,false,1,724.0,2,0,2,36461,task1,1282701,false,false,1600,image-keyboard-response,14
true,13,0,2,0,true,q,false,true,0.0-2.0-0.56-0.508-3.508,0,0,0,81,false,stim,false,2,696.0,2,0,0,36461,task1,1284914,false,false,1603,image-keyboard-response,15
true,13,0,2,1,false,z,true,false,0.0-2.0-0.56-0.509-3.509,0,0,0,81,false,stim,false,2,761.0,2,0,1,36461,task1,1287181,false,false,1606,image-keyboard-response,16
true,13,1,2,1,true,z,false,true,0.0-2.0-0.56-0.510-3.510,0,0,0,90,false,stim,false,2,446.0,2,0,1,36461,task1,1289134,false,false,1609,image-keyboard-response,17
true,13,1,2,1,true,z,false,true,0.0-2.0-0.56-0.511-3.511,0,0,0,90,false,stim,false,2,904.0,2,0,1,36461,task1,1291546,false,false,1612,image-keyboard-response,18
true,13,0,2,0,true,q,false,true,0.0-2.0-0.56-0.512-3.512,0,0,0,81,false,stim,false,2,594.0,2,0,0,36461,task1,1293646,false,false,1615,image-keyboard-response,19
true,13,1,2,1,true,z,false,true,0.0-2.0-0.57-0.513-3.513,0,0,0,90,false,stim,false,2,781.0,2,0,1,36461,task1,1295934,false,false,1618,image-keyboard-response,20
true,13,0,2,0,true,q,false,true,0.0-2.0-0.57-0.514-3.514,0,0,0,81,false,stim,false,2,538.0,2,0,0,36461,task1,1297979,false,false,1621,image-keyboard-response,21
true,13,0,2,0,true,q,false,true,0.0-2.0-0.57-0.515-3.515,0,0,0,81,false,stim,false,1,506.0,2,0,2,36461,task1,1299993,false,false,1624,image-keyboard-response,22
true,13,0,2,0,true,q,false,true,0.0-2.0-0.57-0.516-3.516,0,0,0,81,false,stim,false,2,614.0,2,0,0,36461,task1,1302113,false,false,1627,image-keyboard-response,23
true,13,1,2,1,true,z,false,true,0.0-2.0-0.57-0.517-3.517,0,0,0,90,false,stim,false,2,678.0,2,0,1,36461,task1,1304297,false,false,1630,image-keyboard-response,24
true,13,0,2,0,true,q,false,false,0.0-2.0-0.57-0.518-3.518,0,0,0,81,false,stim,false,2,615.0,2,0,0,36461,task1,1306419,false,true,1633,image-keyboard-response,25
true,13,0,2,0,true,q,false,false,0.0-2.0-0.57-0.519-3.519,0,0,0,81,false,stim,false,1,562.0,2,0,2,36461,task1,1308488,false,true,1636,image-keyboard-response,26
true,13,0,2,0,true,q,false,true,0.0-2.0-0.57-0.520-3.520,0,0,0,81,false,stim,false,1,497.00000000023283,2,0,2,36461,task1,1310491,false,false,1639,image-keyboard-response,27
true,13,1,2,1,true,z,false,true,0.0-2.0-0.57-0.521-3.521,0,0,0,90,false,stim,false,2,716.0,2,0,1,36461,task1,1312714,false,false,1642,image-keyboard-response,28
true,13,0,2,0,true,q,false,true,0.0-2.0-0.58-0.522-3.522,0,0,0,81,false,stim,false,1,975.0,2,0,2,36461,task1,1315198,false,false,1645,image-keyboard-response,29
true,13,0,2,0,true,q,false,true,0.0-2.0-0.58-0.523-3.523,0,0,0,81,false,stim,false,2,583.0,2,0,0,36461,task1,1317288,false,false,1648,image-keyboard-response,30
true,13,1,2,1,true,z,false,true,0.0-2.0-0.58-0.524-3.524,0,0,0,90,false,stim,false,2,721.0,2,0,1,36461,task1,1319516,false,false,1651,image-keyboard-response,31
true,13,1,2,1,true,z,false,true,0.0-2.0-0.58-0.525-3.525,0,0,0,90,false,stim,false,2,516.0,2,0,1,36461,task1,1321538,false,false,1654,image-keyboard-response,32
true,13,0,2,0,true,q,false,true,0.0-2.0-0.58-0.526-3.526,0,0,0,81,false,stim,false,2,602.0,2,0,0,36461,task1,1323647,false,false,1657,image-keyboard-response,33
true,13,1,2,1,true,z,false,true,0.0-2.0-0.58-0.527-3.527,0,0,0,90,false,stim,false,2,904.0000000002328,2,0,1,36461,task1,1326057,false,false,1660,image-keyboard-response,34
true,13,0,2,0,true,q,false,true,0.0-2.0-0.58-0.528-3.528,0,0,0,81,false,stim,false,2,568.0,2,0,0,36461,task1,1328131,false,false,1663,image-keyboard-response,35
true,13,0,2,0,true,q,false,true,0.0-2.0-0.58-0.529-3.529,0,0,0,81,false,stim,false,1,568.0,2,0,2,36461,task1,1330207,false,false,1666,image-keyboard-response,36
true,13,0,2,0,true,q,false,true,0.0-2.0-0.58-0.530-3.530,0,0,0,81,false,stim,false,1,589.0,2,1,2,36461,task1,1332302,false,false,1669,image-keyboard-response,37
true,13,1,2,1,true,z,false,true,0.0-2.0-0.59-0.531-3.531,0,0,0,90,false,stim,false,2,572.0,2,1,1,36461,task1,1334380,false,false,1672,image-keyboard-response,38
true,13,0,2,0,true,q,false,true,0.0-2.0-0.59-0.532-3.532,0,0,0,81,false,stim,false,1,526.0,2,1,2,36461,task1,1336412,false,false,1675,image-keyboard-response,39
true,13,0,2,0,true,q,false,true,0.0-2.0-0.59-0.533-3.533,0,0,0,81,false,stim,false,2,462.0,2,1,0,36461,task1,1338382,false,false,1678,image-keyboard-response,40
true,13,1,2,1,true,z,false,true,0.0-2.0-0.59-0.534-3.534,0,0,0,90,false,stim,false,2,755.0000000002328,2,1,1,36461,task1,1340644,false,false,1681,image-keyboard-response,41
true,14,0,0,0,true,q,false,true,0.0-2.0-0.59-0.535-3.535,1,1,1,81,true,stim,false,0,1848.0,2,1,2,36461,task1,1464297,false,false,1804,image-keyboard-response,1
true,14,1,0,0,false,q,true,false,0.0-2.0-0.59-0.536-3.536,1,1,1,90,false,stim,false,0,846.0,2,1,0,36461,task1,1466649,false,false,1807,image-keyboard-response,2
true,14,0,0,1,false,z,true,false,0.0-2.0-0.59-0.537-3.537,1,1,1,81,false,stim,false,1,818.9999999997672,2,1,1,36461,task1,1468976,false,false,1810,image-keyboard-response,3
true,14,0,0,0,true,q,false,true,0.0-2.0-0.59-0.538-3.538,1,1,1,81,false,stim,false,0,645.0000000002328,2,1,2,36461,task1,1471128,false,false,1813,image-keyboard-response,4
true,14,0,0,0,true,q,false,true,0.0-2.0-0.59-0.539-3.539,1,1,1,81,false,stim,false,0,816.0,2,1,0,36461,task1,1473451,false,false,1816,image-keyboard-response,5
true,14,0,0,0,true,q,false,false,0.0-2.0-0.60-0.540-3.540,1,1,1,81,false,stim,false,0,1452.0,2,1,2,36461,task1,1476411,false,true,1819,image-keyboard-response,6
true,14,0,0,0,true,q,false,true,0.0-2.0-0.60-0.541-3.541,1,1,1,81,false,stim,false,0,394.0,2,1,2,36461,task1,1478312,false,false,1822,image-keyboard-response,7
true,14,0,0,1,false,z,true,false,0.0-2.0-0.60-0.542-3.542,1,1,1,81,false,stim,false,1,1161.9999999997672,2,1,1,36461,task1,1480982,false,false,1825,image-keyboard-response,8
true,14,0,0,0,true,q,false,false,0.0-2.0-0.60-0.543-3.543,1,1,1,81,false,stim,false,0,455.00000000023283,2,0,0,36461,task1,1482944,false,true,1828,image-keyboard-response,9
true,14,1,0,1,true,z,false,true,0.0-2.0-0.60-0.544-3.544,1,1,1,90,false,stim,false,1,1081.0,2,0,1,36461,task1,1485532,false,false,1831,image-keyboard-response,10
true,14,0,0,0,true,q,false,true,0.0-2.0-0.60-0.545-3.545,1,1,1,81,false,stim,false,0,536.0,2,0,2,36461,task1,1487575,false,false,1834,image-keyboard-response,11
true,14,0,0,0,true,q,false,true,0.0-2.0-0.60-0.546-3.546,1,1,1,81,false,stim,false,0,397.0,2,0,0,36461,task1,1489480,false,false,1837,image-keyboard-response,12
true,14,1,0,1,true,z,false,true,0.0-2.0-0.60-0.547-3.547,1,1,1,90,false,stim,false,1,765.0000000002328,2,0,1,36461,task1,1491752,false,false,1840,image-keyboard-response,13
true,15,0,1,1,false,z,false,true,0.0-2.0-0.60-0.548-3.548,0,0,0,81,true,stim,true,0,865.0,2,0,0,36461,task1,1494124,false,true,1843,image-keyboard-response,1
true,15,1,1,0,false,q,false,false,0.0-2.0-0.61-0.549-3.549,0,0,0,90,false,stim,true,1,691.0,2,0,1,36461,task1,1496323,false,false,1846,image-keyboard-response,2
true,15,0,1,2,false,d,false,false,0.0-2.0-0.61-0.550-3.550,0,0,0,81,false,stim,true,0,631.0,2,0,2,36461,task1,1498460,false,false,1849,image-keyboard-response,3
true,15,0,1,1,false,z,false,false,0.0-2.0-0.61-0.551-3.551,0,0,0,81,false,stim,true,0,492.0,2,0,0,36461,task1,1500458,false,false,1852,image-keyboard-response,4
true,15,0,1,2,false,d,false,false,0.0-2.0-0.61-0.552-3.552,0,0,0,81,false,stim,true,0,831.0,2,0,2,36461,task1,1502796,false,false,1855,image-keyboard-response,5
true,15,0,1,1,false,z,false,false,0.0-2.0-0.61-0.553-3.553,0,0,0,81,false,stim,true,0,759.0,2,0,0,36461,task1,1505062,false,false,1858,image-keyboard-response,6
true,15,1,1,0,false,q,false,false,0.0-2.0-0.61-0.554-3.554,0,0,0,90,false,stim,true,1,468.0,2,0,1,36461,task1,1507035,false,false,1861,image-keyboard-response,7
true,15,1,1,0,false,q,false,false,0.0-2.0-0.61-0.555-3.555,0,0,0,90,false,stim,true,1,452.0,2,0,1,36461,task1,1508994,false,false,1864,image-keyboard-response,8
true,15,1,1,1,true,z,false,false,0.0-2.0-0.61-0.556-3.556,0,0,0,90,false,stim,false,0,1676.9999999997672,2,0,0,36461,task1,1512178,false,true,1867,image-keyboard-response,9
true,15,1,1,2,false,d,true,false,0.0-2.0-0.61-0.557-3.557,0,0,0,90,false,stim,false,0,1064.0,2,0,2,36461,task1,1514749,false,false,1870,image-keyboard-response,10
true,15,2,1,2,true,d,false,true,0.0-2.0-0.62-0.558-3.558,0,0,0,68,false,stim,false,0,607.0,2,0,2,36461,task1,1516863,false,false,1873,image-keyboard-response,11
true,15,2,1,1,false,z,true,false,0.0-2.0-0.62-0.559-3.559,0,0,0,68,false,stim,false,0,479.0,2,0,0,36461,task1,1518848,false,false,1876,image-keyboard-response,12
true,15,2,1,0,false,q,true,false,0.0-2.0-0.62-0.560-3.560,0,0,0,68,false,stim,false,1,1026.0,2,0,1,36461,task1,1521381,false,false,1879,image-keyboard-response,13
true,15,1,1,0,false,q,false,false,0.0-2.0-0.62-0.561-3.561,0,0,0,90,false,stim,true,1,476.0,2,0,1,36461,task1,1523364,false,false,1882,image-keyboard-response,14
true,15,0,1,1,false,z,false,false,0.0-2.0-0.62-0.562-3.562,0,0,0,81,false,stim,true,0,1398.0,2,0,0,36461,task1,1526268,false,false,1885,image-keyboard-response,15
true,15,1,1,1,true,z,false,true,0.0-2.0-0.62-0.563-3.563,0,0,0,90,false,stim,false,0,994.0000000002328,2,0,0,36461,task1,1528769,false,false,1888,image-keyboard-response,16
true,15,2,1,2,true,d,false,true,0.0-2.0-0.62-0.564-3.564,0,0,0,68,false,stim,false,0,849.0000000002328,2,0,2,36461,task1,1531125,false,false,1891,image-keyboard-response,17
true,15,1,1,0,false,q,false,false,0.0-2.0-0.62-0.565-3.565,0,0,0,90,false,stim,true,1,792.0,2,0,1,36461,task1,1533423,false,false,1894,image-keyboard-response,18
true,15,2,1,2,true,d,false,true,0.0-2.0-0.62-0.566-3.566,0,0,0,68,false,stim,false,0,795.0,2,0,2,36461,task1,1535725,false,false,1897,image-keyboard-response,19
true,15,0,1,0,true,q,false,true,0.0-2.0-0.63-0.567-3.567,0,0,0,81,false,stim,false,1,1028.0,2,0,1,36461,task1,1538262,false,false,1900,image-keyboard-response,20
true,15,1,1,1,true,z,false,true,0.0-2.0-0.63-0.568-3.568,0,0,0,90,false,stim,false,0,649.9999999997672,2,0,0,36461,task1,1540429,false,false,1903,image-keyboard-response,21
true,15,0,1,0,true,q,false,true,0.0-2.0-0.63-0.569-3.569,0,0,0,81,false,stim,false,1,623.0,2,0,1,36461,task1,1542560,false,false,1906,image-keyboard-response,22
true,15,0,1,0,true,q,false,true,0.0-2.0-0.63-0.570-3.570,0,0,0,81,false,stim,false,1,1216.9999999997672,2,0,1,36461,task1,1545283,false,false,1909,image-keyboard-response,23
true,15,1,1,1,true,z,false,false,0.0-2.0-0.63-0.571-3.571,0,0,0,90,false,stim,false,0,432.0,2,0,0,36461,task1,1547224,false,true,1912,image-keyboard-response,24
true,15,1,1,1,true,z,false,true,0.0-2.0-0.63-0.572-3.572,0,0,0,90,false,stim,false,0,453.0,2,0,0,36461,task1,1549184,false,false,1915,image-keyboard-response,25
true,15,2,1,2,true,d,false,true,0.0-2.0-0.63-0.573-3.573,0,0,0,68,false,stim,false,0,675.9999999997672,2,0,2,36461,task1,1551368,false,false,1918,image-keyboard-response,26
true,15,2,1,2,true,d,false,false,0.0-2.0-0.63-0.574-3.574,0,0,0,68,false,stim,false,0,483.99999999976717,2,0,2,36461,task1,1553358,false,true,1921,image-keyboard-response,27
true,15,2,1,2,true,d,false,true,0.0-2.0-0.63-0.575-3.575,0,0,0,68,false,stim,false,0,497.99999999976717,2,0,2,36461,task1,1555363,false,false,1924,image-keyboard-response,28
true,15,0,1,0,true,q,false,false,0.0-2.0-0.64-0.576-3.576,0,0,0,81,false,stim,false,1,1009.0,2,0,1,36461,task1,1557880,false,true,1927,image-keyboard-response,29
true,15,2,1,2,true,d,false,true,0.0-2.0-0.64-0.577-3.577,0,0,0,68,false,stim,false,0,1005.0,2,0,2,36461,task1,1560392,false,false,1930,image-keyboard-response,30
true,15,1,1,1,true,z,false,true,0.0-2.0-0.64-0.578-3.578,0,0,0,90,false,stim,false,0,1900.0,2,0,0,36461,task1,1563799,false,false,1933,image-keyboard-response,31
true,15,2,1,2,true,d,false,true,0.0-2.0-0.64-0.579-3.579,0,0,0,68,false,stim,false,0,666.9999999997672,2,0,2,36461,task1,1565973,false,false,1936,image-keyboard-response,32
true,15,2,1,2,true,d,false,true,0.0-2.0-0.64-0.580-3.580,0,0,0,68,false,stim,false,0,728.0,2,0,2,36461,task1,1568206,false,false,1939,image-keyboard-response,33
true,15,0,1,0,true,q,false,true,0.0-2.0-0.64-0.581-3.581,0,0,0,81,false,stim,false,1,874.0,2,0,1,36461,task1,1570589,false,false,1942,image-keyboard-response,34
true,15,1,1,1,true,z,false,true,0.0-2.0-0.64-0.582-3.582,0,0,0,90,false,stim,false,0,1300.0,2,0,0,36461,task1,1573396,false,false,1945,image-keyboard-response,35
true,15,1,1,1,true,z,false,true,0.0-2.0-0.64-0.583-3.583,0,0,0,90,false,stim,false,0,900.0,2,0,0,36461,task1,1575803,false,false,1948,image-keyboard-response,36
true,15,0,1,0,true,q,false,false,0.0-2.0-0.64-0.584-3.584,0,0,0,81,false,stim,false,1,1157.0,2,0,1,36461,task1,1578467,false,true,1951,image-keyboard-response,37
true,15,0,1,0,true,q,false,true,0.0-2.0-0.65-0.585-3.585,0,0,0,81,false,stim,false,1,480.0,2,0,1,36461,task1,1580456,false,false,1954,image-keyboard-response,38
true,15,1,1,1,true,z,false,true,0.0-2.0-0.65-0.586-3.586,0,0,0,90,false,stim,false,0,764.0,2,0,0,36461,task1,1582727,false,false,1957,image-keyboard-response,39
true,15,0,1,0,true,q,false,true,0.0-2.0-0.65-0.587-3.587,0,0,0,81,false,stim,false,1,1016.0,2,0,1,36461,task1,1585250,false,false,1960,image-keyboard-response,40
true,15,2,1,2,true,d,false,true,0.0-2.0-0.65-0.588-3.588,0,0,0,68,false,stim,false,0,817.9999999997672,2,0,2,36461,task1,1587575,false,false,1963,image-keyboard-response,41
true,16,1,2,0,false,q,false,false,0.0-2.0-0.65-0.589-3.589,0,0,0,90,true,stim,true,1,1312.0,2,0,0,36461,task1,1590394,false,false,1966,image-keyboard-response,1
true,16,0,2,1,false,z,false,false,0.0-2.0-0.65-0.590-3.590,0,0,0,81,false,stim,true,0,586.0,2,0,1,36461,task1,1592490,false,false,1969,image-keyboard-response,2
true,16,2,2,0,false,q,false,false,0.0-2.0-0.65-0.591-3.591,0,0,0,68,false,stim,true,2,837.9999999997672,2,0,2,36461,task1,1594835,false,false,1972,image-keyboard-response,3
true,16,2,2,0,false,q,false,false,0.0-2.0-0.65-0.592-3.592,0,0,0,68,false,stim,true,2,493.0,2,0,2,36461,task1,1596835,false,false,1975,image-keyboard-response,4
true,16,0,2,0,true,q,false,true,0.0-2.0-0.65-0.593-3.593,0,0,0,81,false,stim,false,1,728.0,2,0,0,36461,task1,1599070,false,false,1978,image-keyboard-response,5
true,16,0,2,0,true,q,false,true,0.0-2.0-0.66-0.594-3.594,0,0,0,81,false,stim,false,1,462.0,2,0,0,36461,task1,1601040,false,false,1981,image-keyboard-response,6
true,16,0,2,0,true,q,false,true,0.0-2.0-0.66-0.595-3.595,0,0,0,81,false,stim,false,1,360.0,2,0,0,36461,task1,1602907,false,false,1984,image-keyboard-response,7
true,16,0,2,0,true,q,false,true,0.0-2.0-0.66-0.596-3.596,0,0,0,81,false,stim,false,2,846.0,2,0,2,36461,task1,1605260,false,false,1987,image-keyboard-response,8
true,16,0,2,1,false,z,false,false,0.0-2.0-0.66-0.597-3.597,0,0,0,81,false,stim,true,0,851.0,2,0,1,36461,task1,1607619,false,false,1990,image-keyboard-response,9
true,16,0,2,0,true,q,false,false,0.0-2.0-0.66-0.598-3.598,0,0,0,81,false,stim,false,1,809.0,2,0,0,36461,task1,1609933,false,true,1993,image-keyboard-response,10
true,16,0,2,0,true,q,false,true,0.0-2.0-0.66-0.599-3.599,0,0,0,81,false,stim,false,2,422.0,2,0,2,36461,task1,1611862,false,false,1996,image-keyboard-response,11
true,16,0,2,0,true,q,false,true,0.0-2.0-0.66-0.600-3.600,0,0,0,81,false,stim,false,2,509.0,2,0,2,36461,task1,1613878,false,false,1999,image-keyboard-response,12
true,16,1,2,1,true,z,false,true,0.0-2.0-0.66-0.601-3.601,0,0,0,90,false,stim,false,0,1140.0,2,0,1,36461,task1,1616538,false,false,2002,image-keyboard-response,13
true,16,1,2,1,true,z,false,false,0.0-2.0-0.66-0.602-3.602,0,0,0,90,false,stim,false,0,591.0,2,0,1,36461,task1,1618636,false,true,2005,image-keyboard-response,14
true,16,0,2,0,true,q,false,true,0.0-2.0-0.67-0.603-3.603,0,0,0,81,false,stim,false,2,771.0,2,0,2,36461,task1,1620916,false,false,2008,image-keyboard-response,15
true,16,0,2,0,true,q,false,true,0.0-2.0-0.67-0.604-3.604,0,0,0,81,false,stim,false,1,497.0,2,0,0,36461,task1,1622919,false,false,2011,image-keyboard-response,16
true,16,1,2,1,true,z,false,true,0.0-2.0-0.67-0.605-3.605,0,0,0,90,false,stim,false,0,600.0,2,0,1,36461,task1,1625027,false,false,2014,image-keyboard-response,17
true,16,0,2,0,true,q,false,true,0.0-2.0-0.67-0.606-3.606,0,0,0,81,false,stim,false,1,531.0000000002328,2,0,0,36461,task1,1627064,false,false,2017,image-keyboard-response,18
true,16,1,2,1,true,z,false,true,0.0-2.0-0.67-0.607-3.607,0,0,0,90,false,stim,false,0,723.0,2,0,1,36461,task1,1629295,false,false,2020,image-keyboard-response,19
true,16,0,2,0,true,q,false,true,0.0-2.0-0.67-0.608-3.608,0,0,0,81,false,stim,false,2,539.0000000002328,2,0,2,36461,task1,1631341,false,false,2023,image-keyboard-response,20
true,16,1,2,1,true,z,false,true,0.0-2.0-0.67-0.609-3.609,0,0,0,90,false,stim,false,0,774.0,2,0,1,36461,task1,1633622,false,false,2026,image-keyboard-response,21
true,16,0,2,0,true,q,false,true,0.0-2.0-0.67-0.610-3.610,0,0,0,81,false,stim,false,2,617.0,2,0,2,36461,task1,1635746,false,false,2029,image-keyboard-response,22
true,16,0,2,0,true,q,false,true,0.0-2.0-0.67-0.611-3.611,0,0,0,81,false,stim,false,1,504.0,2,0,0,36461,task1,1637757,false,false,2032,image-keyboard-response,23
true,16,0,2,0,true,q,false,true,0.0-2.0-0.68-0.612-3.612,0,0,0,81,false,stim,false,1,537.0000000002328,2,0,0,36461,task1,1639803,false,false,2035,image-keyboard-response,24
true,16,1,2,1,true,z,false,true,0.0-2.0-0.68-0.613-3.613,0,0,0,90,false,stim,false,0,657.0,2,0,1,36461,task1,1641966,false,false,2038,image-keyboard-response,25
true,16,0,2,0,true,q,false,true,0.0-2.0-0.68-0.614-3.614,0,0,0,81,false,stim,false,2,476.0,2,0,2,36461,task1,1643949,false,false,2041,image-keyboard-response,26
true,16,0,2,0,true,q,false,true,0.0-2.0-0.68-0.615-3.615,0,0,0,81,false,stim,false,2,500.0,2,0,2,36461,task1,1645956,false,false,2044,image-keyboard-response,27
true,16,0,2,0,true,q,false,true,0.0-2.0-0.68-0.616-3.616,0,0,0,81,false,stim,false,2,606.0,2,0,2,36461,task1,1648070,false,false,2047,image-keyboard-response,28
