answered,blockNum,choice,condition,corResp,correct,correct_response,explo,fb,internal_node_id,isStable_1,isStable_2,isStable_3,key_press,newBlock,part,persev,persevResp,rt,sessNum,stableAS,stimulus,subject,task,time_elapsed,training,trap,trial_index,trial_type,trialsInBlock
true,1,1,0,1,true,z,false,true,0.0-2.0-0.0-0.0-3.0,0,0,0,90,true,stim,false,-1,620,1,0,1,36518,task1,66793,false,false,79,image-keyboard-response,1
true,1,0,0,2,false,d,true,false,0.0-2.0-0.0-0.1-3.1,0,0,0,81,false,stim,false,-1,745,1,0,2,36518,task1,69067,false,false,82,image-keyboard-response,2
true,1,1,0,1,true,z,false,true,0.0-2.0-0.0-0.2-3.2,0,0,0,90,false,stim,false,-1,1042,1,0,0,36518,task1,71634,false,false,85,image-keyboard-response,3
true,1,1,0,1,true,z,false,true,0.0-2.0-0.0-0.3-3.3,0,0,0,90,false,stim,false,-1,494,1,0,0,36518,task1,73658,false,false,88,image-keyboard-response,4
true,1,1,0,1,true,z,false,true,0.0-2.0-0.0-0.4-3.4,0,0,0,90,false,stim,false,-1,380,1,0,1,36518,task1,75564,false,false,91,image-keyboard-response,5
true,1,2,0,2,true,d,false,true,0.0-2.0-0.0-0.5-3.5,0,0,0,68,false,stim,false,-1,436,1,0,2,36518,task1,77517,false,false,94,image-keyboard-response,6
true,1,2,0,2,true,d,false,false,0.0-2.0-0.0-0.6-3.6,0,0,0,68,false,stim,false,-1,376,1,0,2,36518,task1,79419,false,true,97,image-keyboard-response,7
true,1,1,0,1,true,z,false,true,0.0-2.0-0.0-0.7-3.7,0,0,0,90,false,stim,false,-1,475,1,0,0,36518,task1,81428,false,false,100,image-keyboard-response,8
true,1,1,0,1,true,z,false,false,0.0-2.0-0.0-0.8-3.8,0,0,0,90,false,stim,false,-1,472,1,0,1,36518,task1,83423,false,true,103,image-keyboard-response,9
true,1,1,0,1,true,z,false,true,0.0-2.0-0.1-0.9-3.9,0,0,0,90,false,stim,false,-1,332,1,0,1,36518,task1,85275,false,false,106,image-keyboard-response,10
true,1,2,0,2,true,d,false,true,0.0-2.0-0.1-0.10-3.10,0,0,0,68,false,stim,false,-1,584,1,0,2,36518,task1,87385,false,false,109,image-keyboard-response,11
true,1,1,0,1,true,z,false,true,0.0-2.0-0.1-0.11-3.11,0,0,0,90,false,stim,false,-1,780,1,0,0,36518,task1,89683,false,false,112,image-keyboard-response,12
true,1,1,0,1,true,z,false,false,0.0-2.0-0.1-0.12-3.12,0,0,0,90,false,stim,false,-1,324,1,0,0,36518,task1,91536,false,true,115,image-keyboard-response,13
true,1,1,0,1,true,z,false,true,0.0-2.0-0.1-0.13-3.13,0,0,0,90,false,stim,false,-1,525,1,0,1,36518,task1,93597,false,false,118,image-keyboard-response,14
true,1,1,0,1,true,z,false,false,0.0-2.0-0.1-0.14-3.14,0,0,0,90,false,stim,false,-1,371,1,0,0,36518,task1,95503,false,true,121,image-keyboard-response,15
true,1,2,0,2,true,d,false,true,0.0-2.0-0.1-0.15-3.15,0,0,0,68,false,stim,false,-1,500,1,0,2,36518,task1,97522,false,false,124,image-keyboard-response,16
true,1,2,0,2,true,d,false,true,0.0-2.0-0.1-0.16-3.16,0,0,0,68,false,stim,false,-1,347,1,0,2,36518,task1,99398,false,false,127,image-keyboard-response,17
true,1,1,0,1,true,z,false,true,0.0-2.0-0.1-0.17-3.17,0,0,0,90,false,stim,false,-1,530,1,0,1,36518,task1,101452,false,false,130,image-keyboard-response,18
true,1,2,0,2,true,d,false,true,0.0-2.0-0.2-0.18-3.18,0,0,0,68,false,stim,false,-1,466,1,0,2,36518,task1,103457,false,false,133,image-keyboard-response,19
true,1,1,0,1,true,z,false,true,0.0-2.0-0.2-0.19-3.19,0,0,0,90,false,stim,false,-1,536,1,0,1,36518,task1,105529,false,false,136,image-keyboard-response,20
true,1,1,0,1,true,z,false,true,0.0-2.0-0.2-0.20-3.20,0,0,0,90,false,stim,false,-1,594,1,0,1,36518,task1,107654,false,false,139,image-keyboard-response,21
true,1,1,0,1,true,z,false,true,0.0-2.0-0.2-0.21-3.21,0,0,0,90,false,stim,false,-1,351,1,0,1,36518,task1,109542,false,false,142,image-keyboard-response,22
true,1,2,0,2,true,d,false,true,0.0-2.0-0.2-0.22-3.22,0,0,0,68,false,stim,false,-1,544,1,0,2,36518,task1,111612,false,false,145,image-keyboard-response,23
true,1,2,0,1,false,z,true,true,0.0-2.0-0.2-0.23-3.23,0,0,0,68,false,stim,false,-1,610,1,0,0,36518,task1,113764,false,true,148,image-keyboard-response,24
true,1,2,0,1,false,z,true,false,0.0-2.0-0.2-0.24-3.24,0,0,0,68,false,stim,false,-1,374,1,0,0,36518,task1,115676,false,false,151,image-keyboard-response,25
true,1,2,0,2,true,d,false,true,0.0-2.0-0.2-0.25-3.25,0,0,0,68,false,stim,false,-1,570,1,0,2,36518,task1,117761,false,false,154,image-keyboard-response,26
true,2,2,1,2,true,d,false,true,0.0-2.0-0.2-0.26-3.26,0,0,0,68,true,stim,false,1,406,1,0,0,36518,task1,119708,false,false,157,image-keyboard-response,1
true,2,1,1,2,false,d,false,false,0.0-2.0-0.3-0.27-3.27,0,0,0,90,false,stim,true,1,421,1,0,1,36518,task1,121654,false,false,160,image-keyboard-response,2
true,2,2,1,0,false,q,false,false,0.0-2.0-0.3-0.28-3.28,0,0,0,68,false,stim,true,2,420,1,0,2,36518,task1,123594,false,false,163,image-keyboard-response,3
true,2,1,1,2,false,d,false,false,0.0-2.0-0.3-0.29-3.29,0,0,0,90,false,stim,true,1,545,1,0,1,36518,task1,125666,false,false,166,image-keyboard-response,4
true,2,2,1,0,false,q,false,false,0.0-2.0-0.3-0.30-3.30,0,0,0,68,false,stim,true,2,721,1,0,2,36518,task1,127924,false,false,169,image-keyboard-response,5
true,2,2,1,2,true,d,false,true,0.0-2.0-0.3-0.31-3.31,0,0,0,68,false,stim,false,1,943,1,0,1,36518,task1,130395,false,false,172,image-keyboard-response,6
true,2,1,1,0,false,q,true,false,0.0-2.0-0.3-0.32-3.32,0,0,0,90,false,stim,false,2,1076,1,0,2,36518,task1,132998,false,false,175,image-keyboard-response,7
true,2,2,1,2,true,d,false,true,0.0-2.0-0.3-0.33-3.33,0,0,0,68,false,stim,false,1,532,1,0,0,36518,task1,135054,false,false,178,image-keyboard-response,8
true,2,2,1,2,true,d,false,false,0.0-2.0-0.3-0.34-3.34,0,0,0,68,false,stim,false,1,374,1,0,0,36518,task1,136947,false,true,181,image-keyboard-response,9
true,2,2,1,2,true,d,false,true,0.0-2.0-0.3-0.35-3.35,0,0,0,68,false,stim,false,1,332,1,0,0,36518,task1,138804,false,false,184,image-keyboard-response,10
true,2,0,1,0,true,q,false,true,0.0-2.0-0.4-0.36-3.36,0,0,0,81,false,stim,false,2,798,1,0,2,36518,task1,141120,false,false,187,image-keyboard-response,11
true,2,2,1,2,true,d,false,true,0.0-2.0-0.4-0.37-3.37,0,0,0,68,false,stim,false,1,477,1,0,1,36518,task1,143139,false,false,190,image-keyboard-response,12
true,2,0,1,0,true,q,false,true,0.0-2.0-0.4-0.38-3.38,0,0,0,81,false,stim,false,2,694,1,0,2,36518,task1,145358,false,false,193,image-keyboard-response,13
true,2,2,1,2,true,d,false,false,0.0-2.0-0.4-0.39-3.39,0,0,0,68,false,stim,false,1,560,1,0,0,36518,task1,147441,false,true,196,image-keyboard-response,14
true,2,2,1,2,true,d,false,true,0.0-2.0-0.4-0.40-3.40,0,0,0,68,false,stim,false,1,587,1,0,1,36518,task1,149552,false,false,199,image-keyboard-response,15
true,2,2,1,2,true,d,false,true,0.0-2.0-0.4-0.41-3.41,0,0,0,68,false,stim,false,1,593,1,0,1,36518,task1,151676,false,false,202,image-keyboard-response,16
true,2,0,1,0,true,q,false,false,0.0-2.0-0.4-0.42-3.42,0,0,0,81,false,stim,false,2,534,1,0,2,36518,task1,153736,false,true,205,image-keyboard-response,17
true,2,0,1,2,false,d,true,true,0.0-2.0-0.4-0.43-3.43,0,0,0,81,false,stim,false,1,778,1,0,0,36518,task1,156039,false,true,208,image-keyboard-response,18
true,2,0,1,2,false,d,true,false,0.0-2.0-0.4-0.44-3.44,0,0,0,81,false,stim,false,1,387,1,0,0,36518,task1,157959,false,false,211,image-keyboard-response,19
true,2,2,1,2,true,d,false,true,0.0-2.0-0.5-0.45-3.45,0,0,0,68,false,stim,false,1,552,1,0,1,36518,task1,160034,false,false,214,image-keyboard-response,20
true,2,2,1,2,true,d,false,true,0.0-2.0-0.5-0.46-3.46,0,0,0,68,false,stim,false,1,352,1,0,1,36518,task1,161914,false,false,217,image-keyboard-response,21
true,2,0,1,0,true,q,false,true,0.0-2.0-0.5-0.47-3.47,0,0,0,81,false,stim,false,2,723,1,0,2,36518,task1,164176,false,false,220,image-keyboard-response,22
true,2,2,1,2,true,d,false,true,0.0-2.0-0.5-0.48-3.48,0,0,0,68,false,stim,false,1,521,1,0,1,36518,task1,166232,false,false,223,image-keyboard-response,23
true,2,0,1,2,false,d,true,false,0.0-2.0-0.5-0.49-3.49,0,0,0,81,false,stim,false,1,653,1,0,0,36518,task1,168417,false,false,226,image-keyboard-response,24
true,2,0,1,0,true,q,false,true,0.0-2.0-0.5-0.50-3.50,0,0,0,81,false,stim,false,2,709,1,0,2,36518,task1,170651,false,false,229,image-keyboard-response,25
true,2,1,1,2,false,d,false,false,0.0-2.0-0.5-0.51-3.51,0,0,0,90,false,stim,true,1,393,1,0,0,36518,task1,172567,false,false,232,image-keyboard-response,26
true,2,2,1,2,true,d,false,true,0.0-2.0-0.5-0.52-3.52,0,0,0,68,false,stim,false,1,820,1,0,0,36518,task1,174913,false,false,235,image-keyboard-response,27
true,2,0,1,0,true,q,false,true,0.0-2.0-0.5-0.53-3.53,0,0,0,81,false,stim,false,2,600,1,0,2,36518,task1,177042,false,false,238,image-keyboard-response,28
true,2,2,1,2,true,d,false,false,0.0-2.0-0.6-0.54-3.54,0,0,0,68,false,stim,false,1,443,1,0,0,36518,task1,179014,false,true,241,image-keyboard-response,29
true,2,2,1,2,true,d,false,true,0.0-2.0-0.6-0.55-3.55,0,0,0,68,false,stim,false,1,542,1,0,1,36518,task1,181074,false,false,244,image-keyboard-response,30
true,2,2,1,2,true,d,false,false,0.0-2.0-0.6-0.56-3.56,0,0,0,68,false,stim,false,1,371,1,0,1,36518,task1,182962,false,true,247,image-keyboard-response,31
true,2,2,1,2,true,d,false,true,0.0-2.0-0.6-0.57-3.57,0,0,0,68,false,stim,false,1,718,1,0,0,36518,task1,185220,false,false,250,image-keyboard-response,32
true,2,2,1,2,true,d,false,false,0.0-2.0-0.6-0.58-3.58,0,0,0,68,false,stim,false,1,371,1,0,0,36518,task1,187133,false,true,253,image-keyboard-response,33
true,2,2,1,2,true,d,false,true,0.0-2.0-0.6-0.59-3.59,0,0,0,68,false,stim,false,1,595,1,0,1,36518,task1,189256,false,false,256,image-keyboard-response,34
true,2,0,1,0,true,q,false,false,0.0-2.0-0.6-0.60-3.60,0,0,0,81,false,stim,false,2,821,1,0,2,36518,task1,191602,false,true,259,image-keyboard-response,35
true,2,0,1,0,true,q,false,true,0.0-2.0-0.6-0.61-3.61,0,0,0,81,false,stim,false,2,356,1,0,2,36518,task1,193499,false,false,262,image-keyboard-response,36
true,2,0,1,0,true,q,false,true,0.0-2.0-0.6-0.62-3.62,0,0,0,81,false,stim,false,2,432,1,0,2,36518,task1,195452,false,false,265,image-keyboard-response,37
true,2,0,1,0,true,q,false,true,0.0-2.0-0.7-0.63-3.63,0,0,0,81,false,stim,false,2,383,1,0,2,36518,task1,197374,false,false,268,image-keyboard-response,38
true,2,2,1,2,true,d,false,true,0.0-2.0-0.7-0.64-3.64,0,0,0,68,false,stim,false,1,540,1,0,1,36518,task1,199452,false,false,271,image-keyboard-response,39
true,2,2,1,2,true,d,false,true,0.0-2.0-0.7-0.65-3.65,0,0,0,68,false,stim,false,1,501,1,0,0,36518,task1,201473,false,false,274,image-keyboard-response,40
true,2,2,1,2,true,d,false,true,0.0-2.0-0.7-0.66-3.66,0,0,0,68,false,stim,false,1,422,1,0,0,36518,task1,203423,false,false,277,image-keyboard-response,41
true,2,2,1,2,true,d,false,true,0.0-2.0-0.7-0.67-3.67,0,0,0,68,false,stim,false,1,369,1,0,0,36518,task1,205323,false,false,280,image-keyboard-response,42
true,2,0,1,0,true,q,false,true,0.0-2.0-0.7-0.68-3.68,0,0,0,81,false,stim,false,2,676,1,0,2,36518,task1,207529,false,false,283,image-keyboard-response,43
true,2,2,1,2,true,d,false,true,0.0-2.0-0.7-0.69-3.69,0,0,0,68,false,stim,false,1,577,1,0,1,36518,task1,209638,false,false,286,image-keyboard-response,44
true,3,2,1,0,false,q,false,false,0.0-2.0-0.7-0.70-3.70,0,0,0,68,true,stim,true,2,373,1,0,1,36518,task1,211535,false,false,289,image-keyboard-response,1
true,3,0,1,1,false,z,false,false,0.0-2.0-0.7-0.71-3.71,0,0,0,81,false,stim,true,0,529,1,0,2,36518,task1,213601,false,false,292,image-keyboard-response,2
true,3,2,1,0,false,q,false,false,0.0-2.0-0.8-0.72-3.72,0,0,0,68,false,stim,true,2,457,1,0,1,36518,task1,215589,false,false,295,image-keyboard-response,3
true,3,0,1,1,false,z,false,false,0.0-2.0-0.8-0.73-3.73,0,0,0,81,false,stim,true,0,495,1,0,2,36518,task1,217616,false,false,298,image-keyboard-response,4
true,3,1,1,0,false,q,true,false,0.0-2.0-0.8-0.74-3.74,0,0,0,90,false,stim,false,2,515,1,0,1,36518,task1,219660,false,false,301,image-keyboard-response,5
true,3,1,1,1,true,z,false,true,0.0-2.0-0.8-0.75-3.75,0,0,0,90,false,stim,false,0,457,1,0,2,36518,task1,221649,false,false,304,image-keyboard-response,6
true,3,2,1,1,false,z,false,false,0.0-2.0-0.8-0.76-3.76,0,0,0,68,false,stim,true,2,533,1,0,0,36518,task1,223715,false,false,307,image-keyboard-response,7
true,3,2,1,1,false,z,false,true,0.0-2.0-0.8-0.77-3.77,0,0,0,68,false,stim,true,2,1036,1,0,0,36518,task1,226278,false,true,310,image-keyboard-response,8
true,3,0,1,0,true,q,false,true,0.0-2.0-0.8-0.78-3.78,0,0,0,81,false,stim,false,2,1171,1,0,1,36518,task1,228983,false,false,313,image-keyboard-response,9
true,3,1,1,1,true,z,false,true,0.0-2.0-0.8-0.79-3.79,0,0,0,90,false,stim,false,0,538,1,0,2,36518,task1,231059,false,false,316,image-keyboard-response,10
true,3,2,1,1,false,z,false,false,0.0-2.0-0.8-0.80-3.80,0,0,0,68,false,stim,true,2,456,1,0,0,36518,task1,233057,false,false,319,image-keyboard-response,11
true,3,2,1,1,false,z,false,false,0.0-2.0-0.9-0.81-3.81,0,0,0,68,false,stim,true,2,772,1,0,0,36518,task1,235353,false,false,322,image-keyboard-response,12
true,3,0,1,0,true,q,false,true,0.0-2.0-0.9-0.82-3.82,0,0,0,81,false,stim,false,2,701,1,0,1,36518,task1,237593,false,false,325,image-keyboard-response,13
true,3,0,1,0,true,q,false,true,0.0-2.0-0.9-0.83-3.83,0,0,0,81,false,stim,false,2,306,1,0,1,36518,task1,239427,false,false,328,image-keyboard-response,14
true,3,1,1,1,true,z,false,true,0.0-2.0-0.9-0.84-3.84,0,0,0,90,false,stim,false,0,470,1,0,2,36518,task1,241401,false,false,331,image-keyboard-response,15
true,3,1,1,1,true,z,false,false,0.0-2.0-0.9-0.85-3.85,0,0,0,90,false,stim,false,2,552,1,0,0,36518,task1,243475,false,true,334,image-keyboard-response,16
true,3,0,1,0,true,q,false,true,0.0-2.0-0.9-0.86-3.86,0,0,0,81,false,stim,false,2,492,1,0,1,36518,task1,245503,false,false,337,image-keyboard-response,17
true,3,0,1,1,false,z,true,false,0.0-2.0-0.9-0.87-3.87,0,0,0,81,false,stim,false,2,378,1,0,0,36518,task1,247399,false,false,340,image-keyboard-response,18
true,3,1,1,1,true,z,false,false,0.0-2.0-0.9-0.88-3.88,0,0,0,90,false,stim,false,0,791,1,0,2,36518,task1,249713,false,true,343,image-keyboard-response,19
true,3,1,1,1,true,z,false,true,0.0-2.0-0.9-0.89-3.89,0,0,0,90,false,stim,false,0,334,1,0,2,36518,task1,251577,false,false,346,image-keyboard-response,20
true,3,1,1,1,true,z,false,true,0.0-2.0-0.10-0.90-3.90,0,0,0,90,false,stim,false,2,385,1,0,0,36518,task1,253477,false,false,349,image-keyboard-response,21
true,3,0,1,0,true,q,false,true,0.0-2.0-0.10-0.91-3.91,0,0,0,81,false,stim,false,2,477,1,0,1,36518,task1,255469,false,false,352,image-keyboard-response,22
true,3,1,1,1,true,z,false,true,0.0-2.0-0.10-0.92-3.92,0,0,0,90,false,stim,false,2,479,1,0,0,36518,task1,257475,false,false,355,image-keyboard-response,23
true,3,0,1,0,true,q,false,true,0.0-2.0-0.10-0.93-3.93,0,0,0,81,false,stim,false,2,579,1,0,1,36518,task1,259580,false,false,358,image-keyboard-response,24
true,3,1,1,1,true,z,false,true,0.0-2.0-0.10-0.94-3.94,0,0,0,90,false,stim,false,2,435,1,0,0,36518,task1,261538,false,false,361,image-keyboard-response,25
true,3,1,1,1,true,z,false,true,0.0-2.0-0.10-0.95-3.95,0,0,0,90,false,stim,false,0,356,1,0,2,36518,task1,263429,false,false,364,image-keyboard-response,26
true,3,0,1,0,true,q,false,true,0.0-2.0-0.10-0.96-3.96,0,0,0,81,false,stim,false,2,566,1,0,1,36518,task1,265508,false,false,367,image-keyboard-response,27
true,3,1,1,1,true,z,false,true,0.0-2.0-0.10-0.97-3.97,0,0,0,90,false,stim,false,0,535,1,0,2,36518,task1,267556,false,false,370,image-keyboard-response,28
true,3,1,1,1,true,z,false,true,0.0-2.0-0.10-0.98-3.98,0,0,0,90,false,stim,false,0,335,1,0,2,36518,task1,269416,false,false,373,image-keyboard-response,29
true,3,1,1,1,true,z,false,true,0.0-2.0-0.11-0.99-3.99,0,0,0,90,false,stim,false,2,527,1,0,0,36518,task1,271478,false,false,376,image-keyboard-response,30
true,3,1,1,1,true,z,false,true,0.0-2.0-0.11-0.100-3.100,0,0,0,90,false,stim,false,0,620,1,0,2,36518,task1,273618,false,false,379,image-keyboard-response,31
true,3,1,1,1,true,z,false,true,0.0-2.0-0.11-0.101-3.101,0,0,0,90,false,stim,false,0,401,1,0,2,36518,task1,275553,false,false,382,image-keyboard-response,32
true,3,0,1,0,true,q,false,true,0.0-2.0-0.11-0.102-3.102,0,0,0,81,false,stim,false,2,512,1,0,1,36518,task1,277594,false,false,385,image-keyboard-response,33
true,3,1,1,1,true,z,false,true,0.0-2.0-0.11-0.103-3.103,0,0,0,90,false,stim,false,0,581,1,0,2,36518,task1,279714,false,false,388,image-keyboard-response,34
true,3,0,1,0,true,q,false,true,0.0-2.0-0.11-0.104-3.104,0,0,0,81,false,stim,false,2,701,1,0,1,36518,task1,281953,false,false,391,image-keyboard-response,35
true,3,1,1,1,true,z,false,false,0.0-2.0-0.11-0.105-3.105,0,0,0,90,false,stim,false,2,586,1,0,0,36518,task1,284067,false,true,394,image-keyboard-response,36
true,3,1,1,1,true,z,false,true,0.0-2.0-0.11-0.106-3.106,0,0,0,90,false,stim,false,2,338,1,0,0,36518,task1,285920,false,false,397,image-keyboard-response,37
true,3,0,1,0,true,q,false,true,0.0-2.0-0.11-0.107-3.107,0,0,0,81,false,stim,false,2,875,1,0,1,36518,task1,288298,false,false,400,image-keyboard-response,38
true,3,1,1,1,true,z,false,true,0.0-2.0-0.12-0.108-3.108,0,0,0,90,false,stim,false,2,403,1,0,0,36518,task1,290235,false,false,403,image-keyboard-response,39
true,3,1,1,1,true,z,false,true,0.0-2.0-0.12-0.109-3.109,0,0,0,90,false,stim,false,0,361,1,0,2,36518,task1,292124,false,false,406,image-keyboard-response,40
true,3,0,1,0,true,q,false,true,0.0-2.0-0.12-0.110-3.110,0,0,0,81,false,stim,false,2,436,1,0,1,36518,task1,294088,false,false,409,image-keyboard-response,41
true,3,0,1,0,true,q,false,true,0.0-2.0-0.12-0.111-3.111,0,0,0,81,false,stim,false,2,366,1,0,1,36518,task1,295978,false,false,412,image-keyboard-response,42
true,3,1,1,1,true,z,false,true,0.0-2.0-0.12-0.112-3.112,0,0,0,90,false,stim,false,0,563,1,0,2,36518,task1,298075,false,false,415,image-keyboard-response,43
true,4,1,1,0,false,q,false,false,0.0-2.0-0.12-0.113-3.113,0,0,0,90,true,stim,true,1,292,1,0,2,36518,task1,299883,false,false,418,image-keyboard-response,1
true,4,0,1,1,false,z,false,false,0.0-2.0-0.12-0.114-3.114,0,0,0,81,false,stim,true,0,458,1,0,1,36518,task1,301863,false,false,421,image-keyboard-response,2
true,4,1,1,2,false,d,false,false,0.0-2.0-0.12-0.115-3.115,0,0,0,90,false,stim,true,1,496,1,0,0,36518,task1,303888,false,false,424,image-keyboard-response,3
true,4,1,1,2,false,d,false,false,0.0-2.0-0.12-0.116-3.116,0,0,0,90,false,stim,true,1,327,1,0,0,36518,task1,305738,false,false,427,image-keyboard-response,4
true,4,1,1,0,false,q,false,false,0.0-2.0-0.13-0.117-3.117,0,0,0,90,false,stim,true,1,575,1,0,2,36518,task1,307838,false,false,430,image-keyboard-response,5
true,4,0,1,2,false,d,true,false,0.0-2.0-0.13-0.118-3.118,0,0,0,81,false,stim,false,1,898,1,0,0,36518,task1,310259,false,false,433,image-keyboard-response,6
true,4,2,1,2,true,d,false,true,0.0-2.0-0.13-0.119-3.119,0,0,0,68,false,stim,false,1,714,1,0,0,36518,task1,312486,false,false,436,image-keyboard-response,7
true,4,2,1,2,true,d,false,true,0.0-2.0-0.13-0.120-3.120,0,0,0,68,false,stim,false,1,361,1,0,0,36518,task1,314373,false,false,439,image-keyboard-response,8
true,4,0,1,1,false,z,false,false,0.0-2.0-0.13-0.121-3.121,0,0,0,81,false,stim,true,0,830,1,0,1,36518,task1,316725,false,false,442,image-keyboard-response,9
true,4,0,1,0,true,q,false,true,0.0-2.0-0.13-0.122-3.122,0,0,0,81,false,stim,false,1,1641,1,0,2,36518,task1,319884,false,false,445,image-keyboard-response,10
true,4,0,1,0,true,q,false,true,0.0-2.0-0.13-0.123-3.123,0,0,0,81,false,stim,false,1,328,1,0,2,36518,task1,321742,false,false,448,image-keyboard-response,11
true,4,2,1,1,false,z,true,false,0.0-2.0-0.13-0.124-3.124,0,0,0,68,false,stim,false,0,369,1,0,1,36518,task1,323636,false,false,451,image-keyboard-response,12
true,4,1,1,1,true,z,false,true,0.0-2.0-0.13-0.125-3.125,0,0,0,90,false,stim,false,0,518,1,0,1,36518,task1,325667,false,false,454,image-keyboard-response,13
true,4,0,1,0,true,q,false,true,0.0-2.0-0.14-0.126-3.126,0,0,0,81,false,stim,false,1,669,1,0,2,36518,task1,327871,false,false,457,image-keyboard-response,14
true,4,1,1,1,true,z,false,true,0.0-2.0-0.14-0.127-3.127,0,0,0,90,false,stim,false,0,371,1,0,1,36518,task1,329783,false,false,460,image-keyboard-response,15
true,4,1,1,1,true,z,false,true,0.0-2.0-0.14-0.128-3.128,0,0,0,90,false,stim,false,0,379,1,0,1,36518,task1,331672,false,false,463,image-keyboard-response,16
true,4,2,1,2,true,d,false,true,0.0-2.0-0.14-0.129-3.129,0,0,0,68,false,stim,false,1,629,1,0,0,36518,task1,333830,false,false,466,image-keyboard-response,17
true,4,2,1,2,true,d,false,true,0.0-2.0-0.14-0.130-3.130,0,0,0,68,false,stim,false,1,329,1,0,0,36518,task1,335701,false,false,469,image-keyboard-response,18
true,4,2,1,2,true,d,false,true,0.0-2.0-0.14-0.131-3.131,0,0,0,68,false,stim,false,1,425,1,0,0,36518,task1,337658,false,false,472,image-keyboard-response,19
true,4,0,1,0,true,q,false,true,0.0-2.0-0.14-0.132-3.132,0,0,0,81,false,stim,false,1,621,1,0,2,36518,task1,339804,false,false,475,image-keyboard-response,20
true,4,0,1,0,true,q,false,true,0.0-2.0-0.14-0.133-3.133,0,0,0,81,false,stim,false,1,292,1,0,2,36518,task1,341634,false,false,478,image-keyboard-response,21
true,4,1,1,1,true,z,false,true,0.0-2.0-0.14-0.134-3.134,0,0,0,90,false,stim,false,0,555,1,0,1,36518,task1,343707,false,false,481,image-keyboard-response,22
true,4,2,1,2,true,d,false,true,0.0-2.0-0.15-0.135-3.135,0,0,0,68,false,stim,false,1,445,1,0,0,36518,task1,345677,false,false,484,image-keyboard-response,23
true,4,2,1,2,true,d,false,true,0.0-2.0-0.15-0.136-3.136,0,0,0,68,false,stim,false,1,361,1,0,0,36518,task1,347563,false,false,487,image-keyboard-response,24
true,4,0,1,0,true,q,false,true,0.0-2.0-0.15-0.137-3.137,0,0,0,81,false,stim,false,1,571,1,0,2,36518,task1,349672,false,false,490,image-keyboard-response,25
true,4,0,1,0,true,q,false,true,0.0-2.0-0.15-0.138-3.138,0,0,0,81,false,stim,false,1,470,1,0,2,36518,task1,351662,false,false,493,image-keyboard-response,26
true,4,2,1,2,true,d,false,true,0.0-2.0-0.15-0.139-3.139,0,0,0,68,false,stim,false,1,503,1,0,0,36518,task1,353694,false,false,496,image-keyboard-response,27
true,4,1,1,1,true,z,false,true,0.0-2.0-0.15-0.140-3.140,0,0,0,90,false,stim,false,0,553,1,0,1,36518,task1,355775,false,false,499,image-keyboard-response,28
true,4,0,1,0,true,q,false,true,0.0-2.0-0.15-0.141-3.141,0,0,0,81,false,stim,false,1,711,1,0,2,36518,task1,358014,false,false,502,image-keyboard-response,29
true,4,1,1,1,true,z,false,true,0.0-2.0-0.15-0.142-3.142,0,0,0,90,false,stim,false,0,433,1,0,1,36518,task1,359985,false,false,505,image-keyboard-response,30
true,4,1,1,1,true,z,false,true,0.0-2.0-0.15-0.143-3.143,0,0,0,90,false,stim,false,0,307,1,0,1,36518,task1,361819,false,false,508,image-keyboard-response,31
true,4,1,1,1,true,z,false,true,0.0-2.0-0.16-0.144-3.144,0,0,0,90,false,stim,false,0,310,1,0,1,36518,task1,363662,false,false,511,image-keyboard-response,32
true,4,2,1,2,true,d,false,true,0.0-2.0-0.16-0.145-3.145,0,0,0,68,false,stim,false,1,503,1,0,0,36518,task1,365703,false,false,514,image-keyboard-response,33
true,4,0,1,0,true,q,false,true,0.0-2.0-0.16-0.146-3.146,0,0,0,81,false,stim,false,1,525,1,0,2,36518,task1,367767,false,false,517,image-keyboard-response,34
true,4,1,1,1,true,z,false,true,0.0-2.0-0.16-0.147-3.147,0,0,0,90,false,stim,false,0,554,1,0,1,36518,task1,369844,false,false,520,image-keyboard-response,35
true,4,2,1,2,true,d,false,true,0.0-2.0-0.16-0.148-3.148,0,0,0,68,false,stim,false,1,540,1,0,0,36518,task1,371911,false,false,523,image-keyboard-response,36
true,4,0,1,0,true,q,false,false,0.0-2.0-0.16-0.149-3.149,0,0,0,81,false,stim,false,1,690,1,0,2,36518,task1,374111,false,true,526,image-keyboard-response,37
true,4,2,1,2,true,d,false,true,0.0-2.0-0.16-0.150-3.150,0,0,0,68,false,stim,false,1,592,1,0,0,36518,task1,376234,false,false,529,image-keyboard-response,38
true,4,0,1,0,true,q,false,true,0.0-2.0-0.16-0.151-3.151,0,0,0,81,false,stim,false,1,638,1,0,2,36518,task1,378389,false,false,532,image-keyboard-response,39
true,5,1,1,0,false,q,false,true,0.0-2.0-0.16-0.152-3.152,0,0,0,90,true,stim,true,1,490,1,0,1,36518,task1,380401,false,true,535,image-keyboard-response,1
true,5,1,1,0,false,q,false,false,0.0-2.0-0.17-0.153-3.153,0,0,0,90,false,stim,true,1,425,1,0,1,36518,task1,382356,false,false,538,image-keyboard-response,2
true,5,2,1,0,false,q,false,false,0.0-2.0-0.17-0.154-3.154,0,0,0,68,false,stim,true,2,569,1,0,0,36518,task1,384452,false,false,541,image-keyboard-response,3
true,5,0,1,1,false,z,false,false,0.0-2.0-0.17-0.155-3.155,0,0,0,81,false,stim,true,0,598,1,0,2,36518,task1,386579,false,false,544,image-keyboard-response,4
true,5,0,1,1,false,z,false,false,0.0-2.0-0.17-0.156-3.156,0,0,0,81,false,stim,true,0,357,1,0,2,36518,task1,388448,false,false,547,image-keyboard-response,5
true,5,2,1,0,false,q,false,false,0.0-2.0-0.17-0.157-3.157,0,0,0,68,false,stim,true,2,804,1,0,0,36518,task1,390776,false,false,550,image-keyboard-response,6
true,5,1,1,0,false,q,false,false,0.0-2.0-0.17-0.158-3.158,0,0,0,90,false,stim,true,1,1254,1,0,1,36518,task1,393545,false,false,553,image-keyboard-response,7
true,5,1,1,1,true,z,false,true,0.0-2.0-0.17-0.159-3.159,0,0,0,90,false,stim,false,0,1087,1,0,2,36518,task1,396169,false,false,556,image-keyboard-response,8
true,5,1,1,0,false,q,true,false,0.0-2.0-0.17-0.160-3.160,0,0,0,90,false,stim,false,2,1301,1,0,0,36518,task1,398992,false,false,559,image-keyboard-response,9
true,5,1,1,0,false,q,false,false,0.0-2.0-0.17-0.161-3.161,0,0,0,90,false,stim,true,1,388,1,0,1,36518,task1,400910,false,false,562,image-keyboard-response,10
true,5,1,1,1,true,z,false,true,0.0-2.0-0.18-0.162-3.162,0,0,0,90,false,stim,false,0,542,1,0,2,36518,task1,402969,false,false,565,image-keyboard-response,11
true,5,0,1,0,true,q,false,true,0.0-2.0-0.18-0.163-3.163,0,0,0,81,false,stim,false,2,658,1,0,0,36518,task1,405169,false,false,568,image-keyboard-response,12
true,5,1,1,1,true,z,false,true,0.0-2.0-0.18-0.164-3.164,0,0,0,90,false,stim,false,0,542,1,0,2,36518,task1,407244,false,false,571,image-keyboard-response,13
true,5,0,1,0,true,q,false,true,0.0-2.0-0.18-0.165-3.165,0,0,0,81,false,stim,false,1,381,1,0,1,36518,task1,409143,false,false,574,image-keyboard-response,14
true,5,0,1,0,true,q,false,true,0.0-2.0-0.18-0.166-3.166,0,0,0,81,false,stim,false,2,335,1,0,0,36518,task1,411017,false,false,577,image-keyboard-response,15
true,5,0,1,0,true,q,false,true,0.0-2.0-0.18-0.167-3.167,0,0,0,81,false,stim,false,1,348,1,0,1,36518,task1,412900,false,false,580,image-keyboard-response,16
true,5,0,1,0,true,q,false,true,0.0-2.0-0.18-0.168-3.168,0,0,0,81,false,stim,false,1,329,1,0,1,36518,task1,414760,false,false,583,image-keyboard-response,17
true,5,0,1,0,true,q,false,true,0.0-2.0-0.18-0.169-3.169,0,0,0,81,false,stim,false,2,351,1,0,0,36518,task1,416632,false,false,586,image-keyboard-response,18
true,5,1,1,1,true,z,false,false,0.0-2.0-0.18-0.170-3.170,0,0,0,90,false,stim,false,0,400,1,0,2,36518,task1,418561,false,true,589,image-keyboard-response,19
true,5,1,1,1,true,z,false,false,0.0-2.0-0.19-0.171-3.171,0,0,0,90,false,stim,false,0,356,1,0,2,36518,task1,420450,false,true,592,image-keyboard-response,20
true,5,0,1,0,true,q,false,true,0.0-2.0-0.19-0.172-3.172,0,0,0,81,false,stim,false,1,541,1,0,1,36518,task1,422533,false,false,595,image-keyboard-response,21
true,5,2,1,1,false,z,true,false,0.0-2.0-0.19-0.173-3.173,0,0,0,68,false,stim,false,0,693,1,0,2,36518,task1,424754,false,false,598,image-keyboard-response,22
true,5,0,1,0,true,q,false,true,0.0-2.0-0.19-0.174-3.174,0,0,0,81,false,stim,false,2,755,1,0,0,36518,task1,427046,false,false,601,image-keyboard-response,23
true,5,0,1,0,true,q,false,true,0.0-2.0-0.19-0.175-3.175,0,0,0,81,false,stim,false,1,585,1,0,1,36518,task1,429156,false,false,604,image-keyboard-response,24
true,5,2,1,1,false,z,true,false,0.0-2.0-0.19-0.176-3.176,0,0,0,68,false,stim,false,0,370,1,0,2,36518,task1,431063,false,false,607,image-keyboard-response,25
true,5,0,1,0,true,q,false,true,0.0-2.0-0.19-0.177-3.177,0,0,0,81,false,stim,false,1,489,1,0,1,36518,task1,433070,false,false,610,image-keyboard-response,26
true,5,0,1,0,true,q,false,true,0.0-2.0-0.19-0.178-3.178,0,0,0,81,false,stim,false,2,535,1,0,0,36518,task1,435137,false,false,613,image-keyboard-response,27
true,5,0,1,0,true,q,false,true,0.0-2.0-0.19-0.179-3.179,0,0,0,81,false,stim,false,2,433,1,0,0,36518,task1,437105,false,false,616,image-keyboard-response,28
true,5,0,1,1,false,z,false,false,0.0-2.0-0.20-0.180-3.180,0,0,0,81,false,stim,true,0,534,1,0,2,36518,task1,439167,false,false,619,image-keyboard-response,29
true,5,0,1,0,true,q,false,true,0.0-2.0-0.20-0.181-3.181,0,0,0,81,false,stim,false,1,541,1,0,1,36518,task1,441223,false,false,622,image-keyboard-response,30
true,5,0,1,0,true,q,false,true,0.0-2.0-0.20-0.182-3.182,0,0,0,81,false,stim,false,1,570,1,0,1,36518,task1,443332,false,false,625,image-keyboard-response,31
true,5,1,1,1,true,z,false,false,0.0-2.0-0.20-0.183-3.183,0,0,0,90,false,stim,false,0,405,1,0,2,36518,task1,445276,false,true,628,image-keyboard-response,32
true,5,0,1,0,true,q,false,true,0.0-2.0-0.20-0.184-3.184,0,0,0,81,false,stim,false,2,662,1,0,0,36518,task1,447474,false,false,631,image-keyboard-response,33
true,5,0,1,0,true,q,false,true,0.0-2.0-0.20-0.185-3.185,0,0,0,81,false,stim,false,2,575,1,0,0,36518,task1,449576,false,false,634,image-keyboard-response,34
true,5,0,1,0,true,q,false,true,0.0-2.0-0.20-0.186-3.186,0,0,0,81,false,stim,false,1,563,1,0,1,36518,task1,451665,false,false,637,image-keyboard-response,35
true,5,2,1,1,false,z,true,false,0.0-2.0-0.20-0.187-3.187,0,0,0,68,false,stim,false,0,484,1,0,2,36518,task1,453676,false,false,640,image-keyboard-response,36
true,5,0,1,0,true,q,false,true,0.0-2.0-0.20-0.188-3.188,0,0,0,81,false,stim,false,2,543,1,0,0,36518,task1,455754,false,false,643,image-keyboard-response,37
true,5,2,1,1,false,z,true,false,0.0-2.0-0.21-0.189-3.189,0,0,0,68,false,stim,false,0,434,1,0,2,36518,task1,457716,false,false,646,image-keyboard-response,38
true,5,1,1,1,true,z,false,true,0.0-2.0-0.21-0.190-3.190,0,0,0,90,false,stim,false,0,812,1,0,2,36518,task1,460054,false,false,649,image-keyboard-response,39
true,5,0,1,0,true,q,false,true,0.0-2.0-0.21-0.191-3.191,0,0,0,81,false,stim,false,1,477,1,0,1,36518,task1,462048,false,false,652,image-keyboard-response,40
true,5,1,1,1,true,z,false,false,0.0-2.0-0.21-0.192-3.192,0,0,0,90,false,stim,false,0,342,1,0,2,36518,task1,463913,false,true,655,image-keyboard-response,41
true,6,0,1,1,false,z,false,false,0.0-2.0-0.21-0.193-3.193,0,0,0,81,true,stim,true,0,630,1,0,0,36518,task1,466063,false,false,658,image-keyboard-response,1
true,6,0,1,2,false,d,false,false,0.0-2.0-0.21-0.194-3.194,0,0,0,81,false,stim,true,0,358,1,0,1,36518,task1,467939,false,false,661,image-keyboard-response,2
true,6,0,1,1,false,z,false,false,0.0-2.0-0.21-0.195-3.195,0,0,0,81,false,stim,true,0,638,1,0,0,36518,task1,470100,false,false,664,image-keyboard-response,3
true,6,0,1,2,false,d,false,false,0.0-2.0-0.21-0.196-3.196,0,0,0,81,false,stim,true,0,1070,1,0,1,36518,task1,472702,false,false,667,image-keyboard-response,4
true,6,1,1,1,true,z,false,true,0.0-2.0-0.21-0.197-3.197,0,0,0,90,false,stim,false,0,647,1,0,0,36518,task1,474878,false,false,670,image-keyboard-response,5
true,6,2,1,2,true,d,false,true,0.0-2.0-0.22-0.198-3.198,0,0,0,68,false,stim,false,0,755,1,0,1,36518,task1,477158,false,false,673,image-keyboard-response,6
true,6,1,1,0,false,q,false,false,0.0-2.0-0.22-0.199-3.199,0,0,0,90,false,stim,true,1,620,1,0,2,36518,task1,479302,false,false,676,image-keyboard-response,7
true,6,2,1,0,false,q,true,false,0.0-2.0-0.22-0.200-3.200,0,0,0,68,false,stim,false,1,418,1,0,2,36518,task1,481250,false,false,679,image-keyboard-response,8
true,6,1,1,1,true,z,false,true,0.0-2.0-0.22-0.201-3.201,0,0,0,90,false,stim,false,0,588,1,0,0,36518,task1,483360,false,false,682,image-keyboard-response,9
true,6,0,1,0,true,q,false,true,0.0-2.0-0.22-0.202-3.202,0,0,0,81,false,stim,false,1,442,1,0,2,36518,task1,485343,false,false,685,image-keyboard-response,10
true,6,1,1,1,true,z,false,true,0.0-2.0-0.22-0.203-3.203,0,0,0,90,false,stim,false,0,432,1,0,0,36518,task1,487314,false,false,688,image-keyboard-response,11
true,6,2,1,2,true,d,false,true,0.0-2.0-0.22-0.204-3.204,0,0,0,68,false,stim,false,0,569,1,0,1,36518,task1,489422,false,false,691,image-keyboard-response,12
true,6,1,1,1,true,z,false,true,0.0-2.0-0.22-0.205-3.205,0,0,0,90,false,stim,false,0,641,1,0,0,36518,task1,491592,false,false,694,image-keyboard-response,13
true,6,2,1,2,true,d,false,true,0.0-2.0-0.22-0.206-3.206,0,0,0,68,false,stim,false,0,395,1,0,1,36518,task1,493517,false,false,697,image-keyboard-response,14
true,6,0,1,0,true,q,false,true,0.0-2.0-0.23-0.207-3.207,0,0,0,81,false,stim,false,1,533,1,0,2,36518,task1,495574,false,false,700,image-keyboard-response,15
true,6,0,1,0,true,q,false,true,0.0-2.0-0.23-0.208-3.208,0,0,0,81,false,stim,false,1,350,1,0,2,36518,task1,497454,false,false,703,image-keyboard-response,16
true,6,1,1,1,true,z,false,true,0.0-2.0-0.23-0.209-3.209,0,0,0,90,false,stim,false,0,739,1,0,0,36518,task1,499731,false,false,706,image-keyboard-response,17
true,6,2,1,2,true,d,false,true,0.0-2.0-0.23-0.210-3.210,0,0,0,68,false,stim,false,0,584,1,0,1,36518,task1,501845,false,false,709,image-keyboard-response,18
true,6,1,1,1,true,z,false,false,0.0-2.0-0.23-0.211-3.211,0,0,0,90,false,stim,false,0,741,1,0,0,36518,task1,504122,false,true,712,image-keyboard-response,19
true,6,2,1,2,true,d,false,true,0.0-2.0-0.23-0.212-3.212,0,0,0,68,false,stim,false,0,510,1,0,1,36518,task1,506162,false,false,715,image-keyboard-response,20
true,6,1,1,1,true,z,false,true,0.0-2.0-0.23-0.213-3.213,0,0,0,90,false,stim,false,0,612,1,0,0,36518,task1,508290,false,false,718,image-keyboard-response,21
true,6,0,1,0,true,q,false,true,0.0-2.0-0.23-0.214-3.214,0,0,0,81,false,stim,false,1,516,1,0,2,36518,task1,510338,false,false,721,image-keyboard-response,22
true,6,2,1,2,true,d,false,true,0.0-2.0-0.23-0.215-3.215,0,0,0,68,false,stim,false,0,517,1,0,1,36518,task1,512380,false,false,724,image-keyboard-response,23
true,6,0,1,1,false,z,false,true,0.0-2.0-0.24-0.216-3.216,0,0,0,81,false,stim,true,0,489,1,0,0,36518,task1,514400,false,true,727,image-keyboard-response,24
true,6,0,1,1,false,z,false,false,0.0-2.0-0.24-0.217-3.217,0,0,0,81,false,stim,true,0,362,1,0,0,36518,task1,516294,false,false,730,image-keyboard-response,25
true,6,0,1,0,true,q,false,true,0.0-2.0-0.24-0.218-3.218,0,0,0,81,false,stim,false,1,392,1,0,2,36518,task1,518213,false,false,733,image-keyboard-response,26
true,6,0,1,0,true,q,false,true,0.0-2.0-0.24-0.219-3.219,0,0,0,81,false,stim,false,1,444,1,0,2,36518,task1,520196,false,false,736,image-keyboard-response,27
true,6,2,1,2,true,d,false,false,0.0-2.0-0.24-0.220-3.220,0,0,0,68,false,stim,false,0,583,1,0,1,36518,task1,522303,false,true,739,image-keyboard-response,28
true,6,2,1,0,false,q,true,false,0.0-2.0-0.24-0.221-3.221,0,0,0,68,false,stim,false,1,421,1,0,2,36518,task1,524263,false,false,742,image-keyboard-response,29
true,6,2,1,2,true,d,false,true,0.0-2.0-0.24-0.222-3.222,0,0,0,68,false,stim,false,0,346,1,0,1,36518,task1,526137,false,false,745,image-keyboard-response,30
true,6,2,1,2,true,d,false,true,0.0-2.0-0.24-0.223-3.223,0,0,0,68,false,stim,false,0,380,1,0,1,36518,task1,528053,false,false,748,image-keyboard-response,31
true,6,0,1,1,false,z,false,false,0.0-2.0-0.24-0.224-3.224,0,0,0,81,false,stim,true,0,632,1,0,0,36518,task1,530214,false,false,751,image-keyboard-response,32
true,6,1,1,1,true,z,false,true,0.0-2.0-0.25-0.225-3.225,0,0,0,90,false,stim,false,0,369,1,0,0,36518,task1,532110,false,false,754,image-keyboard-response,33
true,6,0,1,0,true,q,false,true,0.0-2.0-0.25-0.226-3.226,0,0,0,81,false,stim,false,1,636,1,0,2,36518,task1,534278,false,false,757,image-keyboard-response,34
true,6,2,1,2,true,d,false,true,0.0-2.0-0.25-0.227-3.227,0,0,0,68,false,stim,false,0,606,1,0,1,36518,task1,536418,false,false,760,image-keyboard-response,35
true,6,0,1,0,true,q,false,true,0.0-2.0-0.25-0.228-3.228,0,0,0,81,false,stim,false,1,580,1,0,2,36518,task1,538523,false,false,763,image-keyboard-response,36
true,6,2,1,2,true,d,false,true,0.0-2.0-0.25-0.229-3.229,0,0,0,68,false,stim,false,0,688,1,0,1,36518,task1,540749,false,false,766,image-keyboard-response,37
true,6,1,1,1,true,z,false,true,0.0-2.0-0.25-0.230-3.230,0,0,0,90,false,stim,false,0,410,1,0,0,36518,task1,542682,false,false,769,image-keyboard-response,38
true,6,1,1,1,true,z,false,true,0.0-2.0-0.25-0.231-3.231,0,0,0,90,false,stim,false,0,336,1,0,0,36518,task1,544549,false,false,772,image-keyboard-response,39
true,6,0,1,0,true,q,false,true,0.0-2.0-0.25-0.232-3.232,0,0,0,81,false,stim,false,1,573,1,0,2,36518,task1,546654,false,false,775,image-keyboard-response,40
true,6,2,1,2,true,d,false,true,0.0-2.0-0.25-0.233-3.233,0,0,0,68,false,stim,false,0,435,1,0,1,36518,task1,548603,false,false,778,image-keyboard-response,41
true,6,1,1,1,true,z,false,true,0.0-2.0-0.26-0.234-3.234,0,0,0,90,false,stim,false,0,602,1,0,0,36518,task1,550743,false,false,781,image-keyboard-response,42
true,6,2,1,2,true,d,false,false,0.0-2.0-0.26-0.235-3.235,0,0,0,68,false,stim,false,0,538,1,0,1,36518,task1,552809,false,true,784,image-keyboard-response,43
true,7,1,2,0,false,q,false,false,0.0-2.0-0.26-0.236-3.236,0,0,0,90,true,stim,true,1,455,1,0,0,36518,task1,554787,false,false,787,image-keyboard-response,1
true,7,2,2,0,false,q,false,false,0.0-2.0-0.26-0.237-3.237,0,0,0,68,false,stim,true,2,577,1,0,1,36518,task1,556900,false,false,790,image-keyboard-response,2
true,7,1,2,0,false,q,false,false,0.0-2.0-0.26-0.238-3.238,0,0,0,90,false,stim,true,1,488,1,0,0,36518,task1,558929,false,false,793,image-keyboard-response,3
true,7,0,2,1,false,z,false,false,0.0-2.0-0.26-0.239-3.239,0,0,0,81,false,stim,true,0,510,1,0,2,36518,task1,560972,false,false,796,image-keyboard-response,4
true,7,0,2,1,false,z,false,false,0.0-2.0-0.26-0.240-3.240,0,0,0,81,false,stim,true,0,351,1,0,2,36518,task1,562843,false,false,799,image-keyboard-response,5
true,7,1,2,0,false,q,true,false,0.0-2.0-0.26-0.241-3.241,0,0,0,90,false,stim,false,2,1052,1,0,1,36518,task1,565423,false,false,802,image-keyboard-response,6
true,7,1,2,1,true,z,false,true,0.0-2.0-0.26-0.242-3.242,0,0,0,90,false,stim,false,0,893,1,0,2,36518,task1,567856,false,false,805,image-keyboard-response,7
true,7,1,2,0,false,q,false,false,0.0-2.0-0.27-0.243-3.243,0,0,0,90,false,stim,true,1,562,1,0,0,36518,task1,569943,false,false,808,image-keyboard-response,8
true,7,1,2,1,true,z,false,true,0.0-2.0-0.27-0.244-3.244,0,0,0,90,false,stim,false,0,569,1,0,2,36518,task1,572043,false,false,811,image-keyboard-response,9
true,7,1,2,1,true,z,false,true,0.0-2.0-0.27-0.245-3.245,0,0,0,90,false,stim,false,0,423,1,0,2,36518,task1,573994,false,false,814,image-keyboard-response,10
true,7,2,2,0,false,q,false,false,0.0-2.0-0.27-0.246-3.246,0,0,0,68,false,stim,true,2,860,1,0,1,36518,task1,576391,false,false,817,image-keyboard-response,11
true,7,1,2,1,true,z,false,true,0.0-2.0-0.27-0.247-3.247,0,0,0,90,false,stim,false,0,594,1,0,2,36518,task1,578515,false,false,820,image-keyboard-response,12
true,7,0,2,0,true,q,false,true,0.0-2.0-0.27-0.248-3.248,0,0,0,81,false,stim,false,2,506,1,0,1,36518,task1,580558,false,false,823,image-keyboard-response,13
true,7,0,2,0,true,q,false,true,0.0-2.0-0.27-0.249-3.249,0,0,0,81,false,stim,false,2,384,1,0,1,36518,task1,582475,false,false,826,image-keyboard-response,14
true,7,2,2,0,false,q,true,false,0.0-2.0-0.27-0.250-3.250,0,0,0,68,false,stim,false,1,456,1,0,0,36518,task1,584457,false,false,829,image-keyboard-response,15
true,7,0,2,0,true,q,false,true,0.0-2.0-0.27-0.251-3.251,0,0,0,81,false,stim,false,1,389,1,0,0,36518,task1,586371,false,false,832,image-keyboard-response,16
true,7,0,2,0,true,q,false,true,0.0-2.0-0.28-0.252-3.252,0,0,0,81,false,stim,false,2,695,1,0,1,36518,task1,588596,false,false,835,image-keyboard-response,17
true,7,1,2,1,true,z,false,true,0.0-2.0-0.28-0.253-3.253,0,0,0,90,false,stim,false,0,432,1,0,2,36518,task1,590565,false,false,838,image-keyboard-response,18
true,7,1,2,1,true,z,false,false,0.0-2.0-0.28-0.254-3.254,0,0,0,90,false,stim,false,0,510,1,0,2,36518,task1,592611,false,true,841,image-keyboard-response,19
true,7,1,2,1,true,z,false,true,0.0-2.0-0.28-0.255-3.255,0,0,0,90,false,stim,false,0,542,1,0,2,36518,task1,594683,false,false,844,image-keyboard-response,20
true,7,0,2,0,true,q,false,true,0.0-2.0-0.28-0.256-3.256,0,0,0,81,false,stim,false,1,571,1,0,0,36518,task1,596783,false,false,847,image-keyboard-response,21
true,7,0,2,0,true,q,false,true,0.0-2.0-0.28-0.257-3.257,0,0,0,81,false,stim,false,1,355,1,0,0,36518,task1,598651,false,false,850,image-keyboard-response,22
true,7,0,2,0,true,q,false,false,0.0-2.0-0.28-0.258-3.258,0,0,0,81,false,stim,false,1,332,1,0,0,36518,task1,600524,false,true,853,image-keyboard-response,23
true,7,0,2,0,true,q,false,true,0.0-2.0-0.28-0.259-3.259,0,0,0,81,false,stim,false,2,376,1,0,1,36518,task1,602437,false,false,856,image-keyboard-response,24
true,7,0,2,0,true,q,false,true,0.0-2.0-0.28-0.260-3.260,0,0,0,81,false,stim,false,2,379,1,0,1,36518,task1,604340,false,false,859,image-keyboard-response,25
true,7,0,2,0,true,q,false,true,0.0-2.0-0.29-0.261-3.261,0,0,0,81,false,stim,false,2,429,1,0,1,36518,task1,606301,false,false,862,image-keyboard-response,26
true,7,0,2,0,true,q,false,false,0.0-2.0-0.29-0.262-3.262,0,0,0,81,false,stim,false,1,931,1,0,0,36518,task1,608764,false,true,865,image-keyboard-response,27
true,7,0,2,0,true,q,false,true,0.0-2.0-0.29-0.263-3.263,0,0,0,81,false,stim,false,1,347,1,0,0,36518,task1,610649,false,false,868,image-keyboard-response,28
true,7,1,2,1,true,z,false,true,0.0-2.0-0.29-0.264-3.264,0,0,0,90,false,stim,false,0,694,1,0,2,36518,task1,612866,false,false,871,image-keyboard-response,29
true,7,0,2,0,true,q,false,true,0.0-2.0-0.29-0.265-3.265,0,0,0,81,false,stim,false,2,700,1,0,1,36518,task1,615092,false,false,874,image-keyboard-response,30
true,7,0,2,0,true,q,false,true,0.0-2.0-0.29-0.266-3.266,0,0,0,81,false,stim,false,2,327,1,0,1,36518,task1,616939,false,false,877,image-keyboard-response,31
true,7,1,2,1,true,z,false,true,0.0-2.0-0.29-0.267-3.267,0,0,0,90,false,stim,false,0,1331,1,0,2,36518,task1,619784,false,false,880,image-keyboard-response,32
true,7,0,2,0,true,q,false,true,0.0-2.0-0.29-0.268-3.268,0,0,0,81,false,stim,false,1,659,1,0,0,36518,task1,621973,false,false,883,image-keyboard-response,33
true,7,1,2,1,true,z,false,true,0.0-2.0-0.29-0.269-3.269,0,0,0,90,false,stim,false,0,463,1,0,2,36518,task1,623966,false,false,886,image-keyboard-response,34
true,7,0,2,0,true,q,false,true,0.0-2.0-0.30-0.270-3.270,0,0,0,81,false,stim,false,2,442,1,0,1,36518,task1,625922,false,false,889,image-keyboard-response,35
true,7,0,2,0,true,q,false,true,0.0-2.0-0.30-0.271-3.271,0,0,0,81,false,stim,false,1,514,1,0,0,36518,task1,627972,false,false,892,image-keyboard-response,36
true,7,0,2,0,true,q,false,true,0.0-2.0-0.30-0.272-3.272,0,0,0,81,false,stim,false,2,391,1,0,1,36518,task1,629891,false,false,895,image-keyboard-response,37
true,7,0,2,0,true,q,false,true,0.0-2.0-0.30-0.273-3.273,0,0,0,81,false,stim,false,2,342,1,0,1,36518,task1,631763,false,false,898,image-keyboard-response,38
true,7,0,2,0,true,q,false,true,0.0-2.0-0.30-0.274-3.274,0,0,0,81,false,stim,false,1,396,1,0,0,36518,task1,633704,false,false,901,image-keyboard-response,39
true,7,0,2,0,true,q,false,true,0.0-2.0-0.30-0.275-3.275,0,0,0,81,false,stim,false,1,334,1,0,0,36518,task1,635567,false,false,904,image-keyboard-response,40
true,7,1,2,1,true,z,false,true,0.0-2.0-0.30-0.276-3.276,0,0,0,90,false,stim,false,0,449,1,0,2,36518,task1,637530,false,false,907,image-keyboard-response,41
true,7,1,2,1,true,z,false,true,0.0-2.0-0.30-0.277-3.277,0,0,0,90,false,stim,false,0,310,1,0,2,36518,task1,639372,false,false,910,image-keyboard-response,42
true,7,1,2,1,true,z,false,true,0.0-2.0-0.30-0.278-3.278,0,0,0,90,false,stim,false,0,318,1,0,2,36518,task1,641220,false,false,913,image-keyboard-response,43
true,8,0,1,1,false,z,false,false,0.0-2.0-0.31-0.279-3.279,0,0,0,81,true,stim,true,0,569,1,0,1,36518,task1,643306,false,false,916,image-keyboard-response,1
true,8,0,1,2,false,d,false,false,0.0-2.0-0.31-0.280-3.280,0,0,0,81,false,stim,true,0,295,1,0,0,36518,task1,645128,false,false,919,image-keyboard-response,2
true,8,1,1,2,false,d,false,true,0.0-2.0-0.31-0.281-3.281,0,0,0,90,false,stim,true,1,536,1,0,2,36518,task1,647188,false,true,922,image-keyboard-response,3
true,8,1,1,2,false,d,false,true,0.0-2.0-0.31-0.282-3.282,0,0,0,90,false,stim,true,1,494,1,0,2,36518,task1,649206,false,true,925,image-keyboard-response,4
true,8,0,1,2,false,d,false,false,0.0-2.0-0.31-0.283-3.283,0,0,0,81,false,stim,true,0,382,1,0,0,36518,task1,651116,false,false,928,image-keyboard-response,5
true,8,0,1,1,false,z,false,false,0.0-2.0-0.31-0.284-3.284,0,0,0,81,false,stim,true,0,512,1,0,1,36518,task1,653164,false,false,931,image-keyboard-response,6
true,8,1,1,2,false,d,false,true,0.0-2.0-0.31-0.285-3.285,0,0,0,90,false,stim,true,1,473,1,0,2,36518,task1,655164,false,true,934,image-keyboard-response,7
true,8,1,1,1,true,z,false,true,0.0-2.0-0.31-0.286-3.286,0,0,0,90,false,stim,false,0,940,1,0,1,36518,task1,657641,false,false,937,image-keyboard-response,8
true,8,2,1,2,true,d,false,true,0.0-2.0-0.31-0.287-3.287,0,0,0,68,false,stim,false,0,503,1,0,0,36518,task1,659674,false,false,940,image-keyboard-response,9
true,8,1,1,1,true,z,false,true,0.0-2.0-0.32-0.288-3.288,0,0,0,90,false,stim,false,0,418,1,0,1,36518,task1,661631,false,false,943,image-keyboard-response,10
true,8,2,1,2,true,d,false,true,0.0-2.0-0.32-0.289-3.289,0,0,0,68,false,stim,false,0,446,1,0,0,36518,task1,663599,false,false,946,image-keyboard-response,11
true,8,1,1,1,true,z,false,true,0.0-2.0-0.32-0.290-3.290,0,0,0,90,false,stim,false,0,457,1,0,1,36518,task1,665578,false,false,949,image-keyboard-response,12
true,8,1,1,1,true,z,false,true,0.0-2.0-0.32-0.291-3.291,0,0,0,90,false,stim,false,0,351,1,0,1,36518,task1,667443,false,false,952,image-keyboard-response,13
true,8,1,1,2,false,d,false,false,0.0-2.0-0.32-0.292-3.292,0,0,0,90,false,stim,true,1,620,1,0,2,36518,task1,669576,false,false,955,image-keyboard-response,14
true,8,1,1,2,false,d,false,false,0.0-2.0-0.32-0.293-3.293,0,0,0,90,false,stim,true,1,323,1,0,2,36518,task1,671416,false,false,958,image-keyboard-response,15
true,8,0,1,2,false,d,true,false,0.0-2.0-0.32-0.294-3.294,0,0,0,81,false,stim,false,1,471,1,0,2,36518,task1,673404,false,false,961,image-keyboard-response,16
true,8,2,1,2,true,d,false,true,0.0-2.0-0.32-0.295-3.295,0,0,0,68,false,stim,false,0,730,1,0,0,36518,task1,675671,false,false,964,image-keyboard-response,17
true,8,2,1,2,true,d,false,false,0.0-2.0-0.32-0.296-3.296,0,0,0,68,false,stim,false,0,354,1,0,0,36518,task1,677546,false,true,967,image-keyboard-response,18
true,8,1,1,1,true,z,false,true,0.0-2.0-0.33-0.297-3.297,0,0,0,90,false,stim,false,0,584,1,0,1,36518,task1,679655,false,false,970,image-keyboard-response,19
true,8,2,1,2,true,d,false,true,0.0-2.0-0.33-0.298-3.298,0,0,0,68,false,stim,false,0,461,1,0,0,36518,task1,681643,false,false,973,image-keyboard-response,20
true,8,2,1,2,true,d,false,false,0.0-2.0-0.33-0.299-3.299,0,0,0,68,false,stim,false,0,313,1,0,0,36518,task1,683495,false,true,976,image-keyboard-response,21
true,8,2,1,2,true,d,false,true,0.0-2.0-0.33-0.300-3.300,0,0,0,68,false,stim,false,1,530,1,0,2,36518,task1,685563,false,false,979,image-keyboard-response,22
true,8,2,1,2,true,d,false,true,0.0-2.0-0.33-0.301-3.301,0,0,0,68,false,stim,false,0,378,1,0,0,36518,task1,687470,false,false,982,image-keyboard-response,23
true,8,2,1,2,true,d,false,false,0.0-2.0-0.33-0.302-3.302,0,0,0,68,false,stim,false,1,375,1,0,2,36518,task1,689357,false,true,985,image-keyboard-response,24
true,8,2,1,2,true,d,false,true,0.0-2.0-0.33-0.303-3.303,0,0,0,68,false,stim,false,1,345,1,0,2,36518,task1,691227,false,false,988,image-keyboard-response,25
true,8,1,1,1,true,z,false,true,0.0-2.0-0.33-0.304-3.304,0,0,0,90,false,stim,false,0,463,1,0,1,36518,task1,693226,false,false,991,image-keyboard-response,26
true,8,1,1,1,true,z,false,true,0.0-2.0-0.33-0.305-3.305,0,0,0,90,false,stim,false,0,305,1,0,1,36518,task1,695067,false,false,994,image-keyboard-response,27
true,8,1,1,1,true,z,false,false,0.0-2.0-0.34-0.306-3.306,0,0,0,90,false,stim,false,0,315,1,0,1,36518,task1,696908,false,true,997,image-keyboard-response,28
true,8,2,1,2,true,d,false,true,0.0-2.0-0.34-0.307-3.307,0,0,0,68,false,stim,false,1,640,1,0,2,36518,task1,699083,false,false,1000,image-keyboard-response,29
true,8,1,1,1,true,z,false,false,0.0-2.0-0.34-0.308-3.308,0,0,0,90,false,stim,false,0,734,1,0,1,36518,task1,701348,false,true,1003,image-keyboard-response,30
true,8,2,1,2,true,d,false,true,0.0-2.0-0.34-0.309-3.309,0,0,0,68,false,stim,false,0,553,1,0,0,36518,task1,703435,false,false,1006,image-keyboard-response,31
true,8,2,1,2,true,d,false,true,0.0-2.0-0.34-0.310-3.310,0,0,0,68,false,stim,false,0,601,1,0,0,36518,task1,705562,false,false,1009,image-keyboard-response,32
true,8,2,1,2,true,d,false,true,0.0-2.0-0.34-0.311-3.311,0,0,0,68,false,stim,false,1,660,1,0,2,36518,task1,707752,false,false,1012,image-keyboard-response,33
true,8,0,1,1,false,z,false,false,0.0-2.0-0.34-0.312-3.312,0,0,0,81,false,stim,true,0,504,1,0,1,36518,task1,709786,false,false,1015,image-keyboard-response,34
true,8,2,1,2,true,d,false,true,0.0-2.0-0.34-0.313-3.313,0,0,0,68,false,stim,false,0,549,1,0,0,36518,task1,711851,false,false,1018,image-keyboard-response,35
true,8,2,1,2,true,d,false,true,0.0-2.0-0.34-0.314-3.314,0,0,0,68,false,stim,false,1,583,1,0,2,36518,task1,713956,false,false,1021,image-keyboard-response,36
true,8,2,1,2,true,d,false,false,0.0-2.0-0.35-0.315-3.315,0,0,0,68,false,stim,false,0,386,1,0,0,36518,task1,715877,false,true,1024,image-keyboard-response,37
true,8,1,1,1,true,z,false,true,0.0-2.0-0.35-0.316-3.316,0,0,0,90,false,stim,false,0,998,1,0,1,36518,task1,718400,false,false,1027,image-keyboard-response,38
true,8,1,1,1,true,z,false,true,0.0-2.0-0.35-0.317-3.317,0,0,0,90,false,stim,false,0,327,1,0,1,36518,task1,720268,false,false,1030,image-keyboard-response,39
true,8,1,1,1,true,z,false,true,0.0-2.0-0.35-0.318-3.318,0,0,0,90,false,stim,false,0,416,1,0,1,36518,task1,722199,false,false,1033,image-keyboard-response,40
true,8,2,1,2,true,d,false,true,0.0-2.0-0.35-0.319-3.319,0,0,0,68,false,stim,false,0,613,1,0,0,36518,task1,724345,false,false,1036,image-keyboard-response,41
true,8,2,1,2,true,d,false,true,0.0-2.0-0.35-0.320-3.320,0,0,0,68,false,stim,false,1,602,1,0,2,36518,task1,726473,false,false,1039,image-keyboard-response,42
true,8,2,1,2,true,d,false,true,0.0-2.0-0.35-0.321-3.321,0,0,0,68,false,stim,false,0,336,1,0,0,36518,task1,728338,false,false,1042,image-keyboard-response,43
true,8,2,1,2,true,d,false,true,0.0-2.0-0.35-0.322-3.322,0,0,0,68,false,stim,false,1,492,1,0,2,36518,task1,730353,false,false,1045,image-keyboard-response,44
true,9,2,2,0,false,q,false,false,0.0-2.0-0.35-0.323-3.323,0,0,0,68,true,stim,true,2,571,1,0,2,36518,task1,732453,false,false,1048,image-keyboard-response,1
true,9,2,2,1,false,z,false,true,0.0-2.0-0.36-0.324-3.324,0,0,0,68,false,stim,true,2,323,1,0,0,36518,task1,734301,false,true,1051,image-keyboard-response,2
true,9,1,2,2,false,d,false,false,0.0-2.0-0.36-0.325-3.325,0,0,0,90,false,stim,true,1,368,1,0,1,36518,task1,736189,false,false,1054,image-keyboard-response,3
true,9,2,2,1,false,z,false,false,0.0-2.0-0.36-0.326-3.326,0,0,0,68,false,stim,true,2,711,1,0,0,36518,task1,738423,false,false,1057,image-keyboard-response,4
true,9,2,2,1,false,z,false,false,0.0-2.0-0.36-0.327-3.327,0,0,0,68,false,stim,true,2,525,1,0,0,36518,task1,740485,false,false,1060,image-keyboard-response,5
true,9,1,2,2,false,d,false,false,0.0-2.0-0.36-0.328-3.328,0,0,0,90,false,stim,true,1,469,1,0,1,36518,task1,742481,false,false,1063,image-keyboard-response,6
true,9,2,2,0,false,q,false,false,0.0-2.0-0.36-0.329-3.329,0,0,0,68,false,stim,true,2,681,1,0,2,36518,task1,744704,false,false,1066,image-keyboard-response,7
true,9,2,2,0,false,q,false,false,0.0-2.0-0.36-0.330-3.330,0,0,0,68,false,stim,true,2,617,1,0,2,36518,task1,746849,false,false,1069,image-keyboard-response,8
true,9,1,2,0,false,q,true,false,0.0-2.0-0.36-0.331-3.331,0,0,0,90,false,stim,false,2,672,1,0,2,36518,task1,749044,false,false,1072,image-keyboard-response,9
true,9,1,2,2,false,d,false,true,0.0-2.0-0.36-0.332-3.332,0,0,0,90,false,stim,true,1,846,1,0,1,36518,task1,751428,false,true,1075,image-keyboard-response,10
true,9,1,2,2,false,d,false,false,0.0-2.0-0.37-0.333-3.333,0,0,0,90,false,stim,true,1,369,1,0,1,36518,task1,753331,false,false,1078,image-keyboard-response,11
true,9,1,2,1,true,z,false,true,0.0-2.0-0.37-0.334-3.334,0,0,0,90,false,stim,false,2,980,1,0,0,36518,task1,755832,false,false,1081,image-keyboard-response,12
true,9,0,2,0,true,q,false,true,0.0-2.0-0.37-0.335-3.335,0,0,0,81,false,stim,false,2,670,1,0,2,36518,task1,758032,false,false,1084,image-keyboard-response,13
true,9,0,2,0,true,q,false,true,0.0-2.0-0.37-0.336-3.336,0,0,0,81,false,stim,false,2,342,1,0,2,36518,task1,759898,false,false,1087,image-keyboard-response,14
true,9,0,2,0,true,q,false,true,0.0-2.0-0.37-0.337-3.337,0,0,0,81,false,stim,false,2,457,1,0,2,36518,task1,761879,false,false,1090,image-keyboard-response,15
true,9,1,2,2,false,d,false,false,0.0-2.0-0.37-0.338-3.338,0,0,0,90,false,stim,true,1,709,1,0,1,36518,task1,764100,false,false,1093,image-keyboard-response,16
true,9,1,2,1,true,z,false,true,0.0-2.0-0.37-0.339-3.339,0,0,0,90,false,stim,false,2,369,1,0,0,36518,task1,766000,false,false,1096,image-keyboard-response,17
true,9,2,2,2,true,d,false,true,0.0-2.0-0.37-0.340-3.340,0,0,0,68,false,stim,false,1,753,1,0,1,36518,task1,768296,false,false,1099,image-keyboard-response,18
true,9,1,2,1,true,z,false,true,0.0-2.0-0.37-0.341-3.341,0,0,0,90,false,stim,false,2,698,1,0,0,36518,task1,770540,false,false,1102,image-keyboard-response,19
true,9,2,2,2,true,d,false,true,0.0-2.0-0.38-0.342-3.342,0,0,0,68,false,stim,false,1,513,1,0,1,36518,task1,772564,false,false,1105,image-keyboard-response,20
true,9,2,2,2,true,d,false,true,0.0-2.0-0.38-0.343-3.343,0,0,0,68,false,stim,false,1,341,1,0,1,36518,task1,774432,false,false,1108,image-keyboard-response,21
true,9,2,2,2,true,d,false,true,0.0-2.0-0.38-0.344-3.344,0,0,0,68,false,stim,false,1,340,1,0,1,36518,task1,776299,false,false,1111,image-keyboard-response,22
true,9,0,2,0,true,q,false,true,0.0-2.0-0.38-0.345-3.345,0,0,0,81,false,stim,false,2,645,1,0,2,36518,task1,778467,false,false,1114,image-keyboard-response,23
true,9,1,2,1,true,z,false,false,0.0-2.0-0.38-0.346-3.346,0,0,0,90,false,stim,false,2,313,1,0,0,36518,task1,780314,false,true,1117,image-keyboard-response,24
true,9,1,2,1,true,z,false,true,0.0-2.0-0.38-0.347-3.347,0,0,0,90,false,stim,false,2,326,1,0,0,36518,task1,782180,false,false,1120,image-keyboard-response,25
true,9,0,2,0,true,q,false,true,0.0-2.0-0.38-0.348-3.348,0,0,0,81,false,stim,false,2,615,1,0,2,36518,task1,784327,false,false,1123,image-keyboard-response,26
true,9,1,2,1,true,z,false,true,0.0-2.0-0.38-0.349-3.349,0,0,0,90,false,stim,false,2,525,1,0,0,36518,task1,786388,false,false,1126,image-keyboard-response,27
true,9,0,2,0,true,q,false,true,0.0-2.0-0.38-0.350-3.350,0,0,0,81,false,stim,false,2,818,1,0,2,36518,task1,788721,false,false,1129,image-keyboard-response,28
true,9,0,2,0,true,q,false,true,0.0-2.0-0.39-0.351-3.351,0,0,0,81,false,stim,false,2,451,1,0,2,36518,task1,790684,false,false,1132,image-keyboard-response,29
true,9,2,2,2,true,d,false,true,0.0-2.0-0.39-0.352-3.352,0,0,0,68,false,stim,false,1,599,1,0,1,36518,task1,792811,false,false,1135,image-keyboard-response,30
true,9,2,2,2,true,d,false,true,0.0-2.0-0.39-0.353-3.353,0,0,0,68,false,stim,false,1,347,1,0,1,36518,task1,794688,false,false,1138,image-keyboard-response,31
true,9,2,2,2,true,d,false,true,0.0-2.0-0.39-0.354-3.354,0,0,0,68,false,stim,false,1,365,1,0,1,36518,task1,796587,false,false,1141,image-keyboard-response,32
true,9,1,2,1,true,z,false,false,0.0-2.0-0.39-0.355-3.355,0,0,0,90,false,stim,false,2,660,1,0,0,36518,task1,798771,false,true,1144,image-keyboard-response,33
true,9,1,2,1,true,z,false,false,0.0-2.0-0.39-0.356-3.356,0,0,0,90,false,stim,false,2,386,1,0,0,36518,task1,800697,false,true,1147,image-keyboard-response,34
true,9,0,2,0,true,q,false,true,0.0-2.0-0.39-0.357-3.357,0,0,0,81,false,stim,false,2,591,1,0,2,36518,task1,802814,false,false,1150,image-keyboard-response,35
true,9,0,2,0,true,q,false,false,0.0-2.0-0.39-0.358-3.358,0,0,0,81,false,stim,false,2,359,1,0,2,36518,task1,804701,false,true,1153,image-keyboard-response,36
true,9,0,2,1,false,z,true,false,0.0-2.0-0.39-0.359-3.359,0,0,0,81,false,stim,false,2,364,1,0,0,36518,task1,806596,false,false,1156,image-keyboard-response,37
true,9,2,2,2,true,d,false,true,0.0-2.0-0.40-0.360-3.360,0,0,0,68,false,stim,false,1,588,1,0,1,36518,task1,808708,false,false,1159,image-keyboard-response,38
true,9,2,2,1,false,z,false,false,0.0-2.0-0.40-0.361-3.361,0,0,0,68,false,stim,true,2,410,1,0,0,36518,task1,810652,false,false,1162,image-keyboard-response,39
true,9,2,2,2,true,d,false,false,0.0-2.0-0.40-0.362-3.362,0,0,0,68,false,stim,false,1,406,1,0,1,36518,task1,812589,false,true,1165,image-keyboard-response,40
true,10,0,2,1,false,z,false,false,0.0-2.0-0.40-0.363-3.363,0,0,0,81,true,stim,true,0,538,1,0,2,36518,task1,814651,false,false,1168,image-keyboard-response,1
true,10,0,2,1,false,z,false,false,0.0-2.0-0.40-0.364-3.364,0,0,0,81,false,stim,true,0,271,1,0,2,36518,task1,816464,false,false,1171,image-keyboard-response,2
true,10,0,2,0,true,q,false,true,0.0-2.0-0.40-0.365-3.365,0,0,0,81,false,stim,false,1,965,1,0,0,36518,task1,818966,false,false,1174,image-keyboard-response,3
true,10,0,2,0,true,q,false,true,0.0-2.0-0.40-0.366-3.366,0,0,0,81,false,stim,false,1,331,1,0,0,36518,task1,820832,false,false,1177,image-keyboard-response,4
true,10,2,2,0,false,q,false,false,0.0-2.0-0.40-0.367-3.367,0,0,0,68,false,stim,true,2,346,1,0,1,36518,task1,822719,false,false,1180,image-keyboard-response,5
true,10,1,2,1,true,z,false,true,0.0-2.0-0.40-0.368-3.368,0,0,0,90,false,stim,false,0,660,1,0,2,36518,task1,824909,false,false,1183,image-keyboard-response,6
true,10,1,2,1,true,z,false,true,0.0-2.0-0.41-0.369-3.369,0,0,0,90,false,stim,false,0,312,1,0,2,36518,task1,826735,false,false,1186,image-keyboard-response,7
true,10,0,2,0,true,q,false,true,0.0-2.0-0.41-0.370-3.370,0,0,0,81,false,stim,false,1,486,1,0,0,36518,task1,828748,false,false,1189,image-keyboard-response,8
true,10,1,2,0,false,q,true,false,0.0-2.0-0.41-0.371-3.371,0,0,0,90,false,stim,false,2,480,1,0,1,36518,task1,830753,false,false,1192,image-keyboard-response,9
true,10,1,2,0,false,q,true,false,0.0-2.0-0.41-0.372-3.372,0,0,0,90,false,stim,false,2,351,1,0,1,36518,task1,832612,false,false,1195,image-keyboard-response,10
true,10,0,2,0,true,q,false,true,0.0-2.0-0.41-0.373-3.373,0,0,0,81,false,stim,false,2,476,1,0,1,36518,task1,834619,false,false,1198,image-keyboard-response,11
true,10,1,2,1,true,z,false,true,0.0-2.0-0.41-0.374-3.374,0,0,0,90,false,stim,false,0,531,1,0,2,36518,task1,836675,false,false,1201,image-keyboard-response,12
true,10,0,2,0,true,q,false,true,0.0-2.0-0.41-0.375-3.375,0,0,0,81,false,stim,false,1,475,1,0,0,36518,task1,838667,false,false,1204,image-keyboard-response,13
true,10,0,2,0,true,q,false,true,0.0-2.0-0.41-0.376-3.376,0,0,0,81,false,stim,false,1,360,1,0,0,36518,task1,840563,false,false,1207,image-keyboard-response,14
true,10,1,2,1,true,z,false,true,0.0-2.0-0.41-0.377-3.377,0,0,0,90,false,stim,false,0,763,1,0,2,36518,task1,842863,false,false,1210,image-keyboard-response,15
true,10,0,2,0,true,q,false,false,0.0-2.0-0.42-0.378-3.378,0,0,0,81,false,stim,false,2,432,1,0,1,36518,task1,844814,false,true,1213,image-keyboard-response,16
true,10,0,2,0,true,q,false,true,0.0-2.0-0.42-0.379-3.379,0,0,0,81,false,stim,false,2,369,1,0,1,36518,task1,846720,false,false,1216,image-keyboard-response,17
true,10,0,2,0,true,q,false,true,0.0-2.0-0.42-0.380-3.380,0,0,0,81,false,stim,false,1,411,1,0,0,36518,task1,848655,false,false,1219,image-keyboard-response,18
true,10,0,2,0,true,q,false,true,0.0-2.0-0.42-0.381-3.381,0,0,0,81,false,stim,false,1,328,1,0,0,36518,task1,850512,false,false,1222,image-keyboard-response,19
true,10,0,2,0,true,q,false,true,0.0-2.0-0.42-0.382-3.382,0,0,0,81,false,stim,false,2,562,1,0,1,36518,task1,852605,false,false,1225,image-keyboard-response,20
true,10,1,2,1,true,z,false,true,0.0-2.0-0.42-0.383-3.383,0,0,0,90,false,stim,false,0,488,1,0,2,36518,task1,854631,false,false,1228,image-keyboard-response,21
true,10,1,2,1,true,z,false,true,0.0-2.0-0.42-0.384-3.384,0,0,0,90,false,stim,false,0,506,1,0,2,36518,task1,856660,false,false,1231,image-keyboard-response,22
true,10,0,2,0,true,q,false,true,0.0-2.0-0.42-0.385-3.385,0,0,0,81,false,stim,false,1,623,1,0,0,36518,task1,858805,false,false,1234,image-keyboard-response,23
true,10,1,2,1,true,z,false,true,0.0-2.0-0.42-0.386-3.386,0,0,0,90,false,stim,false,0,681,1,0,2,36518,task1,861014,false,false,1237,image-keyboard-response,24
true,10,0,2,0,true,q,false,true,0.0-2.0-0.43-0.387-3.387,0,0,0,81,false,stim,false,1,405,1,0,0,36518,task1,862948,false,false,1240,image-keyboard-response,25
true,10,0,2,0,true,q,false,true,0.0-2.0-0.43-0.388-3.388,0,0,0,81,false,stim,false,2,628,1,0,1,36518,task1,865092,false,false,1243,image-keyboard-response,26
true,10,1,2,1,true,z,false,true,0.0-2.0-0.43-0.389-3.389,0,0,0,90,false,stim,false,0,592,1,0,2,36518,task1,867203,false,false,1246,image-keyboard-response,27
true,10,1,2,1,true,z,false,true,0.0-2.0-0.43-0.390-3.390,0,0,0,90,false,stim,false,0,526,1,0,2,36518,task1,869259,false,false,1249,image-keyboard-response,28
true,10,0,2,0,true,q,false,true,0.0-2.0-0.43-0.391-3.391,0,0,0,81,false,stim,false,2,741,1,0,1,36518,task1,871523,false,false,1252,image-keyboard-response,29
true,10,1,2,1,true,z,false,true,0.0-2.0-0.43-0.392-3.392,0,0,0,90,false,stim,false,0,744,1,0,2,36518,task1,873807,false,false,1255,image-keyboard-response,30
true,10,0,2,0,true,q,false,true,0.0-2.0-0.43-0.393-3.393,0,0,0,81,false,stim,false,2,422,1,0,1,36518,task1,875753,false,false,1258,image-keyboard-response,31
true,10,0,2,0,true,q,false,true,0.0-2.0-0.43-0.394-3.394,0,0,0,81,false,stim,false,1,463,1,0,0,36518,task1,877742,false,false,1261,image-keyboard-response,32
true,10,0,2,0,true,q,false,true,0.0-2.0-0.43-0.395-3.395,0,0,0,81,false,stim,false,1,534,1,0,0,36518,task1,879806,false,false,1264,image-keyboard-response,33
true,10,0,2,0,true,q,false,false,0.0-2.0-0.44-0.396-3.396,0,0,0,81,false,stim,false,1,360,1,0,0,36518,task1,881693,false,true,1267,image-keyboard-response,34
true,10,1,2,1,true,z,false,true,0.0-2.0-0.44-0.397-3.397,0,0,0,90,false,stim,false,0,510,1,0,2,36518,task1,883741,false,false,1270,image-keyboard-response,35
true,10,0,2,0,true,q,false,true,0.0-2.0-0.44-0.398-3.398,0,0,0,81,false,stim,false,1,875,1,0,0,36518,task1,886147,false,false,1273,image-keyboard-response,36
true,10,0,2,0,true,q,false,true,0.0-2.0-0.44-0.399-3.399,0,0,0,81,false,stim,false,2,514,1,0,1,36518,task1,888196,false,false,1276,image-keyboard-response,37
true,10,0,2,0,true,q,false,true,0.0-2.0-0.44-0.400-3.400,0,0,0,81,false,stim,false,2,363,1,0,1,36518,task1,890085,false,false,1279,image-keyboard-response,38
true,10,1,2,1,true,z,false,true,0.0-2.0-0.44-0.401-3.401,0,0,0,90,false,stim,false,0,800,1,0,2,36518,task1,892422,false,false,1282,image-keyboard-response,39
true,10,0,2,0,true,q,false,true,0.0-2.0-0.44-0.402-3.402,0,0,0,81,false,stim,false,2,429,1,0,1,36518,task1,894371,false,false,1285,image-keyboard-response,40
true,10,1,2,1,true,z,false,true,0.0-2.0-0.44-0.403-3.403,0,0,0,90,false,stim,false,0,519,1,0,2,36518,task1,896426,false,false,1288,image-keyboard-response,41
true,10,0,2,0,true,q,false,true,0.0-2.0-0.44-0.404-3.404,0,0,0,81,false,stim,false,1,447,1,0,0,36518,task1,898389,false,false,1291,image-keyboard-response,42
true,10,0,2,0,true,q,false,true,0.0-2.0-0.45-0.405-3.405,0,0,0,81,false,stim,false,1,320,1,0,0,36518,task1,900241,false,false,1294,image-keyboard-response,43
true,10,0,2,0,true,q,false,true,0.0-2.0-0.45-0.406-3.406,0,0,0,81,false,stim,false,2,629,1,0,1,36518,task1,902381,false,false,1297,image-keyboard-response,44
true,11,1,2,0,false,q,false,true,0.0-2.0-0.45-0.407-3.407,0,0,0,90,true,stim,true,1,473,1,0,2,36518,task1,904380,false,true,1300,image-keyboard-response,1
true,11,1,2,0,false,q,false,true,0.0-2.0-0.45-0.408-3.408,0,0,0,90,false,stim,true,1,368,1,0,2,36518,task1,906289,false,true,1303,image-keyboard-response,2
true,11,0,2,1,false,z,false,false,0.0-2.0-0.45-0.409-3.409,0,0,0,81,false,stim,true,0,455,1,0,0,36518,task1,908279,false,false,1306,image-keyboard-response,3
true,11,1,2,0,false,q,false,false,0.0-2.0-0.45-0.410-3.410,0,0,0,90,false,stim,true,1,582,1,0,2,36518,task1,910375,false,false,1309,image-keyboard-response,4
true,11,0,2,2,false,d,false,false,0.0-2.0-0.45-0.411-3.411,0,0,0,81,false,stim,true,0,464,1,0,1,36518,task1,912372,false,false,1312,image-keyboard-response,5
true,11,0,2,2,false,d,false,false,0.0-2.0-0.45-0.412-3.412,0,0,0,81,false,stim,true,0,429,1,0,1,36518,task1,914329,false,false,1315,image-keyboard-response,6
true,11,0,2,1,false,z,false,false,0.0-2.0-0.45-0.413-3.413,0,0,0,81,false,stim,true,0,542,1,0,0,36518,task1,916404,false,false,1318,image-keyboard-response,7
true,11,2,2,2,true,d,false,true,0.0-2.0-0.46-0.414-3.414,0,0,0,68,false,stim,false,0,1385,1,0,1,36518,task1,919306,false,false,1321,image-keyboard-response,8
true,11,1,2,0,false,q,false,false,0.0-2.0-0.46-0.415-3.415,0,0,0,90,false,stim,true,1,892,1,0,2,36518,task1,921736,false,false,1324,image-keyboard-response,9
true,11,1,2,1,true,z,false,true,0.0-2.0-0.46-0.416-3.416,0,0,0,90,false,stim,false,0,1169,1,0,0,36518,task1,924433,false,false,1327,image-keyboard-response,10
true,11,0,2,0,true,q,false,true,0.0-2.0-0.46-0.417-3.417,0,0,0,81,false,stim,false,1,865,1,0,2,36518,task1,926828,false,false,1330,image-keyboard-response,11
true,11,2,2,2,true,d,false,true,0.0-2.0-0.46-0.418-3.418,0,0,0,68,false,stim,false,0,577,1,0,1,36518,task1,928929,false,false,1333,image-keyboard-response,12
true,11,2,2,2,true,d,false,true,0.0-2.0-0.46-0.419-3.419,0,0,0,68,false,stim,false,0,355,1,0,1,36518,task1,930817,false,false,1336,image-keyboard-response,13
true,11,1,2,1,true,z,false,true,0.0-2.0-0.46-0.420-3.420,0,0,0,90,false,stim,false,0,358,1,0,0,36518,task1,932701,false,false,1339,image-keyboard-response,14
true,11,1,2,1,true,z,false,true,0.0-2.0-0.46-0.421-3.421,0,0,0,90,false,stim,false,0,333,1,0,0,36518,task1,934570,false,false,1342,image-keyboard-response,15
true,11,0,2,0,true,q,false,true,0.0-2.0-0.46-0.422-3.422,0,0,0,81,false,stim,false,1,452,1,0,2,36518,task1,936543,false,false,1345,image-keyboard-response,16
true,11,0,2,0,true,q,false,true,0.0-2.0-0.47-0.423-3.423,0,0,0,81,false,stim,false,1,332,1,0,2,36518,task1,938404,false,false,1348,image-keyboard-response,17
true,11,2,2,2,true,d,false,false,0.0-2.0-0.47-0.424-3.424,0,0,0,68,false,stim,false,0,525,1,0,1,36518,task1,940466,false,true,1351,image-keyboard-response,18
true,11,0,2,0,true,q,false,true,0.0-2.0-0.47-0.425-3.425,0,0,0,81,false,stim,false,1,504,1,0,2,36518,task1,942508,false,false,1354,image-keyboard-response,19
true,11,2,2,2,true,d,false,true,0.0-2.0-0.47-0.426-3.426,0,0,0,68,false,stim,false,0,741,1,0,1,36518,task1,944773,false,false,1357,image-keyboard-response,20
true,11,1,2,1,true,z,false,true,0.0-2.0-0.47-0.427-3.427,0,0,0,90,false,stim,false,0,446,1,0,0,36518,task1,946759,false,false,1360,image-keyboard-response,21
true,11,1,2,1,true,z,false,true,0.0-2.0-0.47-0.428-3.428,0,0,0,90,false,stim,false,0,307,1,0,0,36518,task1,948589,false,false,1363,image-keyboard-response,22
true,11,0,2,0,true,q,false,true,0.0-2.0-0.47-0.429-3.429,0,0,0,81,false,stim,false,1,566,1,0,2,36518,task1,950689,false,false,1366,image-keyboard-response,23
true,11,1,2,1,true,z,false,true,0.0-2.0-0.47-0.430-3.430,0,0,0,90,false,stim,false,0,562,1,0,0,36518,task1,952776,false,false,1369,image-keyboard-response,24
true,11,2,2,2,true,d,false,true,0.0-2.0-0.47-0.431-3.431,0,0,0,68,false,stim,false,0,580,1,0,1,36518,task1,954893,false,false,1372,image-keyboard-response,25
true,11,0,2,0,true,q,false,true,0.0-2.0-0.48-0.432-3.432,0,0,0,81,false,stim,false,1,1087,1,0,2,36518,task1,957520,false,false,1375,image-keyboard-response,26
true,11,2,2,2,true,d,false,true,0.0-2.0-0.48-0.433-3.433,0,0,0,68,false,stim,false,0,610,1,0,1,36518,task1,959672,false,false,1378,image-keyboard-response,27
true,11,2,2,2,true,d,false,true,0.0-2.0-0.48-0.434-3.434,0,0,0,68,false,stim,false,0,405,1,0,1,36518,task1,961618,false,false,1381,image-keyboard-response,28
true,11,0,2,0,true,q,false,false,0.0-2.0-0.48-0.435-3.435,0,0,0,81,false,stim,false,1,684,1,0,2,36518,task1,963836,false,true,1384,image-keyboard-response,29
true,11,0,2,0,true,q,false,true,0.0-2.0-0.48-0.436-3.436,0,0,0,81,false,stim,false,1,339,1,0,2,36518,task1,965701,false,false,1387,image-keyboard-response,30
true,11,1,2,1,true,z,false,true,0.0-2.0-0.48-0.437-3.437,0,0,0,90,false,stim,false,0,748,1,0,0,36518,task1,967981,false,false,1390,image-keyboard-response,31
true,11,1,2,1,true,z,false,true,0.0-2.0-0.48-0.438-3.438,0,0,0,90,false,stim,false,0,330,1,0,0,36518,task1,969852,false,false,1393,image-keyboard-response,32
true,11,2,2,2,true,d,false,true,0.0-2.0-0.48-0.439-3.439,0,0,0,68,false,stim,false,0,426,1,0,1,36518,task1,971809,false,false,1396,image-keyboard-response,33
true,11,1,2,1,true,z,false,true,0.0-2.0-0.48-0.440-3.440,0,0,0,90,false,stim,false,0,687,1,0,0,36518,task1,974020,false,false,1399,image-keyboard-response,34
true,11,1,2,1,true,z,false,true,0.0-2.0-0.49-0.441-3.441,0,0,0,90,false,stim,false,0,263,1,0,0,36518,task1,975807,false,false,1402,image-keyboard-response,35
true,11,0,2,0,true,q,false,true,0.0-2.0-0.49-0.442-3.442,0,0,0,81,false,stim,false,1,579,1,0,2,36518,task1,977922,false,false,1405,image-keyboard-response,36
true,11,2,2,2,true,d,false,true,0.0-2.0-0.49-0.443-3.443,0,0,0,68,false,stim,false,0,510,1,0,1,36518,task1,979973,false,false,1408,image-keyboard-response,37
true,11,2,2,2,true,d,false,true,0.0-2.0-0.49-0.444-3.444,0,0,0,68,false,stim,false,0,440,1,0,1,36518,task1,981952,false,false,1411,image-keyboard-response,38
true,11,1,2,1,true,z,false,true,0.0-2.0-0.49-0.445-3.445,0,0,0,90,false,stim,false,0,445,1,0,0,36518,task1,983917,false,false,1414,image-keyboard-response,39
true,11,2,2,2,true,d,false,true,0.0-2.0-0.49-0.446-3.446,0,0,0,68,false,stim,false,0,427,1,0,1,36518,task1,985870,false,false,1417,image-keyboard-response,40
true,11,0,2,1,false,z,false,false,0.0-2.0-0.49-0.447-3.447,0,0,0,81,false,stim,true,0,476,1,0,0,36518,task1,987878,false,false,1420,image-keyboard-response,41
true,11,0,2,0,true,q,false,true,0.0-2.0-0.49-0.448-3.448,0,0,0,81,false,stim,false,1,326,1,0,2,36518,task1,989729,false,false,1423,image-keyboard-response,42
true,11,0,2,0,true,q,false,true,0.0-2.0-0.49-0.449-3.449,0,0,0,81,false,stim,false,1,283,1,0,2,36518,task1,991536,false,false,1426,image-keyboard-response,43
true,11,1,2,1,true,z,false,true,0.0-2.0-0.50-0.450-3.450,0,0,0,90,false,stim,false,0,337,1,0,0,36518,task1,993401,false,false,1429,image-keyboard-response,44
true,12,0,2,1,false,z,false,false,0.0-2.0-0.50-0.451-3.451,0,0,0,81,true,stim,true,0,541,1,0,2,36518,task1,995465,false,false,1432,image-keyboard-response,1
true,12,1,2,0,false,q,false,false,0.0-2.0-0.50-0.452-3.452,0,0,0,90,false,stim,true,1,539,1,0,0,36518,task1,997542,false,false,1435,image-keyboard-response,2
true,12,2,2,0,false,q,false,false,0.0-2.0-0.50-0.453-3.453,0,0,0,68,false,stim,true,2,501,1,0,1,36518,task1,999574,false,false,1438,image-keyboard-response,3
true,12,2,2,0,false,q,false,false,0.0-2.0-0.50-0.454-3.454,0,0,0,68,false,stim,true,2,375,1,0,1,36518,task1,1001478,false,false,1441,image-keyboard-response,4
true,12,0,2,1,false,z,false,false,0.0-2.0-0.50-0.455-3.455,0,0,0,81,false,stim,true,0,699,1,0,2,36518,task1,1003712,false,false,1444,image-keyboard-response,5
true,12,1,2,0,false,q,true,false,0.0-2.0-0.50-0.456-3.456,0,0,0,90,false,stim,false,2,727,1,0,1,36518,task1,1005971,false,false,1447,image-keyboard-response,6
true,12,1,2,0,false,q,false,false,0.0-2.0-0.50-0.457-3.457,0,0,0,90,false,stim,true,1,697,1,0,0,36518,task1,1008199,false,false,1450,image-keyboard-response,7
true,12,1,2,1,true,z,false,true,0.0-2.0-0.50-0.458-3.458,0,0,0,90,false,stim,false,0,578,1,0,2,36518,task1,1010300,false,false,1453,image-keyboard-response,8
true,12,0,2,0,true,q,false,true,0.0-2.0-0.51-0.459-3.459,0,0,0,81,false,stim,false,2,1024,1,0,1,36518,task1,1012857,false,false,1456,image-keyboard-response,9
true,12,0,2,0,true,q,false,false,0.0-2.0-0.51-0.460-3.460,0,0,0,81,false,stim,false,2,331,1,0,1,36518,task1,1014714,false,true,1459,image-keyboard-response,10
true,12,1,2,1,true,z,false,true,0.0-2.0-0.51-0.461-3.461,0,0,0,90,false,stim,false,0,438,1,0,2,36518,task1,1016678,false,false,1462,image-keyboard-response,11
true,12,0,2,0,true,q,false,true,0.0-2.0-0.51-0.462-3.462,0,0,0,81,false,stim,false,1,1036,1,0,0,36518,task1,1019228,false,false,1465,image-keyboard-response,12
true,12,0,2,0,true,q,false,true,0.0-2.0-0.51-0.463-3.463,0,0,0,81,false,stim,false,2,352,1,0,1,36518,task1,1021094,false,false,1468,image-keyboard-response,13
true,12,0,2,0,true,q,false,true,0.0-2.0-0.51-0.464-3.464,0,0,0,81,false,stim,false,1,551,1,0,0,36518,task1,1023174,false,false,1471,image-keyboard-response,14
true,12,1,2,1,true,z,false,true,0.0-2.0-0.51-0.465-3.465,0,0,0,90,false,stim,false,0,496,1,0,2,36518,task1,1025202,false,false,1474,image-keyboard-response,15
true,12,1,2,1,true,z,false,true,0.0-2.0-0.51-0.466-3.466,0,0,0,90,false,stim,false,0,418,1,0,2,36518,task1,1027152,false,false,1477,image-keyboard-response,16
true,12,0,2,0,true,q,false,true,0.0-2.0-0.51-0.467-3.467,0,0,0,81,false,stim,false,1,452,1,0,0,36518,task1,1029145,false,false,1480,image-keyboard-response,17
true,12,1,2,1,true,z,false,true,0.0-2.0-0.52-0.468-3.468,0,0,0,90,false,stim,false,0,469,1,0,2,36518,task1,1031152,false,false,1483,image-keyboard-response,18
true,12,0,2,0,true,q,false,true,0.0-2.0-0.52-0.469-3.469,0,0,0,81,false,stim,false,2,472,1,0,1,36518,task1,1033154,false,false,1486,image-keyboard-response,19
true,12,0,2,0,true,q,false,true,0.0-2.0-0.52-0.470-3.470,0,0,0,81,false,stim,false,2,327,1,0,1,36518,task1,1035000,false,false,1489,image-keyboard-response,20
true,12,1,2,0,false,q,false,false,0.0-2.0-0.52-0.471-3.471,0,0,0,90,false,stim,true,1,371,1,0,0,36518,task1,1036893,false,false,1492,image-keyboard-response,21
true,12,0,2,1,false,z,false,true,0.0-2.0-0.52-0.472-3.472,0,0,0,81,false,stim,true,0,373,1,0,2,36518,task1,1038795,false,true,1495,image-keyboard-response,22
true,12,1,2,1,true,z,false,true,0.0-2.0-0.52-0.473-3.473,0,0,0,90,false,stim,false,0,508,1,0,2,36518,task1,1040841,false,false,1498,image-keyboard-response,23
true,12,0,2,0,true,q,false,false,0.0-2.0-0.52-0.474-3.474,0,0,0,81,false,stim,false,1,860,1,0,0,36518,task1,1043250,false,true,1501,image-keyboard-response,24
true,12,0,2,0,true,q,false,true,0.0-2.0-0.52-0.475-3.475,0,0,0,81,false,stim,false,2,429,1,0,1,36518,task1,1045212,false,false,1504,image-keyboard-response,25
true,12,0,2,0,true,q,false,true,0.0-2.0-0.52-0.476-3.476,0,0,0,81,false,stim,false,1,395,1,0,0,36518,task1,1047128,false,false,1507,image-keyboard-response,26
true,12,0,2,0,true,q,false,false,0.0-2.0-0.53-0.477-3.477,0,0,0,81,false,stim,false,2,408,1,0,1,36518,task1,1049055,false,true,1510,image-keyboard-response,27
true,12,0,2,0,true,q,false,true,0.0-2.0-0.53-0.478-3.478,0,0,0,81,false,stim,false,1,359,1,0,0,36518,task1,1050942,false,false,1513,image-keyboard-response,28
true,12,0,2,0,true,q,false,true,0.0-2.0-0.53-0.479-3.479,0,0,0,81,false,stim,false,1,357,1,0,0,36518,task1,1052840,false,false,1516,image-keyboard-response,29
true,12,1,2,1,true,z,false,true,0.0-2.0-0.53-0.480-3.480,0,0,0,90,false,stim,false,0,613,1,0,2,36518,task1,1054966,false,false,1519,image-keyboard-response,30
true,12,0,2,0,true,q,false,false,0.0-2.0-0.53-0.481-3.481,0,0,0,81,false,stim,false,2,718,1,0,1,36518,task1,1057211,false,true,1522,image-keyboard-response,31
true,12,1,2,1,true,z,false,true,0.0-2.0-0.53-0.482-3.482,0,0,0,90,false,stim,false,0,475,1,0,2,36518,task1,1059228,false,false,1525,image-keyboard-response,32
true,12,1,2,1,true,z,false,true,0.0-2.0-0.53-0.483-3.483,0,0,0,90,false,stim,false,0,410,1,0,2,36518,task1,1061173,false,false,1528,image-keyboard-response,33
true,12,1,2,0,false,q,true,false,0.0-2.0-0.53-0.484-3.484,0,0,0,90,false,stim,false,2,754,1,0,1,36518,task1,1063446,false,false,1531,image-keyboard-response,34
true,12,0,2,0,true,q,false,true,0.0-2.0-0.53-0.485-3.485,0,0,0,81,false,stim,false,1,637,1,0,0,36518,task1,1065609,false,false,1534,image-keyboard-response,35
true,12,2,2,0,false,q,false,false,0.0-2.0-0.54-0.486-3.486,0,0,0,68,false,stim,true,2,362,1,0,1,36518,task1,1067505,false,false,1537,image-keyboard-response,36
true,12,0,2,0,true,q,false,true,0.0-2.0-0.54-0.487-3.487,0,0,0,81,false,stim,false,1,621,1,0,0,36518,task1,1069663,false,false,1540,image-keyboard-response,37
true,12,0,2,0,true,q,false,true,0.0-2.0-0.54-0.488-3.488,0,0,0,81,false,stim,false,1,572,1,0,0,36518,task1,1071765,false,false,1543,image-keyboard-response,38
true,12,1,2,0,false,q,true,false,0.0-2.0-0.54-0.489-3.489,0,0,0,90,false,stim,false,2,877,1,0,1,36518,task1,1074169,false,false,1546,image-keyboard-response,39
true,12,1,2,1,true,z,false,true,0.0-2.0-0.54-0.490-3.490,0,0,0,90,false,stim,false,0,614,1,0,2,36518,task1,1076317,false,false,1549,image-keyboard-response,40
true,12,1,2,1,true,z,false,true,0.0-2.0-0.54-0.491-3.491,0,0,0,90,false,stim,false,0,365,1,0,2,36518,task1,1078207,false,false,1552,image-keyboard-response,41
true,13,0,2,1,false,z,false,false,0.0-2.0-0.54-0.492-3.492,0,0,0,81,true,stim,true,0,603,1,0,0,36518,task1,1080335,false,false,1555,image-keyboard-response,1
true,13,1,2,0,false,q,false,false,0.0-2.0-0.54-0.493-3.493,0,0,0,90,false,stim,true,1,589,1,0,2,36518,task1,1082443,false,false,1558,image-keyboard-response,2
true,13,0,2,2,false,d,false,false,0.0-2.0-0.54-0.494-3.494,0,0,0,81,false,stim,true,0,337,1,0,1,36518,task1,1084320,false,false,1561,image-keyboard-response,3
true,13,1,2,0,false,q,false,false,0.0-2.0-0.55-0.495-3.495,0,0,0,90,false,stim,true,1,630,1,0,2,36518,task1,1086473,false,false,1564,image-keyboard-response,4
true,13,0,2,1,false,z,false,false,0.0-2.0-0.55-0.496-3.496,0,0,0,81,false,stim,true,0,637,1,0,0,36518,task1,1088628,false,false,1567,image-keyboard-response,5
true,13,0,2,1,false,z,false,false,0.0-2.0-0.55-0.497-3.497,0,0,0,81,false,stim,true,0,415,1,0,0,36518,task1,1090567,false,false,1570,image-keyboard-response,6
true,13,1,2,2,false,d,true,false,0.0-2.0-0.55-0.498-3.498,0,0,0,90,false,stim,false,0,1330,1,0,1,36518,task1,1093423,false,false,1573,image-keyboard-response,7
true,13,1,2,0,false,q,false,false,0.0-2.0-0.55-0.499-3.499,0,0,0,90,false,stim,true,1,567,1,0,2,36518,task1,1095529,false,false,1576,image-keyboard-response,8
true,13,2,2,2,true,d,false,false,0.0-2.0-0.55-0.500-3.500,0,0,0,68,false,stim,false,0,859,1,0,1,36518,task1,1097913,false,true,1579,image-keyboard-response,9
true,13,2,2,0,false,q,true,false,0.0-2.0-0.55-0.501-3.501,0,0,0,68,false,stim,false,1,568,1,0,2,36518,task1,1100021,false,false,1582,image-keyboard-response,10
true,13,2,2,1,false,z,true,false,0.0-2.0-0.55-0.502-3.502,0,0,0,68,false,stim,false,0,522,1,0,0,36518,task1,1102087,false,false,1585,image-keyboard-response,11
true,13,0,2,2,false,d,false,false,0.0-2.0-0.55-0.503-3.503,0,0,0,81,false,stim,true,0,1350,1,0,1,36518,task1,1104973,false,false,1588,image-keyboard-response,12
true,13,0,2,1,false,z,false,false,0.0-2.0-0.56-0.504-3.504,0,0,0,81,false,stim,true,0,362,1,0,0,36518,task1,1106875,false,false,1591,image-keyboard-response,13
true,13,1,2,2,false,d,true,true,0.0-2.0-0.56-0.505-3.505,0,0,0,90,false,stim,false,0,816,1,0,1,36518,task1,1109229,false,true,1594,image-keyboard-response,14
true,13,1,2,1,true,z,false,true,0.0-2.0-0.56-0.506-3.506,0,0,0,90,false,stim,false,0,841,1,0,0,36518,task1,1111604,false,false,1597,image-keyboard-response,15
true,13,0,2,0,true,q,false,true,0.0-2.0-0.56-0.507-3.507,0,0,0,81,false,stim,false,1,515,1,0,2,36518,task1,1113648,false,false,1600,image-keyboard-response,16
true,13,1,2,1,true,z,false,true,0.0-2.0-0.56-0.508-3.508,0,0,0,90,false,stim,false,0,433,1,0,0,36518,task1,1115625,false,false,1603,image-keyboard-response,17
true,13,0,2,0,true,q,false,true,0.0-2.0-0.56-0.509-3.509,0,0,0,81,false,stim,false,1,822,1,0,2,36518,task1,1117986,false,false,1606,image-keyboard-response,18
true,13,1,2,2,false,d,true,false,0.0-2.0-0.56-0.510-3.510,0,0,0,90,false,stim,false,0,458,1,0,1,36518,task1,1119981,false,false,1609,image-keyboard-response,19
true,13,0,2,0,true,q,false,true,0.0-2.0-0.56-0.511-3.511,0,0,0,81,false,stim,false,1,625,1,0,2,36518,task1,1122137,false,false,1612,image-keyboard-response,20
true,13,1,2,2,false,d,true,false,0.0-2.0-0.56-0.512-3.512,0,0,0,90,false,stim,false,0,387,1,0,1,36518,task1,1124060,false,false,1615,image-keyboard-response,21
true,13,1,2,1,true,z,false,true,0.0-2.0-0.57-0.513-3.513,0,0,0,90,false,stim,false,0,623,1,0,0,36518,task1,1126205,false,false,1618,image-keyboard-response,22
true,13,0,2,0,true,q,false,true,0.0-2.0-0.57-0.514-3.514,0,0,0,81,false,stim,false,1,502,1,0,2,36518,task1,1128246,false,false,1621,image-keyboard-response,23
true,13,1,2,1,true,z,false,true,0.0-2.0-0.57-0.515-3.515,0,0,0,90,false,stim,false,0,559,1,0,0,36518,task1,1130342,false,false,1624,image-keyboard-response,24
true,13,0,2,0,true,q,false,true,0.0-2.0-0.57-0.516-3.516,0,0,0,81,false,stim,false,1,442,1,0,2,36518,task1,1132315,false,false,1627,image-keyboard-response,25
true,13,0,2,0,true,q,false,true,0.0-2.0-0.57-0.517-3.517,0,0,0,81,false,stim,false,1,456,1,0,2,36518,task1,1134308,false,false,1630,image-keyboard-response,26
true,13,0,2,2,false,d,false,false,0.0-2.0-0.57-0.518-3.518,0,0,0,81,false,stim,true,0,609,1,0,1,36518,task1,1136432,false,false,1633,image-keyboard-response,27
true,13,0,2,2,false,d,false,false,0.0-2.0-0.57-0.519-3.519,0,0,0,81,false,stim,true,0,870,1,0,1,36518,task1,1138842,false,false,1636,image-keyboard-response,28
true,13,0,2,1,false,z,false,false,0.0-2.0-0.57-0.520-3.520,0,0,0,81,false,stim,true,0,974,1,0,0,36518,task1,1141346,false,false,1639,image-keyboard-response,29
true,13,1,2,2,false,d,true,false,0.0-2.0-0.57-0.521-3.521,0,0,0,90,false,stim,false,0,921,1,0,1,36518,task1,1143796,false,false,1642,image-keyboard-response,30
true,13,0,2,0,true,q,false,true,0.0-2.0-0.58-0.522-3.522,0,0,0,81,false,stim,false,1,581,1,0,2,36518,task1,1145890,false,false,1645,image-keyboard-response,31
true,13,1,2,1,true,z,false,true,0.0-2.0-0.58-0.523-3.523,0,0,0,90,false,stim,false,0,736,1,0,0,36518,task1,1148150,false,false,1648,image-keyboard-response,32
true,13,1,2,1,true,z,false,true,0.0-2.0-0.58-0.524-3.524,0,0,0,90,false,stim,false,0,443,1,0,0,36518,task1,1150138,false,false,1651,image-keyboard-response,33
true,13,2,2,2,true,d,false,true,0.0-2.0-0.58-0.525-3.525,0,0,0,68,false,stim,false,0,954,1,0,1,36518,task1,1152627,false,false,1654,image-keyboard-response,34
true,13,0,2,0,true,q,false,true,0.0-2.0-0.58-0.526-3.526,0,0,0,81,false,stim,false,1,783,1,0,2,36518,task1,1154947,false,false,1657,image-keyboard-response,35
true,13,2,2,2,true,d,false,true,0.0-2.0-0.58-0.527-3.527,0,0,0,68,false,stim,false,0,406,1,0,1,36518,task1,1156878,false,false,1660,image-keyboard-response,36
true,13,2,2,2,true,d,false,true,0.0-2.0-0.58-0.528-3.528,0,0,0,68,false,stim,false,0,381,1,0,1,36518,task1,1158775,false,false,1663,image-keyboard-response,37
true,13,1,2,1,true,z,false,true,0.0-2.0-0.58-0.529-3.529,0,0,0,90,false,stim,false,0,342,1,0,0,36518,task1,1160655,false,false,1666,image-keyboard-response,38
true,13,0,2,0,true,q,false,false,0.0-2.0-0.58-0.530-3.530,0,0,0,81,false,stim,false,1,477,1,1,2,36518,task1,1162660,false,true,1669,image-keyboard-response,39
true,13,2,2,2,true,d,false,true,0.0-2.0-0.59-0.531-3.531,0,0,0,68,false,stim,false,0,547,1,1,1,36518,task1,1164751,false,false,1672,image-keyboard-response,40
true,13,2,2,2,true,d,false,true,0.0-2.0-0.59-0.532-3.532,0,0,0,68,false,stim,false,0,365,1,1,1,36518,task1,1166637,false,false,1675,image-keyboard-response,41
true,13,1,2,1,true,z,false,true,0.0-2.0-0.59-0.533-3.533,0,0,0,90,false,stim,false,0,625,1,1,0,36518,task1,1168799,false,false,1678,image-keyboard-response,42
true,13,0,2,0,true,q,false,true,0.0-2.0-0.59-0.534-3.534,0,0,0,81,false,stim,false,1,373,1,1,2,36518,task1,1170688,false,false,1681,image-keyboard-response,43
true,14,2,0,1,false,z,true,false,0.0-2.0-0.59-0.535-3.535,1,1,1,68,true,stim,false,1,735,1,1,0,36518,task1,1294907,false,false,1804,image-keyboard-response,1
true,14,2,0,0,false,q,true,false,0.0-2.0-0.59-0.536-3.536,1,1,1,68,false,stim,false,0,524,1,1,2,36518,task1,1296956,false,false,1807,image-keyboard-response,2
true,14,1,0,1,true,z,false,true,0.0-2.0-0.59-0.537-3.537,1,1,1,90,false,stim,false,1,768,1,1,0,36518,task1,1299253,false,false,1810,image-keyboard-response,3
true,14,1,0,0,false,q,true,false,0.0-2.0-0.59-0.538-3.538,1,1,1,90,false,stim,false,0,500,1,1,2,36518,task1,1301284,false,false,1813,image-keyboard-response,4
true,14,1,0,2,false,d,true,false,0.0-2.0-0.59-0.539-3.539,1,1,1,90,false,stim,false,2,916,1,1,1,36518,task1,1303740,false,false,1816,image-keyboard-response,5
true,14,1,0,2,false,d,true,false,0.0-2.0-0.60-0.540-3.540,1,1,1,90,false,stim,false,2,503,1,1,1,36518,task1,1305766,false,false,1819,image-keyboard-response,6
true,14,0,0,0,true,q,false,true,0.0-2.0-0.60-0.541-3.541,1,1,1,81,false,stim,false,0,1045,1,1,2,36518,task1,1308338,false,false,1822,image-keyboard-response,7
true,14,0,0,0,true,q,false,true,0.0-2.0-0.60-0.542-3.542,1,1,1,81,false,stim,false,0,385,1,1,2,36518,task1,1310238,false,false,1825,image-keyboard-response,8
true,14,0,0,0,true,q,false,true,0.0-2.0-0.60-0.543-3.543,1,1,1,81,false,stim,false,0,362,1,0,2,36518,task1,1312125,false,false,1828,image-keyboard-response,9
true,14,1,0,1,true,z,false,true,0.0-2.0-0.60-0.544-3.544,1,1,1,90,false,stim,false,1,538,1,0,0,36518,task1,1314192,false,false,1831,image-keyboard-response,10
true,14,0,0,2,false,d,true,true,0.0-2.0-0.60-0.545-3.545,1,1,1,81,false,stim,false,2,643,1,0,1,36518,task1,1316377,false,true,1834,image-keyboard-response,11
true,14,1,0,1,true,z,false,true,0.0-2.0-0.60-0.546-3.546,1,1,1,90,false,stim,false,1,487,1,0,0,36518,task1,1318400,false,false,1837,image-keyboard-response,12
true,14,1,0,1,true,z,false,true,0.0-2.0-0.60-0.547-3.547,1,1,1,90,false,stim,false,1,391,1,0,0,36518,task1,1320314,false,false,1840,image-keyboard-response,13
true,15,0,1,0,true,q,false,true,0.0-2.0-0.60-0.548-3.548,0,0,0,81,true,stim,false,2,453,1,0,1,36518,task1,1322286,false,false,1843,image-keyboard-response,1
true,15,0,1,0,true,q,false,true,0.0-2.0-0.61-0.549-3.549,0,0,0,81,false,stim,false,2,353,1,0,1,36518,task1,1324167,false,false,1846,image-keyboard-response,2
true,15,1,1,2,false,d,false,false,0.0-2.0-0.61-0.550-3.550,0,0,0,90,false,stim,true,1,611,1,0,0,36518,task1,1326303,false,false,1849,image-keyboard-response,3
true,15,1,1,2,false,d,false,false,0.0-2.0-0.61-0.551-3.551,0,0,0,90,false,stim,true,1,336,1,0,0,36518,task1,1328170,false,false,1852,image-keyboard-response,4
true,15,0,1,1,false,z,false,false,0.0-2.0-0.61-0.552-3.552,0,0,0,81,false,stim,true,0,393,1,0,2,36518,task1,1330095,false,false,1855,image-keyboard-response,5
true,15,0,1,1,false,z,false,false,0.0-2.0-0.61-0.553-3.553,0,0,0,81,false,stim,true,0,312,1,0,2,36518,task1,1331935,false,false,1858,image-keyboard-response,6
true,15,0,1,0,true,q,false,true,0.0-2.0-0.61-0.554-3.554,0,0,0,81,false,stim,false,2,523,1,0,1,36518,task1,1333975,false,false,1861,image-keyboard-response,7
true,15,0,1,2,false,d,true,false,0.0-2.0-0.61-0.555-3.555,0,0,0,81,false,stim,false,1,327,1,0,0,36518,task1,1335820,false,false,1864,image-keyboard-response,8
true,15,1,1,1,true,z,false,true,0.0-2.0-0.61-0.556-3.556,0,0,0,90,false,stim,false,0,1059,1,0,2,36518,task1,1338412,false,false,1867,image-keyboard-response,9
true,15,0,1,0,true,q,false,true,0.0-2.0-0.61-0.557-3.557,0,0,0,81,false,stim,false,2,674,1,0,1,36518,task1,1340618,false,false,1870,image-keyboard-response,10
true,15,0,1,0,true,q,false,true,0.0-2.0-0.62-0.558-3.558,0,0,0,81,false,stim,false,2,564,1,0,1,36518,task1,1342705,false,false,1873,image-keyboard-response,11
true,15,1,1,1,true,z,false,true,0.0-2.0-0.62-0.559-3.559,0,0,0,90,false,stim,false,0,716,1,0,2,36518,task1,1344950,false,false,1876,image-keyboard-response,12
true,15,2,1,2,true,d,false,true,0.0-2.0-0.62-0.560-3.560,0,0,0,68,false,stim,false,1,420,1,0,0,36518,task1,1346913,false,false,1879,image-keyboard-response,13
true,15,0,1,0,true,q,false,true,0.0-2.0-0.62-0.561-3.561,0,0,0,81,false,stim,false,2,494,1,0,1,36518,task1,1348936,false,false,1882,image-keyboard-response,14
true,15,1,1,1,true,z,false,true,0.0-2.0-0.62-0.562-3.562,0,0,0,90,false,stim,false,0,509,1,0,2,36518,task1,1350962,false,false,1885,image-keyboard-response,15
true,15,0,1,0,true,q,false,true,0.0-2.0-0.62-0.563-3.563,0,0,0,81,false,stim,false,2,487,1,0,1,36518,task1,1352980,false,false,1888,image-keyboard-response,16
true,15,1,1,1,true,z,false,true,0.0-2.0-0.62-0.564-3.564,0,0,0,90,false,stim,false,0,336,1,0,2,36518,task1,1354828,false,false,1891,image-keyboard-response,17
true,15,2,1,2,true,d,false,true,0.0-2.0-0.62-0.565-3.565,0,0,0,68,false,stim,false,1,351,1,0,0,36518,task1,1356694,false,false,1894,image-keyboard-response,18
true,15,2,1,2,true,d,false,true,0.0-2.0-0.62-0.566-3.566,0,0,0,68,false,stim,false,1,415,1,0,0,36518,task1,1358637,false,false,1897,image-keyboard-response,19
true,15,2,1,2,true,d,false,true,0.0-2.0-0.63-0.567-3.567,0,0,0,68,false,stim,false,1,445,1,0,0,36518,task1,1360599,false,false,1900,image-keyboard-response,20
true,15,0,1,0,true,q,false,false,0.0-2.0-0.63-0.568-3.568,0,0,0,81,false,stim,false,2,452,1,0,1,36518,task1,1362585,false,true,1903,image-keyboard-response,21
true,15,1,1,1,true,z,false,true,0.0-2.0-0.63-0.569-3.569,0,0,0,90,false,stim,false,0,358,1,0,2,36518,task1,1364481,false,false,1906,image-keyboard-response,22
true,15,1,1,1,true,z,false,false,0.0-2.0-0.63-0.570-3.570,0,0,0,90,false,stim,false,0,433,1,0,2,36518,task1,1366448,false,true,1909,image-keyboard-response,23
true,15,0,1,0,true,q,false,true,0.0-2.0-0.63-0.571-3.571,0,0,0,81,false,stim,false,2,565,1,0,1,36518,task1,1368547,false,false,1912,image-keyboard-response,24
true,15,2,1,2,true,d,false,true,0.0-2.0-0.63-0.572-3.572,0,0,0,68,false,stim,false,1,620,1,0,0,36518,task1,1370682,false,false,1915,image-keyboard-response,25
true,15,0,1,0,true,q,false,true,0.0-2.0-0.63-0.573-3.573,0,0,0,81,false,stim,false,2,483,1,0,1,36518,task1,1372707,false,false,1918,image-keyboard-response,26
true,15,2,1,2,true,d,false,false,0.0-2.0-0.63-0.574-3.574,0,0,0,68,false,stim,false,1,974,1,0,0,36518,task1,1375216,false,true,1921,image-keyboard-response,27
true,15,1,1,1,true,z,false,true,0.0-2.0-0.63-0.575-3.575,0,0,0,90,false,stim,false,0,911,1,0,2,36518,task1,1377653,false,false,1924,image-keyboard-response,28
true,15,2,1,2,true,d,false,true,0.0-2.0-0.64-0.576-3.576,0,0,0,68,false,stim,false,1,704,1,0,0,36518,task1,1379899,false,false,1927,image-keyboard-response,29
true,15,0,1,0,true,q,false,true,0.0-2.0-0.64-0.577-3.577,0,0,0,81,false,stim,false,2,347,1,0,1,36518,task1,1381771,false,false,1930,image-keyboard-response,30
true,15,2,1,2,true,d,false,true,0.0-2.0-0.64-0.578-3.578,0,0,0,68,false,stim,false,1,674,1,0,0,36518,task1,1383977,false,false,1933,image-keyboard-response,31
true,15,2,1,2,true,d,false,true,0.0-2.0-0.64-0.579-3.579,0,0,0,68,false,stim,false,1,332,1,0,0,36518,task1,1385825,false,false,1936,image-keyboard-response,32
true,15,0,1,0,true,q,false,true,0.0-2.0-0.64-0.580-3.580,0,0,0,81,false,stim,false,2,463,1,0,1,36518,task1,1387817,false,false,1939,image-keyboard-response,33
true,15,1,1,1,true,z,false,true,0.0-2.0-0.64-0.581-3.581,0,0,0,90,false,stim,false,0,552,1,0,2,36518,task1,1389894,false,false,1942,image-keyboard-response,34
true,15,0,1,0,true,q,false,true,0.0-2.0-0.64-0.582-3.582,0,0,0,81,false,stim,false,2,529,1,0,1,36518,task1,1391953,false,false,1945,image-keyboard-response,35
true,15,1,1,1,true,z,false,true,0.0-2.0-0.64-0.583-3.583,0,0,0,90,false,stim,false,0,587,1,0,2,36518,task1,1394081,false,false,1948,image-keyboard-response,36
true,15,1,1,1,true,z,false,true,0.0-2.0-0.64-0.584-3.584,0,0,0,90,false,stim,false,0,502,1,0,2,36518,task1,1396115,false,false,1951,image-keyboard-response,37
true,15,2,1,2,true,d,false,false,0.0-2.0-0.65-0.585-3.585,0,0,0,68,false,stim,false,1,559,1,0,0,36518,task1,1398214,false,true,1954,image-keyboard-response,38
true,15,1,1,1,true,z,false,true,0.0-2.0-0.65-0.586-3.586,0,0,0,90,false,stim,false,0,715,1,0,2,36518,task1,1400458,false,false,1957,image-keyboard-response,39
true,16,2,2,1,false,z,false,false,0.0-2.0-0.65-0.587-3.587,0,0,0,68,true,stim,true,2,391,1,0,0,36518,task1,1402364,false,false,1960,image-keyboard-response,1
true,16,1,2,0,false,q,false,false,0.0-2.0-0.65-0.588-3.588,0,0,0,90,false,stim,true,1,526,1,0,2,36518,task1,1404419,false,false,1963,image-keyboard-response,2
true,16,0,2,2,false,d,false,false,0.0-2.0-0.65-0.589-3.589,0,0,0,81,false,stim,true,0,534,1,0,1,36518,task1,1406489,false,false,1966,image-keyboard-response,3
true,16,0,2,2,false,d,false,false,0.0-2.0-0.65-0.590-3.590,0,0,0,81,false,stim,true,0,513,1,0,1,36518,task1,1408535,false,false,1969,image-keyboard-response,4
true,16,1,2,2,false,d,true,false,0.0-2.0-0.65-0.591-3.591,0,0,0,90,false,stim,false,0,855,1,0,1,36518,task1,1410907,false,false,1972,image-keyboard-response,5
true,16,1,2,1,true,z,false,true,0.0-2.0-0.65-0.592-3.592,0,0,0,90,false,stim,false,2,583,1,0,0,36518,task1,1413016,false,false,1975,image-keyboard-response,6
true,16,1,2,0,false,q,false,false,0.0-2.0-0.65-0.593-3.593,0,0,0,90,false,stim,true,1,773,1,0,2,36518,task1,1415325,false,false,1978,image-keyboard-response,7
true,16,2,2,0,false,q,true,false,0.0-2.0-0.66-0.594-3.594,0,0,0,68,false,stim,false,1,1678,1,0,2,36518,task1,1418541,false,false,1981,image-keyboard-response,8
true,16,2,2,0,false,q,true,false,0.0-2.0-0.66-0.595-3.595,0,0,0,68,false,stim,false,1,361,1,0,2,36518,task1,1420445,false,false,1984,image-keyboard-response,9
true,16,1,2,1,true,z,false,true,0.0-2.0-0.66-0.596-3.596,0,0,0,90,false,stim,false,2,562,1,0,0,36518,task1,1422538,false,false,1987,image-keyboard-response,10
true,16,1,2,2,false,d,true,false,0.0-2.0-0.66-0.597-3.597,0,0,0,90,false,stim,false,0,1109,1,0,1,36518,task1,1425181,false,false,1990,image-keyboard-response,11
true,16,0,2,2,false,d,false,true,0.0-2.0-0.66-0.598-3.598,0,0,0,81,false,stim,true,0,1115,1,0,1,36518,task1,1427839,false,true,1993,image-keyboard-response,12
true,16,1,2,1,true,z,false,true,0.0-2.0-0.66-0.599-3.599,0,0,0,90,false,stim,false,2,514,1,0,0,36518,task1,1429877,false,false,1996,image-keyboard-response,13
true,16,1,2,1,true,z,false,true,0.0-2.0-0.66-0.600-3.600,0,0,0,90,false,stim,false,2,428,1,0,0,36518,task1,1431839,false,false,1999,image-keyboard-response,14
true,16,0,2,0,true,q,false,true,0.0-2.0-0.66-0.601-3.601,0,0,0,81,false,stim,false,1,681,1,0,2,36518,task1,1434074,false,false,2002,image-keyboard-response,15
true,16,0,2,2,false,d,false,false,0.0-2.0-0.66-0.602-3.602,0,0,0,81,false,stim,true,0,402,1,0,1,36518,task1,1436005,false,false,2005,image-keyboard-response,16
true,16,0,2,2,false,d,false,false,0.0-2.0-0.67-0.603-3.603,0,0,0,81,false,stim,true,0,425,1,0,1,36518,task1,1437959,false,false,2008,image-keyboard-response,17
true,16,2,2,2,true,d,false,true,0.0-2.0-0.67-0.604-3.604,0,0,0,68,false,stim,false,0,953,1,0,1,36518,task1,1440435,false,false,2011,image-keyboard-response,18
true,16,0,2,0,true,q,false,true,0.0-2.0-0.67-0.605-3.605,0,0,0,81,false,stim,false,1,1344,1,0,2,36518,task1,1443303,false,false,2014,image-keyboard-response,19
true,16,1,2,1,true,z,false,true,0.0-2.0-0.67-0.606-3.606,0,0,0,90,false,stim,false,2,513,1,0,0,36518,task1,1445356,false,false,2017,image-keyboard-response,20
true,16,0,2,0,true,q,false,true,0.0-2.0-0.67-0.607-3.607,0,0,0,81,false,stim,false,1,602,1,0,2,36518,task1,1447485,false,false,2020,image-keyboard-response,21
true,16,2,2,2,true,d,false,true,0.0-2.0-0.67-0.608-3.608,0,0,0,68,false,stim,false,0,484,1,0,1,36518,task1,1449506,false,false,2023,image-keyboard-response,22
true,16,1,2,1,true,z,false,true,0.0-2.0-0.67-0.609-3.609,0,0,0,90,false,stim,false,2,632,1,0,0,36518,task1,1451654,false,false,2026,image-keyboard-response,23
true,16,1,2,1,true,z,false,false,0.0-2.0-0.67-0.610-3.610,0,0,0,90,false,stim,false,2,387,1,0,0,36518,task1,1453570,false,true,2029,image-keyboard-response,24
true,16,0,2,0,true,q,false,true,0.0-2.0-0.67-0.611-3.611,0,0,0,81,false,stim,false,1,549,1,0,2,36518,task1,1455653,false,false,2032,image-keyboard-response,25
true,16,2,2,2,true,d,false,true,0.0-2.0-0.68-0.612-3.612,0,0,0,68,false,stim,false,0,500,1,0,1,36518,task1,1457683,false,false,2035,image-keyboard-response,26
true,16,2,2,2,true,d,false,true,0.0-2.0-0.68-0.613-3.613,0,0,0,68,false,stim,false,0,370,1,0,1,36518,task1,1459583,false,false,2038,image-keyboard-response,27
true,16,0,2,0,true,q,false,true,0.0-2.0-0.68-0.614-3.614,0,0,0,81,false,stim,false,1,523,1,0,2,36518,task1,1461637,false,false,2041,image-keyboard-response,28
true,16,0,2,0,true,q,false,true,0.0-2.0-0.68-0.615-3.615,0,0,0,81,false,stim,false,1,322,1,0,2,36518,task1,1463484,false,false,2044,image-keyboard-response,29
true,16,1,2,1,true,z,false,true,0.0-2.0-0.68-0.616-3.616,0,0,0,90,false,stim,false,2,684,1,0,0,36518,task1,1465706,false,false,2047,image-keyboard-response,30
true,16,2,2,2,true,d,false,true,0.0-2.0-0.68-0.617-3.617,0,0,0,68,false,stim,false,0,499,1,0,1,36518,task1,1467743,false,false,2050,image-keyboard-response,31
true,16,0,2,0,true,q,false,true,0.0-2.0-0.68-0.618-3.618,0,0,0,81,false,stim,false,1,517,1,0,2,36518,task1,1469801,false,false,2053,image-keyboard-response,32
true,16,1,2,1,true,z,false,true,0.0-2.0-0.68-0.619-3.619,0,0,0,90,false,stim,false,2,553,1,0,0,36518,task1,1471887,false,false,2056,image-keyboard-response,33
true,16,1,2,1,true,z,false,false,0.0-2.0-0.68-0.620-3.620,0,0,0,90,false,stim,false,2,466,1,0,0,36518,task1,1473879,false,true,2059,image-keyboard-response,34
true,16,1,2,1,true,z,false,true,0.0-2.0-0.69-0.621-3.621,0,0,0,90,false,stim,false,2,542,1,0,0,36518,task1,1475935,false,false,2062,image-keyboard-response,35
true,16,1,2,1,true,z,false,true,0.0-2.0-0.69-0.622-3.622,0,0,0,90,false,stim,false,2,380,1,0,0,36518,task1,1477854,false,false,2065,image-keyboard-response,36
true,16,1,2,1,true,z,false,true,0.0-2.0-0.69-0.623-3.623,0,0,0,90,false,stim,false,2,360,1,0,0,36518,task1,1479754,false,false,2068,image-keyboard-response,37
true,16,2,2,2,true,d,false,true,0.0-2.0-0.69-0.624-3.624,0,0,0,68,false,stim,false,0,1118,1,0,1,36518,task1,1482402,false,false,2071,image-keyboard-response,38
true,16,0,2,0,true,q,false,true,0.0-2.0-0.69-0.625-3.625,0,0,0,81,false,stim,false,1,663,1,0,2,36518,task1,1484606,false,false,2074,image-keyboard-response,39
true,16,0,2,0,true,q,false,true,0.0-2.0-0.69-0.626-3.626,0,0,0,81,false,stim,false,1,437,1,0,2,36518,task1,1486570,false,false,2077,image-keyboard-response,40
true,16,2,2,2,true,d,false,true,0.0-2.0-0.69-0.627-3.627,0,0,0,68,false,stim,false,0,484,1,0,1,36518,task1,1488595,false,false,2080,image-keyboard-response,41
true,17,0,2,1,false,z,false,false,0.0-2.0-0.69-0.628-3.628,0,0,0,81,true,stim,true,0,457,1,0,2,36518,task1,1490579,false,false,2083,image-keyboard-response,1
true,17,2,2,0,false,q,false,false,0.0-2.0-0.69-0.629-3.629,0,0,0,68,false,stim,true,2,534,1,0,1,36518,task1,1492640,false,false,2086,image-keyboard-response,2
true,17,0,2,1,false,z,false,false,0.0-2.0-0.70-0.630-3.630,0,0,0,81,false,stim,true,0,461,1,0,2,36518,task1,1494634,false,false,2089,image-keyboard-response,3
true,17,1,2,0,false,q,false,false,0.0-2.0-0.70-0.631-3.631,0,0,0,90,false,stim,true,1,894,1,0,0,36518,task1,1497070,false,false,2092,image-keyboard-response,4
true,17,2,2,0,false,q,false,true,0.0-2.0-0.70-0.632-3.632,0,0,0,68,false,stim,true,2,587,1,0,1,36518,task1,1499181,false,true,2095,image-keyboard-response,5
true,17,1,2,1,true,z,false,true,0.0-2.0-0.70-0.633-3.633,0,0,0,90,false,stim,false,0,1230,1,0,2,36518,task1,1501944,false,false,2098,image-keyboard-response,6
true,17,2,2,0,false,q,false,false,0.0-2.0-0.70-0.634-3.634,0,0,0,68,false,stim,true,2,599,1,0,1,36518,task1,1504104,false,false,2101,image-keyboard-response,7
true,17,2,2,0,false,q,true,false,0.0-2.0-0.70-0.635-3.635,0,0,0,68,false,stim,false,1,426,1,0,0,36518,task1,1506069,false,false,2104,image-keyboard-response,8
