answered,blockNum,choice,condition,corResp,correct,correct_response,explo,fb,internal_node_id,isStable_1,isStable_2,isStable_3,key_press,newBlock,part,persev,persevResp,rt,sessNum,stableAS,stimulus,subject,task,time_elapsed,training,trap,trial_index,trial_type,trialsInBlock
true,1,1,0,2,false,d,true,false,0.0-2.0-0.0-0.0-3.0,0,0,0,90,true,stim,false,-1,479,2,0,1,36518,task3,63097,false,false,79,image-keyboard-response,1
true,1,1,0,0,false,q,true,false,0.0-2.0-0.0-0.1-3.1,0,0,0,90,false,stim,false,-1,623,2,0,2,36518,task3,65250,false,false,82,image-keyboard-response,2
true,1,1,0,1,true,z,false,true,0.0-2.0-0.0-0.2-3.2,0,0,0,90,false,stim,false,-1,341,2,0,0,36518,task3,67108,false,false,85,image-keyboard-response,3
true,1,1,0,1,true,z,false,true,0.0-2.0-0.0-0.3-3.3,0,0,0,90,false,stim,false,-1,331,2,0,0,36518,task3,68977,false,false,88,image-keyboard-response,4
true,1,2,0,0,false,q,true,false,0.0-2.0-0.0-0.4-3.4,0,0,0,68,false,stim,false,-1,751,2,0,2,36518,task3,71259,false,false,91,image-keyboard-response,5
true,1,1,0,1,true,z,false,true,0.0-2.0-0.0-0.5-3.5,0,0,0,90,false,stim,false,-1,567,2,0,0,36518,task3,73366,false,false,94,image-keyboard-response,6
true,1,0,0,2,false,d,true,true,0.0-2.0-0.0-0.6-3.6,0,0,0,81,false,stim,false,-1,866,2,0,1,36518,task3,75755,false,true,97,image-keyboard-response,7
true,1,0,0,0,true,q,false,true,0.0-2.0-0.0-0.7-3.7,0,0,0,81,false,stim,false,-1,322,2,0,2,36518,task3,77590,false,false,100,image-keyboard-response,8
true,1,0,0,2,false,d,true,false,0.0-2.0-0.0-0.8-3.8,0,0,0,81,false,stim,false,-1,521,2,0,1,36518,task3,79643,false,false,103,image-keyboard-response,9
true,1,0,0,2,false,d,true,false,0.0-2.0-0.1-0.9-3.9,0,0,0,81,false,stim,false,-1,336,2,0,1,36518,task3,81513,false,false,106,image-keyboard-response,10
true,1,0,0,0,true,q,false,false,0.0-2.0-0.1-0.10-3.10,0,0,0,81,false,stim,false,-1,943,2,0,2,36518,task3,83980,false,true,109,image-keyboard-response,11
true,1,2,0,2,true,d,false,false,0.0-2.0-0.1-0.11-3.11,0,0,0,68,false,stim,false,-1,872,2,0,1,36518,task3,86378,false,true,112,image-keyboard-response,12
true,1,2,0,0,false,q,true,false,0.0-2.0-0.1-0.12-3.12,0,0,0,68,false,stim,false,-1,587,2,0,2,36518,task3,88494,false,false,115,image-keyboard-response,13
true,1,1,0,1,true,z,false,true,0.0-2.0-0.1-0.13-3.13,0,0,0,90,false,stim,false,-1,342,2,0,0,36518,task3,90359,false,false,118,image-keyboard-response,14
true,1,1,0,2,false,d,true,false,0.0-2.0-0.1-0.14-3.14,0,0,0,90,false,stim,false,-1,736,2,0,1,36518,task3,92634,false,false,121,image-keyboard-response,15
true,1,1,0,1,true,z,false,true,0.0-2.0-0.1-0.15-3.15,0,0,0,90,false,stim,false,-1,464,2,0,0,36518,task3,94611,false,false,124,image-keyboard-response,16
true,1,0,0,0,true,q,false,true,0.0-2.0-0.1-0.16-3.16,0,0,0,81,false,stim,false,-1,517,2,0,2,36518,task3,96658,false,false,127,image-keyboard-response,17
true,1,1,0,1,true,z,false,true,0.0-2.0-0.1-0.17-3.17,0,0,0,90,false,stim,false,-1,538,2,0,0,36518,task3,98734,false,false,130,image-keyboard-response,18
true,1,1,0,1,true,z,false,true,0.0-2.0-0.2-0.18-3.18,0,0,0,90,false,stim,false,-1,339,2,0,0,36518,task3,100596,false,false,133,image-keyboard-response,19
true,1,0,0,0,true,q,false,true,0.0-2.0-0.2-0.19-3.19,0,0,0,81,false,stim,false,-1,485,2,1,2,36518,task3,102622,false,false,136,image-keyboard-response,20
true,1,1,0,1,true,z,false,true,0.0-2.0-0.2-0.20-3.20,0,0,0,90,false,stim,false,-1,398,2,0,0,36518,task3,104545,false,false,139,image-keyboard-response,21
true,1,0,0,0,true,q,false,true,0.0-2.0-0.2-0.21-3.21,0,0,0,81,false,stim,false,-1,481,2,1,2,36518,task3,106558,false,false,142,image-keyboard-response,22
true,1,1,0,1,true,z,false,true,0.0-2.0-0.2-0.22-3.22,0,0,0,90,false,stim,false,-1,338,2,0,0,36518,task3,108434,false,false,145,image-keyboard-response,23
true,1,0,0,0,true,q,false,true,0.0-2.0-0.2-0.23-3.23,0,0,0,81,false,stim,false,-1,558,2,1,2,36518,task3,110510,false,false,148,image-keyboard-response,24
true,2,0,2,2,false,d,true,false,0.0-2.0-0.2-0.24-3.24,0,1,1,81,true,stim,false,2,371,2,1,1,36518,task3,112417,false,false,151,image-keyboard-response,1
true,2,0,2,2,false,d,true,false,0.0-2.0-0.2-0.25-3.25,0,1,1,81,false,stim,false,2,369,2,1,1,36518,task3,114315,false,false,154,image-keyboard-response,2
true,2,2,2,2,true,d,false,true,0.0-2.0-0.2-0.26-3.26,0,1,1,68,false,stim,false,2,1798,2,1,1,36518,task3,117645,false,false,157,image-keyboard-response,3
true,2,0,2,0,true,q,false,true,0.0-2.0-0.3-0.27-3.27,0,1,1,81,false,stim,false,0,763,2,1,2,36518,task3,119940,false,false,160,image-keyboard-response,4
true,2,2,2,2,true,d,false,true,0.0-2.0-0.3-0.28-3.28,0,1,1,68,false,stim,false,2,571,2,1,1,36518,task3,122038,false,false,163,image-keyboard-response,5
true,2,2,2,2,true,d,false,false,0.0-2.0-0.3-0.29-3.29,0,1,1,68,false,stim,false,2,358,2,1,1,36518,task3,123925,false,true,166,image-keyboard-response,6
true,2,0,2,0,true,q,false,true,0.0-2.0-0.3-0.30-3.30,0,1,1,81,false,stim,false,0,609,2,0,2,36518,task3,126066,false,false,169,image-keyboard-response,7
true,2,1,2,2,false,d,false,false,0.0-2.0-0.3-0.31-3.31,0,1,1,90,false,stim,true,1,556,2,1,0,36518,task3,128152,false,false,172,image-keyboard-response,8
true,2,2,2,2,true,d,false,true,0.0-2.0-0.3-0.32-3.32,0,1,1,68,false,stim,false,2,523,2,0,1,36518,task3,130210,false,false,175,image-keyboard-response,9
true,2,0,2,0,true,q,false,false,0.0-2.0-0.3-0.33-3.33,0,1,1,81,false,stim,false,0,703,2,0,2,36518,task3,132449,false,true,178,image-keyboard-response,10
true,2,1,2,2,false,d,false,false,0.0-2.0-0.3-0.34-3.34,0,1,1,90,false,stim,true,1,814,2,1,0,36518,task3,134801,false,false,181,image-keyboard-response,11
true,3,2,1,2,true,d,false,true,0.0-2.0-0.3-0.35-3.35,1,0,0,68,true,stim,false,2,550,2,1,0,36518,task3,136867,false,false,184,image-keyboard-response,1
true,3,2,1,0,false,q,false,false,0.0-2.0-0.4-0.36-3.36,1,0,0,68,false,stim,true,2,480,2,0,1,36518,task3,138876,false,false,187,image-keyboard-response,2
true,3,2,1,2,true,d,false,true,0.0-2.0-0.4-0.37-3.37,1,0,0,68,false,stim,false,2,401,2,1,0,36518,task3,140798,false,false,190,image-keyboard-response,3
true,3,2,1,0,false,q,false,true,0.0-2.0-0.4-0.38-3.38,1,0,0,68,false,stim,true,2,425,2,0,1,36518,task3,142741,false,true,193,image-keyboard-response,4
true,3,0,1,2,false,d,false,false,0.0-2.0-0.4-0.39-3.39,1,0,0,81,false,stim,true,0,512,2,0,2,36518,task3,144780,false,false,196,image-keyboard-response,5
true,3,2,1,2,true,d,false,true,0.0-2.0-0.4-0.40-3.40,1,0,0,68,false,stim,false,2,534,2,1,0,36518,task3,146822,false,false,199,image-keyboard-response,6
true,3,1,1,2,false,d,true,false,0.0-2.0-0.4-0.41-3.41,1,0,0,90,false,stim,false,0,371,2,0,2,36518,task3,148716,false,false,202,image-keyboard-response,7
true,3,2,1,0,false,q,false,false,0.0-2.0-0.4-0.42-3.42,1,0,0,68,false,stim,true,2,539,2,0,1,36518,task3,150786,false,false,205,image-keyboard-response,8
true,3,1,1,2,false,d,true,false,0.0-2.0-0.4-0.43-3.43,1,0,0,90,false,stim,false,0,546,2,0,2,36518,task3,152864,false,false,208,image-keyboard-response,9
true,3,2,1,2,true,d,false,true,0.0-2.0-0.4-0.44-3.44,1,0,0,68,false,stim,false,2,560,2,1,0,36518,task3,154948,false,false,211,image-keyboard-response,10
true,3,2,1,0,false,q,false,true,0.0-2.0-0.5-0.45-3.45,1,0,0,68,false,stim,true,2,1086,2,0,1,36518,task3,157569,false,true,214,image-keyboard-response,11
true,3,0,1,2,false,d,false,false,0.0-2.0-0.5-0.46-3.46,1,0,0,81,false,stim,true,0,337,2,0,2,36518,task3,159444,false,false,217,image-keyboard-response,12
true,3,2,1,2,true,d,false,true,0.0-2.0-0.5-0.47-3.47,1,0,0,68,false,stim,false,0,584,2,0,2,36518,task3,161561,false,false,220,image-keyboard-response,13
true,3,2,1,2,true,d,false,true,0.0-2.0-0.5-0.48-3.48,1,0,0,68,false,stim,false,0,336,2,0,2,36518,task3,163423,false,false,223,image-keyboard-response,14
true,3,2,1,2,true,d,false,false,0.0-2.0-0.5-0.49-3.49,1,0,0,68,false,stim,false,2,449,2,1,0,36518,task3,165386,false,true,226,image-keyboard-response,15
true,3,2,1,2,true,d,false,true,0.0-2.0-0.5-0.50-3.50,1,0,0,68,false,stim,false,2,351,2,1,0,36518,task3,167268,false,false,229,image-keyboard-response,16
true,3,2,1,0,false,q,false,false,0.0-2.0-0.5-0.51-3.51,1,0,0,68,false,stim,true,2,329,2,0,1,36518,task3,169126,false,false,232,image-keyboard-response,17
true,3,2,1,0,false,q,false,false,0.0-2.0-0.5-0.52-3.52,1,0,0,68,false,stim,true,2,376,2,0,1,36518,task3,171022,false,false,235,image-keyboard-response,18
true,3,2,1,2,true,d,false,true,0.0-2.0-0.5-0.53-3.53,1,0,0,68,false,stim,false,2,605,2,1,0,36518,task3,173152,false,false,238,image-keyboard-response,19
true,3,1,1,2,false,d,true,false,0.0-2.0-0.6-0.54-3.54,1,0,0,90,false,stim,false,0,431,2,0,2,36518,task3,175107,false,false,241,image-keyboard-response,20
true,3,2,1,2,true,d,false,true,0.0-2.0-0.6-0.55-3.55,1,0,0,68,false,stim,false,0,364,2,0,2,36518,task3,176997,false,false,244,image-keyboard-response,21
true,3,1,1,0,false,q,true,false,0.0-2.0-0.6-0.56-3.56,1,0,0,90,false,stim,false,2,487,2,0,1,36518,task3,179004,false,false,247,image-keyboard-response,22
true,3,0,1,0,true,q,false,true,0.0-2.0-0.6-0.57-3.57,1,0,0,81,false,stim,false,2,897,2,0,1,36518,task3,181424,false,false,250,image-keyboard-response,23
true,3,0,1,0,true,q,false,true,0.0-2.0-0.6-0.58-3.58,1,0,0,81,false,stim,false,2,339,2,0,1,36518,task3,183287,false,false,253,image-keyboard-response,24
true,3,2,1,2,true,d,false,true,0.0-2.0-0.6-0.59-3.59,1,0,0,68,false,stim,false,2,413,2,1,0,36518,task3,185226,false,false,256,image-keyboard-response,25
true,3,2,1,2,true,d,false,true,0.0-2.0-0.6-0.60-3.60,1,0,0,68,false,stim,false,2,352,2,1,0,36518,task3,187108,false,false,259,image-keyboard-response,26
true,3,2,1,2,true,d,false,true,0.0-2.0-0.6-0.61-3.61,1,0,0,68,false,stim,false,0,404,2,1,2,36518,task3,189050,false,false,262,image-keyboard-response,27
true,4,2,2,2,true,d,false,true,0.0-2.0-0.6-0.62-3.62,1,0,1,68,true,stim,false,2,677,2,1,0,36518,task3,191255,false,false,265,image-keyboard-response,1
true,4,0,2,1,false,z,false,false,0.0-2.0-0.7-0.63-3.63,1,0,1,81,false,stim,true,0,476,2,0,1,36518,task3,193253,false,false,268,image-keyboard-response,2
true,4,0,2,1,false,z,false,false,0.0-2.0-0.7-0.64-3.64,1,0,1,81,false,stim,true,0,319,2,0,1,36518,task3,195085,false,false,271,image-keyboard-response,3
true,4,2,2,2,true,d,false,true,0.0-2.0-0.7-0.65-3.65,1,0,1,68,false,stim,false,2,547,2,1,0,36518,task3,197153,false,false,274,image-keyboard-response,4
true,4,2,2,2,true,d,false,true,0.0-2.0-0.7-0.66-3.66,1,0,1,68,false,stim,false,2,313,2,1,0,36518,task3,199001,false,false,277,image-keyboard-response,5
true,4,2,2,2,true,d,false,true,0.0-2.0-0.7-0.67-3.67,1,0,1,68,false,stim,false,2,360,2,1,2,36518,task3,200877,false,false,280,image-keyboard-response,6
true,4,2,2,2,true,d,false,true,0.0-2.0-0.7-0.68-3.68,1,0,1,68,false,stim,false,2,429,2,1,2,36518,task3,202826,false,false,283,image-keyboard-response,7
true,4,2,2,2,true,d,false,true,0.0-2.0-0.7-0.69-3.69,1,0,1,68,false,stim,false,2,396,2,1,2,36518,task3,204753,false,false,286,image-keyboard-response,8
true,4,0,2,1,false,z,false,false,0.0-2.0-0.7-0.70-3.70,1,0,1,81,false,stim,true,0,886,2,1,1,36518,task3,207172,false,false,289,image-keyboard-response,9
true,4,2,2,2,true,d,false,true,0.0-2.0-0.7-0.71-3.71,1,0,1,68,false,stim,false,2,469,2,0,0,36518,task3,209155,false,false,292,image-keyboard-response,10
true,4,2,2,2,true,d,false,true,0.0-2.0-0.8-0.72-3.72,1,0,1,68,false,stim,false,2,587,2,1,2,36518,task3,211284,false,false,295,image-keyboard-response,11
true,4,2,2,2,true,d,false,true,0.0-2.0-0.8-0.73-3.73,1,0,1,68,false,stim,false,2,393,2,0,0,36518,task3,213199,false,false,298,image-keyboard-response,12
true,4,2,2,2,true,d,false,true,0.0-2.0-0.8-0.74-3.74,1,0,1,68,false,stim,false,2,357,2,0,0,36518,task3,215086,false,false,301,image-keyboard-response,13
true,5,2,2,2,true,d,false,true,0.0-2.0-0.8-0.75-3.75,0,1,1,68,true,stim,false,2,543,2,1,2,36518,task3,217159,false,false,304,image-keyboard-response,1
true,5,1,2,1,true,z,false,true,0.0-2.0-0.8-0.76-3.76,0,1,1,90,false,stim,false,1,418,2,1,1,36518,task3,219114,false,false,307,image-keyboard-response,2
true,5,1,2,1,true,z,false,true,0.0-2.0-0.8-0.77-3.77,0,1,1,90,false,stim,false,1,346,2,1,1,36518,task3,220992,false,false,310,image-keyboard-response,3
true,5,2,2,0,false,q,false,false,0.0-2.0-0.8-0.78-3.78,0,1,1,68,false,stim,true,2,388,2,0,0,36518,task3,222915,false,false,313,image-keyboard-response,4
true,5,1,2,1,true,z,false,false,0.0-2.0-0.8-0.79-3.79,0,1,1,90,false,stim,false,1,539,2,1,1,36518,task3,224982,false,true,316,image-keyboard-response,5
true,5,2,2,2,true,d,false,true,0.0-2.0-0.8-0.80-3.80,0,1,1,68,false,stim,false,2,625,2,1,2,36518,task3,227141,false,false,319,image-keyboard-response,6
true,5,1,2,1,true,z,false,true,0.0-2.0-0.9-0.81-3.81,0,1,1,90,false,stim,false,1,524,2,0,1,36518,task3,229199,false,false,322,image-keyboard-response,7
true,5,2,2,2,true,d,false,true,0.0-2.0-0.9-0.82-3.82,0,1,1,68,false,stim,false,2,388,2,1,2,36518,task3,231115,false,false,325,image-keyboard-response,8
true,5,2,2,2,true,d,false,false,0.0-2.0-0.9-0.83-3.83,0,1,1,68,false,stim,false,2,573,2,1,2,36518,task3,233201,false,true,328,image-keyboard-response,9
true,5,2,2,0,false,q,false,false,0.0-2.0-0.9-0.84-3.84,0,1,1,68,false,stim,true,2,508,2,1,0,36518,task3,235238,false,false,331,image-keyboard-response,10
true,6,2,2,2,true,d,false,true,0.0-2.0-0.9-0.85-3.85,1,0,1,68,true,stim,false,2,680,2,1,2,36518,task3,237457,false,false,334,image-keyboard-response,1
true,6,1,2,2,false,d,false,false,0.0-2.0-0.9-0.86-3.86,1,0,1,90,false,stim,true,1,477,2,0,1,36518,task3,239474,false,false,337,image-keyboard-response,2
true,6,0,2,0,true,q,false,true,0.0-2.0-0.9-0.87-3.87,1,0,1,81,false,stim,false,0,445,2,1,0,36518,task3,241439,false,false,340,image-keyboard-response,3
true,6,1,2,2,false,d,false,false,0.0-2.0-0.9-0.88-3.88,1,0,1,90,false,stim,true,1,601,2,0,1,36518,task3,243569,false,false,343,image-keyboard-response,4
true,6,0,2,0,true,q,false,true,0.0-2.0-0.9-0.89-3.89,1,0,1,81,false,stim,false,0,509,2,1,0,36518,task3,245605,false,false,346,image-keyboard-response,5
true,6,2,2,2,true,d,false,true,0.0-2.0-0.10-0.90-3.90,1,0,1,68,false,stim,false,1,413,2,0,1,36518,task3,247538,false,false,349,image-keyboard-response,6
true,6,0,2,0,true,q,false,false,0.0-2.0-0.10-0.91-3.91,1,0,1,81,false,stim,false,0,506,2,1,0,36518,task3,249573,false,true,352,image-keyboard-response,7
true,6,2,2,2,true,d,false,true,0.0-2.0-0.10-0.92-3.92,1,0,1,68,false,stim,false,1,461,2,0,1,36518,task3,251568,false,false,355,image-keyboard-response,8
true,6,0,2,0,true,q,false,true,0.0-2.0-0.10-0.93-3.93,1,0,1,81,false,stim,false,0,556,2,1,0,36518,task3,253653,false,false,358,image-keyboard-response,9
true,6,0,2,0,true,q,false,false,0.0-2.0-0.10-0.94-3.94,1,0,1,81,false,stim,false,0,423,2,1,0,36518,task3,255600,false,true,361,image-keyboard-response,10
true,6,2,2,2,true,d,false,false,0.0-2.0-0.10-0.95-3.95,1,0,1,68,false,stim,false,2,484,2,0,2,36518,task3,257611,false,true,364,image-keyboard-response,11
true,6,2,2,2,true,d,false,false,0.0-2.0-0.10-0.96-3.96,1,0,1,68,false,stim,false,2,347,2,0,2,36518,task3,259494,false,true,367,image-keyboard-response,12
true,6,2,2,2,true,d,false,true,0.0-2.0-0.10-0.97-3.97,1,0,1,68,false,stim,false,1,844,2,1,1,36518,task3,261870,false,false,370,image-keyboard-response,13
true,7,1,2,0,false,q,true,false,0.0-2.0-0.10-0.98-3.98,1,1,0,90,true,stim,false,2,729,2,0,2,36518,task3,264107,false,false,373,image-keyboard-response,1
true,7,0,2,0,true,q,false,true,0.0-2.0-0.11-0.99-3.99,1,1,0,81,false,stim,false,2,684,2,0,2,36518,task3,266315,false,false,376,image-keyboard-response,2
true,7,0,2,0,true,q,false,true,0.0-2.0-0.11-0.100-3.100,1,1,0,81,false,stim,false,0,338,2,1,0,36518,task3,268185,false,false,379,image-keyboard-response,3
true,7,0,2,0,true,q,false,true,0.0-2.0-0.11-0.101-3.101,1,1,0,81,false,stim,false,0,320,2,1,0,36518,task3,270047,false,false,382,image-keyboard-response,4
true,7,0,2,0,true,q,false,true,0.0-2.0-0.11-0.102-3.102,1,1,0,81,false,stim,false,2,562,2,0,2,36518,task3,272139,false,false,385,image-keyboard-response,5
true,7,2,2,2,true,d,false,true,0.0-2.0-0.11-0.103-3.103,1,1,0,68,false,stim,false,2,586,2,1,1,36518,task3,274263,false,false,388,image-keyboard-response,6
true,7,2,2,2,true,d,false,true,0.0-2.0-0.11-0.104-3.104,1,1,0,68,false,stim,false,2,508,2,1,1,36518,task3,276304,false,false,391,image-keyboard-response,7
true,7,0,2,0,true,q,false,true,0.0-2.0-0.11-0.105-3.105,1,1,0,81,false,stim,false,2,560,2,0,2,36518,task3,278406,false,false,394,image-keyboard-response,8
true,7,0,2,0,true,q,false,false,0.0-2.0-0.11-0.106-3.106,1,1,0,81,false,stim,false,0,560,2,1,0,36518,task3,280497,false,true,397,image-keyboard-response,9
true,7,2,2,2,true,d,false,false,0.0-2.0-0.11-0.107-3.107,1,1,0,68,false,stim,false,2,551,2,1,1,36518,task3,282589,false,true,400,image-keyboard-response,10
true,7,0,2,0,true,q,false,true,0.0-2.0-0.12-0.108-3.108,1,1,0,81,false,stim,false,0,498,2,1,0,36518,task3,284614,false,false,403,image-keyboard-response,11
true,7,0,2,0,true,q,false,true,0.0-2.0-0.12-0.109-3.109,1,1,0,81,false,stim,false,0,476,2,1,0,36518,task3,286623,false,false,406,image-keyboard-response,12
true,7,0,2,0,true,q,false,true,0.0-2.0-0.12-0.110-3.110,1,1,0,81,false,stim,false,0,387,2,1,0,36518,task3,288524,false,false,409,image-keyboard-response,13
true,7,0,2,0,true,q,false,true,0.0-2.0-0.12-0.111-3.111,1,1,0,81,false,stim,false,2,539,2,0,2,36518,task3,290596,false,false,412,image-keyboard-response,14
true,7,0,2,0,true,q,false,true,0.0-2.0-0.12-0.112-3.112,1,1,0,81,false,stim,false,2,331,2,0,2,36518,task3,292456,false,false,415,image-keyboard-response,15
true,7,2,2,2,true,d,false,true,0.0-2.0-0.12-0.113-3.113,1,1,0,68,false,stim,false,2,658,2,1,1,36518,task3,294644,false,false,418,image-keyboard-response,16
true,7,2,2,2,true,d,false,true,0.0-2.0-0.12-0.114-3.114,1,1,0,68,false,stim,false,2,402,2,1,1,36518,task3,296559,false,false,421,image-keyboard-response,17
true,7,0,2,0,true,q,false,true,0.0-2.0-0.12-0.115-3.115,1,1,0,81,false,stim,false,2,449,2,0,2,36518,task3,298546,false,false,424,image-keyboard-response,18
true,7,2,2,2,true,d,false,true,0.0-2.0-0.12-0.116-3.116,1,1,0,68,false,stim,false,2,540,2,1,1,36518,task3,300617,false,false,427,image-keyboard-response,19
true,7,2,2,2,true,d,false,false,0.0-2.0-0.13-0.117-3.117,1,1,0,68,false,stim,false,2,532,2,1,1,36518,task3,302680,false,true,430,image-keyboard-response,20
true,7,0,2,0,true,q,false,true,0.0-2.0-0.13-0.118-3.118,1,1,0,81,false,stim,false,2,610,2,0,2,36518,task3,304807,false,false,433,image-keyboard-response,21
true,7,0,2,0,true,q,false,true,0.0-2.0-0.13-0.119-3.119,1,1,0,81,false,stim,false,0,450,2,0,0,36518,task3,306787,false,false,436,image-keyboard-response,22
true,7,2,2,2,true,d,false,true,0.0-2.0-0.13-0.120-3.120,1,1,0,68,false,stim,false,2,615,2,1,1,36518,task3,308931,false,false,439,image-keyboard-response,23
true,7,2,2,2,true,d,false,true,0.0-2.0-0.13-0.121-3.121,1,1,0,68,false,stim,false,2,562,2,1,1,36518,task3,311028,false,false,442,image-keyboard-response,24
true,8,0,1,1,false,z,false,false,0.0-2.0-0.13-0.122-3.122,0,1,0,81,true,stim,true,0,479,2,0,0,36518,task3,313037,false,false,445,image-keyboard-response,1
true,8,0,1,1,false,z,false,false,0.0-2.0-0.13-0.123-3.123,0,1,0,81,false,stim,true,0,391,2,0,0,36518,task3,314955,false,false,448,image-keyboard-response,2
true,8,0,1,2,false,d,false,false,0.0-2.0-0.13-0.124-3.124,0,1,0,81,false,stim,true,0,752,2,0,2,36518,task3,317219,false,false,451,image-keyboard-response,3
true,8,0,1,2,false,d,false,false,0.0-2.0-0.13-0.125-3.125,0,1,0,81,false,stim,true,0,371,2,0,2,36518,task3,319117,false,false,454,image-keyboard-response,4
true,8,2,1,2,true,d,false,true,0.0-2.0-0.14-0.126-3.126,0,1,0,68,false,stim,false,2,534,2,1,1,36518,task3,321180,false,false,457,image-keyboard-response,5
true,8,2,1,2,true,d,false,true,0.0-2.0-0.14-0.127-3.127,0,1,0,68,false,stim,false,0,1453,2,0,2,36518,task3,324171,false,false,460,image-keyboard-response,6
true,8,2,1,2,true,d,false,true,0.0-2.0-0.14-0.128-3.128,0,1,0,68,false,stim,false,0,405,2,0,2,36518,task3,326112,false,false,463,image-keyboard-response,7
true,8,1,1,1,true,z,false,true,0.0-2.0-0.14-0.129-3.129,0,1,0,90,false,stim,false,0,628,2,0,0,36518,task3,328263,false,false,466,image-keyboard-response,8
true,8,2,1,2,true,d,false,true,0.0-2.0-0.14-0.130-3.130,0,1,0,68,false,stim,false,0,437,2,0,2,36518,task3,330233,false,false,469,image-keyboard-response,9
true,8,1,1,1,true,z,false,true,0.0-2.0-0.14-0.131-3.131,0,1,0,90,false,stim,false,0,450,2,0,0,36518,task3,332219,false,false,472,image-keyboard-response,10
true,8,2,1,2,true,d,false,true,0.0-2.0-0.14-0.132-3.132,0,1,0,68,false,stim,false,2,495,2,1,1,36518,task3,334241,false,false,475,image-keyboard-response,11
true,8,2,1,2,true,d,false,false,0.0-2.0-0.14-0.133-3.133,0,1,0,68,false,stim,false,2,379,2,1,1,36518,task3,336147,false,true,478,image-keyboard-response,12
true,8,1,1,1,true,z,false,false,0.0-2.0-0.14-0.134-3.134,0,1,0,90,false,stim,false,0,565,2,0,0,36518,task3,338242,false,true,481,image-keyboard-response,13
true,8,1,1,1,true,z,false,true,0.0-2.0-0.15-0.135-3.135,0,1,0,90,false,stim,false,0,586,2,0,0,36518,task3,340363,false,false,484,image-keyboard-response,14
true,8,1,1,1,true,z,false,true,0.0-2.0-0.15-0.136-3.136,0,1,0,90,false,stim,false,0,342,2,0,0,36518,task3,342229,false,false,487,image-keyboard-response,15
true,8,1,1,1,true,z,false,true,0.0-2.0-0.15-0.137-3.137,0,1,0,90,false,stim,false,0,363,2,0,0,36518,task3,344130,false,false,490,image-keyboard-response,16
true,8,2,1,2,true,d,false,true,0.0-2.0-0.15-0.138-3.138,0,1,0,68,false,stim,false,0,476,2,0,2,36518,task3,346135,false,false,493,image-keyboard-response,17
true,8,2,1,2,true,d,false,true,0.0-2.0-0.15-0.139-3.139,0,1,0,68,false,stim,false,0,418,2,0,2,36518,task3,348063,false,false,496,image-keyboard-response,18
true,8,2,1,2,true,d,false,true,0.0-2.0-0.15-0.140-3.140,0,1,0,68,false,stim,false,0,467,2,0,2,36518,task3,350058,false,false,499,image-keyboard-response,19
true,8,2,1,2,true,d,false,true,0.0-2.0-0.15-0.141-3.141,0,1,0,68,false,stim,false,2,796,2,1,1,36518,task3,352383,false,false,502,image-keyboard-response,20
true,8,2,1,2,true,d,false,true,0.0-2.0-0.15-0.142-3.142,0,1,0,68,false,stim,false,2,374,2,1,1,36518,task3,354271,false,false,505,image-keyboard-response,21
true,8,2,1,2,true,d,false,true,0.0-2.0-0.15-0.143-3.143,0,1,0,68,false,stim,false,2,356,2,1,1,36518,task3,356153,false,false,508,image-keyboard-response,22
true,8,1,1,1,true,z,false,true,0.0-2.0-0.16-0.144-3.144,0,1,0,90,false,stim,false,0,669,2,0,0,36518,task3,358346,false,false,511,image-keyboard-response,23
true,8,2,1,2,true,d,false,true,0.0-2.0-0.16-0.145-3.145,0,1,0,68,false,stim,false,2,520,2,1,1,36518,task3,360393,false,false,514,image-keyboard-response,24
true,8,2,1,2,true,d,false,true,0.0-2.0-0.16-0.146-3.146,0,1,0,68,false,stim,false,2,452,2,1,1,36518,task3,362369,false,false,517,image-keyboard-response,25
true,8,1,1,1,true,z,false,true,0.0-2.0-0.16-0.147-3.147,0,1,0,90,false,stim,false,0,476,2,0,0,36518,task3,364372,false,false,520,image-keyboard-response,26
true,8,2,1,2,true,d,false,true,0.0-2.0-0.16-0.148-3.148,0,1,0,68,false,stim,false,0,417,2,0,2,36518,task3,366322,false,false,523,image-keyboard-response,27
true,8,2,1,2,true,d,false,true,0.0-2.0-0.16-0.149-3.149,0,1,0,68,false,stim,false,0,287,2,0,2,36518,task3,368133,false,false,526,image-keyboard-response,28
true,8,2,1,2,true,d,false,false,0.0-2.0-0.16-0.150-3.150,0,1,0,68,false,stim,false,2,590,2,1,1,36518,task3,370256,false,true,529,image-keyboard-response,29
true,9,1,1,0,false,q,false,false,0.0-2.0-0.16-0.151-3.151,0,1,0,90,true,stim,true,1,484,2,0,0,36518,task3,372280,false,false,532,image-keyboard-response,1
true,9,2,1,1,false,z,false,false,0.0-2.0-0.16-0.152-3.152,0,1,0,68,false,stim,true,2,502,2,0,2,36518,task3,374287,false,false,535,image-keyboard-response,2
true,9,2,1,2,true,d,false,true,0.0-2.0-0.17-0.153-3.153,0,1,0,68,false,stim,false,2,584,2,1,1,36518,task3,376390,false,false,538,image-keyboard-response,3
true,9,1,1,0,false,q,false,true,0.0-2.0-0.17-0.154-3.154,0,1,0,90,false,stim,true,1,550,2,0,0,36518,task3,378467,false,true,541,image-keyboard-response,4
true,9,2,1,2,true,d,false,true,0.0-2.0-0.17-0.155-3.155,0,1,0,68,false,stim,false,2,584,2,1,1,36518,task3,380581,false,false,544,image-keyboard-response,5
true,9,2,1,1,false,z,false,false,0.0-2.0-0.17-0.156-3.156,0,1,0,68,false,stim,true,2,577,2,0,2,36518,task3,382675,false,false,547,image-keyboard-response,6
true,9,2,1,1,false,z,false,false,0.0-2.0-0.17-0.157-3.157,0,1,0,68,false,stim,true,2,364,2,0,2,36518,task3,384551,false,false,550,image-keyboard-response,7
true,9,1,1,0,false,q,false,true,0.0-2.0-0.17-0.158-3.158,0,1,0,90,false,stim,true,1,572,2,0,0,36518,task3,386659,false,true,553,image-keyboard-response,8
true,9,1,1,0,false,q,false,false,0.0-2.0-0.17-0.159-3.159,0,1,0,90,false,stim,true,1,390,2,0,0,36518,task3,388587,false,false,556,image-keyboard-response,9
true,9,2,1,2,true,d,false,true,0.0-2.0-0.17-0.160-3.160,0,1,0,68,false,stim,false,2,572,2,1,1,36518,task3,390690,false,false,559,image-keyboard-response,10
true,9,0,1,1,false,z,true,true,0.0-2.0-0.17-0.161-3.161,0,1,0,81,false,stim,false,2,470,2,0,2,36518,task3,392687,false,true,562,image-keyboard-response,11
true,9,0,1,1,false,z,true,false,0.0-2.0-0.18-0.162-3.162,0,1,0,81,false,stim,false,2,320,2,0,2,36518,task3,394547,false,false,565,image-keyboard-response,12
true,9,2,1,2,true,d,false,true,0.0-2.0-0.18-0.163-3.163,0,1,0,68,false,stim,false,2,515,2,1,1,36518,task3,396601,false,false,568,image-keyboard-response,13
true,9,0,1,1,false,z,true,false,0.0-2.0-0.18-0.164-3.164,0,1,0,81,false,stim,false,2,358,2,0,2,36518,task3,398495,false,false,571,image-keyboard-response,14
true,9,1,1,0,false,q,false,true,0.0-2.0-0.18-0.165-3.165,0,1,0,90,false,stim,true,1,596,2,0,0,36518,task3,400634,false,true,574,image-keyboard-response,15
true,9,1,1,0,false,q,false,false,0.0-2.0-0.18-0.166-3.166,0,1,0,90,false,stim,true,1,421,2,0,0,36518,task3,402569,false,false,577,image-keyboard-response,16
true,9,1,1,2,false,d,true,false,0.0-2.0-0.18-0.167-3.167,0,1,0,90,false,stim,false,2,399,2,1,1,36518,task3,404505,false,false,580,image-keyboard-response,17
true,9,2,1,2,true,d,false,true,0.0-2.0-0.18-0.168-3.168,0,1,0,68,false,stim,false,2,521,2,0,1,36518,task3,406569,false,false,583,image-keyboard-response,18
true,9,1,1,0,false,q,false,false,0.0-2.0-0.18-0.169-3.169,0,1,0,90,false,stim,true,1,597,2,0,0,36518,task3,408694,false,false,586,image-keyboard-response,19
true,9,1,1,1,true,z,false,true,0.0-2.0-0.18-0.170-3.170,0,1,0,90,false,stim,false,2,731,2,1,2,36518,task3,410947,false,false,589,image-keyboard-response,20
true,9,2,1,2,true,d,false,true,0.0-2.0-0.19-0.171-3.171,0,1,0,68,false,stim,false,2,489,2,0,1,36518,task3,412976,false,false,592,image-keyboard-response,21
true,9,2,1,2,true,d,false,true,0.0-2.0-0.19-0.172-3.172,0,1,0,68,false,stim,false,2,333,2,0,1,36518,task3,414849,false,false,595,image-keyboard-response,22
true,10,1,1,1,true,z,false,true,0.0-2.0-0.19-0.173-3.173,0,0,1,90,true,stim,false,1,623,2,1,2,36518,task3,416999,false,false,598,image-keyboard-response,1
true,10,1,1,2,false,d,true,false,0.0-2.0-0.19-0.174-3.174,0,0,1,90,false,stim,false,0,342,2,0,0,36518,task3,418876,false,false,601,image-keyboard-response,2
true,10,2,1,2,true,d,false,true,0.0-2.0-0.19-0.175-3.175,0,0,1,68,false,stim,false,0,819,2,0,0,36518,task3,421235,false,false,604,image-keyboard-response,3
true,10,1,1,1,true,z,false,true,0.0-2.0-0.19-0.176-3.176,0,0,1,90,false,stim,false,1,578,2,1,2,36518,task3,423349,false,false,607,image-keyboard-response,4
true,10,1,1,1,true,z,false,false,0.0-2.0-0.19-0.177-3.177,0,0,1,90,false,stim,false,1,561,2,1,2,36518,task3,425448,false,true,610,image-keyboard-response,5
true,10,2,1,2,true,d,false,true,0.0-2.0-0.19-0.178-3.178,0,0,1,68,false,stim,false,0,357,2,0,0,36518,task3,427335,false,false,613,image-keyboard-response,6
true,10,2,1,0,false,q,false,false,0.0-2.0-0.19-0.179-3.179,0,0,1,68,false,stim,true,2,472,2,0,1,36518,task3,429349,false,false,616,image-keyboard-response,7
true,10,2,1,0,false,q,false,false,0.0-2.0-0.20-0.180-3.180,0,0,1,68,false,stim,true,2,532,2,0,1,36518,task3,431423,false,false,619,image-keyboard-response,8
true,10,0,1,0,true,q,false,true,0.0-2.0-0.20-0.181-3.181,0,0,1,81,false,stim,false,2,480,2,0,1,36518,task3,433412,false,false,622,image-keyboard-response,9
true,10,2,1,2,true,d,false,true,0.0-2.0-0.20-0.182-3.182,0,0,1,68,false,stim,false,0,492,2,0,0,36518,task3,435432,false,false,625,image-keyboard-response,10
true,10,2,1,2,true,d,false,true,0.0-2.0-0.20-0.183-3.183,0,0,1,68,false,stim,false,0,393,2,0,0,36518,task3,437350,false,false,628,image-keyboard-response,11
true,10,1,1,1,true,z,false,true,0.0-2.0-0.20-0.184-3.184,0,0,1,90,false,stim,false,1,660,2,1,2,36518,task3,439529,false,false,631,image-keyboard-response,12
true,10,2,1,2,true,d,false,true,0.0-2.0-0.20-0.185-3.185,0,0,1,68,false,stim,false,0,662,2,0,0,36518,task3,441727,false,false,634,image-keyboard-response,13
true,10,1,1,1,true,z,false,true,0.0-2.0-0.20-0.186-3.186,0,0,1,90,false,stim,false,1,451,2,1,2,36518,task3,443718,false,false,637,image-keyboard-response,14
true,10,0,1,0,true,q,false,true,0.0-2.0-0.20-0.187-3.187,0,0,1,81,false,stim,false,2,533,2,0,1,36518,task3,445789,false,false,640,image-keyboard-response,15
true,10,1,1,1,true,z,false,true,0.0-2.0-0.20-0.188-3.188,0,0,1,90,false,stim,false,1,940,2,1,2,36518,task3,448257,false,false,643,image-keyboard-response,16
true,10,2,1,2,true,d,false,false,0.0-2.0-0.21-0.189-3.189,0,0,1,68,false,stim,false,0,620,2,0,0,36518,task3,450398,false,true,646,image-keyboard-response,17
true,10,2,1,2,true,d,false,true,0.0-2.0-0.21-0.190-3.190,0,0,1,68,false,stim,false,0,350,2,0,0,36518,task3,452276,false,false,649,image-keyboard-response,18
true,10,0,1,0,true,q,false,true,0.0-2.0-0.21-0.191-3.191,0,0,1,81,false,stim,false,2,556,2,1,1,36518,task3,454362,false,false,652,image-keyboard-response,19
true,10,1,1,1,true,z,false,true,0.0-2.0-0.21-0.192-3.192,0,0,1,90,false,stim,false,1,624,2,1,2,36518,task3,456520,false,false,655,image-keyboard-response,20
true,10,1,1,1,true,z,false,true,0.0-2.0-0.21-0.193-3.193,0,0,1,90,false,stim,false,1,378,2,1,2,36518,task3,458436,false,false,658,image-keyboard-response,21
true,10,0,1,0,true,q,false,true,0.0-2.0-0.21-0.194-3.194,0,0,1,81,false,stim,false,2,463,2,1,1,36518,task3,460430,false,false,661,image-keyboard-response,22
true,10,1,1,1,true,z,false,false,0.0-2.0-0.21-0.195-3.195,0,0,1,90,false,stim,false,1,469,2,1,2,36518,task3,462435,false,true,664,image-keyboard-response,23
true,11,0,2,0,true,q,false,true,0.0-2.0-0.21-0.196-3.196,0,1,1,81,true,stim,false,0,354,2,1,1,36518,task3,464321,false,false,667,image-keyboard-response,1
true,11,2,2,1,false,z,false,false,0.0-2.0-0.21-0.197-3.197,0,1,1,68,false,stim,true,2,572,2,0,0,36518,task3,466424,false,false,670,image-keyboard-response,2
true,11,1,2,1,true,z,false,true,0.0-2.0-0.22-0.198-3.198,0,1,1,90,false,stim,false,1,664,2,1,2,36518,task3,468611,false,false,673,image-keyboard-response,3
true,11,0,2,0,true,q,false,true,0.0-2.0-0.22-0.199-3.199,0,1,1,81,false,stim,false,0,531,2,1,1,36518,task3,470679,false,false,676,image-keyboard-response,4
true,11,0,2,0,true,q,false,true,0.0-2.0-0.22-0.200-3.200,0,1,1,81,false,stim,false,0,427,2,1,1,36518,task3,472623,false,false,679,image-keyboard-response,5
true,11,0,2,1,false,z,true,true,0.0-2.0-0.22-0.201-3.201,0,1,1,81,false,stim,false,2,367,2,0,0,36518,task3,474520,false,true,682,image-keyboard-response,6
true,11,0,2,1,false,z,true,false,0.0-2.0-0.22-0.202-3.202,0,1,1,81,false,stim,false,2,301,2,0,0,36518,task3,476358,false,false,685,image-keyboard-response,7
true,11,0,2,0,true,q,false,true,0.0-2.0-0.22-0.203-3.203,0,1,1,81,false,stim,false,0,437,2,1,1,36518,task3,478333,false,false,688,image-keyboard-response,8
true,11,1,2,1,true,z,false,true,0.0-2.0-0.22-0.204-3.204,0,1,1,90,false,stim,false,1,545,2,1,2,36518,task3,480412,false,false,691,image-keyboard-response,9
true,11,1,2,1,true,z,false,true,0.0-2.0-0.22-0.205-3.205,0,1,1,90,false,stim,false,1,410,2,1,2,36518,task3,482348,false,false,694,image-keyboard-response,10
true,11,0,2,1,false,z,true,true,0.0-2.0-0.22-0.206-3.206,0,1,1,81,false,stim,false,2,550,2,1,0,36518,task3,484425,false,true,697,image-keyboard-response,11
true,11,0,2,1,false,z,true,false,0.0-2.0-0.23-0.207-3.207,0,1,1,81,false,stim,false,2,317,2,1,0,36518,task3,486275,false,false,700,image-keyboard-response,12
true,11,1,2,1,true,z,false,false,0.0-2.0-0.23-0.208-3.208,0,1,1,90,false,stim,false,1,562,2,1,2,36518,task3,488368,false,true,703,image-keyboard-response,13
true,11,1,2,1,true,z,false,true,0.0-2.0-0.23-0.209-3.209,0,1,1,90,false,stim,false,1,507,2,1,2,36518,task3,490414,false,false,706,image-keyboard-response,14
true,12,0,2,2,false,d,false,false,0.0-2.0-0.23-0.210-3.210,1,0,1,81,true,stim,true,0,490,2,0,1,36518,task3,492427,false,false,709,image-keyboard-response,1
true,12,0,2,2,false,d,false,false,0.0-2.0-0.23-0.211-3.211,1,0,1,81,false,stim,true,0,323,2,0,1,36518,task3,494279,false,false,712,image-keyboard-response,2
true,12,1,2,1,true,z,false,true,0.0-2.0-0.23-0.212-3.212,1,0,1,90,false,stim,false,1,483,2,1,2,36518,task3,496282,false,false,715,image-keyboard-response,3
true,12,1,2,2,false,d,true,false,0.0-2.0-0.23-0.213-3.213,1,0,1,90,false,stim,false,0,895,2,0,1,36518,task3,498702,false,false,718,image-keyboard-response,4
true,12,0,2,1,false,z,true,false,0.0-2.0-0.23-0.214-3.214,1,0,1,81,false,stim,false,1,797,2,1,0,36518,task3,501015,false,false,721,image-keyboard-response,5
true,12,1,2,1,true,z,false,true,0.0-2.0-0.23-0.215-3.215,1,0,1,90,false,stim,false,1,354,2,1,0,36518,task3,502891,false,false,724,image-keyboard-response,6
true,12,2,2,2,true,d,false,false,0.0-2.0-0.24-0.216-3.216,1,0,1,68,false,stim,false,0,541,2,0,1,36518,task3,504969,false,true,727,image-keyboard-response,7
true,12,1,2,1,true,z,false,true,0.0-2.0-0.24-0.217-3.217,1,0,1,90,false,stim,false,1,765,2,1,2,36518,task3,507262,false,false,730,image-keyboard-response,8
true,12,1,2,1,true,z,false,true,0.0-2.0-0.24-0.218-3.218,1,0,1,90,false,stim,false,1,433,2,1,2,36518,task3,509230,false,false,733,image-keyboard-response,9
true,12,1,2,1,true,z,false,true,0.0-2.0-0.24-0.219-3.219,1,0,1,90,false,stim,false,1,481,2,1,2,36518,task3,511234,false,false,736,image-keyboard-response,10
true,12,1,2,1,true,z,false,true,0.0-2.0-0.24-0.220-3.220,1,0,1,90,false,stim,false,1,400,2,1,0,36518,task3,513168,false,false,739,image-keyboard-response,11
true,12,1,2,1,true,z,false,true,0.0-2.0-0.24-0.221-3.221,1,0,1,90,false,stim,false,1,324,2,1,0,36518,task3,515027,false,false,742,image-keyboard-response,12
true,12,1,2,1,true,z,false,true,0.0-2.0-0.24-0.222-3.222,1,0,1,90,false,stim,false,1,409,2,1,0,36518,task3,516967,false,false,745,image-keyboard-response,13
true,12,2,2,2,true,d,false,true,0.0-2.0-0.24-0.223-3.223,1,0,1,68,false,stim,false,0,502,2,0,1,36518,task3,518998,false,false,748,image-keyboard-response,14
true,12,2,2,2,true,d,false,true,0.0-2.0-0.24-0.224-3.224,1,0,1,68,false,stim,false,0,335,2,0,1,36518,task3,520863,false,false,751,image-keyboard-response,15
true,12,1,2,1,true,z,false,true,0.0-2.0-0.25-0.225-3.225,1,0,1,90,false,stim,false,1,514,2,1,2,36518,task3,522900,false,false,754,image-keyboard-response,16
true,12,1,2,1,true,z,false,true,0.0-2.0-0.25-0.226-3.226,1,0,1,90,false,stim,false,1,332,2,1,2,36518,task3,524770,false,false,757,image-keyboard-response,17
true,12,1,2,1,true,z,false,true,0.0-2.0-0.25-0.227-3.227,1,0,1,90,false,stim,false,1,429,2,1,0,36518,task3,526726,false,false,760,image-keyboard-response,18
true,12,1,2,1,true,z,false,true,0.0-2.0-0.25-0.228-3.228,1,0,1,90,false,stim,false,1,596,2,1,2,36518,task3,528844,false,false,763,image-keyboard-response,19
true,12,2,2,2,true,d,false,true,0.0-2.0-0.25-0.229-3.229,1,0,1,68,false,stim,false,0,466,2,0,1,36518,task3,530832,false,false,766,image-keyboard-response,20
true,12,2,2,2,true,d,false,true,0.0-2.0-0.25-0.230-3.230,1,0,1,68,false,stim,false,0,442,2,0,1,36518,task3,532810,false,false,769,image-keyboard-response,21
true,12,1,2,1,true,z,false,true,0.0-2.0-0.25-0.231-3.231,1,0,1,90,false,stim,false,1,479,2,0,0,36518,task3,534815,false,false,772,image-keyboard-response,22
true,12,2,2,2,true,d,false,true,0.0-2.0-0.25-0.232-3.232,1,0,1,68,false,stim,false,0,505,2,0,1,36518,task3,536852,false,false,775,image-keyboard-response,23
true,12,1,2,1,true,z,false,true,0.0-2.0-0.25-0.233-3.233,1,0,1,90,false,stim,false,1,454,2,0,0,36518,task3,538826,false,false,778,image-keyboard-response,24
true,12,1,2,1,true,z,false,false,0.0-2.0-0.26-0.234-3.234,1,0,1,90,false,stim,false,1,383,2,0,0,36518,task3,540750,false,true,781,image-keyboard-response,25
true,13,1,1,2,false,d,false,false,0.0-2.0-0.26-0.235-3.235,0,0,1,90,true,stim,true,1,395,2,0,0,36518,task3,542671,false,false,784,image-keyboard-response,1
true,13,2,1,1,false,z,false,false,0.0-2.0-0.26-0.236-3.236,0,0,1,68,false,stim,true,2,525,2,0,1,36518,task3,544722,false,false,787,image-keyboard-response,2
true,13,1,1,1,true,z,false,true,0.0-2.0-0.26-0.237-3.237,0,0,1,90,false,stim,false,1,747,2,1,2,36518,task3,546984,false,false,790,image-keyboard-response,3
true,13,1,1,1,true,z,false,true,0.0-2.0-0.26-0.238-3.238,0,0,1,90,false,stim,false,1,414,2,1,2,36518,task3,548921,false,false,793,image-keyboard-response,4
true,13,1,1,1,true,z,false,true,0.0-2.0-0.26-0.239-3.239,0,0,1,90,false,stim,false,2,772,2,0,1,36518,task3,551219,false,false,796,image-keyboard-response,5
true,13,2,1,2,true,d,false,true,0.0-2.0-0.26-0.240-3.240,0,0,1,68,false,stim,false,1,601,2,0,0,36518,task3,553358,false,false,799,image-keyboard-response,6
true,13,1,1,1,true,z,false,true,0.0-2.0-0.26-0.241-3.241,0,0,1,90,false,stim,false,2,789,2,1,1,36518,task3,555685,false,false,802,image-keyboard-response,7
true,13,1,1,1,true,z,false,true,0.0-2.0-0.26-0.242-3.242,0,0,1,90,false,stim,false,1,599,2,0,2,36518,task3,557826,false,false,805,image-keyboard-response,8
true,13,1,1,1,true,z,false,true,0.0-2.0-0.27-0.243-3.243,0,0,1,90,false,stim,false,2,534,2,1,1,36518,task3,559900,false,false,808,image-keyboard-response,9
true,13,2,1,2,true,d,false,true,0.0-2.0-0.27-0.244-3.244,0,0,1,68,false,stim,false,1,355,2,1,0,36518,task3,561780,false,false,811,image-keyboard-response,10
true,13,1,1,1,true,z,false,true,0.0-2.0-0.27-0.245-3.245,0,0,1,90,false,stim,false,1,492,2,0,2,36518,task3,563788,false,false,814,image-keyboard-response,11
true,14,1,2,0,false,q,false,false,0.0-2.0-0.27-0.246-3.246,1,1,0,90,true,stim,true,1,361,2,0,2,36518,task3,565688,false,false,817,image-keyboard-response,1
true,14,2,2,2,true,d,false,true,0.0-2.0-0.27-0.247-3.247,1,1,0,68,false,stim,false,2,587,2,1,0,36518,task3,567814,false,false,820,image-keyboard-response,2
true,14,1,2,1,true,z,false,false,0.0-2.0-0.27-0.248-3.248,1,1,0,90,false,stim,false,1,671,2,1,1,36518,task3,570019,false,true,823,image-keyboard-response,3
true,14,2,2,2,true,d,false,true,0.0-2.0-0.27-0.249-3.249,1,1,0,68,false,stim,false,2,567,2,1,0,36518,task3,572110,false,false,826,image-keyboard-response,4
true,14,0,2,0,true,q,false,true,0.0-2.0-0.27-0.250-3.250,1,1,0,81,false,stim,false,1,667,2,0,2,36518,task3,574304,false,false,829,image-keyboard-response,5
true,14,0,2,1,false,z,true,false,0.0-2.0-0.27-0.251-3.251,1,1,0,81,false,stim,false,1,1001,2,1,1,36518,task3,576828,false,false,832,image-keyboard-response,6
true,14,2,2,2,true,d,false,true,0.0-2.0-0.28-0.252-3.252,1,1,0,68,false,stim,false,2,594,2,1,0,36518,task3,578940,false,false,835,image-keyboard-response,7
true,14,1,2,1,true,z,false,true,0.0-2.0-0.28-0.253-3.253,1,1,0,90,false,stim,false,1,790,2,1,1,36518,task3,581249,false,false,838,image-keyboard-response,8
true,14,0,2,0,true,q,false,true,0.0-2.0-0.28-0.254-3.254,1,1,0,81,false,stim,false,1,614,2,0,2,36518,task3,583392,false,false,841,image-keyboard-response,9
true,14,1,2,1,true,z,false,true,0.0-2.0-0.28-0.255-3.255,1,1,0,90,false,stim,false,1,503,2,1,1,36518,task3,585418,false,false,844,image-keyboard-response,10
true,14,2,2,2,true,d,false,true,0.0-2.0-0.28-0.256-3.256,1,1,0,68,false,stim,false,2,508,2,1,0,36518,task3,587444,false,false,847,image-keyboard-response,11
true,14,2,2,2,true,d,false,true,0.0-2.0-0.28-0.257-3.257,1,1,0,68,false,stim,false,2,631,2,1,0,36518,task3,589608,false,false,850,image-keyboard-response,12
true,14,0,2,0,true,q,false,true,0.0-2.0-0.28-0.258-3.258,1,1,0,81,false,stim,false,1,641,2,0,2,36518,task3,591778,false,false,853,image-keyboard-response,13
true,14,0,2,0,true,q,false,true,0.0-2.0-0.28-0.259-3.259,1,1,0,81,false,stim,false,1,314,2,0,2,36518,task3,593621,false,false,856,image-keyboard-response,14
true,14,1,2,1,true,z,false,true,0.0-2.0-0.28-0.260-3.260,1,1,0,90,false,stim,false,1,622,2,1,1,36518,task3,595769,false,false,859,image-keyboard-response,15
true,14,2,2,2,true,d,false,true,0.0-2.0-0.29-0.261-3.261,1,1,0,68,false,stim,false,2,451,2,1,0,36518,task3,597748,false,false,862,image-keyboard-response,16
true,14,0,2,0,true,q,false,true,0.0-2.0-0.29-0.262-3.262,1,1,0,81,false,stim,false,1,629,2,0,2,36518,task3,599905,false,false,865,image-keyboard-response,17
true,14,1,2,1,true,z,false,true,0.0-2.0-0.29-0.263-3.263,1,1,0,90,false,stim,false,1,441,2,1,1,36518,task3,601868,false,false,868,image-keyboard-response,18
true,14,0,2,0,true,q,false,true,0.0-2.0-0.29-0.264-3.264,1,1,0,81,false,stim,false,1,503,2,0,2,36518,task3,603910,false,false,871,image-keyboard-response,19
true,14,1,2,1,true,z,false,true,0.0-2.0-0.29-0.265-3.265,1,1,0,90,false,stim,false,1,414,2,1,1,36518,task3,605862,false,false,874,image-keyboard-response,20
true,14,2,2,2,true,d,false,true,0.0-2.0-0.29-0.266-3.266,1,1,0,68,false,stim,false,2,462,2,1,0,36518,task3,607839,false,false,877,image-keyboard-response,21
true,14,0,2,1,false,z,true,false,0.0-2.0-0.29-0.267-3.267,1,1,0,81,false,stim,false,1,507,2,1,1,36518,task3,609874,false,false,880,image-keyboard-response,22
true,14,1,2,0,false,q,false,false,0.0-2.0-0.29-0.268-3.268,1,1,0,90,false,stim,true,1,779,2,0,2,36518,task3,612186,false,false,883,image-keyboard-response,23
true,14,2,2,2,true,d,false,true,0.0-2.0-0.29-0.269-3.269,1,1,0,68,false,stim,false,2,848,2,0,0,36518,task3,614576,false,false,886,image-keyboard-response,24
true,14,2,2,2,true,d,false,true,0.0-2.0-0.30-0.270-3.270,1,1,0,68,false,stim,false,2,676,2,0,0,36518,task3,616783,false,false,889,image-keyboard-response,25
true,14,0,2,1,false,z,true,false,0.0-2.0-0.30-0.271-3.271,1,1,0,81,false,stim,false,1,1285,2,1,1,36518,task3,619592,false,false,892,image-keyboard-response,26
true,15,2,1,0,false,q,false,false,0.0-2.0-0.30-0.272-3.272,0,1,0,68,true,stim,true,2,574,2,0,0,36518,task3,621690,false,false,895,image-keyboard-response,1
true,15,0,1,1,false,z,false,false,0.0-2.0-0.30-0.273-3.273,0,1,0,81,false,stim,true,0,671,2,0,2,36518,task3,623888,false,false,898,image-keyboard-response,2
true,15,1,1,1,true,z,false,true,0.0-2.0-0.30-0.274-3.274,0,1,0,90,false,stim,false,0,1517,2,0,2,36518,task3,626939,false,false,901,image-keyboard-response,3
true,15,2,1,0,false,q,false,false,0.0-2.0-0.30-0.275-3.275,0,1,0,68,false,stim,true,2,489,2,0,0,36518,task3,628947,false,false,904,image-keyboard-response,4
true,15,2,1,1,false,z,true,false,0.0-2.0-0.30-0.276-3.276,0,1,0,68,false,stim,false,1,1177,2,1,1,36518,task3,631665,false,false,907,image-keyboard-response,5
true,15,1,1,1,true,z,false,true,0.0-2.0-0.30-0.277-3.277,0,1,0,90,false,stim,false,1,690,2,1,1,36518,task3,633887,false,false,910,image-keyboard-response,6
true,15,1,1,1,true,z,false,true,0.0-2.0-0.30-0.278-3.278,0,1,0,90,false,stim,false,0,351,2,0,2,36518,task3,635759,false,false,913,image-keyboard-response,7
true,15,1,1,1,true,z,false,true,0.0-2.0-0.31-0.279-3.279,0,1,0,90,false,stim,false,1,528,2,1,1,36518,task3,637816,false,false,916,image-keyboard-response,8
true,15,0,1,0,true,q,false,true,0.0-2.0-0.31-0.280-3.280,0,1,0,81,false,stim,false,2,509,2,0,0,36518,task3,639857,false,false,919,image-keyboard-response,9
true,15,1,1,1,true,z,false,true,0.0-2.0-0.31-0.281-3.281,0,1,0,90,false,stim,false,0,450,2,0,2,36518,task3,641828,false,false,922,image-keyboard-response,10
true,15,1,1,1,true,z,false,true,0.0-2.0-0.31-0.282-3.282,0,1,0,90,false,stim,false,0,400,2,0,2,36518,task3,643749,false,false,925,image-keyboard-response,11
true,15,0,1,0,true,q,false,true,0.0-2.0-0.31-0.283-3.283,0,1,0,81,false,stim,false,2,447,2,0,0,36518,task3,645734,false,false,928,image-keyboard-response,12
true,15,0,1,0,true,q,false,true,0.0-2.0-0.31-0.284-3.284,0,1,0,81,false,stim,false,2,405,2,0,0,36518,task3,647673,false,false,931,image-keyboard-response,13
true,15,1,1,1,true,z,false,true,0.0-2.0-0.31-0.285-3.285,0,1,0,90,false,stim,false,0,440,2,0,2,36518,task3,649638,false,false,934,image-keyboard-response,14
true,15,1,1,1,true,z,false,true,0.0-2.0-0.31-0.286-3.286,0,1,0,90,false,stim,false,1,653,2,1,1,36518,task3,651820,false,false,937,image-keyboard-response,15
true,15,1,1,1,true,z,false,false,0.0-2.0-0.31-0.287-3.287,0,1,0,90,false,stim,false,1,356,2,1,1,36518,task3,653704,false,true,940,image-keyboard-response,16
true,15,1,1,0,false,q,true,false,0.0-2.0-0.32-0.288-3.288,0,1,0,90,false,stim,false,2,460,2,0,0,36518,task3,655687,false,false,943,image-keyboard-response,17
true,15,0,1,0,true,q,false,true,0.0-2.0-0.32-0.289-3.289,0,1,0,81,false,stim,false,2,470,2,0,0,36518,task3,657688,false,false,946,image-keyboard-response,18
true,15,1,1,1,true,z,false,true,0.0-2.0-0.32-0.290-3.290,0,1,0,90,false,stim,false,1,445,2,1,1,36518,task3,659654,false,false,949,image-keyboard-response,19
true,15,1,1,1,true,z,false,true,0.0-2.0-0.32-0.291-3.291,0,1,0,90,false,stim,false,0,634,2,0,2,36518,task3,661802,false,false,952,image-keyboard-response,20
true,15,1,1,1,true,z,false,false,0.0-2.0-0.32-0.292-3.292,0,1,0,90,false,stim,false,1,411,2,1,1,36518,task3,663733,false,true,955,image-keyboard-response,21
true,15,0,1,1,false,z,true,false,0.0-2.0-0.32-0.293-3.293,0,1,0,81,false,stim,false,1,1026,2,1,1,36518,task3,666283,false,false,958,image-keyboard-response,22
true,15,1,1,1,true,z,false,true,0.0-2.0-0.32-0.294-3.294,0,1,0,90,false,stim,false,0,590,2,0,2,36518,task3,668407,false,false,961,image-keyboard-response,23
true,15,1,1,1,true,z,false,true,0.0-2.0-0.32-0.295-3.295,0,1,0,90,false,stim,false,0,376,2,0,2,36518,task3,670301,false,false,964,image-keyboard-response,24
true,15,0,1,0,true,q,false,true,0.0-2.0-0.32-0.296-3.296,0,1,0,81,false,stim,false,2,466,2,1,0,36518,task3,672296,false,false,967,image-keyboard-response,25
true,15,0,1,0,true,q,false,true,0.0-2.0-0.33-0.297-3.297,0,1,0,81,false,stim,false,2,344,2,1,0,36518,task3,674172,false,false,970,image-keyboard-response,26
true,15,1,1,1,true,z,false,true,0.0-2.0-0.33-0.298-3.298,0,1,0,90,false,stim,false,0,673,2,0,2,36518,task3,676370,false,false,973,image-keyboard-response,27
true,15,0,1,0,true,q,false,true,0.0-2.0-0.33-0.299-3.299,0,1,0,81,false,stim,false,2,647,2,1,0,36518,task3,678544,false,false,976,image-keyboard-response,28
true,16,0,2,0,true,q,false,true,0.0-2.0-0.33-0.300-3.300,1,1,0,81,true,stim,false,0,357,2,1,0,36518,task3,680423,false,false,979,image-keyboard-response,1
true,16,2,2,1,false,z,true,false,0.0-2.0-0.33-0.301-3.301,1,1,0,68,false,stim,false,1,877,2,1,1,36518,task3,682833,false,false,982,image-keyboard-response,2
true,16,1,2,0,false,q,false,false,0.0-2.0-0.33-0.302-3.302,1,1,0,90,false,stim,true,1,594,2,0,2,36518,task3,684962,false,false,985,image-keyboard-response,3
true,16,1,2,1,true,z,false,true,0.0-2.0-0.33-0.303-3.303,1,1,0,90,false,stim,false,1,931,2,1,1,36518,task3,687419,false,false,988,image-keyboard-response,4
true,16,1,2,1,true,z,false,true,0.0-2.0-0.33-0.304-3.304,1,1,0,90,false,stim,false,1,341,2,1,1,36518,task3,689277,false,false,991,image-keyboard-response,5
true,16,1,2,0,false,q,false,false,0.0-2.0-0.33-0.305-3.305,1,1,0,90,false,stim,true,1,662,2,0,2,36518,task3,691480,false,false,994,image-keyboard-response,6
true,16,1,2,1,true,z,false,true,0.0-2.0-0.34-0.306-3.306,1,1,0,90,false,stim,false,1,614,2,1,1,36518,task3,693631,false,false,997,image-keyboard-response,7
true,16,0,2,0,true,q,false,true,0.0-2.0-0.34-0.307-3.307,1,1,0,81,false,stim,false,0,293,2,1,0,36518,task3,695461,false,false,1000,image-keyboard-response,8
true,16,2,2,0,false,q,true,false,0.0-2.0-0.34-0.308-3.308,1,1,0,68,false,stim,false,1,1065,2,0,2,36518,task3,698052,false,false,1003,image-keyboard-response,9
true,16,0,2,0,true,q,false,true,0.0-2.0-0.34-0.309-3.309,1,1,0,81,false,stim,false,1,783,2,0,2,36518,task3,700361,false,false,1006,image-keyboard-response,10
true,16,0,2,0,true,q,false,true,0.0-2.0-0.34-0.310-3.310,1,1,0,81,false,stim,false,1,308,2,0,2,36518,task3,702191,false,false,1009,image-keyboard-response,11
true,16,1,2,1,true,z,false,true,0.0-2.0-0.34-0.311-3.311,1,1,0,90,false,stim,false,1,484,2,1,1,36518,task3,704211,false,false,1012,image-keyboard-response,12
true,16,0,2,0,true,q,false,true,0.0-2.0-0.34-0.312-3.312,1,1,0,81,false,stim,false,0,423,2,1,0,36518,task3,706170,false,false,1015,image-keyboard-response,13
true,16,1,2,1,true,z,false,true,0.0-2.0-0.34-0.313-3.313,1,1,0,90,false,stim,false,1,516,2,1,1,36518,task3,708212,false,false,1018,image-keyboard-response,14
true,16,0,2,0,true,q,false,true,0.0-2.0-0.34-0.314-3.314,1,1,0,81,false,stim,false,0,470,2,1,0,36518,task3,710198,false,false,1021,image-keyboard-response,15
true,16,1,2,1,true,z,false,true,0.0-2.0-0.35-0.315-3.315,1,1,0,90,false,stim,false,1,538,2,1,1,36518,task3,712264,false,false,1024,image-keyboard-response,16
true,16,0,2,0,true,q,false,true,0.0-2.0-0.35-0.316-3.316,1,1,0,81,false,stim,false,1,510,2,0,2,36518,task3,714286,false,false,1027,image-keyboard-response,17
true,16,0,2,0,true,q,false,true,0.0-2.0-0.35-0.317-3.317,1,1,0,81,false,stim,false,0,359,2,1,0,36518,task3,716176,false,false,1030,image-keyboard-response,18
true,16,0,2,0,true,q,false,true,0.0-2.0-0.35-0.318-3.318,1,1,0,81,false,stim,false,0,349,2,1,0,36518,task3,718067,false,false,1033,image-keyboard-response,19
true,16,1,2,1,true,z,false,true,0.0-2.0-0.35-0.319-3.319,1,1,0,90,false,stim,false,1,582,2,0,1,36518,task3,720170,false,false,1036,image-keyboard-response,20
true,16,0,2,0,true,q,false,true,0.0-2.0-0.35-0.320-3.320,1,1,0,81,false,stim,false,0,457,2,1,0,36518,task3,722147,false,false,1039,image-keyboard-response,21
true,16,1,2,1,true,z,false,true,0.0-2.0-0.35-0.321-3.321,1,1,0,90,false,stim,false,1,538,2,0,1,36518,task3,724227,false,false,1042,image-keyboard-response,22
true,16,0,2,0,true,q,false,true,0.0-2.0-0.35-0.322-3.322,1,1,0,81,false,stim,false,1,702,2,0,2,36518,task3,726459,false,false,1045,image-keyboard-response,23
true,16,0,2,0,true,q,false,true,0.0-2.0-0.35-0.323-3.323,1,1,0,81,false,stim,false,1,335,2,0,2,36518,task3,728318,false,false,1048,image-keyboard-response,24
true,17,1,1,0,false,q,false,false,0.0-2.0-0.36-0.324-3.324,1,0,0,90,true,stim,true,1,505,2,0,1,36518,task3,730342,false,false,1051,image-keyboard-response,1
true,17,0,1,1,false,z,false,false,0.0-2.0-0.36-0.325-3.325,1,0,0,81,false,stim,true,0,543,2,0,2,36518,task3,732410,false,false,1054,image-keyboard-response,2
true,17,1,1,0,false,q,false,true,0.0-2.0-0.36-0.326-3.326,1,0,0,90,false,stim,true,1,721,2,0,1,36518,task3,734651,false,true,1057,image-keyboard-response,3
true,17,0,1,1,false,z,false,false,0.0-2.0-0.36-0.327-3.327,1,0,0,81,false,stim,true,0,336,2,0,2,36518,task3,736513,false,false,1060,image-keyboard-response,4
true,17,1,1,0,false,q,false,true,0.0-2.0-0.36-0.328-3.328,1,0,0,90,false,stim,true,1,440,2,0,1,36518,task3,738467,false,true,1063,image-keyboard-response,5
true,17,0,1,0,true,q,false,true,0.0-2.0-0.36-0.329-3.329,1,0,0,81,false,stim,false,0,423,2,1,0,36518,task3,740410,false,false,1066,image-keyboard-response,6
true,17,0,1,0,true,q,false,true,0.0-2.0-0.36-0.330-3.330,1,0,0,81,false,stim,false,0,469,2,1,0,36518,task3,742400,false,false,1069,image-keyboard-response,7
true,17,2,1,1,false,z,true,true,0.0-2.0-0.36-0.331-3.331,1,0,0,68,false,stim,false,0,422,2,0,2,36518,task3,744359,false,true,1072,image-keyboard-response,8
true,17,0,1,0,true,q,false,true,0.0-2.0-0.36-0.332-3.332,1,0,0,81,false,stim,false,0,429,2,1,0,36518,task3,746321,false,false,1075,image-keyboard-response,9
true,17,0,1,0,true,q,false,true,0.0-2.0-0.37-0.333-3.333,1,0,0,81,false,stim,false,0,317,2,1,0,36518,task3,748165,false,false,1078,image-keyboard-response,10
true,17,0,1,0,true,q,false,true,0.0-2.0-0.37-0.334-3.334,1,0,0,81,false,stim,false,0,441,2,1,0,36518,task3,750129,false,false,1081,image-keyboard-response,11
true,17,2,1,1,false,z,true,false,0.0-2.0-0.37-0.335-3.335,1,0,0,68,false,stim,false,0,347,2,0,2,36518,task3,752005,false,false,1084,image-keyboard-response,12
true,17,1,1,0,false,q,false,false,0.0-2.0-0.37-0.336-3.336,1,0,0,90,false,stim,true,1,581,2,0,1,36518,task3,754108,false,false,1087,image-keyboard-response,13
true,17,2,1,1,false,z,true,true,0.0-2.0-0.37-0.337-3.337,1,0,0,68,false,stim,false,0,589,2,0,2,36518,task3,756237,false,true,1090,image-keyboard-response,14
true,17,2,1,1,false,z,true,false,0.0-2.0-0.37-0.338-3.338,1,0,0,68,false,stim,false,0,477,2,0,2,36518,task3,758244,false,false,1093,image-keyboard-response,15
true,17,2,1,0,false,q,true,true,0.0-2.0-0.37-0.339-3.339,1,0,0,68,false,stim,false,1,714,2,0,1,36518,task3,760482,false,true,1096,image-keyboard-response,16
true,17,0,1,0,true,q,false,true,0.0-2.0-0.37-0.340-3.340,1,0,0,81,false,stim,false,0,536,2,1,0,36518,task3,762544,false,false,1099,image-keyboard-response,17
true,17,2,1,0,false,q,true,false,0.0-2.0-0.37-0.341-3.341,1,0,0,68,false,stim,false,1,371,2,0,1,36518,task3,764449,false,false,1102,image-keyboard-response,18
true,17,2,1,1,false,z,true,true,0.0-2.0-0.38-0.342-3.342,1,0,0,68,false,stim,false,0,505,2,0,2,36518,task3,766481,false,true,1105,image-keyboard-response,19
true,17,2,1,1,false,z,true,false,0.0-2.0-0.38-0.343-3.343,1,0,0,68,false,stim,false,0,410,2,0,2,36518,task3,768418,false,false,1108,image-keyboard-response,20
true,17,2,1,0,false,q,true,false,0.0-2.0-0.38-0.344-3.344,1,0,0,68,false,stim,false,1,604,2,0,1,36518,task3,770540,false,false,1111,image-keyboard-response,21
true,17,2,1,0,false,q,true,false,0.0-2.0-0.38-0.345-3.345,1,0,0,68,false,stim,false,1,1031,2,0,1,36518,task3,773103,false,false,1114,image-keyboard-response,22
true,17,1,1,0,false,q,false,false,0.0-2.0-0.38-0.346-3.346,1,0,0,90,false,stim,true,1,633,2,1,1,36518,task3,775261,false,false,1117,image-keyboard-response,23
true,17,0,1,0,true,q,false,true,0.0-2.0-0.38-0.347-3.347,1,0,0,81,false,stim,false,0,421,2,1,0,36518,task3,777219,false,false,1120,image-keyboard-response,24
true,17,0,1,0,true,q,false,true,0.0-2.0-0.38-0.348-3.348,1,0,0,81,false,stim,false,0,358,2,1,0,36518,task3,779105,false,false,1123,image-keyboard-response,25
true,17,2,1,1,false,z,true,false,0.0-2.0-0.38-0.349-3.349,1,0,0,68,false,stim,false,0,645,2,0,2,36518,task3,781292,false,false,1126,image-keyboard-response,26
true,17,0,1,0,true,q,false,true,0.0-2.0-0.38-0.350-3.350,1,0,0,81,false,stim,false,0,536,2,1,0,36518,task3,783363,false,false,1129,image-keyboard-response,27
true,18,0,2,0,true,q,false,true,0.0-2.0-0.39-0.351-3.351,1,1,0,81,true,stim,false,0,306,2,1,1,36518,task3,785199,false,false,1132,image-keyboard-response,1
true,18,1,2,2,false,d,false,false,0.0-2.0-0.39-0.352-3.352,1,1,0,90,false,stim,true,1,375,2,0,2,36518,task3,787113,false,false,1135,image-keyboard-response,2
true,18,0,2,0,true,q,false,true,0.0-2.0-0.39-0.353-3.353,1,1,0,81,false,stim,false,0,512,2,1,0,36518,task3,789160,false,false,1138,image-keyboard-response,3
true,18,1,2,2,false,d,false,false,0.0-2.0-0.39-0.354-3.354,1,1,0,90,false,stim,true,1,454,2,0,2,36518,task3,791142,false,false,1141,image-keyboard-response,4
true,18,0,2,0,true,q,false,false,0.0-2.0-0.39-0.355-3.355,1,1,0,81,false,stim,false,0,454,2,1,0,36518,task3,793121,false,true,1144,image-keyboard-response,5
true,18,0,2,0,true,q,false,true,0.0-2.0-0.39-0.356-3.356,1,1,0,81,false,stim,false,0,362,2,1,0,36518,task3,795019,false,false,1147,image-keyboard-response,6
true,18,0,2,0,true,q,false,true,0.0-2.0-0.39-0.357-3.357,1,1,0,81,false,stim,false,0,474,2,1,1,36518,task3,797033,false,false,1150,image-keyboard-response,7
true,18,0,2,2,false,d,true,false,0.0-2.0-0.39-0.358-3.358,1,1,0,81,false,stim,false,1,537,2,0,2,36518,task3,799095,false,false,1153,image-keyboard-response,8
true,18,0,2,0,true,q,false,true,0.0-2.0-0.39-0.359-3.359,1,1,0,81,false,stim,false,0,392,2,1,1,36518,task3,801020,false,false,1156,image-keyboard-response,9
true,18,0,2,0,true,q,false,true,0.0-2.0-0.40-0.360-3.360,1,1,0,81,false,stim,false,0,370,2,1,0,36518,task3,802917,false,false,1159,image-keyboard-response,10
true,18,0,2,0,true,q,false,true,0.0-2.0-0.40-0.361-3.361,1,1,0,81,false,stim,false,0,323,2,1,0,36518,task3,804766,false,false,1162,image-keyboard-response,11
true,18,0,2,2,false,d,true,false,0.0-2.0-0.40-0.362-3.362,1,1,0,81,false,stim,false,1,597,2,0,2,36518,task3,806894,false,false,1165,image-keyboard-response,12
true,18,0,2,0,true,q,false,false,0.0-2.0-0.40-0.363-3.363,1,1,0,81,false,stim,false,0,372,2,1,1,36518,task3,808788,false,true,1168,image-keyboard-response,13
true,18,0,2,0,true,q,false,true,0.0-2.0-0.40-0.364-3.364,1,1,0,81,false,stim,false,0,582,2,1,1,36518,task3,810910,false,false,1171,image-keyboard-response,14
true,18,2,2,2,true,d,false,true,0.0-2.0-0.40-0.365-3.365,1,1,0,68,false,stim,false,1,406,2,0,2,36518,task3,812824,false,false,1174,image-keyboard-response,15
true,18,2,2,2,true,d,false,true,0.0-2.0-0.40-0.366-3.366,1,1,0,68,false,stim,false,1,371,2,0,2,36518,task3,814730,false,false,1177,image-keyboard-response,16
true,18,0,2,0,true,q,false,false,0.0-2.0-0.40-0.367-3.367,1,1,0,81,false,stim,false,0,725,2,1,1,36518,task3,816982,false,true,1180,image-keyboard-response,17
true,18,0,2,0,true,q,false,true,0.0-2.0-0.40-0.368-3.368,1,1,0,81,false,stim,false,0,412,2,1,0,36518,task3,818920,false,false,1183,image-keyboard-response,18
true,18,0,2,0,true,q,false,false,0.0-2.0-0.41-0.369-3.369,1,1,0,81,false,stim,false,0,329,2,0,0,36518,task3,820787,false,true,1186,image-keyboard-response,19
true,18,2,2,2,true,d,false,true,0.0-2.0-0.41-0.370-3.370,1,1,0,68,false,stim,false,1,335,2,0,2,36518,task3,822653,false,false,1189,image-keyboard-response,20
true,18,0,2,0,true,q,false,true,0.0-2.0-0.41-0.371-3.371,1,1,0,81,false,stim,false,0,478,2,0,0,36518,task3,824654,false,false,1192,image-keyboard-response,21
true,18,0,2,0,true,q,false,true,0.0-2.0-0.41-0.372-3.372,1,1,0,81,false,stim,false,0,497,2,0,0,36518,task3,826685,false,false,1195,image-keyboard-response,22
true,18,0,2,0,true,q,false,true,0.0-2.0-0.41-0.373-3.373,1,1,0,81,false,stim,false,0,370,2,1,1,36518,task3,828598,false,false,1198,image-keyboard-response,23
true,19,2,1,0,false,q,false,false,0.0-2.0-0.41-0.374-3.374,0,1,0,68,true,stim,true,2,517,2,0,2,36518,task3,830660,false,false,1201,image-keyboard-response,1
true,19,0,1,0,true,q,false,true,0.0-2.0-0.41-0.375-3.375,0,1,0,81,false,stim,false,0,434,2,1,1,36518,task3,832632,false,false,1204,image-keyboard-response,2
true,19,0,1,0,true,q,false,true,0.0-2.0-0.41-0.376-3.376,0,1,0,81,false,stim,false,0,441,2,1,1,36518,task3,834589,false,false,1207,image-keyboard-response,3
true,19,2,1,0,false,q,false,false,0.0-2.0-0.41-0.377-3.377,0,1,0,68,false,stim,true,2,650,2,0,2,36518,task3,836778,false,false,1210,image-keyboard-response,4
true,19,0,1,0,true,q,false,false,0.0-2.0-0.42-0.378-3.378,0,1,0,81,false,stim,false,0,545,2,1,1,36518,task3,838847,false,true,1213,image-keyboard-response,5
true,19,1,1,0,false,q,true,false,0.0-2.0-0.42-0.379-3.379,0,1,0,90,false,stim,false,2,1108,2,0,2,36518,task3,841487,false,false,1216,image-keyboard-response,6
true,19,0,1,2,false,d,false,false,0.0-2.0-0.42-0.380-3.380,0,1,0,81,false,stim,true,0,551,2,0,0,36518,task3,843578,false,false,1219,image-keyboard-response,7
true,19,0,1,2,false,d,false,false,0.0-2.0-0.42-0.381-3.381,0,1,0,81,false,stim,true,0,301,2,0,0,36518,task3,845409,false,false,1222,image-keyboard-response,8
true,19,1,1,0,false,q,true,false,0.0-2.0-0.42-0.382-3.382,0,1,0,90,false,stim,false,0,1293,2,1,1,36518,task3,848236,false,false,1225,image-keyboard-response,9
true,19,0,1,0,true,q,false,true,0.0-2.0-0.42-0.383-3.383,0,1,0,81,false,stim,false,2,977,2,0,2,36518,task3,850755,false,false,1228,image-keyboard-response,10
true,19,2,1,2,true,d,false,true,0.0-2.0-0.42-0.384-3.384,0,1,0,68,false,stim,false,0,967,2,0,0,36518,task3,853254,false,false,1231,image-keyboard-response,11
true,19,2,1,0,false,q,true,false,0.0-2.0-0.42-0.385-3.385,0,1,0,68,false,stim,false,0,806,2,1,1,36518,task3,855594,false,false,1234,image-keyboard-response,12
true,19,0,1,0,true,q,false,true,0.0-2.0-0.42-0.386-3.386,0,1,0,81,false,stim,false,2,562,2,0,2,36518,task3,857679,false,false,1237,image-keyboard-response,13
true,19,1,1,0,false,q,true,false,0.0-2.0-0.43-0.387-3.387,0,1,0,90,false,stim,false,0,596,2,1,1,36518,task3,859815,false,false,1240,image-keyboard-response,14
true,19,0,1,2,false,d,false,false,0.0-2.0-0.43-0.388-3.388,0,1,0,81,false,stim,true,0,424,2,0,0,36518,task3,861783,false,false,1243,image-keyboard-response,15
true,19,2,1,2,true,d,false,true,0.0-2.0-0.43-0.389-3.389,0,1,0,68,false,stim,false,0,505,2,0,0,36518,task3,863812,false,false,1246,image-keyboard-response,16
true,19,2,1,2,true,d,false,true,0.0-2.0-0.43-0.390-3.390,0,1,0,68,false,stim,false,0,309,2,0,0,36518,task3,865647,false,false,1249,image-keyboard-response,17
true,19,0,1,0,true,q,false,true,0.0-2.0-0.43-0.391-3.391,0,1,0,81,false,stim,false,2,886,2,1,2,36518,task3,868054,false,false,1252,image-keyboard-response,18
true,19,0,1,0,true,q,false,true,0.0-2.0-0.43-0.392-3.392,0,1,0,81,false,stim,false,2,428,2,1,2,36518,task3,870006,false,false,1255,image-keyboard-response,19
true,19,0,1,0,true,q,false,true,0.0-2.0-0.43-0.393-3.393,0,1,0,81,false,stim,false,0,727,2,1,1,36518,task3,872265,false,false,1258,image-keyboard-response,20
true,19,0,1,0,true,q,false,true,0.0-2.0-0.43-0.394-3.394,0,1,0,81,false,stim,false,0,317,2,1,1,36518,task3,874104,false,false,1261,image-keyboard-response,21
true,19,0,1,0,true,q,false,true,0.0-2.0-0.43-0.395-3.395,0,1,0,81,false,stim,false,2,439,2,1,2,36518,task3,876067,false,false,1264,image-keyboard-response,22
true,20,2,2,1,false,z,false,true,0.0-2.0-0.44-0.396-3.396,0,1,1,68,true,stim,true,2,355,2,0,0,36518,task3,877962,false,true,1267,image-keyboard-response,1
true,20,0,2,0,true,q,false,true,0.0-2.0-0.44-0.397-3.397,0,1,1,81,false,stim,false,0,389,2,1,2,36518,task3,879887,false,false,1270,image-keyboard-response,2
true,20,0,2,0,true,q,false,false,0.0-2.0-0.44-0.398-3.398,0,1,1,81,false,stim,false,0,367,2,1,2,36518,task3,881765,false,true,1273,image-keyboard-response,3
true,20,0,2,0,true,q,false,true,0.0-2.0-0.44-0.399-3.399,0,1,1,81,false,stim,false,0,510,2,1,1,36518,task3,883808,false,false,1276,image-keyboard-response,4
true,20,0,2,0,true,q,false,true,0.0-2.0-0.44-0.400-3.400,0,1,1,81,false,stim,false,0,508,2,1,2,36518,task3,885845,false,false,1279,image-keyboard-response,5
true,20,0,2,1,false,z,true,false,0.0-2.0-0.44-0.401-3.401,0,1,1,81,false,stim,false,2,409,2,1,0,36518,task3,887777,false,false,1282,image-keyboard-response,6
true,20,2,2,1,false,z,false,false,0.0-2.0-0.44-0.402-3.402,0,1,1,68,false,stim,true,2,351,2,1,0,36518,task3,889659,false,false,1285,image-keyboard-response,7
true,20,0,2,0,true,q,false,true,0.0-2.0-0.44-0.403-3.403,0,1,1,81,false,stim,false,0,469,2,1,1,36518,task3,891667,false,false,1288,image-keyboard-response,8
true,20,0,2,0,true,q,false,true,0.0-2.0-0.44-0.404-3.404,0,1,1,81,false,stim,false,0,404,2,1,1,36518,task3,893592,false,false,1291,image-keyboard-response,9
true,20,2,2,1,false,z,false,false,0.0-2.0-0.45-0.405-3.405,0,1,1,68,false,stim,true,2,491,2,1,0,36518,task3,895620,false,false,1294,image-keyboard-response,10
true,21,0,2,2,false,d,false,false,0.0-2.0-0.45-0.406-3.406,1,1,0,81,true,stim,true,0,406,2,0,2,36518,task3,897555,false,false,1297,image-keyboard-response,1
true,21,1,2,1,true,z,false,true,0.0-2.0-0.45-0.407-3.407,1,1,0,90,false,stim,false,1,309,2,1,0,36518,task3,899387,false,false,1300,image-keyboard-response,2
true,21,0,2,0,true,q,false,false,0.0-2.0-0.45-0.408-3.408,1,1,0,81,false,stim,false,0,433,2,1,1,36518,task3,901359,false,true,1303,image-keyboard-response,3
true,21,0,2,2,false,d,false,false,0.0-2.0-0.45-0.409-3.409,1,1,0,81,false,stim,true,0,589,2,0,2,36518,task3,903474,false,false,1306,image-keyboard-response,4
true,21,2,2,2,true,d,false,true,0.0-2.0-0.45-0.410-3.410,1,1,0,68,false,stim,false,0,1898,2,0,2,36518,task3,906905,false,false,1309,image-keyboard-response,5
true,21,1,2,0,false,q,true,false,0.0-2.0-0.45-0.411-3.411,1,1,0,90,false,stim,false,0,485,2,1,1,36518,task3,908923,false,false,1312,image-keyboard-response,6
true,21,1,2,1,true,z,false,true,0.0-2.0-0.45-0.412-3.412,1,1,0,90,false,stim,false,1,403,2,1,0,36518,task3,910862,false,false,1315,image-keyboard-response,7
true,21,2,2,0,false,q,true,false,0.0-2.0-0.45-0.413-3.413,1,1,0,68,false,stim,false,0,1521,2,1,1,36518,task3,913909,false,false,1318,image-keyboard-response,8
true,21,1,2,1,true,z,false,true,0.0-2.0-0.46-0.414-3.414,1,1,0,90,false,stim,false,1,615,2,1,0,36518,task3,916064,false,false,1321,image-keyboard-response,9
true,21,0,2,0,true,q,false,true,0.0-2.0-0.46-0.415-3.415,1,1,0,81,false,stim,false,0,930,2,1,1,36518,task3,918528,false,false,1324,image-keyboard-response,10
true,21,2,2,2,true,d,false,true,0.0-2.0-0.46-0.416-3.416,1,1,0,68,false,stim,false,0,603,2,0,2,36518,task3,920669,false,false,1327,image-keyboard-response,11
true,21,1,2,1,true,z,false,true,0.0-2.0-0.46-0.417-3.417,1,1,0,90,false,stim,false,1,582,2,1,0,36518,task3,922790,false,false,1330,image-keyboard-response,12
true,21,2,2,2,true,d,false,true,0.0-2.0-0.46-0.418-3.418,1,1,0,68,false,stim,false,0,1186,2,0,2,36518,task3,925504,false,false,1333,image-keyboard-response,13
true,21,0,2,0,true,q,false,true,0.0-2.0-0.46-0.419-3.419,1,1,0,81,false,stim,false,0,465,2,1,1,36518,task3,927503,false,false,1336,image-keyboard-response,14
true,21,0,2,0,true,q,false,true,0.0-2.0-0.46-0.420-3.420,1,1,0,81,false,stim,false,0,371,2,1,1,36518,task3,929399,false,false,1339,image-keyboard-response,15
true,21,2,2,2,true,d,false,true,0.0-2.0-0.46-0.421-3.421,1,1,0,68,false,stim,false,0,617,2,0,2,36518,task3,931543,false,false,1342,image-keyboard-response,16
true,21,1,2,1,true,z,false,true,0.0-2.0-0.46-0.422-3.422,1,1,0,90,false,stim,false,1,461,2,1,0,36518,task3,933540,false,false,1345,image-keyboard-response,17
true,21,1,2,1,true,z,false,true,0.0-2.0-0.47-0.423-3.423,1,1,0,90,false,stim,false,1,345,2,1,0,36518,task3,935421,false,false,1348,image-keyboard-response,18
true,21,2,2,2,true,d,false,true,0.0-2.0-0.47-0.424-3.424,1,1,0,68,false,stim,false,0,522,2,0,2,36518,task3,937468,false,false,1351,image-keyboard-response,19
true,21,1,2,1,true,z,false,true,0.0-2.0-0.47-0.425-3.425,1,1,0,90,false,stim,false,1,520,2,1,0,36518,task3,939518,false,false,1354,image-keyboard-response,20
true,21,0,2,0,true,q,false,true,0.0-2.0-0.47-0.426-3.426,1,1,0,81,false,stim,false,0,431,2,0,1,36518,task3,941490,false,false,1357,image-keyboard-response,21
true,21,2,2,2,true,d,false,true,0.0-2.0-0.47-0.427-3.427,1,1,0,68,false,stim,false,0,633,2,0,2,36518,task3,943651,false,false,1360,image-keyboard-response,22
true,22,0,1,2,false,d,false,false,0.0-2.0-0.47-0.428-3.428,1,0,0,81,true,stim,true,0,881,2,0,1,36518,task3,946069,false,false,1363,image-keyboard-response,1
true,22,0,1,2,false,d,false,false,0.0-2.0-0.47-0.429-3.429,1,0,0,81,false,stim,true,0,417,2,0,1,36518,task3,948014,false,false,1366,image-keyboard-response,2
true,22,2,1,0,false,q,false,false,0.0-2.0-0.47-0.430-3.430,1,0,0,68,false,stim,true,2,701,2,0,2,36518,task3,950239,false,false,1369,image-keyboard-response,3
true,22,1,1,1,true,z,false,true,0.0-2.0-0.47-0.431-3.431,1,0,0,90,false,stim,false,1,471,2,1,0,36518,task3,952249,false,false,1372,image-keyboard-response,4
true,22,2,1,0,false,q,false,false,0.0-2.0-0.48-0.432-3.432,1,0,0,68,false,stim,true,2,1149,2,0,2,36518,task3,954929,false,false,1375,image-keyboard-response,5
true,22,1,1,2,false,d,true,false,0.0-2.0-0.48-0.433-3.433,1,0,0,90,false,stim,false,0,678,2,0,1,36518,task3,957126,false,false,1378,image-keyboard-response,6
true,22,2,1,2,true,d,false,true,0.0-2.0-0.48-0.434-3.434,1,0,0,68,false,stim,false,0,595,2,0,1,36518,task3,959242,false,false,1381,image-keyboard-response,7
true,22,1,1,1,true,z,false,true,0.0-2.0-0.48-0.435-3.435,1,0,0,90,false,stim,false,1,631,2,1,0,36518,task3,961409,false,false,1384,image-keyboard-response,8
true,22,1,1,1,true,z,false,true,0.0-2.0-0.48-0.436-3.436,1,0,0,90,false,stim,false,1,352,2,1,0,36518,task3,963279,false,false,1387,image-keyboard-response,9
true,22,1,1,1,true,z,false,true,0.0-2.0-0.48-0.437-3.437,1,0,0,90,false,stim,false,1,298,2,1,0,36518,task3,965106,false,false,1390,image-keyboard-response,10
true,22,1,1,0,false,q,true,false,0.0-2.0-0.48-0.438-3.438,1,0,0,90,false,stim,false,2,522,2,0,2,36518,task3,967169,false,false,1393,image-keyboard-response,11
true,22,0,1,0,true,q,false,true,0.0-2.0-0.48-0.439-3.439,1,0,0,81,false,stim,false,2,664,2,0,2,36518,task3,969362,false,false,1396,image-keyboard-response,12
true,22,2,1,2,true,d,false,true,0.0-2.0-0.48-0.440-3.440,1,0,0,68,false,stim,false,0,443,2,0,1,36518,task3,971341,false,false,1399,image-keyboard-response,13
true,22,0,1,0,true,q,false,true,0.0-2.0-0.49-0.441-3.441,1,0,0,81,false,stim,false,2,454,2,0,2,36518,task3,973322,false,false,1402,image-keyboard-response,14
true,22,2,1,2,true,d,false,true,0.0-2.0-0.49-0.442-3.442,1,0,0,68,false,stim,false,0,383,2,0,1,36518,task3,975232,false,false,1405,image-keyboard-response,15
true,22,2,1,2,true,d,false,true,0.0-2.0-0.49-0.443-3.443,1,0,0,68,false,stim,false,0,543,2,0,1,36518,task3,977301,false,false,1408,image-keyboard-response,16
true,22,1,1,1,true,z,false,true,0.0-2.0-0.49-0.444-3.444,1,0,0,90,false,stim,false,1,374,2,1,0,36518,task3,979213,false,false,1411,image-keyboard-response,17
true,22,2,1,2,true,d,false,true,0.0-2.0-0.49-0.445-3.445,1,0,0,68,false,stim,false,0,545,2,0,1,36518,task3,981283,false,false,1414,image-keyboard-response,18
true,22,1,1,1,true,z,false,true,0.0-2.0-0.49-0.446-3.446,1,0,0,90,false,stim,false,1,525,2,1,0,36518,task3,983324,false,false,1417,image-keyboard-response,19
true,22,1,1,1,true,z,false,true,0.0-2.0-0.49-0.447-3.447,1,0,0,90,false,stim,false,1,317,2,1,0,36518,task3,985165,false,false,1420,image-keyboard-response,20
true,22,0,1,0,true,q,false,true,0.0-2.0-0.49-0.448-3.448,1,0,0,81,false,stim,false,2,629,2,0,2,36518,task3,987326,false,false,1423,image-keyboard-response,21
true,22,0,1,0,true,q,false,true,0.0-2.0-0.49-0.449-3.449,1,0,0,81,false,stim,false,2,342,2,0,2,36518,task3,989180,false,false,1426,image-keyboard-response,22
true,22,1,1,1,true,z,false,true,0.0-2.0-0.50-0.450-3.450,1,0,0,90,false,stim,false,1,609,2,1,0,36518,task3,991327,false,false,1429,image-keyboard-response,23
true,22,2,1,2,true,d,false,true,0.0-2.0-0.50-0.451-3.451,1,0,0,68,false,stim,false,0,451,2,1,1,36518,task3,993299,false,false,1432,image-keyboard-response,24
true,22,1,1,1,true,z,false,true,0.0-2.0-0.50-0.452-3.452,1,0,0,90,false,stim,false,1,509,2,0,0,36518,task3,995338,false,false,1435,image-keyboard-response,25
true,22,0,1,0,true,q,false,true,0.0-2.0-0.50-0.453-3.453,1,0,0,81,false,stim,false,2,576,2,0,2,36518,task3,997446,false,false,1438,image-keyboard-response,26
true,22,0,1,0,true,q,false,true,0.0-2.0-0.50-0.454-3.454,1,0,0,81,false,stim,false,2,653,2,0,2,36518,task3,999615,false,false,1441,image-keyboard-response,27
true,22,0,1,0,true,q,false,false,0.0-2.0-0.50-0.455-3.455,1,0,0,81,false,stim,false,2,578,2,0,2,36518,task3,1001716,false,true,1444,image-keyboard-response,28
true,23,2,1,2,true,d,false,true,0.0-2.0-0.50-0.456-3.456,0,1,0,68,true,stim,false,2,540,2,1,1,36518,task3,1003788,false,false,1447,image-keyboard-response,1
true,23,2,1,2,true,d,false,true,0.0-2.0-0.50-0.457-3.457,0,1,0,68,false,stim,false,2,996,2,1,1,36518,task3,1006323,false,false,1450,image-keyboard-response,2
true,23,1,1,2,false,d,false,false,0.0-2.0-0.50-0.458-3.458,0,1,0,90,false,stim,true,1,472,2,0,0,36518,task3,1008330,false,false,1453,image-keyboard-response,3
true,23,2,1,2,true,d,false,true,0.0-2.0-0.51-0.459-3.459,0,1,0,68,false,stim,false,2,563,2,1,1,36518,task3,1010412,false,false,1456,image-keyboard-response,4
true,23,1,1,2,false,d,false,false,0.0-2.0-0.51-0.460-3.460,0,1,0,90,false,stim,true,1,860,2,0,0,36518,task3,1012794,false,false,1459,image-keyboard-response,5
true,23,2,1,2,true,d,false,true,0.0-2.0-0.51-0.461-3.461,0,1,0,68,false,stim,false,2,569,2,1,1,36518,task3,1014896,false,false,1462,image-keyboard-response,6
true,23,0,1,1,false,z,false,false,0.0-2.0-0.51-0.462-3.462,0,1,0,81,false,stim,true,0,676,2,0,2,36518,task3,1017104,false,false,1465,image-keyboard-response,7
true,23,2,1,2,true,d,false,true,0.0-2.0-0.51-0.463-3.463,0,1,0,68,false,stim,false,1,1730,2,0,0,36518,task3,1020368,false,false,1468,image-keyboard-response,8
true,23,2,1,2,true,d,false,true,0.0-2.0-0.51-0.464-3.464,0,1,0,68,false,stim,false,1,404,2,0,0,36518,task3,1022291,false,false,1471,image-keyboard-response,9
true,23,1,1,1,true,z,false,true,0.0-2.0-0.51-0.465-3.465,0,1,0,90,false,stim,false,0,414,2,0,2,36518,task3,1024229,false,false,1474,image-keyboard-response,10
true,23,2,1,2,true,d,false,true,0.0-2.0-0.51-0.466-3.466,0,1,0,68,false,stim,false,2,527,2,1,1,36518,task3,1026285,false,false,1477,image-keyboard-response,11
true,23,1,1,1,true,z,false,false,0.0-2.0-0.51-0.467-3.467,0,1,0,90,false,stim,false,0,715,2,0,2,36518,task3,1028532,false,true,1480,image-keyboard-response,12
true,23,2,1,2,true,d,false,true,0.0-2.0-0.52-0.468-3.468,0,1,0,68,false,stim,false,2,448,2,1,1,36518,task3,1030507,false,false,1483,image-keyboard-response,13
true,23,2,1,2,true,d,false,true,0.0-2.0-0.52-0.469-3.469,0,1,0,68,false,stim,false,2,394,2,1,1,36518,task3,1032431,false,false,1486,image-keyboard-response,14
true,23,1,1,1,true,z,false,true,0.0-2.0-0.52-0.470-3.470,0,1,0,90,false,stim,false,0,436,2,0,2,36518,task3,1034404,false,false,1489,image-keyboard-response,15
true,23,1,1,1,true,z,false,true,0.0-2.0-0.52-0.471-3.471,0,1,0,90,false,stim,false,0,473,2,0,2,36518,task3,1036390,false,false,1492,image-keyboard-response,16
true,23,1,1,1,true,z,false,true,0.0-2.0-0.52-0.472-3.472,0,1,0,90,false,stim,false,0,424,2,0,2,36518,task3,1038344,false,false,1495,image-keyboard-response,17
true,23,2,1,2,true,d,false,true,0.0-2.0-0.52-0.473-3.473,0,1,0,68,false,stim,false,1,544,2,0,0,36518,task3,1040402,false,false,1498,image-keyboard-response,18
true,23,2,1,2,true,d,false,true,0.0-2.0-0.52-0.474-3.474,0,1,0,68,false,stim,false,1,312,2,0,0,36518,task3,1042240,false,false,1501,image-keyboard-response,19
true,23,2,1,2,true,d,false,true,0.0-2.0-0.52-0.475-3.475,0,1,0,68,false,stim,false,2,589,2,0,1,36518,task3,1044356,false,false,1504,image-keyboard-response,20
true,23,1,1,2,false,d,false,false,0.0-2.0-0.52-0.476-3.476,0,1,0,90,false,stim,true,1,403,2,1,0,36518,task3,1046302,false,false,1507,image-keyboard-response,21
true,23,2,1,2,true,d,false,true,0.0-2.0-0.53-0.477-3.477,0,1,0,68,false,stim,false,1,476,2,1,0,36518,task3,1048314,false,false,1510,image-keyboard-response,22
true,23,2,1,2,true,d,false,true,0.0-2.0-0.53-0.478-3.478,0,1,0,68,false,stim,false,2,529,2,0,1,36518,task3,1050357,false,false,1513,image-keyboard-response,23
true,23,2,1,2,true,d,false,true,0.0-2.0-0.53-0.479-3.479,0,1,0,68,false,stim,false,2,355,2,0,1,36518,task3,1052243,false,false,1516,image-keyboard-response,24
true,24,2,1,2,true,d,false,true,0.0-2.0-0.53-0.480-3.480,1,0,0,68,true,stim,false,2,587,2,1,0,36518,task3,1054355,false,false,1519,image-keyboard-response,1
true,24,1,1,2,false,d,false,false,0.0-2.0-0.53-0.481-3.481,1,0,0,90,false,stim,true,1,531,2,0,2,36518,task3,1056427,false,false,1522,image-keyboard-response,2
true,24,2,1,2,true,d,false,true,0.0-2.0-0.53-0.482-3.482,1,0,0,68,false,stim,false,2,447,2,1,0,36518,task3,1058394,false,false,1525,image-keyboard-response,3
true,24,1,1,2,false,d,false,false,0.0-2.0-0.53-0.483-3.483,1,0,0,90,false,stim,true,1,576,2,0,2,36518,task3,1060500,false,false,1528,image-keyboard-response,4
true,24,0,1,2,false,d,true,true,0.0-2.0-0.53-0.484-3.484,1,0,0,81,false,stim,false,1,406,2,0,2,36518,task3,1062433,false,true,1531,image-keyboard-response,5
true,24,2,1,0,false,q,false,false,0.0-2.0-0.53-0.485-3.485,1,0,0,68,false,stim,true,2,410,2,0,1,36518,task3,1064359,false,false,1534,image-keyboard-response,6
true,24,2,1,0,false,q,false,false,0.0-2.0-0.54-0.486-3.486,1,0,0,68,false,stim,true,2,531,2,0,1,36518,task3,1066419,false,false,1537,image-keyboard-response,7
true,24,0,1,2,false,d,true,true,0.0-2.0-0.54-0.487-3.487,1,0,0,81,false,stim,false,1,496,2,0,2,36518,task3,1068454,false,true,1540,image-keyboard-response,8
true,24,2,1,2,true,d,false,true,0.0-2.0-0.54-0.488-3.488,1,0,0,68,false,stim,false,2,593,2,1,0,36518,task3,1070569,false,false,1543,image-keyboard-response,9
true,24,0,1,2,false,d,true,false,0.0-2.0-0.54-0.489-3.489,1,0,0,81,false,stim,false,1,922,2,0,2,36518,task3,1073021,false,false,1546,image-keyboard-response,10
true,24,0,1,0,true,q,false,true,0.0-2.0-0.54-0.490-3.490,1,0,0,81,false,stim,false,2,383,2,0,1,36518,task3,1074922,false,false,1549,image-keyboard-response,11
true,24,2,1,2,true,d,false,true,0.0-2.0-0.54-0.491-3.491,1,0,0,68,false,stim,false,2,537,2,1,0,36518,task3,1076995,false,false,1552,image-keyboard-response,12
true,24,0,1,0,true,q,false,true,0.0-2.0-0.54-0.492-3.492,1,0,0,81,false,stim,false,2,698,2,0,1,36518,task3,1079226,false,false,1555,image-keyboard-response,13
true,24,1,1,2,false,d,false,false,0.0-2.0-0.54-0.493-3.493,1,0,0,90,false,stim,true,1,597,2,0,2,36518,task3,1081346,false,false,1558,image-keyboard-response,14
true,24,2,1,2,true,d,false,true,0.0-2.0-0.54-0.494-3.494,1,0,0,68,false,stim,false,2,691,2,1,0,36518,task3,1083548,false,false,1561,image-keyboard-response,15
true,24,0,1,0,true,q,false,true,0.0-2.0-0.55-0.495-3.495,1,0,0,81,false,stim,false,2,578,2,0,1,36518,task3,1085657,false,false,1564,image-keyboard-response,16
true,24,0,1,2,false,d,true,false,0.0-2.0-0.55-0.496-3.496,1,0,0,81,false,stim,false,1,351,2,0,2,36518,task3,1087539,false,false,1567,image-keyboard-response,17
true,24,0,1,2,false,d,true,false,0.0-2.0-0.55-0.497-3.497,1,0,0,81,false,stim,false,1,376,2,0,2,36518,task3,1089443,false,false,1570,image-keyboard-response,18
true,24,2,1,2,true,d,false,true,0.0-2.0-0.55-0.498-3.498,1,0,0,68,false,stim,false,2,556,2,1,0,36518,task3,1091512,false,false,1573,image-keyboard-response,19
true,24,2,1,2,true,d,false,true,0.0-2.0-0.55-0.499-3.499,1,0,0,68,false,stim,false,2,437,2,1,0,36518,task3,1093476,false,false,1576,image-keyboard-response,20
true,24,2,1,2,true,d,false,false,0.0-2.0-0.55-0.500-3.500,1,0,0,68,false,stim,false,2,357,2,1,0,36518,task3,1095375,false,true,1579,image-keyboard-response,21
true,24,2,1,2,true,d,false,true,0.0-2.0-0.55-0.501-3.501,1,0,0,68,false,stim,false,1,893,2,0,2,36518,task3,1097800,false,false,1582,image-keyboard-response,22
true,24,0,1,0,true,q,false,true,0.0-2.0-0.55-0.502-3.502,1,0,0,81,false,stim,false,2,525,2,0,1,36518,task3,1099863,false,false,1585,image-keyboard-response,23
true,24,0,1,0,true,q,false,true,0.0-2.0-0.55-0.503-3.503,1,0,0,81,false,stim,false,2,351,2,0,1,36518,task3,1101748,false,false,1588,image-keyboard-response,24
true,24,2,1,2,true,d,false,true,0.0-2.0-0.56-0.504-3.504,1,0,0,68,false,stim,false,1,935,2,1,2,36518,task3,1104216,false,false,1591,image-keyboard-response,25
true,24,0,1,0,true,q,false,true,0.0-2.0-0.56-0.505-3.505,1,0,0,81,false,stim,false,2,535,2,0,1,36518,task3,1106283,false,false,1594,image-keyboard-response,26
true,24,2,1,2,true,d,false,true,0.0-2.0-0.56-0.506-3.506,1,0,0,68,false,stim,false,1,762,2,1,2,36518,task3,1108561,false,false,1597,image-keyboard-response,27
true,24,2,1,2,true,d,false,true,0.0-2.0-0.56-0.507-3.507,1,0,0,68,false,stim,false,2,538,2,0,0,36518,task3,1110637,false,false,1600,image-keyboard-response,28
true,25,0,1,1,false,z,false,false,0.0-2.0-0.56-0.508-3.508,0,0,1,81,true,stim,true,0,512,2,0,1,36518,task3,1112680,false,false,1603,image-keyboard-response,1
true,25,2,1,2,true,d,false,true,0.0-2.0-0.56-0.509-3.509,0,0,1,68,false,stim,false,2,749,2,1,2,36518,task3,1114956,false,false,1606,image-keyboard-response,2
true,25,2,1,1,false,z,false,false,0.0-2.0-0.56-0.510-3.510,0,0,1,68,false,stim,true,2,920,2,0,0,36518,task3,1117399,false,false,1609,image-keyboard-response,3
true,25,0,1,1,false,z,false,false,0.0-2.0-0.56-0.511-3.511,0,0,1,81,false,stim,true,0,720,2,0,1,36518,task3,1119657,false,false,1612,image-keyboard-response,4
true,25,2,1,1,false,z,false,false,0.0-2.0-0.56-0.512-3.512,0,0,1,68,false,stim,true,2,710,2,0,0,36518,task3,1121909,false,false,1615,image-keyboard-response,5
true,25,2,1,2,true,d,false,true,0.0-2.0-0.57-0.513-3.513,0,0,1,68,false,stim,false,2,653,2,1,2,36518,task3,1124088,false,false,1618,image-keyboard-response,6
true,25,2,1,2,true,d,false,true,0.0-2.0-0.57-0.514-3.514,0,0,1,68,false,stim,false,2,549,2,1,2,36518,task3,1126177,false,false,1621,image-keyboard-response,7
true,25,0,1,1,false,z,true,true,0.0-2.0-0.57-0.515-3.515,0,0,1,81,false,stim,false,2,970,2,1,0,36518,task3,1128688,false,true,1624,image-keyboard-response,8
true,25,2,1,1,false,z,true,false,0.0-2.0-0.57-0.516-3.516,0,0,1,68,false,stim,false,0,1609,2,1,1,36518,task3,1131826,false,false,1627,image-keyboard-response,9
true,25,0,1,1,false,z,true,false,0.0-2.0-0.57-0.517-3.517,0,0,1,81,false,stim,false,2,502,2,1,0,36518,task3,1133871,false,false,1630,image-keyboard-response,10
true,26,0,0,2,false,d,true,false,0.0-2.0-0.57-0.518-3.518,1,1,1,81,true,stim,false,2,1030,2,1,2,36518,task3,1162809,false,false,1659,image-keyboard-response,1
true,26,0,0,1,false,z,true,true,0.0-2.0-0.57-0.519-3.519,1,1,1,81,false,stim,false,1,670,2,1,1,36518,task3,1165009,false,true,1662,image-keyboard-response,2
true,26,0,0,1,false,z,true,false,0.0-2.0-0.57-0.520-3.520,1,1,1,81,false,stim,false,1,657,2,1,0,36518,task3,1167196,false,false,1665,image-keyboard-response,3
true,26,0,0,1,false,z,true,false,0.0-2.0-0.57-0.521-3.521,1,1,1,81,false,stim,false,1,318,2,1,1,36518,task3,1169035,false,false,1668,image-keyboard-response,4
true,26,1,0,2,false,d,true,false,0.0-2.0-0.58-0.522-3.522,1,1,1,90,false,stim,false,2,597,2,1,2,36518,task3,1171155,false,false,1671,image-keyboard-response,5
true,26,1,0,1,true,z,false,true,0.0-2.0-0.58-0.523-3.523,1,1,1,90,false,stim,false,1,508,2,0,0,36518,task3,1173207,false,false,1674,image-keyboard-response,6
true,26,1,0,1,true,z,false,true,0.0-2.0-0.58-0.524-3.524,1,1,1,90,false,stim,false,1,366,2,0,0,36518,task3,1175106,false,false,1677,image-keyboard-response,7
true,26,1,0,1,true,z,false,true,0.0-2.0-0.58-0.525-3.525,1,1,1,90,false,stim,false,1,348,2,0,0,36518,task3,1176997,false,false,1680,image-keyboard-response,8
true,26,0,0,1,false,z,true,false,0.0-2.0-0.58-0.526-3.526,1,1,1,81,false,stim,false,1,501,2,1,1,36518,task3,1179029,false,false,1683,image-keyboard-response,9
true,26,0,0,2,false,d,true,false,0.0-2.0-0.58-0.527-3.527,1,1,1,81,false,stim,false,2,1460,2,1,2,36518,task3,1182007,false,false,1686,image-keyboard-response,10
true,27,2,2,2,true,d,false,true,0.0-2.0-0.58-0.528-3.528,0,1,1,68,true,stim,false,2,587,2,1,2,36518,task3,1184135,false,false,1689,image-keyboard-response,1
true,27,2,2,1,false,z,true,false,0.0-2.0-0.58-0.529-3.529,0,1,1,68,false,stim,false,1,475,2,1,1,36518,task3,1186143,false,false,1692,image-keyboard-response,2
true,27,1,2,1,true,z,false,true,0.0-2.0-0.58-0.530-3.530,0,1,1,90,false,stim,false,1,645,2,1,1,36518,task3,1188313,false,false,1695,image-keyboard-response,3
true,27,2,2,2,true,d,false,true,0.0-2.0-0.59-0.531-3.531,0,1,1,68,false,stim,false,2,530,2,1,2,36518,task3,1190378,false,false,1698,image-keyboard-response,4
true,27,1,2,1,true,z,false,true,0.0-2.0-0.59-0.532-3.532,0,1,1,90,false,stim,false,1,1267,2,1,1,36518,task3,1193194,false,false,1701,image-keyboard-response,5
true,27,1,2,1,true,z,false,true,0.0-2.0-0.59-0.533-3.533,0,1,1,90,false,stim,false,1,318,2,1,1,36518,task3,1195026,false,false,1704,image-keyboard-response,6
true,27,1,2,2,false,d,false,false,0.0-2.0-0.59-0.534-3.534,0,1,1,90,false,stim,true,1,280,2,0,0,36518,task3,1196824,false,false,1707,image-keyboard-response,7
true,27,1,2,2,false,d,false,false,0.0-2.0-0.59-0.535-3.535,0,1,1,90,false,stim,true,1,332,2,0,0,36518,task3,1198670,false,false,1710,image-keyboard-response,8
true,27,2,2,2,true,d,false,true,0.0-2.0-0.59-0.536-3.536,0,1,1,68,false,stim,false,2,555,2,1,2,36518,task3,1200742,false,false,1713,image-keyboard-response,9
true,27,2,2,2,true,d,false,true,0.0-2.0-0.59-0.537-3.537,0,1,1,68,false,stim,false,2,359,2,1,2,36518,task3,1202639,false,false,1716,image-keyboard-response,10
true,27,1,2,1,true,z,false,true,0.0-2.0-0.59-0.538-3.538,0,1,1,90,false,stim,false,1,395,2,1,1,36518,task3,1204573,false,false,1719,image-keyboard-response,11
true,27,0,2,2,false,d,true,false,0.0-2.0-0.59-0.539-3.539,0,1,1,81,false,stim,false,1,461,2,0,0,36518,task3,1206549,false,false,1722,image-keyboard-response,12
true,27,2,2,2,true,d,false,false,0.0-2.0-0.60-0.540-3.540,0,1,1,68,false,stim,false,2,627,2,1,2,36518,task3,1208704,false,true,1725,image-keyboard-response,13
true,27,1,2,1,true,z,false,true,0.0-2.0-0.60-0.541-3.541,0,1,1,90,false,stim,false,1,540,2,1,1,36518,task3,1210778,false,false,1728,image-keyboard-response,14
true,27,1,2,1,true,z,false,true,0.0-2.0-0.60-0.542-3.542,0,1,1,90,false,stim,false,1,406,2,1,1,36518,task3,1212725,false,false,1731,image-keyboard-response,15
true,27,2,2,2,true,d,false,true,0.0-2.0-0.60-0.543-3.543,0,1,1,68,false,stim,false,1,328,2,0,0,36518,task3,1214575,false,false,1734,image-keyboard-response,16
true,27,1,2,1,true,z,false,true,0.0-2.0-0.60-0.544-3.544,0,1,1,90,false,stim,false,1,633,2,1,1,36518,task3,1216741,false,false,1737,image-keyboard-response,17
true,27,2,2,2,true,d,false,true,0.0-2.0-0.60-0.545-3.545,0,1,1,68,false,stim,false,2,606,2,1,2,36518,task3,1218864,false,false,1740,image-keyboard-response,18
true,27,2,2,2,true,d,false,true,0.0-2.0-0.60-0.546-3.546,0,1,1,68,false,stim,false,2,465,2,1,2,36518,task3,1220863,false,false,1743,image-keyboard-response,19
true,27,2,2,2,true,d,false,true,0.0-2.0-0.60-0.547-3.547,0,1,1,68,false,stim,false,1,341,2,0,0,36518,task3,1222729,false,false,1746,image-keyboard-response,20
true,27,2,2,2,true,d,false,true,0.0-2.0-0.60-0.548-3.548,0,1,1,68,false,stim,false,1,338,2,0,0,36518,task3,1224606,false,false,1749,image-keyboard-response,21
true,27,2,2,2,true,d,false,true,0.0-2.0-0.61-0.549-3.549,0,1,1,68,false,stim,false,2,458,2,1,2,36518,task3,1226585,false,false,1752,image-keyboard-response,22
true,27,1,2,1,true,z,false,true,0.0-2.0-0.61-0.550-3.550,0,1,1,90,false,stim,false,1,682,2,1,1,36518,task3,1228800,false,false,1755,image-keyboard-response,23
true,28,1,2,1,true,z,false,true,0.0-2.0-0.61-0.551-3.551,0,1,1,90,true,stim,false,1,329,2,1,1,36518,task3,1230657,false,false,1758,image-keyboard-response,1
true,28,2,2,0,false,q,false,false,0.0-2.0-0.61-0.552-3.552,0,1,1,68,false,stim,true,2,710,2,0,0,36518,task3,1232884,false,false,1761,image-keyboard-response,2
true,28,2,2,0,false,q,false,false,0.0-2.0-0.61-0.553-3.553,0,1,1,68,false,stim,true,2,476,2,0,0,36518,task3,1234883,false,false,1764,image-keyboard-response,3
true,28,2,2,2,true,d,false,true,0.0-2.0-0.61-0.554-3.554,0,1,1,68,false,stim,false,2,682,2,1,2,36518,task3,1237099,false,false,1767,image-keyboard-response,4
true,28,2,2,2,true,d,false,true,0.0-2.0-0.61-0.555-3.555,0,1,1,68,false,stim,false,2,440,2,1,2,36518,task3,1239079,false,false,1770,image-keyboard-response,5
true,28,0,2,0,true,q,false,true,0.0-2.0-0.61-0.556-3.556,0,1,1,81,false,stim,false,2,671,2,0,0,36518,task3,1241279,false,false,1773,image-keyboard-response,6
true,28,1,2,1,true,z,false,true,0.0-2.0-0.61-0.557-3.557,0,1,1,90,false,stim,false,1,499,2,1,1,36518,task3,1243308,false,false,1776,image-keyboard-response,7
true,28,2,2,2,true,d,false,true,0.0-2.0-0.62-0.558-3.558,0,1,1,68,false,stim,false,2,590,2,1,2,36518,task3,1245429,false,false,1779,image-keyboard-response,8
true,28,1,2,1,true,z,false,true,0.0-2.0-0.62-0.559-3.559,0,1,1,90,false,stim,false,1,484,2,1,1,36518,task3,1247436,false,false,1782,image-keyboard-response,9
true,28,0,2,0,true,q,false,true,0.0-2.0-0.62-0.560-3.560,0,1,1,81,false,stim,false,2,410,2,1,0,36518,task3,1249378,false,false,1785,image-keyboard-response,10
true,28,1,2,1,true,z,false,true,0.0-2.0-0.62-0.561-3.561,0,1,1,90,false,stim,false,1,658,2,0,1,36518,task3,1251558,false,false,1788,image-keyboard-response,11
true,28,0,2,0,true,q,false,true,0.0-2.0-0.62-0.562-3.562,0,1,1,81,false,stim,false,2,631,2,1,0,36518,task3,1253729,false,false,1791,image-keyboard-response,12
true,28,1,2,1,true,z,false,true,0.0-2.0-0.62-0.563-3.563,0,1,1,90,false,stim,false,1,506,2,0,1,36518,task3,1255775,false,false,1794,image-keyboard-response,13
true,28,2,2,2,true,d,false,true,0.0-2.0-0.62-0.564-3.564,0,1,1,68,false,stim,false,2,350,2,1,2,36518,task3,1257658,false,false,1797,image-keyboard-response,14
true,29,0,2,0,true,q,false,false,0.0-2.0-0.62-0.565-3.565,1,0,1,81,true,stim,false,0,508,2,1,0,36518,task3,1259707,false,true,1800,image-keyboard-response,1
true,29,2,2,2,true,d,false,true,0.0-2.0-0.62-0.566-3.566,1,0,1,68,false,stim,false,2,576,2,1,2,36518,task3,1261814,false,false,1803,image-keyboard-response,2
true,29,0,2,0,true,q,false,true,0.0-2.0-0.63-0.567-3.567,1,0,1,81,false,stim,false,0,390,2,1,0,36518,task3,1263729,false,false,1806,image-keyboard-response,3
true,29,1,2,2,false,d,false,false,0.0-2.0-0.63-0.568-3.568,1,0,1,90,false,stim,true,1,497,2,0,1,36518,task3,1265766,false,false,1809,image-keyboard-response,4
true,29,2,2,2,true,d,false,true,0.0-2.0-0.63-0.569-3.569,1,0,1,68,false,stim,false,2,542,2,1,2,36518,task3,1267830,false,false,1812,image-keyboard-response,5
true,29,0,2,0,true,q,false,true,0.0-2.0-0.63-0.570-3.570,1,0,1,81,false,stim,false,0,568,2,1,0,36518,task3,1269926,false,false,1815,image-keyboard-response,6
true,29,2,2,2,true,d,false,true,0.0-2.0-0.63-0.571-3.571,1,0,1,68,false,stim,false,2,487,2,1,2,36518,task3,1271946,false,false,1818,image-keyboard-response,7
true,29,2,2,2,true,d,false,true,0.0-2.0-0.63-0.572-3.572,1,0,1,68,false,stim,false,2,378,2,1,2,36518,task3,1273836,false,false,1821,image-keyboard-response,8
true,29,1,2,2,false,d,false,false,0.0-2.0-0.63-0.573-3.573,1,0,1,90,false,stim,true,1,691,2,0,1,36518,task3,1276060,false,false,1824,image-keyboard-response,9
true,29,2,2,2,true,d,false,true,0.0-2.0-0.63-0.574-3.574,1,0,1,68,false,stim,false,1,1727,2,1,1,36518,task3,1279326,false,false,1827,image-keyboard-response,10
true,29,0,2,0,true,q,false,true,0.0-2.0-0.63-0.575-3.575,1,0,1,81,false,stim,false,0,504,2,0,0,36518,task3,1281352,false,false,1830,image-keyboard-response,11
true,29,2,2,2,true,d,false,false,0.0-2.0-0.64-0.576-3.576,1,0,1,68,false,stim,false,1,410,2,1,1,36518,task3,1283300,false,true,1833,image-keyboard-response,12
true,29,2,2,2,true,d,false,true,0.0-2.0-0.64-0.577-3.577,1,0,1,68,false,stim,false,2,397,2,1,2,36518,task3,1285226,false,false,1836,image-keyboard-response,13
true,29,2,2,2,true,d,false,true,0.0-2.0-0.64-0.578-3.578,1,0,1,68,false,stim,false,2,466,2,1,2,36518,task3,1287224,false,false,1839,image-keyboard-response,14
true,30,2,2,2,true,d,false,true,0.0-2.0-0.64-0.579-3.579,0,1,1,68,true,stim,false,2,519,2,1,1,36518,task3,1289267,false,false,1842,image-keyboard-response,1
true,30,0,2,1,false,z,false,false,0.0-2.0-0.64-0.580-3.580,0,1,1,81,false,stim,true,0,600,2,0,0,36518,task3,1291408,false,false,1845,image-keyboard-response,2
true,30,2,2,2,true,d,false,false,0.0-2.0-0.64-0.581-3.581,0,1,1,68,false,stim,false,2,475,2,1,1,36518,task3,1293424,false,true,1848,image-keyboard-response,3
true,30,2,2,2,true,d,false,true,0.0-2.0-0.64-0.582-3.582,0,1,1,68,false,stim,false,2,450,2,1,2,36518,task3,1295407,false,false,1851,image-keyboard-response,4
true,30,0,2,1,false,z,false,false,0.0-2.0-0.64-0.583-3.583,0,1,1,81,false,stim,true,0,640,2,0,0,36518,task3,1297589,false,false,1854,image-keyboard-response,5
true,30,1,2,1,true,z,false,false,0.0-2.0-0.64-0.584-3.584,0,1,1,90,false,stim,false,0,661,2,0,0,36518,task3,1299769,false,true,1857,image-keyboard-response,6
true,30,2,2,1,false,z,true,false,0.0-2.0-0.65-0.585-3.585,0,1,1,68,false,stim,false,0,889,2,0,0,36518,task3,1302188,false,false,1860,image-keyboard-response,7
true,30,2,2,2,true,d,false,true,0.0-2.0-0.65-0.586-3.586,0,1,1,68,false,stim,false,2,958,2,1,1,36518,task3,1304666,false,false,1863,image-keyboard-response,8
true,30,2,2,2,true,d,false,true,0.0-2.0-0.65-0.587-3.587,0,1,1,68,false,stim,false,2,508,2,1,1,36518,task3,1306706,false,false,1866,image-keyboard-response,9
true,30,2,2,2,true,d,false,true,0.0-2.0-0.65-0.588-3.588,0,1,1,68,false,stim,false,2,545,2,1,2,36518,task3,1308793,false,false,1869,image-keyboard-response,10
true,30,2,2,2,true,d,false,true,0.0-2.0-0.65-0.589-3.589,0,1,1,68,false,stim,false,2,340,2,1,2,36518,task3,1310669,false,false,1872,image-keyboard-response,11
true,30,0,2,1,false,z,false,false,0.0-2.0-0.65-0.590-3.590,0,1,1,81,false,stim,true,0,422,2,0,0,36518,task3,1312629,false,false,1875,image-keyboard-response,12
true,30,1,2,1,true,z,false,true,0.0-2.0-0.65-0.591-3.591,0,1,1,90,false,stim,false,0,357,2,0,0,36518,task3,1314515,false,false,1878,image-keyboard-response,13
true,30,2,2,2,true,d,false,true,0.0-2.0-0.65-0.592-3.592,0,1,1,68,false,stim,false,2,393,2,1,1,36518,task3,1316421,false,false,1881,image-keyboard-response,14
true,30,2,2,2,true,d,false,true,0.0-2.0-0.65-0.593-3.593,0,1,1,68,false,stim,false,2,522,2,1,2,36518,task3,1318471,false,false,1884,image-keyboard-response,15
true,30,2,2,2,true,d,false,true,0.0-2.0-0.66-0.594-3.594,0,1,1,68,false,stim,false,2,381,2,1,2,36518,task3,1320369,false,false,1887,image-keyboard-response,16
true,30,2,2,2,true,d,false,true,0.0-2.0-0.66-0.595-3.595,0,1,1,68,false,stim,false,2,369,2,1,2,36518,task3,1322278,false,false,1890,image-keyboard-response,17
true,30,2,2,2,true,d,false,true,0.0-2.0-0.66-0.596-3.596,0,1,1,68,false,stim,false,2,405,2,1,1,36518,task3,1324224,false,false,1893,image-keyboard-response,18
true,30,2,2,1,false,z,true,false,0.0-2.0-0.66-0.597-3.597,0,1,1,68,false,stim,false,0,508,2,0,0,36518,task3,1326267,false,false,1896,image-keyboard-response,19
true,30,1,2,1,true,z,false,true,0.0-2.0-0.66-0.598-3.598,0,1,1,90,false,stim,false,0,384,2,0,0,36518,task3,1328192,false,false,1899,image-keyboard-response,20
true,30,2,2,2,true,d,false,true,0.0-2.0-0.66-0.599-3.599,0,1,1,68,false,stim,false,2,427,2,1,1,36518,task3,1330155,false,false,1902,image-keyboard-response,21
true,30,1,2,1,true,z,false,true,0.0-2.0-0.66-0.600-3.600,0,1,1,90,false,stim,false,0,497,2,0,0,36518,task3,1332186,false,false,1905,image-keyboard-response,22
true,30,2,2,2,true,d,false,true,0.0-2.0-0.66-0.601-3.601,0,1,1,68,false,stim,false,2,560,2,1,1,36518,task3,1334269,false,false,1908,image-keyboard-response,23
true,30,2,2,2,true,d,false,true,0.0-2.0-0.66-0.602-3.602,0,1,1,68,false,stim,false,2,618,2,0,2,36518,task3,1336427,false,false,1911,image-keyboard-response,24
true,30,1,2,1,true,z,false,true,0.0-2.0-0.67-0.603-3.603,0,1,1,90,false,stim,false,0,612,2,0,0,36518,task3,1338560,false,false,1914,image-keyboard-response,25
true,31,2,1,2,true,d,false,true,0.0-2.0-0.67-0.604-3.604,0,1,0,68,true,stim,false,2,438,2,1,1,36518,task3,1340527,false,false,1917,image-keyboard-response,1
true,31,1,1,2,false,d,false,false,0.0-2.0-0.67-0.605-3.605,0,1,0,90,false,stim,true,1,542,2,0,0,36518,task3,1342610,false,false,1920,image-keyboard-response,2
true,31,1,1,2,false,d,false,false,0.0-2.0-0.67-0.606-3.606,0,1,0,90,false,stim,true,1,339,2,0,0,36518,task3,1344463,false,false,1923,image-keyboard-response,3
true,31,2,1,2,true,d,false,true,0.0-2.0-0.67-0.607-3.607,0,1,0,68,false,stim,false,2,423,2,1,1,36518,task3,1346420,false,false,1926,image-keyboard-response,4
true,31,2,1,0,false,q,false,false,0.0-2.0-0.67-0.608-3.608,0,1,0,68,false,stim,true,2,409,2,0,2,36518,task3,1348358,false,false,1929,image-keyboard-response,5
true,31,2,1,2,true,d,false,true,0.0-2.0-0.67-0.609-3.609,0,1,0,68,false,stim,false,2,501,2,1,1,36518,task3,1350400,false,false,1932,image-keyboard-response,6
true,31,2,1,0,false,q,false,false,0.0-2.0-0.67-0.610-3.610,0,1,0,68,false,stim,true,2,463,2,0,2,36518,task3,1352402,false,false,1935,image-keyboard-response,7
true,31,1,1,0,false,q,true,false,0.0-2.0-0.67-0.611-3.611,0,1,0,90,false,stim,false,2,1241,2,0,2,36518,task3,1355169,false,false,1938,image-keyboard-response,8
true,31,1,1,0,false,q,true,false,0.0-2.0-0.68-0.612-3.612,0,1,0,90,false,stim,false,2,481,2,0,2,36518,task3,1357190,false,false,1941,image-keyboard-response,9
true,31,0,1,0,true,q,false,true,0.0-2.0-0.68-0.613-3.613,0,1,0,81,false,stim,false,2,488,2,0,2,36518,task3,1359207,false,false,1944,image-keyboard-response,10
true,31,0,1,0,true,q,false,true,0.0-2.0-0.68-0.614-3.614,0,1,0,81,false,stim,false,2,372,2,0,2,36518,task3,1361109,false,false,1947,image-keyboard-response,11
true,31,2,1,2,true,d,false,false,0.0-2.0-0.68-0.615-3.615,0,1,0,68,false,stim,false,2,521,2,1,1,36518,task3,1363170,false,true,1950,image-keyboard-response,12
true,31,2,1,2,true,d,false,true,0.0-2.0-0.68-0.616-3.616,0,1,0,68,false,stim,false,2,362,2,1,1,36518,task3,1365045,false,false,1953,image-keyboard-response,13
true,31,0,1,2,false,d,true,false,0.0-2.0-0.68-0.617-3.617,0,1,0,81,false,stim,false,1,411,2,0,0,36518,task3,1366981,false,false,1956,image-keyboard-response,14
true,31,2,1,2,true,d,false,true,0.0-2.0-0.68-0.618-3.618,0,1,0,68,false,stim,false,2,574,2,1,1,36518,task3,1369083,false,false,1959,image-keyboard-response,15
true,31,1,1,2,false,d,false,false,0.0-2.0-0.68-0.619-3.619,0,1,0,90,false,stim,true,1,369,2,0,0,36518,task3,1370987,false,false,1962,image-keyboard-response,16
true,31,2,1,2,true,d,false,true,0.0-2.0-0.68-0.620-3.620,0,1,0,68,false,stim,false,1,351,2,0,0,36518,task3,1372870,false,false,1965,image-keyboard-response,17
true,31,2,1,2,true,d,false,true,0.0-2.0-0.69-0.621-3.621,0,1,0,68,false,stim,false,2,502,2,1,1,36518,task3,1374891,false,false,1968,image-keyboard-response,18
true,31,2,1,2,true,d,false,true,0.0-2.0-0.69-0.622-3.622,0,1,0,68,false,stim,false,2,426,2,1,1,36518,task3,1376853,false,false,1971,image-keyboard-response,19
true,31,2,1,2,true,d,false,true,0.0-2.0-0.69-0.623-3.623,0,1,0,68,false,stim,false,2,359,2,1,1,36518,task3,1378737,false,false,1974,image-keyboard-response,20
true,31,2,1,2,true,d,false,true,0.0-2.0-0.69-0.624-3.624,0,1,0,68,false,stim,false,1,405,2,0,0,36518,task3,1380683,false,false,1977,image-keyboard-response,21
true,31,2,1,2,true,d,false,true,0.0-2.0-0.69-0.625-3.625,0,1,0,68,false,stim,false,1,329,2,0,0,36518,task3,1382548,false,false,1980,image-keyboard-response,22
true,31,0,1,0,true,q,false,true,0.0-2.0-0.69-0.626-3.626,0,1,0,81,false,stim,false,2,501,2,0,2,36518,task3,1384589,false,false,1983,image-keyboard-response,23
true,31,2,1,2,true,d,false,true,0.0-2.0-0.69-0.627-3.627,0,1,0,68,false,stim,false,1,482,2,0,0,36518,task3,1386590,false,false,1986,image-keyboard-response,24
true,31,0,1,0,true,q,false,true,0.0-2.0-0.69-0.628-3.628,0,1,0,81,false,stim,false,2,520,2,1,2,36518,task3,1388647,false,false,1989,image-keyboard-response,25
true,31,0,1,0,true,q,false,true,0.0-2.0-0.69-0.629-3.629,0,1,0,81,false,stim,false,2,371,2,1,2,36518,task3,1390550,false,false,1992,image-keyboard-response,26
true,31,2,1,2,true,d,false,true,0.0-2.0-0.70-0.630-3.630,0,1,0,68,false,stim,false,2,558,2,0,1,36518,task3,1392638,false,false,1995,image-keyboard-response,27
true,31,0,1,0,true,q,false,true,0.0-2.0-0.70-0.631-3.631,0,1,0,81,false,stim,false,2,628,2,1,2,36518,task3,1394797,false,false,1998,image-keyboard-response,28
true,32,2,1,1,false,z,false,false,0.0-2.0-0.70-0.632-3.632,0,0,1,68,true,stim,true,2,510,2,0,0,36518,task3,1396852,false,false,2001,image-keyboard-response,1
true,32,0,1,0,true,q,false,true,0.0-2.0-0.70-0.633-3.633,0,0,1,81,false,stim,false,0,522,2,1,2,36518,task3,1398900,false,false,2004,image-keyboard-response,2
true,32,2,1,1,false,z,false,false,0.0-2.0-0.70-0.634-3.634,0,0,1,68,false,stim,true,2,468,2,0,0,36518,task3,1400888,false,false,2007,image-keyboard-response,3
true,32,1,1,1,true,z,false,true,0.0-2.0-0.70-0.635-3.635,0,0,1,90,false,stim,false,2,381,2,0,0,36518,task3,1402810,false,false,2010,image-keyboard-response,4
