answered,blockNum,choice,condition,corResp,correct,correct_response,explo,fb,internal_node_id,isStable_1,isStable_2,isStable_3,key_press,newBlock,part,persev,persevResp,rt,sessNum,stableAS,stimulus,subject,task,time_elapsed,training,trap,trial_index,trial_type,trialsInBlock
true,1,1,0,1,true,z,false,true,0.0-2.0-0.0-0.0-3.0,0,0,0,90,true,stim,false,-1,1823.7999999821186,1,0,1,38099,task2,189808,false,false,184,image-keyboard-response,1
true,1,1,0,0,false,q,true,false,0.0-2.0-0.0-0.1-3.1,0,0,0,90,false,stim,false,-1,434.89999997615814,1,0,0,38099,task2,191753,false,false,187,image-keyboard-response,2
true,1,2,0,0,false,q,true,false,0.0-2.0-0.0-0.2-3.2,0,0,0,68,false,stim,false,-1,398.19999998807907,1,0,0,38099,task2,193666,false,false,190,image-keyboard-response,3
true,1,0,0,0,true,q,false,true,0.0-2.0-0.0-0.3-3.3,0,0,0,81,false,stim,false,-1,737.0999999940395,1,0,2,38099,task2,195923,false,false,193,image-keyboard-response,4
true,1,0,0,0,true,q,false,true,0.0-2.0-0.0-0.4-3.4,0,0,0,81,false,stim,false,-1,814.2999999821186,1,0,2,38099,task2,198248,false,false,196,image-keyboard-response,5
true,1,1,0,1,true,z,false,true,0.0-2.0-0.0-0.5-3.5,0,0,0,90,false,stim,false,-1,499.5,1,0,1,38099,task2,200259,false,false,199,image-keyboard-response,6
true,1,2,0,0,false,q,true,false,0.0-2.0-0.0-0.6-3.6,0,0,0,68,false,stim,false,-1,680.1999999880791,1,0,0,38099,task2,202468,false,false,202,image-keyboard-response,7
true,1,0,0,0,true,q,false,true,0.0-2.0-0.0-0.7-3.7,0,0,0,81,false,stim,false,-1,690.3000000119209,1,0,2,38099,task2,204680,false,false,205,image-keyboard-response,8
true,1,1,0,1,true,z,false,true,0.0-2.0-0.0-0.8-3.8,0,0,0,90,false,stim,false,-1,811.0,1,0,1,38099,task2,207019,false,false,208,image-keyboard-response,9
true,1,0,0,0,true,q,false,true,0.0-2.0-0.1-0.9-3.9,0,0,0,81,false,stim,false,-1,687.6999999880791,1,0,0,38099,task2,209218,false,false,211,image-keyboard-response,10
true,1,1,0,1,true,z,false,true,0.0-2.0-0.1-0.10-3.10,0,0,0,90,false,stim,false,-1,793.5999999940395,1,0,1,38099,task2,211538,false,false,214,image-keyboard-response,11
true,1,1,0,1,true,z,false,true,0.0-2.0-0.1-0.11-3.11,0,0,0,90,false,stim,false,-1,597.4000000059605,1,0,1,38099,task2,213653,false,false,217,image-keyboard-response,12
true,1,1,0,0,false,q,true,false,0.0-2.0-0.1-0.12-3.12,0,0,0,90,false,stim,false,-1,540.6999999880791,1,0,0,38099,task2,215701,false,false,220,image-keyboard-response,13
true,1,0,0,0,true,q,false,true,0.0-2.0-0.1-0.13-3.13,0,0,0,81,false,stim,false,-1,507.7000000178814,1,0,2,38099,task2,217742,false,false,223,image-keyboard-response,14
true,1,0,0,0,true,q,false,true,0.0-2.0-0.1-0.14-3.14,0,0,0,81,false,stim,false,-1,405.09999999403954,1,0,2,38099,task2,219677,false,false,226,image-keyboard-response,15
true,1,1,0,1,true,z,false,true,0.0-2.0-0.1-0.15-3.15,0,0,0,90,false,stim,false,-1,750.2000000178814,1,0,1,38099,task2,221939,false,false,229,image-keyboard-response,16
true,1,0,0,0,true,q,false,true,0.0-2.0-0.1-0.16-3.16,0,0,0,81,false,stim,false,-1,301.0,1,0,0,38099,task2,223750,false,false,232,image-keyboard-response,17
true,1,0,0,0,true,q,false,true,0.0-2.0-0.1-0.17-3.17,0,0,0,81,false,stim,false,-1,687.3999999761581,1,0,2,38099,task2,225974,false,false,235,image-keyboard-response,18
true,1,0,0,0,true,q,false,true,0.0-2.0-0.2-0.18-3.18,0,0,0,81,false,stim,false,-1,449.39999997615814,1,0,2,38099,task2,227950,false,false,238,image-keyboard-response,19
true,1,1,0,1,true,z,false,true,0.0-2.0-0.2-0.19-3.19,0,0,0,90,false,stim,false,-1,437.80000001192093,1,0,1,38099,task2,229908,false,false,241,image-keyboard-response,20
true,1,0,0,0,true,q,false,true,0.0-2.0-0.2-0.20-3.20,0,0,0,81,false,stim,false,-1,333.5,1,0,0,38099,task2,231755,false,false,244,image-keyboard-response,21
true,1,0,0,0,true,q,false,true,0.0-2.0-0.2-0.21-3.21,0,0,0,81,false,stim,false,-1,583.0999999940395,1,1,2,38099,task2,233873,false,false,247,image-keyboard-response,22
true,1,0,0,0,true,q,false,true,0.0-2.0-0.2-0.22-3.22,0,0,0,81,false,stim,false,-1,377.2999999821186,1,1,2,38099,task2,235764,false,false,250,image-keyboard-response,23
true,1,1,0,1,true,z,false,false,0.0-2.0-0.2-0.23-3.23,0,0,0,90,false,stim,false,-1,629.5,1,0,1,38099,task2,237905,false,true,253,image-keyboard-response,24
true,1,2,0,1,false,z,true,false,0.0-2.0-0.2-0.24-3.24,0,0,0,68,false,stim,false,-1,415.2000000178814,1,0,1,38099,task2,239831,false,false,256,image-keyboard-response,25
true,1,0,0,0,true,q,false,true,0.0-2.0-0.2-0.25-3.25,0,0,0,81,false,stim,false,-1,660.4000000059605,1,0,0,38099,task2,242005,false,false,259,image-keyboard-response,26
true,2,0,2,1,false,z,false,false,0.0-2.0-0.2-0.26-3.26,0,0,1,81,true,stim,true,0,470.09999999403954,1,0,0,38099,task2,244001,false,false,262,image-keyboard-response,1
true,2,0,2,0,true,q,false,true,0.0-2.0-0.3-0.27-3.27,0,0,1,81,false,stim,false,0,724.3999999761581,1,1,2,38099,task2,246239,false,false,265,image-keyboard-response,2
true,2,1,2,1,true,z,false,true,0.0-2.0-0.3-0.28-3.28,0,0,1,90,false,stim,false,0,1270.699999988079,1,0,0,38099,task2,249032,false,false,268,image-keyboard-response,3
true,2,0,2,0,true,q,false,true,0.0-2.0-0.3-0.29-3.29,0,0,1,81,false,stim,false,0,802.1999999880791,1,1,2,38099,task2,251369,false,false,271,image-keyboard-response,4
true,2,1,2,1,true,z,false,true,0.0-2.0-0.3-0.30-3.30,0,0,1,90,false,stim,false,0,418.89999997615814,1,0,0,38099,task2,253321,false,false,274,image-keyboard-response,5
true,2,1,2,1,true,z,false,true,0.0-2.0-0.3-0.31-3.31,0,0,1,90,false,stim,false,0,341.69999998807907,1,0,0,38099,task2,255193,false,false,277,image-keyboard-response,6
true,2,2,2,0,false,q,true,false,0.0-2.0-0.3-0.32-3.32,0,0,1,68,false,stim,false,1,897.4000000059605,1,0,1,38099,task2,257607,false,false,280,image-keyboard-response,7
true,2,1,2,0,false,q,false,false,0.0-2.0-0.3-0.33-3.33,0,0,1,90,false,stim,true,1,388.89999997615814,1,0,1,38099,task2,259532,false,false,283,image-keyboard-response,8
true,2,0,2,0,true,q,false,true,0.0-2.0-0.3-0.34-3.34,0,0,1,81,false,stim,false,1,326.89999997615814,1,0,1,38099,task2,261387,false,false,286,image-keyboard-response,9
true,2,1,2,0,false,q,true,false,0.0-2.0-0.3-0.35-3.35,0,0,1,90,false,stim,false,0,752.6999999880791,1,1,2,38099,task2,263666,false,false,289,image-keyboard-response,10
true,2,0,2,1,false,z,false,false,0.0-2.0-0.4-0.36-3.36,0,0,1,81,false,stim,true,0,677.3000000119209,1,0,0,38099,task2,265866,false,false,292,image-keyboard-response,11
true,2,1,2,0,false,q,true,false,0.0-2.0-0.4-0.37-3.37,0,0,1,90,false,stim,false,0,390.60000002384186,1,1,2,38099,task2,267765,false,false,295,image-keyboard-response,12
true,2,2,2,0,false,q,true,true,0.0-2.0-0.4-0.38-3.38,0,0,1,68,false,stim,false,1,447.90000000596046,1,0,1,38099,task2,269724,false,true,298,image-keyboard-response,13
true,2,1,2,0,false,q,true,false,0.0-2.0-0.4-0.39-3.39,0,0,1,90,false,stim,false,0,809.1999999880791,1,1,2,38099,task2,272048,false,false,301,image-keyboard-response,14
true,2,2,2,0,false,q,true,false,0.0-2.0-0.4-0.40-3.40,0,0,1,68,false,stim,false,1,533.5999999940395,1,0,1,38099,task2,274108,false,false,304,image-keyboard-response,15
true,2,0,2,1,false,z,false,false,0.0-2.0-0.4-0.41-3.41,0,0,1,81,false,stim,true,0,581.9000000059605,1,0,0,38099,task2,276202,false,false,307,image-keyboard-response,16
true,2,1,2,0,false,q,true,false,0.0-2.0-0.4-0.42-3.42,0,0,1,90,false,stim,false,0,536.0999999940395,1,1,2,38099,task2,278260,false,false,310,image-keyboard-response,17
true,2,2,2,0,false,q,true,false,0.0-2.0-0.4-0.43-3.43,0,0,1,68,false,stim,false,1,297.7999999821186,1,0,1,38099,task2,280077,false,false,313,image-keyboard-response,18
true,2,0,2,1,false,z,false,false,0.0-2.0-0.4-0.44-3.44,0,0,1,81,false,stim,true,0,707.8000000119209,1,0,0,38099,task2,282299,false,false,316,image-keyboard-response,19
true,2,1,2,1,true,z,false,true,0.0-2.0-0.5-0.45-3.45,0,0,1,90,false,stim,false,0,413.19999998807907,1,0,0,38099,task2,284220,false,false,319,image-keyboard-response,20
true,2,2,2,0,false,q,true,false,0.0-2.0-0.5-0.46-3.46,0,0,1,68,false,stim,false,0,507.69999998807907,1,1,2,38099,task2,286264,false,false,322,image-keyboard-response,21
true,2,1,2,0,false,q,true,false,0.0-2.0-0.5-0.47-3.47,0,0,1,90,false,stim,false,0,333.0,1,1,2,38099,task2,288114,false,false,325,image-keyboard-response,22
true,2,0,2,0,true,q,false,true,0.0-2.0-0.5-0.48-3.48,0,0,1,81,false,stim,false,0,412.2999999821186,1,1,2,38099,task2,290048,false,false,328,image-keyboard-response,23
true,2,0,2,0,true,q,false,true,0.0-2.0-0.5-0.49-3.49,0,0,1,81,false,stim,false,1,833.5,1,0,1,38099,task2,292418,false,false,331,image-keyboard-response,24
true,2,0,2,1,false,z,false,false,0.0-2.0-0.5-0.50-3.50,0,0,1,81,false,stim,true,0,309.0,1,0,0,38099,task2,294253,false,false,334,image-keyboard-response,25
true,2,0,2,0,true,q,false,true,0.0-2.0-0.5-0.51-3.51,0,0,1,81,false,stim,false,1,335.59999999403954,1,0,1,38099,task2,296102,false,false,337,image-keyboard-response,26
true,2,0,2,0,true,q,false,true,0.0-2.0-0.5-0.52-3.52,0,0,1,81,false,stim,false,1,246.69999998807907,1,0,1,38099,task2,297882,false,false,340,image-keyboard-response,27
true,2,1,2,1,true,z,false,true,0.0-2.0-0.5-0.53-3.53,0,0,1,90,false,stim,false,0,592.1000000238419,1,1,0,38099,task2,299989,false,false,343,image-keyboard-response,28
true,2,0,2,0,true,q,false,true,0.0-2.0-0.6-0.54-3.54,0,0,1,81,false,stim,false,0,470.89999997615814,1,0,2,38099,task2,301972,false,false,346,image-keyboard-response,29
true,2,1,2,1,true,z,false,true,0.0-2.0-0.6-0.55-3.55,0,0,1,90,false,stim,false,0,241.40000000596046,1,1,0,38099,task2,303724,false,false,349,image-keyboard-response,30
true,2,0,2,0,true,q,false,true,0.0-2.0-0.6-0.56-3.56,0,0,1,81,false,stim,false,1,248.30000001192093,1,0,1,38099,task2,305491,false,false,352,image-keyboard-response,31
true,3,0,2,1,false,z,true,false,0.0-2.0-0.6-0.57-3.57,1,0,0,81,true,stim,false,1,335.80000001192093,1,1,0,38099,task2,307343,false,false,355,image-keyboard-response,1
true,3,0,2,2,false,d,false,false,0.0-2.0-0.6-0.58-3.58,1,0,0,81,false,stim,true,0,566.0,1,0,1,38099,task2,309438,false,false,358,image-keyboard-response,2
true,3,1,2,1,true,z,false,true,0.0-2.0-0.6-0.59-3.59,1,0,0,90,false,stim,false,1,377.09999999403954,1,1,0,38099,task2,311341,false,false,361,image-keyboard-response,3
true,3,2,2,2,true,d,false,true,0.0-2.0-0.6-0.60-3.60,1,0,0,68,false,stim,false,0,698.0999999940395,1,0,1,38099,task2,313563,false,false,364,image-keyboard-response,4
true,3,0,2,1,false,z,false,false,0.0-2.0-0.6-0.61-3.61,1,0,0,81,false,stim,true,0,765.0999999940395,1,0,2,38099,task2,315848,false,false,367,image-keyboard-response,5
true,3,1,2,1,true,z,false,true,0.0-2.0-0.6-0.62-3.62,1,0,0,90,false,stim,false,0,411.0,1,0,2,38099,task2,317768,false,false,370,image-keyboard-response,6
true,3,1,2,1,true,z,false,true,0.0-2.0-0.7-0.63-3.63,1,0,0,90,false,stim,false,0,568.6000000238419,1,0,2,38099,task2,319861,false,false,373,image-keyboard-response,7
true,3,1,2,2,false,d,true,true,0.0-2.0-0.7-0.64-3.64,1,0,0,90,false,stim,false,0,494.19999998807907,1,0,1,38099,task2,321891,false,true,376,image-keyboard-response,8
true,3,2,2,1,false,z,true,false,0.0-2.0-0.7-0.65-3.65,1,0,0,68,false,stim,false,0,686.5999999940395,1,0,2,38099,task2,324096,false,false,379,image-keyboard-response,9
true,3,1,2,2,false,d,true,false,0.0-2.0-0.7-0.66-3.66,1,0,0,90,false,stim,false,0,460.5,1,0,1,38099,task2,326087,false,false,382,image-keyboard-response,10
true,3,1,2,1,true,z,false,true,0.0-2.0-0.7-0.67-3.67,1,0,0,90,false,stim,false,1,1016.1999999880791,1,1,0,38099,task2,328620,false,false,385,image-keyboard-response,11
true,3,1,2,1,true,z,false,false,0.0-2.0-0.7-0.68-3.68,1,0,0,90,false,stim,false,1,468.7000000178814,1,1,0,38099,task2,330596,false,true,388,image-keyboard-response,12
true,3,1,2,2,false,d,true,false,0.0-2.0-0.7-0.69-3.69,1,0,0,90,false,stim,false,0,545.5,1,0,1,38099,task2,332655,false,false,391,image-keyboard-response,13
true,3,2,2,1,false,z,true,false,0.0-2.0-0.7-0.70-3.70,1,0,0,68,false,stim,false,0,650.5,1,0,2,38099,task2,334819,false,false,394,image-keyboard-response,14
true,3,2,2,1,false,z,true,false,0.0-2.0-0.7-0.71-3.71,1,0,0,68,false,stim,false,1,556.0,1,1,0,38099,task2,336906,false,false,397,image-keyboard-response,15
true,3,0,2,1,false,z,false,false,0.0-2.0-0.8-0.72-3.72,1,0,0,81,false,stim,true,0,827.7999999821186,1,0,2,38099,task2,339254,false,false,400,image-keyboard-response,16
true,3,1,2,2,false,d,true,false,0.0-2.0-0.8-0.73-3.73,1,0,0,90,false,stim,false,0,620.2999999821186,1,0,1,38099,task2,341416,false,false,403,image-keyboard-response,17
true,3,0,2,2,false,d,false,true,0.0-2.0-0.8-0.74-3.74,1,0,0,81,false,stim,true,0,518.5,1,0,1,38099,task2,343462,false,true,406,image-keyboard-response,18
true,3,0,2,1,false,z,true,false,0.0-2.0-0.8-0.75-3.75,1,0,0,81,false,stim,false,1,926.6999999880791,1,1,0,38099,task2,345908,false,false,409,image-keyboard-response,19
true,3,0,2,1,false,z,false,false,0.0-2.0-0.8-0.76-3.76,1,0,0,81,false,stim,true,0,646.7000000178814,1,0,2,38099,task2,348092,false,false,412,image-keyboard-response,20
true,3,1,2,1,true,z,false,true,0.0-2.0-0.8-0.77-3.77,1,0,0,90,false,stim,false,1,718.1999999880791,1,1,0,38099,task2,350345,false,false,415,image-keyboard-response,21
true,3,2,2,1,false,z,true,false,0.0-2.0-0.8-0.78-3.78,1,0,0,68,false,stim,false,0,711.6999999880791,1,0,2,38099,task2,352587,false,false,418,image-keyboard-response,22
true,3,0,2,2,false,d,false,false,0.0-2.0-0.8-0.79-3.79,1,0,0,81,false,stim,true,0,793.9000000059605,1,0,1,38099,task2,354896,false,false,421,image-keyboard-response,23
true,3,1,2,1,true,z,false,true,0.0-2.0-0.8-0.80-3.80,1,0,0,90,false,stim,false,1,680.0999999940395,1,1,0,38099,task2,357092,false,false,424,image-keyboard-response,24
true,3,1,2,1,true,z,false,false,0.0-2.0-0.9-0.81-3.81,1,0,0,90,false,stim,false,1,397.69999998807907,1,1,0,38099,task2,359027,false,true,427,image-keyboard-response,25
true,3,2,2,2,true,d,false,true,0.0-2.0-0.9-0.82-3.82,1,0,0,68,false,stim,false,0,535.1999999880791,1,0,1,38099,task2,361088,false,false,430,image-keyboard-response,26
true,3,0,2,1,false,z,true,false,0.0-2.0-0.9-0.83-3.83,1,0,0,81,false,stim,false,1,526.5,1,1,0,38099,task2,363150,false,false,433,image-keyboard-response,27
true,3,1,2,1,true,z,false,false,0.0-2.0-0.9-0.84-3.84,1,0,0,90,false,stim,false,0,289.90000000596046,1,0,2,38099,task2,364957,false,true,436,image-keyboard-response,28
true,3,2,2,1,false,z,true,false,0.0-2.0-0.9-0.85-3.85,1,0,0,68,false,stim,false,0,311.19999998807907,1,0,2,38099,task2,366788,false,false,439,image-keyboard-response,29
true,3,0,2,1,false,z,false,true,0.0-2.0-0.9-0.86-3.86,1,0,0,81,false,stim,true,0,365.90000000596046,1,1,2,38099,task2,368677,false,true,442,image-keyboard-response,30
true,3,0,2,1,false,z,true,false,0.0-2.0-0.9-0.87-3.87,1,0,0,81,false,stim,false,1,867.8000000119209,1,0,0,38099,task2,371078,false,false,445,image-keyboard-response,31
true,3,2,2,2,true,d,false,true,0.0-2.0-0.9-0.88-3.88,1,0,0,68,false,stim,false,0,663.8000000119209,1,0,1,38099,task2,373275,false,false,448,image-keyboard-response,32
true,3,2,2,2,true,d,false,true,0.0-2.0-0.9-0.89-3.89,1,0,0,68,false,stim,false,0,584.0,1,0,1,38099,task2,375376,false,false,451,image-keyboard-response,33
true,3,2,2,1,false,z,true,false,0.0-2.0-0.10-0.90-3.90,1,0,0,68,false,stim,false,1,675.5,1,0,0,38099,task2,377582,false,false,454,image-keyboard-response,34
true,4,1,2,1,true,z,false,true,0.0-2.0-0.10-0.91-3.91,0,0,1,90,true,stim,false,2,493.0,1,0,1,38099,task2,379599,false,false,457,image-keyboard-response,1
true,4,0,2,1,false,z,true,false,0.0-2.0-0.10-0.92-3.92,0,0,1,81,false,stim,false,2,626.5,1,0,1,38099,task2,381745,false,false,460,image-keyboard-response,2
true,4,1,2,1,true,z,false,true,0.0-2.0-0.10-0.93-3.93,0,0,1,90,false,stim,false,2,289.90000000596046,1,0,1,38099,task2,383551,false,false,463,image-keyboard-response,3
true,4,1,2,1,true,z,false,true,0.0-2.0-0.10-0.94-3.94,0,0,1,90,false,stim,false,1,592.9000000059605,1,1,2,38099,task2,385667,false,false,466,image-keyboard-response,4
true,4,1,2,0,false,q,false,false,0.0-2.0-0.10-0.95-3.95,0,0,1,90,false,stim,true,1,415.0,1,0,0,38099,task2,387606,false,false,469,image-keyboard-response,5
true,4,2,2,1,false,z,true,false,0.0-2.0-0.10-0.96-3.96,0,0,1,68,false,stim,false,1,437.69999998807907,1,1,2,38099,task2,389561,false,false,472,image-keyboard-response,6
true,4,0,2,1,false,z,true,true,0.0-2.0-0.10-0.97-3.97,0,0,1,81,false,stim,false,1,316.40000000596046,1,1,2,38099,task2,391388,false,true,475,image-keyboard-response,7
true,4,0,2,0,true,q,false,true,0.0-2.0-0.10-0.98-3.98,0,0,1,81,false,stim,false,1,884.9000000059605,1,0,0,38099,task2,393795,false,false,478,image-keyboard-response,8
true,4,0,2,0,true,q,false,false,0.0-2.0-0.11-0.99-3.99,0,0,1,81,false,stim,false,1,512.3000000119209,1,0,0,38099,task2,395841,false,true,481,image-keyboard-response,9
true,4,2,2,1,false,z,true,false,0.0-2.0-0.11-0.100-3.100,0,0,1,68,false,stim,false,1,585.9000000059605,1,1,2,38099,task2,397956,false,false,484,image-keyboard-response,10
true,4,1,2,1,true,z,false,true,0.0-2.0-0.11-0.101-3.101,0,0,1,90,false,stim,false,2,368.30000001192093,1,0,1,38099,task2,399843,false,false,487,image-keyboard-response,11
true,4,0,2,0,true,q,false,true,0.0-2.0-0.11-0.102-3.102,0,0,1,81,false,stim,false,1,462.30000001192093,1,0,0,38099,task2,401838,false,false,490,image-keyboard-response,12
true,4,0,2,1,false,z,true,false,0.0-2.0-0.11-0.103-3.103,0,0,1,81,false,stim,false,1,463.2999999821186,1,1,2,38099,task2,403820,false,false,493,image-keyboard-response,13
true,4,2,2,1,false,z,false,false,0.0-2.0-0.11-0.104-3.104,0,0,1,68,false,stim,true,2,775.2999999821186,1,0,1,38099,task2,406114,false,false,496,image-keyboard-response,14
true,4,1,2,0,false,q,false,false,0.0-2.0-0.11-0.105-3.105,0,0,1,90,false,stim,true,1,974.6999999880791,1,0,0,38099,task2,408608,false,false,499,image-keyboard-response,15
true,4,1,2,1,true,z,false,true,0.0-2.0-0.11-0.106-3.106,0,0,1,90,false,stim,false,1,370.40000000596046,1,1,2,38099,task2,410513,false,false,502,image-keyboard-response,16
true,4,1,2,1,true,z,false,true,0.0-2.0-0.11-0.107-3.107,0,0,1,90,false,stim,false,2,615.4000000059605,1,0,1,38099,task2,412652,false,false,505,image-keyboard-response,17
true,4,1,2,1,true,z,false,true,0.0-2.0-0.12-0.108-3.108,0,0,1,90,false,stim,false,2,466.40000000596046,1,0,1,38099,task2,414638,false,false,508,image-keyboard-response,18
true,4,1,2,0,false,q,false,false,0.0-2.0-0.12-0.109-3.109,0,0,1,90,false,stim,true,1,642.3000000119209,1,0,0,38099,task2,416809,false,false,511,image-keyboard-response,19
true,4,0,2,1,false,z,true,true,0.0-2.0-0.12-0.110-3.110,0,0,1,81,false,stim,false,2,322.2000000178814,1,0,1,38099,task2,418659,false,true,514,image-keyboard-response,20
true,4,2,2,1,false,z,true,false,0.0-2.0-0.12-0.111-3.111,0,0,1,68,false,stim,false,1,454.89999997615814,1,1,2,38099,task2,420645,false,false,517,image-keyboard-response,21
true,4,1,2,0,false,q,false,false,0.0-2.0-0.12-0.112-3.112,0,0,1,90,false,stim,true,1,337.69999998807907,1,0,0,38099,task2,422507,false,false,520,image-keyboard-response,22
true,4,0,2,1,false,z,true,false,0.0-2.0-0.12-0.113-3.113,0,0,1,81,false,stim,false,2,369.59999999403954,1,0,1,38099,task2,424392,false,false,523,image-keyboard-response,23
true,4,1,2,1,true,z,false,true,0.0-2.0-0.12-0.114-3.114,0,0,1,90,false,stim,false,1,266.10000002384186,1,1,2,38099,task2,426175,false,false,526,image-keyboard-response,24
true,4,1,2,0,false,q,false,false,0.0-2.0-0.12-0.115-3.115,0,0,1,90,false,stim,true,1,607.5,1,0,0,38099,task2,428309,false,false,529,image-keyboard-response,25
true,4,2,2,1,false,z,true,true,0.0-2.0-0.12-0.116-3.116,0,0,1,68,false,stim,false,1,376.5,1,1,2,38099,task2,430196,false,true,532,image-keyboard-response,26
true,4,2,2,1,false,z,false,true,0.0-2.0-0.13-0.117-3.117,0,0,1,68,false,stim,true,2,521.5999999940395,1,0,1,38099,task2,432241,false,true,535,image-keyboard-response,27
true,4,2,2,0,false,q,true,false,0.0-2.0-0.13-0.118-3.118,0,0,1,68,false,stim,false,1,570.7000000178814,1,0,0,38099,task2,434332,false,false,538,image-keyboard-response,28
true,4,1,2,1,true,z,false,true,0.0-2.0-0.13-0.119-3.119,0,0,1,90,false,stim,false,1,673.9000000059605,1,1,2,38099,task2,436522,false,false,541,image-keyboard-response,29
true,4,2,2,1,false,z,false,false,0.0-2.0-0.13-0.120-3.120,0,0,1,68,false,stim,true,2,518.1000000238419,1,0,1,38099,task2,438567,false,false,544,image-keyboard-response,30
true,4,0,2,1,false,z,true,false,0.0-2.0-0.13-0.121-3.121,0,0,1,81,false,stim,false,1,320.30000001192093,1,1,2,38099,task2,440412,false,false,547,image-keyboard-response,31
true,4,1,2,0,false,q,false,false,0.0-2.0-0.13-0.122-3.122,0,0,1,90,false,stim,true,1,269.59999999403954,1,0,0,38099,task2,442201,false,false,550,image-keyboard-response,32
true,4,2,2,1,false,z,true,false,0.0-2.0-0.13-0.123-3.123,0,0,1,68,false,stim,false,1,279.59999999403954,1,1,2,38099,task2,444016,false,false,553,image-keyboard-response,33
true,4,1,2,1,true,z,false,true,0.0-2.0-0.13-0.124-3.124,0,0,1,90,false,stim,false,2,314.60000002384186,1,0,1,38099,task2,445857,false,false,556,image-keyboard-response,34
true,4,1,2,0,false,q,false,false,0.0-2.0-0.13-0.125-3.125,0,0,1,90,false,stim,true,1,651.4000000059605,1,0,0,38099,task2,448015,false,false,559,image-keyboard-response,35
true,5,2,2,0,false,q,true,false,0.0-2.0-0.14-0.126-3.126,0,0,1,68,true,stim,false,1,655.5999999940395,1,0,1,38099,task2,450192,false,false,562,image-keyboard-response,1
true,5,1,2,1,true,z,false,true,0.0-2.0-0.14-0.127-3.127,0,0,1,90,false,stim,false,0,282.59999999403954,1,0,0,38099,task2,451990,false,false,565,image-keyboard-response,2
true,5,1,2,1,true,z,false,true,0.0-2.0-0.14-0.128-3.128,0,0,1,90,false,stim,false,0,1042.0,1,0,0,38099,task2,454542,false,false,568,image-keyboard-response,3
true,5,1,2,0,false,q,false,false,0.0-2.0-0.14-0.129-3.129,0,0,1,90,false,stim,true,1,524.3000000119209,1,0,1,38099,task2,456581,false,false,571,image-keyboard-response,4
true,5,0,2,1,false,z,true,false,0.0-2.0-0.14-0.130-3.130,0,0,1,81,false,stim,false,1,140.2000000178814,1,1,2,38099,task2,458245,false,false,574,image-keyboard-response,5
true,5,2,2,1,false,z,true,false,0.0-2.0-0.14-0.131-3.131,0,0,1,68,false,stim,false,1,299.40000000596046,1,1,2,38099,task2,460072,false,false,577,image-keyboard-response,6
true,5,1,2,1,true,z,false,true,0.0-2.0-0.14-0.132-3.132,0,0,1,90,false,stim,false,1,341.2000000178814,1,1,2,38099,task2,461936,false,false,580,image-keyboard-response,7
true,5,1,2,1,true,z,false,true,0.0-2.0-0.14-0.133-3.133,0,0,1,90,false,stim,false,0,620.0,1,0,0,38099,task2,464073,false,false,583,image-keyboard-response,8
true,5,1,2,0,false,q,false,false,0.0-2.0-0.14-0.134-3.134,0,0,1,90,false,stim,true,1,355.19999998807907,1,0,1,38099,task2,465946,false,false,586,image-keyboard-response,9
true,5,1,2,1,true,z,false,true,0.0-2.0-0.15-0.135-3.135,0,0,1,90,false,stim,false,1,1029.699999988079,1,1,2,38099,task2,468503,false,false,589,image-keyboard-response,10
true,5,0,2,0,true,q,false,true,0.0-2.0-0.15-0.136-3.136,0,0,1,81,false,stim,false,1,712.6999999880791,1,0,1,38099,task2,470743,false,false,592,image-keyboard-response,11
true,5,0,2,0,true,q,false,true,0.0-2.0-0.15-0.137-3.137,0,0,1,81,false,stim,false,1,346.5,1,0,1,38099,task2,472622,false,false,595,image-keyboard-response,12
true,5,1,2,1,true,z,false,false,0.0-2.0-0.15-0.138-3.138,0,0,1,90,false,stim,false,1,266.90000000596046,1,1,2,38099,task2,474424,false,true,598,image-keyboard-response,13
true,5,1,2,1,true,z,false,true,0.0-2.0-0.15-0.139-3.139,0,0,1,90,false,stim,false,0,589.9000000059605,1,0,0,38099,task2,476533,false,false,601,image-keyboard-response,14
true,5,1,2,1,true,z,false,true,0.0-2.0-0.15-0.140-3.140,0,0,1,90,false,stim,false,0,511.40000000596046,1,0,0,38099,task2,478584,false,false,604,image-keyboard-response,15
true,5,2,2,1,false,z,true,false,0.0-2.0-0.15-0.141-3.141,0,0,1,68,false,stim,false,1,606.3999999761581,1,1,2,38099,task2,480715,false,false,607,image-keyboard-response,16
true,5,0,2,0,true,q,false,true,0.0-2.0-0.15-0.142-3.142,0,0,1,81,false,stim,false,1,567.1000000238419,1,0,1,38099,task2,482807,false,false,610,image-keyboard-response,17
true,5,1,2,1,true,z,false,true,0.0-2.0-0.15-0.143-3.143,0,0,1,90,false,stim,false,0,328.59999999403954,1,0,0,38099,task2,484661,false,false,613,image-keyboard-response,18
true,5,1,2,0,false,q,false,false,0.0-2.0-0.16-0.144-3.144,0,0,1,90,false,stim,true,1,716.9000000059605,1,0,1,38099,task2,486888,false,false,616,image-keyboard-response,19
true,5,0,2,1,false,z,true,false,0.0-2.0-0.16-0.145-3.145,0,0,1,81,false,stim,false,1,512.3000000119209,1,1,2,38099,task2,488917,false,false,619,image-keyboard-response,20
true,5,0,2,1,false,z,false,false,0.0-2.0-0.16-0.146-3.146,0,0,1,81,false,stim,true,0,585.2999999821186,1,0,0,38099,task2,491032,false,false,622,image-keyboard-response,21
true,5,2,2,1,false,z,true,false,0.0-2.0-0.16-0.147-3.147,0,0,1,68,false,stim,false,0,801.7000000178814,1,0,0,38099,task2,493352,false,false,625,image-keyboard-response,22
true,5,1,2,1,true,z,false,true,0.0-2.0-0.16-0.148-3.148,0,0,1,90,false,stim,false,1,1052.5,1,1,2,38099,task2,495928,false,false,628,image-keyboard-response,23
true,5,1,2,1,true,z,false,true,0.0-2.0-0.16-0.149-3.149,0,0,1,90,false,stim,false,0,761.9000000059605,1,0,0,38099,task2,498217,false,false,631,image-keyboard-response,24
true,5,1,2,1,true,z,false,true,0.0-2.0-0.16-0.150-3.150,0,0,1,90,false,stim,false,1,671.9000000059605,1,1,2,38099,task2,500410,false,false,634,image-keyboard-response,25
true,5,0,2,0,true,q,false,true,0.0-2.0-0.16-0.151-3.151,0,0,1,81,false,stim,false,1,830.1000000238419,1,0,1,38099,task2,502759,false,false,637,image-keyboard-response,26
true,5,0,2,0,true,q,false,true,0.0-2.0-0.16-0.152-3.152,0,0,1,81,false,stim,false,1,636.6999999880791,1,0,1,38099,task2,504922,false,false,640,image-keyboard-response,27
true,5,0,2,0,true,q,false,true,0.0-2.0-0.17-0.153-3.153,0,0,1,81,false,stim,false,1,551.4000000059605,1,0,1,38099,task2,506989,false,false,643,image-keyboard-response,28
true,5,1,2,1,true,z,false,true,0.0-2.0-0.17-0.154-3.154,0,0,1,90,false,stim,false,1,644.4000000059605,1,1,2,38099,task2,509156,false,false,646,image-keyboard-response,29
true,5,0,2,1,false,z,false,false,0.0-2.0-0.17-0.155-3.155,0,0,1,81,false,stim,true,0,496.09999999403954,1,0,0,38099,task2,511175,false,false,649,image-keyboard-response,30
true,5,1,2,1,true,z,false,true,0.0-2.0-0.17-0.156-3.156,0,0,1,90,false,stim,false,1,215.80000001192093,1,0,2,38099,task2,512921,false,false,652,image-keyboard-response,31
true,5,1,2,1,true,z,false,false,0.0-2.0-0.17-0.157-3.157,0,0,1,90,false,stim,false,0,356.7999999821186,1,0,0,38099,task2,514799,false,true,655,image-keyboard-response,32
true,5,2,2,0,false,q,true,false,0.0-2.0-0.17-0.158-3.158,0,0,1,68,false,stim,false,1,392.19999998807907,1,0,1,38099,task2,516706,false,false,658,image-keyboard-response,33
true,5,1,2,1,true,z,false,true,0.0-2.0-0.17-0.159-3.159,0,0,1,90,false,stim,false,1,191.0,1,0,2,38099,task2,518411,false,false,661,image-keyboard-response,34
true,5,1,2,1,true,z,false,true,0.0-2.0-0.17-0.160-3.160,0,0,1,90,false,stim,false,0,355.30000001192093,1,0,0,38099,task2,520291,false,false,664,image-keyboard-response,35
true,6,1,1,2,false,d,true,false,0.0-2.0-0.17-0.161-3.161,0,0,0,90,true,stim,false,0,325.7999999821186,1,0,1,38099,task2,522130,false,false,667,image-keyboard-response,1
true,6,2,1,2,true,d,false,true,0.0-2.0-0.18-0.162-3.162,0,0,0,68,false,stim,false,0,113.2999999821186,1,0,1,38099,task2,523755,false,false,670,image-keyboard-response,2
true,6,2,1,2,true,d,false,true,0.0-2.0-0.18-0.163-3.163,0,0,0,68,false,stim,false,0,309.2000000178814,1,0,1,38099,task2,525586,false,false,673,image-keyboard-response,3
true,6,2,1,0,false,q,true,false,0.0-2.0-0.18-0.164-3.164,0,0,0,68,false,stim,false,1,282.19999998807907,1,0,2,38099,task2,527395,false,false,676,image-keyboard-response,4
true,6,1,1,2,false,d,false,false,0.0-2.0-0.18-0.165-3.165,0,0,0,90,false,stim,true,1,270.80000001192093,1,0,0,38099,task2,529200,false,false,679,image-keyboard-response,5
true,6,0,1,2,false,d,true,false,0.0-2.0-0.18-0.166-3.166,0,0,0,81,false,stim,false,1,366.5,1,0,0,38099,task2,531097,false,false,682,image-keyboard-response,6
true,6,1,1,0,false,q,false,false,0.0-2.0-0.18-0.167-3.167,0,0,0,90,false,stim,true,1,272.7999999821186,1,0,2,38099,task2,532902,false,false,685,image-keyboard-response,7
true,6,2,1,2,true,d,false,true,0.0-2.0-0.18-0.168-3.168,0,0,0,68,false,stim,false,0,378.39999997615814,1,0,1,38099,task2,534815,false,false,688,image-keyboard-response,8
true,6,2,1,0,false,q,true,false,0.0-2.0-0.18-0.169-3.169,0,0,0,68,false,stim,false,1,881.8000000119209,1,0,2,38099,task2,537221,false,false,691,image-keyboard-response,9
true,6,0,1,2,false,d,true,false,0.0-2.0-0.18-0.170-3.170,0,0,0,81,false,stim,false,1,667.8999999761581,1,0,0,38099,task2,539398,false,false,694,image-keyboard-response,10
true,6,1,1,2,false,d,false,false,0.0-2.0-0.19-0.171-3.171,0,0,0,90,false,stim,true,1,284.2999999821186,1,0,0,38099,task2,541201,false,false,697,image-keyboard-response,11
true,6,2,1,2,true,d,false,true,0.0-2.0-0.19-0.172-3.172,0,0,0,68,false,stim,false,1,203.7000000178814,1,0,0,38099,task2,542912,false,false,700,image-keyboard-response,12
true,6,2,1,0,false,q,true,false,0.0-2.0-0.19-0.173-3.173,0,0,0,68,false,stim,false,1,733.4000000059605,1,0,2,38099,task2,545168,false,false,703,image-keyboard-response,13
true,6,1,1,0,false,q,false,false,0.0-2.0-0.19-0.174-3.174,0,0,0,90,false,stim,true,1,481.5,1,0,2,38099,task2,547171,false,false,706,image-keyboard-response,14
true,6,0,1,0,true,q,false,true,0.0-2.0-0.19-0.175-3.175,0,0,0,81,false,stim,false,1,232.59999999403954,1,0,2,38099,task2,548936,false,false,709,image-keyboard-response,15
true,6,0,1,2,false,d,false,false,0.0-2.0-0.19-0.176-3.176,0,0,0,81,false,stim,true,0,1189.0999999940395,1,0,1,38099,task2,551650,false,false,712,image-keyboard-response,16
true,6,2,1,2,true,d,false,true,0.0-2.0-0.19-0.177-3.177,0,0,0,68,false,stim,false,1,331.39999997615814,1,0,0,38099,task2,553508,false,false,715,image-keyboard-response,17
true,6,1,1,2,false,d,true,true,0.0-2.0-0.19-0.178-3.178,0,0,0,90,false,stim,false,0,699.5999999940395,1,0,1,38099,task2,555731,false,true,718,image-keyboard-response,18
true,6,1,1,2,false,d,true,false,0.0-2.0-0.19-0.179-3.179,0,0,0,90,false,stim,false,0,543.7000000178814,1,0,1,38099,task2,557791,false,false,721,image-keyboard-response,19
true,6,0,1,2,false,d,false,false,0.0-2.0-0.20-0.180-3.180,0,0,0,81,false,stim,true,0,335.19999998807907,1,0,1,38099,task2,559643,false,false,724,image-keyboard-response,20
true,6,2,1,2,true,d,false,true,0.0-2.0-0.20-0.181-3.181,0,0,0,68,false,stim,false,1,241.40000000596046,1,0,0,38099,task2,561401,false,false,727,image-keyboard-response,21
true,6,2,1,0,false,q,true,false,0.0-2.0-0.20-0.182-3.182,0,0,0,68,false,stim,false,1,515.2000000178814,1,0,2,38099,task2,563448,false,false,730,image-keyboard-response,22
true,6,1,1,2,false,d,true,false,0.0-2.0-0.20-0.183-3.183,0,0,0,90,false,stim,false,0,507.5,1,0,1,38099,task2,565480,false,false,733,image-keyboard-response,23
true,6,0,1,0,true,q,false,true,0.0-2.0-0.20-0.184-3.184,0,0,0,81,false,stim,false,1,303.5,1,0,2,38099,task2,567318,false,false,736,image-keyboard-response,24
true,6,1,1,2,false,d,false,false,0.0-2.0-0.20-0.185-3.185,0,0,0,90,false,stim,true,1,797.2999999821186,1,0,0,38099,task2,569651,false,false,739,image-keyboard-response,25
true,6,2,1,2,true,d,false,true,0.0-2.0-0.20-0.186-3.186,0,0,0,68,false,stim,false,0,1127.4000000059605,1,0,1,38099,task2,572289,false,false,742,image-keyboard-response,26
true,6,2,1,2,true,d,false,true,0.0-2.0-0.20-0.187-3.187,0,0,0,68,false,stim,false,1,707.0,1,0,0,38099,task2,574508,false,false,745,image-keyboard-response,27
true,6,2,1,0,false,q,true,false,0.0-2.0-0.20-0.188-3.188,0,0,0,68,false,stim,false,1,580.0999999940395,1,0,2,38099,task2,576625,false,false,748,image-keyboard-response,28
true,6,1,1,2,false,d,false,false,0.0-2.0-0.21-0.189-3.189,0,0,0,90,false,stim,true,1,221.69999998807907,1,0,0,38099,task2,578369,false,false,751,image-keyboard-response,29
true,6,2,1,2,true,d,false,true,0.0-2.0-0.21-0.190-3.190,0,0,0,68,false,stim,false,0,629.2999999821186,1,0,1,38099,task2,580535,false,false,754,image-keyboard-response,30
true,6,2,1,2,true,d,false,true,0.0-2.0-0.21-0.191-3.191,0,0,0,68,false,stim,false,0,448.5,1,0,1,38099,task2,582492,false,false,757,image-keyboard-response,31
true,6,2,1,0,false,q,true,false,0.0-2.0-0.21-0.192-3.192,0,0,0,68,false,stim,false,1,639.5,1,0,2,38099,task2,584649,false,false,760,image-keyboard-response,32
true,6,0,1,2,false,d,true,false,0.0-2.0-0.21-0.193-3.193,0,0,0,81,false,stim,false,1,655.6999999880791,1,1,0,38099,task2,586833,false,false,763,image-keyboard-response,33
true,6,1,1,2,false,d,true,false,0.0-2.0-0.21-0.194-3.194,0,0,0,90,false,stim,false,0,303.5,1,0,1,38099,task2,588666,false,false,766,image-keyboard-response,34
true,7,2,2,2,true,d,false,false,0.0-2.0-0.21-0.195-3.195,1,0,0,68,true,stim,false,2,25.200000017881393,1,1,0,38099,task2,590227,false,true,769,image-keyboard-response,1
true,7,1,2,1,true,z,false,true,0.0-2.0-0.21-0.196-3.196,1,0,0,90,false,stim,false,0,438.40000000596046,1,0,2,38099,task2,592184,false,false,772,image-keyboard-response,2
true,7,1,2,1,true,z,false,true,0.0-2.0-0.21-0.197-3.197,1,0,0,90,false,stim,false,0,346.5,1,0,2,38099,task2,594055,false,false,775,image-keyboard-response,3
true,7,1,2,2,false,d,true,false,0.0-2.0-0.22-0.198-3.198,1,0,0,90,false,stim,false,2,308.80000001192093,1,1,0,38099,task2,595900,false,false,778,image-keyboard-response,4
true,7,0,2,1,false,z,false,false,0.0-2.0-0.22-0.199-3.199,1,0,0,81,false,stim,true,0,201.7999999821186,1,0,2,38099,task2,597633,false,false,781,image-keyboard-response,5
true,7,2,2,1,false,z,false,false,0.0-2.0-0.22-0.200-3.200,1,0,0,68,false,stim,true,2,296.09999999403954,1,0,1,38099,task2,599455,false,false,784,image-keyboard-response,6
true,7,1,2,1,true,z,false,true,0.0-2.0-0.22-0.201-3.201,1,0,0,90,false,stim,false,0,267.40000000596046,1,0,2,38099,task2,601234,false,false,787,image-keyboard-response,7
true,7,1,2,2,false,d,true,false,0.0-2.0-0.22-0.202-3.202,1,0,0,90,false,stim,false,2,220.59999999403954,1,1,0,38099,task2,602991,false,false,790,image-keyboard-response,8
true,7,1,2,1,true,z,false,true,0.0-2.0-0.22-0.203-3.203,1,0,0,90,false,stim,false,0,392.7000000178814,1,0,2,38099,task2,604892,false,false,793,image-keyboard-response,9
true,7,1,2,1,true,z,false,true,0.0-2.0-0.22-0.204-3.204,1,0,0,90,false,stim,false,2,577.5,1,0,1,38099,task2,607003,false,false,796,image-keyboard-response,10
true,7,1,2,1,true,z,false,true,0.0-2.0-0.22-0.205-3.205,1,0,0,90,false,stim,false,2,388.40000000596046,1,0,1,38099,task2,608915,false,false,799,image-keyboard-response,11
true,7,1,2,2,false,d,true,true,0.0-2.0-0.22-0.206-3.206,1,0,0,90,false,stim,false,2,314.40000000596046,1,1,0,38099,task2,610759,false,true,802,image-keyboard-response,12
true,7,1,2,1,true,z,false,true,0.0-2.0-0.23-0.207-3.207,1,0,0,90,false,stim,false,0,240.59999999403954,1,0,2,38099,task2,612525,false,false,805,image-keyboard-response,13
true,7,1,2,1,true,z,false,false,0.0-2.0-0.23-0.208-3.208,1,0,0,90,false,stim,false,2,258.40000000596046,1,0,1,38099,task2,614311,false,true,808,image-keyboard-response,14
true,7,2,2,1,false,z,true,false,0.0-2.0-0.23-0.209-3.209,1,0,0,68,false,stim,false,0,299.90000000596046,1,0,2,38099,task2,616138,false,false,811,image-keyboard-response,15
true,7,2,2,2,true,d,false,true,0.0-2.0-0.23-0.210-3.210,1,0,0,68,false,stim,false,2,372.60000002384186,1,1,0,38099,task2,618046,false,false,814,image-keyboard-response,16
true,7,2,2,2,true,d,false,false,0.0-2.0-0.23-0.211-3.211,1,0,0,68,false,stim,false,2,378.0,1,1,0,38099,task2,619949,false,true,817,image-keyboard-response,17
true,7,2,2,2,true,d,false,true,0.0-2.0-0.23-0.212-3.212,1,0,0,68,false,stim,false,2,291.0,1,1,0,38099,task2,621762,false,false,820,image-keyboard-response,18
true,7,1,2,1,true,z,false,true,0.0-2.0-0.23-0.213-3.213,1,0,0,90,false,stim,false,2,853.0999999940395,1,0,1,38099,task2,624128,false,false,823,image-keyboard-response,19
true,7,0,2,1,false,z,false,false,0.0-2.0-0.23-0.214-3.214,1,0,0,81,false,stim,true,0,785.3000000119209,1,0,2,38099,task2,626433,false,false,826,image-keyboard-response,20
true,7,1,2,1,true,z,false,true,0.0-2.0-0.23-0.215-3.215,1,0,0,90,false,stim,false,2,623.5999999940395,1,0,1,38099,task2,628580,false,false,829,image-keyboard-response,21
true,7,2,2,1,false,z,true,true,0.0-2.0-0.24-0.216-3.216,1,0,0,68,false,stim,false,0,893.4000000059605,1,0,2,38099,task2,631003,false,true,832,image-keyboard-response,22
true,7,2,2,1,false,z,true,false,0.0-2.0-0.24-0.217-3.217,1,0,0,68,false,stim,false,0,317.90000000596046,1,0,2,38099,task2,632833,false,false,835,image-keyboard-response,23
true,7,2,2,1,false,z,true,false,0.0-2.0-0.24-0.218-3.218,1,0,0,68,false,stim,false,0,214.2000000178814,1,0,2,38099,task2,634582,false,false,838,image-keyboard-response,24
true,7,1,2,1,true,z,false,true,0.0-2.0-0.24-0.219-3.219,1,0,0,90,false,stim,false,2,2126.199999988079,1,0,1,38099,task2,638236,false,false,841,image-keyboard-response,25
true,7,1,2,1,true,z,false,true,0.0-2.0-0.24-0.220-3.220,1,0,0,90,false,stim,false,2,331.30000001192093,1,0,1,38099,task2,640080,false,false,844,image-keyboard-response,26
true,7,1,2,1,true,z,false,true,0.0-2.0-0.24-0.221-3.221,1,0,0,90,false,stim,false,2,444.7999999821186,1,0,1,38099,task2,642060,false,false,847,image-keyboard-response,27
true,7,0,2,2,false,d,true,true,0.0-2.0-0.24-0.222-3.222,1,0,0,81,false,stim,false,2,697.7000000178814,1,1,0,38099,task2,644278,false,true,850,image-keyboard-response,28
true,7,0,2,2,false,d,true,false,0.0-2.0-0.24-0.223-3.223,1,0,0,81,false,stim,false,2,516.6999999880791,1,1,0,38099,task2,646315,false,false,853,image-keyboard-response,29
true,7,0,2,2,false,d,true,false,0.0-2.0-0.24-0.224-3.224,1,0,0,81,false,stim,false,2,323.59999999403954,1,1,0,38099,task2,648165,false,false,856,image-keyboard-response,30
true,7,2,2,1,false,z,true,false,0.0-2.0-0.25-0.225-3.225,1,0,0,68,false,stim,false,0,741.1999999880791,1,0,2,38099,task2,650436,false,false,859,image-keyboard-response,31
true,7,1,2,1,true,z,false,true,0.0-2.0-0.25-0.226-3.226,1,0,0,90,false,stim,false,0,295.30000001192093,1,0,2,38099,task2,652268,false,false,862,image-keyboard-response,32
true,7,1,2,1,true,z,false,true,0.0-2.0-0.25-0.227-3.227,1,0,0,90,false,stim,false,0,266.2999999821186,1,0,2,38099,task2,654059,false,false,865,image-keyboard-response,33
true,7,1,2,2,false,d,true,true,0.0-2.0-0.25-0.228-3.228,1,0,0,90,false,stim,false,2,832.5,1,1,0,38099,task2,656415,false,true,868,image-keyboard-response,34
true,8,1,2,0,false,q,false,false,0.0-2.0-0.25-0.229-3.229,1,0,0,90,true,stim,true,1,397.09999999403954,1,0,1,38099,task2,658326,false,false,871,image-keyboard-response,1
true,8,1,2,0,false,q,false,false,0.0-2.0-0.25-0.230-3.230,1,0,0,90,false,stim,true,1,299.90000000596046,1,0,1,38099,task2,660147,false,false,874,image-keyboard-response,2
true,8,1,2,0,false,q,false,true,0.0-2.0-0.25-0.231-3.231,1,0,0,90,false,stim,true,1,304.69999998807907,1,0,1,38099,task2,661990,false,true,877,image-keyboard-response,3
true,8,1,2,2,false,d,true,false,0.0-2.0-0.25-0.232-3.232,1,0,0,90,false,stim,false,2,341.0,1,1,0,38099,task2,663851,false,false,880,image-keyboard-response,4
true,8,1,2,2,false,d,true,false,0.0-2.0-0.25-0.233-3.233,1,0,0,90,false,stim,false,2,231.7999999821186,1,1,0,38099,task2,665612,false,false,883,image-keyboard-response,5
true,8,1,2,0,false,q,false,false,0.0-2.0-0.26-0.234-3.234,1,0,0,90,false,stim,true,1,241.09999999403954,1,0,2,38099,task2,667380,false,false,886,image-keyboard-response,6
true,8,1,2,0,false,q,false,false,0.0-2.0-0.26-0.235-3.235,1,0,0,90,false,stim,true,1,274.69999998807907,1,0,1,38099,task2,669189,false,false,889,image-keyboard-response,7
true,8,1,2,0,false,q,false,false,0.0-2.0-0.26-0.236-3.236,1,0,0,90,false,stim,true,1,15.100000023841858,1,0,1,38099,task2,670735,false,false,892,image-keyboard-response,8
true,8,2,2,0,false,q,true,true,0.0-2.0-0.26-0.237-3.237,1,0,0,68,false,stim,false,1,502.2000000178814,1,0,2,38099,task2,672763,false,true,895,image-keyboard-response,9
true,8,2,2,2,true,d,false,true,0.0-2.0-0.26-0.238-3.238,1,0,0,68,false,stim,false,2,362.40000000596046,1,1,0,38099,task2,674653,false,false,898,image-keyboard-response,10
true,8,2,2,0,false,q,true,false,0.0-2.0-0.26-0.239-3.239,1,0,0,68,false,stim,false,1,295.19999998807907,1,0,2,38099,task2,676492,false,false,901,image-keyboard-response,11
true,8,2,2,2,true,d,false,true,0.0-2.0-0.26-0.240-3.240,1,0,0,68,false,stim,false,2,318.09999999403954,1,1,0,38099,task2,678330,false,false,904,image-keyboard-response,12
true,8,2,2,2,true,d,false,true,0.0-2.0-0.26-0.241-3.241,1,0,0,68,false,stim,false,2,285.5,1,1,0,38099,task2,680150,false,false,907,image-keyboard-response,13
true,8,2,2,0,false,q,true,false,0.0-2.0-0.26-0.242-3.242,1,0,0,68,false,stim,false,1,69.5,1,0,1,38099,task2,681756,false,false,910,image-keyboard-response,14
true,8,0,2,0,true,q,false,true,0.0-2.0-0.27-0.243-3.243,1,0,0,81,false,stim,false,1,314.40000000596046,1,0,1,38099,task2,683587,false,false,913,image-keyboard-response,15
true,8,2,2,2,true,d,false,false,0.0-2.0-0.27-0.244-3.244,1,0,0,68,false,stim,false,2,953.2000000178814,1,1,0,38099,task2,686052,false,true,916,image-keyboard-response,16
true,8,2,2,0,false,q,true,false,0.0-2.0-0.27-0.245-3.245,1,0,0,68,false,stim,false,1,634.9000000059605,1,0,2,38099,task2,688220,false,false,919,image-keyboard-response,17
true,8,2,2,0,false,q,true,false,0.0-2.0-0.27-0.246-3.246,1,0,0,68,false,stim,false,1,328.0,1,0,2,38099,task2,690085,false,false,922,image-keyboard-response,18
true,8,2,2,2,true,d,false,true,0.0-2.0-0.27-0.247-3.247,1,0,0,68,false,stim,false,2,333.69999998807907,1,1,0,38099,task2,691942,false,false,925,image-keyboard-response,19
true,8,0,2,0,true,q,false,true,0.0-2.0-0.27-0.248-3.248,1,0,0,81,false,stim,false,1,591.0,1,0,1,38099,task2,694066,false,false,928,image-keyboard-response,20
true,8,0,2,0,true,q,false,false,0.0-2.0-0.27-0.249-3.249,1,0,0,81,false,stim,false,1,430.40000000596046,1,0,1,38099,task2,696013,false,true,931,image-keyboard-response,21
true,8,2,2,2,true,d,false,true,0.0-2.0-0.27-0.250-3.250,1,0,0,68,false,stim,false,2,657.6000000238419,1,1,0,38099,task2,698206,false,false,934,image-keyboard-response,22
true,8,2,2,0,false,q,true,false,0.0-2.0-0.27-0.251-3.251,1,0,0,68,false,stim,false,1,556.2000000178814,1,0,2,38099,task2,700289,false,false,937,image-keyboard-response,23
true,8,1,2,0,false,q,false,false,0.0-2.0-0.28-0.252-3.252,1,0,0,90,false,stim,true,1,262.69999998807907,1,0,1,38099,task2,702081,false,false,940,image-keyboard-response,24
true,8,2,2,0,false,q,true,false,0.0-2.0-0.28-0.253-3.253,1,0,0,68,false,stim,false,1,492.90000000596046,1,0,2,38099,task2,704085,false,false,943,image-keyboard-response,25
true,8,0,2,0,true,q,false,true,0.0-2.0-0.28-0.254-3.254,1,0,0,81,false,stim,false,1,345.60000002384186,1,0,1,38099,task2,705965,false,false,946,image-keyboard-response,26
true,8,2,2,2,true,d,false,true,0.0-2.0-0.28-0.255-3.255,1,0,0,68,false,stim,false,2,745.0999999940395,1,1,0,38099,task2,708246,false,false,949,image-keyboard-response,27
true,8,2,2,2,true,d,false,true,0.0-2.0-0.28-0.256-3.256,1,0,0,68,false,stim,false,2,485.90000000596046,1,1,0,38099,task2,710260,false,false,952,image-keyboard-response,28
true,8,2,2,0,false,q,true,false,0.0-2.0-0.28-0.257-3.257,1,0,0,68,false,stim,false,1,668.5,1,0,2,38099,task2,712451,false,false,955,image-keyboard-response,29
true,8,2,2,0,false,q,true,false,0.0-2.0-0.28-0.258-3.258,1,0,0,68,false,stim,false,1,438.7999999821186,1,0,2,38099,task2,714420,false,false,958,image-keyboard-response,30
true,8,2,2,0,false,q,true,false,0.0-2.0-0.28-0.259-3.259,1,0,0,68,false,stim,false,1,399.7000000178814,1,0,1,38099,task2,716344,false,false,961,image-keyboard-response,31
true,8,0,2,2,false,d,true,false,0.0-2.0-0.28-0.260-3.260,1,0,0,81,false,stim,false,2,386.0,1,1,0,38099,task2,718264,false,false,964,image-keyboard-response,32
true,8,0,2,0,true,q,false,true,0.0-2.0-0.29-0.261-3.261,1,0,0,81,false,stim,false,1,825.7000000178814,1,0,2,38099,task2,720608,false,false,967,image-keyboard-response,33
true,8,0,2,2,false,d,true,false,0.0-2.0-0.29-0.262-3.262,1,0,0,81,false,stim,false,2,363.09999999403954,1,1,0,38099,task2,722503,false,false,970,image-keyboard-response,34
true,9,0,2,1,false,z,false,false,0.0-2.0-0.29-0.263-3.263,1,0,0,81,true,stim,true,0,348.69999998807907,1,0,2,38099,task2,724361,false,false,973,image-keyboard-response,1
true,9,0,2,2,false,d,false,false,0.0-2.0-0.29-0.264-3.264,1,0,0,81,false,stim,true,0,266.2999999821186,1,0,1,38099,task2,726166,false,false,976,image-keyboard-response,2
true,9,1,2,2,false,d,true,true,0.0-2.0-0.29-0.265-3.265,1,0,0,90,false,stim,false,2,233.5,1,1,0,38099,task2,727911,false,true,979,image-keyboard-response,3
true,9,1,2,1,true,z,false,true,0.0-2.0-0.29-0.266-3.266,1,0,0,90,false,stim,false,0,394.39999997615814,1,0,2,38099,task2,729818,false,false,982,image-keyboard-response,4
true,9,1,2,2,false,d,true,true,0.0-2.0-0.29-0.267-3.267,1,0,0,90,false,stim,false,2,342.2000000178814,1,1,0,38099,task2,731698,false,true,985,image-keyboard-response,5
true,9,1,2,2,false,d,true,true,0.0-2.0-0.29-0.268-3.268,1,0,0,90,false,stim,false,0,530.9000000059605,1,0,1,38099,task2,733738,false,true,988,image-keyboard-response,6
true,9,1,2,2,false,d,true,false,0.0-2.0-0.29-0.269-3.269,1,0,0,90,false,stim,false,0,565.5999999940395,1,0,1,38099,task2,735815,false,false,991,image-keyboard-response,7
true,9,1,2,2,false,d,true,false,0.0-2.0-0.30-0.270-3.270,1,0,0,90,false,stim,false,2,583.8999999761581,1,1,0,38099,task2,737925,false,false,994,image-keyboard-response,8
true,9,1,2,2,false,d,true,false,0.0-2.0-0.30-0.271-3.271,1,0,0,90,false,stim,false,2,344.90000000596046,1,1,0,38099,task2,739805,false,false,997,image-keyboard-response,9
true,9,1,2,2,false,d,true,false,0.0-2.0-0.30-0.272-3.272,1,0,0,90,false,stim,false,0,555.6999999880791,1,0,1,38099,task2,741883,false,false,1000,image-keyboard-response,10
true,9,1,2,2,false,d,true,false,0.0-2.0-0.30-0.273-3.273,1,0,0,90,false,stim,false,0,444.80000001192093,1,0,1,38099,task2,743871,false,false,1003,image-keyboard-response,11
true,9,1,2,2,false,d,true,false,0.0-2.0-0.30-0.274-3.274,1,0,0,90,false,stim,false,2,631.6000000238419,1,1,0,38099,task2,746035,false,false,1006,image-keyboard-response,12
true,9,2,2,1,false,z,true,false,0.0-2.0-0.30-0.275-3.275,1,0,0,68,false,stim,false,0,595.1999999880791,1,0,2,38099,task2,748166,false,false,1009,image-keyboard-response,13
true,9,2,2,2,true,d,false,true,0.0-2.0-0.30-0.276-3.276,1,0,0,68,false,stim,false,0,269.90000000596046,1,0,1,38099,task2,749961,false,false,1012,image-keyboard-response,14
true,9,2,2,1,false,z,true,false,0.0-2.0-0.30-0.277-3.277,1,0,0,68,false,stim,false,0,434.5,1,0,2,38099,task2,751917,false,false,1015,image-keyboard-response,15
true,9,2,2,1,false,z,true,false,0.0-2.0-0.30-0.278-3.278,1,0,0,68,false,stim,false,0,707.4000000059605,1,0,2,38099,task2,754151,false,false,1018,image-keyboard-response,16
true,9,1,2,2,false,d,true,true,0.0-2.0-0.31-0.279-3.279,1,0,0,90,false,stim,false,0,323.80000001192093,1,0,1,38099,task2,756010,false,true,1021,image-keyboard-response,17
true,9,1,2,2,false,d,true,false,0.0-2.0-0.31-0.280-3.280,1,0,0,90,false,stim,false,2,548.9000000059605,1,1,0,38099,task2,758076,false,false,1024,image-keyboard-response,18
true,9,1,2,2,false,d,true,false,0.0-2.0-0.31-0.281-3.281,1,0,0,90,false,stim,false,0,481.59999999403954,1,0,1,38099,task2,760071,false,false,1027,image-keyboard-response,19
true,9,0,2,1,false,z,false,false,0.0-2.0-0.31-0.282-3.282,1,0,0,81,false,stim,true,0,456.59999999403954,1,0,2,38099,task2,762045,false,false,1030,image-keyboard-response,20
true,9,0,2,2,false,d,false,false,0.0-2.0-0.31-0.283-3.283,1,0,0,81,false,stim,true,0,509.90000000596046,1,0,1,38099,task2,764077,false,false,1033,image-keyboard-response,21
true,9,0,2,1,false,z,false,false,0.0-2.0-0.31-0.284-3.284,1,0,0,81,false,stim,true,0,99.30000001192093,1,0,2,38099,task2,765705,false,false,1036,image-keyboard-response,22
true,9,1,2,1,true,z,false,false,0.0-2.0-0.31-0.285-3.285,1,0,0,90,false,stim,false,0,432.19999998807907,1,0,2,38099,task2,767655,false,true,1039,image-keyboard-response,23
true,9,2,2,2,true,d,false,true,0.0-2.0-0.31-0.286-3.286,1,0,0,68,false,stim,false,2,366.19999998807907,1,1,0,38099,task2,769548,false,false,1042,image-keyboard-response,24
true,9,2,2,2,true,d,false,true,0.0-2.0-0.31-0.287-3.287,1,0,0,68,false,stim,false,2,336.10000002384186,1,1,0,38099,task2,771405,false,false,1045,image-keyboard-response,25
true,9,2,2,2,true,d,false,false,0.0-2.0-0.32-0.288-3.288,1,0,0,68,false,stim,false,2,190.80000001192093,1,1,0,38099,task2,773125,false,true,1048,image-keyboard-response,26
true,9,2,2,1,false,z,true,false,0.0-2.0-0.32-0.289-3.289,1,0,0,68,false,stim,false,0,378.89999997615814,1,0,2,38099,task2,775039,false,false,1051,image-keyboard-response,27
true,9,0,2,2,false,d,false,false,0.0-2.0-0.32-0.290-3.290,1,0,0,81,false,stim,true,0,623.5,1,0,1,38099,task2,777182,false,false,1054,image-keyboard-response,28
true,9,1,2,1,true,z,false,true,0.0-2.0-0.32-0.291-3.291,1,0,0,90,false,stim,false,0,1986.0,1,0,2,38099,task2,780684,false,false,1057,image-keyboard-response,29
true,9,0,2,2,false,d,false,false,0.0-2.0-0.32-0.292-3.292,1,0,0,81,false,stim,true,0,1130.0999999940395,1,0,1,38099,task2,783349,false,false,1060,image-keyboard-response,30
true,9,1,2,2,false,d,true,false,0.0-2.0-0.32-0.293-3.293,1,0,0,90,false,stim,false,2,320.09999999403954,1,1,0,38099,task2,785195,false,false,1063,image-keyboard-response,31
true,10,2,2,2,true,d,false,true,0.0-2.0-0.32-0.294-3.294,1,0,0,68,true,stim,false,1,395.19999998807907,1,0,2,38099,task2,787105,false,false,1066,image-keyboard-response,1
true,10,2,2,2,true,d,false,true,0.0-2.0-0.32-0.295-3.295,1,0,0,68,false,stim,false,2,325.59999999403954,1,1,0,38099,task2,788951,false,false,1069,image-keyboard-response,2
true,10,2,2,1,false,z,false,false,0.0-2.0-0.32-0.296-3.296,1,0,0,68,false,stim,true,2,481.0,1,0,1,38099,task2,790962,false,false,1072,image-keyboard-response,3
true,10,0,2,2,false,d,true,false,0.0-2.0-0.33-0.297-3.297,1,0,0,81,false,stim,false,1,280.30000001192093,1,0,2,38099,task2,792775,false,false,1075,image-keyboard-response,4
true,10,1,2,1,true,z,false,true,0.0-2.0-0.33-0.298-3.298,1,0,0,90,false,stim,false,2,846.3000000119209,1,0,1,38099,task2,795147,false,false,1078,image-keyboard-response,5
true,10,1,2,2,false,d,true,false,0.0-2.0-0.33-0.299-3.299,1,0,0,90,false,stim,false,2,396.7000000178814,1,1,0,38099,task2,797069,false,false,1081,image-keyboard-response,6
true,10,0,2,2,false,d,true,false,0.0-2.0-0.33-0.300-3.300,1,0,0,81,false,stim,false,2,289.39999997615814,1,1,0,38099,task2,798884,false,false,1084,image-keyboard-response,7
true,10,0,2,2,false,d,true,false,0.0-2.0-0.33-0.301-3.301,1,0,0,81,false,stim,false,1,674.0999999940395,1,0,2,38099,task2,801091,false,false,1087,image-keyboard-response,8
true,10,0,2,2,false,d,true,false,0.0-2.0-0.33-0.302-3.302,1,0,0,81,false,stim,false,1,786.2000000178814,1,0,2,38099,task2,803393,false,false,1090,image-keyboard-response,9
true,10,1,2,1,true,z,false,true,0.0-2.0-0.33-0.303-3.303,1,0,0,90,false,stim,false,2,1772.7999999821186,1,0,1,38099,task2,806691,false,false,1093,image-keyboard-response,10
true,10,0,2,1,false,z,true,false,0.0-2.0-0.33-0.304-3.304,1,0,0,81,false,stim,false,2,1194.9000000059605,1,0,1,38099,task2,809423,false,false,1096,image-keyboard-response,11
true,10,2,2,2,true,d,false,true,0.0-2.0-0.33-0.305-3.305,1,0,0,68,false,stim,false,2,357.39999997615814,1,1,0,38099,task2,811318,false,false,1099,image-keyboard-response,12
true,10,2,2,2,true,d,false,true,0.0-2.0-0.34-0.306-3.306,1,0,0,68,false,stim,false,1,718.8000000119209,1,0,2,38099,task2,813573,false,false,1102,image-keyboard-response,13
true,10,2,2,2,true,d,false,true,0.0-2.0-0.34-0.307-3.307,1,0,0,68,false,stim,false,1,454.69999998807907,1,0,2,38099,task2,815564,false,false,1105,image-keyboard-response,14
false,10,-1,2,2,false,d,true,false,0.0-2.0-0.34-0.308-3.308,1,0,0,,false,stim,false,1,,1,0,2,38099,task2,820103,false,false,1108,image-keyboard-response,15
true,10,1,2,1,true,z,false,true,0.0-2.0-0.34-0.309-3.309,1,0,0,90,false,stim,false,2,2012.300000011921,1,0,1,38099,task2,823639,false,false,1111,image-keyboard-response,16
true,10,1,2,1,true,z,false,true,0.0-2.0-0.34-0.310-3.310,1,0,0,90,false,stim,false,2,371.59999999403954,1,0,1,38099,task2,825548,false,false,1114,image-keyboard-response,17
true,10,1,2,2,false,d,true,false,0.0-2.0-0.34-0.311-3.311,1,0,0,90,false,stim,false,2,328.80000001192093,1,1,0,38099,task2,827406,false,false,1117,image-keyboard-response,18
true,10,2,2,2,true,d,false,true,0.0-2.0-0.34-0.312-3.312,1,0,0,68,false,stim,false,2,303.0,1,1,0,38099,task2,829234,false,false,1120,image-keyboard-response,19
true,10,2,2,1,false,z,false,false,0.0-2.0-0.34-0.313-3.313,1,0,0,68,false,stim,true,2,742.5,1,0,1,38099,task2,831512,false,false,1123,image-keyboard-response,20
true,10,2,2,2,true,d,false,true,0.0-2.0-0.34-0.314-3.314,1,0,0,68,false,stim,false,2,1802.199999988079,1,1,0,38099,task2,834852,false,false,1126,image-keyboard-response,21
true,10,2,2,1,false,z,false,false,0.0-2.0-0.35-0.315-3.315,1,0,0,68,false,stim,true,2,453.90000000596046,1,0,1,38099,task2,836822,false,false,1129,image-keyboard-response,22
true,10,1,2,2,false,d,false,false,0.0-2.0-0.35-0.316-3.316,1,0,0,90,false,stim,true,1,403.7000000178814,1,0,2,38099,task2,838766,false,false,1132,image-keyboard-response,23
true,10,0,2,2,false,d,true,false,0.0-2.0-0.35-0.317-3.317,1,0,0,81,false,stim,false,2,493.90000000596046,1,1,0,38099,task2,840785,false,false,1135,image-keyboard-response,24
true,10,1,2,2,false,d,true,false,0.0-2.0-0.35-0.318-3.318,1,0,0,90,false,stim,false,2,294.5,1,1,0,38099,task2,842612,false,false,1138,image-keyboard-response,25
true,10,0,2,2,false,d,true,false,0.0-2.0-0.35-0.319-3.319,1,0,0,81,false,stim,false,1,470.59999999403954,1,0,2,38099,task2,844610,false,false,1141,image-keyboard-response,26
true,10,1,2,1,true,z,false,true,0.0-2.0-0.35-0.320-3.320,1,0,0,90,false,stim,false,2,536.8999999761581,1,0,1,38099,task2,846661,false,false,1144,image-keyboard-response,27
true,10,1,2,2,false,d,false,false,0.0-2.0-0.35-0.321-3.321,1,0,0,90,false,stim,true,1,937.0999999940395,1,0,2,38099,task2,849136,false,false,1147,image-keyboard-response,28
true,10,1,2,1,true,z,false,true,0.0-2.0-0.35-0.322-3.322,1,0,0,90,false,stim,false,2,1069.5,1,0,1,38099,task2,851721,false,false,1150,image-keyboard-response,29
true,10,1,2,2,false,d,true,false,0.0-2.0-0.35-0.323-3.323,1,0,0,90,false,stim,false,2,805.0,1,0,0,38099,task2,854064,false,false,1153,image-keyboard-response,30
true,10,1,2,2,false,d,false,false,0.0-2.0-0.36-0.324-3.324,1,0,0,90,false,stim,true,1,2248.199999988079,1,0,2,38099,task2,857848,false,false,1156,image-keyboard-response,31
true,11,2,1,0,false,q,false,false,0.0-2.0-0.36-0.325-3.325,0,0,0,68,true,stim,true,2,323.89999997615814,1,0,0,38099,task2,859685,false,false,1159,image-keyboard-response,1
true,11,0,1,0,true,q,false,true,0.0-2.0-0.36-0.326-3.326,0,0,0,81,false,stim,false,1,408.69999998807907,1,0,1,38099,task2,861622,false,false,1162,image-keyboard-response,2
true,11,0,1,0,true,q,false,true,0.0-2.0-0.36-0.327-3.327,0,0,0,81,false,stim,false,2,2164.5999999940395,1,0,0,38099,task2,865311,false,false,1165,image-keyboard-response,3
true,11,0,1,1,false,z,true,false,0.0-2.0-0.36-0.328-3.328,0,0,0,81,false,stim,false,2,581.5999999940395,1,0,2,38099,task2,867421,false,false,1168,image-keyboard-response,4
true,11,1,1,0,false,q,true,false,0.0-2.0-0.36-0.329-3.329,0,0,0,90,false,stim,false,2,294.59999999403954,1,0,0,38099,task2,869240,false,false,1171,image-keyboard-response,5
true,11,2,1,0,false,q,true,true,0.0-2.0-0.36-0.330-3.330,0,0,0,68,false,stim,false,1,315.5,1,0,1,38099,task2,871086,false,true,1174,image-keyboard-response,6
true,11,2,1,1,false,z,false,false,0.0-2.0-0.36-0.331-3.331,0,0,0,68,false,stim,true,2,770.8000000119209,1,0,2,38099,task2,873393,false,false,1177,image-keyboard-response,7
true,11,2,1,0,false,q,true,false,0.0-2.0-0.36-0.332-3.332,0,0,0,68,false,stim,false,1,376.5,1,0,1,38099,task2,875290,false,false,1180,image-keyboard-response,8
true,11,1,1,0,false,q,true,false,0.0-2.0-0.37-0.333-3.333,0,0,0,90,false,stim,false,2,359.90000000596046,1,0,0,38099,task2,877172,false,false,1183,image-keyboard-response,9
true,11,1,1,0,false,q,true,false,0.0-2.0-0.37-0.334-3.334,0,0,0,90,false,stim,false,2,451.7000000178814,1,0,0,38099,task2,879135,false,false,1186,image-keyboard-response,10
true,11,0,1,0,true,q,false,false,0.0-2.0-0.37-0.335-3.335,0,0,0,81,false,stim,false,1,373.90000000596046,1,0,1,38099,task2,881047,false,true,1189,image-keyboard-response,11
true,11,0,1,0,true,q,false,true,0.0-2.0-0.37-0.336-3.336,0,0,0,81,false,stim,false,2,645.7000000178814,1,0,0,38099,task2,883220,false,false,1192,image-keyboard-response,12
true,11,0,1,1,false,z,true,false,0.0-2.0-0.37-0.337-3.337,0,0,0,81,false,stim,false,2,472.2000000178814,1,0,2,38099,task2,885227,false,false,1195,image-keyboard-response,13
true,11,2,1,1,false,z,false,false,0.0-2.0-0.37-0.338-3.338,0,0,0,68,false,stim,true,2,523.9000000059605,1,0,2,38099,task2,887277,false,false,1198,image-keyboard-response,14
true,11,0,1,1,false,z,true,false,0.0-2.0-0.37-0.339-3.339,0,0,0,81,false,stim,false,2,393.40000000596046,1,0,2,38099,task2,889205,false,false,1201,image-keyboard-response,15
true,11,1,1,0,false,q,false,false,0.0-2.0-0.37-0.340-3.340,0,0,0,90,false,stim,true,1,310.2000000178814,1,0,1,38099,task2,891047,false,false,1204,image-keyboard-response,16
true,11,1,1,0,false,q,false,true,0.0-2.0-0.37-0.341-3.341,0,0,0,90,false,stim,true,1,453.59999999403954,1,0,1,38099,task2,893011,false,true,1207,image-keyboard-response,17
true,11,1,1,0,false,q,true,false,0.0-2.0-0.38-0.342-3.342,0,0,0,90,false,stim,false,2,533.0,1,0,0,38099,task2,895070,false,false,1210,image-keyboard-response,18
true,11,1,1,0,false,q,false,false,0.0-2.0-0.38-0.343-3.343,0,0,0,90,false,stim,true,1,371.5,1,0,1,38099,task2,896969,false,false,1213,image-keyboard-response,19
true,11,0,1,0,true,q,false,true,0.0-2.0-0.38-0.344-3.344,0,0,0,81,false,stim,false,1,1776.4000000059605,1,0,1,38099,task2,900279,false,false,1216,image-keyboard-response,20
true,11,1,1,0,false,q,false,false,0.0-2.0-0.38-0.345-3.345,0,0,0,90,false,stim,true,1,504.80000001192093,1,0,1,38099,task2,902319,false,false,1219,image-keyboard-response,21
true,11,1,1,1,true,z,false,true,0.0-2.0-0.38-0.346-3.346,0,0,0,90,false,stim,false,2,560.5999999940395,1,0,2,38099,task2,904414,false,false,1222,image-keyboard-response,22
true,11,1,1,0,false,q,true,false,0.0-2.0-0.38-0.347-3.347,0,0,0,90,false,stim,false,2,434.0,1,0,0,38099,task2,906375,false,false,1225,image-keyboard-response,23
true,11,2,1,0,false,q,false,false,0.0-2.0-0.38-0.348-3.348,0,0,0,68,false,stim,true,2,259.09999999403954,1,0,0,38099,task2,908158,false,false,1228,image-keyboard-response,24
true,11,0,1,1,false,z,true,false,0.0-2.0-0.38-0.349-3.349,0,0,0,81,false,stim,false,2,777.0,1,0,2,38099,task2,910461,false,false,1231,image-keyboard-response,25
true,11,1,1,1,true,z,false,true,0.0-2.0-0.38-0.350-3.350,0,0,0,90,false,stim,false,2,1443.2000000178814,1,0,2,38099,task2,913441,false,false,1234,image-keyboard-response,26
true,11,1,1,1,true,z,false,true,0.0-2.0-0.39-0.351-3.351,0,0,0,90,false,stim,false,2,437.0,1,0,2,38099,task2,915419,false,false,1237,image-keyboard-response,27
true,11,1,1,1,true,z,false,true,0.0-2.0-0.39-0.352-3.352,0,0,0,90,false,stim,false,2,661.7000000178814,1,0,2,38099,task2,917593,false,false,1240,image-keyboard-response,28
true,11,1,1,0,false,q,false,false,0.0-2.0-0.39-0.353-3.353,0,0,0,90,false,stim,true,1,1468.4000000059605,1,0,1,38099,task2,920600,false,false,1243,image-keyboard-response,29
true,11,1,1,1,true,z,false,true,0.0-2.0-0.39-0.354-3.354,0,0,0,90,false,stim,false,2,192.7999999821186,1,0,2,38099,task2,922328,false,false,1246,image-keyboard-response,30
true,11,1,1,0,false,q,true,false,0.0-2.0-0.39-0.355-3.355,0,0,0,90,false,stim,false,2,721.5,1,0,0,38099,task2,924586,false,false,1249,image-keyboard-response,31
true,11,1,1,0,false,q,true,false,0.0-2.0-0.39-0.356-3.356,0,0,0,90,false,stim,false,2,403.19999998807907,1,0,0,38099,task2,926512,false,false,1252,image-keyboard-response,32
true,11,1,1,0,false,q,true,false,0.0-2.0-0.39-0.357-3.357,0,0,0,90,false,stim,false,2,624.5999999940395,1,0,0,38099,task2,928651,false,false,1255,image-keyboard-response,33
true,11,1,1,0,false,q,false,false,0.0-2.0-0.39-0.358-3.358,0,0,0,90,false,stim,true,1,65.59999999403954,1,0,1,38099,task2,930247,false,false,1258,image-keyboard-response,34
true,11,1,1,0,false,q,false,false,0.0-2.0-0.39-0.359-3.359,0,0,0,90,false,stim,true,1,922.7000000178814,1,0,1,38099,task2,932692,false,false,1261,image-keyboard-response,35
true,11,1,1,0,false,q,false,false,0.0-2.0-0.40-0.360-3.360,0,0,0,90,false,stim,true,1,355.40000000596046,1,0,1,38099,task2,934574,false,false,1264,image-keyboard-response,36
true,11,1,1,0,false,q,false,false,0.0-2.0-0.40-0.361-3.361,0,0,0,90,false,stim,true,1,672.0,1,0,1,38099,task2,936775,false,false,1267,image-keyboard-response,37
true,11,1,1,0,false,q,true,false,0.0-2.0-0.40-0.362-3.362,0,0,0,90,false,stim,false,2,2196.300000011921,1,0,0,38099,task2,940498,false,false,1270,image-keyboard-response,38
true,12,0,1,0,true,q,false,true,0.0-2.0-0.40-0.363-3.363,0,0,0,81,true,stim,false,1,787.9000000059605,1,0,2,38099,task2,942816,false,false,1273,image-keyboard-response,1
true,12,0,1,2,false,d,false,false,0.0-2.0-0.40-0.364-3.364,0,0,0,81,false,stim,true,0,632.7999999821186,1,0,0,38099,task2,944985,false,false,1276,image-keyboard-response,2
true,12,0,1,1,false,z,false,false,0.0-2.0-0.40-0.365-3.365,0,0,0,81,false,stim,true,0,933.5999999940395,1,0,1,38099,task2,947452,false,false,1279,image-keyboard-response,3
true,12,2,1,0,false,q,true,false,0.0-2.0-0.40-0.366-3.366,0,0,0,68,false,stim,false,1,263.7000000178814,1,0,2,38099,task2,949248,false,false,1282,image-keyboard-response,4
true,12,1,1,2,false,d,true,false,0.0-2.0-0.40-0.367-3.367,0,0,0,90,false,stim,false,0,752.3000000119209,1,0,0,38099,task2,951527,false,false,1285,image-keyboard-response,5
true,12,1,1,0,false,q,false,false,0.0-2.0-0.40-0.368-3.368,0,0,0,90,false,stim,true,1,236.0,1,0,2,38099,task2,953288,false,false,1288,image-keyboard-response,6
true,12,2,1,2,true,d,false,true,0.0-2.0-0.41-0.369-3.369,0,0,0,68,false,stim,false,0,536.0,1,0,0,38099,task2,955348,false,false,1291,image-keyboard-response,7
true,12,2,1,1,false,z,true,false,0.0-2.0-0.41-0.370-3.370,0,0,0,68,false,stim,false,0,246.7999999821186,1,0,1,38099,task2,957118,false,false,1294,image-keyboard-response,8
true,12,1,1,1,true,z,false,true,0.0-2.0-0.41-0.371-3.371,0,0,0,90,false,stim,false,0,253.90000000596046,1,0,1,38099,task2,958901,false,false,1297,image-keyboard-response,9
true,12,1,1,0,false,q,false,false,0.0-2.0-0.41-0.372-3.372,0,0,0,90,false,stim,true,1,398.0,1,0,2,38099,task2,960817,false,false,1300,image-keyboard-response,10
true,12,0,1,0,true,q,false,true,0.0-2.0-0.41-0.373-3.373,0,0,0,81,false,stim,false,1,395.19999998807907,1,0,2,38099,task2,962749,false,false,1303,image-keyboard-response,11
true,12,0,1,0,true,q,false,true,0.0-2.0-0.41-0.374-3.374,0,0,0,81,false,stim,false,1,751.8000000119209,1,0,2,38099,task2,965034,false,false,1306,image-keyboard-response,12
true,12,1,1,2,false,d,true,false,0.0-2.0-0.41-0.375-3.375,0,0,0,90,false,stim,false,0,491.30000001192093,1,0,0,38099,task2,967038,false,false,1309,image-keyboard-response,13
true,12,1,1,1,true,z,false,true,0.0-2.0-0.41-0.376-3.376,0,0,0,90,false,stim,false,0,2306.300000011921,1,0,1,38099,task2,970865,false,false,1312,image-keyboard-response,14
true,12,2,1,2,true,d,false,true,0.0-2.0-0.41-0.377-3.377,0,0,0,68,false,stim,false,0,442.19999998807907,1,0,0,38099,task2,972822,false,false,1315,image-keyboard-response,15
true,12,2,1,0,false,q,true,false,0.0-2.0-0.42-0.378-3.378,0,0,0,68,false,stim,false,1,945.5,1,0,2,38099,task2,975304,false,false,1318,image-keyboard-response,16
true,12,1,1,2,false,d,true,true,0.0-2.0-0.42-0.379-3.379,0,0,0,90,false,stim,false,0,343.40000000596046,1,0,0,38099,task2,977163,false,true,1321,image-keyboard-response,17
true,12,1,1,0,false,q,false,false,0.0-2.0-0.42-0.380-3.380,0,0,0,90,false,stim,true,1,260.19999998807907,1,0,2,38099,task2,978946,false,false,1324,image-keyboard-response,18
true,12,1,1,1,true,z,false,true,0.0-2.0-0.42-0.381-3.381,0,0,0,90,false,stim,false,0,230.69999998807907,1,0,1,38099,task2,980697,false,false,1327,image-keyboard-response,19
true,12,1,1,1,true,z,false,true,0.0-2.0-0.42-0.382-3.382,0,0,0,90,false,stim,false,0,461.09999999403954,1,0,1,38099,task2,982687,false,false,1330,image-keyboard-response,20
true,12,1,1,2,false,d,true,false,0.0-2.0-0.42-0.383-3.383,0,0,0,90,false,stim,false,0,400.89999997615814,1,0,0,38099,task2,984605,false,false,1333,image-keyboard-response,21
true,12,1,1,0,false,q,false,false,0.0-2.0-0.42-0.384-3.384,0,0,0,90,false,stim,true,1,1605.9000000059605,1,0,2,38099,task2,987730,false,false,1336,image-keyboard-response,22
true,12,0,1,2,false,d,false,false,0.0-2.0-0.42-0.385-3.385,0,0,0,81,false,stim,true,0,1384.1000000238419,1,0,0,38099,task2,990637,false,false,1339,image-keyboard-response,23
true,12,1,1,1,true,z,false,true,0.0-2.0-0.42-0.386-3.386,0,0,0,90,false,stim,false,0,1078.0999999940395,1,0,1,38099,task2,993250,false,false,1342,image-keyboard-response,24
true,12,1,1,0,false,q,false,false,0.0-2.0-0.43-0.387-3.387,0,0,0,90,false,stim,true,1,361.69999998807907,1,0,2,38099,task2,995138,false,false,1345,image-keyboard-response,25
true,12,0,1,0,true,q,false,true,0.0-2.0-0.43-0.388-3.388,0,0,0,81,false,stim,false,1,2912.5,1,0,2,38099,task2,999585,false,false,1348,image-keyboard-response,26
true,12,0,1,2,false,d,false,false,0.0-2.0-0.43-0.389-3.389,0,0,0,81,false,stim,true,0,892.9000000059605,1,0,0,38099,task2,1002010,false,false,1351,image-keyboard-response,27
true,12,1,1,1,true,z,false,true,0.0-2.0-0.43-0.390-3.390,0,0,0,90,false,stim,false,0,954.5,1,0,1,38099,task2,1004473,false,false,1354,image-keyboard-response,28
true,12,1,1,1,true,z,false,false,0.0-2.0-0.43-0.391-3.391,0,0,0,90,false,stim,false,0,747.5999999940395,1,0,1,38099,task2,1006748,false,true,1357,image-keyboard-response,29
true,12,1,1,2,false,d,true,false,0.0-2.0-0.43-0.392-3.392,0,0,0,90,false,stim,false,0,304.0,1,0,0,38099,task2,1008581,false,false,1360,image-keyboard-response,30
false,12,-1,1,0,false,q,true,false,0.0-2.0-0.43-0.393-3.393,0,0,0,,false,stim,false,1,,1,0,2,38099,task2,1013129,false,false,1363,image-keyboard-response,31
true,12,2,1,1,false,z,true,false,0.0-2.0-0.43-0.394-3.394,0,0,0,68,false,stim,false,0,342.0,1,0,1,38099,task2,1014997,false,false,1366,image-keyboard-response,32
true,12,1,1,2,false,d,true,false,0.0-2.0-0.43-0.395-3.395,0,0,0,90,false,stim,false,0,1098.4000000059605,1,0,0,38099,task2,1017605,false,false,1369,image-keyboard-response,33
true,12,0,1,0,true,q,false,true,0.0-2.0-0.44-0.396-3.396,0,0,0,81,false,stim,false,1,650.4000000059605,1,0,2,38099,task2,1019784,false,false,1372,image-keyboard-response,34
true,12,1,1,1,true,z,false,true,0.0-2.0-0.44-0.397-3.397,0,0,0,90,false,stim,false,0,723.5999999940395,1,0,1,38099,task2,1022038,false,false,1375,image-keyboard-response,35
true,12,1,1,2,false,d,true,false,0.0-2.0-0.44-0.398-3.398,0,0,0,90,false,stim,false,0,556.0999999940395,1,0,0,38099,task2,1024130,false,false,1378,image-keyboard-response,36
true,12,1,1,1,true,z,false,true,0.0-2.0-0.44-0.399-3.399,0,0,0,90,false,stim,false,0,429.7999999821186,1,0,1,38099,task2,1026086,false,false,1381,image-keyboard-response,37
true,13,1,1,0,false,q,true,false,0.0-2.0-0.44-0.400-3.400,0,0,0,90,true,stim,false,2,512.0999999940395,1,0,0,38099,task2,1028130,false,false,1384,image-keyboard-response,1
true,13,1,1,0,false,q,true,false,0.0-2.0-0.44-0.401-3.401,0,0,0,90,false,stim,false,2,1071.7999999821186,1,0,0,38099,task2,1030718,false,false,1387,image-keyboard-response,2
true,13,0,1,2,false,d,false,false,0.0-2.0-0.44-0.402-3.402,0,0,0,81,false,stim,true,0,485.40000000596046,1,0,2,38099,task2,1032724,false,false,1390,image-keyboard-response,3
true,13,2,1,2,true,d,false,true,0.0-2.0-0.44-0.403-3.403,0,0,0,68,false,stim,false,1,606.0999999940395,1,0,1,38099,task2,1034857,false,false,1393,image-keyboard-response,4
true,13,1,1,2,false,d,true,true,0.0-2.0-0.44-0.404-3.404,0,0,0,90,false,stim,false,0,879.4000000059605,1,0,2,38099,task2,1037267,false,true,1396,image-keyboard-response,5
true,13,2,1,2,true,d,false,true,0.0-2.0-0.45-0.405-3.405,0,0,0,68,false,stim,false,1,940.0,1,0,1,38099,task2,1039718,false,false,1399,image-keyboard-response,6
true,13,1,1,2,false,d,true,false,0.0-2.0-0.45-0.406-3.406,0,0,0,90,false,stim,false,0,761.7999999821186,1,0,2,38099,task2,1042019,false,false,1402,image-keyboard-response,7
true,13,2,1,2,true,d,false,true,0.0-2.0-0.45-0.407-3.407,0,0,0,68,false,stim,false,0,717.5999999940395,1,0,2,38099,task2,1044261,false,false,1405,image-keyboard-response,8
true,13,2,1,2,true,d,false,true,0.0-2.0-0.45-0.408-3.408,0,0,0,68,false,stim,false,1,1271.7999999821186,1,0,1,38099,task2,1047072,false,false,1408,image-keyboard-response,9
true,13,2,1,2,true,d,false,true,0.0-2.0-0.45-0.409-3.409,0,0,0,68,false,stim,false,0,688.6999999880791,1,0,2,38099,task2,1049287,false,false,1411,image-keyboard-response,10
true,13,2,1,0,false,q,false,true,0.0-2.0-0.45-0.410-3.410,0,0,0,68,false,stim,true,2,761.9000000059605,1,0,0,38099,task2,1051562,false,true,1414,image-keyboard-response,11
true,13,2,1,0,false,q,false,false,0.0-2.0-0.45-0.411-3.411,0,0,0,68,false,stim,true,2,469.7999999821186,1,0,0,38099,task2,1053569,false,false,1417,image-keyboard-response,12
true,13,2,1,0,false,q,false,false,0.0-2.0-0.45-0.412-3.412,0,0,0,68,false,stim,true,2,995.1999999880791,1,0,0,38099,task2,1056093,false,false,1420,image-keyboard-response,13
true,13,1,1,2,false,d,false,false,0.0-2.0-0.45-0.413-3.413,0,0,0,90,false,stim,true,1,759.5999999940395,1,0,1,38099,task2,1058385,false,false,1423,image-keyboard-response,14
true,13,2,1,2,true,d,false,true,0.0-2.0-0.46-0.414-3.414,0,0,0,68,false,stim,false,1,330.0,1,0,1,38099,task2,1060247,false,false,1426,image-keyboard-response,15
true,13,2,1,2,true,d,false,true,0.0-2.0-0.46-0.415-3.415,0,0,0,68,false,stim,false,0,929.5,1,0,2,38099,task2,1062687,false,false,1429,image-keyboard-response,16
true,13,2,1,2,true,d,false,true,0.0-2.0-0.46-0.416-3.416,0,0,0,68,false,stim,false,1,485.0,1,0,1,38099,task2,1064698,false,false,1432,image-keyboard-response,17
true,13,2,1,2,true,d,false,true,0.0-2.0-0.46-0.417-3.417,0,0,0,68,false,stim,false,1,445.5,1,0,1,38099,task2,1066657,false,false,1435,image-keyboard-response,18
true,13,2,1,0,false,q,false,false,0.0-2.0-0.46-0.418-3.418,0,0,0,68,false,stim,true,2,275.19999998807907,1,0,0,38099,task2,1068462,false,false,1438,image-keyboard-response,19
true,13,0,1,0,true,q,false,true,0.0-2.0-0.46-0.419-3.419,0,0,0,81,false,stim,false,2,318.59999999403954,1,0,0,38099,task2,1070308,false,false,1441,image-keyboard-response,20
true,13,0,1,0,true,q,false,true,0.0-2.0-0.46-0.420-3.420,0,0,0,81,false,stim,false,2,399.90000000596046,1,0,0,38099,task2,1072234,false,false,1444,image-keyboard-response,21
true,13,2,1,2,true,d,false,true,0.0-2.0-0.46-0.421-3.421,0,0,0,68,false,stim,false,0,1305.300000011921,1,0,2,38099,task2,1075070,false,false,1447,image-keyboard-response,22
true,13,2,1,2,true,d,false,true,0.0-2.0-0.46-0.422-3.422,0,0,0,68,false,stim,false,0,612.0,1,0,2,38099,task2,1077218,false,false,1450,image-keyboard-response,23
true,13,0,1,0,true,q,false,true,0.0-2.0-0.47-0.423-3.423,0,0,0,81,false,stim,false,2,995.5999999940395,1,0,0,38099,task2,1079751,false,false,1453,image-keyboard-response,24
true,13,1,1,2,false,d,false,false,0.0-2.0-0.47-0.424-3.424,0,0,0,90,false,stim,true,1,879.9000000059605,1,0,1,38099,task2,1082163,false,false,1456,image-keyboard-response,25
true,13,2,1,2,true,d,false,true,0.0-2.0-0.47-0.425-3.425,0,0,0,68,false,stim,false,0,935.6000000238419,1,0,2,38099,task2,1084635,false,false,1459,image-keyboard-response,26
true,13,1,1,2,false,d,false,true,0.0-2.0-0.47-0.426-3.426,0,0,0,90,false,stim,true,1,624.5999999940395,1,0,1,38099,task2,1086794,false,true,1462,image-keyboard-response,27
true,13,1,1,0,false,q,true,false,0.0-2.0-0.47-0.427-3.427,0,0,0,90,false,stim,false,2,912.4000000059605,1,0,0,38099,task2,1089236,false,false,1465,image-keyboard-response,28
true,13,2,1,0,false,q,false,false,0.0-2.0-0.47-0.428-3.428,0,0,0,68,false,stim,true,2,1791.800000011921,1,0,0,38099,task2,1092555,false,false,1468,image-keyboard-response,29
true,13,1,1,2,false,d,true,false,0.0-2.0-0.47-0.429-3.429,0,0,0,90,false,stim,false,0,167.59999999403954,1,0,2,38099,task2,1094263,false,false,1471,image-keyboard-response,30
true,13,1,1,2,false,d,false,false,0.0-2.0-0.47-0.430-3.430,0,0,0,90,false,stim,true,1,819.3000000119209,1,0,1,38099,task2,1096612,false,false,1474,image-keyboard-response,31
true,13,1,1,2,false,d,true,true,0.0-2.0-0.47-0.431-3.431,0,0,0,90,false,stim,false,0,779.2000000178814,1,0,2,38099,task2,1098926,false,true,1477,image-keyboard-response,32
true,13,1,1,0,false,q,true,false,0.0-2.0-0.48-0.432-3.432,0,0,0,90,false,stim,false,2,1732.5,1,0,0,38099,task2,1102185,false,false,1480,image-keyboard-response,33
true,13,1,1,0,false,q,true,false,0.0-2.0-0.48-0.433-3.433,0,0,0,90,false,stim,false,2,774.5999999940395,1,0,0,38099,task2,1104492,false,false,1483,image-keyboard-response,34
true,13,2,1,2,true,d,false,true,0.0-2.0-0.48-0.434-3.434,0,0,0,68,false,stim,false,1,586.4000000059605,1,0,1,38099,task2,1106600,false,false,1486,image-keyboard-response,35
true,14,2,1,1,false,z,false,false,0.0-2.0-0.48-0.435-3.435,0,0,0,68,true,stim,true,2,1394.699999988079,1,0,2,38099,task2,1109525,false,false,1489,image-keyboard-response,1
true,14,1,1,0,false,q,true,false,0.0-2.0-0.48-0.436-3.436,0,0,0,90,false,stim,false,2,117.59999999403954,1,0,1,38099,task2,1111161,false,false,1492,image-keyboard-response,2
true,14,0,1,1,false,z,true,false,0.0-2.0-0.48-0.437-3.437,0,0,0,81,false,stim,false,2,1033.2000000178814,1,0,2,38099,task2,1113725,false,false,1495,image-keyboard-response,3
true,14,1,1,2,false,d,true,false,0.0-2.0-0.48-0.438-3.438,0,0,0,90,false,stim,false,0,265.2999999821186,1,0,0,38099,task2,1115519,false,false,1498,image-keyboard-response,4
true,14,2,1,0,false,q,false,false,0.0-2.0-0.48-0.439-3.439,0,0,0,68,false,stim,true,2,483.80000001192093,1,0,1,38099,task2,1117547,false,false,1501,image-keyboard-response,5
true,14,1,1,1,true,z,false,true,0.0-2.0-0.48-0.440-3.440,0,0,0,90,false,stim,false,2,359.40000000596046,1,0,2,38099,task2,1119446,false,false,1504,image-keyboard-response,6
true,14,1,1,0,false,q,true,false,0.0-2.0-0.49-0.441-3.441,0,0,0,90,false,stim,false,2,618.0,1,0,1,38099,task2,1121601,false,false,1507,image-keyboard-response,7
true,14,2,1,1,false,z,false,false,0.0-2.0-0.49-0.442-3.442,0,0,0,68,false,stim,true,2,550.5999999940395,1,0,2,38099,task2,1123682,false,false,1510,image-keyboard-response,8
true,14,0,1,2,false,d,false,false,0.0-2.0-0.49-0.443-3.443,0,0,0,81,false,stim,true,0,271.69999998807907,1,0,0,38099,task2,1125476,false,false,1513,image-keyboard-response,9
true,14,1,1,1,true,z,false,true,0.0-2.0-0.49-0.444-3.444,0,0,0,90,false,stim,false,2,806.5999999940395,1,0,2,38099,task2,1127818,false,false,1516,image-keyboard-response,10
true,14,1,1,0,false,q,true,false,0.0-2.0-0.49-0.445-3.445,0,0,0,90,false,stim,false,2,388.2000000178814,1,0,1,38099,task2,1129723,false,false,1519,image-keyboard-response,11
true,14,1,1,0,false,q,true,false,0.0-2.0-0.49-0.446-3.446,0,0,0,90,false,stim,false,2,704.1999999880791,1,0,1,38099,task2,1131938,false,false,1522,image-keyboard-response,12
true,14,1,1,2,false,d,true,true,0.0-2.0-0.49-0.447-3.447,0,0,0,90,false,stim,false,0,1046.4000000059605,1,0,0,38099,task2,1134513,false,true,1525,image-keyboard-response,13
true,14,1,1,2,false,d,true,false,0.0-2.0-0.49-0.448-3.448,0,0,0,90,false,stim,false,0,406.2999999821186,1,0,0,38099,task2,1136450,false,false,1528,image-keyboard-response,14
true,14,2,1,1,false,z,false,false,0.0-2.0-0.49-0.449-3.449,0,0,0,68,false,stim,true,2,584.7000000178814,1,0,2,38099,task2,1138563,false,false,1531,image-keyboard-response,15
true,14,1,1,2,false,d,true,true,0.0-2.0-0.50-0.450-3.450,0,0,0,90,false,stim,false,0,773.1000000238419,1,0,0,38099,task2,1140873,false,true,1534,image-keyboard-response,16
true,14,1,1,0,false,q,true,false,0.0-2.0-0.50-0.451-3.451,0,0,0,90,false,stim,false,2,1038.0,1,0,1,38099,task2,1143448,false,false,1537,image-keyboard-response,17
true,14,0,1,1,false,z,true,false,0.0-2.0-0.50-0.452-3.452,0,0,0,81,false,stim,false,2,1174.300000011921,1,0,2,38099,task2,1146158,false,false,1540,image-keyboard-response,18
true,14,2,1,1,false,z,false,false,0.0-2.0-0.50-0.453-3.453,0,0,0,68,false,stim,true,2,483.30000001192093,1,0,2,38099,task2,1148167,false,false,1543,image-keyboard-response,19
true,14,2,1,2,true,d,false,true,0.0-2.0-0.50-0.454-3.454,0,0,0,68,false,stim,false,0,746.8000000119209,1,0,0,38099,task2,1150442,false,false,1546,image-keyboard-response,20
true,14,1,1,1,true,z,false,true,0.0-2.0-0.50-0.455-3.455,0,0,0,90,false,stim,false,2,1840.800000011921,1,0,2,38099,task2,1153817,false,false,1549,image-keyboard-response,21
true,14,0,1,0,true,q,false,true,0.0-2.0-0.50-0.456-3.456,0,0,0,81,false,stim,false,2,742.5999999940395,1,0,1,38099,task2,1156092,false,false,1552,image-keyboard-response,22
true,14,0,1,0,true,q,false,true,0.0-2.0-0.50-0.457-3.457,0,0,0,81,false,stim,false,2,648.2000000178814,1,0,1,38099,task2,1158275,false,false,1555,image-keyboard-response,23
true,14,1,1,2,false,d,true,false,0.0-2.0-0.50-0.458-3.458,0,0,0,90,false,stim,false,0,2034.3999999761581,1,0,0,38099,task2,1161833,false,false,1558,image-keyboard-response,24
true,14,1,1,0,false,q,true,false,0.0-2.0-0.51-0.459-3.459,0,0,0,90,false,stim,false,2,1033.800000011921,1,0,1,38099,task2,1164395,false,false,1561,image-keyboard-response,25
true,14,2,1,1,false,z,false,false,0.0-2.0-0.51-0.460-3.460,0,0,0,68,false,stim,true,2,875.7000000178814,1,0,2,38099,task2,1166797,false,false,1564,image-keyboard-response,26
true,14,0,1,2,false,d,false,false,0.0-2.0-0.51-0.461-3.461,0,0,0,81,false,stim,true,0,794.5,1,0,0,38099,task2,1169106,false,false,1567,image-keyboard-response,27
true,14,1,1,1,true,z,false,true,0.0-2.0-0.51-0.462-3.462,0,0,0,90,false,stim,false,2,834.8000000119209,1,0,2,38099,task2,1171471,false,false,1570,image-keyboard-response,28
true,14,1,1,0,false,q,true,false,0.0-2.0-0.51-0.463-3.463,0,0,0,90,false,stim,false,2,547.4000000059605,1,0,1,38099,task2,1173554,false,false,1573,image-keyboard-response,29
true,14,1,1,2,false,d,true,false,0.0-2.0-0.51-0.464-3.464,0,0,0,90,false,stim,false,0,812.8000000119209,1,0,0,38099,task2,1175898,false,false,1576,image-keyboard-response,30
true,14,1,1,2,false,d,true,false,0.0-2.0-0.51-0.465-3.465,0,0,0,90,false,stim,false,0,265.69999998807907,1,0,0,38099,task2,1177689,false,false,1579,image-keyboard-response,31
true,14,1,1,1,true,z,false,true,0.0-2.0-0.51-0.466-3.466,0,0,0,90,false,stim,false,2,579.3000000119209,1,0,2,38099,task2,1179792,false,false,1582,image-keyboard-response,32
true,14,1,1,0,false,q,true,false,0.0-2.0-0.51-0.467-3.467,0,0,0,90,false,stim,false,2,640.1999999880791,1,0,1,38099,task2,1181956,false,false,1585,image-keyboard-response,33
true,14,1,1,0,false,q,true,false,0.0-2.0-0.52-0.468-3.468,0,0,0,90,false,stim,false,2,485.2000000178814,1,0,1,38099,task2,1183968,false,false,1588,image-keyboard-response,34
true,14,0,1,2,false,d,false,false,0.0-2.0-0.52-0.469-3.469,0,0,0,81,false,stim,true,0,559.5,1,0,0,38099,task2,1186066,false,false,1591,image-keyboard-response,35
true,14,2,1,2,true,d,false,true,0.0-2.0-0.52-0.470-3.470,0,0,0,68,false,stim,false,0,303.5,1,0,0,38099,task2,1187886,false,false,1594,image-keyboard-response,36
true,15,2,1,2,true,d,false,true,0.0-2.0-0.52-0.471-3.471,0,0,0,68,true,stim,false,0,1160.2000000178814,1,0,1,38099,task2,1190579,false,false,1597,image-keyboard-response,1
true,15,2,1,0,false,q,true,false,0.0-2.0-0.52-0.472-3.472,0,0,0,68,false,stim,false,1,591.5,1,0,2,38099,task2,1192710,false,false,1600,image-keyboard-response,2
true,15,0,1,0,true,q,false,true,0.0-2.0-0.52-0.473-3.473,0,0,0,81,false,stim,false,1,652.3999999761581,1,0,2,38099,task2,1194907,false,false,1603,image-keyboard-response,3
true,15,0,1,0,true,q,false,true,0.0-2.0-0.52-0.474-3.474,0,0,0,81,false,stim,false,1,418.30000001192093,1,0,2,38099,task2,1196853,false,false,1606,image-keyboard-response,4
true,15,2,1,1,false,z,false,false,0.0-2.0-0.52-0.475-3.475,0,0,0,68,false,stim,true,2,574.4000000059605,1,0,0,38099,task2,1198956,false,false,1609,image-keyboard-response,5
true,15,0,1,2,false,d,false,false,0.0-2.0-0.52-0.476-3.476,0,0,0,81,false,stim,true,0,931.5,1,0,1,38099,task2,1201417,false,false,1612,image-keyboard-response,6
true,15,2,1,2,true,d,false,false,0.0-2.0-0.53-0.477-3.477,0,0,0,68,false,stim,false,0,479.5,1,0,1,38099,task2,1203422,false,true,1615,image-keyboard-response,7
true,15,2,1,0,false,q,true,true,0.0-2.0-0.53-0.478-3.478,0,0,0,68,false,stim,false,1,711.8000000119209,1,0,2,38099,task2,1205662,false,true,1618,image-keyboard-response,8
true,15,2,1,2,true,d,false,false,0.0-2.0-0.53-0.479-3.479,0,0,0,68,false,stim,false,0,679.0,1,0,1,38099,task2,1207872,false,true,1621,image-keyboard-response,9
true,15,1,1,1,true,z,false,true,0.0-2.0-0.53-0.480-3.480,0,0,0,90,false,stim,false,2,1812.7000000178814,1,0,0,38099,task2,1211219,false,false,1624,image-keyboard-response,10
true,15,1,1,2,false,d,true,false,0.0-2.0-0.53-0.481-3.481,0,0,0,90,false,stim,false,0,733.8000000119209,1,0,1,38099,task2,1213479,false,false,1627,image-keyboard-response,11
true,15,1,1,1,true,z,false,true,0.0-2.0-0.53-0.482-3.482,0,0,0,90,false,stim,false,2,439.5,1,0,0,38099,task2,1215435,false,false,1630,image-keyboard-response,12
true,15,1,1,1,true,z,false,true,0.0-2.0-0.53-0.483-3.483,0,0,0,90,false,stim,false,2,794.0,1,0,0,38099,task2,1217752,false,false,1633,image-keyboard-response,13
true,15,1,1,0,false,q,false,false,0.0-2.0-0.53-0.484-3.484,0,0,0,90,false,stim,true,1,562.5999999940395,1,0,2,38099,task2,1219843,false,false,1636,image-keyboard-response,14
true,15,2,1,0,false,q,true,false,0.0-2.0-0.53-0.485-3.485,0,0,0,68,false,stim,false,1,888.3000000119209,1,0,2,38099,task2,1222260,false,false,1639,image-keyboard-response,15
true,15,2,1,2,true,d,false,true,0.0-2.0-0.54-0.486-3.486,0,0,0,68,false,stim,false,0,733.7000000178814,1,0,1,38099,task2,1224529,false,false,1642,image-keyboard-response,16
true,15,2,1,1,false,z,false,false,0.0-2.0-0.54-0.487-3.487,0,0,0,68,false,stim,true,2,1475.5999999940395,1,0,0,38099,task2,1227537,false,false,1645,image-keyboard-response,17
true,15,2,1,2,true,d,false,true,0.0-2.0-0.54-0.488-3.488,0,0,0,68,false,stim,false,0,2072.0,1,0,1,38099,task2,1231139,false,false,1648,image-keyboard-response,18
true,15,2,1,0,false,q,true,false,0.0-2.0-0.54-0.489-3.489,0,0,0,68,false,stim,false,1,840.6999999880791,1,0,2,38099,task2,1233518,false,false,1651,image-keyboard-response,19
true,15,0,1,0,true,q,false,false,0.0-2.0-0.54-0.490-3.490,0,0,0,81,false,stim,false,1,744.6999999880791,1,0,2,38099,task2,1235795,false,true,1654,image-keyboard-response,20
true,15,1,1,1,true,z,false,true,0.0-2.0-0.54-0.491-3.491,0,0,0,90,false,stim,false,2,648.0999999940395,1,0,0,38099,task2,1237971,false,false,1657,image-keyboard-response,21
true,15,1,1,1,true,z,false,true,0.0-2.0-0.54-0.492-3.492,0,0,0,90,false,stim,false,2,1164.7000000178814,1,0,0,38099,task2,1240670,false,false,1660,image-keyboard-response,22
true,15,1,1,0,false,q,false,false,0.0-2.0-0.54-0.493-3.493,0,0,0,90,false,stim,true,1,903.4000000059605,1,0,2,38099,task2,1243111,false,false,1663,image-keyboard-response,23
true,15,0,1,2,false,d,false,false,0.0-2.0-0.54-0.494-3.494,0,0,0,81,false,stim,true,0,362.09999999403954,1,0,1,38099,task2,1245005,false,false,1666,image-keyboard-response,24
true,15,1,1,1,true,z,false,true,0.0-2.0-0.55-0.495-3.495,0,0,0,90,false,stim,false,2,264.19999998807907,1,0,0,38099,task2,1246803,false,false,1669,image-keyboard-response,25
true,15,1,1,2,false,d,true,false,0.0-2.0-0.55-0.496-3.496,0,0,0,90,false,stim,false,0,785.8000000119209,1,0,1,38099,task2,1249120,false,false,1672,image-keyboard-response,26
true,15,1,1,2,false,d,true,false,0.0-2.0-0.55-0.497-3.497,0,0,0,90,false,stim,false,0,471.40000000596046,1,0,1,38099,task2,1251120,false,false,1675,image-keyboard-response,27
true,15,2,1,1,false,z,false,false,0.0-2.0-0.55-0.498-3.498,0,0,0,68,false,stim,true,2,379.2999999821186,1,0,0,38099,task2,1253010,false,false,1678,image-keyboard-response,28
true,15,0,1,0,true,q,false,false,0.0-2.0-0.55-0.499-3.499,0,0,0,81,false,stim,false,1,434.19999998807907,1,0,2,38099,task2,1254970,false,true,1681,image-keyboard-response,29
true,15,2,1,0,false,q,true,true,0.0-2.0-0.55-0.500-3.500,0,0,0,68,false,stim,false,1,405.40000000596046,1,0,2,38099,task2,1256887,false,true,1684,image-keyboard-response,30
true,15,2,1,0,false,q,true,true,0.0-2.0-0.55-0.501-3.501,0,0,0,68,false,stim,false,1,693.9000000059605,1,0,2,38099,task2,1259107,false,true,1687,image-keyboard-response,31
true,15,2,1,1,false,z,false,false,0.0-2.0-0.55-0.502-3.502,0,0,0,68,false,stim,true,2,732.5999999940395,1,0,0,38099,task2,1261371,false,false,1690,image-keyboard-response,32
true,15,1,1,2,false,d,true,false,0.0-2.0-0.55-0.503-3.503,0,0,0,90,false,stim,false,0,265.90000000596046,1,0,1,38099,task2,1263166,false,false,1693,image-keyboard-response,33
true,15,0,1,1,false,z,true,false,0.0-2.0-0.56-0.504-3.504,0,0,0,81,false,stim,false,2,339.89999997615814,1,0,0,38099,task2,1265032,false,false,1696,image-keyboard-response,34
true,15,2,1,1,false,z,false,false,0.0-2.0-0.56-0.505-3.505,0,0,0,68,false,stim,true,2,237.39999997615814,1,0,0,38099,task2,1266799,false,false,1699,image-keyboard-response,35
true,15,1,1,0,false,q,false,false,0.0-2.0-0.56-0.506-3.506,0,0,0,90,false,stim,true,1,1641.2999999821186,1,0,2,38099,task2,1269993,false,false,1702,image-keyboard-response,36
true,15,1,1,2,false,d,true,false,0.0-2.0-0.56-0.507-3.507,0,0,0,90,false,stim,false,0,409.59999999403954,1,0,1,38099,task2,1271930,false,false,1705,image-keyboard-response,37
true,15,1,1,2,false,d,true,false,0.0-2.0-0.56-0.508-3.508,0,0,0,90,false,stim,false,0,416.09999999403954,1,0,1,38099,task2,1273883,false,false,1708,image-keyboard-response,38
true,16,1,1,0,false,q,false,false,0.0-2.0-0.56-0.509-3.509,0,0,0,90,true,stim,true,1,880.5,1,0,0,38099,task2,1276286,false,false,1711,image-keyboard-response,1
true,16,0,1,2,false,d,false,false,0.0-2.0-0.56-0.510-3.510,0,0,0,81,false,stim,true,0,469.90000000596046,1,0,2,38099,task2,1278285,false,false,1714,image-keyboard-response,2
true,16,2,1,2,true,d,false,true,0.0-2.0-0.56-0.511-3.511,0,0,0,68,false,stim,false,0,187.59999999403954,1,0,2,38099,task2,1280010,false,false,1717,image-keyboard-response,3
true,16,2,1,1,false,z,false,false,0.0-2.0-0.56-0.512-3.512,0,0,0,68,false,stim,true,2,819.8999999761581,1,0,1,38099,task2,1282352,false,false,1720,image-keyboard-response,4
true,16,0,1,0,true,q,false,true,0.0-2.0-0.57-0.513-3.513,0,0,0,81,false,stim,false,1,892.5,1,0,0,38099,task2,1284782,false,false,1723,image-keyboard-response,5
true,16,1,1,2,false,d,true,true,0.0-2.0-0.57-0.514-3.514,0,0,0,90,false,stim,false,0,602.6000000238419,1,0,2,38099,task2,1286917,false,true,1726,image-keyboard-response,6
true,16,1,1,1,true,z,false,true,0.0-2.0-0.57-0.515-3.515,0,0,0,90,false,stim,false,2,708.0999999940395,1,0,1,38099,task2,1289162,false,false,1729,image-keyboard-response,7
true,16,1,1,1,true,z,false,true,0.0-2.0-0.57-0.516-3.516,0,0,0,90,false,stim,false,2,534.0999999940395,1,0,1,38099,task2,1291224,false,false,1732,image-keyboard-response,8
true,16,1,1,0,false,q,false,false,0.0-2.0-0.57-0.517-3.517,0,0,0,90,false,stim,true,1,571.9000000059605,1,0,0,38099,task2,1293332,false,false,1735,image-keyboard-response,9
true,16,1,1,0,false,q,false,false,0.0-2.0-0.57-0.518-3.518,0,0,0,90,false,stim,true,1,671.0999999940395,1,0,0,38099,task2,1295533,false,false,1738,image-keyboard-response,10
true,16,2,1,2,true,d,false,true,0.0-2.0-0.57-0.519-3.519,0,0,0,68,false,stim,false,0,1380.6000000238419,1,0,2,38099,task2,1298443,false,false,1741,image-keyboard-response,11
true,16,2,1,1,false,z,false,false,0.0-2.0-0.57-0.520-3.520,0,0,0,68,false,stim,true,2,516.6999999880791,1,0,1,38099,task2,1300490,false,false,1744,image-keyboard-response,12
true,16,0,1,2,false,d,false,false,0.0-2.0-0.57-0.521-3.521,0,0,0,81,false,stim,true,0,863.5,1,0,2,38099,task2,1302882,false,false,1747,image-keyboard-response,13
true,16,1,1,0,false,q,false,false,0.0-2.0-0.58-0.522-3.522,0,0,0,90,false,stim,true,1,1298.6000000238419,1,0,0,38099,task2,1305718,false,false,1750,image-keyboard-response,14
true,16,2,1,1,false,z,false,false,0.0-2.0-0.58-0.523-3.523,0,0,0,68,false,stim,true,2,717.5,1,0,1,38099,task2,1307967,false,false,1753,image-keyboard-response,15
true,16,1,1,1,true,z,false,true,0.0-2.0-0.58-0.524-3.524,0,0,0,90,false,stim,false,2,928.5999999940395,1,0,1,38099,task2,1310423,false,false,1756,image-keyboard-response,16
true,16,1,1,2,false,d,true,false,0.0-2.0-0.58-0.525-3.525,0,0,0,90,false,stim,false,0,920.9000000059605,1,0,2,38099,task2,1312880,false,false,1759,image-keyboard-response,17
true,16,0,1,2,false,d,false,false,0.0-2.0-0.58-0.526-3.526,0,0,0,81,false,stim,true,0,377.89999997615814,1,0,2,38099,task2,1314790,false,false,1762,image-keyboard-response,18
true,16,1,1,0,false,q,false,false,0.0-2.0-0.58-0.527-3.527,0,0,0,90,false,stim,true,1,274.7999999821186,1,0,0,38099,task2,1316587,false,false,1765,image-keyboard-response,19
true,16,2,1,0,false,q,true,false,0.0-2.0-0.58-0.528-3.528,0,0,0,68,false,stim,false,1,246.0,1,0,0,38099,task2,1318365,false,false,1768,image-keyboard-response,20
true,16,2,1,2,true,d,false,true,0.0-2.0-0.58-0.529-3.529,0,0,0,68,false,stim,false,0,282.5,1,0,2,38099,task2,1320173,false,false,1771,image-keyboard-response,21
true,16,2,1,1,false,z,false,true,0.0-2.0-0.58-0.530-3.530,0,0,0,68,false,stim,true,2,446.5,1,0,1,38099,task2,1322143,false,true,1774,image-keyboard-response,22
true,16,2,1,1,false,z,false,true,0.0-2.0-0.59-0.531-3.531,0,0,0,68,false,stim,true,2,363.7999999821186,1,0,1,38099,task2,1324043,false,true,1777,image-keyboard-response,23
true,16,1,1,2,false,d,true,false,0.0-2.0-0.59-0.532-3.532,0,0,0,90,false,stim,false,0,589.5999999940395,1,0,2,38099,task2,1326164,false,false,1780,image-keyboard-response,24
true,16,1,1,2,false,d,true,false,0.0-2.0-0.59-0.533-3.533,0,0,0,90,false,stim,false,0,419.80000001192093,1,0,2,38099,task2,1328113,false,false,1783,image-keyboard-response,25
true,16,0,1,1,false,z,true,false,0.0-2.0-0.59-0.534-3.534,0,0,0,81,false,stim,false,2,1820.4000000059605,1,0,1,38099,task2,1331446,false,false,1786,image-keyboard-response,26
true,16,2,1,0,false,q,true,false,0.0-2.0-0.59-0.535-3.535,0,0,0,68,false,stim,false,1,2286.2999999821186,1,0,0,38099,task2,1335268,false,false,1789,image-keyboard-response,27
true,16,0,1,2,false,d,false,true,0.0-2.0-0.59-0.536-3.536,0,0,0,81,false,stim,true,0,753.7000000178814,1,0,2,38099,task2,1337555,false,true,1792,image-keyboard-response,28
true,16,0,1,0,true,q,false,true,0.0-2.0-0.59-0.537-3.537,0,0,0,81,false,stim,false,1,1653.7999999821186,1,0,0,38099,task2,1340732,false,false,1795,image-keyboard-response,29
true,16,0,1,0,true,q,false,true,0.0-2.0-0.59-0.538-3.538,0,0,0,81,false,stim,false,1,464.80000001192093,1,0,0,38099,task2,1342732,false,false,1798,image-keyboard-response,30
true,16,0,1,1,false,z,true,true,0.0-2.0-0.59-0.539-3.539,0,0,0,81,false,stim,false,2,793.3999999761581,1,0,1,38099,task2,1345079,false,true,1801,image-keyboard-response,31
true,16,0,1,0,true,q,false,true,0.0-2.0-0.60-0.540-3.540,0,0,0,81,false,stim,false,1,1099.300000011921,1,0,0,38099,task2,1347713,false,false,1804,image-keyboard-response,32
true,16,0,1,2,false,d,false,false,0.0-2.0-0.60-0.541-3.541,0,0,0,81,false,stim,true,0,617.7000000178814,1,0,2,38099,task2,1349865,false,false,1807,image-keyboard-response,33
true,16,1,1,0,false,q,false,false,0.0-2.0-0.60-0.542-3.542,0,0,0,90,false,stim,true,1,580.8999999761581,1,1,0,38099,task2,1351981,false,false,1810,image-keyboard-response,34
true,16,2,1,2,true,d,false,true,0.0-2.0-0.60-0.543-3.543,0,0,0,68,false,stim,false,0,893.2999999821186,1,1,2,38099,task2,1354408,false,false,1813,image-keyboard-response,35
true,16,2,1,2,true,d,false,true,0.0-2.0-0.60-0.544-3.544,0,0,0,68,false,stim,false,0,391.7999999821186,1,1,2,38099,task2,1356325,false,false,1816,image-keyboard-response,36
true,16,2,1,1,false,z,false,false,0.0-2.0-0.60-0.545-3.545,0,0,0,68,false,stim,true,2,638.1999999880791,1,1,1,38099,task2,1358490,false,false,1819,image-keyboard-response,37
true,16,1,1,1,true,z,false,true,0.0-2.0-0.60-0.546-3.546,0,0,0,90,false,stim,false,2,601.4000000059605,1,1,1,38099,task2,1360625,false,false,1822,image-keyboard-response,38
true,17,0,0,1,false,z,true,false,0.0-2.0-0.60-0.547-3.547,1,1,1,81,true,stim,false,1,1385.5,1,1,1,38099,task2,1472064,false,false,1933,image-keyboard-response,1
true,17,1,0,0,false,q,true,false,0.0-2.0-0.60-0.548-3.548,1,1,1,90,false,stim,false,0,402.90000000596046,1,1,0,38099,task2,1473985,false,false,1936,image-keyboard-response,2
true,17,2,0,0,false,q,true,false,0.0-2.0-0.61-0.549-3.549,1,1,1,68,false,stim,false,0,472.30000001192093,1,1,0,38099,task2,1475982,false,false,1939,image-keyboard-response,3
true,17,0,0,2,false,d,true,false,0.0-2.0-0.61-0.550-3.550,1,1,1,81,false,stim,false,2,972.8000000119209,1,1,2,38099,task2,1478493,false,false,1942,image-keyboard-response,4
true,17,0,0,0,true,q,false,true,0.0-2.0-0.61-0.551-3.551,1,1,1,81,false,stim,false,0,903.9000000059605,1,1,0,38099,task2,1480910,false,false,1945,image-keyboard-response,5
true,17,0,0,2,false,d,true,false,0.0-2.0-0.61-0.552-3.552,1,1,1,81,false,stim,false,2,695.0,1,1,2,38099,task2,1483136,false,false,1948,image-keyboard-response,6
true,17,1,0,2,false,d,true,false,0.0-2.0-0.61-0.553-3.553,1,1,1,90,false,stim,false,2,752.6000000238419,1,1,2,38099,task2,1485422,false,false,1951,image-keyboard-response,7
true,17,0,0,1,false,z,true,true,0.0-2.0-0.61-0.554-3.554,1,1,1,81,false,stim,false,1,664.0999999940395,1,1,1,38099,task2,1487611,false,true,1954,image-keyboard-response,8
true,17,0,0,1,false,z,true,false,0.0-2.0-0.61-0.555-3.555,1,1,1,81,false,stim,false,1,780.5999999940395,1,0,1,38099,task2,1489927,false,false,1957,image-keyboard-response,9
true,17,1,0,0,false,q,true,false,0.0-2.0-0.61-0.556-3.556,1,1,1,90,false,stim,false,0,565.7999999821186,1,1,0,38099,task2,1492019,false,false,1960,image-keyboard-response,10
true,17,2,0,1,false,z,true,false,0.0-2.0-0.61-0.557-3.557,1,1,1,68,false,stim,false,1,657.0,1,0,1,38099,task2,1494200,false,false,1963,image-keyboard-response,11
true,17,1,0,2,false,d,true,false,0.0-2.0-0.62-0.558-3.558,1,1,1,90,false,stim,false,2,594.0,1,0,2,38099,task2,1496320,false,false,1966,image-keyboard-response,12
true,17,0,0,2,false,d,true,false,0.0-2.0-0.62-0.559-3.559,1,1,1,81,false,stim,false,2,578.9000000059605,1,0,2,38099,task2,1498429,false,false,1969,image-keyboard-response,13
true,18,1,2,0,false,q,true,false,0.0-2.0-0.62-0.560-3.560,1,0,0,90,true,stim,false,0,840.9000000059605,1,1,0,38099,task2,1500796,false,false,1972,image-keyboard-response,1
true,18,2,2,2,true,d,false,true,0.0-2.0-0.62-0.561-3.561,1,0,0,68,false,stim,false,1,571.5999999940395,1,0,1,38099,task2,1502901,false,false,1975,image-keyboard-response,2
true,18,2,2,0,false,q,true,false,0.0-2.0-0.62-0.562-3.562,1,0,0,68,false,stim,false,0,695.3000000119209,1,1,0,38099,task2,1505126,false,false,1978,image-keyboard-response,3
true,18,0,2,1,false,z,true,false,0.0-2.0-0.62-0.563-3.563,1,0,0,81,false,stim,false,2,466.59999999403954,1,0,2,38099,task2,1507125,false,false,1981,image-keyboard-response,4
true,18,1,2,2,false,d,false,false,0.0-2.0-0.62-0.564-3.564,1,0,0,90,false,stim,true,1,464.2999999821186,1,0,1,38099,task2,1509115,false,false,1984,image-keyboard-response,5
true,18,1,2,0,false,q,true,false,0.0-2.0-0.62-0.565-3.565,1,0,0,90,false,stim,false,0,740.0999999940395,1,1,0,38099,task2,1511381,false,false,1987,image-keyboard-response,6
true,18,2,2,2,true,d,false,true,0.0-2.0-0.62-0.566-3.566,1,0,0,68,false,stim,false,1,454.30000001192093,1,0,1,38099,task2,1513358,false,false,1990,image-keyboard-response,7
true,18,2,2,0,false,q,true,false,0.0-2.0-0.63-0.567-3.567,1,0,0,68,false,stim,false,0,696.2999999821186,1,1,0,38099,task2,1515581,false,false,1993,image-keyboard-response,8
true,18,2,2,2,true,d,false,true,0.0-2.0-0.63-0.568-3.568,1,0,0,68,false,stim,false,1,557.4000000059605,1,0,1,38099,task2,1517671,false,false,1996,image-keyboard-response,9
true,18,2,2,1,false,z,false,false,0.0-2.0-0.63-0.569-3.569,1,0,0,68,false,stim,true,2,504.19999998807907,1,0,2,38099,task2,1519711,false,false,1999,image-keyboard-response,10
true,18,2,2,0,false,q,true,false,0.0-2.0-0.63-0.570-3.570,1,0,0,68,false,stim,false,0,541.7000000178814,1,1,0,38099,task2,1521805,false,false,2002,image-keyboard-response,11
true,18,0,2,0,true,q,false,true,0.0-2.0-0.63-0.571-3.571,1,0,0,81,false,stim,false,0,468.7000000178814,1,1,0,38099,task2,1523801,false,false,2005,image-keyboard-response,12
true,18,0,2,1,false,z,true,false,0.0-2.0-0.63-0.572-3.572,1,0,0,81,false,stim,false,2,550.9000000059605,1,0,2,38099,task2,1525887,false,false,2008,image-keyboard-response,13
true,18,1,2,1,true,z,false,true,0.0-2.0-0.63-0.573-3.573,1,0,0,90,false,stim,false,2,601.6999999880791,1,0,2,38099,task2,1528024,false,false,2011,image-keyboard-response,14
true,18,1,2,2,false,d,false,false,0.0-2.0-0.63-0.574-3.574,1,0,0,90,false,stim,true,1,1479.1000000238419,1,0,1,38099,task2,1531040,false,false,2014,image-keyboard-response,15
true,18,2,2,2,true,d,false,true,0.0-2.0-0.63-0.575-3.575,1,0,0,68,false,stim,false,1,422.59999999403954,1,0,1,38099,task2,1533000,false,false,2017,image-keyboard-response,16
true,18,2,2,2,true,d,false,true,0.0-2.0-0.64-0.576-3.576,1,0,0,68,false,stim,false,1,344.2000000178814,1,0,1,38099,task2,1534869,false,false,2020,image-keyboard-response,17
true,18,2,2,0,false,q,true,false,0.0-2.0-0.64-0.577-3.577,1,0,0,68,false,stim,false,0,547.5,1,1,0,38099,task2,1536941,false,false,2023,image-keyboard-response,18
true,18,0,2,1,false,z,true,false,0.0-2.0-0.64-0.578-3.578,1,0,0,81,false,stim,false,2,301.5,1,0,2,38099,task2,1538770,false,false,2026,image-keyboard-response,19
true,18,0,2,1,false,z,true,false,0.0-2.0-0.64-0.579-3.579,1,0,0,81,false,stim,false,2,348.09999999403954,1,0,2,38099,task2,1540641,false,false,2029,image-keyboard-response,20
true,18,1,2,0,false,q,true,false,0.0-2.0-0.64-0.580-3.580,1,0,0,90,false,stim,false,0,670.6999999880791,1,1,0,38099,task2,1542850,false,false,2032,image-keyboard-response,21
true,18,0,2,0,true,q,false,true,0.0-2.0-0.64-0.581-3.581,1,0,0,81,false,stim,false,0,626.9000000059605,1,1,0,38099,task2,1545005,false,false,2035,image-keyboard-response,22
true,18,2,2,2,true,d,false,true,0.0-2.0-0.64-0.582-3.582,1,0,0,68,false,stim,false,1,1459.7000000178814,1,0,1,38099,task2,1547990,false,false,2038,image-keyboard-response,23
true,18,2,2,2,true,d,false,true,0.0-2.0-0.64-0.583-3.583,1,0,0,68,false,stim,false,1,461.60000002384186,1,0,1,38099,task2,1549990,false,false,2041,image-keyboard-response,24
true,18,2,2,1,false,z,false,false,0.0-2.0-0.64-0.584-3.584,1,0,0,68,false,stim,true,2,842.9000000059605,1,0,2,38099,task2,1552368,false,false,2044,image-keyboard-response,25
true,18,0,2,1,false,z,true,true,0.0-2.0-0.65-0.585-3.585,1,0,0,81,false,stim,false,2,294.0,1,0,2,38099,task2,1554189,false,true,2047,image-keyboard-response,26
true,18,1,2,0,false,q,true,true,0.0-2.0-0.65-0.586-3.586,1,0,0,90,false,stim,false,0,1865.5,1,1,0,38099,task2,1557573,false,true,2050,image-keyboard-response,27
true,18,1,2,2,false,d,false,false,0.0-2.0-0.65-0.587-3.587,1,0,0,90,false,stim,true,1,993.5999999940395,1,0,1,38099,task2,1560094,false,false,2053,image-keyboard-response,28
true,18,0,2,1,false,z,true,false,0.0-2.0-0.65-0.588-3.588,1,0,0,81,false,stim,false,2,772.5,1,0,2,38099,task2,1562400,false,false,2056,image-keyboard-response,29
