answered,blockNum,choice,condition,corResp,correct,correct_response,explo,fb,internal_node_id,isStable_1,isStable_2,isStable_3,key_press,newBlock,part,persev,persevResp,rt,sessNum,stableAS,stimulus,subject,task,time_elapsed,training,trap,trial_index,trial_type,trialsInBlock
true,1,0,0,1,false,z,true,false,0.0-2.0-0.0-0.0-3.0,0,0,0,81,true,stim,false,-1,590.2000000000116,2,0,2,38099,task1,109685,false,false,142,image-keyboard-response,1
true,1,1,0,0,false,q,true,false,0.0-2.0-0.0-0.1-3.1,0,0,0,90,false,stim,false,-1,162.90000000002328,2,0,1,38099,task1,111372,false,false,145,image-keyboard-response,2
true,1,2,0,1,false,z,true,false,0.0-2.0-0.0-0.2-3.2,0,0,0,68,false,stim,false,-1,264.4000000000233,2,0,2,38099,task1,113153,false,false,148,image-keyboard-response,3
true,1,1,0,2,false,d,true,false,0.0-2.0-0.0-0.3-3.3,0,0,0,90,false,stim,false,-1,323.29999999998836,2,0,0,38099,task1,115002,false,false,151,image-keyboard-response,4
true,1,1,0,1,true,z,false,true,0.0-2.0-0.0-0.4-3.4,0,0,0,90,false,stim,false,-1,252.79999999998836,2,0,2,38099,task1,116778,false,false,154,image-keyboard-response,5
true,1,1,0,0,false,q,true,false,0.0-2.0-0.0-0.5-3.5,0,0,0,90,false,stim,false,-1,284.70000000001164,2,0,1,38099,task1,118581,false,false,157,image-keyboard-response,6
true,1,1,0,2,false,d,true,false,0.0-2.0-0.0-0.6-3.6,0,0,0,90,false,stim,false,-1,196.5,2,0,0,38099,task1,120292,false,false,160,image-keyboard-response,7
true,1,0,0,0,true,q,false,true,0.0-2.0-0.0-0.7-3.7,0,0,0,81,false,stim,false,-1,386.5,2,0,1,38099,task1,122200,false,false,163,image-keyboard-response,8
true,1,0,0,2,false,d,true,false,0.0-2.0-0.0-0.8-3.8,0,0,0,81,false,stim,false,-1,298.29999999998836,2,0,0,38099,task1,124016,false,false,166,image-keyboard-response,9
true,1,1,0,1,true,z,false,true,0.0-2.0-0.1-0.9-3.9,0,0,0,90,false,stim,false,-1,332.1000000000349,2,0,2,38099,task1,125869,false,false,169,image-keyboard-response,10
true,1,1,0,2,false,d,true,true,0.0-2.0-0.1-0.10-3.10,0,0,0,90,false,stim,false,-1,253.0,2,0,0,38099,task1,127640,false,true,172,image-keyboard-response,11
true,1,1,0,1,true,z,false,true,0.0-2.0-0.1-0.11-3.11,0,0,0,90,false,stim,false,-1,276.5,2,0,2,38099,task1,129437,false,false,175,image-keyboard-response,12
true,1,1,0,0,false,q,true,false,0.0-2.0-0.1-0.12-3.12,0,0,0,90,false,stim,false,-1,622.9000000000233,2,0,1,38099,task1,131570,false,false,178,image-keyboard-response,13
true,1,2,0,2,true,d,false,true,0.0-2.0-0.1-0.13-3.13,0,0,0,68,false,stim,false,-1,376.0999999999767,2,0,0,38099,task1,133467,false,false,181,image-keyboard-response,14
true,1,1,0,0,false,q,true,false,0.0-2.0-0.1-0.14-3.14,0,0,0,90,false,stim,false,-1,488.4000000000233,2,0,1,38099,task1,135472,false,false,184,image-keyboard-response,15
true,1,0,0,0,true,q,false,true,0.0-2.0-0.1-0.15-3.15,0,0,0,81,false,stim,false,-1,513.1000000000349,2,0,1,38099,task1,137505,false,false,187,image-keyboard-response,16
true,1,0,0,1,false,z,true,false,0.0-2.0-0.1-0.16-3.16,0,0,0,81,false,stim,false,-1,311.5,2,0,2,38099,task1,139341,false,false,190,image-keyboard-response,17
true,1,1,0,2,false,d,true,false,0.0-2.0-0.1-0.17-3.17,0,0,0,90,false,stim,false,-1,322.0999999999767,2,0,0,38099,task1,141188,false,false,193,image-keyboard-response,18
true,1,2,0,0,false,q,true,false,0.0-2.0-0.2-0.18-3.18,0,0,0,68,false,stim,false,-1,252.20000000001164,2,0,1,38099,task1,142953,false,false,196,image-keyboard-response,19
true,1,1,0,2,false,d,true,false,0.0-2.0-0.2-0.19-3.19,0,0,0,90,false,stim,false,-1,149.90000000002328,2,0,0,38099,task1,144626,false,false,199,image-keyboard-response,20
true,1,1,0,1,true,z,false,true,0.0-2.0-0.2-0.20-3.20,0,0,0,90,false,stim,false,-1,253.79999999998836,2,0,2,38099,task1,146393,false,false,202,image-keyboard-response,21
true,1,1,0,2,false,d,true,false,0.0-2.0-0.2-0.21-3.21,0,0,0,90,false,stim,false,-1,304.79999999998836,2,0,0,38099,task1,148206,false,false,205,image-keyboard-response,22
true,1,1,0,0,false,q,true,false,0.0-2.0-0.2-0.22-3.22,0,0,0,90,false,stim,false,-1,256.29999999998836,2,0,1,38099,task1,149972,false,false,208,image-keyboard-response,23
true,1,0,0,0,true,q,false,true,0.0-2.0-0.2-0.23-3.23,0,0,0,81,false,stim,false,-1,114.0,2,0,1,38099,task1,151599,false,false,211,image-keyboard-response,24
true,1,0,0,2,false,d,true,false,0.0-2.0-0.2-0.24-3.24,0,0,0,81,false,stim,false,-1,419.70000000001164,2,0,0,38099,task1,153534,false,false,214,image-keyboard-response,25
true,1,1,0,1,true,z,false,true,0.0-2.0-0.2-0.25-3.25,0,0,0,90,false,stim,false,-1,321.20000000001164,2,0,2,38099,task1,155366,false,false,217,image-keyboard-response,26
true,2,2,1,2,true,d,false,true,0.0-2.0-0.2-0.26-3.26,0,0,0,68,true,stim,false,1,642.7000000000116,2,0,2,38099,task1,157524,false,false,220,image-keyboard-response,1
true,2,2,1,2,true,d,false,true,0.0-2.0-0.3-0.27-3.27,0,0,0,68,false,stim,false,1,358.6000000000349,2,0,2,38099,task1,159404,false,false,223,image-keyboard-response,2
true,2,2,1,0,false,q,false,false,0.0-2.0-0.3-0.28-3.28,0,0,0,68,false,stim,true,2,359.8999999999651,2,0,0,38099,task1,161274,false,false,226,image-keyboard-response,3
true,2,1,1,2,false,d,false,true,0.0-2.0-0.3-0.29-3.29,0,0,0,90,false,stim,true,1,305.29999999998836,2,0,2,38099,task1,163097,false,true,229,image-keyboard-response,4
true,2,1,1,2,false,d,true,false,0.0-2.0-0.3-0.30-3.30,0,0,0,90,false,stim,false,0,974.8999999999651,2,0,1,38099,task1,165588,false,false,232,image-keyboard-response,5
true,2,0,1,0,true,q,false,true,0.0-2.0-0.3-0.31-3.31,0,0,0,81,false,stim,false,2,322.5,2,0,0,38099,task1,167422,false,false,235,image-keyboard-response,6
true,2,1,1,0,false,q,true,false,0.0-2.0-0.3-0.32-3.32,0,0,0,90,false,stim,false,2,1520.7999999999884,2,0,0,38099,task1,170471,false,false,238,image-keyboard-response,7
true,2,2,1,2,true,d,false,true,0.0-2.0-0.3-0.33-3.33,0,0,0,68,false,stim,false,0,386.5999999999767,2,0,1,38099,task1,172381,false,false,241,image-keyboard-response,8
true,2,2,1,2,true,d,false,true,0.0-2.0-0.3-0.34-3.34,0,0,0,68,false,stim,false,0,333.4000000000233,2,0,1,38099,task1,174239,false,false,244,image-keyboard-response,9
true,2,2,1,2,true,d,false,true,0.0-2.0-0.3-0.35-3.35,0,0,0,68,false,stim,false,1,748.5,2,0,2,38099,task1,176498,false,false,247,image-keyboard-response,10
true,2,2,1,2,true,d,false,true,0.0-2.0-0.4-0.36-3.36,0,0,0,68,false,stim,false,0,620.4000000000233,2,0,1,38099,task1,178639,false,false,250,image-keyboard-response,11
true,2,0,1,0,true,q,false,true,0.0-2.0-0.4-0.37-3.37,0,0,0,81,false,stim,false,2,546.0,2,0,0,38099,task1,180709,false,false,253,image-keyboard-response,12
true,2,0,1,2,false,d,true,false,0.0-2.0-0.4-0.38-3.38,0,0,0,81,false,stim,false,1,411.29999999998836,2,0,2,38099,task1,182640,false,false,256,image-keyboard-response,13
true,2,1,1,2,false,d,true,false,0.0-2.0-0.4-0.39-3.39,0,0,0,90,false,stim,false,0,415.3999999999651,2,0,1,38099,task1,184579,false,false,259,image-keyboard-response,14
true,2,2,1,2,true,d,false,true,0.0-2.0-0.4-0.40-3.40,0,0,0,68,false,stim,false,0,532.2999999999884,2,0,1,38099,task1,186630,false,false,262,image-keyboard-response,15
true,2,2,1,0,false,q,false,false,0.0-2.0-0.4-0.41-3.41,0,0,0,68,false,stim,true,2,585.3999999999651,2,0,0,38099,task1,188733,false,false,265,image-keyboard-response,16
true,2,1,1,2,false,d,false,false,0.0-2.0-0.4-0.42-3.42,0,0,0,90,false,stim,true,1,278.20000000001164,2,0,2,38099,task1,190524,false,false,268,image-keyboard-response,17
true,2,0,1,2,false,d,true,false,0.0-2.0-0.4-0.43-3.43,0,0,0,81,false,stim,false,1,312.29999999998836,2,0,2,38099,task1,192365,false,false,271,image-keyboard-response,18
true,2,2,1,0,false,q,false,false,0.0-2.0-0.4-0.44-3.44,0,0,0,68,false,stim,true,2,341.4000000000233,2,0,0,38099,task1,194222,false,false,274,image-keyboard-response,19
true,2,1,1,0,false,q,true,false,0.0-2.0-0.5-0.45-3.45,0,0,0,90,false,stim,false,2,303.0,2,0,0,38099,task1,196049,false,false,277,image-keyboard-response,20
true,2,0,1,0,true,q,false,true,0.0-2.0-0.5-0.46-3.46,0,0,0,81,false,stim,false,2,370.5,2,0,0,38099,task1,197934,false,false,280,image-keyboard-response,21
true,2,2,1,2,true,d,false,true,0.0-2.0-0.5-0.47-3.47,0,0,0,68,false,stim,false,1,509.8999999999651,2,0,2,38099,task1,199960,false,false,283,image-keyboard-response,22
true,2,2,1,2,true,d,false,true,0.0-2.0-0.5-0.48-3.48,0,0,0,68,false,stim,false,1,356.29999999998836,2,0,2,38099,task1,201835,false,false,286,image-keyboard-response,23
true,2,2,1,2,true,d,false,true,0.0-2.0-0.5-0.49-3.49,0,0,0,68,false,stim,false,0,497.0999999999767,2,0,1,38099,task1,203864,false,false,289,image-keyboard-response,24
true,2,2,1,2,true,d,false,true,0.0-2.0-0.5-0.50-3.50,0,0,0,68,false,stim,false,0,410.70000000001164,2,0,1,38099,task1,205792,false,false,292,image-keyboard-response,25
true,2,2,1,2,true,d,false,true,0.0-2.0-0.5-0.51-3.51,0,0,0,68,false,stim,false,0,445.5,2,0,1,38099,task1,207751,false,false,295,image-keyboard-response,26
true,2,2,1,0,false,q,false,false,0.0-2.0-0.5-0.52-3.52,0,0,0,68,false,stim,true,2,376.4000000000233,2,0,0,38099,task1,209645,false,false,298,image-keyboard-response,27
true,2,1,1,2,false,d,false,false,0.0-2.0-0.5-0.53-3.53,0,0,0,90,false,stim,true,1,319.1000000000349,2,0,2,38099,task1,211491,false,false,301,image-keyboard-response,28
true,2,2,1,2,true,d,false,true,0.0-2.0-0.6-0.54-3.54,0,0,0,68,false,stim,false,1,283.79999999998836,2,0,2,38099,task1,213291,false,false,304,image-keyboard-response,29
true,2,2,1,2,true,d,false,true,0.0-2.0-0.6-0.55-3.55,0,0,0,68,false,stim,false,1,288.70000000001164,2,0,2,38099,task1,215104,false,false,307,image-keyboard-response,30
true,2,2,1,2,true,d,false,true,0.0-2.0-0.6-0.56-3.56,0,0,0,68,false,stim,false,0,304.5,2,0,1,38099,task1,216920,false,false,310,image-keyboard-response,31
true,2,2,1,0,false,q,false,false,0.0-2.0-0.6-0.57-3.57,0,0,0,68,false,stim,true,2,658.3000000000466,2,0,0,38099,task1,219094,false,false,313,image-keyboard-response,32
true,2,0,1,2,false,d,true,false,0.0-2.0-0.6-0.58-3.58,0,0,0,81,false,stim,false,1,420.1000000000349,2,0,2,38099,task1,221035,false,false,316,image-keyboard-response,33
true,2,2,1,2,true,d,false,true,0.0-2.0-0.6-0.59-3.59,0,0,0,68,false,stim,false,0,526.7999999999884,2,0,1,38099,task1,223075,false,false,319,image-keyboard-response,34
true,2,2,1,0,false,q,false,false,0.0-2.0-0.6-0.60-3.60,0,0,0,68,false,stim,true,2,360.0999999999767,2,0,0,38099,task1,224945,false,false,322,image-keyboard-response,35
true,2,1,1,0,false,q,true,false,0.0-2.0-0.6-0.61-3.61,0,0,0,90,false,stim,false,2,488.0999999999767,2,0,0,38099,task1,226952,false,false,325,image-keyboard-response,36
true,2,0,1,2,false,d,false,false,0.0-2.0-0.6-0.62-3.62,0,0,0,81,false,stim,true,0,253.29999999998836,2,0,1,38099,task1,228730,false,false,328,image-keyboard-response,37
true,2,2,1,2,true,d,false,true,0.0-2.0-0.7-0.63-3.63,0,0,0,68,false,stim,false,1,241.39999999996508,2,0,2,38099,task1,230487,false,false,331,image-keyboard-response,38
true,2,2,1,0,false,q,false,false,0.0-2.0-0.7-0.64-3.64,0,0,0,68,false,stim,true,2,457.0,2,0,0,38099,task1,232456,false,false,334,image-keyboard-response,39
true,2,1,1,2,false,d,false,false,0.0-2.0-0.7-0.65-3.65,0,0,0,90,false,stim,true,1,351.1000000000349,2,0,2,38099,task1,234325,false,false,337,image-keyboard-response,40
true,2,0,1,0,true,q,false,true,0.0-2.0-0.7-0.66-3.66,0,0,0,81,false,stim,false,2,573.0999999999767,2,0,0,38099,task1,236408,false,false,340,image-keyboard-response,41
true,2,0,1,2,false,d,false,false,0.0-2.0-0.7-0.67-3.67,0,0,0,81,false,stim,true,0,786.9000000000233,2,0,1,38099,task1,238709,false,false,343,image-keyboard-response,42
true,2,2,1,0,false,q,false,false,0.0-2.0-0.7-0.68-3.68,0,0,0,68,false,stim,true,2,368.9000000000233,2,0,0,38099,task1,240597,false,false,346,image-keyboard-response,43
true,2,1,1,2,false,d,true,false,0.0-2.0-0.7-0.69-3.69,0,0,0,90,false,stim,false,0,332.4000000000233,2,0,1,38099,task1,242442,false,false,349,image-keyboard-response,44
true,3,2,1,0,false,q,false,false,0.0-2.0-0.7-0.70-3.70,0,0,0,68,true,stim,true,2,301.4000000000233,2,0,1,38099,task1,244264,false,false,352,image-keyboard-response,1
true,3,2,1,1,false,z,false,false,0.0-2.0-0.7-0.71-3.71,0,0,0,68,false,stim,true,2,167.79999999998836,2,0,2,38099,task1,245941,false,false,355,image-keyboard-response,2
true,3,2,1,1,false,z,false,false,0.0-2.0-0.8-0.72-3.72,0,0,0,68,false,stim,true,2,772.4000000000233,2,0,2,38099,task1,248221,false,false,358,image-keyboard-response,3
true,3,1,1,1,true,z,false,true,0.0-2.0-0.8-0.73-3.73,0,0,0,90,false,stim,false,0,97.79999999998836,2,0,0,38099,task1,249841,false,false,361,image-keyboard-response,4
true,3,1,1,1,true,z,false,true,0.0-2.0-0.8-0.74-3.74,0,0,0,90,false,stim,false,2,272.5999999999767,2,0,2,38099,task1,251628,false,false,364,image-keyboard-response,5
true,3,1,1,0,false,q,true,false,0.0-2.0-0.8-0.75-3.75,0,0,0,90,false,stim,false,2,266.4000000000233,2,0,1,38099,task1,253410,false,false,367,image-keyboard-response,6
true,3,1,1,1,true,z,false,true,0.0-2.0-0.8-0.76-3.76,0,0,0,90,false,stim,false,0,479.6000000000349,2,0,0,38099,task1,255412,false,false,370,image-keyboard-response,7
true,3,1,1,1,true,z,false,false,0.0-2.0-0.8-0.77-3.77,0,0,0,90,false,stim,false,2,438.70000000001164,2,0,2,38099,task1,257369,false,true,373,image-keyboard-response,8
true,3,2,1,0,false,q,false,false,0.0-2.0-0.8-0.78-3.78,0,0,0,68,false,stim,true,2,529.0,2,0,1,38099,task1,259419,false,false,376,image-keyboard-response,9
true,3,2,1,0,false,q,false,false,0.0-2.0-0.8-0.79-3.79,0,0,0,68,false,stim,true,2,493.29999999998836,2,0,1,38099,task1,261439,false,false,379,image-keyboard-response,10
true,3,0,1,1,false,z,false,false,0.0-2.0-0.8-0.80-3.80,0,0,0,81,false,stim,true,0,339.0999999999767,2,0,0,38099,task1,263300,false,false,382,image-keyboard-response,11
true,3,1,1,1,true,z,false,true,0.0-2.0-0.9-0.81-3.81,0,0,0,90,false,stim,false,0,306.6000000000349,2,0,0,38099,task1,265116,false,false,385,image-keyboard-response,12
true,3,1,1,1,true,z,false,false,0.0-2.0-0.9-0.82-3.82,0,0,0,90,false,stim,false,0,465.80000000004657,2,0,0,38099,task1,267094,false,true,388,image-keyboard-response,13
true,3,2,1,0,false,q,false,false,0.0-2.0-0.9-0.83-3.83,0,0,0,68,false,stim,true,2,553.0999999999767,2,0,1,38099,task1,269158,false,false,391,image-keyboard-response,14
true,3,1,1,1,true,z,false,true,0.0-2.0-0.9-0.84-3.84,0,0,0,90,false,stim,false,0,371.29999999998836,2,0,0,38099,task1,271045,false,false,394,image-keyboard-response,15
true,3,1,1,1,true,z,false,true,0.0-2.0-0.9-0.85-3.85,0,0,0,90,false,stim,false,2,503.30000000004657,2,0,2,38099,task1,273059,false,false,397,image-keyboard-response,16
true,3,1,1,0,false,q,true,false,0.0-2.0-0.9-0.86-3.86,0,0,0,90,false,stim,false,2,405.9000000000233,2,0,1,38099,task1,274981,false,false,400,image-keyboard-response,17
true,3,0,1,1,false,z,true,false,0.0-2.0-0.9-0.87-3.87,0,0,0,81,false,stim,false,2,463.29999999998836,2,0,2,38099,task1,276961,false,false,403,image-keyboard-response,18
true,3,2,1,1,false,z,false,false,0.0-2.0-0.9-0.88-3.88,0,0,0,68,false,stim,true,2,293.70000000001164,2,0,2,38099,task1,278767,false,false,406,image-keyboard-response,19
true,3,1,1,0,false,q,true,false,0.0-2.0-0.9-0.89-3.89,0,0,0,90,false,stim,false,2,349.29999999998836,2,0,1,38099,task1,280639,false,false,409,image-keyboard-response,20
true,3,0,1,0,true,q,false,true,0.0-2.0-0.10-0.90-3.90,0,0,0,81,false,stim,false,2,687.3999999999651,2,0,1,38099,task1,282848,false,false,412,image-keyboard-response,21
true,3,0,1,1,false,z,true,false,0.0-2.0-0.10-0.91-3.91,0,0,0,81,false,stim,false,2,432.5,2,0,2,38099,task1,284796,false,false,415,image-keyboard-response,22
true,3,2,1,1,false,z,true,false,0.0-2.0-0.10-0.92-3.92,0,0,0,68,false,stim,false,0,486.70000000001164,2,0,0,38099,task1,286797,false,false,418,image-keyboard-response,23
true,3,1,1,0,false,q,true,false,0.0-2.0-0.10-0.93-3.93,0,0,0,90,false,stim,false,2,301.0,2,0,1,38099,task1,288608,false,false,421,image-keyboard-response,24
true,3,1,1,1,true,z,false,true,0.0-2.0-0.10-0.94-3.94,0,0,0,90,false,stim,false,0,588.8999999999651,2,0,0,38099,task1,290714,false,false,424,image-keyboard-response,25
true,3,1,1,1,true,z,false,true,0.0-2.0-0.10-0.95-3.95,0,0,0,90,false,stim,false,2,361.0,2,0,2,38099,task1,292592,false,false,427,image-keyboard-response,26
true,3,1,1,0,false,q,true,false,0.0-2.0-0.10-0.96-3.96,0,0,0,90,false,stim,false,2,594.2000000000116,2,0,1,38099,task1,294706,false,false,430,image-keyboard-response,27
true,3,2,1,1,false,z,true,false,0.0-2.0-0.10-0.97-3.97,0,0,0,68,false,stim,false,0,407.69999999995343,2,0,0,38099,task1,296624,false,false,433,image-keyboard-response,28
true,3,1,1,1,true,z,false,true,0.0-2.0-0.10-0.98-3.98,0,0,0,90,false,stim,false,2,420.3999999999651,2,0,2,38099,task1,298559,false,false,436,image-keyboard-response,29
true,3,1,1,1,true,z,false,false,0.0-2.0-0.11-0.99-3.99,0,0,0,90,false,stim,false,0,269.8999999999651,2,0,0,38099,task1,300353,false,true,439,image-keyboard-response,30
true,3,1,1,1,true,z,false,false,0.0-2.0-0.11-0.100-3.100,0,0,0,90,false,stim,false,2,486.0,2,0,2,38099,task1,302359,false,true,442,image-keyboard-response,31
true,3,1,1,0,false,q,true,false,0.0-2.0-0.11-0.101-3.101,0,0,0,90,false,stim,false,2,478.0,2,0,1,38099,task1,304372,false,false,445,image-keyboard-response,32
true,3,2,1,1,false,z,false,false,0.0-2.0-0.11-0.102-3.102,0,0,0,68,false,stim,true,2,235.89999999996508,2,0,2,38099,task1,306131,false,false,448,image-keyboard-response,33
true,3,2,1,1,false,z,false,false,0.0-2.0-0.11-0.103-3.103,0,0,0,68,false,stim,true,2,507.70000000001164,2,0,2,38099,task1,308170,false,false,451,image-keyboard-response,34
true,3,1,1,1,true,z,false,true,0.0-2.0-0.11-0.104-3.104,0,0,0,90,false,stim,false,0,811.0,2,0,0,38099,task1,310493,false,false,454,image-keyboard-response,35
true,3,1,1,1,true,z,false,true,0.0-2.0-0.11-0.105-3.105,0,0,0,90,false,stim,false,0,457.70000000001164,2,0,0,38099,task1,312463,false,false,457,image-keyboard-response,36
true,3,1,1,0,false,q,true,false,0.0-2.0-0.11-0.106-3.106,0,0,0,90,false,stim,false,2,372.20000000001164,2,0,1,38099,task1,314351,false,false,460,image-keyboard-response,37
true,3,1,1,0,false,q,true,false,0.0-2.0-0.11-0.107-3.107,0,0,0,90,false,stim,false,2,435.70000000001164,2,0,1,38099,task1,316312,false,false,463,image-keyboard-response,38
true,3,1,1,1,true,z,false,true,0.0-2.0-0.12-0.108-3.108,0,0,0,90,false,stim,false,0,931.0,2,0,0,38099,task1,318764,false,false,466,image-keyboard-response,39
true,3,1,1,1,true,z,false,true,0.0-2.0-0.12-0.109-3.109,0,0,0,90,false,stim,false,0,394.0999999999767,2,0,0,38099,task1,320680,false,false,469,image-keyboard-response,40
true,3,1,1,1,true,z,false,true,0.0-2.0-0.12-0.110-3.110,0,0,0,90,false,stim,false,0,662.7000000000116,2,0,0,38099,task1,322860,false,false,472,image-keyboard-response,41
true,3,2,1,0,false,q,false,false,0.0-2.0-0.12-0.111-3.111,0,0,0,68,false,stim,true,2,551.7999999999884,2,0,1,38099,task1,324932,false,false,475,image-keyboard-response,42
true,3,1,1,1,true,z,false,true,0.0-2.0-0.12-0.112-3.112,0,0,0,90,false,stim,false,2,604.6000000000349,2,0,2,38099,task1,327053,false,false,478,image-keyboard-response,43
true,4,1,1,2,false,d,true,false,0.0-2.0-0.12-0.113-3.113,0,0,0,90,true,stim,false,0,787.7000000000116,2,0,1,38099,task1,329358,false,false,481,image-keyboard-response,1
true,4,2,1,0,false,q,true,false,0.0-2.0-0.12-0.114-3.114,0,0,0,68,false,stim,false,1,657.6999999999534,2,0,2,38099,task1,331536,false,false,484,image-keyboard-response,2
true,4,1,1,2,false,d,true,false,0.0-2.0-0.12-0.115-3.115,0,0,0,90,false,stim,false,0,857.0,2,0,1,38099,task1,333918,false,false,487,image-keyboard-response,3
true,4,0,1,0,true,q,false,true,0.0-2.0-0.12-0.116-3.116,0,0,0,81,false,stim,false,1,519.0999999999767,2,0,2,38099,task1,335952,false,false,490,image-keyboard-response,4
true,4,1,1,0,false,q,false,false,0.0-2.0-0.13-0.117-3.117,0,0,0,90,false,stim,true,1,703.7000000000116,2,0,0,38099,task1,338180,false,false,493,image-keyboard-response,5
true,4,2,1,0,false,q,true,false,0.0-2.0-0.13-0.118-3.118,0,0,0,68,false,stim,false,1,654.5,2,0,2,38099,task1,340359,false,false,496,image-keyboard-response,6
true,4,1,1,2,false,d,true,false,0.0-2.0-0.13-0.119-3.119,0,0,0,90,false,stim,false,0,602.5,2,0,1,38099,task1,342489,false,false,499,image-keyboard-response,7
true,4,0,1,0,true,q,false,true,0.0-2.0-0.13-0.120-3.120,0,0,0,81,false,stim,false,1,407.69999999995343,2,0,0,38099,task1,344424,false,false,502,image-keyboard-response,8
true,4,0,1,0,true,q,false,true,0.0-2.0-0.13-0.121-3.121,0,0,0,81,false,stim,false,1,938.2999999999884,2,0,0,38099,task1,346877,false,false,505,image-keyboard-response,9
true,4,0,1,0,true,q,false,true,0.0-2.0-0.13-0.122-3.122,0,0,0,81,false,stim,false,1,712.8000000000466,2,0,2,38099,task1,349101,false,false,508,image-keyboard-response,10
true,4,0,1,2,false,d,false,false,0.0-2.0-0.13-0.123-3.123,0,0,0,81,false,stim,true,0,855.5,2,0,1,38099,task1,351469,false,false,511,image-keyboard-response,11
true,4,2,1,2,true,d,false,true,0.0-2.0-0.13-0.124-3.124,0,0,0,68,false,stim,false,0,526.3000000000466,2,0,1,38099,task1,353524,false,false,514,image-keyboard-response,12
true,4,2,1,0,false,q,true,false,0.0-2.0-0.13-0.125-3.125,0,0,0,68,false,stim,false,1,541.8999999999069,2,0,2,38099,task1,355583,false,false,517,image-keyboard-response,13
true,4,2,1,0,false,q,true,false,0.0-2.0-0.14-0.126-3.126,0,0,0,68,false,stim,false,1,500.0999999999767,2,0,2,38099,task1,357609,false,false,520,image-keyboard-response,14
true,4,1,1,2,false,d,true,false,0.0-2.0-0.14-0.127-3.127,0,0,0,90,false,stim,false,0,631.4000000000233,2,0,1,38099,task1,359757,false,false,523,image-keyboard-response,15
true,4,0,1,0,true,q,false,false,0.0-2.0-0.14-0.128-3.128,0,0,0,81,false,stim,false,1,536.9000000000233,2,0,0,38099,task1,361816,false,true,526,image-keyboard-response,16
true,4,2,1,0,false,q,true,false,0.0-2.0-0.14-0.129-3.129,0,0,0,68,false,stim,false,1,413.30000000004657,2,0,0,38099,task1,363750,false,false,529,image-keyboard-response,17
true,4,1,1,0,false,q,false,false,0.0-2.0-0.14-0.130-3.130,0,0,0,90,false,stim,true,1,216.70000000006985,2,0,2,38099,task1,365484,false,false,532,image-keyboard-response,18
true,4,2,1,0,false,q,true,false,0.0-2.0-0.14-0.131-3.131,0,0,0,68,false,stim,false,1,304.0999999999767,2,0,0,38099,task1,367304,false,false,535,image-keyboard-response,19
true,4,1,1,2,false,d,true,false,0.0-2.0-0.14-0.132-3.132,0,0,0,90,false,stim,false,0,767.5,2,0,1,38099,task1,369595,false,false,538,image-keyboard-response,20
true,4,0,1,2,false,d,false,false,0.0-2.0-0.14-0.133-3.133,0,0,0,81,false,stim,true,0,686.1999999999534,2,0,1,38099,task1,371804,false,false,541,image-keyboard-response,21
true,4,1,1,0,false,q,false,false,0.0-2.0-0.14-0.134-3.134,0,0,0,90,false,stim,true,1,387.0999999999767,2,0,2,38099,task1,373708,false,false,544,image-keyboard-response,22
true,4,1,1,0,false,q,false,false,0.0-2.0-0.15-0.135-3.135,0,0,0,90,false,stim,true,1,976.6999999999534,2,0,2,38099,task1,376199,false,false,547,image-keyboard-response,23
true,4,2,1,0,false,q,true,false,0.0-2.0-0.15-0.136-3.136,0,0,0,68,false,stim,false,1,349.0999999999767,2,0,0,38099,task1,378064,false,false,550,image-keyboard-response,24
true,4,0,1,2,false,d,false,false,0.0-2.0-0.15-0.137-3.137,0,0,0,81,false,stim,true,0,387.80000000004657,2,0,1,38099,task1,379968,false,false,553,image-keyboard-response,25
true,4,2,1,2,true,d,false,true,0.0-2.0-0.15-0.138-3.138,0,0,0,68,false,stim,false,0,484.4000000000233,2,0,1,38099,task1,381965,false,false,556,image-keyboard-response,26
true,4,2,1,0,false,q,true,true,0.0-2.0-0.15-0.139-3.139,0,0,0,68,false,stim,false,1,439.4000000000233,2,0,2,38099,task1,383917,false,true,559,image-keyboard-response,27
true,4,2,1,0,false,q,true,false,0.0-2.0-0.15-0.140-3.140,0,0,0,68,false,stim,false,1,668.0999999999767,2,0,0,38099,task1,386109,false,false,562,image-keyboard-response,28
true,4,2,1,0,false,q,true,false,0.0-2.0-0.15-0.141-3.141,0,0,0,68,false,stim,false,1,547.4000000000233,2,0,2,38099,task1,388171,false,false,565,image-keyboard-response,29
true,4,2,1,2,true,d,false,true,0.0-2.0-0.15-0.142-3.142,0,0,0,68,false,stim,false,0,505.60000000009313,2,0,1,38099,task1,390196,false,false,568,image-keyboard-response,30
true,4,2,1,0,false,q,true,false,0.0-2.0-0.15-0.143-3.143,0,0,0,68,false,stim,false,1,475.79999999993015,2,0,0,38099,task1,392188,false,false,571,image-keyboard-response,31
true,4,0,1,0,true,q,false,true,0.0-2.0-0.16-0.144-3.144,0,0,0,81,false,stim,false,1,273.0999999999767,2,0,0,38099,task1,393981,false,false,574,image-keyboard-response,32
true,4,0,1,0,true,q,false,true,0.0-2.0-0.16-0.145-3.145,0,0,0,81,false,stim,false,1,442.0,2,0,2,38099,task1,395940,false,false,577,image-keyboard-response,33
true,4,0,1,2,false,d,false,false,0.0-2.0-0.16-0.146-3.146,0,0,0,81,false,stim,true,0,295.4000000000233,2,0,1,38099,task1,397745,false,false,580,image-keyboard-response,34
true,4,1,1,0,false,q,false,false,0.0-2.0-0.16-0.147-3.147,0,0,0,90,false,stim,true,1,390.60000000009313,2,0,0,38099,task1,399647,false,false,583,image-keyboard-response,35
true,4,0,1,0,true,q,false,true,0.0-2.0-0.16-0.148-3.148,0,0,0,81,false,stim,false,1,961.5,2,0,2,38099,task1,402134,false,false,586,image-keyboard-response,36
true,4,0,1,2,false,d,false,false,0.0-2.0-0.16-0.149-3.149,0,0,0,81,false,stim,true,0,333.5,2,0,1,38099,task1,403992,false,false,589,image-keyboard-response,37
true,4,0,1,2,false,d,false,false,0.0-2.0-0.16-0.150-3.150,0,0,0,81,false,stim,true,0,459.5,2,0,1,38099,task1,405968,false,false,592,image-keyboard-response,38
true,4,0,1,0,true,q,false,true,0.0-2.0-0.16-0.151-3.151,0,0,0,81,false,stim,false,1,993.8000000000466,2,0,2,38099,task1,408484,false,false,595,image-keyboard-response,39
true,4,0,1,0,true,q,false,true,0.0-2.0-0.16-0.152-3.152,0,0,0,81,false,stim,false,1,599.0,2,0,0,38099,task1,410607,false,false,598,image-keyboard-response,40
true,4,0,1,0,true,q,false,true,0.0-2.0-0.17-0.153-3.153,0,0,0,81,false,stim,false,1,396.0,2,0,2,38099,task1,412531,false,false,601,image-keyboard-response,41
true,4,0,1,0,true,q,false,true,0.0-2.0-0.17-0.154-3.154,0,0,0,81,false,stim,false,1,454.69999999995343,2,0,0,38099,task1,414495,false,false,604,image-keyboard-response,42
true,5,2,2,1,false,z,true,false,0.0-2.0-0.17-0.155-3.155,0,0,0,68,true,stim,false,0,483.0,2,0,2,38099,task1,416504,false,false,607,image-keyboard-response,1
true,5,1,2,1,true,z,false,true,0.0-2.0-0.17-0.156-3.156,0,0,0,90,false,stim,false,0,514.3000000000466,2,0,2,38099,task1,418528,false,false,610,image-keyboard-response,2
true,5,0,2,0,true,q,false,true,0.0-2.0-0.17-0.157-3.157,0,0,0,81,false,stim,false,2,459.79999999993015,2,0,1,38099,task1,420504,false,false,613,image-keyboard-response,3
true,5,0,2,0,true,q,false,true,0.0-2.0-0.17-0.158-3.158,0,0,0,81,false,stim,false,2,262.60000000009313,2,0,1,38099,task1,422291,false,false,616,image-keyboard-response,4
true,5,0,2,1,false,z,false,false,0.0-2.0-0.17-0.159-3.159,0,0,0,81,false,stim,true,0,394.69999999995343,2,0,0,38099,task1,424200,false,false,619,image-keyboard-response,5
true,5,1,2,1,true,z,false,true,0.0-2.0-0.17-0.160-3.160,0,0,0,90,false,stim,false,0,367.29999999993015,2,0,0,38099,task1,426086,false,false,622,image-keyboard-response,6
true,5,0,2,0,true,q,false,true,0.0-2.0-0.17-0.161-3.161,0,0,0,81,false,stim,false,2,690.0999999999767,2,0,1,38099,task1,428297,false,false,625,image-keyboard-response,7
true,5,0,2,0,true,q,false,true,0.0-2.0-0.18-0.162-3.162,0,0,0,81,false,stim,false,2,329.69999999995343,2,0,1,38099,task1,430152,false,false,628,image-keyboard-response,8
true,5,0,2,0,true,q,false,true,0.0-2.0-0.18-0.163-3.163,0,0,0,81,false,stim,false,2,416.39999999990687,2,0,1,38099,task1,432090,false,false,631,image-keyboard-response,9
true,5,1,2,1,true,z,false,true,0.0-2.0-0.18-0.164-3.164,0,0,0,90,false,stim,false,0,439.19999999995343,2,0,0,38099,task1,434042,false,false,634,image-keyboard-response,10
true,5,2,2,1,false,z,true,false,0.0-2.0-0.18-0.165-3.165,0,0,0,68,false,stim,false,0,633.7000000000698,2,0,2,38099,task1,436193,false,false,637,image-keyboard-response,11
true,5,1,2,1,true,z,false,true,0.0-2.0-0.18-0.166-3.166,0,0,0,90,false,stim,false,0,431.0,2,0,2,38099,task1,438140,false,false,640,image-keyboard-response,12
true,5,1,2,1,true,z,false,true,0.0-2.0-0.18-0.167-3.167,0,0,0,90,false,stim,false,0,357.30000000004657,2,0,2,38099,task1,440007,false,false,643,image-keyboard-response,13
true,5,1,2,0,false,q,true,false,0.0-2.0-0.18-0.168-3.168,0,0,0,90,false,stim,false,2,594.0999999999767,2,0,1,38099,task1,442126,false,false,646,image-keyboard-response,14
true,5,0,2,1,false,z,false,false,0.0-2.0-0.18-0.169-3.169,0,0,0,81,false,stim,true,0,446.79999999993015,2,0,0,38099,task1,444096,false,false,649,image-keyboard-response,15
true,5,1,2,1,true,z,false,true,0.0-2.0-0.18-0.170-3.170,0,0,0,90,false,stim,false,0,355.9000000000233,2,0,0,38099,task1,445969,false,false,652,image-keyboard-response,16
true,5,1,2,0,false,q,true,false,0.0-2.0-0.19-0.171-3.171,0,0,0,90,false,stim,false,2,454.19999999995343,2,0,1,38099,task1,447945,false,false,655,image-keyboard-response,17
true,5,0,2,1,false,z,false,false,0.0-2.0-0.19-0.172-3.172,0,0,0,81,false,stim,true,0,529.9000000000233,2,0,2,38099,task1,449982,false,false,658,image-keyboard-response,18
true,5,2,2,0,false,q,false,false,0.0-2.0-0.19-0.173-3.173,0,0,0,68,false,stim,true,2,424.0999999999767,2,0,1,38099,task1,451939,false,false,661,image-keyboard-response,19
true,5,2,2,1,false,z,true,false,0.0-2.0-0.19-0.174-3.174,0,0,0,68,false,stim,false,0,765.7999999999302,2,0,2,38099,task1,454222,false,false,664,image-keyboard-response,20
true,5,1,2,1,true,z,false,false,0.0-2.0-0.19-0.175-3.175,0,0,0,90,false,stim,false,0,283.9000000000233,2,0,0,38099,task1,456025,false,true,667,image-keyboard-response,21
true,5,0,2,1,false,z,false,false,0.0-2.0-0.19-0.176-3.176,0,0,0,81,false,stim,true,0,249.19999999995343,2,0,0,38099,task1,457789,false,false,670,image-keyboard-response,22
true,5,0,2,0,true,q,false,true,0.0-2.0-0.19-0.177-3.177,0,0,0,81,false,stim,false,2,275.29999999993015,2,0,1,38099,task1,459587,false,false,673,image-keyboard-response,23
true,5,0,2,1,false,z,false,false,0.0-2.0-0.19-0.178-3.178,0,0,0,81,false,stim,true,0,383.0999999999767,2,0,2,38099,task1,461498,false,false,676,image-keyboard-response,24
true,5,1,2,1,true,z,false,true,0.0-2.0-0.19-0.179-3.179,0,0,0,90,false,stim,false,0,298.60000000009313,2,0,0,38099,task1,463311,false,false,679,image-keyboard-response,25
true,5,1,2,1,true,z,false,true,0.0-2.0-0.20-0.180-3.180,0,0,0,90,false,stim,false,0,537.4000000000233,2,0,0,38099,task1,465370,false,false,682,image-keyboard-response,26
true,5,1,2,1,true,z,false,true,0.0-2.0-0.20-0.181-3.181,0,0,0,90,false,stim,false,0,329.29999999993015,2,0,0,38099,task1,467223,false,false,685,image-keyboard-response,27
true,5,1,2,0,false,q,true,false,0.0-2.0-0.20-0.182-3.182,0,0,0,90,false,stim,false,2,615.3000000000466,2,0,1,38099,task1,469357,false,false,688,image-keyboard-response,28
true,5,0,2,1,false,z,false,false,0.0-2.0-0.20-0.183-3.183,0,0,0,81,false,stim,true,0,636.1999999999534,2,0,2,38099,task1,471514,false,false,691,image-keyboard-response,29
true,5,1,2,1,true,z,false,true,0.0-2.0-0.20-0.184-3.184,0,0,0,90,false,stim,false,0,383.19999999995343,2,0,2,38099,task1,473415,false,false,694,image-keyboard-response,30
true,5,2,2,0,false,q,false,false,0.0-2.0-0.20-0.185-3.185,0,0,0,68,false,stim,true,2,290.0999999999767,2,0,1,38099,task1,475228,false,false,697,image-keyboard-response,31
true,5,1,2,0,false,q,true,false,0.0-2.0-0.20-0.186-3.186,0,0,0,90,false,stim,false,2,300.5999999999767,2,0,1,38099,task1,477040,false,false,700,image-keyboard-response,32
true,5,0,2,1,false,z,false,false,0.0-2.0-0.20-0.187-3.187,0,0,0,81,false,stim,true,0,585.0999999999767,2,0,2,38099,task1,479167,false,false,703,image-keyboard-response,33
true,5,2,2,1,false,z,true,false,0.0-2.0-0.20-0.188-3.188,0,0,0,68,false,stim,false,0,276.19999999995343,2,0,0,38099,task1,480968,false,false,706,image-keyboard-response,34
true,5,1,2,1,true,z,false,true,0.0-2.0-0.21-0.189-3.189,0,0,0,90,false,stim,false,0,376.69999999995343,2,0,2,38099,task1,482875,false,false,709,image-keyboard-response,35
true,5,1,2,1,true,z,false,true,0.0-2.0-0.21-0.190-3.190,0,0,0,90,false,stim,false,0,721.5999999999767,2,0,0,38099,task1,485118,false,false,712,image-keyboard-response,36
true,5,1,2,1,true,z,false,true,0.0-2.0-0.21-0.191-3.191,0,0,0,90,false,stim,false,0,330.69999999995343,2,0,0,38099,task1,486971,false,false,715,image-keyboard-response,37
true,5,1,2,0,false,q,true,false,0.0-2.0-0.21-0.192-3.192,0,0,0,90,false,stim,false,2,474.20000000006985,2,0,1,38099,task1,488968,false,false,718,image-keyboard-response,38
true,5,0,2,0,true,q,false,true,0.0-2.0-0.21-0.193-3.193,0,0,0,81,false,stim,false,2,571.7999999999302,2,0,1,38099,task1,491063,false,false,721,image-keyboard-response,39
true,5,0,2,1,false,z,false,false,0.0-2.0-0.21-0.194-3.194,0,0,0,81,false,stim,true,0,323.39999999990687,2,0,2,38099,task1,492901,false,false,724,image-keyboard-response,40
true,5,1,2,0,false,q,true,false,0.0-2.0-0.21-0.195-3.195,0,0,0,90,false,stim,false,2,393.20000000006985,2,0,1,38099,task1,494804,false,false,727,image-keyboard-response,41
true,5,2,2,1,false,z,true,false,0.0-2.0-0.21-0.196-3.196,0,0,0,68,false,stim,false,0,1076.5999999999767,2,0,2,38099,task1,497407,false,false,730,image-keyboard-response,42
true,5,1,2,1,true,z,false,true,0.0-2.0-0.21-0.197-3.197,0,0,0,90,false,stim,false,0,623.7999999999302,2,0,0,38099,task1,499550,false,false,733,image-keyboard-response,43
true,5,1,2,0,false,q,true,false,0.0-2.0-0.22-0.198-3.198,0,0,0,90,false,stim,false,2,333.9000000000233,2,0,1,38099,task1,501411,false,false,736,image-keyboard-response,44
true,6,0,1,1,false,z,false,false,0.0-2.0-0.22-0.199-3.199,0,0,0,81,true,stim,true,0,867.1999999999534,2,0,1,38099,task1,503796,false,false,739,image-keyboard-response,1
true,6,1,1,0,false,q,false,false,0.0-2.0-0.22-0.200-3.200,0,0,0,90,false,stim,true,1,466.29999999993015,2,0,2,38099,task1,505782,false,false,742,image-keyboard-response,2
true,6,1,1,2,false,d,false,false,0.0-2.0-0.22-0.201-3.201,0,0,0,90,false,stim,true,1,377.5,2,0,0,38099,task1,507683,false,false,745,image-keyboard-response,3
true,6,1,1,0,false,q,false,false,0.0-2.0-0.22-0.202-3.202,0,0,0,90,false,stim,true,1,429.9000000000233,2,0,2,38099,task1,509648,false,false,748,image-keyboard-response,4
true,6,1,1,0,false,q,false,false,0.0-2.0-0.22-0.203-3.203,0,0,0,90,false,stim,true,1,514.5999999999767,2,0,2,38099,task1,511683,false,false,751,image-keyboard-response,5
true,6,2,1,2,true,d,false,true,0.0-2.0-0.22-0.204-3.204,0,0,0,68,false,stim,false,1,343.0999999999767,2,0,0,38099,task1,513538,false,false,754,image-keyboard-response,6
true,6,1,1,2,false,d,false,false,0.0-2.0-0.22-0.205-3.205,0,0,0,90,false,stim,true,1,366.4000000000233,2,0,0,38099,task1,515427,false,false,757,image-keyboard-response,7
true,6,0,1,1,false,z,false,false,0.0-2.0-0.22-0.206-3.206,0,0,0,81,false,stim,true,0,329.0999999999767,2,0,1,38099,task1,517277,false,false,760,image-keyboard-response,8
true,6,2,1,0,false,q,true,false,0.0-2.0-0.23-0.207-3.207,0,0,0,68,false,stim,false,1,328.5999999999767,2,0,2,38099,task1,519127,false,false,763,image-keyboard-response,9
true,6,1,1,1,true,z,false,false,0.0-2.0-0.23-0.208-3.208,0,0,0,90,false,stim,false,0,396.29999999993015,2,0,1,38099,task1,521045,false,true,766,image-keyboard-response,10
true,6,0,1,0,true,q,false,true,0.0-2.0-0.23-0.209-3.209,0,0,0,81,false,stim,false,1,346.0999999998603,2,0,2,38099,task1,522910,false,false,769,image-keyboard-response,11
true,6,0,1,1,false,z,false,false,0.0-2.0-0.23-0.210-3.210,0,0,0,81,false,stim,true,0,504.80000000004657,2,0,1,38099,task1,524935,false,false,772,image-keyboard-response,12
true,6,1,1,2,false,d,false,false,0.0-2.0-0.23-0.211-3.211,0,0,0,90,false,stim,true,1,626.3000000000466,2,0,0,38099,task1,527080,false,false,775,image-keyboard-response,13
true,6,2,1,0,false,q,true,true,0.0-2.0-0.23-0.212-3.212,0,0,0,68,false,stim,false,1,374.69999999995343,2,0,2,38099,task1,528979,false,true,778,image-keyboard-response,14
true,6,2,1,2,true,d,false,true,0.0-2.0-0.23-0.213-3.213,0,0,0,68,false,stim,false,1,324.80000000004657,2,0,0,38099,task1,530841,false,false,781,image-keyboard-response,15
true,6,2,1,2,true,d,false,true,0.0-2.0-0.23-0.214-3.214,0,0,0,68,false,stim,false,1,384.80000000004657,2,0,0,38099,task1,532749,false,false,784,image-keyboard-response,16
true,6,2,1,1,false,z,true,false,0.0-2.0-0.23-0.215-3.215,0,0,0,68,false,stim,false,0,389.9000000001397,2,0,1,38099,task1,534654,false,false,787,image-keyboard-response,17
true,6,1,1,1,true,z,false,true,0.0-2.0-0.24-0.216-3.216,0,0,0,90,false,stim,false,0,347.4000000001397,2,0,1,38099,task1,536513,false,false,790,image-keyboard-response,18
true,6,1,1,1,true,z,false,true,0.0-2.0-0.24-0.217-3.217,0,0,0,90,false,stim,false,0,381.5,2,0,1,38099,task1,538419,false,false,793,image-keyboard-response,19
true,6,1,1,0,false,q,false,false,0.0-2.0-0.24-0.218-3.218,0,0,0,90,false,stim,true,1,501.5,2,0,2,38099,task1,540434,false,false,796,image-keyboard-response,20
true,6,1,1,1,true,z,false,true,0.0-2.0-0.24-0.219-3.219,0,0,0,90,false,stim,false,0,584.6999999999534,2,0,1,38099,task1,542547,false,false,799,image-keyboard-response,21
true,6,1,1,2,false,d,false,false,0.0-2.0-0.24-0.220-3.220,0,0,0,90,false,stim,true,1,495.5,2,0,0,38099,task1,544572,false,false,802,image-keyboard-response,22
true,6,0,1,2,false,d,true,false,0.0-2.0-0.24-0.221-3.221,0,0,0,81,false,stim,false,1,322.4000000001397,2,0,0,38099,task1,546417,false,false,805,image-keyboard-response,23
true,6,1,1,0,false,q,false,false,0.0-2.0-0.24-0.222-3.222,0,0,0,90,false,stim,true,1,394.10000000009313,2,0,2,38099,task1,548343,false,false,808,image-keyboard-response,24
true,6,2,1,2,true,d,false,true,0.0-2.0-0.24-0.223-3.223,0,0,0,68,false,stim,false,1,430.0,2,0,0,38099,task1,550292,false,false,811,image-keyboard-response,25
true,6,0,1,0,true,q,false,true,0.0-2.0-0.24-0.224-3.224,0,0,0,81,false,stim,false,1,683.0,2,0,2,38099,task1,552494,false,false,814,image-keyboard-response,26
true,6,0,1,1,false,z,false,false,0.0-2.0-0.25-0.225-3.225,0,0,0,81,false,stim,true,0,831.5,2,0,1,38099,task1,554844,false,false,817,image-keyboard-response,27
true,6,1,1,1,true,z,false,false,0.0-2.0-0.25-0.226-3.226,0,0,0,90,false,stim,false,0,323.0,2,0,1,38099,task1,556690,false,true,820,image-keyboard-response,28
true,6,2,1,0,false,q,true,false,0.0-2.0-0.25-0.227-3.227,0,0,0,68,false,stim,false,1,293.89999999990687,2,0,2,38099,task1,558508,false,false,823,image-keyboard-response,29
true,6,1,1,2,false,d,false,false,0.0-2.0-0.25-0.228-3.228,0,0,0,90,false,stim,true,1,288.80000000004657,2,0,0,38099,task1,560317,false,false,826,image-keyboard-response,30
true,6,1,1,0,false,q,false,false,0.0-2.0-0.25-0.229-3.229,0,0,0,90,false,stim,true,1,335.0,2,0,2,38099,task1,562167,false,false,829,image-keyboard-response,31
true,6,0,1,0,true,q,false,true,0.0-2.0-0.25-0.230-3.230,0,0,0,81,false,stim,false,1,463.5,2,0,2,38099,task1,564144,false,false,832,image-keyboard-response,32
true,6,0,1,1,false,z,false,false,0.0-2.0-0.25-0.231-3.231,0,0,0,81,false,stim,true,0,503.69999999995343,2,0,1,38099,task1,566161,false,false,835,image-keyboard-response,33
true,6,1,1,2,false,d,false,false,0.0-2.0-0.25-0.232-3.232,0,0,0,90,false,stim,true,1,696.0999999998603,2,0,0,38099,task1,568379,false,false,838,image-keyboard-response,34
true,6,2,1,2,true,d,false,true,0.0-2.0-0.25-0.233-3.233,0,0,0,68,false,stim,false,1,644.6999999999534,2,0,0,38099,task1,570545,false,false,841,image-keyboard-response,35
true,6,2,1,0,false,q,true,false,0.0-2.0-0.26-0.234-3.234,0,0,0,68,false,stim,false,1,488.89999999990687,2,0,2,38099,task1,572558,false,false,844,image-keyboard-response,36
true,6,1,1,2,false,d,false,false,0.0-2.0-0.26-0.235-3.235,0,0,0,90,false,stim,true,1,276.30000000004657,2,0,0,38099,task1,574350,false,false,847,image-keyboard-response,37
true,6,2,1,1,false,z,true,false,0.0-2.0-0.26-0.236-3.236,0,0,0,68,false,stim,false,0,394.0,2,0,1,38099,task1,576268,false,false,850,image-keyboard-response,38
true,6,0,1,0,true,q,false,false,0.0-2.0-0.26-0.237-3.237,0,0,0,81,false,stim,false,1,574.1000000000931,2,0,2,38099,task1,578365,false,true,853,image-keyboard-response,39
true,6,2,1,2,true,d,false,true,0.0-2.0-0.26-0.238-3.238,0,0,0,68,false,stim,false,1,517.0999999998603,2,0,0,38099,task1,580394,false,false,856,image-keyboard-response,40
true,6,2,1,1,false,z,true,false,0.0-2.0-0.26-0.239-3.239,0,0,0,68,false,stim,false,0,337.60000000009313,2,0,1,38099,task1,582252,false,false,859,image-keyboard-response,41
true,6,1,1,2,false,d,false,false,0.0-2.0-0.26-0.240-3.240,0,0,0,90,false,stim,true,1,434.80000000004657,2,0,0,38099,task1,584214,false,false,862,image-keyboard-response,42
true,7,2,1,2,true,d,false,true,0.0-2.0-0.26-0.241-3.241,0,0,0,68,true,stim,false,1,505.5,2,0,1,38099,task1,586240,false,false,865,image-keyboard-response,1
true,7,2,1,1,false,z,true,true,0.0-2.0-0.26-0.242-3.242,0,0,0,68,false,stim,false,0,891.8000000000466,2,0,2,38099,task1,588654,false,true,868,image-keyboard-response,2
true,7,2,1,2,true,d,false,true,0.0-2.0-0.27-0.243-3.243,0,0,0,68,false,stim,false,1,314.39999999990687,2,0,1,38099,task1,590485,false,false,871,image-keyboard-response,3
true,7,1,1,1,true,z,false,true,0.0-2.0-0.27-0.244-3.244,0,0,0,90,false,stim,false,0,621.3000000000466,2,0,2,38099,task1,592626,false,false,874,image-keyboard-response,4
true,7,1,1,1,true,z,false,false,0.0-2.0-0.27-0.245-3.245,0,0,0,90,false,stim,false,2,417.5,2,0,0,38099,task1,594559,false,true,877,image-keyboard-response,5
true,7,2,1,2,true,d,false,true,0.0-2.0-0.27-0.246-3.246,0,0,0,68,false,stim,false,1,441.4000000001397,2,0,1,38099,task1,596513,false,false,880,image-keyboard-response,6
true,7,2,1,2,true,d,false,true,0.0-2.0-0.27-0.247-3.247,0,0,0,68,false,stim,false,1,419.10000000009313,2,0,1,38099,task1,598452,false,false,883,image-keyboard-response,7
true,7,2,1,1,false,z,true,false,0.0-2.0-0.27-0.248-3.248,0,0,0,68,false,stim,false,0,570.8000000000466,2,0,2,38099,task1,600556,false,false,886,image-keyboard-response,8
true,7,0,1,1,false,z,true,true,0.0-2.0-0.27-0.249-3.249,0,0,0,81,false,stim,false,2,647.0,2,0,0,38099,task1,602726,false,true,889,image-keyboard-response,9
true,7,0,1,1,false,z,false,false,0.0-2.0-0.27-0.250-3.250,0,0,0,81,false,stim,true,0,808.5,2,0,2,38099,task1,605052,false,false,892,image-keyboard-response,10
true,7,1,1,1,true,z,false,true,0.0-2.0-0.27-0.251-3.251,0,0,0,90,false,stim,false,2,343.4000000001397,2,0,0,38099,task1,606910,false,false,895,image-keyboard-response,11
true,7,1,1,2,false,d,false,false,0.0-2.0-0.28-0.252-3.252,0,0,0,90,false,stim,true,1,386.89999999990687,2,0,1,38099,task1,608817,false,false,898,image-keyboard-response,12
true,7,2,1,1,false,z,false,false,0.0-2.0-0.28-0.253-3.253,0,0,0,68,false,stim,true,2,589.8000000000466,2,0,0,38099,task1,610937,false,false,901,image-keyboard-response,13
true,7,0,1,1,false,z,false,false,0.0-2.0-0.28-0.254-3.254,0,0,0,81,false,stim,true,0,590.8000000000466,2,0,2,38099,task1,613051,false,false,904,image-keyboard-response,14
true,7,1,1,2,false,d,false,true,0.0-2.0-0.28-0.255-3.255,0,0,0,90,false,stim,true,1,425.4000000001397,2,0,1,38099,task1,615013,false,true,907,image-keyboard-response,15
true,7,2,1,2,true,d,false,true,0.0-2.0-0.28-0.256-3.256,0,0,0,68,false,stim,false,1,581.0999999998603,2,0,1,38099,task1,617109,false,false,910,image-keyboard-response,16
true,7,1,1,1,true,z,false,true,0.0-2.0-0.28-0.257-3.257,0,0,0,90,false,stim,false,2,1067.7999999998137,2,0,0,38099,task1,619696,false,false,913,image-keyboard-response,17
true,7,0,1,1,false,z,false,false,0.0-2.0-0.28-0.258-3.258,0,0,0,81,false,stim,true,0,412.30000000004657,2,0,2,38099,task1,621635,false,false,916,image-keyboard-response,18
true,7,1,1,1,true,z,false,false,0.0-2.0-0.28-0.259-3.259,0,0,0,90,false,stim,false,0,512.1999999999534,2,0,2,38099,task1,623662,false,true,919,image-keyboard-response,19
true,7,2,1,1,false,z,false,false,0.0-2.0-0.28-0.260-3.260,0,0,0,68,false,stim,true,2,478.30000000004657,2,0,0,38099,task1,625662,false,false,922,image-keyboard-response,20
true,7,2,1,1,false,z,true,true,0.0-2.0-0.29-0.261-3.261,0,0,0,68,false,stim,false,0,624.5999999998603,2,0,2,38099,task1,627801,false,true,925,image-keyboard-response,21
true,7,2,1,1,false,z,false,false,0.0-2.0-0.29-0.262-3.262,0,0,0,68,false,stim,true,2,379.0,2,0,0,38099,task1,629691,false,false,928,image-keyboard-response,22
true,7,1,1,2,false,d,false,false,0.0-2.0-0.29-0.263-3.263,0,0,0,90,false,stim,true,1,400.80000000004657,2,0,1,38099,task1,631604,false,false,931,image-keyboard-response,23
true,7,0,1,2,false,d,true,false,0.0-2.0-0.29-0.264-3.264,0,0,0,81,false,stim,false,1,592.0999999998603,2,0,1,38099,task1,633710,false,false,934,image-keyboard-response,24
true,7,0,1,2,false,d,true,false,0.0-2.0-0.29-0.265-3.265,0,0,0,81,false,stim,false,1,700.8000000000466,2,0,1,38099,task1,635927,false,false,937,image-keyboard-response,25
true,7,1,1,1,true,z,false,true,0.0-2.0-0.29-0.266-3.266,0,0,0,90,false,stim,false,2,293.0,2,0,0,38099,task1,637736,false,false,940,image-keyboard-response,26
true,7,1,1,1,true,z,false,true,0.0-2.0-0.29-0.267-3.267,0,0,0,90,false,stim,false,2,316.9000000001397,2,0,0,38099,task1,639566,false,false,943,image-keyboard-response,27
true,7,1,1,1,true,z,false,true,0.0-2.0-0.29-0.268-3.268,0,0,0,90,false,stim,false,0,304.4000000001397,2,0,2,38099,task1,641392,false,false,946,image-keyboard-response,28
true,7,1,1,1,true,z,false,true,0.0-2.0-0.29-0.269-3.269,0,0,0,90,false,stim,false,0,434.0,2,0,2,38099,task1,643338,false,false,949,image-keyboard-response,29
true,7,1,1,1,true,z,false,true,0.0-2.0-0.30-0.270-3.270,0,0,0,90,false,stim,false,0,412.60000000009313,2,0,2,38099,task1,645273,false,false,952,image-keyboard-response,30
true,7,1,1,1,true,z,false,true,0.0-2.0-0.30-0.271-3.271,0,0,0,90,false,stim,false,2,363.0999999998603,2,0,0,38099,task1,647150,false,false,955,image-keyboard-response,31
true,7,1,1,1,true,z,false,true,0.0-2.0-0.30-0.272-3.272,0,0,0,90,false,stim,false,0,356.20000000018626,2,0,2,38099,task1,649024,false,false,958,image-keyboard-response,32
true,7,1,1,1,true,z,false,true,0.0-2.0-0.30-0.273-3.273,0,0,0,90,false,stim,false,2,318.30000000004657,2,0,0,38099,task1,650868,false,false,961,image-keyboard-response,33
true,7,1,1,1,true,z,false,true,0.0-2.0-0.30-0.274-3.274,0,0,0,90,false,stim,false,0,403.9000000001397,2,0,2,38099,task1,652789,false,false,964,image-keyboard-response,34
true,7,1,1,2,false,d,false,false,0.0-2.0-0.30-0.275-3.275,0,0,0,90,false,stim,true,1,282.5,2,0,1,38099,task1,654598,false,false,967,image-keyboard-response,35
true,7,0,1,2,false,d,true,false,0.0-2.0-0.30-0.276-3.276,0,0,0,81,false,stim,false,1,448.39999999990687,2,0,1,38099,task1,656568,false,false,970,image-keyboard-response,36
true,7,2,1,2,true,d,false,true,0.0-2.0-0.30-0.277-3.277,0,0,0,68,false,stim,false,1,454.60000000009313,2,0,1,38099,task1,658533,false,false,973,image-keyboard-response,37
true,7,1,1,1,true,z,false,true,0.0-2.0-0.30-0.278-3.278,0,0,0,90,false,stim,false,2,866.6999999999534,2,0,0,38099,task1,660921,false,false,976,image-keyboard-response,38
true,7,1,1,1,true,z,false,true,0.0-2.0-0.31-0.279-3.279,0,0,0,90,false,stim,false,0,539.5,2,0,2,38099,task1,662986,false,false,979,image-keyboard-response,39
true,7,1,1,1,true,z,false,true,0.0-2.0-0.31-0.280-3.280,0,0,0,90,false,stim,false,2,456.4000000001397,2,0,0,38099,task1,664960,false,false,982,image-keyboard-response,40
true,8,1,1,2,false,d,false,false,0.0-2.0-0.31-0.281-3.281,0,0,0,90,true,stim,true,1,505.4000000001397,2,0,0,38099,task1,666986,false,false,985,image-keyboard-response,1
true,8,2,1,1,false,z,false,false,0.0-2.0-0.31-0.282-3.282,0,0,0,68,false,stim,true,2,494.69999999995343,2,0,1,38099,task1,669004,false,false,988,image-keyboard-response,2
true,8,2,1,1,false,z,false,false,0.0-2.0-0.31-0.283-3.283,0,0,0,68,false,stim,true,2,447.80000000004657,2,0,1,38099,task1,670969,false,false,991,image-keyboard-response,3
true,8,2,1,2,true,d,false,true,0.0-2.0-0.31-0.284-3.284,0,0,0,68,false,stim,false,1,1064.8000000000466,2,0,0,38099,task1,673558,false,false,994,image-keyboard-response,4
true,8,2,1,2,true,d,false,true,0.0-2.0-0.31-0.285-3.285,0,0,0,68,false,stim,false,1,508.80000000004657,2,0,2,38099,task1,675576,false,false,997,image-keyboard-response,5
true,8,2,1,2,true,d,false,true,0.0-2.0-0.31-0.286-3.286,0,0,0,68,false,stim,false,1,426.69999999995343,2,0,2,38099,task1,677532,false,false,1000,image-keyboard-response,6
true,8,2,1,1,false,z,false,false,0.0-2.0-0.31-0.287-3.287,0,0,0,68,false,stim,true,2,407.5999999998603,2,0,1,38099,task1,679457,false,false,1003,image-keyboard-response,7
true,8,1,1,1,true,z,false,true,0.0-2.0-0.32-0.288-3.288,0,0,0,90,false,stim,false,2,660.3999999999069,2,0,1,38099,task1,681639,false,false,1006,image-keyboard-response,8
true,8,1,1,2,false,d,false,true,0.0-2.0-0.32-0.289-3.289,0,0,0,90,false,stim,true,1,664.5,2,0,2,38099,task1,683825,false,true,1009,image-keyboard-response,9
true,8,1,1,1,true,z,false,true,0.0-2.0-0.32-0.290-3.290,0,0,0,90,false,stim,false,2,598.3999999999069,2,0,1,38099,task1,685941,false,false,1012,image-keyboard-response,10
true,8,1,1,2,false,d,false,false,0.0-2.0-0.32-0.291-3.291,0,0,0,90,false,stim,true,1,436.0,2,0,2,38099,task1,687916,false,false,1015,image-keyboard-response,11
true,8,2,1,2,true,d,false,true,0.0-2.0-0.32-0.292-3.292,0,0,0,68,false,stim,false,1,759.0,2,0,2,38099,task1,690184,false,false,1018,image-keyboard-response,12
true,8,2,1,2,true,d,false,true,0.0-2.0-0.32-0.293-3.293,0,0,0,68,false,stim,false,1,1273.0999999998603,2,0,0,38099,task1,692977,false,false,1021,image-keyboard-response,13
true,8,2,1,2,true,d,false,true,0.0-2.0-0.32-0.294-3.294,0,0,0,68,false,stim,false,1,490.29999999981374,2,0,0,38099,task1,694980,false,false,1024,image-keyboard-response,14
true,8,2,1,1,false,z,false,false,0.0-2.0-0.32-0.295-3.295,0,0,0,68,false,stim,true,2,362.60000000009313,2,0,1,38099,task1,696864,false,false,1027,image-keyboard-response,15
true,8,1,1,2,false,d,false,false,0.0-2.0-0.32-0.296-3.296,0,0,0,90,false,stim,true,1,377.10000000009313,2,0,0,38099,task1,698757,false,false,1030,image-keyboard-response,16
true,8,0,1,2,false,d,true,false,0.0-2.0-0.33-0.297-3.297,0,0,0,81,false,stim,false,1,530.4000000001397,2,0,2,38099,task1,700803,false,false,1033,image-keyboard-response,17
true,8,0,1,2,false,d,true,true,0.0-2.0-0.33-0.298-3.298,0,0,0,81,false,stim,false,1,563.0,2,0,2,38099,task1,702879,false,true,1036,image-keyboard-response,18
true,8,0,1,1,false,z,true,false,0.0-2.0-0.33-0.299-3.299,0,0,0,81,false,stim,false,2,594.3999999999069,2,0,1,38099,task1,705000,false,false,1039,image-keyboard-response,19
true,8,1,1,2,false,d,false,false,0.0-2.0-0.33-0.300-3.300,0,0,0,90,false,stim,true,1,564.3999999999069,2,0,0,38099,task1,707087,false,false,1042,image-keyboard-response,20
true,8,1,1,1,true,z,false,true,0.0-2.0-0.33-0.301-3.301,0,0,0,90,false,stim,false,2,684.8000000000466,2,0,1,38099,task1,709296,false,false,1045,image-keyboard-response,21
true,8,1,1,1,true,z,false,false,0.0-2.0-0.33-0.302-3.302,0,0,0,90,false,stim,false,2,445.0,2,0,1,38099,task1,711260,false,true,1048,image-keyboard-response,22
true,8,2,1,2,true,d,false,true,0.0-2.0-0.33-0.303-3.303,0,0,0,68,false,stim,false,1,544.1999999999534,2,0,0,38099,task1,713332,false,false,1051,image-keyboard-response,23
true,8,2,1,2,true,d,false,true,0.0-2.0-0.33-0.304-3.304,0,0,0,68,false,stim,false,1,438.0,2,0,0,38099,task1,715284,false,false,1054,image-keyboard-response,24
true,8,2,1,2,true,d,false,true,0.0-2.0-0.33-0.305-3.305,0,0,0,68,false,stim,false,1,497.5,2,0,2,38099,task1,717304,false,false,1057,image-keyboard-response,25
true,8,2,1,2,true,d,false,true,0.0-2.0-0.34-0.306-3.306,0,0,0,68,false,stim,false,1,488.4000000001397,2,0,2,38099,task1,719317,false,false,1060,image-keyboard-response,26
true,8,2,1,2,true,d,false,true,0.0-2.0-0.34-0.307-3.307,0,0,0,68,false,stim,false,1,458.69999999995343,2,0,2,38099,task1,721297,false,false,1063,image-keyboard-response,27
true,8,1,1,1,true,z,false,true,0.0-2.0-0.34-0.308-3.308,0,0,0,90,false,stim,false,2,507.80000000004657,2,0,1,38099,task1,723323,false,false,1066,image-keyboard-response,28
true,8,1,1,2,false,d,false,false,0.0-2.0-0.34-0.309-3.309,0,0,0,90,false,stim,true,1,508.39999999990687,2,0,0,38099,task1,725348,false,false,1069,image-keyboard-response,29
true,8,0,1,2,false,d,true,false,0.0-2.0-0.34-0.310-3.310,0,0,0,81,false,stim,false,1,688.3000000000466,2,0,0,38099,task1,727554,false,false,1072,image-keyboard-response,30
true,8,2,1,2,true,d,false,true,0.0-2.0-0.34-0.311-3.311,0,0,0,68,false,stim,false,1,385.60000000009313,2,0,2,38099,task1,729450,false,false,1075,image-keyboard-response,31
true,8,2,1,1,false,z,false,false,0.0-2.0-0.34-0.312-3.312,0,0,0,68,false,stim,true,2,620.8999999999069,2,0,1,38099,task1,731582,false,false,1078,image-keyboard-response,32
true,8,1,1,1,true,z,false,true,0.0-2.0-0.34-0.313-3.313,0,0,0,90,false,stim,false,2,338.5,2,0,1,38099,task1,733435,false,false,1081,image-keyboard-response,33
true,8,1,1,2,false,d,false,false,0.0-2.0-0.34-0.314-3.314,0,0,0,90,false,stim,true,1,915.1000000000931,2,0,0,38099,task1,735862,false,false,1084,image-keyboard-response,34
true,8,2,1,2,true,d,false,true,0.0-2.0-0.35-0.315-3.315,0,0,0,68,false,stim,false,1,400.60000000009313,2,0,0,38099,task1,737799,false,false,1087,image-keyboard-response,35
true,8,2,1,2,true,d,false,true,0.0-2.0-0.35-0.316-3.316,0,0,0,68,false,stim,false,1,403.5999999998603,2,0,0,38099,task1,739717,false,false,1090,image-keyboard-response,36
true,8,2,1,2,true,d,false,true,0.0-2.0-0.35-0.317-3.317,0,0,0,68,false,stim,false,1,302.5999999998603,2,0,0,38099,task1,741541,false,false,1093,image-keyboard-response,37
true,8,2,1,1,false,z,false,false,0.0-2.0-0.35-0.318-3.318,0,0,0,68,false,stim,true,2,431.89999999990687,2,0,1,38099,task1,743489,false,false,1096,image-keyboard-response,38
true,8,1,1,2,false,d,false,false,0.0-2.0-0.35-0.319-3.319,0,0,0,90,false,stim,true,1,353.10000000009313,2,0,2,38099,task1,745468,false,false,1099,image-keyboard-response,39
true,8,0,1,1,false,z,true,false,0.0-2.0-0.35-0.320-3.320,0,0,0,81,false,stim,false,2,487.0999999998603,2,0,1,38099,task1,747479,false,false,1102,image-keyboard-response,40
true,8,1,1,2,false,d,false,false,0.0-2.0-0.35-0.321-3.321,0,0,0,90,false,stim,true,1,829.1000000000931,2,0,2,38099,task1,749841,false,false,1105,image-keyboard-response,41
true,9,2,2,0,false,q,false,true,0.0-2.0-0.35-0.322-3.322,0,0,0,68,true,stim,true,2,344.5999999998603,2,0,2,38099,task1,751720,false,true,1108,image-keyboard-response,1
true,9,2,2,2,true,d,false,true,0.0-2.0-0.35-0.323-3.323,0,0,0,68,false,stim,false,1,270.60000000009313,2,0,1,38099,task1,753522,false,false,1111,image-keyboard-response,2
true,9,2,2,2,true,d,false,true,0.0-2.0-0.36-0.324-3.324,0,0,0,68,false,stim,false,1,441.9000000001397,2,0,1,38099,task1,755493,false,false,1114,image-keyboard-response,3
true,9,2,2,0,false,q,false,false,0.0-2.0-0.36-0.325-3.325,0,0,0,68,false,stim,true,2,355.39999999990687,2,0,2,38099,task1,757361,false,false,1117,image-keyboard-response,4
true,9,1,2,0,false,q,true,false,0.0-2.0-0.36-0.326-3.326,0,0,0,90,false,stim,false,2,277.19999999995343,2,0,0,38099,task1,759161,false,false,1120,image-keyboard-response,5
true,9,0,2,0,true,q,false,true,0.0-2.0-0.36-0.327-3.327,0,0,0,81,false,stim,false,2,591.5,2,0,0,38099,task1,761273,false,false,1123,image-keyboard-response,6
true,9,0,2,0,true,q,false,true,0.0-2.0-0.36-0.328-3.328,0,0,0,81,false,stim,false,2,259.5999999998603,2,0,2,38099,task1,763056,false,false,1126,image-keyboard-response,7
true,9,0,2,2,false,d,true,false,0.0-2.0-0.36-0.329-3.329,0,0,0,81,false,stim,false,1,370.80000000004657,2,0,1,38099,task1,764963,false,false,1129,image-keyboard-response,8
true,9,1,2,0,false,q,true,false,0.0-2.0-0.36-0.330-3.330,0,0,0,90,false,stim,false,2,506.5999999998603,2,0,0,38099,task1,766994,false,false,1132,image-keyboard-response,9
true,9,2,2,2,true,d,false,true,0.0-2.0-0.36-0.331-3.331,0,0,0,68,false,stim,false,1,380.39999999990687,2,0,1,38099,task1,768890,false,false,1135,image-keyboard-response,10
true,9,2,2,0,false,q,false,false,0.0-2.0-0.36-0.332-3.332,0,0,0,68,false,stim,true,2,312.19999999995343,2,0,2,38099,task1,770715,false,false,1138,image-keyboard-response,11
true,9,1,2,2,false,d,false,false,0.0-2.0-0.37-0.333-3.333,0,0,0,90,false,stim,true,1,684.3999999999069,2,0,1,38099,task1,772920,false,false,1141,image-keyboard-response,12
true,9,2,2,0,false,q,false,false,0.0-2.0-0.37-0.334-3.334,0,0,0,68,false,stim,true,2,609.5,2,0,2,38099,task1,775055,false,false,1144,image-keyboard-response,13
true,9,1,2,0,false,q,true,false,0.0-2.0-0.37-0.335-3.335,0,0,0,90,false,stim,false,2,916.1999999999534,2,0,2,38099,task1,777505,false,false,1147,image-keyboard-response,14
true,9,0,2,0,true,q,false,true,0.0-2.0-0.37-0.336-3.336,0,0,0,81,false,stim,false,2,360.5,2,0,0,38099,task1,779391,false,false,1150,image-keyboard-response,15
true,9,0,2,0,true,q,false,true,0.0-2.0-0.37-0.337-3.337,0,0,0,81,false,stim,false,2,456.30000000004657,2,0,0,38099,task1,781367,false,false,1153,image-keyboard-response,16
true,9,0,2,0,true,q,false,true,0.0-2.0-0.37-0.338-3.338,0,0,0,81,false,stim,false,2,461.0999999998603,2,0,0,38099,task1,783348,false,false,1156,image-keyboard-response,17
true,9,0,2,2,false,d,true,false,0.0-2.0-0.37-0.339-3.339,0,0,0,81,false,stim,false,1,330.5999999998603,2,0,1,38099,task1,785205,false,false,1159,image-keyboard-response,18
true,9,1,2,2,false,d,false,false,0.0-2.0-0.37-0.340-3.340,0,0,0,90,false,stim,true,1,722.1000000000931,2,0,1,38099,task1,787444,false,false,1162,image-keyboard-response,19
true,9,2,2,0,false,q,false,false,0.0-2.0-0.37-0.341-3.341,0,0,0,68,false,stim,true,2,386.69999999995343,2,0,2,38099,task1,789339,false,false,1165,image-keyboard-response,20
true,9,1,2,2,false,d,false,false,0.0-2.0-0.38-0.342-3.342,0,0,0,90,false,stim,true,1,242.5,2,0,1,38099,task1,791103,false,false,1168,image-keyboard-response,21
true,9,1,2,2,false,d,false,false,0.0-2.0-0.38-0.343-3.343,0,0,0,90,false,stim,true,1,427.0,2,0,1,38099,task1,793055,false,false,1171,image-keyboard-response,22
true,9,1,2,0,false,q,true,false,0.0-2.0-0.38-0.344-3.344,0,0,0,90,false,stim,false,2,551.9000000001397,2,0,2,38099,task1,795129,false,false,1174,image-keyboard-response,23
true,9,2,2,0,false,q,false,false,0.0-2.0-0.38-0.345-3.345,0,0,0,68,false,stim,true,2,567.6000000000931,2,0,0,38099,task1,797217,false,false,1177,image-keyboard-response,24
true,9,2,2,0,false,q,false,true,0.0-2.0-0.38-0.346-3.346,0,0,0,68,false,stim,true,2,329.69999999995343,2,0,0,38099,task1,799067,false,true,1180,image-keyboard-response,25
true,9,2,2,0,false,q,false,false,0.0-2.0-0.38-0.347-3.347,0,0,0,68,false,stim,true,2,471.0,2,0,2,38099,task1,801058,false,false,1183,image-keyboard-response,26
true,9,1,2,0,false,q,true,false,0.0-2.0-0.38-0.348-3.348,0,0,0,90,false,stim,false,2,430.30000000004657,2,0,2,38099,task1,803009,false,false,1186,image-keyboard-response,27
true,9,0,2,0,true,q,false,true,0.0-2.0-0.38-0.349-3.349,0,0,0,81,false,stim,false,2,640.8000000000466,2,0,0,38099,task1,805167,false,false,1189,image-keyboard-response,28
true,9,0,2,2,false,d,true,true,0.0-2.0-0.38-0.350-3.350,0,0,0,81,false,stim,false,1,514.3000000000466,2,0,1,38099,task1,807206,false,true,1192,image-keyboard-response,29
true,9,0,2,2,false,d,true,false,0.0-2.0-0.39-0.351-3.351,0,0,0,81,false,stim,false,1,423.30000000004657,2,0,1,38099,task1,809155,false,false,1195,image-keyboard-response,30
true,9,1,2,0,false,q,true,false,0.0-2.0-0.39-0.352-3.352,0,0,0,90,false,stim,false,2,376.5,2,0,0,38099,task1,811051,false,false,1198,image-keyboard-response,31
true,9,2,2,0,false,q,false,false,0.0-2.0-0.39-0.353-3.353,0,0,0,68,false,stim,true,2,667.3999999999069,2,0,2,38099,task1,813258,false,false,1201,image-keyboard-response,32
true,9,2,2,0,false,q,false,false,0.0-2.0-0.39-0.354-3.354,0,0,0,68,false,stim,true,2,228.4000000001397,2,0,2,38099,task1,815019,false,false,1204,image-keyboard-response,33
true,9,2,2,0,false,q,false,true,0.0-2.0-0.39-0.355-3.355,0,0,0,68,false,stim,true,2,381.5,2,0,0,38099,task1,816920,false,true,1207,image-keyboard-response,34
true,9,2,2,2,true,d,false,true,0.0-2.0-0.39-0.356-3.356,0,0,0,68,false,stim,false,1,375.9000000001397,2,0,1,38099,task1,818820,false,false,1210,image-keyboard-response,35
true,9,2,2,0,false,q,false,false,0.0-2.0-0.39-0.357-3.357,0,0,0,68,false,stim,true,2,423.30000000004657,2,0,2,38099,task1,820770,false,false,1213,image-keyboard-response,36
true,9,1,2,0,false,q,true,false,0.0-2.0-0.39-0.358-3.358,0,0,0,90,false,stim,false,2,434.0,2,0,0,38099,task1,822739,false,false,1216,image-keyboard-response,37
true,9,0,2,2,false,d,true,false,0.0-2.0-0.39-0.359-3.359,0,0,0,81,false,stim,false,1,557.1999999999534,2,0,1,38099,task1,824808,false,false,1219,image-keyboard-response,38
true,9,1,2,2,false,d,false,false,0.0-2.0-0.40-0.360-3.360,0,0,0,90,false,stim,true,1,598.8000000000466,2,0,1,38099,task1,826924,false,false,1222,image-keyboard-response,39
true,10,1,2,1,true,z,false,true,0.0-2.0-0.40-0.361-3.361,0,0,0,90,true,stim,false,0,534.5,2,0,0,38099,task1,828983,false,false,1225,image-keyboard-response,1
true,10,1,2,0,false,q,true,false,0.0-2.0-0.40-0.362-3.362,0,0,0,90,false,stim,false,2,363.39999999990687,2,0,1,38099,task1,830867,false,false,1228,image-keyboard-response,2
true,10,1,2,1,true,z,false,true,0.0-2.0-0.40-0.363-3.363,0,0,0,90,false,stim,false,0,329.19999999995343,2,0,2,38099,task1,832714,false,false,1231,image-keyboard-response,3
true,10,1,2,1,true,z,false,true,0.0-2.0-0.40-0.364-3.364,0,0,0,90,false,stim,false,0,495.0,2,0,2,38099,task1,834727,false,false,1234,image-keyboard-response,4
true,10,1,2,1,true,z,false,true,0.0-2.0-0.40-0.365-3.365,0,0,0,90,false,stim,false,0,356.5999999998603,2,0,0,38099,task1,836600,false,false,1237,image-keyboard-response,5
true,10,1,2,0,false,q,true,false,0.0-2.0-0.40-0.366-3.366,0,0,0,90,false,stim,false,2,454.4000000001397,2,0,1,38099,task1,838575,false,false,1240,image-keyboard-response,6
true,10,1,2,1,true,z,false,true,0.0-2.0-0.40-0.367-3.367,0,0,0,90,false,stim,false,0,319.89999999990687,2,0,0,38099,task1,840415,false,false,1243,image-keyboard-response,7
true,10,1,2,1,true,z,false,true,0.0-2.0-0.40-0.368-3.368,0,0,0,90,false,stim,false,0,1031.0,2,0,2,38099,task1,842962,false,false,1246,image-keyboard-response,8
true,10,1,2,0,false,q,true,false,0.0-2.0-0.41-0.369-3.369,0,0,0,90,false,stim,false,2,313.70000000018626,2,0,1,38099,task1,844801,false,false,1249,image-keyboard-response,9
true,10,1,2,1,true,z,false,true,0.0-2.0-0.41-0.370-3.370,0,0,0,90,false,stim,false,0,283.39999999990687,2,0,0,38099,task1,846603,false,false,1252,image-keyboard-response,10
true,10,1,2,1,true,z,false,true,0.0-2.0-0.41-0.371-3.371,0,0,0,90,false,stim,false,0,378.0,2,0,0,38099,task1,848497,false,false,1255,image-keyboard-response,11
true,10,1,2,1,true,z,false,true,0.0-2.0-0.41-0.372-3.372,0,0,0,90,false,stim,false,0,71.39999999990687,2,0,0,38099,task1,850084,false,false,1258,image-keyboard-response,12
true,10,1,2,1,true,z,false,true,0.0-2.0-0.41-0.373-3.373,0,0,0,90,false,stim,false,0,789.6999999999534,2,0,2,38099,task1,852385,false,false,1261,image-keyboard-response,13
true,10,1,2,1,true,z,false,true,0.0-2.0-0.41-0.374-3.374,0,0,0,90,false,stim,false,0,374.5,2,0,2,38099,task1,854292,false,false,1264,image-keyboard-response,14
true,10,1,2,0,false,q,true,false,0.0-2.0-0.41-0.375-3.375,0,0,0,90,false,stim,false,2,93.5999999998603,2,0,1,38099,task1,855903,false,false,1267,image-keyboard-response,15
true,10,2,2,0,false,q,false,false,0.0-2.0-0.41-0.376-3.376,0,0,0,68,false,stim,true,2,402.5,2,0,1,38099,task1,857822,false,false,1270,image-keyboard-response,16
true,10,2,2,1,false,z,true,false,0.0-2.0-0.41-0.377-3.377,0,0,0,68,false,stim,false,0,804.3000000000466,2,0,2,38099,task1,860139,false,false,1273,image-keyboard-response,17
true,10,2,2,1,false,z,true,false,0.0-2.0-0.42-0.378-3.378,0,0,0,68,false,stim,false,0,642.6999999999534,2,0,2,38099,task1,862302,false,false,1276,image-keyboard-response,18
true,10,1,2,0,false,q,true,false,0.0-2.0-0.42-0.379-3.379,0,0,0,90,false,stim,false,2,521.9000000001397,2,0,1,38099,task1,864351,false,false,1279,image-keyboard-response,19
true,10,0,2,1,false,z,false,false,0.0-2.0-0.42-0.380-3.380,0,0,0,81,false,stim,true,0,541.3999999999069,2,0,0,38099,task1,866418,false,false,1282,image-keyboard-response,20
true,10,2,2,1,false,z,true,false,0.0-2.0-0.42-0.381-3.381,0,0,0,68,false,stim,false,0,408.80000000004657,2,0,2,38099,task1,868343,false,false,1285,image-keyboard-response,21
true,10,1,2,1,true,z,false,true,0.0-2.0-0.42-0.382-3.382,0,0,0,90,false,stim,false,0,339.69999999995343,2,0,2,38099,task1,870201,false,false,1288,image-keyboard-response,22
true,10,1,2,1,true,z,false,true,0.0-2.0-0.42-0.383-3.383,0,0,0,90,false,stim,false,0,373.89999999990687,2,0,0,38099,task1,872092,false,false,1291,image-keyboard-response,23
true,10,1,2,1,true,z,false,true,0.0-2.0-0.42-0.384-3.384,0,0,0,90,false,stim,false,0,432.0,2,0,0,38099,task1,874042,false,false,1294,image-keyboard-response,24
true,10,1,2,0,false,q,true,false,0.0-2.0-0.42-0.385-3.385,0,0,0,90,false,stim,false,2,558.0,2,0,1,38099,task1,876111,false,false,1297,image-keyboard-response,25
true,10,0,2,0,true,q,false,false,0.0-2.0-0.42-0.386-3.386,0,0,0,81,false,stim,false,2,742.6000000000931,2,0,1,38099,task1,878368,false,true,1300,image-keyboard-response,26
true,10,1,2,1,true,z,false,true,0.0-2.0-0.43-0.387-3.387,0,0,0,90,false,stim,false,0,900.3000000000466,2,0,2,38099,task1,880809,false,false,1303,image-keyboard-response,27
true,10,1,2,1,true,z,false,true,0.0-2.0-0.43-0.388-3.388,0,0,0,90,false,stim,false,0,524.0999999998603,2,0,2,38099,task1,882849,false,false,1306,image-keyboard-response,28
true,10,1,2,1,true,z,false,true,0.0-2.0-0.43-0.389-3.389,0,0,0,90,false,stim,false,0,374.0,2,0,0,38099,task1,884739,false,false,1309,image-keyboard-response,29
true,10,1,2,0,false,q,true,false,0.0-2.0-0.43-0.390-3.390,0,0,0,90,false,stim,false,2,489.0999999998603,2,0,1,38099,task1,886752,false,false,1312,image-keyboard-response,30
true,10,2,2,0,false,q,false,false,0.0-2.0-0.43-0.391-3.391,0,0,0,68,false,stim,true,2,877.6999999999534,2,0,1,38099,task1,889147,false,false,1315,image-keyboard-response,31
true,10,1,2,1,true,z,false,false,0.0-2.0-0.43-0.392-3.392,0,0,0,90,false,stim,false,0,384.60000000009313,2,0,0,38099,task1,891047,false,true,1318,image-keyboard-response,32
true,10,1,2,1,true,z,false,true,0.0-2.0-0.43-0.393-3.393,0,0,0,90,false,stim,false,0,344.70000000018626,2,0,0,38099,task1,892905,false,false,1321,image-keyboard-response,33
true,10,1,2,0,false,q,true,true,0.0-2.0-0.43-0.394-3.394,0,0,0,90,false,stim,false,2,236.0999999998603,2,0,1,38099,task1,894658,false,true,1324,image-keyboard-response,34
true,10,1,2,1,true,z,false,true,0.0-2.0-0.43-0.395-3.395,0,0,0,90,false,stim,false,0,336.89999999990687,2,0,2,38099,task1,896515,false,false,1327,image-keyboard-response,35
true,10,1,2,0,false,q,true,false,0.0-2.0-0.44-0.396-3.396,0,0,0,90,false,stim,false,2,37.300000000046566,2,0,1,38099,task1,898065,false,false,1330,image-keyboard-response,36
true,10,1,2,0,false,q,true,false,0.0-2.0-0.44-0.397-3.397,0,0,0,90,false,stim,false,2,254.5999999998603,2,0,1,38099,task1,899854,false,false,1333,image-keyboard-response,37
true,10,1,2,1,true,z,false,true,0.0-2.0-0.44-0.398-3.398,0,0,0,90,false,stim,false,0,429.69999999995343,2,0,0,38099,task1,901804,false,false,1336,image-keyboard-response,38
true,10,1,2,1,true,z,false,true,0.0-2.0-0.44-0.399-3.399,0,0,0,90,false,stim,false,0,463.30000000004657,2,0,2,38099,task1,903783,false,false,1339,image-keyboard-response,39
true,10,1,2,1,true,z,false,true,0.0-2.0-0.44-0.400-3.400,0,0,0,90,false,stim,false,0,495.60000000009313,2,0,2,38099,task1,905794,false,false,1342,image-keyboard-response,40
true,10,1,2,1,true,z,false,true,0.0-2.0-0.44-0.401-3.401,0,0,0,90,false,stim,false,0,345.19999999995343,2,0,2,38099,task1,907655,false,false,1345,image-keyboard-response,41
true,10,1,2,1,true,z,false,true,0.0-2.0-0.44-0.402-3.402,0,0,0,90,false,stim,false,0,452.5,2,0,0,38099,task1,909636,false,false,1348,image-keyboard-response,42
true,11,1,2,0,false,q,false,false,0.0-2.0-0.44-0.403-3.403,0,0,0,90,true,stim,true,1,369.19999999995343,2,0,0,38099,task1,911527,false,false,1351,image-keyboard-response,1
true,11,0,2,2,false,d,false,true,0.0-2.0-0.44-0.404-3.404,0,0,0,81,false,stim,true,0,432.30000000004657,2,0,1,38099,task1,913474,false,true,1354,image-keyboard-response,2
true,11,0,2,2,false,d,false,false,0.0-2.0-0.45-0.405-3.405,0,0,0,81,false,stim,true,0,336.69999999995343,2,0,1,38099,task1,915337,false,false,1357,image-keyboard-response,3
true,11,0,2,2,false,d,false,false,0.0-2.0-0.45-0.406-3.406,0,0,0,81,false,stim,true,0,378.9000000001397,2,0,1,38099,task1,917230,false,false,1360,image-keyboard-response,4
true,11,2,2,2,true,d,false,true,0.0-2.0-0.45-0.407-3.407,0,0,0,68,false,stim,false,0,512.5999999998603,2,0,1,38099,task1,919263,false,false,1363,image-keyboard-response,5
true,11,0,2,0,true,q,false,true,0.0-2.0-0.45-0.408-3.408,0,0,0,81,false,stim,false,1,1249.6000000000931,2,0,0,38099,task1,922028,false,false,1366,image-keyboard-response,6
true,11,2,2,0,false,q,true,false,0.0-2.0-0.45-0.409-3.409,0,0,0,68,false,stim,false,1,391.4000000001397,2,0,2,38099,task1,923941,false,false,1369,image-keyboard-response,7
true,11,1,2,0,false,q,false,false,0.0-2.0-0.45-0.410-3.410,0,0,0,90,false,stim,true,1,580.8999999999069,2,0,2,38099,task1,926047,false,false,1372,image-keyboard-response,8
true,11,0,2,0,true,q,false,true,0.0-2.0-0.45-0.411-3.411,0,0,0,81,false,stim,false,1,777.5,2,0,0,38099,task1,928346,false,false,1375,image-keyboard-response,9
true,11,0,2,0,true,q,false,true,0.0-2.0-0.45-0.412-3.412,0,0,0,81,false,stim,false,1,359.10000000009313,2,0,0,38099,task1,930240,false,false,1378,image-keyboard-response,10
true,11,0,2,0,true,q,false,true,0.0-2.0-0.45-0.413-3.413,0,0,0,81,false,stim,false,1,237.5,2,0,2,38099,task1,931996,false,false,1381,image-keyboard-response,11
true,11,0,2,0,true,q,false,true,0.0-2.0-0.46-0.414-3.414,0,0,0,81,false,stim,false,1,354.30000000004657,2,0,0,38099,task1,933865,false,false,1384,image-keyboard-response,12
true,11,0,2,2,false,d,false,true,0.0-2.0-0.46-0.415-3.415,0,0,0,81,false,stim,true,0,308.69999999995343,2,0,1,38099,task1,935701,false,true,1387,image-keyboard-response,13
true,11,0,2,2,false,d,false,false,0.0-2.0-0.46-0.416-3.416,0,0,0,81,false,stim,true,0,293.39999999990687,2,0,1,38099,task1,937518,false,false,1390,image-keyboard-response,14
true,11,1,2,0,false,q,false,false,0.0-2.0-0.46-0.417-3.417,0,0,0,90,false,stim,true,1,704.5,2,0,2,38099,task1,939762,false,false,1393,image-keyboard-response,15
true,11,0,2,0,true,q,false,true,0.0-2.0-0.46-0.418-3.418,0,0,0,81,false,stim,false,1,536.8000000000466,2,0,0,38099,task1,941811,false,false,1396,image-keyboard-response,16
true,11,0,2,0,true,q,false,true,0.0-2.0-0.46-0.419-3.419,0,0,0,81,false,stim,false,1,437.60000000009313,2,0,2,38099,task1,943767,false,false,1399,image-keyboard-response,17
true,11,0,2,2,false,d,false,false,0.0-2.0-0.46-0.420-3.420,0,0,0,81,false,stim,true,0,266.30000000004657,2,0,1,38099,task1,945566,false,false,1402,image-keyboard-response,18
true,11,0,2,0,true,q,false,true,0.0-2.0-0.46-0.421-3.421,0,0,0,81,false,stim,false,1,418.4000000001397,2,0,2,38099,task1,947503,false,false,1405,image-keyboard-response,19
true,11,0,2,0,true,q,false,true,0.0-2.0-0.46-0.422-3.422,0,0,0,81,false,stim,false,1,264.89999999990687,2,0,0,38099,task1,949295,false,false,1408,image-keyboard-response,20
true,11,0,2,0,true,q,false,true,0.0-2.0-0.47-0.423-3.423,0,0,0,81,false,stim,false,1,320.19999999995343,2,0,2,38099,task1,951147,false,false,1411,image-keyboard-response,21
true,11,0,2,0,true,q,false,true,0.0-2.0-0.47-0.424-3.424,0,0,0,81,false,stim,false,1,266.19999999995343,2,0,2,38099,task1,952939,false,false,1414,image-keyboard-response,22
true,11,0,2,0,true,q,false,false,0.0-2.0-0.47-0.425-3.425,0,0,0,81,false,stim,false,1,541.7999999998137,2,0,0,38099,task1,954995,false,true,1417,image-keyboard-response,23
true,11,0,2,2,false,d,false,false,0.0-2.0-0.47-0.426-3.426,0,0,0,81,false,stim,true,0,488.60000000009313,2,0,1,38099,task1,956995,false,false,1420,image-keyboard-response,24
true,11,1,2,0,false,q,false,true,0.0-2.0-0.47-0.427-3.427,0,0,0,90,false,stim,true,1,455.30000000004657,2,0,0,38099,task1,958973,false,true,1423,image-keyboard-response,25
true,11,1,2,0,false,q,false,false,0.0-2.0-0.47-0.428-3.428,0,0,0,90,false,stim,true,1,271.39999999990687,2,0,0,38099,task1,960765,false,false,1426,image-keyboard-response,26
true,11,1,2,0,false,q,false,false,0.0-2.0-0.47-0.429-3.429,0,0,0,90,false,stim,true,1,306.30000000004657,2,0,2,38099,task1,962597,false,false,1429,image-keyboard-response,27
true,11,2,2,2,true,d,false,true,0.0-2.0-0.47-0.430-3.430,0,0,0,68,false,stim,false,0,565.1000000000931,2,0,1,38099,task1,964690,false,false,1432,image-keyboard-response,28
true,11,2,2,2,true,d,false,false,0.0-2.0-0.47-0.431-3.431,0,0,0,68,false,stim,false,0,276.0,2,0,1,38099,task1,966495,false,true,1435,image-keyboard-response,29
true,11,2,2,0,false,q,true,false,0.0-2.0-0.48-0.432-3.432,0,0,0,68,false,stim,false,1,280.19999999995343,2,0,0,38099,task1,968307,false,false,1438,image-keyboard-response,30
true,11,1,2,0,false,q,false,false,0.0-2.0-0.48-0.433-3.433,0,0,0,90,false,stim,true,1,632.8999999999069,2,0,0,38099,task1,970456,false,false,1441,image-keyboard-response,31
true,11,2,2,2,true,d,false,true,0.0-2.0-0.48-0.434-3.434,0,0,0,68,false,stim,false,0,372.80000000004657,2,0,1,38099,task1,972353,false,false,1444,image-keyboard-response,32
true,11,2,2,0,false,q,true,false,0.0-2.0-0.48-0.435-3.435,0,0,0,68,false,stim,false,1,476.9000000001397,2,0,2,38099,task1,974352,false,false,1447,image-keyboard-response,33
true,11,2,2,0,false,q,true,false,0.0-2.0-0.48-0.436-3.436,0,0,0,68,false,stim,false,1,947.5999999998603,2,0,2,38099,task1,976814,false,false,1450,image-keyboard-response,34
true,11,1,2,0,false,q,false,false,0.0-2.0-0.48-0.437-3.437,0,0,0,90,false,stim,true,1,315.89999999990687,2,0,2,38099,task1,978647,false,false,1453,image-keyboard-response,35
true,11,1,2,0,false,q,false,false,0.0-2.0-0.48-0.438-3.438,0,0,0,90,false,stim,true,1,447.69999999995343,2,0,0,38099,task1,980627,false,false,1456,image-keyboard-response,36
true,11,0,2,2,false,d,false,false,0.0-2.0-0.48-0.439-3.439,0,0,0,81,false,stim,true,0,539.3000000000466,2,0,1,38099,task1,982681,false,false,1459,image-keyboard-response,37
true,11,1,2,2,false,d,true,false,0.0-2.0-0.48-0.440-3.440,0,0,0,90,false,stim,false,0,369.10000000009313,2,0,1,38099,task1,984572,false,false,1462,image-keyboard-response,38
true,11,2,2,0,false,q,true,false,0.0-2.0-0.49-0.441-3.441,0,0,0,68,false,stim,false,1,456.9000000001397,2,0,2,38099,task1,986541,false,false,1465,image-keyboard-response,39
true,11,2,2,0,false,q,true,false,0.0-2.0-0.49-0.442-3.442,0,0,0,68,false,stim,false,1,533.6999999999534,2,0,2,38099,task1,988592,false,false,1468,image-keyboard-response,40
true,11,1,2,0,false,q,false,false,0.0-2.0-0.49-0.443-3.443,0,0,0,90,false,stim,true,1,315.10000000009313,2,0,0,38099,task1,990424,false,false,1471,image-keyboard-response,41
true,11,0,2,2,false,d,false,false,0.0-2.0-0.49-0.444-3.444,0,0,0,81,false,stim,true,0,610.6000000000931,2,0,1,38099,task1,992566,false,false,1474,image-keyboard-response,42
true,12,1,2,1,true,z,false,true,0.0-2.0-0.49-0.445-3.445,0,0,0,90,true,stim,false,0,651.1999999999534,2,0,2,38099,task1,994743,false,false,1477,image-keyboard-response,1
true,12,1,2,1,true,z,false,true,0.0-2.0-0.49-0.446-3.446,0,0,0,90,false,stim,false,0,455.80000000004657,2,0,0,38099,task1,996739,false,false,1480,image-keyboard-response,2
true,12,1,2,1,true,z,false,true,0.0-2.0-0.49-0.447-3.447,0,0,0,90,false,stim,false,0,657.5,2,0,0,38099,task1,998929,false,false,1483,image-keyboard-response,3
true,12,1,2,0,false,q,true,false,0.0-2.0-0.49-0.448-3.448,0,0,0,90,false,stim,false,2,377.69999999995343,2,0,1,38099,task1,1000829,false,false,1486,image-keyboard-response,4
true,12,1,2,0,false,q,true,true,0.0-2.0-0.49-0.449-3.449,0,0,0,90,false,stim,false,2,453.80000000004657,2,0,1,38099,task1,1002805,false,true,1489,image-keyboard-response,5
true,12,1,2,1,true,z,false,true,0.0-2.0-0.50-0.450-3.450,0,0,0,90,false,stim,false,0,375.60000000009313,2,0,2,38099,task1,1004706,false,false,1492,image-keyboard-response,6
true,12,1,2,1,true,z,false,true,0.0-2.0-0.50-0.451-3.451,0,0,0,90,false,stim,false,0,725.8999999999069,2,0,2,38099,task1,1006952,false,false,1495,image-keyboard-response,7
true,12,1,2,1,true,z,false,true,0.0-2.0-0.50-0.452-3.452,0,0,0,90,false,stim,false,0,489.20000000018626,2,0,0,38099,task1,1008963,false,false,1498,image-keyboard-response,8
true,12,1,2,1,true,z,false,true,0.0-2.0-0.50-0.453-3.453,0,0,0,90,false,stim,false,0,367.0,2,0,0,38099,task1,1010852,false,false,1501,image-keyboard-response,9
true,12,1,2,1,true,z,false,true,0.0-2.0-0.50-0.454-3.454,0,0,0,90,false,stim,false,0,779.1000000000931,2,0,0,38099,task1,1013161,false,false,1504,image-keyboard-response,10
true,12,1,2,1,true,z,false,true,0.0-2.0-0.50-0.455-3.455,0,0,0,90,false,stim,false,0,708.6999999999534,2,0,2,38099,task1,1015408,false,false,1507,image-keyboard-response,11
true,12,1,2,0,false,q,true,true,0.0-2.0-0.50-0.456-3.456,0,0,0,90,false,stim,false,2,431.0,2,0,1,38099,task1,1017367,false,true,1510,image-keyboard-response,12
true,12,1,2,0,false,q,true,false,0.0-2.0-0.50-0.457-3.457,0,0,0,90,false,stim,false,2,412.60000000009313,2,0,1,38099,task1,1019310,false,false,1513,image-keyboard-response,13
true,12,0,2,0,true,q,false,true,0.0-2.0-0.50-0.458-3.458,0,0,0,81,false,stim,false,2,403.80000000004657,2,0,1,38099,task1,1021233,false,false,1516,image-keyboard-response,14
true,12,0,2,1,false,z,false,false,0.0-2.0-0.51-0.459-3.459,0,0,0,81,false,stim,true,0,453.19999999995343,2,0,2,38099,task1,1023214,false,false,1519,image-keyboard-response,15
true,12,2,2,1,false,z,true,false,0.0-2.0-0.51-0.460-3.460,0,0,0,68,false,stim,false,0,540.0999999998603,2,0,0,38099,task1,1025279,false,false,1522,image-keyboard-response,16
true,12,2,2,0,false,q,false,false,0.0-2.0-0.51-0.461-3.461,0,0,0,68,false,stim,true,2,804.6000000000931,2,0,1,38099,task1,1027609,false,false,1525,image-keyboard-response,17
true,12,2,2,1,false,z,true,true,0.0-2.0-0.51-0.462-3.462,0,0,0,68,false,stim,false,0,407.19999999995343,2,0,2,38099,task1,1029551,false,true,1528,image-keyboard-response,18
true,12,2,2,0,false,q,false,false,0.0-2.0-0.51-0.463-3.463,0,0,0,68,false,stim,true,2,393.69999999995343,2,0,1,38099,task1,1031468,false,false,1531,image-keyboard-response,19
true,12,0,2,1,false,z,false,false,0.0-2.0-0.51-0.464-3.464,0,0,0,81,false,stim,true,0,320.39999999990687,2,0,0,38099,task1,1033307,false,false,1534,image-keyboard-response,20
true,12,1,2,1,true,z,false,true,0.0-2.0-0.51-0.465-3.465,0,0,0,90,false,stim,false,0,399.69999999995343,2,0,0,38099,task1,1035228,false,false,1537,image-keyboard-response,21
true,12,1,2,1,true,z,false,true,0.0-2.0-0.51-0.466-3.466,0,0,0,90,false,stim,false,0,371.30000000004657,2,0,2,38099,task1,1037123,false,false,1540,image-keyboard-response,22
true,12,1,2,0,false,q,true,false,0.0-2.0-0.51-0.467-3.467,0,0,0,90,false,stim,false,2,222.19999999995343,2,0,1,38099,task1,1038871,false,false,1543,image-keyboard-response,23
true,12,2,2,1,false,z,true,false,0.0-2.0-0.52-0.468-3.468,0,0,0,68,false,stim,false,0,1018.8000000000466,2,0,0,38099,task1,1041403,false,false,1546,image-keyboard-response,24
true,12,0,2,0,true,q,false,true,0.0-2.0-0.52-0.469-3.469,0,0,0,81,false,stim,false,2,323.69999999995343,2,0,1,38099,task1,1043246,false,false,1549,image-keyboard-response,25
true,12,0,2,1,false,z,false,false,0.0-2.0-0.52-0.470-3.470,0,0,0,81,false,stim,true,0,218.39999999990687,2,0,0,38099,task1,1044991,false,false,1552,image-keyboard-response,26
true,12,1,2,1,true,z,false,true,0.0-2.0-0.52-0.471-3.471,0,0,0,90,false,stim,false,0,268.0999999998603,2,0,2,38099,task1,1046791,false,false,1555,image-keyboard-response,27
true,12,1,2,1,true,z,false,true,0.0-2.0-0.52-0.472-3.472,0,0,0,90,false,stim,false,0,373.39999999990687,2,0,2,38099,task1,1048697,false,false,1558,image-keyboard-response,28
true,12,1,2,1,true,z,false,true,0.0-2.0-0.52-0.473-3.473,0,0,0,90,false,stim,false,0,489.80000000004657,2,0,0,38099,task1,1050704,false,false,1561,image-keyboard-response,29
true,12,1,2,0,false,q,true,false,0.0-2.0-0.52-0.474-3.474,0,0,0,90,false,stim,false,2,485.60000000009313,2,0,1,38099,task1,1052706,false,false,1564,image-keyboard-response,30
true,12,2,2,1,false,z,true,false,0.0-2.0-0.52-0.475-3.475,0,0,0,68,false,stim,false,0,533.0,2,0,2,38099,task1,1054766,false,false,1567,image-keyboard-response,31
true,12,1,2,0,false,q,true,false,0.0-2.0-0.52-0.476-3.476,0,0,0,90,false,stim,false,2,540.6000000000931,2,0,1,38099,task1,1056839,false,false,1570,image-keyboard-response,32
true,12,0,2,1,false,z,false,false,0.0-2.0-0.53-0.477-3.477,0,0,0,81,false,stim,true,0,756.0,2,0,2,38099,task1,1059122,false,false,1573,image-keyboard-response,33
true,12,0,2,0,true,q,false,true,0.0-2.0-0.53-0.478-3.478,0,0,0,81,false,stim,false,2,387.4000000001397,2,0,1,38099,task1,1061044,false,false,1576,image-keyboard-response,34
true,12,0,2,0,true,q,false,false,0.0-2.0-0.53-0.479-3.479,0,0,0,81,false,stim,false,2,263.10000000009313,2,0,1,38099,task1,1062835,false,true,1579,image-keyboard-response,35
true,12,1,2,1,true,z,false,false,0.0-2.0-0.53-0.480-3.480,0,0,0,90,false,stim,false,0,704.5,2,0,0,38099,task1,1065072,false,true,1582,image-keyboard-response,36
true,12,0,2,1,false,z,false,false,0.0-2.0-0.53-0.481-3.481,0,0,0,81,false,stim,true,0,312.60000000009313,2,0,0,38099,task1,1066910,false,false,1585,image-keyboard-response,37
true,12,2,2,1,false,z,true,false,0.0-2.0-0.53-0.482-3.482,0,0,0,68,false,stim,false,0,384.0,2,0,2,38099,task1,1068825,false,false,1588,image-keyboard-response,38
true,12,1,2,1,true,z,false,true,0.0-2.0-0.53-0.483-3.483,0,0,0,90,false,stim,false,0,308.19999999995343,2,0,2,38099,task1,1070651,false,false,1591,image-keyboard-response,39
true,12,1,2,0,false,q,true,false,0.0-2.0-0.53-0.484-3.484,0,0,0,90,false,stim,false,2,421.4000000001397,2,0,1,38099,task1,1072595,false,false,1594,image-keyboard-response,40
true,12,0,2,1,false,z,false,false,0.0-2.0-0.53-0.485-3.485,0,0,0,81,false,stim,true,0,568.9000000001397,2,0,0,38099,task1,1074684,false,false,1597,image-keyboard-response,41
true,12,2,2,1,false,z,true,false,0.0-2.0-0.54-0.486-3.486,0,0,0,68,false,stim,false,0,435.9000000001397,2,0,0,38099,task1,1076639,false,false,1600,image-keyboard-response,42
true,12,1,2,1,true,z,false,true,0.0-2.0-0.54-0.487-3.487,0,0,0,90,false,stim,false,0,430.0,2,0,2,38099,task1,1078600,false,false,1603,image-keyboard-response,43
true,13,1,2,2,false,d,true,false,0.0-2.0-0.54-0.488-3.488,0,0,0,90,true,stim,false,0,567.3999999999069,2,0,1,38099,task1,1080692,false,false,1606,image-keyboard-response,1
true,13,1,2,2,false,d,true,false,0.0-2.0-0.54-0.489-3.489,0,0,0,90,false,stim,false,0,1110.4000000001397,2,0,1,38099,task1,1083332,false,false,1609,image-keyboard-response,2
true,13,0,2,0,true,q,false,true,0.0-2.0-0.54-0.490-3.490,0,0,0,81,false,stim,false,1,479.0999999998603,2,0,2,38099,task1,1085337,false,false,1612,image-keyboard-response,3
true,13,0,2,0,true,q,false,true,0.0-2.0-0.54-0.491-3.491,0,0,0,81,false,stim,false,1,420.19999999995343,2,0,0,38099,task1,1087297,false,false,1615,image-keyboard-response,4
true,13,0,2,0,true,q,false,true,0.0-2.0-0.54-0.492-3.492,0,0,0,81,false,stim,false,1,324.0,2,0,0,38099,task1,1089147,false,false,1618,image-keyboard-response,5
true,13,0,2,2,false,d,false,false,0.0-2.0-0.54-0.493-3.493,0,0,0,81,false,stim,true,0,446.39999999990687,2,0,1,38099,task1,1091120,false,false,1621,image-keyboard-response,6
true,13,1,2,0,false,q,false,false,0.0-2.0-0.54-0.494-3.494,0,0,0,90,false,stim,true,1,333.10000000009313,2,0,2,38099,task1,1092971,false,false,1624,image-keyboard-response,7
true,13,2,2,2,true,d,false,true,0.0-2.0-0.55-0.495-3.495,0,0,0,68,false,stim,false,0,425.20000000018626,2,0,1,38099,task1,1094912,false,false,1627,image-keyboard-response,8
true,13,2,2,0,false,q,true,false,0.0-2.0-0.55-0.496-3.496,0,0,0,68,false,stim,false,1,460.30000000004657,2,0,0,38099,task1,1096894,false,false,1630,image-keyboard-response,9
true,13,2,2,0,false,q,true,true,0.0-2.0-0.55-0.497-3.497,0,0,0,68,false,stim,false,1,1684.6000000000931,2,0,2,38099,task1,1100094,false,true,1633,image-keyboard-response,10
true,13,2,2,0,false,q,true,false,0.0-2.0-0.55-0.498-3.498,0,0,0,68,false,stim,false,1,622.1999999999534,2,0,0,38099,task1,1102257,false,false,1636,image-keyboard-response,11
true,13,1,2,0,false,q,false,false,0.0-2.0-0.55-0.499-3.499,0,0,0,90,false,stim,true,1,1013.4000000001397,2,0,0,38099,task1,1104797,false,false,1639,image-keyboard-response,12
true,13,0,2,2,false,d,false,false,0.0-2.0-0.55-0.500-3.500,0,0,0,81,false,stim,true,0,341.19999999995343,2,0,1,38099,task1,1106665,false,false,1642,image-keyboard-response,13
true,13,0,2,0,true,q,false,true,0.0-2.0-0.55-0.501-3.501,0,0,0,81,false,stim,false,1,378.4000000001397,2,0,2,38099,task1,1108566,false,false,1645,image-keyboard-response,14
true,13,0,2,0,true,q,false,true,0.0-2.0-0.55-0.502-3.502,0,0,0,81,false,stim,false,1,266.70000000018626,2,0,2,38099,task1,1110352,false,false,1648,image-keyboard-response,15
true,13,0,2,2,false,d,false,false,0.0-2.0-0.55-0.503-3.503,0,0,0,81,false,stim,true,0,871.8999999999069,2,0,1,38099,task1,1112739,false,false,1651,image-keyboard-response,16
true,13,0,2,0,true,q,false,true,0.0-2.0-0.56-0.504-3.504,0,0,0,81,false,stim,false,1,763.5999999998603,2,0,2,38099,task1,1115021,false,false,1654,image-keyboard-response,17
true,13,1,2,0,false,q,false,false,0.0-2.0-0.56-0.505-3.505,0,0,0,90,false,stim,true,1,600.8000000000466,2,0,0,38099,task1,1117136,false,false,1657,image-keyboard-response,18
true,13,0,2,2,false,d,false,false,0.0-2.0-0.56-0.506-3.506,0,0,0,81,false,stim,true,0,471.29999999981374,2,0,1,38099,task1,1119119,false,false,1660,image-keyboard-response,19
true,13,1,2,0,false,q,false,false,0.0-2.0-0.56-0.507-3.507,0,0,0,90,false,stim,true,1,706.5,2,0,2,38099,task1,1121339,false,false,1663,image-keyboard-response,20
true,13,2,2,0,false,q,true,false,0.0-2.0-0.56-0.508-3.508,0,0,0,68,false,stim,false,1,812.1000000000931,2,0,2,38099,task1,1123673,false,false,1666,image-keyboard-response,21
true,13,2,2,0,false,q,true,false,0.0-2.0-0.56-0.509-3.509,0,0,0,68,false,stim,false,1,490.29999999981374,2,0,0,38099,task1,1125676,false,false,1669,image-keyboard-response,22
true,13,1,2,0,false,q,false,false,0.0-2.0-0.56-0.510-3.510,0,0,0,90,false,stim,true,1,558.3999999999069,2,0,0,38099,task1,1127746,false,false,1672,image-keyboard-response,23
true,13,0,2,2,false,d,false,false,0.0-2.0-0.56-0.511-3.511,0,0,0,81,false,stim,true,0,553.3000000000466,2,0,1,38099,task1,1129815,false,false,1675,image-keyboard-response,24
true,13,0,2,2,false,d,false,false,0.0-2.0-0.56-0.512-3.512,0,0,0,81,false,stim,true,0,371.10000000009313,2,0,1,38099,task1,1131703,false,false,1678,image-keyboard-response,25
true,13,1,2,2,false,d,true,false,0.0-2.0-0.57-0.513-3.513,0,0,0,90,false,stim,false,0,230.39999999990687,2,0,1,38099,task1,1133460,false,false,1681,image-keyboard-response,26
true,13,2,2,2,true,d,false,true,0.0-2.0-0.57-0.514-3.514,0,0,0,68,false,stim,false,0,381.30000000004657,2,0,1,38099,task1,1135365,false,false,1684,image-keyboard-response,27
true,13,2,2,0,false,q,true,false,0.0-2.0-0.57-0.515-3.515,0,0,0,68,false,stim,false,1,789.0,2,0,2,38099,task1,1137670,false,false,1687,image-keyboard-response,28
true,13,2,2,2,true,d,false,true,0.0-2.0-0.57-0.516-3.516,0,0,0,68,false,stim,false,0,446.0,2,0,1,38099,task1,1139633,false,false,1690,image-keyboard-response,29
true,13,1,2,0,false,q,false,true,0.0-2.0-0.57-0.517-3.517,0,0,0,90,false,stim,true,1,441.9000000001397,2,0,0,38099,task1,1141589,false,true,1693,image-keyboard-response,30
true,13,1,2,0,false,q,false,false,0.0-2.0-0.57-0.518-3.518,0,0,0,90,false,stim,true,1,711.6999999999534,2,0,0,38099,task1,1143836,false,false,1696,image-keyboard-response,31
true,13,1,2,0,false,q,false,false,0.0-2.0-0.57-0.519-3.519,0,0,0,90,false,stim,true,1,538.3999999999069,2,0,2,38099,task1,1145907,false,false,1699,image-keyboard-response,32
true,13,1,2,0,false,q,false,true,0.0-2.0-0.57-0.520-3.520,0,0,0,90,false,stim,true,1,698.0999999998603,2,0,0,38099,task1,1148145,false,true,1702,image-keyboard-response,33
true,13,1,2,0,false,q,false,false,0.0-2.0-0.57-0.521-3.521,0,0,0,90,false,stim,true,1,560.6000000000931,2,0,2,38099,task1,1150231,false,false,1705,image-keyboard-response,34
true,13,1,2,0,false,q,false,false,0.0-2.0-0.58-0.522-3.522,0,0,0,90,false,stim,true,1,350.80000000004657,2,0,0,38099,task1,1152118,false,false,1708,image-keyboard-response,35
true,13,1,2,2,false,d,true,false,0.0-2.0-0.58-0.523-3.523,0,0,0,90,false,stim,false,0,446.30000000004657,2,0,1,38099,task1,1154099,false,false,1711,image-keyboard-response,36
true,13,2,2,0,false,q,true,false,0.0-2.0-0.58-0.524-3.524,0,0,0,68,false,stim,false,1,351.5,2,0,2,38099,task1,1155977,false,false,1714,image-keyboard-response,37
true,13,2,2,0,false,q,true,false,0.0-2.0-0.58-0.525-3.525,0,0,0,68,false,stim,false,1,382.30000000004657,2,1,0,38099,task1,1157900,false,false,1717,image-keyboard-response,38
true,13,0,2,2,false,d,false,false,0.0-2.0-0.58-0.526-3.526,0,0,0,81,false,stim,true,0,606.1000000000931,2,1,1,38099,task1,1160032,false,false,1720,image-keyboard-response,39
true,13,1,2,0,false,q,false,true,0.0-2.0-0.58-0.527-3.527,0,0,0,90,false,stim,true,1,275.4000000001397,2,1,2,38099,task1,1161844,false,true,1723,image-keyboard-response,40
true,13,1,2,0,false,q,false,false,0.0-2.0-0.58-0.528-3.528,0,0,0,90,false,stim,true,1,471.80000000004657,2,1,0,38099,task1,1163846,false,false,1726,image-keyboard-response,41
true,13,2,2,0,false,q,true,false,0.0-2.0-0.58-0.529-3.529,0,0,0,68,false,stim,false,1,309.39999999990687,2,1,2,38099,task1,1165684,false,false,1729,image-keyboard-response,42
true,14,0,0,2,false,d,true,false,0.0-2.0-0.58-0.530-3.530,1,1,1,81,true,stim,false,2,2003.6999999999534,2,1,1,38099,task1,1277828,false,false,1840,image-keyboard-response,1
true,14,1,0,2,false,d,true,false,0.0-2.0-0.59-0.531-3.531,1,1,1,90,false,stim,false,2,274.89999999990687,2,1,1,38099,task1,1279639,false,false,1843,image-keyboard-response,2
true,14,2,0,0,false,q,true,false,0.0-2.0-0.59-0.532-3.532,1,1,1,68,false,stim,false,0,301.60000000009313,2,1,0,38099,task1,1281478,false,false,1846,image-keyboard-response,3
true,14,2,0,0,false,q,true,false,0.0-2.0-0.59-0.533-3.533,1,1,1,68,false,stim,false,0,343.89999999990687,2,1,0,38099,task1,1283348,false,false,1849,image-keyboard-response,4
true,14,1,0,0,false,q,true,false,0.0-2.0-0.59-0.534-3.534,1,1,1,90,false,stim,false,0,331.5,2,1,2,38099,task1,1285215,false,false,1852,image-keyboard-response,5
true,14,1,0,2,false,d,true,false,0.0-2.0-0.59-0.535-3.535,1,1,1,90,false,stim,false,2,392.69999999995343,2,1,1,38099,task1,1287135,false,false,1855,image-keyboard-response,6
true,14,1,0,0,false,q,true,false,0.0-2.0-0.59-0.536-3.536,1,1,1,90,false,stim,false,0,246.5,2,1,0,38099,task1,1288902,false,false,1858,image-keyboard-response,7
true,14,0,0,0,true,q,false,true,0.0-2.0-0.59-0.537-3.537,1,1,1,81,false,stim,false,0,271.69999999995343,2,1,2,38099,task1,1290689,false,false,1861,image-keyboard-response,8
true,14,0,0,0,true,q,false,true,0.0-2.0-0.59-0.538-3.538,1,1,1,81,false,stim,false,0,352.5999999998603,2,0,2,38099,task1,1292570,false,false,1864,image-keyboard-response,9
true,14,0,0,2,false,d,true,false,0.0-2.0-0.59-0.539-3.539,1,1,1,81,false,stim,false,2,337.10000000009313,2,0,1,38099,task1,1294432,false,false,1867,image-keyboard-response,10
true,14,2,0,2,true,d,false,true,0.0-2.0-0.60-0.540-3.540,1,1,1,68,false,stim,false,2,319.0999999998603,2,0,1,38099,task1,1296289,false,false,1870,image-keyboard-response,11
true,14,2,0,0,false,q,true,false,0.0-2.0-0.60-0.541-3.541,1,1,1,68,false,stim,false,0,463.39999999990687,2,0,2,38099,task1,1298279,false,false,1873,image-keyboard-response,12
true,14,2,0,2,true,d,false,true,0.0-2.0-0.60-0.542-3.542,1,1,1,68,false,stim,false,2,316.19999999995343,2,0,1,38099,task1,1300120,false,false,1876,image-keyboard-response,13
true,15,2,2,1,false,z,true,false,0.0-2.0-0.60-0.543-3.543,0,0,0,68,true,stim,false,0,282.80000000004657,2,0,2,38099,task1,1301931,false,false,1879,image-keyboard-response,1
true,15,2,2,1,false,z,true,false,0.0-2.0-0.60-0.544-3.544,0,0,0,68,false,stim,false,0,2348.6999999999534,2,0,0,38099,task1,1305811,false,false,1882,image-keyboard-response,2
true,15,1,2,1,true,z,false,true,0.0-2.0-0.60-0.545-3.545,0,0,0,90,false,stim,false,0,421.89999999990687,2,0,0,38099,task1,1307747,false,false,1885,image-keyboard-response,3
true,15,1,2,1,true,z,false,true,0.0-2.0-0.60-0.546-3.546,0,0,0,90,false,stim,false,0,340.0999999998603,2,0,0,38099,task1,1309610,false,false,1888,image-keyboard-response,4
true,15,1,2,0,false,q,true,false,0.0-2.0-0.60-0.547-3.547,0,0,0,90,false,stim,false,2,1628.8000000000466,2,0,1,38099,task1,1312761,false,false,1891,image-keyboard-response,5
true,15,0,2,1,false,z,false,false,0.0-2.0-0.60-0.548-3.548,0,0,0,81,false,stim,true,0,1696.1999999999534,2,0,2,38099,task1,1315981,false,false,1894,image-keyboard-response,6
true,15,1,2,1,true,z,false,true,0.0-2.0-0.61-0.549-3.549,0,0,0,90,false,stim,false,0,424.79999999981374,2,0,2,38099,task1,1317929,false,false,1897,image-keyboard-response,7
true,15,1,2,1,true,z,false,true,0.0-2.0-0.61-0.550-3.550,0,0,0,90,false,stim,false,0,446.5,2,0,0,38099,task1,1319892,false,false,1900,image-keyboard-response,8
true,15,1,2,0,false,q,true,true,0.0-2.0-0.61-0.551-3.551,0,0,0,90,false,stim,false,2,445.4000000001397,2,0,1,38099,task1,1321876,false,true,1903,image-keyboard-response,9
true,15,1,2,0,false,q,true,false,0.0-2.0-0.61-0.552-3.552,0,0,0,90,false,stim,false,2,294.5,2,0,1,38099,task1,1323697,false,false,1906,image-keyboard-response,10
true,15,1,2,1,true,z,false,true,0.0-2.0-0.61-0.553-3.553,0,0,0,90,false,stim,false,0,474.4000000001397,2,0,0,38099,task1,1325708,false,false,1909,image-keyboard-response,11
true,15,1,2,1,true,z,false,true,0.0-2.0-0.61-0.554-3.554,0,0,0,90,false,stim,false,0,589.5,2,0,0,38099,task1,1327825,false,false,1912,image-keyboard-response,12
true,15,1,2,0,false,q,true,false,0.0-2.0-0.61-0.555-3.555,0,0,0,90,false,stim,false,2,699.6000000000931,2,0,1,38099,task1,1330065,false,false,1915,image-keyboard-response,13
true,15,1,2,1,true,z,false,true,0.0-2.0-0.61-0.556-3.556,0,0,0,90,false,stim,false,0,0.30000000004656613,2,0,2,38099,task1,1331592,false,false,1918,image-keyboard-response,14
true,15,1,2,1,true,z,false,true,0.0-2.0-0.61-0.557-3.557,0,0,0,90,false,stim,false,0,347.19999999995343,2,0,2,38099,task1,1333449,false,false,1921,image-keyboard-response,15
true,15,1,2,1,true,z,false,true,0.0-2.0-0.62-0.558-3.558,0,0,0,90,false,stim,false,0,973.5,2,0,0,38099,task1,1335961,false,false,1924,image-keyboard-response,16
true,15,1,2,0,false,q,true,false,0.0-2.0-0.62-0.559-3.559,0,0,0,90,false,stim,false,2,393.39999999990687,2,0,1,38099,task1,1337887,false,false,1927,image-keyboard-response,17
true,15,1,2,0,false,q,true,false,0.0-2.0-0.62-0.560-3.560,0,0,0,90,false,stim,false,2,336.39999999990687,2,0,1,38099,task1,1339761,false,false,1930,image-keyboard-response,18
true,15,1,2,1,true,z,false,true,0.0-2.0-0.62-0.561-3.561,0,0,0,90,false,stim,false,0,315.9000000001397,2,0,2,38099,task1,1341600,false,false,1933,image-keyboard-response,19
true,15,1,2,1,true,z,false,true,0.0-2.0-0.62-0.562-3.562,0,0,0,90,false,stim,false,0,340.60000000009313,2,0,2,38099,task1,1343471,false,false,1936,image-keyboard-response,20
true,15,1,2,0,false,q,true,false,0.0-2.0-0.62-0.563-3.563,0,0,0,90,false,stim,false,2,284.0,2,0,1,38099,task1,1345292,false,false,1939,image-keyboard-response,21
true,15,1,2,1,true,z,false,true,0.0-2.0-0.62-0.564-3.564,0,0,0,90,false,stim,false,0,362.5,2,0,2,38099,task1,1347170,false,false,1942,image-keyboard-response,22
true,15,1,2,1,true,z,false,true,0.0-2.0-0.62-0.565-3.565,0,0,0,90,false,stim,false,0,295.69999999995343,2,0,0,38099,task1,1348996,false,false,1945,image-keyboard-response,23
true,15,1,2,1,true,z,false,true,0.0-2.0-0.62-0.566-3.566,0,0,0,90,false,stim,false,0,615.1000000000931,2,0,0,38099,task1,1351133,false,false,1948,image-keyboard-response,24
true,15,1,2,1,true,z,false,true,0.0-2.0-0.63-0.567-3.567,0,0,0,90,false,stim,false,0,498.0,2,0,0,38099,task1,1353154,false,false,1951,image-keyboard-response,25
true,15,1,2,1,true,z,false,true,0.0-2.0-0.63-0.568-3.568,0,0,0,90,false,stim,false,0,423.30000000004657,2,0,0,38099,task1,1355115,false,false,1954,image-keyboard-response,26
true,15,1,2,0,false,q,true,false,0.0-2.0-0.63-0.569-3.569,0,0,0,90,false,stim,false,2,354.80000000004657,2,0,1,38099,task1,1356996,false,false,1957,image-keyboard-response,27
true,15,1,2,0,false,q,true,false,0.0-2.0-0.63-0.570-3.570,0,0,0,90,false,stim,false,2,510.89999999990687,2,0,1,38099,task1,1359034,false,false,1960,image-keyboard-response,28
true,15,1,2,1,true,z,false,true,0.0-2.0-0.63-0.571-3.571,0,0,0,90,false,stim,false,0,377.5,2,0,2,38099,task1,1360931,false,false,1963,image-keyboard-response,29
true,15,1,2,1,true,z,false,true,0.0-2.0-0.63-0.572-3.572,0,0,0,90,false,stim,false,0,1214.0,2,0,0,38099,task1,1363662,false,false,1966,image-keyboard-response,30
true,15,1,2,1,true,z,false,true,0.0-2.0-0.63-0.573-3.573,0,0,0,90,false,stim,false,0,344.29999999981374,2,0,2,38099,task1,1365523,false,false,1969,image-keyboard-response,31
true,15,1,2,1,true,z,false,true,0.0-2.0-0.63-0.574-3.574,0,0,0,90,false,stim,false,0,433.5,2,0,2,38099,task1,1367478,false,false,1972,image-keyboard-response,32
true,15,1,2,0,false,q,true,false,0.0-2.0-0.63-0.575-3.575,0,0,0,90,false,stim,false,2,272.5,2,0,1,38099,task1,1369276,false,false,1975,image-keyboard-response,33
true,15,1,2,0,false,q,true,false,0.0-2.0-0.64-0.576-3.576,0,0,0,90,false,stim,false,2,278.0,2,0,1,38099,task1,1371081,false,false,1978,image-keyboard-response,34
true,15,1,2,0,false,q,true,false,0.0-2.0-0.64-0.577-3.577,0,0,0,90,false,stim,false,2,507.5,2,0,1,38099,task1,1373128,false,false,1981,image-keyboard-response,35
true,15,0,2,1,false,z,false,false,0.0-2.0-0.64-0.578-3.578,0,0,0,81,false,stim,true,0,949.3000000000466,2,0,0,38099,task1,1375594,false,false,1984,image-keyboard-response,36
true,15,0,2,1,false,z,false,false,0.0-2.0-0.64-0.579-3.579,0,0,0,81,false,stim,true,0,369.10000000009313,2,0,0,38099,task1,1377483,false,false,1987,image-keyboard-response,37
true,15,1,2,1,true,z,false,true,0.0-2.0-0.64-0.580-3.580,0,0,0,90,false,stim,false,0,563.0,2,0,0,38099,task1,1379574,false,false,1990,image-keyboard-response,38
true,15,2,2,1,false,z,true,false,0.0-2.0-0.64-0.581-3.581,0,0,0,68,false,stim,false,0,315.60000000009313,2,0,2,38099,task1,1381406,false,false,1993,image-keyboard-response,39
true,15,2,2,1,false,z,true,false,0.0-2.0-0.64-0.582-3.582,0,0,0,68,false,stim,false,0,334.60000000009313,2,0,2,38099,task1,1383268,false,false,1996,image-keyboard-response,40
true,15,2,2,1,false,z,true,false,0.0-2.0-0.64-0.583-3.583,0,0,0,68,false,stim,false,0,282.5,2,0,2,38099,task1,1385066,false,false,1999,image-keyboard-response,41
true,15,2,2,0,false,q,false,false,0.0-2.0-0.64-0.584-3.584,0,0,0,68,false,stim,true,2,508.89999999990687,2,0,1,38099,task1,1387104,false,false,2002,image-keyboard-response,42
true,15,2,2,1,false,z,true,false,0.0-2.0-0.65-0.585-3.585,0,0,0,68,false,stim,false,0,346.19999999995343,2,0,2,38099,task1,1388988,false,false,2005,image-keyboard-response,43
true,15,2,2,0,false,q,false,false,0.0-2.0-0.65-0.586-3.586,0,0,0,68,false,stim,true,2,621.6999999999534,2,0,1,38099,task1,1391126,false,false,2008,image-keyboard-response,44
true,16,2,2,0,false,q,true,false,0.0-2.0-0.65-0.587-3.587,0,0,0,68,true,stim,false,1,341.5,2,0,2,38099,task1,1392994,false,false,2011,image-keyboard-response,1
true,16,1,2,2,false,d,true,false,0.0-2.0-0.65-0.588-3.588,0,0,0,90,false,stim,false,0,658.6999999999534,2,0,1,38099,task1,1395188,false,false,2014,image-keyboard-response,2
true,16,0,2,0,true,q,false,true,0.0-2.0-0.65-0.589-3.589,0,0,0,81,false,stim,false,1,318.10000000009313,2,0,0,38099,task1,1397038,false,false,2017,image-keyboard-response,3
