answered,blockNum,choice,condition,corResp,correct,correct_response,explo,fb,internal_node_id,isStable_1,isStable_2,isStable_3,key_press,newBlock,part,persev,persevResp,rt,sessNum,stableAS,stimulus,subject,task,time_elapsed,training,trap,trial_index,trial_type,trialsInBlock
true,1,0,0,1,false,z,true,false,0.0-2.0-0.0-0.0-3.0,0,0,0,81,true,stim,false,-1,1624.0,0,0,2,38099,task3,159698,false,false,98,image-keyboard-response,1
true,1,1,0,0,false,q,true,false,0.0-2.0-0.0-0.1-3.1,0,0,0,90,false,stim,false,-1,362.80000001192093,0,0,0,38099,task3,161596,false,false,101,image-keyboard-response,2
true,1,0,0,0,true,q,false,true,0.0-2.0-0.0-0.2-3.2,0,0,0,81,false,stim,false,-1,687.4000000357628,0,0,0,38099,task3,163810,false,false,104,image-keyboard-response,3
true,1,1,0,1,true,z,false,true,0.0-2.0-0.0-0.3-3.3,0,0,0,90,false,stim,false,-1,1701.2999999523163,0,0,2,38099,task3,167043,false,false,107,image-keyboard-response,4
true,1,2,0,1,false,z,true,true,0.0-2.0-0.0-0.4-3.4,0,0,0,68,false,stim,false,-1,837.8000000119209,0,0,1,38099,task3,169389,false,true,110,image-keyboard-response,5
true,1,2,0,1,false,z,true,false,0.0-2.0-0.0-0.5-3.5,0,0,0,68,false,stim,false,-1,696.5,0,0,1,38099,task3,171607,false,false,113,image-keyboard-response,6
true,1,2,0,1,false,z,true,false,0.0-2.0-0.0-0.6-3.6,0,0,0,68,false,stim,false,-1,501.89999997615814,0,0,1,38099,task3,173618,false,false,116,image-keyboard-response,7
true,1,1,0,1,true,z,false,true,0.0-2.0-0.0-0.7-3.7,0,0,0,90,false,stim,false,-1,939.3000000119209,0,0,2,38099,task3,176066,false,false,119,image-keyboard-response,8
true,1,0,0,0,true,q,false,true,0.0-2.0-0.0-0.8-3.8,0,0,0,81,false,stim,false,-1,811.8000000119209,0,0,0,38099,task3,178387,false,false,122,image-keyboard-response,9
true,1,2,0,1,false,z,true,false,0.0-2.0-0.1-0.9-3.9,0,0,0,68,false,stim,false,-1,2028.8999999761581,0,0,1,38099,task3,181932,false,false,125,image-keyboard-response,10
true,1,1,0,1,true,z,false,false,0.0-2.0-0.1-0.10-3.10,0,0,0,90,false,stim,false,-1,316.39999997615814,0,0,1,38099,task3,183773,false,true,128,image-keyboard-response,11
true,1,0,0,0,true,q,false,true,0.0-2.0-0.1-0.11-3.11,0,0,0,81,false,stim,false,-1,642.8000000119209,0,0,0,38099,task3,185951,false,false,131,image-keyboard-response,12
true,1,0,0,0,true,q,false,false,0.0-2.0-0.1-0.12-3.12,0,0,0,81,false,stim,false,-1,1044.8999999761581,0,0,0,38099,task3,188505,false,true,134,image-keyboard-response,13
true,1,1,0,1,true,z,false,true,0.0-2.0-0.1-0.13-3.13,0,0,0,90,false,stim,false,-1,2019.6000000238419,0,0,2,38099,task3,192041,false,false,137,image-keyboard-response,14
true,1,1,0,1,true,z,false,true,0.0-2.0-0.1-0.14-3.14,0,0,0,90,false,stim,false,-1,651.1000000238419,0,0,2,38099,task3,194204,false,false,140,image-keyboard-response,15
true,1,1,0,0,false,q,true,false,0.0-2.0-0.1-0.15-3.15,0,0,0,90,false,stim,false,-1,1105.199999988079,0,0,0,38099,task3,196831,false,false,143,image-keyboard-response,16
true,1,2,0,1,false,z,true,false,0.0-2.0-0.1-0.16-3.16,0,0,0,68,false,stim,false,-1,833.5,0,0,1,38099,task3,199174,false,false,146,image-keyboard-response,17
true,1,1,0,1,true,z,false,false,0.0-2.0-0.1-0.17-3.17,0,0,0,90,false,stim,false,-1,1138.0,0,0,2,38099,task3,201820,false,true,149,image-keyboard-response,18
true,1,0,0,0,true,q,false,true,0.0-2.0-0.2-0.18-3.18,0,0,0,81,false,stim,false,-1,781.1999999880791,0,0,0,38099,task3,204124,false,false,152,image-keyboard-response,19
true,1,1,0,1,true,z,false,false,0.0-2.0-0.2-0.19-3.19,0,0,0,90,false,stim,false,-1,2418.7999999523163,0,0,1,38099,task3,208060,false,true,155,image-keyboard-response,20
true,1,0,0,1,false,z,true,false,0.0-2.0-0.2-0.20-3.20,0,0,0,81,false,stim,false,-1,1814.4000000357628,0,0,2,38099,task3,211402,false,false,158,image-keyboard-response,21
true,1,0,0,0,true,q,false,true,0.0-2.0-0.2-0.21-3.21,0,0,0,81,false,stim,false,-1,1162.199999988079,0,0,0,38099,task3,214090,false,false,161,image-keyboard-response,22
true,1,0,0,0,true,q,false,false,0.0-2.0-0.2-0.22-3.22,0,0,0,81,false,stim,false,-1,682.6000000238419,0,0,0,38099,task3,216288,false,true,164,image-keyboard-response,23
true,1,1,0,1,true,z,false,true,0.0-2.0-0.2-0.23-3.23,0,0,0,90,false,stim,false,-1,1592.699999988079,0,0,1,38099,task3,219397,false,false,167,image-keyboard-response,24
true,1,2,0,1,false,z,true,false,0.0-2.0-0.2-0.24-3.24,0,0,0,68,false,stim,false,-1,1801.1000000238419,0,0,1,38099,task3,222713,false,false,170,image-keyboard-response,25
true,1,1,0,1,true,z,false,true,0.0-2.0-0.2-0.25-3.25,0,0,0,90,false,stim,false,-1,981.0,0,0,2,38099,task3,225207,false,false,173,image-keyboard-response,26
true,1,1,0,1,true,z,false,true,0.0-2.0-0.2-0.26-3.26,0,0,0,90,false,stim,false,-1,776.8000000119209,0,0,2,38099,task3,227508,false,false,176,image-keyboard-response,27
true,1,0,0,0,true,q,false,true,0.0-2.0-0.3-0.27-3.27,0,0,0,81,false,stim,false,-1,920.3999999761581,0,1,0,38099,task3,229961,false,false,179,image-keyboard-response,28
true,1,1,0,1,true,z,false,true,0.0-2.0-0.3-0.28-3.28,0,0,0,90,false,stim,false,-1,724.7999999523163,0,0,2,38099,task3,232206,false,false,182,image-keyboard-response,29
true,2,0,1,0,true,q,false,true,0.0-2.0-0.3-0.29-3.29,1,0,0,81,true,stim,false,0,903.8999999761581,0,1,0,38099,task3,234631,false,false,185,image-keyboard-response,1
true,2,1,1,0,false,q,false,false,0.0-2.0-0.3-0.30-3.30,1,0,0,90,false,stim,true,1,832.2999999523163,0,0,2,38099,task3,236974,false,false,188,image-keyboard-response,2
true,2,0,1,0,true,q,false,true,0.0-2.0-0.3-0.31-3.31,1,0,0,81,false,stim,false,0,651.3000000119209,0,1,0,38099,task3,239134,false,false,191,image-keyboard-response,3
true,2,2,1,2,true,d,false,true,0.0-2.0-0.3-0.32-3.32,1,0,0,68,false,stim,false,1,1150.300000011921,0,0,1,38099,task3,241808,false,false,194,image-keyboard-response,4
true,2,2,1,2,true,d,false,true,0.0-2.0-0.3-0.33-3.33,1,0,0,68,false,stim,false,1,1067.1000000238419,0,0,1,38099,task3,244391,false,false,197,image-keyboard-response,5
true,2,1,1,0,false,q,false,false,0.0-2.0-0.3-0.34-3.34,1,0,0,90,false,stim,true,1,1482.4000000357628,0,0,2,38099,task3,247403,false,false,200,image-keyboard-response,6
true,2,2,1,2,true,d,false,true,0.0-2.0-0.3-0.35-3.35,1,0,0,68,false,stim,false,1,752.8999999761581,0,0,1,38099,task3,249692,false,false,203,image-keyboard-response,7
true,2,2,1,0,false,q,true,false,0.0-2.0-0.4-0.36-3.36,1,0,0,68,false,stim,false,1,532.0,0,0,2,38099,task3,251735,false,false,206,image-keyboard-response,8
true,2,0,1,0,true,q,false,true,0.0-2.0-0.4-0.37-3.37,1,0,0,81,false,stim,false,0,700.8000000119209,0,1,0,38099,task3,253961,false,false,209,image-keyboard-response,9
true,2,2,1,0,false,q,true,false,0.0-2.0-0.4-0.38-3.38,1,0,0,68,false,stim,false,1,1585.1000000238419,0,0,2,38099,task3,257066,false,false,212,image-keyboard-response,10
true,2,0,1,0,true,q,false,true,0.0-2.0-0.4-0.39-3.39,1,0,0,81,false,stim,false,1,684.3000000119209,0,0,2,38099,task3,259274,false,false,215,image-keyboard-response,11
true,2,1,1,2,false,d,false,true,0.0-2.0-0.4-0.40-3.40,1,0,0,90,false,stim,true,1,953.1000000238419,0,0,1,38099,task3,261741,false,true,218,image-keyboard-response,12
true,2,1,1,2,false,d,false,false,0.0-2.0-0.4-0.41-3.41,1,0,0,90,false,stim,true,1,843.8999999761581,0,0,1,38099,task3,264097,false,false,221,image-keyboard-response,13
true,2,0,1,0,true,q,false,true,0.0-2.0-0.4-0.42-3.42,1,0,0,81,false,stim,false,0,886.0,0,1,0,38099,task3,266497,false,false,224,image-keyboard-response,14
true,2,1,1,2,false,d,false,false,0.0-2.0-0.4-0.43-3.43,1,0,0,90,false,stim,true,1,1524.0,0,0,1,38099,task3,269539,false,false,227,image-keyboard-response,15
true,2,0,1,0,true,q,false,true,0.0-2.0-0.4-0.44-3.44,1,0,0,81,false,stim,false,0,1037.0,0,1,0,38099,task3,272089,false,false,230,image-keyboard-response,16
true,2,2,1,0,false,q,true,false,0.0-2.0-0.5-0.45-3.45,1,0,0,68,false,stim,false,0,457.39999997615814,0,1,0,38099,task3,274070,false,false,233,image-keyboard-response,17
true,2,0,1,0,true,q,false,true,0.0-2.0-0.5-0.46-3.46,1,0,0,81,false,stim,false,0,477.39999997615814,0,1,0,38099,task3,276067,false,false,236,image-keyboard-response,18
true,2,0,1,2,false,d,true,false,0.0-2.0-0.5-0.47-3.47,1,0,0,81,false,stim,false,1,1300.199999988079,0,0,1,38099,task3,278888,false,false,239,image-keyboard-response,19
true,2,0,1,0,true,q,false,true,0.0-2.0-0.5-0.48-3.48,1,0,0,81,false,stim,false,0,447.80000001192093,0,1,0,38099,task3,280854,false,false,242,image-keyboard-response,20
true,2,1,1,2,false,d,false,true,0.0-2.0-0.5-0.49-3.49,1,0,0,90,false,stim,true,1,387.10000002384186,0,1,1,38099,task3,282760,false,true,245,image-keyboard-response,21
true,2,2,1,0,false,q,true,false,0.0-2.0-0.5-0.50-3.50,1,0,0,68,false,stim,false,1,1035.0,0,0,2,38099,task3,285310,false,false,248,image-keyboard-response,22
true,2,1,1,2,false,d,false,false,0.0-2.0-0.5-0.51-3.51,1,0,0,90,false,stim,true,1,1096.2000000476837,0,1,1,38099,task3,287918,false,false,251,image-keyboard-response,23
true,2,0,1,0,true,q,false,true,0.0-2.0-0.5-0.52-3.52,1,0,0,81,false,stim,false,1,857.6999999880791,0,0,2,38099,task3,290291,false,false,254,image-keyboard-response,24
true,3,1,2,2,false,d,true,false,0.0-2.0-0.5-0.53-3.53,1,1,0,90,true,stim,false,0,1258.800000011921,0,0,2,38099,task3,293061,false,false,257,image-keyboard-response,1
true,3,0,2,2,false,d,false,false,0.0-2.0-0.6-0.54-3.54,1,1,0,81,false,stim,true,0,675.8999999761581,0,0,2,38099,task3,295258,false,false,260,image-keyboard-response,2
true,3,0,2,2,false,d,true,false,0.0-2.0-0.6-0.55-3.55,1,1,0,81,false,stim,false,2,392.7000000476837,0,1,1,38099,task3,297163,false,false,263,image-keyboard-response,3
true,3,2,2,2,true,d,false,true,0.0-2.0-0.6-0.56-3.56,1,1,0,68,false,stim,false,0,386.19999998807907,0,0,2,38099,task3,299058,false,false,266,image-keyboard-response,4
true,3,0,2,2,false,d,false,true,0.0-2.0-0.6-0.57-3.57,1,1,0,81,false,stim,true,0,1779.300000011921,0,0,2,38099,task3,302354,false,true,269,image-keyboard-response,5
true,3,1,2,0,false,q,true,true,0.0-2.0-0.6-0.58-3.58,1,1,0,90,false,stim,false,0,785.6999999880791,0,1,0,38099,task3,304648,false,true,272,image-keyboard-response,6
true,3,2,2,0,false,q,true,false,0.0-2.0-0.6-0.59-3.59,1,1,0,68,false,stim,false,0,477.9000000357628,0,1,0,38099,task3,306642,false,false,275,image-keyboard-response,7
true,3,0,2,2,false,d,true,false,0.0-2.0-0.6-0.60-3.60,1,1,0,81,false,stim,false,2,1353.699999988079,0,0,1,38099,task3,309507,false,false,278,image-keyboard-response,8
true,3,0,2,0,true,q,false,true,0.0-2.0-0.6-0.61-3.61,1,1,0,81,false,stim,false,0,635.0,0,0,0,38099,task3,311679,false,false,281,image-keyboard-response,9
true,3,0,2,2,false,d,true,false,0.0-2.0-0.6-0.62-3.62,1,1,0,81,false,stim,false,2,2332.5,0,0,1,38099,task3,315534,false,false,284,image-keyboard-response,10
true,3,2,2,2,true,d,false,true,0.0-2.0-0.7-0.63-3.63,1,1,0,68,false,stim,false,0,1347.6000000238419,0,1,2,38099,task3,318415,false,false,287,image-keyboard-response,11
true,3,0,2,2,false,d,true,true,0.0-2.0-0.7-0.64-3.64,1,1,0,81,false,stim,false,2,654.0,0,0,1,38099,task3,320582,false,true,290,image-keyboard-response,12
true,4,1,1,1,true,z,false,true,0.0-2.0-0.7-0.65-3.65,0,0,1,90,true,stim,false,2,1445.699999988079,0,0,1,38099,task3,323544,false,false,293,image-keyboard-response,1
true,4,1,1,1,true,z,false,true,0.0-2.0-0.7-0.66-3.66,0,0,1,90,false,stim,false,0,843.7000000476837,0,0,0,38099,task3,325904,false,false,296,image-keyboard-response,2
true,4,2,1,2,true,d,false,true,0.0-2.0-0.7-0.67-3.67,0,0,1,68,false,stim,false,2,1994.1000000238419,0,1,2,38099,task3,329411,false,false,299,image-keyboard-response,3
true,4,0,1,2,false,d,true,false,0.0-2.0-0.7-0.68-3.68,0,0,1,81,false,stim,false,2,1909.7000000476837,0,1,2,38099,task3,332849,false,false,302,image-keyboard-response,4
false,4,-1,1,1,false,z,true,true,0.0-2.0-0.7-0.69-3.69,0,0,1,,false,stim,false,0,,0,0,0,38099,task3,337366,false,true,305,image-keyboard-response,5
true,4,1,1,1,true,z,false,true,0.0-2.0-0.7-0.70-3.70,0,0,1,90,false,stim,false,2,870.9000000357628,0,0,1,38099,task3,339757,false,false,308,image-keyboard-response,6
true,4,1,1,1,true,z,false,true,0.0-2.0-0.7-0.71-3.71,0,0,1,90,false,stim,false,0,896.3999999761581,0,0,0,38099,task3,342174,false,false,311,image-keyboard-response,7
true,4,1,1,1,true,z,false,true,0.0-2.0-0.8-0.72-3.72,0,0,1,90,false,stim,false,2,1173.300000011921,0,0,1,38099,task3,344855,false,false,314,image-keyboard-response,8
true,4,1,1,1,true,z,false,true,0.0-2.0-0.8-0.73-3.73,0,0,1,90,false,stim,false,0,569.6000000238419,0,0,0,38099,task3,346941,false,false,317,image-keyboard-response,9
true,4,1,1,1,true,z,false,true,0.0-2.0-0.8-0.74-3.74,0,0,1,90,false,stim,false,0,581.3000000119209,0,0,0,38099,task3,349042,false,false,320,image-keyboard-response,10
true,4,1,1,1,true,z,false,true,0.0-2.0-0.8-0.75-3.75,0,0,1,90,false,stim,false,2,689.1999999880791,0,0,1,38099,task3,351257,false,false,323,image-keyboard-response,11
true,4,1,1,2,false,d,true,false,0.0-2.0-0.8-0.76-3.76,0,0,1,90,false,stim,false,2,533.0,0,1,2,38099,task3,353317,false,false,326,image-keyboard-response,12
true,4,2,1,1,false,z,false,false,0.0-2.0-0.8-0.77-3.77,0,0,1,68,false,stim,true,2,1109.0,0,0,1,38099,task3,355942,false,false,329,image-keyboard-response,13
true,4,0,1,2,false,d,true,false,0.0-2.0-0.8-0.78-3.78,0,0,1,81,false,stim,false,2,321.89999997615814,0,1,2,38099,task3,357787,false,false,332,image-keyboard-response,14
true,4,2,1,2,true,d,false,true,0.0-2.0-0.8-0.79-3.79,0,0,1,68,false,stim,false,2,972.2000000476837,0,1,2,38099,task3,360291,false,false,335,image-keyboard-response,15
true,4,2,1,1,false,z,true,true,0.0-2.0-0.8-0.80-3.80,0,0,1,68,false,stim,false,0,441.89999997615814,0,0,0,38099,task3,362245,false,true,338,image-keyboard-response,16
true,4,2,1,1,false,z,false,false,0.0-2.0-0.9-0.81-3.81,0,0,1,68,false,stim,true,2,346.7000000476837,0,0,1,38099,task3,364105,false,false,341,image-keyboard-response,17
true,4,2,1,2,true,d,false,true,0.0-2.0-0.9-0.82-3.82,0,0,1,68,false,stim,false,2,1182.3999999761581,0,1,2,38099,task3,366797,false,false,344,image-keyboard-response,18
true,4,0,1,1,false,z,true,false,0.0-2.0-0.9-0.83-3.83,0,0,1,81,false,stim,false,2,649.6999999880791,0,1,1,38099,task3,368969,false,false,347,image-keyboard-response,19
true,4,2,1,2,true,d,false,true,0.0-2.0-0.9-0.84-3.84,0,0,1,68,false,stim,false,2,628.1999999880791,0,1,2,38099,task3,371125,false,false,350,image-keyboard-response,20
true,4,0,1,1,false,z,false,false,0.0-2.0-0.9-0.85-3.85,0,0,1,81,false,stim,true,0,891.0,0,0,0,38099,task3,373537,false,false,353,image-keyboard-response,21
true,4,1,1,1,true,z,false,true,0.0-2.0-0.9-0.86-3.86,0,0,1,90,false,stim,false,2,855.7999999523163,0,1,1,38099,task3,375910,false,false,356,image-keyboard-response,22
true,4,1,1,1,true,z,false,false,0.0-2.0-0.9-0.87-3.87,0,0,1,90,false,stim,false,0,744.9000000357628,0,0,0,38099,task3,378178,false,true,359,image-keyboard-response,23
true,5,0,2,2,false,d,true,false,0.0-2.0-0.9-0.88-3.88,0,1,1,81,true,stim,false,1,560.2999999523163,0,0,0,38099,task3,380256,false,false,362,image-keyboard-response,1
true,5,2,2,2,true,d,false,true,0.0-2.0-0.9-0.89-3.89,0,1,1,68,false,stim,false,2,713.1999999880791,0,1,2,38099,task3,382483,false,false,365,image-keyboard-response,2
true,5,2,2,2,true,d,false,true,0.0-2.0-0.10-0.90-3.90,0,1,1,68,false,stim,false,2,1376.800000011921,0,1,2,38099,task3,385382,false,false,368,image-keyboard-response,3
true,5,2,2,1,false,z,true,false,0.0-2.0-0.10-0.91-3.91,0,1,1,68,false,stim,false,1,1300.800000011921,0,1,1,38099,task3,388202,false,false,371,image-keyboard-response,4
true,5,1,2,1,true,z,false,true,0.0-2.0-0.10-0.92-3.92,0,1,1,90,false,stim,false,1,1563.300000011921,0,1,1,38099,task3,391280,false,false,374,image-keyboard-response,5
true,5,0,2,2,false,d,true,false,0.0-2.0-0.10-0.93-3.93,0,1,1,81,false,stim,false,1,534.3999999761581,0,0,0,38099,task3,393333,false,false,377,image-keyboard-response,6
true,5,1,2,2,false,d,false,false,0.0-2.0-0.10-0.94-3.94,0,1,1,90,false,stim,true,1,538.6999999880791,0,0,0,38099,task3,395408,false,false,380,image-keyboard-response,7
true,5,2,2,2,true,d,false,true,0.0-2.0-0.10-0.95-3.95,0,1,1,68,false,stim,false,1,499.5999999642372,0,0,0,38099,task3,397445,false,false,383,image-keyboard-response,8
true,5,2,2,2,true,d,false,true,0.0-2.0-0.10-0.96-3.96,0,1,1,68,false,stim,false,2,655.2999999523163,0,0,2,38099,task3,399619,false,false,386,image-keyboard-response,9
true,5,2,2,2,true,d,false,true,0.0-2.0-0.10-0.97-3.97,0,1,1,68,false,stim,false,2,611.3000000119209,0,0,2,38099,task3,401763,false,false,389,image-keyboard-response,10
true,5,1,2,1,true,z,false,true,0.0-2.0-0.10-0.98-3.98,0,1,1,90,false,stim,false,1,758.5,0,1,1,38099,task3,404055,false,false,392,image-keyboard-response,11
true,5,0,2,2,false,d,true,false,0.0-2.0-0.11-0.99-3.99,0,1,1,81,false,stim,false,1,1507.0,0,1,0,38099,task3,407097,false,false,395,image-keyboard-response,12
true,5,2,2,2,true,d,false,true,0.0-2.0-0.11-0.100-3.100,0,1,1,68,false,stim,false,2,268.5,0,0,2,38099,task3,408878,false,false,398,image-keyboard-response,13
true,6,1,2,1,true,z,false,true,0.0-2.0-0.11-0.101-3.101,1,1,0,90,true,stim,false,1,1464.300000011921,0,1,1,38099,task3,411866,false,false,401,image-keyboard-response,1
true,6,1,2,1,true,z,false,true,0.0-2.0-0.11-0.102-3.102,1,1,0,90,false,stim,false,1,2288.199999988079,0,1,1,38099,task3,415690,false,false,404,image-keyboard-response,2
true,6,1,2,1,true,z,false,false,0.0-2.0-0.11-0.103-3.103,1,1,0,90,false,stim,false,2,878.4000000357628,0,0,2,38099,task3,418098,false,true,407,image-keyboard-response,3
true,6,2,2,1,false,z,true,false,0.0-2.0-0.11-0.104-3.104,1,1,0,68,false,stim,false,1,1321.300000011921,0,1,1,38099,task3,420953,false,false,410,image-keyboard-response,4
true,6,0,2,2,false,d,true,false,0.0-2.0-0.11-0.105-3.105,1,1,0,81,false,stim,false,2,453.89999997615814,0,1,0,38099,task3,422921,false,false,413,image-keyboard-response,5
true,6,2,2,1,false,z,false,false,0.0-2.0-0.11-0.106-3.106,1,1,0,68,false,stim,true,2,1027.1000000238419,0,0,2,38099,task3,425460,false,false,416,image-keyboard-response,6
true,6,1,2,2,false,d,true,false,0.0-2.0-0.11-0.107-3.107,1,1,0,90,false,stim,false,2,1338.2999999523163,0,1,0,38099,task3,428319,false,false,419,image-keyboard-response,7
true,6,2,2,2,true,d,false,true,0.0-2.0-0.12-0.108-3.108,1,1,0,68,false,stim,false,2,393.0999999642372,0,1,0,38099,task3,430234,false,false,422,image-keyboard-response,8
true,6,2,2,1,false,z,false,false,0.0-2.0-0.12-0.109-3.109,1,1,0,68,false,stim,true,2,393.0999999642372,0,0,2,38099,task3,432150,false,false,425,image-keyboard-response,9
true,6,1,2,1,true,z,false,true,0.0-2.0-0.12-0.110-3.110,1,1,0,90,false,stim,false,1,1234.800000011921,0,1,1,38099,task3,434909,false,false,428,image-keyboard-response,10
true,6,0,2,1,false,z,true,false,0.0-2.0-0.12-0.111-3.111,1,1,0,81,false,stim,false,2,2629.699999988079,0,0,2,38099,task3,439062,false,false,431,image-keyboard-response,11
true,6,0,2,1,false,z,true,false,0.0-2.0-0.12-0.112-3.112,1,1,0,81,false,stim,false,1,885.8000000119209,0,1,1,38099,task3,441485,false,false,434,image-keyboard-response,12
true,6,0,2,2,false,d,true,false,0.0-2.0-0.12-0.113-3.113,1,1,0,81,false,stim,false,2,385.69999998807907,0,1,0,38099,task3,443386,false,false,437,image-keyboard-response,13
true,6,2,2,1,false,z,false,false,0.0-2.0-0.12-0.114-3.114,1,1,0,68,false,stim,true,2,643.1000000238419,0,0,2,38099,task3,445560,false,false,440,image-keyboard-response,14
true,6,0,2,2,false,d,true,false,0.0-2.0-0.12-0.115-3.115,1,1,0,81,false,stim,false,2,957.5,0,1,0,38099,task3,448032,false,false,443,image-keyboard-response,15
true,6,1,2,1,true,z,false,true,0.0-2.0-0.12-0.116-3.116,1,1,0,90,false,stim,false,1,432.2000000476837,0,1,1,38099,task3,449991,false,false,446,image-keyboard-response,16
true,6,1,2,2,false,d,true,false,0.0-2.0-0.13-0.117-3.117,1,1,0,90,false,stim,false,2,653.5,0,1,0,38099,task3,452156,false,false,449,image-keyboard-response,17
true,6,1,2,1,true,z,false,true,0.0-2.0-0.13-0.118-3.118,1,1,0,90,false,stim,false,1,543.8000000119209,0,1,1,38099,task3,454219,false,false,452,image-keyboard-response,18
true,6,2,2,1,false,z,false,false,0.0-2.0-0.13-0.119-3.119,1,1,0,68,false,stim,true,2,1140.5,0,0,2,38099,task3,456876,false,false,455,image-keyboard-response,19
true,6,0,2,2,false,d,true,true,0.0-2.0-0.13-0.120-3.120,1,1,0,81,false,stim,false,2,1167.4000000357628,0,0,0,38099,task3,459563,false,true,458,image-keyboard-response,20
true,6,0,2,1,false,z,true,false,0.0-2.0-0.13-0.121-3.121,1,1,0,81,false,stim,false,1,884.0,0,1,1,38099,task3,461969,false,false,461,image-keyboard-response,21
true,6,2,2,1,false,z,false,false,0.0-2.0-0.13-0.122-3.122,1,1,0,68,false,stim,true,2,772.6999999880791,0,0,2,38099,task3,464273,false,false,464,image-keyboard-response,22
true,7,1,1,0,false,q,false,false,0.0-2.0-0.13-0.123-3.123,0,1,0,90,true,stim,true,1,385.80000001192093,0,0,2,38099,task3,466189,false,false,467,image-keyboard-response,1
true,7,2,1,1,false,z,true,false,0.0-2.0-0.13-0.124-3.124,0,1,0,68,false,stim,false,1,311.0,0,1,1,38099,task3,468007,false,false,470,image-keyboard-response,2
true,7,1,1,1,true,z,false,true,0.0-2.0-0.13-0.125-3.125,0,1,0,90,false,stim,false,2,679.0999999642372,0,0,0,38099,task3,470206,false,false,473,image-keyboard-response,3
true,7,0,1,1,false,z,true,false,0.0-2.0-0.14-0.126-3.126,0,1,0,81,false,stim,false,2,741.0,0,0,0,38099,task3,472476,false,false,476,image-keyboard-response,4
true,7,1,1,1,true,z,false,true,0.0-2.0-0.14-0.127-3.127,0,1,0,90,false,stim,false,2,384.0,0,0,0,38099,task3,474368,false,false,479,image-keyboard-response,5
true,7,2,1,0,false,q,true,false,0.0-2.0-0.14-0.128-3.128,0,1,0,68,false,stim,false,1,661.8000000119209,0,0,2,38099,task3,476562,false,false,482,image-keyboard-response,6
true,7,0,1,1,false,z,true,false,0.0-2.0-0.14-0.129-3.129,0,1,0,81,false,stim,false,1,1275.300000011921,0,1,1,38099,task3,479353,false,false,485,image-keyboard-response,7
true,7,1,1,1,true,z,false,false,0.0-2.0-0.14-0.130-3.130,0,1,0,90,false,stim,false,2,1126.5,0,0,0,38099,task3,482015,false,true,488,image-keyboard-response,8
true,7,2,1,0,false,q,true,false,0.0-2.0-0.14-0.131-3.131,0,1,0,68,false,stim,false,1,588.8000000119209,0,0,2,38099,task3,484124,false,false,491,image-keyboard-response,9
true,7,0,1,1,false,z,true,false,0.0-2.0-0.14-0.132-3.132,0,1,0,81,false,stim,false,1,910.3000000119209,0,1,1,38099,task3,486548,false,false,494,image-keyboard-response,10
true,7,2,1,1,false,z,true,false,0.0-2.0-0.14-0.133-3.133,0,1,0,68,false,stim,false,1,593.0,0,1,1,38099,task3,488660,false,false,497,image-keyboard-response,11
true,7,2,1,0,false,q,true,true,0.0-2.0-0.14-0.134-3.134,0,1,0,68,false,stim,false,1,936.1000000238419,0,0,2,38099,task3,491119,false,true,500,image-keyboard-response,12
true,7,2,1,1,false,z,true,false,0.0-2.0-0.15-0.135-3.135,0,1,0,68,false,stim,false,1,1065.8999999761581,0,1,1,38099,task3,493711,false,false,503,image-keyboard-response,13
true,7,0,1,1,false,z,true,false,0.0-2.0-0.15-0.136-3.136,0,1,0,81,false,stim,false,1,343.60000002384186,0,1,1,38099,task3,495565,false,false,506,image-keyboard-response,14
true,7,0,1,1,false,z,true,true,0.0-2.0-0.15-0.137-3.137,0,1,0,81,false,stim,false,2,682.3999999761581,0,0,0,38099,task3,497773,false,true,509,image-keyboard-response,15
true,7,1,1,1,true,z,false,true,0.0-2.0-0.15-0.138-3.138,0,1,0,90,false,stim,false,2,1050.0,0,0,0,38099,task3,500335,false,false,512,image-keyboard-response,16
true,7,2,1,0,false,q,true,false,0.0-2.0-0.15-0.139-3.139,0,1,0,68,false,stim,false,1,882.0,0,0,2,38099,task3,502736,false,false,515,image-keyboard-response,17
true,7,0,1,0,true,q,false,true,0.0-2.0-0.15-0.140-3.140,0,1,0,81,false,stim,false,1,1820.5,0,0,2,38099,task3,506065,false,false,518,image-keyboard-response,18
true,7,0,1,1,false,z,true,false,0.0-2.0-0.15-0.141-3.141,0,1,0,81,false,stim,false,2,834.5,0,0,0,38099,task3,508425,false,false,521,image-keyboard-response,19
true,7,0,1,0,true,q,false,true,0.0-2.0-0.15-0.142-3.142,0,1,0,81,false,stim,false,1,1229.0999999642372,0,0,2,38099,task3,511189,false,false,524,image-keyboard-response,20
true,7,0,1,1,false,z,true,false,0.0-2.0-0.15-0.143-3.143,0,1,0,81,false,stim,false,1,1449.1000000238419,0,0,1,38099,task3,514164,false,false,527,image-keyboard-response,21
true,7,0,1,1,false,z,true,false,0.0-2.0-0.16-0.144-3.144,0,1,0,81,false,stim,false,1,582.0,0,0,1,38099,task3,516262,false,false,530,image-keyboard-response,22
true,7,1,1,1,true,z,false,true,0.0-2.0-0.16-0.145-3.145,0,1,0,90,false,stim,false,1,434.5,0,0,1,38099,task3,518219,false,false,533,image-keyboard-response,23
true,7,0,1,1,false,z,true,false,0.0-2.0-0.16-0.146-3.146,0,1,0,81,false,stim,false,2,885.6000000238419,0,1,0,38099,task3,520619,false,false,536,image-keyboard-response,24
true,8,2,1,1,false,z,true,false,0.0-2.0-0.16-0.147-3.147,1,0,0,68,true,stim,false,0,957.2000000476837,0,0,2,38099,task3,523112,false,false,539,image-keyboard-response,1
true,8,2,1,2,true,d,false,true,0.0-2.0-0.16-0.148-3.148,1,0,0,68,false,stim,false,1,721.8999999761581,0,0,1,38099,task3,525360,false,false,542,image-keyboard-response,2
true,8,1,1,1,true,z,false,true,0.0-2.0-0.16-0.149-3.149,1,0,0,90,false,stim,false,1,1413.0,0,1,0,38099,task3,528282,false,false,545,image-keyboard-response,3
true,8,2,1,1,false,z,true,false,0.0-2.0-0.16-0.150-3.150,1,0,0,68,false,stim,false,1,762.8000000119209,0,1,0,38099,task3,530571,false,false,548,image-keyboard-response,4
true,8,2,1,1,false,z,true,false,0.0-2.0-0.16-0.151-3.151,1,0,0,68,false,stim,false,0,1284.4000000357628,0,0,2,38099,task3,533381,false,false,551,image-keyboard-response,5
true,8,0,1,1,false,z,false,false,0.0-2.0-0.16-0.152-3.152,1,0,0,81,false,stim,true,0,658.8999999761581,0,0,2,38099,task3,535551,false,false,554,image-keyboard-response,6
true,8,1,1,1,true,z,false,false,0.0-2.0-0.17-0.153-3.153,1,0,0,90,false,stim,false,0,622.5,0,0,2,38099,task3,537701,false,true,557,image-keyboard-response,7
true,8,0,1,1,false,z,true,false,0.0-2.0-0.17-0.154-3.154,1,0,0,81,false,stim,false,1,842.0,0,1,0,38099,task3,540074,false,false,560,image-keyboard-response,8
true,8,1,1,1,true,z,false,true,0.0-2.0-0.17-0.155-3.155,1,0,0,90,false,stim,false,1,560.3999999761581,0,1,0,38099,task3,542155,false,false,563,image-keyboard-response,9
true,8,1,1,2,false,d,false,false,0.0-2.0-0.17-0.156-3.156,1,0,0,90,false,stim,true,1,2193.699999988079,0,0,1,38099,task3,545862,false,false,566,image-keyboard-response,10
true,8,2,1,2,true,d,false,true,0.0-2.0-0.17-0.157-3.157,1,0,0,68,false,stim,false,1,706.5,0,0,1,38099,task3,548096,false,false,569,image-keyboard-response,11
true,8,2,1,2,true,d,false,true,0.0-2.0-0.17-0.158-3.158,1,0,0,68,false,stim,false,1,1335.5999999642372,0,0,1,38099,task3,550945,false,false,572,image-keyboard-response,12
true,8,0,1,1,false,z,true,false,0.0-2.0-0.17-0.159-3.159,1,0,0,81,false,stim,false,1,1424.0999999642372,0,1,0,38099,task3,553878,false,false,575,image-keyboard-response,13
true,8,2,1,1,false,z,true,false,0.0-2.0-0.17-0.160-3.160,1,0,0,68,false,stim,false,0,526.4000000357628,0,0,2,38099,task3,555921,false,false,578,image-keyboard-response,14
true,8,2,1,1,false,z,true,false,0.0-2.0-0.17-0.161-3.161,1,0,0,68,false,stim,false,0,1069.7000000476837,0,0,2,38099,task3,558508,false,false,581,image-keyboard-response,15
true,8,0,1,1,false,z,false,false,0.0-2.0-0.18-0.162-3.162,1,0,0,81,false,stim,true,0,421.30000001192093,0,0,2,38099,task3,560452,false,false,584,image-keyboard-response,16
true,8,0,1,1,false,z,true,false,0.0-2.0-0.18-0.163-3.163,1,0,0,81,false,stim,false,1,772.0999999642372,0,1,0,38099,task3,562740,false,false,587,image-keyboard-response,17
true,8,2,1,1,false,z,true,false,0.0-2.0-0.18-0.164-3.164,1,0,0,68,false,stim,false,0,571.6999999880791,0,0,2,38099,task3,564821,false,false,590,image-keyboard-response,18
true,8,0,1,1,false,z,true,false,0.0-2.0-0.18-0.165-3.165,1,0,0,81,false,stim,false,1,701.1999999880791,0,1,0,38099,task3,567043,false,false,593,image-keyboard-response,19
true,8,1,1,1,true,z,false,true,0.0-2.0-0.18-0.166-3.166,1,0,0,90,false,stim,false,0,713.0,0,0,2,38099,task3,569286,false,false,596,image-keyboard-response,20
true,8,1,1,2,false,d,false,false,0.0-2.0-0.18-0.167-3.167,1,0,0,90,false,stim,true,1,655.4000000357628,0,1,1,38099,task3,571471,false,false,599,image-keyboard-response,21
true,8,2,1,2,true,d,false,true,0.0-2.0-0.18-0.168-3.168,1,0,0,68,false,stim,false,1,1199.0,0,1,1,38099,task3,574195,false,false,602,image-keyboard-response,22
true,8,2,1,2,true,d,false,false,0.0-2.0-0.18-0.169-3.169,1,0,0,68,false,stim,false,1,1593.6000000238419,0,1,1,38099,task3,577314,false,true,605,image-keyboard-response,23
true,9,0,2,1,false,z,true,false,0.0-2.0-0.18-0.170-3.170,1,1,0,81,true,stim,false,1,642.1999999880791,0,1,0,38099,task3,579479,false,false,608,image-keyboard-response,1
true,9,1,2,2,false,d,true,false,0.0-2.0-0.19-0.171-3.171,1,1,0,90,false,stim,false,2,215.89999997615814,0,1,1,38099,task3,581208,false,false,611,image-keyboard-response,2
true,9,1,2,1,true,z,false,true,0.0-2.0-0.19-0.172-3.172,1,1,0,90,false,stim,false,1,482.10000002384186,0,1,0,38099,task3,583219,false,false,614,image-keyboard-response,3
true,9,2,2,2,true,d,false,false,0.0-2.0-0.19-0.173-3.173,1,1,0,68,false,stim,false,1,2300.099999964237,0,0,2,38099,task3,587048,false,true,617,image-keyboard-response,4
true,9,0,2,1,false,z,true,false,0.0-2.0-0.19-0.174-3.174,1,1,0,81,false,stim,false,1,588.3000000119209,0,1,0,38099,task3,589146,false,false,620,image-keyboard-response,5
true,9,2,2,2,true,d,false,true,0.0-2.0-0.19-0.175-3.175,1,1,0,68,false,stim,false,1,965.5,0,0,2,38099,task3,591645,false,false,623,image-keyboard-response,6
true,9,0,2,1,false,z,true,false,0.0-2.0-0.19-0.176-3.176,1,1,0,81,false,stim,false,1,1345.9000000357628,0,1,0,38099,task3,594515,false,false,626,image-keyboard-response,7
true,9,2,2,2,true,d,false,true,0.0-2.0-0.19-0.177-3.177,1,1,0,68,false,stim,false,2,741.3000000119209,0,1,1,38099,task3,596764,false,false,629,image-keyboard-response,8
true,9,2,2,2,true,d,false,true,0.0-2.0-0.19-0.178-3.178,1,1,0,68,false,stim,false,1,944.6999999880791,0,0,2,38099,task3,599220,false,false,632,image-keyboard-response,9
true,9,2,2,2,true,d,false,true,0.0-2.0-0.19-0.179-3.179,1,1,0,68,false,stim,false,2,398.19999998807907,0,1,1,38099,task3,601127,false,false,635,image-keyboard-response,10
true,9,2,2,2,true,d,false,false,0.0-2.0-0.20-0.180-3.180,1,1,0,68,false,stim,false,2,506.7000000476837,0,1,1,38099,task3,603165,false,true,638,image-keyboard-response,11
true,9,0,2,1,false,z,true,false,0.0-2.0-0.20-0.181-3.181,1,1,0,81,false,stim,false,1,825.1000000238419,0,1,0,38099,task3,605523,false,false,641,image-keyboard-response,12
true,9,1,2,1,true,z,false,true,0.0-2.0-0.20-0.182-3.182,1,1,0,90,false,stim,false,1,782.6000000238419,0,1,0,38099,task3,607823,false,false,644,image-keyboard-response,13
true,9,1,2,2,false,d,false,false,0.0-2.0-0.20-0.183-3.183,1,1,0,90,false,stim,true,1,383.69999998807907,0,0,2,38099,task3,609734,false,false,647,image-keyboard-response,14
true,9,1,2,1,true,z,false,true,0.0-2.0-0.20-0.184-3.184,1,1,0,90,false,stim,false,1,714.0999999642372,0,1,0,38099,task3,611974,false,false,650,image-keyboard-response,15
true,9,2,2,2,true,d,false,true,0.0-2.0-0.20-0.185-3.185,1,1,0,68,false,stim,false,2,1852.699999988079,0,1,1,38099,task3,615355,false,false,653,image-keyboard-response,16
true,9,0,2,2,false,d,true,false,0.0-2.0-0.20-0.186-3.186,1,1,0,81,false,stim,false,1,954.3999999761581,0,0,2,38099,task3,617835,false,false,656,image-keyboard-response,17
true,9,2,2,2,true,d,false,true,0.0-2.0-0.20-0.187-3.187,1,1,0,68,false,stim,false,1,676.1999999880791,0,0,2,38099,task3,620040,false,false,659,image-keyboard-response,18
true,9,1,2,2,false,d,true,false,0.0-2.0-0.20-0.188-3.188,1,1,0,90,false,stim,false,2,944.8999999761581,0,1,1,38099,task3,622497,false,false,662,image-keyboard-response,19
true,9,1,2,2,false,d,true,false,0.0-2.0-0.21-0.189-3.189,1,1,0,90,false,stim,false,2,447.5,0,1,1,38099,task3,624472,false,false,665,image-keyboard-response,20
true,9,2,2,2,true,d,false,true,0.0-2.0-0.21-0.190-3.190,1,1,0,68,false,stim,false,1,707.0999999642372,0,0,2,38099,task3,626711,false,false,668,image-keyboard-response,21
true,9,2,2,2,true,d,false,true,0.0-2.0-0.21-0.191-3.191,1,1,0,68,false,stim,false,1,755.5,0,0,2,38099,task3,628977,false,false,671,image-keyboard-response,22
true,9,0,2,1,false,z,true,true,0.0-2.0-0.21-0.192-3.192,1,1,0,81,false,stim,false,1,879.9000000357628,0,0,0,38099,task3,631396,false,true,674,image-keyboard-response,23
true,9,0,2,1,false,z,true,true,0.0-2.0-0.21-0.193-3.193,1,1,0,81,false,stim,false,1,358.7000000476837,0,0,0,38099,task3,633290,false,true,677,image-keyboard-response,24
true,9,1,2,2,false,d,true,false,0.0-2.0-0.21-0.194-3.194,1,1,0,90,false,stim,false,2,690.3000000119209,0,1,1,38099,task3,635514,false,false,680,image-keyboard-response,25
true,9,0,2,1,false,z,true,false,0.0-2.0-0.21-0.195-3.195,1,1,0,81,false,stim,false,1,744.5999999642372,0,0,0,38099,task3,637783,false,false,683,image-keyboard-response,26
true,9,2,2,2,true,d,false,true,0.0-2.0-0.21-0.196-3.196,1,1,0,68,false,stim,false,1,778.1999999880791,0,0,2,38099,task3,640084,false,false,686,image-keyboard-response,27
true,10,2,1,2,true,d,false,true,0.0-2.0-0.21-0.197-3.197,0,1,0,68,true,stim,false,2,736.3999999761581,0,1,1,38099,task3,642355,false,false,689,image-keyboard-response,1
true,10,0,1,2,false,d,true,false,0.0-2.0-0.22-0.198-3.198,0,1,0,81,false,stim,false,1,1007.5,0,0,0,38099,task3,644871,false,false,692,image-keyboard-response,2
true,10,2,1,2,true,d,false,false,0.0-2.0-0.22-0.199-3.199,0,1,0,68,false,stim,false,2,758.5999999642372,0,1,1,38099,task3,647150,false,true,695,image-keyboard-response,3
true,10,1,1,2,false,d,false,false,0.0-2.0-0.22-0.200-3.200,0,1,0,90,false,stim,true,1,474.19999998807907,0,0,0,38099,task3,649143,false,false,698,image-keyboard-response,4
true,10,2,1,1,false,z,false,false,0.0-2.0-0.22-0.201-3.201,0,1,0,68,false,stim,true,2,674.0,0,0,2,38099,task3,651350,false,false,701,image-keyboard-response,5
true,10,2,1,1,false,z,false,false,0.0-2.0-0.22-0.202-3.202,0,1,0,68,false,stim,true,2,741.1000000238419,0,0,2,38099,task3,653604,false,false,704,image-keyboard-response,6
true,10,0,1,2,false,d,true,false,0.0-2.0-0.22-0.203-3.203,0,1,0,81,false,stim,false,1,765.1999999880791,0,0,0,38099,task3,655899,false,false,707,image-keyboard-response,7
true,10,1,1,2,false,d,true,false,0.0-2.0-0.22-0.204-3.204,0,1,0,90,false,stim,false,2,340.2000000476837,0,1,1,38099,task3,657773,false,false,710,image-keyboard-response,8
true,10,2,1,2,true,d,false,true,0.0-2.0-0.22-0.205-3.205,0,1,0,68,false,stim,false,2,283.60000002384186,0,1,1,38099,task3,659576,false,false,713,image-keyboard-response,9
true,10,2,1,1,false,z,false,false,0.0-2.0-0.22-0.206-3.206,0,1,0,68,false,stim,true,2,1835.2999999523163,0,1,2,38099,task3,662921,false,false,716,image-keyboard-response,10
false,10,-1,1,2,false,d,true,true,0.0-2.0-0.23-0.207-3.207,0,1,0,,false,stim,false,2,,0,0,1,38099,task3,667444,false,true,719,image-keyboard-response,11
true,10,2,1,1,false,z,false,false,0.0-2.0-0.23-0.208-3.208,0,1,0,68,false,stim,true,2,835.3000000119209,0,1,2,38099,task3,669811,false,false,722,image-keyboard-response,12
true,10,0,1,1,false,z,true,false,0.0-2.0-0.23-0.209-3.209,0,1,0,81,false,stim,false,2,427.0999999642372,0,1,2,38099,task3,671774,false,false,725,image-keyboard-response,13
true,10,1,1,1,true,z,false,true,0.0-2.0-0.23-0.210-3.210,0,1,0,90,false,stim,false,2,391.60000002384186,0,1,2,38099,task3,673676,false,false,728,image-keyboard-response,14
true,11,2,2,0,false,q,false,false,0.0-2.0-0.23-0.211-3.211,1,0,1,68,true,stim,true,2,1417.7999999523163,0,0,1,38099,task3,676625,false,false,731,image-keyboard-response,1
true,11,0,2,0,true,q,false,true,0.0-2.0-0.23-0.212-3.212,1,0,1,81,false,stim,false,2,350.69999998807907,0,0,1,38099,task3,678497,false,false,734,image-keyboard-response,2
true,11,1,2,2,false,d,true,false,0.0-2.0-0.23-0.213-3.213,1,0,1,90,false,stim,false,2,957.5999999642372,0,1,0,38099,task3,680990,false,false,737,image-keyboard-response,3
true,11,1,2,2,false,d,true,false,0.0-2.0-0.23-0.214-3.214,1,0,1,90,false,stim,false,2,615.7999999523163,0,1,0,38099,task3,683131,false,false,740,image-keyboard-response,4
true,11,2,2,2,true,d,false,true,0.0-2.0-0.23-0.215-3.215,1,0,1,68,false,stim,false,2,500.89999997615814,0,1,0,38099,task3,685156,false,false,743,image-keyboard-response,5
true,11,0,2,0,true,q,false,true,0.0-2.0-0.24-0.216-3.216,1,0,1,81,false,stim,false,2,943.7999999523163,0,0,1,38099,task3,687615,false,false,746,image-keyboard-response,6
true,11,0,2,0,true,q,false,true,0.0-2.0-0.24-0.217-3.217,1,0,1,81,false,stim,false,2,532.0,0,0,1,38099,task3,689669,false,false,749,image-keyboard-response,7
false,11,-1,2,2,false,d,true,false,0.0-2.0-0.24-0.218-3.218,1,0,1,,false,stim,false,2,,0,1,0,38099,task3,694200,false,false,752,image-keyboard-response,8
true,11,2,2,2,true,d,false,true,0.0-2.0-0.24-0.219-3.219,1,0,1,68,false,stim,false,2,539.0,0,1,0,38099,task3,696258,false,false,755,image-keyboard-response,9
true,11,0,2,0,true,q,false,true,0.0-2.0-0.24-0.220-3.220,1,0,1,81,false,stim,false,2,2099.399999976158,0,1,1,38099,task3,699886,false,false,758,image-keyboard-response,10
true,11,2,2,1,false,z,true,false,0.0-2.0-0.24-0.221-3.221,1,0,1,68,false,stim,false,1,993.3999999761581,0,0,2,38099,task3,702395,false,false,761,image-keyboard-response,11
true,11,0,2,2,false,d,true,false,0.0-2.0-0.24-0.222-3.222,1,0,1,81,false,stim,false,2,703.3000000119209,0,1,0,38099,task3,704611,false,false,764,image-keyboard-response,12
true,11,2,2,1,false,z,true,false,0.0-2.0-0.24-0.223-3.223,1,0,1,68,false,stim,false,1,829.1000000238419,0,0,2,38099,task3,706956,false,false,767,image-keyboard-response,13
true,11,1,2,1,true,z,false,false,0.0-2.0-0.24-0.224-3.224,1,0,1,90,false,stim,false,1,581.2999999523163,0,0,2,38099,task3,709069,false,true,770,image-keyboard-response,14
true,12,0,2,2,false,d,true,false,0.0-2.0-0.25-0.225-3.225,1,1,0,81,true,stim,false,2,533.5,0,1,0,38099,task3,711113,false,false,773,image-keyboard-response,1
true,12,1,2,2,false,d,true,false,0.0-2.0-0.25-0.226-3.226,1,1,0,90,false,stim,false,2,502.69999998807907,0,1,0,38099,task3,713124,false,false,776,image-keyboard-response,2
true,12,2,2,2,true,d,false,true,0.0-2.0-0.25-0.227-3.227,1,1,0,68,false,stim,false,2,322.30000001192093,0,1,0,38099,task3,714956,false,false,779,image-keyboard-response,3
true,12,0,2,0,true,q,false,false,0.0-2.0-0.25-0.228-3.228,1,1,0,81,false,stim,false,0,929.8999999761581,0,1,1,38099,task3,717419,false,true,782,image-keyboard-response,4
true,12,1,2,0,false,q,true,false,0.0-2.0-0.25-0.229-3.229,1,1,0,90,false,stim,false,0,620.6999999880791,0,1,1,38099,task3,719571,false,false,785,image-keyboard-response,5
true,12,2,2,0,false,q,true,false,0.0-2.0-0.25-0.230-3.230,1,1,0,68,false,stim,false,1,413.0,0,0,2,38099,task3,721503,false,false,788,image-keyboard-response,6
true,12,2,2,0,false,q,true,false,0.0-2.0-0.25-0.231-3.231,1,1,0,68,false,stim,false,0,894.8999999761581,0,1,1,38099,task3,723923,false,false,791,image-keyboard-response,7
true,12,1,2,0,false,q,false,false,0.0-2.0-0.25-0.232-3.232,1,1,0,90,false,stim,true,1,949.9000000357628,0,0,2,38099,task3,726388,false,false,794,image-keyboard-response,8
true,12,0,2,0,true,q,false,true,0.0-2.0-0.25-0.233-3.233,1,1,0,81,false,stim,false,1,301.60000002384186,0,0,2,38099,task3,728222,false,false,797,image-keyboard-response,9
true,12,1,2,0,false,q,true,false,0.0-2.0-0.26-0.234-3.234,1,1,0,90,false,stim,false,0,1091.7000000476837,0,1,1,38099,task3,730836,false,false,800,image-keyboard-response,10
true,12,2,2,0,false,q,true,false,0.0-2.0-0.26-0.235-3.235,1,1,0,68,false,stim,false,1,266.30000001192093,0,0,2,38099,task3,732635,false,false,803,image-keyboard-response,11
true,12,0,2,0,true,q,false,true,0.0-2.0-0.26-0.236-3.236,1,1,0,81,false,stim,false,0,892.4000000357628,0,1,1,38099,task3,735049,false,false,806,image-keyboard-response,12
true,12,1,2,2,false,d,true,false,0.0-2.0-0.26-0.237-3.237,1,1,0,90,false,stim,false,2,727.1000000238419,0,1,0,38099,task3,737292,false,false,809,image-keyboard-response,13
true,12,0,2,0,true,q,false,true,0.0-2.0-0.26-0.238-3.238,1,1,0,81,false,stim,false,0,959.0999999642372,0,1,1,38099,task3,739779,false,false,812,image-keyboard-response,14
true,12,2,2,0,false,q,true,true,0.0-2.0-0.26-0.239-3.239,1,1,0,68,false,stim,false,1,693.5,0,0,2,38099,task3,741988,false,true,815,image-keyboard-response,15
true,12,1,2,2,false,d,true,false,0.0-2.0-0.26-0.240-3.240,1,1,0,90,false,stim,false,2,422.9000000357628,0,1,0,38099,task3,743934,false,false,818,image-keyboard-response,16
true,12,0,2,2,false,d,true,false,0.0-2.0-0.26-0.241-3.241,1,1,0,81,false,stim,false,2,620.5,0,1,0,38099,task3,746079,false,false,821,image-keyboard-response,17
true,12,1,2,0,false,q,false,false,0.0-2.0-0.26-0.242-3.242,1,1,0,90,false,stim,true,1,358.19999998807907,0,0,2,38099,task3,747972,false,false,824,image-keyboard-response,18
true,12,2,2,0,false,q,true,false,0.0-2.0-0.27-0.243-3.243,1,1,0,68,false,stim,false,0,409.10000002384186,0,1,1,38099,task3,749896,false,false,827,image-keyboard-response,19
true,12,0,2,0,true,q,false,true,0.0-2.0-0.27-0.244-3.244,1,1,0,81,false,stim,false,1,743.1999999880791,0,0,2,38099,task3,752151,false,false,830,image-keyboard-response,20
true,12,1,2,2,false,d,true,false,0.0-2.0-0.27-0.245-3.245,1,1,0,90,false,stim,false,2,1253.699999988079,0,0,0,38099,task3,754924,false,false,833,image-keyboard-response,21
true,12,2,2,0,false,q,true,false,0.0-2.0-0.27-0.246-3.246,1,1,0,68,false,stim,false,1,374.80000001192093,0,0,2,38099,task3,756824,false,false,836,image-keyboard-response,22
true,13,0,1,1,false,z,true,false,0.0-2.0-0.27-0.247-3.247,0,1,0,81,true,stim,false,2,246.79999995231628,0,0,0,38099,task3,758581,false,false,839,image-keyboard-response,1
true,13,1,1,0,false,q,true,false,0.0-2.0-0.27-0.248-3.248,0,1,0,90,false,stim,false,0,939.8999999761581,0,1,1,38099,task3,761035,false,false,842,image-keyboard-response,2
true,13,2,1,1,false,z,true,false,0.0-2.0-0.27-0.249-3.249,0,1,0,68,false,stim,false,0,906.6000000238419,0,0,2,38099,task3,763469,false,false,845,image-keyboard-response,3
true,13,2,1,0,false,q,true,true,0.0-2.0-0.27-0.250-3.250,0,1,0,68,false,stim,false,0,579.5,0,1,1,38099,task3,765578,false,true,848,image-keyboard-response,4
true,13,0,1,1,false,z,true,false,0.0-2.0-0.27-0.251-3.251,0,1,0,81,false,stim,false,2,1750.5999999642372,0,0,0,38099,task3,768839,false,false,851,image-keyboard-response,5
true,13,2,1,1,false,z,true,false,0.0-2.0-0.28-0.252-3.252,0,1,0,68,false,stim,false,0,724.2000000476837,0,0,2,38099,task3,771097,false,false,854,image-keyboard-response,6
true,13,2,1,0,false,q,true,false,0.0-2.0-0.28-0.253-3.253,0,1,0,68,false,stim,false,0,541.0,0,1,1,38099,task3,773173,false,false,857,image-keyboard-response,7
true,13,1,1,0,false,q,true,false,0.0-2.0-0.28-0.254-3.254,0,1,0,90,false,stim,false,0,817.7000000476837,0,1,1,38099,task3,775527,false,false,860,image-keyboard-response,8
true,13,1,1,1,true,z,false,true,0.0-2.0-0.28-0.255-3.255,0,1,0,90,false,stim,false,2,529.3999999761581,0,0,0,38099,task3,777580,false,false,863,image-keyboard-response,9
true,13,2,1,1,false,z,true,false,0.0-2.0-0.28-0.256-3.256,0,1,0,68,false,stim,false,0,911.7999999523163,0,0,2,38099,task3,780011,false,false,866,image-keyboard-response,10
true,13,1,1,1,true,z,false,true,0.0-2.0-0.28-0.257-3.257,0,1,0,90,false,stim,false,2,870.5,0,0,0,38099,task3,782392,false,false,869,image-keyboard-response,11
true,13,0,1,0,true,q,false,true,0.0-2.0-0.28-0.258-3.258,0,1,0,81,false,stim,false,0,1255.9000000357628,0,1,1,38099,task3,785163,false,false,872,image-keyboard-response,12
true,13,2,1,1,false,z,true,false,0.0-2.0-0.28-0.259-3.259,0,1,0,68,false,stim,false,0,696.3000000119209,0,0,2,38099,task3,787380,false,false,875,image-keyboard-response,13
true,13,2,1,1,false,z,false,false,0.0-2.0-0.28-0.260-3.260,0,1,0,68,false,stim,true,2,655.6999999880791,0,0,0,38099,task3,789554,false,false,878,image-keyboard-response,14
true,13,2,1,1,false,z,true,false,0.0-2.0-0.29-0.261-3.261,0,1,0,68,false,stim,false,0,475.5,0,0,2,38099,task3,791558,false,false,881,image-keyboard-response,15
true,13,0,1,0,true,q,false,true,0.0-2.0-0.29-0.262-3.262,0,1,0,81,false,stim,false,0,559.0999999642372,0,1,1,38099,task3,793640,false,false,884,image-keyboard-response,16
true,13,2,1,1,false,z,true,false,0.0-2.0-0.29-0.263-3.263,0,1,0,68,false,stim,false,0,1401.800000011921,0,0,2,38099,task3,796560,false,false,887,image-keyboard-response,17
true,13,1,1,1,true,z,false,false,0.0-2.0-0.29-0.264-3.264,0,1,0,90,false,stim,false,0,701.6000000238419,0,0,2,38099,task3,798786,false,true,890,image-keyboard-response,18
true,13,0,1,0,true,q,false,true,0.0-2.0-0.29-0.265-3.265,0,1,0,81,false,stim,false,0,269.4000000357628,0,1,1,38099,task3,800584,false,false,893,image-keyboard-response,19
true,13,1,1,1,true,z,false,true,0.0-2.0-0.29-0.266-3.266,0,1,0,90,false,stim,false,2,1040.8999999761581,0,0,0,38099,task3,803161,false,false,896,image-keyboard-response,20
true,13,2,1,0,false,q,true,false,0.0-2.0-0.29-0.267-3.267,0,1,0,68,false,stim,false,0,1487.5,0,1,1,38099,task3,806179,false,false,899,image-keyboard-response,21
true,13,2,1,1,false,z,false,false,0.0-2.0-0.29-0.268-3.268,0,1,0,68,false,stim,true,2,555.6999999880791,0,0,0,38099,task3,808265,false,false,902,image-keyboard-response,22
true,13,0,1,1,false,z,true,false,0.0-2.0-0.29-0.269-3.269,0,1,0,81,false,stim,false,2,425.0,0,1,0,38099,task3,810226,false,false,905,image-keyboard-response,23
true,13,2,1,1,false,z,true,false,0.0-2.0-0.30-0.270-3.270,0,1,0,68,false,stim,false,0,757.1000000238419,0,0,2,38099,task3,812507,false,false,908,image-keyboard-response,24
true,13,0,1,0,true,q,false,true,0.0-2.0-0.30-0.271-3.271,0,1,0,81,false,stim,false,0,531.5999999642372,0,1,1,38099,task3,814575,false,false,911,image-keyboard-response,25
true,13,1,1,1,true,z,false,true,0.0-2.0-0.30-0.272-3.272,0,1,0,90,false,stim,false,2,810.8999999761581,0,1,0,38099,task3,816898,false,false,914,image-keyboard-response,26
true,13,2,1,0,false,q,true,true,0.0-2.0-0.30-0.273-3.273,0,1,0,68,false,stim,false,0,812.8999999761581,0,1,1,38099,task3,819235,false,true,917,image-keyboard-response,27
true,14,2,2,2,true,d,false,true,0.0-2.0-0.30-0.274-3.274,1,1,0,68,true,stim,false,1,790.6000000238419,0,0,2,38099,task3,821550,false,false,920,image-keyboard-response,1
true,14,2,2,1,false,z,true,false,0.0-2.0-0.30-0.275-3.275,1,1,0,68,false,stim,false,1,1431.3999999761581,0,1,0,38099,task3,824517,false,false,923,image-keyboard-response,2
true,14,1,2,1,true,z,false,true,0.0-2.0-0.30-0.276-3.276,1,1,0,90,false,stim,false,1,955.8999999761581,0,1,0,38099,task3,827001,false,false,926,image-keyboard-response,3
true,14,2,2,2,true,d,false,true,0.0-2.0-0.30-0.277-3.277,1,1,0,68,false,stim,false,1,837.3000000119209,0,0,2,38099,task3,829349,false,false,929,image-keyboard-response,4
true,14,2,2,0,false,q,true,true,0.0-2.0-0.30-0.278-3.278,1,1,0,68,false,stim,false,0,680.6999999880791,0,1,1,38099,task3,831563,false,true,932,image-keyboard-response,5
true,14,2,2,2,true,d,false,false,0.0-2.0-0.31-0.279-3.279,1,1,0,68,false,stim,false,1,1061.9000000357628,0,0,2,38099,task3,834159,false,true,935,image-keyboard-response,6
true,14,2,2,0,false,q,true,false,0.0-2.0-0.31-0.280-3.280,1,1,0,68,false,stim,false,0,915.1999999880791,0,1,1,38099,task3,836597,false,false,938,image-keyboard-response,7
true,14,1,2,1,true,z,false,true,0.0-2.0-0.31-0.281-3.281,1,1,0,90,false,stim,false,1,358.89999997615814,0,1,0,38099,task3,838492,false,false,941,image-keyboard-response,8
true,14,1,2,1,true,z,false,true,0.0-2.0-0.31-0.282-3.282,1,1,0,90,false,stim,false,1,718.8000000119209,0,1,0,38099,task3,840723,false,false,944,image-keyboard-response,9
true,14,1,2,1,true,z,false,true,0.0-2.0-0.31-0.283-3.283,1,1,0,90,false,stim,false,1,1173.0,0,1,0,38099,task3,843430,false,false,947,image-keyboard-response,10
true,14,0,2,2,false,d,true,false,0.0-2.0-0.31-0.284-3.284,1,1,0,81,false,stim,false,1,1193.300000011921,0,0,2,38099,task3,846140,false,false,950,image-keyboard-response,11
true,14,2,2,2,true,d,false,true,0.0-2.0-0.31-0.285-3.285,1,1,0,68,false,stim,false,1,402.0,0,0,2,38099,task3,848066,false,false,953,image-keyboard-response,12
true,14,2,2,0,false,q,true,false,0.0-2.0-0.31-0.286-3.286,1,1,0,68,false,stim,false,0,429.0,0,1,1,38099,task3,850023,false,false,956,image-keyboard-response,13
true,14,1,2,0,false,q,true,false,0.0-2.0-0.31-0.287-3.287,1,1,0,90,false,stim,false,0,586.0999999642372,0,1,1,38099,task3,852129,false,false,959,image-keyboard-response,14
true,14,0,2,0,true,q,false,true,0.0-2.0-0.32-0.288-3.288,1,1,0,81,false,stim,false,0,699.5,0,1,1,38099,task3,854358,false,false,962,image-keyboard-response,15
true,14,2,2,2,true,d,false,true,0.0-2.0-0.32-0.289-3.289,1,1,0,68,false,stim,false,1,692.3999999761581,0,0,2,38099,task3,856567,false,false,965,image-keyboard-response,16
true,14,0,2,1,false,z,true,false,0.0-2.0-0.32-0.290-3.290,1,1,0,81,false,stim,false,1,1908.0,0,1,0,38099,task3,859986,false,false,968,image-keyboard-response,17
true,14,2,2,2,true,d,false,false,0.0-2.0-0.32-0.291-3.291,1,1,0,68,false,stim,false,1,860.8999999761581,0,0,2,38099,task3,862360,false,true,971,image-keyboard-response,18
true,14,2,2,2,true,d,false,true,0.0-2.0-0.32-0.292-3.292,1,1,0,68,false,stim,false,1,866.8999999761581,0,0,2,38099,task3,864740,false,false,974,image-keyboard-response,19
true,14,1,2,0,false,q,true,true,0.0-2.0-0.32-0.293-3.293,1,1,0,90,false,stim,false,0,758.0,0,1,1,38099,task3,867020,false,true,977,image-keyboard-response,20
true,14,0,2,1,false,z,true,false,0.0-2.0-0.32-0.294-3.294,1,1,0,81,false,stim,false,1,935.1000000238419,0,1,0,38099,task3,869476,false,false,980,image-keyboard-response,21
true,14,1,2,1,true,z,false,true,0.0-2.0-0.32-0.295-3.295,1,1,0,90,false,stim,false,1,841.1999999880791,0,1,0,38099,task3,871846,false,false,983,image-keyboard-response,22
true,14,1,2,0,false,q,true,false,0.0-2.0-0.32-0.296-3.296,1,1,0,90,false,stim,false,0,1351.800000011921,0,0,1,38099,task3,874712,false,false,986,image-keyboard-response,23
true,14,2,2,2,true,d,false,true,0.0-2.0-0.33-0.297-3.297,1,1,0,68,false,stim,false,1,782.1999999880791,0,0,2,38099,task3,877021,false,false,989,image-keyboard-response,24
true,14,2,2,2,true,d,false,false,0.0-2.0-0.33-0.298-3.298,1,1,0,68,false,stim,false,1,542.7999999523163,0,0,2,38099,task3,879076,false,true,992,image-keyboard-response,25
true,14,0,2,1,false,z,true,false,0.0-2.0-0.33-0.299-3.299,1,1,0,81,false,stim,false,1,658.0999999642372,0,1,0,38099,task3,881265,false,false,995,image-keyboard-response,26
true,14,1,2,0,false,q,true,false,0.0-2.0-0.33-0.300-3.300,1,1,0,90,false,stim,false,0,1448.199999988079,0,0,1,38099,task3,884240,false,false,998,image-keyboard-response,27
true,15,2,1,0,false,q,false,false,0.0-2.0-0.33-0.301-3.301,1,0,0,68,true,stim,true,2,891.0,0,0,2,38099,task3,886678,false,false,1001,image-keyboard-response,1
true,15,2,1,2,true,d,false,true,0.0-2.0-0.33-0.302-3.302,1,0,0,68,false,stim,false,0,505.89999997615814,0,0,1,38099,task3,888706,false,false,1004,image-keyboard-response,2
true,15,2,1,1,false,z,true,false,0.0-2.0-0.33-0.303-3.303,1,0,0,68,false,stim,false,1,549.5,0,1,0,38099,task3,890776,false,false,1007,image-keyboard-response,3
false,15,-1,1,2,false,d,true,false,0.0-2.0-0.33-0.304-3.304,1,0,0,,false,stim,false,0,,0,0,1,38099,task3,895315,false,false,1010,image-keyboard-response,4
true,15,0,1,1,false,z,true,false,0.0-2.0-0.33-0.305-3.305,1,0,0,81,false,stim,false,1,443.4000000357628,0,1,0,38099,task3,897287,false,false,1013,image-keyboard-response,5
true,15,0,1,1,false,z,true,false,0.0-2.0-0.34-0.306-3.306,1,0,0,81,false,stim,false,1,392.19999998807907,0,1,0,38099,task3,899213,false,false,1016,image-keyboard-response,6
true,15,1,1,2,false,d,true,false,0.0-2.0-0.34-0.307-3.307,1,0,0,90,false,stim,false,0,589.5,0,0,1,38099,task3,901327,false,false,1019,image-keyboard-response,7
true,15,1,1,1,true,z,false,true,0.0-2.0-0.34-0.308-3.308,1,0,0,90,false,stim,false,1,415.19999998807907,0,1,0,38099,task3,903277,false,false,1022,image-keyboard-response,8
true,15,2,1,0,false,q,false,false,0.0-2.0-0.34-0.309-3.309,1,0,0,68,false,stim,true,2,1118.4000000357628,0,0,2,38099,task3,905916,false,false,1025,image-keyboard-response,9
true,15,1,1,1,true,z,false,true,0.0-2.0-0.34-0.310-3.310,1,0,0,90,false,stim,false,1,645.5,0,1,0,38099,task3,908097,false,false,1028,image-keyboard-response,10
true,15,1,1,2,false,d,true,false,0.0-2.0-0.34-0.311-3.311,1,0,0,90,false,stim,false,0,899.0,0,0,1,38099,task3,910506,false,false,1031,image-keyboard-response,11
true,15,1,1,0,false,q,true,false,0.0-2.0-0.34-0.312-3.312,1,0,0,90,false,stim,false,2,408.10000002384186,0,0,2,38099,task3,912448,false,false,1034,image-keyboard-response,12
true,15,1,1,2,false,d,true,false,0.0-2.0-0.34-0.313-3.313,1,0,0,90,false,stim,false,0,442.69999998807907,0,0,1,38099,task3,914416,false,false,1037,image-keyboard-response,13
true,15,1,1,0,false,q,true,false,0.0-2.0-0.34-0.314-3.314,1,0,0,90,false,stim,false,2,304.10000002384186,0,0,2,38099,task3,916255,false,false,1040,image-keyboard-response,14
true,15,1,1,2,false,d,true,false,0.0-2.0-0.35-0.315-3.315,1,0,0,90,false,stim,false,0,606.2999999523163,0,0,1,38099,task3,918371,false,false,1043,image-keyboard-response,15
true,15,0,1,0,true,q,false,true,0.0-2.0-0.35-0.316-3.316,1,0,0,81,false,stim,false,2,272.0999999642372,0,0,2,38099,task3,920178,false,false,1046,image-keyboard-response,16
true,15,0,1,2,false,d,false,false,0.0-2.0-0.35-0.317-3.317,1,0,0,81,false,stim,true,0,346.10000002384186,0,0,1,38099,task3,922044,false,false,1049,image-keyboard-response,17
true,15,2,1,2,true,d,false,true,0.0-2.0-0.35-0.318-3.318,1,0,0,68,false,stim,false,0,649.6000000238419,0,0,1,38099,task3,924219,false,false,1052,image-keyboard-response,18
true,15,2,1,0,false,q,false,false,0.0-2.0-0.35-0.319-3.319,1,0,0,68,false,stim,true,2,860.1999999880791,0,1,2,38099,task3,926615,false,false,1055,image-keyboard-response,19
true,15,1,1,1,true,z,false,true,0.0-2.0-0.35-0.320-3.320,1,0,0,90,false,stim,false,1,661.1999999880791,0,1,0,38099,task3,928802,false,false,1058,image-keyboard-response,20
true,15,0,1,1,false,z,true,false,0.0-2.0-0.35-0.321-3.321,1,0,0,81,false,stim,false,1,441.0999999642372,0,1,0,38099,task3,930751,false,false,1061,image-keyboard-response,21
true,15,0,1,1,false,z,true,false,0.0-2.0-0.35-0.322-3.322,1,0,0,81,false,stim,false,1,347.30000001192093,0,1,0,38099,task3,932625,false,false,1064,image-keyboard-response,22
true,15,0,1,0,true,q,false,true,0.0-2.0-0.35-0.323-3.323,1,0,0,81,false,stim,false,2,360.4000000357628,0,1,2,38099,task3,934510,false,false,1067,image-keyboard-response,23
true,16,0,2,0,true,q,false,true,0.0-2.0-0.36-0.324-3.324,1,0,1,81,true,stim,false,0,980.8999999761581,0,1,2,38099,task3,937004,false,false,1070,image-keyboard-response,1
true,16,0,2,1,false,z,true,false,0.0-2.0-0.36-0.325-3.325,1,0,1,81,false,stim,false,1,504.5,0,1,0,38099,task3,939024,false,false,1073,image-keyboard-response,2
true,16,0,2,0,true,q,false,true,0.0-2.0-0.36-0.326-3.326,1,0,1,81,false,stim,false,2,855.9000000357628,0,0,1,38099,task3,941419,false,false,1076,image-keyboard-response,3
true,16,0,2,0,true,q,false,true,0.0-2.0-0.36-0.327-3.327,1,0,1,81,false,stim,false,2,622.8999999761581,0,0,1,38099,task3,943577,false,false,1079,image-keyboard-response,4
true,16,1,2,1,true,z,false,true,0.0-2.0-0.36-0.328-3.328,1,0,1,90,false,stim,false,1,968.8999999761581,0,1,0,38099,task3,946076,false,false,1082,image-keyboard-response,5
true,16,1,2,1,true,z,false,true,0.0-2.0-0.36-0.329-3.329,1,0,1,90,false,stim,false,1,490.80000001192093,0,1,0,38099,task3,948094,false,false,1085,image-keyboard-response,6
true,16,2,2,0,false,q,true,false,0.0-2.0-0.36-0.330-3.330,1,0,1,68,false,stim,false,0,769.5999999642372,0,1,2,38099,task3,950384,false,false,1088,image-keyboard-response,7
true,16,1,2,0,false,q,true,false,0.0-2.0-0.36-0.331-3.331,1,0,1,90,false,stim,false,0,475.60000002384186,0,1,2,38099,task3,952388,false,false,1091,image-keyboard-response,8
true,16,0,2,0,true,q,false,false,0.0-2.0-0.36-0.332-3.332,1,0,1,81,false,stim,false,2,609.1999999880791,0,0,1,38099,task3,954506,false,true,1094,image-keyboard-response,9
true,16,0,2,0,true,q,false,true,0.0-2.0-0.37-0.333-3.333,1,0,1,81,false,stim,false,2,377.0,0,0,1,38099,task3,956398,false,false,1097,image-keyboard-response,10
true,16,1,2,1,true,z,false,true,0.0-2.0-0.37-0.334-3.334,1,0,1,90,false,stim,false,1,1006.0,0,1,0,38099,task3,958929,false,false,1100,image-keyboard-response,11
true,16,2,2,0,false,q,true,false,0.0-2.0-0.37-0.335-3.335,1,0,1,68,false,stim,false,0,985.1999999880791,0,1,2,38099,task3,961453,false,false,1103,image-keyboard-response,12
true,16,2,2,0,false,q,true,false,0.0-2.0-0.37-0.336-3.336,1,0,1,68,false,stim,false,0,592.6999999880791,0,1,2,38099,task3,963578,false,false,1106,image-keyboard-response,13
true,16,1,2,1,true,z,false,false,0.0-2.0-0.37-0.337-3.337,1,0,1,90,false,stim,false,1,284.10000002384186,0,1,0,38099,task3,965389,false,true,1109,image-keyboard-response,14
true,16,0,2,0,true,q,false,true,0.0-2.0-0.37-0.338-3.338,1,0,1,81,false,stim,false,2,730.9000000357628,0,0,1,38099,task3,967661,false,false,1112,image-keyboard-response,15
true,16,0,2,0,true,q,false,true,0.0-2.0-0.37-0.339-3.339,1,0,1,81,false,stim,false,2,2094.800000011921,0,0,1,38099,task3,971271,false,false,1115,image-keyboard-response,16
true,16,0,2,1,false,z,true,false,0.0-2.0-0.37-0.340-3.340,1,0,1,81,false,stim,false,1,535.2000000476837,0,1,0,38099,task3,973327,false,false,1118,image-keyboard-response,17
true,16,2,2,0,false,q,true,false,0.0-2.0-0.37-0.341-3.341,1,0,1,68,false,stim,false,0,1480.5999999642372,0,1,2,38099,task3,976320,false,false,1121,image-keyboard-response,18
true,16,0,2,0,true,q,false,false,0.0-2.0-0.38-0.342-3.342,1,0,1,81,false,stim,false,2,759.1999999880791,0,0,1,38099,task3,978613,false,true,1124,image-keyboard-response,19
true,16,1,2,0,false,q,true,false,0.0-2.0-0.38-0.343-3.343,1,0,1,90,false,stim,false,2,714.3000000119209,0,0,1,38099,task3,980856,false,false,1127,image-keyboard-response,20
true,16,2,2,0,false,q,true,false,0.0-2.0-0.38-0.344-3.344,1,0,1,68,false,stim,false,0,764.0,0,1,2,38099,task3,983155,false,false,1130,image-keyboard-response,21
true,16,0,2,0,true,q,false,true,0.0-2.0-0.38-0.345-3.345,1,0,1,81,false,stim,false,0,1788.300000011921,0,1,2,38099,task3,986474,false,false,1133,image-keyboard-response,22
true,16,0,2,0,true,q,false,true,0.0-2.0-0.38-0.346-3.346,1,0,1,81,false,stim,false,2,1328.9000000357628,0,0,1,38099,task3,989334,false,false,1136,image-keyboard-response,23
true,16,1,2,1,true,z,false,false,0.0-2.0-0.38-0.347-3.347,1,0,1,90,false,stim,false,1,852.8000000119209,0,0,0,38099,task3,991718,false,true,1139,image-keyboard-response,24
true,17,0,1,2,false,d,true,false,0.0-2.0-0.38-0.348-3.348,0,0,1,81,true,stim,false,1,436.60000002384186,0,0,0,38099,task3,993678,false,false,1142,image-keyboard-response,1
true,17,1,1,0,false,q,true,false,0.0-2.0-0.38-0.349-3.349,0,0,1,90,false,stim,false,0,1125.0,0,1,2,38099,task3,996334,false,false,1145,image-keyboard-response,2
true,17,1,1,2,false,d,false,false,0.0-2.0-0.38-0.350-3.350,0,0,1,90,false,stim,true,1,429.7999999523163,0,0,0,38099,task3,998279,false,false,1148,image-keyboard-response,3
true,17,1,1,2,false,d,false,false,0.0-2.0-0.39-0.351-3.351,0,0,1,90,false,stim,true,1,495.30000001192093,0,0,0,38099,task3,1000310,false,false,1151,image-keyboard-response,4
true,17,0,1,2,false,d,false,false,0.0-2.0-0.39-0.352-3.352,0,0,1,81,false,stim,true,0,313.0,0,0,1,38099,task3,1002151,false,false,1154,image-keyboard-response,5
true,17,2,1,0,false,q,true,false,0.0-2.0-0.39-0.353-3.353,0,0,1,68,false,stim,false,0,806.5,0,1,2,38099,task3,1004484,false,false,1157,image-keyboard-response,6
true,17,1,1,2,false,d,false,true,0.0-2.0-0.39-0.354-3.354,0,0,1,90,false,stim,true,1,298.89999997615814,0,0,0,38099,task3,1006305,false,true,1160,image-keyboard-response,7
true,17,1,1,0,false,q,true,false,0.0-2.0-0.39-0.355-3.355,0,0,1,90,false,stim,false,0,906.0,0,1,2,38099,task3,1008748,false,false,1163,image-keyboard-response,8
true,17,1,1,2,false,d,true,false,0.0-2.0-0.39-0.356-3.356,0,0,1,90,false,stim,false,0,761.5,0,0,1,38099,task3,1011037,false,false,1166,image-keyboard-response,9
false,17,-1,1,2,false,d,true,true,0.0-2.0-0.39-0.357-3.357,0,0,1,,false,stim,false,0,,0,0,1,38099,task3,1015567,false,true,1169,image-keyboard-response,10
true,17,1,1,0,false,q,true,false,0.0-2.0-0.39-0.358-3.358,0,0,1,90,false,stim,false,0,406.5999999642372,0,1,2,38099,task3,1017486,false,false,1172,image-keyboard-response,11
true,17,2,1,2,true,d,false,true,0.0-2.0-0.39-0.359-3.359,0,0,1,68,false,stim,false,1,663.7999999523163,0,0,0,38099,task3,1019679,false,false,1175,image-keyboard-response,12
true,17,2,1,2,true,d,false,true,0.0-2.0-0.40-0.360-3.360,0,0,1,68,false,stim,false,0,959.5999999642372,0,0,1,38099,task3,1022149,false,false,1178,image-keyboard-response,13
true,17,2,1,0,false,q,true,false,0.0-2.0-0.40-0.361-3.361,0,0,1,68,false,stim,false,0,589.0,0,1,2,38099,task3,1024249,false,false,1181,image-keyboard-response,14
true,17,0,1,2,false,d,true,false,0.0-2.0-0.40-0.362-3.362,0,0,1,81,false,stim,false,1,363.30000001192093,0,0,0,38099,task3,1026148,false,false,1184,image-keyboard-response,15
true,17,1,1,2,false,d,false,false,0.0-2.0-0.40-0.363-3.363,0,0,1,90,false,stim,true,1,314.10000002384186,0,0,0,38099,task3,1027980,false,false,1187,image-keyboard-response,16
true,17,2,1,0,false,q,true,false,0.0-2.0-0.40-0.364-3.364,0,0,1,68,false,stim,false,0,312.60000002384186,0,1,2,38099,task3,1029819,false,false,1190,image-keyboard-response,17
true,17,1,1,2,false,d,true,true,0.0-2.0-0.40-0.365-3.365,0,0,1,90,false,stim,false,0,346.2999999523163,0,0,1,38099,task3,1031678,false,true,1193,image-keyboard-response,18
true,17,1,1,2,false,d,false,false,0.0-2.0-0.40-0.366-3.366,0,0,1,90,false,stim,true,1,845.6000000238419,0,0,0,38099,task3,1034049,false,false,1196,image-keyboard-response,19
true,17,1,1,2,false,d,true,false,0.0-2.0-0.40-0.367-3.367,0,0,1,90,false,stim,false,0,787.6999999880791,0,1,1,38099,task3,1036352,false,false,1199,image-keyboard-response,20
true,17,2,1,0,false,q,true,false,0.0-2.0-0.40-0.368-3.368,0,0,1,68,false,stim,false,0,971.0999999642372,0,0,2,38099,task3,1038859,false,false,1202,image-keyboard-response,21
true,17,0,1,0,true,q,false,true,0.0-2.0-0.41-0.369-3.369,0,0,1,81,false,stim,false,0,376.30000001192093,0,0,2,38099,task3,1040762,false,false,1205,image-keyboard-response,22
true,17,1,1,2,false,d,true,false,0.0-2.0-0.41-0.370-3.370,0,0,1,90,false,stim,false,0,2044.9000000357628,0,1,1,38099,task3,1044343,false,false,1208,image-keyboard-response,23
true,17,2,1,2,true,d,false,true,0.0-2.0-0.41-0.371-3.371,0,0,1,68,false,stim,false,1,1137.699999988079,0,0,0,38099,task3,1047015,false,false,1211,image-keyboard-response,24
true,18,0,1,2,false,d,true,true,0.0-2.0-0.41-0.372-3.372,0,1,0,81,true,stim,false,2,1539.8999999761581,0,1,1,38099,task3,1050091,false,true,1214,image-keyboard-response,1
true,18,2,1,1,false,z,true,false,0.0-2.0-0.41-0.373-3.373,0,1,0,68,false,stim,false,0,638.8999999761581,0,0,2,38099,task3,1052271,false,false,1217,image-keyboard-response,2
true,18,1,1,1,true,z,false,false,0.0-2.0-0.41-0.374-3.374,0,1,0,90,false,stim,false,0,892.9000000357628,0,0,2,38099,task3,1054680,false,true,1220,image-keyboard-response,3
true,18,0,1,0,true,q,false,true,0.0-2.0-0.41-0.375-3.375,0,1,0,81,false,stim,false,2,251.60000002384186,0,0,0,38099,task3,1056459,false,false,1223,image-keyboard-response,4
true,18,0,1,0,true,q,false,true,0.0-2.0-0.41-0.376-3.376,0,1,0,81,false,stim,false,2,876.8000000119209,0,0,0,38099,task3,1058867,false,false,1226,image-keyboard-response,5
true,18,2,1,2,true,d,false,true,0.0-2.0-0.41-0.377-3.377,0,1,0,68,false,stim,false,2,1664.1000000238419,0,0,1,38099,task3,1062042,false,false,1229,image-keyboard-response,6
true,18,1,1,1,true,z,false,false,0.0-2.0-0.42-0.378-3.378,0,1,0,90,false,stim,false,0,820.8999999761581,0,1,2,38099,task3,1064374,false,true,1232,image-keyboard-response,7
true,18,0,1,0,true,q,false,true,0.0-2.0-0.42-0.379-3.379,0,1,0,81,false,stim,false,2,606.3000000119209,0,1,0,38099,task3,1066507,false,false,1235,image-keyboard-response,8
true,18,2,1,2,true,d,false,true,0.0-2.0-0.42-0.380-3.380,0,1,0,68,false,stim,false,2,1125.5999999642372,0,0,1,38099,task3,1069152,false,false,1238,image-keyboard-response,9
true,18,0,1,1,false,z,false,false,0.0-2.0-0.42-0.381-3.381,0,1,0,81,false,stim,true,0,1115.6000000238419,0,1,2,38099,task3,1071802,false,false,1241,image-keyboard-response,10
true,19,0,2,0,true,q,false,true,0.0-2.0-0.42-0.382-3.382,1,0,1,81,true,stim,false,0,730.5,0,1,0,38099,task3,1074067,false,false,1244,image-keyboard-response,1
true,19,1,2,0,false,q,true,false,0.0-2.0-0.42-0.383-3.383,1,0,1,90,false,stim,false,2,442.39999997615814,0,0,1,38099,task3,1076034,false,false,1247,image-keyboard-response,2
true,19,2,2,0,false,q,false,false,0.0-2.0-0.42-0.384-3.384,1,0,1,68,false,stim,true,2,375.30000001192093,0,0,1,38099,task3,1077936,false,false,1250,image-keyboard-response,3
true,19,1,2,0,false,q,true,false,0.0-2.0-0.42-0.385-3.385,1,0,1,90,false,stim,false,0,769.8000000119209,0,1,0,38099,task3,1080234,false,false,1253,image-keyboard-response,4
true,19,2,2,1,false,z,true,false,0.0-2.0-0.42-0.386-3.386,1,0,1,68,false,stim,false,1,612.5,0,1,2,38099,task3,1082500,false,false,1256,image-keyboard-response,5
true,19,0,2,0,true,q,false,true,0.0-2.0-0.43-0.387-3.387,1,0,1,81,false,stim,false,0,436.30000001192093,0,1,0,38099,task3,1084472,false,false,1259,image-keyboard-response,6
true,19,2,2,1,false,z,true,false,0.0-2.0-0.43-0.388-3.388,1,0,1,68,false,stim,false,1,2665.0,0,1,2,38099,task3,1088662,false,false,1262,image-keyboard-response,7
true,19,2,2,0,false,q,false,false,0.0-2.0-0.43-0.389-3.389,1,0,1,68,false,stim,true,2,1167.0,0,1,1,38099,task3,1091357,false,false,1265,image-keyboard-response,8
true,19,1,2,0,false,q,true,false,0.0-2.0-0.43-0.390-3.390,1,0,1,90,false,stim,false,2,504.80000001192093,0,1,1,38099,task3,1093399,false,false,1268,image-keyboard-response,9
true,19,2,2,1,false,z,true,false,0.0-2.0-0.43-0.391-3.391,1,0,1,68,false,stim,false,1,583.5,0,0,2,38099,task3,1095496,false,false,1271,image-keyboard-response,10
true,19,0,2,0,true,q,false,true,0.0-2.0-0.43-0.392-3.392,1,0,1,81,false,stim,false,0,709.9000000357628,0,1,0,38099,task3,1097719,false,false,1274,image-keyboard-response,11
true,19,0,2,1,false,z,true,false,0.0-2.0-0.43-0.393-3.393,1,0,1,81,false,stim,false,1,922.9000000357628,0,0,2,38099,task3,1100167,false,false,1277,image-keyboard-response,12
true,20,0,2,0,true,q,false,true,0.0-2.0-0.43-0.394-3.394,1,1,0,81,true,stim,false,0,958.6999999880791,0,1,0,38099,task3,1102650,false,false,1280,image-keyboard-response,1
true,20,1,2,0,false,q,true,false,0.0-2.0-0.43-0.395-3.395,1,1,0,90,false,stim,false,0,849.6999999880791,0,1,1,38099,task3,1105021,false,false,1283,image-keyboard-response,2
true,20,2,2,0,false,q,true,false,0.0-2.0-0.44-0.396-3.396,1,1,0,68,false,stim,false,0,1062.3999999761581,0,1,0,38099,task3,1107615,false,false,1286,image-keyboard-response,3
true,20,0,2,0,true,q,false,true,0.0-2.0-0.44-0.397-3.397,1,1,0,81,false,stim,false,0,1059.300000011921,0,1,1,38099,task3,1110205,false,false,1289,image-keyboard-response,4
true,20,1,2,2,false,d,false,true,0.0-2.0-0.44-0.398-3.398,1,1,0,90,false,stim,true,1,1132.3999999761581,0,0,2,38099,task3,1112860,false,true,1292,image-keyboard-response,5
true,20,1,2,2,false,d,false,false,0.0-2.0-0.44-0.399-3.399,1,1,0,90,false,stim,true,1,796.2999999523163,0,0,2,38099,task3,1115195,false,false,1295,image-keyboard-response,6
true,20,0,2,0,true,q,false,true,0.0-2.0-0.44-0.400-3.400,1,1,0,81,false,stim,false,0,690.3000000119209,0,1,0,38099,task3,1117397,false,false,1298,image-keyboard-response,7
true,20,1,2,0,false,q,true,false,0.0-2.0-0.44-0.401-3.401,1,1,0,90,false,stim,false,0,746.6000000238419,0,1,1,38099,task3,1119664,false,false,1301,image-keyboard-response,8
true,20,2,2,0,false,q,true,false,0.0-2.0-0.44-0.402-3.402,1,1,0,68,false,stim,false,0,296.7000000476837,0,1,0,38099,task3,1121495,false,false,1304,image-keyboard-response,9
true,20,0,2,0,true,q,false,true,0.0-2.0-0.44-0.403-3.403,1,1,0,81,false,stim,false,0,696.3999999761581,0,1,1,38099,task3,1123714,false,false,1307,image-keyboard-response,10
true,20,2,2,2,true,d,false,true,0.0-2.0-0.44-0.404-3.404,1,1,0,68,false,stim,false,1,887.8000000119209,0,0,2,38099,task3,1126136,false,false,1310,image-keyboard-response,11
true,20,2,2,0,false,q,true,false,0.0-2.0-0.45-0.405-3.405,1,1,0,68,false,stim,false,0,2660.300000011921,0,1,1,38099,task3,1130320,false,false,1313,image-keyboard-response,12
true,20,1,2,2,false,d,false,false,0.0-2.0-0.45-0.406-3.406,1,1,0,90,false,stim,true,1,644.8999999761581,0,0,2,38099,task3,1132503,false,false,1316,image-keyboard-response,13
true,20,2,2,0,false,q,true,false,0.0-2.0-0.45-0.407-3.407,1,1,0,68,false,stim,false,0,1236.300000011921,0,1,0,38099,task3,1135248,false,false,1319,image-keyboard-response,14
true,20,0,2,0,true,q,false,true,0.0-2.0-0.45-0.408-3.408,1,1,0,81,false,stim,false,0,695.9000000357628,0,1,1,38099,task3,1137460,false,false,1322,image-keyboard-response,15
true,20,2,2,0,false,q,true,false,0.0-2.0-0.45-0.409-3.409,1,1,0,68,false,stim,false,0,772.6000000238419,0,1,0,38099,task3,1139763,false,false,1325,image-keyboard-response,16
true,20,0,2,0,true,q,false,true,0.0-2.0-0.45-0.410-3.410,1,1,0,81,false,stim,false,0,328.0,0,1,0,38099,task3,1141610,false,false,1328,image-keyboard-response,17
true,20,2,2,2,true,d,false,true,0.0-2.0-0.45-0.411-3.411,1,1,0,68,false,stim,false,1,868.6999999880791,0,0,2,38099,task3,1143992,false,false,1331,image-keyboard-response,18
true,20,0,2,0,true,q,false,true,0.0-2.0-0.45-0.412-3.412,1,1,0,81,false,stim,false,0,1197.3999999761581,0,1,1,38099,task3,1146713,false,false,1334,image-keyboard-response,19
true,20,2,2,2,true,d,false,true,0.0-2.0-0.45-0.413-3.413,1,1,0,68,false,stim,false,1,477.39999997615814,0,0,2,38099,task3,1148726,false,false,1337,image-keyboard-response,20
true,20,0,2,0,true,q,false,true,0.0-2.0-0.46-0.414-3.414,1,1,0,81,false,stim,false,0,558.0,0,1,1,38099,task3,1150806,false,false,1340,image-keyboard-response,21
true,20,2,2,2,true,d,false,true,0.0-2.0-0.46-0.415-3.415,1,1,0,68,false,stim,false,1,527.8999999761581,0,0,2,38099,task3,1152870,false,false,1343,image-keyboard-response,22
true,20,2,2,2,true,d,false,true,0.0-2.0-0.46-0.416-3.416,1,1,0,68,false,stim,false,1,609.4000000357628,0,0,2,38099,task3,1155011,false,false,1346,image-keyboard-response,23
true,20,0,2,0,true,q,false,true,0.0-2.0-0.46-0.417-3.417,1,1,0,81,false,stim,false,0,605.8000000119209,0,1,0,38099,task3,1157142,false,false,1349,image-keyboard-response,24
true,20,0,2,0,true,q,false,true,0.0-2.0-0.46-0.418-3.418,1,1,0,81,false,stim,false,0,574.0999999642372,0,1,0,38099,task3,1159246,false,false,1352,image-keyboard-response,25
true,20,0,2,0,true,q,false,true,0.0-2.0-0.46-0.419-3.419,1,1,0,81,false,stim,false,0,401.19999998807907,0,1,0,38099,task3,1161163,false,false,1355,image-keyboard-response,26
true,20,0,2,0,true,q,false,true,0.0-2.0-0.46-0.420-3.420,1,1,0,81,false,stim,false,0,667.1000000238419,0,0,1,38099,task3,1163352,false,false,1358,image-keyboard-response,27
true,20,2,2,2,true,d,false,true,0.0-2.0-0.46-0.421-3.421,1,1,0,68,false,stim,false,1,532.4000000357628,0,0,2,38099,task3,1165419,false,false,1361,image-keyboard-response,28
true,21,0,1,1,false,z,false,false,0.0-2.0-0.46-0.422-3.422,1,0,0,81,true,stim,true,0,555.5,0,0,1,38099,task3,1167505,false,false,1364,image-keyboard-response,1
true,21,1,1,1,true,z,false,true,0.0-2.0-0.47-0.423-3.423,1,0,0,90,false,stim,false,0,821.3999999761581,0,0,1,38099,task3,1169862,false,false,1367,image-keyboard-response,2
true,21,1,1,1,true,z,false,true,0.0-2.0-0.47-0.424-3.424,1,0,0,90,false,stim,false,0,432.5,0,0,1,38099,task3,1171803,false,false,1370,image-keyboard-response,3
true,21,0,1,0,true,q,false,true,0.0-2.0-0.47-0.425-3.425,1,0,0,81,false,stim,false,0,588.5999999642372,0,1,0,38099,task3,1173929,false,false,1373,image-keyboard-response,4
true,21,1,1,1,true,z,false,false,0.0-2.0-0.47-0.426-3.426,1,0,0,90,false,stim,false,0,585.5,0,0,1,38099,task3,1176048,false,true,1376,image-keyboard-response,5
true,21,2,1,0,false,q,false,false,0.0-2.0-0.47-0.427-3.427,1,0,0,68,false,stim,true,2,738.5,0,0,2,38099,task3,1178311,false,false,1379,image-keyboard-response,6
true,21,0,1,0,true,q,false,true,0.0-2.0-0.47-0.428-3.428,1,0,0,81,false,stim,false,2,737.5999999642372,0,0,2,38099,task3,1180580,false,false,1382,image-keyboard-response,7
true,21,0,1,0,true,q,false,true,0.0-2.0-0.47-0.429-3.429,1,0,0,81,false,stim,false,2,366.19999998807907,0,0,2,38099,task3,1182472,false,false,1385,image-keyboard-response,8
true,21,0,1,0,true,q,false,true,0.0-2.0-0.47-0.430-3.430,1,0,0,81,false,stim,false,0,636.2999999523163,0,1,0,38099,task3,1184629,false,false,1388,image-keyboard-response,9
true,21,0,1,0,true,q,false,false,0.0-2.0-0.47-0.431-3.431,1,0,0,81,false,stim,false,0,594.0,0,1,0,38099,task3,1186752,false,true,1391,image-keyboard-response,10
true,21,1,1,1,true,z,false,true,0.0-2.0-0.48-0.432-3.432,1,0,0,90,false,stim,false,0,252.0,0,0,1,38099,task3,1188527,false,false,1394,image-keyboard-response,11
true,21,1,1,1,true,z,false,true,0.0-2.0-0.48-0.433-3.433,1,0,0,90,false,stim,false,0,339.80000001192093,0,0,1,38099,task3,1190406,false,false,1397,image-keyboard-response,12
true,21,1,1,1,true,z,false,true,0.0-2.0-0.48-0.434-3.434,1,0,0,90,false,stim,false,0,360.5999999642372,0,0,1,38099,task3,1192298,false,false,1400,image-keyboard-response,13
true,21,0,1,0,true,q,false,true,0.0-2.0-0.48-0.435-3.435,1,0,0,81,false,stim,false,0,887.4000000357628,0,1,0,38099,task3,1194724,false,false,1403,image-keyboard-response,14
true,21,2,1,0,false,q,false,false,0.0-2.0-0.48-0.436-3.436,1,0,0,68,false,stim,true,2,1021.1999999880791,0,0,2,38099,task3,1197279,false,false,1406,image-keyboard-response,15
true,21,0,1,0,true,q,false,true,0.0-2.0-0.48-0.437-3.437,1,0,0,81,false,stim,false,0,727.3000000119209,0,1,0,38099,task3,1199546,false,false,1409,image-keyboard-response,16
true,21,2,1,0,false,q,false,true,0.0-2.0-0.48-0.438-3.438,1,0,0,68,false,stim,true,2,663.2000000476837,0,0,2,38099,task3,1201740,false,true,1412,image-keyboard-response,17
true,21,0,1,0,true,q,false,true,0.0-2.0-0.48-0.439-3.439,1,0,0,81,false,stim,false,0,610.8999999761581,0,1,0,38099,task3,1203876,false,false,1415,image-keyboard-response,18
true,21,2,1,0,false,q,false,false,0.0-2.0-0.48-0.440-3.440,1,0,0,68,false,stim,true,2,621.0999999642372,0,0,2,38099,task3,1206008,false,false,1418,image-keyboard-response,19
true,21,1,1,0,false,q,true,false,0.0-2.0-0.49-0.441-3.441,1,0,0,90,false,stim,false,2,391.80000001192093,0,0,2,38099,task3,1207931,false,false,1421,image-keyboard-response,20
true,21,0,1,1,false,z,false,false,0.0-2.0-0.49-0.442-3.442,1,0,0,81,false,stim,true,0,698.5,0,1,1,38099,task3,1210157,false,false,1424,image-keyboard-response,21
true,21,0,1,1,false,z,false,false,0.0-2.0-0.49-0.443-3.443,1,0,0,81,false,stim,true,0,514.3000000119209,0,1,1,38099,task3,1212203,false,false,1427,image-keyboard-response,22
true,21,1,1,0,false,q,true,false,0.0-2.0-0.49-0.444-3.444,1,0,0,90,false,stim,false,0,278.9000000357628,0,1,0,38099,task3,1213996,false,false,1430,image-keyboard-response,23
true,21,2,1,1,false,z,true,false,0.0-2.0-0.49-0.445-3.445,1,0,0,68,false,stim,false,0,249.80000001192093,0,1,1,38099,task3,1215774,false,false,1433,image-keyboard-response,24
true,22,0,2,2,false,d,false,false,0.0-2.0-0.49-0.446-3.446,1,1,0,81,true,stim,true,0,444.10000002384186,0,0,2,38099,task3,1217744,false,false,1436,image-keyboard-response,1
true,22,1,2,0,false,q,true,false,0.0-2.0-0.49-0.447-3.447,1,1,0,90,false,stim,false,0,504.69999998807907,0,1,0,38099,task3,1219778,false,false,1439,image-keyboard-response,2
true,22,2,2,2,true,d,false,true,0.0-2.0-0.49-0.448-3.448,1,1,0,68,false,stim,false,0,416.80000001192093,0,0,2,38099,task3,1221722,false,false,1442,image-keyboard-response,3
true,22,0,2,0,true,q,false,true,0.0-2.0-0.49-0.449-3.449,1,1,0,81,false,stim,false,0,653.1999999880791,0,1,0,38099,task3,1223894,false,false,1445,image-keyboard-response,4
true,22,0,2,0,true,q,false,true,0.0-2.0-0.50-0.450-3.450,1,1,0,81,false,stim,false,0,491.80000001192093,0,1,0,38099,task3,1225919,false,false,1448,image-keyboard-response,5
true,22,1,2,1,true,z,false,true,0.0-2.0-0.50-0.451-3.451,1,1,0,90,false,stim,false,1,641.1000000238419,0,1,1,38099,task3,1228080,false,false,1451,image-keyboard-response,6
true,22,2,2,2,true,d,false,true,0.0-2.0-0.50-0.452-3.452,1,1,0,68,false,stim,false,0,624.6000000238419,0,0,2,38099,task3,1230232,false,false,1454,image-keyboard-response,7
true,22,0,2,0,true,q,false,true,0.0-2.0-0.50-0.453-3.453,1,1,0,81,false,stim,false,0,638.5,0,1,0,38099,task3,1232402,false,false,1457,image-keyboard-response,8
true,22,2,2,2,true,d,false,false,0.0-2.0-0.50-0.454-3.454,1,1,0,68,false,stim,false,0,1162.800000011921,0,0,2,38099,task3,1235080,false,true,1460,image-keyboard-response,9
true,22,0,2,0,true,q,false,true,0.0-2.0-0.50-0.455-3.455,1,1,0,81,false,stim,false,0,733.8999999761581,0,1,0,38099,task3,1237338,false,false,1463,image-keyboard-response,10
true,22,2,2,2,true,d,false,false,0.0-2.0-0.50-0.456-3.456,1,1,0,68,false,stim,false,0,505.30000001192093,0,0,2,38099,task3,1239372,false,true,1466,image-keyboard-response,11
true,22,1,2,1,true,z,false,true,0.0-2.0-0.50-0.457-3.457,1,1,0,90,false,stim,false,1,315.10000002384186,0,1,1,38099,task3,1241227,false,false,1469,image-keyboard-response,12
true,22,1,2,1,true,z,false,true,0.0-2.0-0.50-0.458-3.458,1,1,0,90,false,stim,false,1,1221.300000011921,0,1,1,38099,task3,1243973,false,false,1472,image-keyboard-response,13
true,22,0,2,0,true,q,false,true,0.0-2.0-0.51-0.459-3.459,1,1,0,81,false,stim,false,0,635.6999999880791,0,1,0,38099,task3,1246136,false,false,1475,image-keyboard-response,14
true,22,2,2,2,true,d,false,true,0.0-2.0-0.51-0.460-3.460,1,1,0,68,false,stim,false,0,641.3999999761581,0,0,2,38099,task3,1248317,false,false,1478,image-keyboard-response,15
true,22,1,2,2,false,d,true,false,0.0-2.0-0.51-0.461-3.461,1,1,0,90,false,stim,false,0,1069.6000000238419,0,0,2,38099,task3,1250915,false,false,1481,image-keyboard-response,16
true,22,0,2,1,false,z,true,false,0.0-2.0-0.51-0.462-3.462,1,1,0,81,false,stim,false,1,724.3000000119209,0,1,1,38099,task3,1253169,false,false,1484,image-keyboard-response,17
true,22,0,2,0,true,q,false,true,0.0-2.0-0.51-0.463-3.463,1,1,0,81,false,stim,false,0,1555.3999999761581,0,1,0,38099,task3,1256261,false,false,1487,image-keyboard-response,18
true,22,2,2,0,false,q,true,false,0.0-2.0-0.51-0.464-3.464,1,1,0,68,false,stim,false,0,2445.0,0,1,0,38099,task3,1260242,false,false,1490,image-keyboard-response,19
true,22,2,2,1,false,z,true,false,0.0-2.0-0.51-0.465-3.465,1,1,0,68,false,stim,false,1,825.0,0,1,1,38099,task3,1262602,false,false,1493,image-keyboard-response,20
true,22,1,2,1,true,z,false,true,0.0-2.0-0.51-0.466-3.466,1,1,0,90,false,stim,false,1,364.5,0,1,1,38099,task3,1264494,false,false,1496,image-keyboard-response,21
true,22,2,2,2,true,d,false,true,0.0-2.0-0.51-0.467-3.467,1,1,0,68,false,stim,false,0,660.2999999523163,0,0,2,38099,task3,1266691,false,false,1499,image-keyboard-response,22
true,22,2,2,2,true,d,false,true,0.0-2.0-0.52-0.468-3.468,1,1,0,68,false,stim,false,0,610.1000000238419,0,0,2,38099,task3,1268848,false,false,1502,image-keyboard-response,23
true,22,1,2,1,true,z,false,true,0.0-2.0-0.52-0.469-3.469,1,1,0,90,false,stim,false,1,584.5999999642372,0,1,1,38099,task3,1270959,false,false,1505,image-keyboard-response,24
true,22,0,2,0,true,q,false,true,0.0-2.0-0.52-0.470-3.470,1,1,0,81,false,stim,false,0,500.30000001192093,0,1,0,38099,task3,1272994,false,false,1508,image-keyboard-response,25
true,22,0,2,0,true,q,false,true,0.0-2.0-0.52-0.471-3.471,1,1,0,81,false,stim,false,0,456.69999998807907,0,1,0,38099,task3,1274977,false,false,1511,image-keyboard-response,26
true,22,2,2,2,true,d,false,true,0.0-2.0-0.52-0.472-3.472,1,1,0,68,false,stim,false,0,431.5,0,0,2,38099,task3,1276947,false,false,1514,image-keyboard-response,27
true,22,1,2,1,true,z,false,true,0.0-2.0-0.52-0.473-3.473,1,1,0,90,false,stim,false,1,1148.0,0,1,1,38099,task3,1279630,false,false,1517,image-keyboard-response,28
true,22,2,2,2,true,d,false,true,0.0-2.0-0.52-0.474-3.474,1,1,0,68,false,stim,false,0,587.3000000119209,0,0,2,38099,task3,1281758,false,false,1520,image-keyboard-response,29
true,23,0,2,1,false,z,true,false,0.0-2.0-0.52-0.475-3.475,1,1,0,81,true,stim,false,1,675.8999999761581,0,1,1,38099,task3,1283960,false,false,1523,image-keyboard-response,1
true,23,0,2,0,true,q,false,false,0.0-2.0-0.52-0.476-3.476,1,1,0,81,false,stim,false,0,554.0,0,1,0,38099,task3,1286037,false,true,1526,image-keyboard-response,2
true,23,1,2,0,false,q,true,false,0.0-2.0-0.53-0.477-3.477,1,1,0,90,false,stim,false,0,576.3000000119209,0,1,0,38099,task3,1288141,false,false,1529,image-keyboard-response,3
true,23,2,2,0,false,q,true,false,0.0-2.0-0.53-0.478-3.478,1,1,0,68,false,stim,false,0,329.30000001192093,0,1,0,38099,task3,1289999,false,false,1532,image-keyboard-response,4
true,23,2,2,1,false,z,false,true,0.0-2.0-0.53-0.479-3.479,1,1,0,68,false,stim,true,2,573.1999999880791,0,0,2,38099,task3,1292098,false,true,1535,image-keyboard-response,5
true,23,2,2,1,false,z,false,false,0.0-2.0-0.53-0.480-3.480,1,1,0,68,false,stim,true,2,501.89999997615814,0,0,2,38099,task3,1294129,false,false,1538,image-keyboard-response,6
true,23,1,2,1,true,z,false,true,0.0-2.0-0.53-0.481-3.481,1,1,0,90,false,stim,false,1,310.30000001192093,0,1,1,38099,task3,1295953,false,false,1541,image-keyboard-response,7
true,23,1,2,1,true,z,false,true,0.0-2.0-0.53-0.482-3.482,1,1,0,90,false,stim,false,1,411.89999997615814,0,1,1,38099,task3,1297881,false,false,1544,image-keyboard-response,8
true,23,1,2,1,true,z,false,true,0.0-2.0-0.53-0.483-3.483,1,1,0,90,false,stim,false,1,374.0,0,1,1,38099,task3,1299785,false,false,1547,image-keyboard-response,9
true,23,0,2,0,true,q,false,true,0.0-2.0-0.53-0.484-3.484,1,1,0,81,false,stim,false,0,608.1000000238419,0,1,0,38099,task3,1301920,false,false,1550,image-keyboard-response,10
true,23,2,2,1,false,z,false,false,0.0-2.0-0.53-0.485-3.485,1,1,0,68,false,stim,true,2,570.6999999880791,0,0,2,38099,task3,1304019,false,false,1553,image-keyboard-response,11
true,23,0,2,0,true,q,false,true,0.0-2.0-0.54-0.486-3.486,1,1,0,81,false,stim,false,0,738.0,0,1,0,38099,task3,1306292,false,false,1556,image-keyboard-response,12
true,23,1,2,1,true,z,false,true,0.0-2.0-0.54-0.487-3.487,1,1,0,90,false,stim,false,2,640.1999999880791,0,0,2,38099,task3,1308461,false,false,1559,image-keyboard-response,13
true,23,1,2,1,true,z,false,false,0.0-2.0-0.54-0.488-3.488,1,1,0,90,false,stim,false,2,549.0,0,0,2,38099,task3,1310539,false,true,1562,image-keyboard-response,14
true,23,1,2,1,true,z,false,true,0.0-2.0-0.54-0.489-3.489,1,1,0,90,false,stim,false,1,997.3999999761581,0,1,1,38099,task3,1313077,false,false,1565,image-keyboard-response,15
true,23,1,2,1,true,z,false,true,0.0-2.0-0.54-0.490-3.490,1,1,0,90,false,stim,false,1,531.4000000357628,0,1,1,38099,task3,1315137,false,false,1568,image-keyboard-response,16
true,23,0,2,0,true,q,false,true,0.0-2.0-0.54-0.491-3.491,1,1,0,81,false,stim,false,0,591.5999999642372,0,1,0,38099,task3,1317251,false,false,1571,image-keyboard-response,17
true,23,1,2,1,true,z,false,true,0.0-2.0-0.54-0.492-3.492,1,1,0,90,false,stim,false,1,406.5999999642372,0,1,1,38099,task3,1319175,false,false,1574,image-keyboard-response,18
true,23,0,2,0,true,q,false,true,0.0-2.0-0.54-0.493-3.493,1,1,0,81,false,stim,false,0,784.5,0,1,0,38099,task3,1321484,false,false,1577,image-keyboard-response,19
true,23,2,2,1,false,z,false,false,0.0-2.0-0.54-0.494-3.494,1,1,0,68,false,stim,true,2,617.1999999880791,0,0,2,38099,task3,1323627,false,false,1580,image-keyboard-response,20
true,23,1,2,1,true,z,false,true,0.0-2.0-0.55-0.495-3.495,1,1,0,90,false,stim,false,2,686.8000000119209,0,0,2,38099,task3,1325851,false,false,1583,image-keyboard-response,21
true,23,0,2,0,true,q,false,false,0.0-2.0-0.55-0.496-3.496,1,1,0,81,false,stim,false,0,933.2000000476837,0,0,0,38099,task3,1328314,false,true,1586,image-keyboard-response,22
true,23,2,2,1,false,z,false,false,0.0-2.0-0.55-0.497-3.497,1,1,0,68,false,stim,true,2,594.1999999880791,0,0,2,38099,task3,1330442,false,false,1589,image-keyboard-response,23
true,23,0,2,0,true,q,false,true,0.0-2.0-0.55-0.498-3.498,1,1,0,81,false,stim,false,0,722.3000000119209,0,0,0,38099,task3,1332700,false,false,1592,image-keyboard-response,24
true,24,1,1,1,true,z,false,true,0.0-2.0-0.55-0.499-3.499,0,1,0,90,true,stim,false,1,844.3999999761581,0,1,1,38099,task3,1335070,false,false,1595,image-keyboard-response,1
true,24,1,1,1,true,z,false,true,0.0-2.0-0.55-0.500-3.500,0,1,0,90,false,stim,false,1,1890.5,0,1,1,38099,task3,1338480,false,false,1598,image-keyboard-response,2
true,24,1,1,1,true,z,false,true,0.0-2.0-0.55-0.501-3.501,0,1,0,90,false,stim,false,1,862.0,0,1,1,38099,task3,1340901,false,false,1601,image-keyboard-response,3
true,24,2,1,0,false,q,true,false,0.0-2.0-0.55-0.502-3.502,0,1,0,68,false,stim,false,1,619.6000000238419,0,0,2,38099,task3,1343057,false,false,1604,image-keyboard-response,4
true,24,0,1,2,false,d,false,false,0.0-2.0-0.55-0.503-3.503,0,1,0,81,false,stim,true,0,928.3000000119209,0,0,0,38099,task3,1345504,false,false,1607,image-keyboard-response,5
true,24,1,1,0,false,q,false,false,0.0-2.0-0.56-0.504-3.504,0,1,0,90,false,stim,true,1,347.39999997615814,0,0,2,38099,task3,1347381,false,false,1610,image-keyboard-response,6
true,24,0,1,1,false,z,true,false,0.0-2.0-0.56-0.505-3.505,0,1,0,81,false,stim,false,1,813.1000000238419,0,1,1,38099,task3,1349733,false,false,1613,image-keyboard-response,7
true,24,2,1,2,true,d,false,true,0.0-2.0-0.56-0.506-3.506,0,1,0,68,false,stim,false,0,646.0999999642372,0,0,0,38099,task3,1351907,false,false,1616,image-keyboard-response,8
true,24,1,1,1,true,z,false,true,0.0-2.0-0.56-0.507-3.507,0,1,0,90,false,stim,false,1,1493.8999999761581,0,1,1,38099,task3,1354926,false,false,1619,image-keyboard-response,9
true,24,0,1,2,false,d,false,true,0.0-2.0-0.56-0.508-3.508,0,1,0,81,false,stim,true,0,1463.9000000357628,0,0,0,38099,task3,1357916,false,true,1622,image-keyboard-response,10
true,24,2,1,0,false,q,true,false,0.0-2.0-0.56-0.509-3.509,0,1,0,68,false,stim,false,1,516.0,0,0,2,38099,task3,1359971,false,false,1625,image-keyboard-response,11
true,24,0,1,2,false,d,false,false,0.0-2.0-0.56-0.510-3.510,0,1,0,81,false,stim,true,0,540.3999999761581,0,0,0,38099,task3,1362040,false,false,1628,image-keyboard-response,12
true,24,1,1,0,false,q,false,false,0.0-2.0-0.56-0.511-3.511,0,1,0,90,false,stim,true,1,923.9000000357628,0,0,2,38099,task3,1364492,false,false,1631,image-keyboard-response,13
true,24,1,1,1,true,z,false,true,0.0-2.0-0.56-0.512-3.512,0,1,0,90,false,stim,false,1,787.8000000119209,0,1,1,38099,task3,1366809,false,false,1634,image-keyboard-response,14
true,24,0,1,2,false,d,false,false,0.0-2.0-0.57-0.513-3.513,0,1,0,81,false,stim,true,0,640.5,0,0,0,38099,task3,1368975,false,false,1637,image-keyboard-response,15
true,24,1,1,1,true,z,false,true,0.0-2.0-0.57-0.514-3.514,0,1,0,90,false,stim,false,1,857.0,0,1,1,38099,task3,1371371,false,false,1640,image-keyboard-response,16
true,24,2,1,2,true,d,false,false,0.0-2.0-0.57-0.515-3.515,0,1,0,68,false,stim,false,0,726.6000000238419,0,0,0,38099,task3,1373620,false,true,1643,image-keyboard-response,17
true,24,0,1,2,false,d,false,false,0.0-2.0-0.57-0.516-3.516,0,1,0,81,false,stim,true,0,640.5,0,0,0,38099,task3,1375782,false,false,1646,image-keyboard-response,18
true,24,1,1,1,true,z,false,true,0.0-2.0-0.57-0.517-3.517,0,1,0,90,false,stim,false,1,718.5,0,1,1,38099,task3,1378016,false,false,1649,image-keyboard-response,19
true,24,1,1,0,false,q,false,false,0.0-2.0-0.57-0.518-3.518,0,1,0,90,false,stim,true,1,652.5999999642372,0,0,2,38099,task3,1380187,false,false,1652,image-keyboard-response,20
true,24,2,1,0,false,q,true,false,0.0-2.0-0.57-0.519-3.519,0,1,0,68,false,stim,false,1,357.19999998807907,0,0,2,38099,task3,1382064,false,false,1655,image-keyboard-response,21
true,24,0,1,0,true,q,false,true,0.0-2.0-0.57-0.520-3.520,0,1,0,81,false,stim,false,1,328.60000002384186,0,0,2,38099,task3,1383909,false,false,1658,image-keyboard-response,22
true,24,1,1,1,true,z,false,true,0.0-2.0-0.57-0.521-3.521,0,1,0,90,false,stim,false,1,2224.5,0,1,1,38099,task3,1387657,false,false,1661,image-keyboard-response,23
true,24,1,1,1,true,z,false,true,0.0-2.0-0.58-0.522-3.522,0,1,0,90,false,stim,false,1,563.6999999880791,0,1,1,38099,task3,1389755,false,false,1664,image-keyboard-response,24
true,25,2,1,2,true,d,false,true,0.0-2.0-0.58-0.523-3.523,0,1,0,68,true,stim,false,0,765.5,0,0,2,38099,task3,1392031,false,false,1667,image-keyboard-response,1
true,25,0,1,1,false,z,true,false,0.0-2.0-0.58-0.524-3.524,0,1,0,81,false,stim,false,2,514.8000000119209,0,0,0,38099,task3,1394078,false,false,1670,image-keyboard-response,2
true,25,1,1,1,true,z,false,true,0.0-2.0-0.58-0.525-3.525,0,1,0,90,false,stim,false,2,327.69999998807907,0,0,0,38099,task3,1395943,false,false,1673,image-keyboard-response,3
true,25,2,1,2,true,d,false,true,0.0-2.0-0.58-0.526-3.526,0,1,0,68,false,stim,false,0,704.3999999761581,0,0,2,38099,task3,1398176,false,false,1676,image-keyboard-response,4
true,25,1,1,2,false,d,true,false,0.0-2.0-0.58-0.527-3.527,0,1,0,90,false,stim,false,0,812.7000000476837,0,0,2,38099,task3,1400515,false,false,1679,image-keyboard-response,5
true,25,2,1,1,false,z,false,false,0.0-2.0-0.58-0.528-3.528,0,1,0,68,false,stim,true,2,357.0,0,0,0,38099,task3,1402403,false,false,1682,image-keyboard-response,6
true,25,2,1,1,false,z,true,false,0.0-2.0-0.58-0.529-3.529,0,1,0,68,false,stim,false,1,809.5999999642372,0,1,1,38099,task3,1404743,false,false,1685,image-keyboard-response,7
true,25,1,1,1,true,z,false,true,0.0-2.0-0.58-0.530-3.530,0,1,0,90,false,stim,false,1,1149.6000000238419,0,1,1,38099,task3,1407424,false,false,1688,image-keyboard-response,8
true,25,1,1,1,true,z,false,true,0.0-2.0-0.59-0.531-3.531,0,1,0,90,false,stim,false,2,1598.5,0,1,0,38099,task3,1410552,false,false,1691,image-keyboard-response,9
true,25,1,1,1,true,z,false,true,0.0-2.0-0.59-0.532-3.532,0,1,0,90,false,stim,false,1,577.8999999761581,0,1,1,38099,task3,1412667,false,false,1694,image-keyboard-response,10
true,25,1,1,2,false,d,true,false,0.0-2.0-0.59-0.533-3.533,0,1,0,90,false,stim,false,0,1092.199999988079,0,1,2,38099,task3,1415288,false,false,1697,image-keyboard-response,11
true,26,0,0,1,false,z,true,false,0.0-2.0-0.59-0.534-3.534,1,1,1,81,true,stim,false,1,1762.5,0,1,0,38099,task3,1539529,false,false,1820,image-keyboard-response,1
true,26,2,0,2,true,d,false,true,0.0-2.0-0.59-0.535-3.535,1,1,1,68,false,stim,false,2,1291.6000000238419,0,1,2,38099,task3,1542341,false,false,1823,image-keyboard-response,2
true,26,2,0,2,true,d,false,true,0.0-2.0-0.59-0.536-3.536,1,1,1,68,false,stim,false,2,702.3000000119209,0,1,2,38099,task3,1544568,false,false,1826,image-keyboard-response,3
true,26,1,0,1,true,z,false,true,0.0-2.0-0.59-0.537-3.537,1,1,1,90,false,stim,false,1,1014.0999999642372,0,1,1,38099,task3,1547111,false,false,1829,image-keyboard-response,4
true,26,1,0,1,true,z,false,true,0.0-2.0-0.59-0.538-3.538,1,1,1,90,false,stim,false,1,453.60000002384186,0,1,1,38099,task3,1549097,false,false,1832,image-keyboard-response,5
true,26,0,0,1,false,z,true,false,0.0-2.0-0.59-0.539-3.539,1,1,1,81,false,stim,false,1,601.0,0,1,0,38099,task3,1551237,false,false,1835,image-keyboard-response,6
true,26,1,0,2,false,d,true,true,0.0-2.0-0.60-0.540-3.540,1,1,1,90,false,stim,false,2,266.39999997615814,0,1,2,38099,task3,1553043,false,true,1838,image-keyboard-response,7
true,26,0,0,1,false,z,true,false,0.0-2.0-0.60-0.541-3.541,1,1,1,81,false,stim,false,1,1418.9000000357628,0,1,0,38099,task3,1555986,false,false,1841,image-keyboard-response,8
true,26,1,0,1,true,z,false,true,0.0-2.0-0.60-0.542-3.542,1,1,1,90,false,stim,false,1,1517.0,0,1,1,38099,task3,1559034,false,false,1844,image-keyboard-response,9
true,26,1,0,1,true,z,false,true,0.0-2.0-0.60-0.543-3.543,1,1,1,90,false,stim,false,1,733.8999999761581,0,0,0,38099,task3,1561300,false,false,1847,image-keyboard-response,10
true,26,1,0,1,true,z,false,true,0.0-2.0-0.60-0.544-3.544,1,1,1,90,false,stim,false,1,795.6000000238419,0,0,0,38099,task3,1563624,false,false,1850,image-keyboard-response,11
true,26,2,0,2,true,d,false,true,0.0-2.0-0.60-0.545-3.545,1,1,1,68,false,stim,false,2,931.0999999642372,0,1,2,38099,task3,1566082,false,false,1853,image-keyboard-response,12
true,26,2,0,2,true,d,false,true,0.0-2.0-0.60-0.546-3.546,1,1,1,68,false,stim,false,2,1092.699999988079,0,1,2,38099,task3,1568706,false,false,1856,image-keyboard-response,13
true,27,1,2,1,true,z,false,true,0.0-2.0-0.60-0.547-3.547,0,1,1,90,true,stim,false,1,676.1999999880791,0,1,1,38099,task3,1570912,false,false,1859,image-keyboard-response,1
true,27,1,2,1,true,z,false,false,0.0-2.0-0.60-0.548-3.548,0,1,1,90,false,stim,false,1,1076.3999999761581,0,1,1,38099,task3,1573522,false,true,1862,image-keyboard-response,2
true,27,2,2,1,false,z,true,false,0.0-2.0-0.61-0.549-3.549,0,1,1,68,false,stim,false,1,1082.300000011921,0,1,1,38099,task3,1576135,false,false,1865,image-keyboard-response,3
true,27,1,2,2,false,d,false,false,0.0-2.0-0.61-0.550-3.550,0,1,1,90,false,stim,true,1,984.3999999761581,0,0,0,38099,task3,1578647,false,false,1868,image-keyboard-response,4
true,27,0,2,2,false,d,true,false,0.0-2.0-0.61-0.551-3.551,0,1,1,81,false,stim,false,1,2202.600000023842,0,0,0,38099,task3,1582368,false,false,1871,image-keyboard-response,5
true,27,2,2,2,true,d,false,true,0.0-2.0-0.61-0.552-3.552,0,1,1,68,false,stim,false,2,808.3999999761581,0,1,2,38099,task3,1584715,false,false,1874,image-keyboard-response,6
true,27,1,2,2,false,d,false,false,0.0-2.0-0.61-0.553-3.553,0,1,1,90,false,stim,true,1,550.7999999523163,0,0,0,38099,task3,1586802,false,false,1877,image-keyboard-response,7
true,27,2,2,2,true,d,false,true,0.0-2.0-0.61-0.554-3.554,0,1,1,68,false,stim,false,2,653.6999999880791,0,1,2,38099,task3,1588993,false,false,1880,image-keyboard-response,8
true,27,1,2,1,true,z,false,true,0.0-2.0-0.61-0.555-3.555,0,1,1,90,false,stim,false,1,705.1999999880791,0,1,1,38099,task3,1591231,false,false,1883,image-keyboard-response,9
true,27,2,2,2,true,d,false,true,0.0-2.0-0.61-0.556-3.556,0,1,1,68,false,stim,false,2,610.6999999880791,0,0,2,38099,task3,1593354,false,false,1886,image-keyboard-response,10
true,27,1,2,1,true,z,false,true,0.0-2.0-0.61-0.557-3.557,0,1,1,90,false,stim,false,1,1304.5,0,1,1,38099,task3,1596188,false,false,1889,image-keyboard-response,11
true,27,2,2,2,true,d,false,true,0.0-2.0-0.62-0.558-3.558,0,1,1,68,false,stim,false,1,338.89999997615814,0,1,0,38099,task3,1598066,false,false,1892,image-keyboard-response,12
true,27,2,2,2,true,d,false,true,0.0-2.0-0.62-0.559-3.559,0,1,1,68,false,stim,false,2,349.39999997615814,0,0,2,38099,task3,1599945,false,false,1895,image-keyboard-response,13
true,27,1,2,1,true,z,false,true,0.0-2.0-0.62-0.560-3.560,0,1,1,90,false,stim,false,1,1117.6000000238419,0,1,1,38099,task3,1602598,false,false,1898,image-keyboard-response,14
true,28,2,2,1,false,z,false,false,0.0-2.0-0.62-0.561-3.561,1,1,0,68,true,stim,true,2,730.1000000238419,0,0,2,38099,task3,1604884,false,false,1901,image-keyboard-response,1
true,28,2,2,2,true,d,false,true,0.0-2.0-0.62-0.562-3.562,1,1,0,68,false,stim,false,2,747.3999999761581,0,1,0,38099,task3,1607170,false,false,1904,image-keyboard-response,2
true,28,2,2,2,true,d,false,false,0.0-2.0-0.62-0.563-3.563,1,1,0,68,false,stim,false,2,553.6000000238419,0,1,0,38099,task3,1609260,false,true,1907,image-keyboard-response,3
true,28,1,2,1,true,z,false,true,0.0-2.0-0.62-0.564-3.564,1,1,0,90,false,stim,false,1,563.0,0,1,1,38099,task3,1611360,false,false,1910,image-keyboard-response,4
true,28,1,2,1,true,z,false,true,0.0-2.0-0.62-0.565-3.565,1,1,0,90,false,stim,false,1,538.8000000119209,0,1,1,38099,task3,1613433,false,false,1913,image-keyboard-response,5
true,28,2,2,1,false,z,false,false,0.0-2.0-0.62-0.566-3.566,1,1,0,68,false,stim,true,2,688.0,0,0,2,38099,task3,1615658,false,false,1916,image-keyboard-response,6
true,28,0,2,2,false,d,true,false,0.0-2.0-0.63-0.567-3.567,1,1,0,81,false,stim,false,2,696.3000000119209,0,1,0,38099,task3,1617883,false,false,1919,image-keyboard-response,7
true,28,1,2,1,true,z,false,true,0.0-2.0-0.63-0.568-3.568,1,1,0,90,false,stim,false,2,417.2999999523163,0,0,2,38099,task3,1619816,false,false,1922,image-keyboard-response,8
true,28,0,2,1,false,z,true,false,0.0-2.0-0.63-0.569-3.569,1,1,0,81,false,stim,false,1,841.3000000119209,0,1,1,38099,task3,1622188,false,false,1925,image-keyboard-response,9
true,28,2,2,1,false,z,true,false,0.0-2.0-0.63-0.570-3.570,1,1,0,68,false,stim,false,1,384.5,0,1,1,38099,task3,1624107,false,false,1928,image-keyboard-response,10
true,28,1,2,1,true,z,false,true,0.0-2.0-0.63-0.571-3.571,1,1,0,90,false,stim,false,2,483.5,0,0,2,38099,task3,1626123,false,false,1931,image-keyboard-response,11
true,28,0,2,2,false,d,true,true,0.0-2.0-0.63-0.572-3.572,1,1,0,81,false,stim,false,2,1159.5,0,1,0,38099,task3,1628808,false,true,1934,image-keyboard-response,12
true,28,0,2,1,false,z,true,false,0.0-2.0-0.63-0.573-3.573,1,1,0,81,false,stim,false,1,941.6999999880791,0,1,1,38099,task3,1631280,false,false,1937,image-keyboard-response,13
true,28,1,2,2,false,d,true,false,0.0-2.0-0.63-0.574-3.574,1,1,0,90,false,stim,false,2,919.8000000119209,0,1,0,38099,task3,1633730,false,false,1940,image-keyboard-response,14
true,28,2,2,1,false,z,false,false,0.0-2.0-0.63-0.575-3.575,1,1,0,68,false,stim,true,2,295.4000000357628,0,0,2,38099,task3,1635553,false,false,1943,image-keyboard-response,15
true,28,2,2,1,false,z,false,false,0.0-2.0-0.64-0.576-3.576,1,1,0,68,false,stim,true,2,1290.8999999761581,0,0,2,38099,task3,1638371,false,false,1946,image-keyboard-response,16
true,28,0,2,2,false,d,true,false,0.0-2.0-0.64-0.577-3.577,1,1,0,81,false,stim,false,2,715.5,0,1,0,38099,task3,1640600,false,false,1949,image-keyboard-response,17
true,28,1,2,1,true,z,false,true,0.0-2.0-0.64-0.578-3.578,1,1,0,90,false,stim,false,1,758.6999999880791,0,1,1,38099,task3,1642894,false,false,1952,image-keyboard-response,18
true,28,2,2,1,false,z,false,false,0.0-2.0-0.64-0.579-3.579,1,1,0,68,false,stim,true,2,651.7999999523163,0,0,2,38099,task3,1645083,false,false,1955,image-keyboard-response,19
true,28,0,2,2,false,d,true,false,0.0-2.0-0.64-0.580-3.580,1,1,0,81,false,stim,false,2,985.1999999880791,0,1,0,38099,task3,1647603,false,false,1958,image-keyboard-response,20
true,28,1,2,1,true,z,false,true,0.0-2.0-0.64-0.581-3.581,1,1,0,90,false,stim,false,1,1150.1000000238419,0,1,1,38099,task3,1650284,false,false,1961,image-keyboard-response,21
true,28,2,2,1,false,z,false,false,0.0-2.0-0.64-0.582-3.582,1,1,0,68,false,stim,true,2,749.0,0,0,2,38099,task3,1652551,false,false,1964,image-keyboard-response,22
true,28,1,2,1,true,z,false,true,0.0-2.0-0.64-0.583-3.583,1,1,0,90,false,stim,false,1,778.6000000238419,0,1,1,38099,task3,1654860,false,false,1967,image-keyboard-response,23
true,28,0,2,2,false,d,true,false,0.0-2.0-0.64-0.584-3.584,1,1,0,81,false,stim,false,2,1118.800000011921,0,0,0,38099,task3,1657512,false,false,1970,image-keyboard-response,24
true,28,1,2,1,true,z,false,true,0.0-2.0-0.65-0.585-3.585,1,1,0,90,false,stim,false,1,960.2000000476837,0,1,1,38099,task3,1660006,false,false,1973,image-keyboard-response,25
true,28,1,2,1,true,z,false,true,0.0-2.0-0.65-0.586-3.586,1,1,0,90,false,stim,false,1,498.5999999642372,0,1,1,38099,task3,1662028,false,false,1976,image-keyboard-response,26
true,28,1,2,1,true,z,false,true,0.0-2.0-0.65-0.587-3.587,1,1,0,90,false,stim,false,1,418.2000000476837,0,1,1,38099,task3,1663977,false,false,1979,image-keyboard-response,27
true,28,0,2,2,false,d,true,false,0.0-2.0-0.65-0.588-3.588,1,1,0,81,false,stim,false,2,775.6999999880791,0,0,0,38099,task3,1666285,false,false,1982,image-keyboard-response,28
true,29,2,1,1,false,z,false,false,0.0-2.0-0.65-0.589-3.589,0,1,0,68,true,stim,true,2,931.5999999642372,0,0,0,38099,task3,1668730,false,false,1985,image-keyboard-response,1
true,29,1,1,1,true,z,false,true,0.0-2.0-0.65-0.590-3.590,0,1,0,90,false,stim,false,2,434.80000001192093,0,0,0,38099,task3,1670705,false,false,1988,image-keyboard-response,2
