answered,blockNum,choice,condition,corResp,correct,correct_response,explo,fb,internal_node_id,isStable_1,isStable_2,isStable_3,key_press,newBlock,part,persev,persevResp,rt,sessNum,stableAS,stimulus,subject,task,time_elapsed,training,trap,trial_index,trial_type,trialsInBlock
true,1,1,0,1,true,z,false,true,0.0-2.0-0.0-0.0-3.0,0,0,0,90,true,stim,false,-1,1488,0,0,1,38448,task1,139967,false,false,124,image-keyboard-response,1
true,1,0,0,0,true,q,false,true,0.0-2.0-0.0-0.1-3.1,0,0,0,81,false,stim,false,-1,980,0,0,0,38448,task1,142490,false,false,127,image-keyboard-response,2
true,1,2,0,1,false,z,true,false,0.0-2.0-0.0-0.2-3.2,0,0,0,68,false,stim,false,-1,973,0,0,2,38448,task1,144993,false,false,130,image-keyboard-response,3
true,1,1,0,1,true,z,false,true,0.0-2.0-0.0-0.3-3.3,0,0,0,90,false,stim,false,-1,885,0,0,2,38448,task1,147405,false,false,133,image-keyboard-response,4
true,1,0,0,0,true,q,false,true,0.0-2.0-0.0-0.4-3.4,0,0,0,81,false,stim,false,-1,475,0,0,0,38448,task1,149415,false,false,136,image-keyboard-response,5
true,1,1,0,1,true,z,false,true,0.0-2.0-0.0-0.5-3.5,0,0,0,90,false,stim,false,-1,648,0,0,1,38448,task1,151587,false,false,139,image-keyboard-response,6
true,1,1,0,1,true,z,false,false,0.0-2.0-0.0-0.6-3.6,0,0,0,90,false,stim,false,-1,537,0,0,1,38448,task1,153651,false,true,142,image-keyboard-response,7
true,1,0,0,0,true,q,false,true,0.0-2.0-0.0-0.7-3.7,0,0,0,81,false,stim,false,-1,843,0,0,0,38448,task1,156023,false,false,145,image-keyboard-response,8
true,1,1,0,1,true,z,false,true,0.0-2.0-0.0-0.8-3.8,0,0,0,90,false,stim,false,-1,793,0,0,2,38448,task1,158353,false,false,148,image-keyboard-response,9
true,1,0,0,0,true,q,false,true,0.0-2.0-0.1-0.9-3.9,0,0,0,81,false,stim,false,-1,781,0,0,0,38448,task1,160660,false,false,151,image-keyboard-response,10
true,1,0,0,0,true,q,false,true,0.0-2.0-0.1-0.10-3.10,0,0,0,81,false,stim,false,-1,401,0,0,0,38448,task1,162599,false,false,154,image-keyboard-response,11
true,1,0,0,0,true,q,false,false,0.0-2.0-0.1-0.11-3.11,0,0,0,81,false,stim,false,-1,325,0,0,0,38448,task1,164453,false,true,157,image-keyboard-response,12
true,1,1,0,1,true,z,false,true,0.0-2.0-0.1-0.12-3.12,0,0,0,90,false,stim,false,-1,714,0,0,1,38448,task1,166702,false,false,160,image-keyboard-response,13
true,1,1,0,1,true,z,false,true,0.0-2.0-0.1-0.13-3.13,0,0,0,90,false,stim,false,-1,857,0,0,2,38448,task1,169085,false,false,163,image-keyboard-response,14
true,1,1,0,1,true,z,false,true,0.0-2.0-0.1-0.14-3.14,0,0,0,90,false,stim,false,-1,431,0,0,2,38448,task1,171029,false,false,166,image-keyboard-response,15
true,1,0,0,1,false,z,true,false,0.0-2.0-0.1-0.15-3.15,0,0,0,81,false,stim,false,-1,494,0,0,1,38448,task1,173054,false,false,169,image-keyboard-response,16
true,1,1,0,1,true,z,false,true,0.0-2.0-0.1-0.16-3.16,0,0,0,90,false,stim,false,-1,409,0,0,2,38448,task1,174988,false,false,172,image-keyboard-response,17
true,1,1,0,1,true,z,false,true,0.0-2.0-0.1-0.17-3.17,0,0,0,90,false,stim,false,-1,527,0,0,1,38448,task1,177046,false,false,175,image-keyboard-response,18
true,1,1,0,1,true,z,false,true,0.0-2.0-0.2-0.18-3.18,0,0,0,90,false,stim,false,-1,411,0,0,2,38448,task1,178990,false,false,178,image-keyboard-response,19
true,1,1,0,1,true,z,false,true,0.0-2.0-0.2-0.19-3.19,0,0,0,90,false,stim,false,-1,365,0,0,1,38448,task1,180885,false,false,181,image-keyboard-response,20
true,1,1,0,1,true,z,false,true,0.0-2.0-0.2-0.20-3.20,0,0,0,90,false,stim,false,-1,425,0,0,2,38448,task1,182844,false,false,184,image-keyboard-response,21
true,1,1,0,1,true,z,false,true,0.0-2.0-0.2-0.21-3.21,0,0,0,90,false,stim,false,-1,330,0,0,2,38448,task1,184709,false,false,187,image-keyboard-response,22
true,1,1,0,1,true,z,false,true,0.0-2.0-0.2-0.22-3.22,0,0,0,90,false,stim,false,-1,379,0,0,1,38448,task1,186597,false,false,190,image-keyboard-response,23
true,1,1,0,0,false,q,true,false,0.0-2.0-0.2-0.23-3.23,0,0,0,90,false,stim,false,-1,388,0,0,0,38448,task1,188526,false,false,193,image-keyboard-response,24
true,1,1,0,1,true,z,false,true,0.0-2.0-0.2-0.24-3.24,0,0,0,90,false,stim,false,-1,866,0,0,1,38448,task1,190914,false,false,196,image-keyboard-response,25
true,1,2,0,0,false,q,true,true,0.0-2.0-0.2-0.25-3.25,0,0,0,68,false,stim,false,-1,410,0,0,0,38448,task1,192859,false,true,199,image-keyboard-response,26
true,2,2,1,2,true,d,false,true,0.0-2.0-0.2-0.26-3.26,0,0,0,68,true,stim,false,0,420,0,0,0,38448,task1,194808,false,false,202,image-keyboard-response,1
true,2,1,1,0,false,q,false,false,0.0-2.0-0.3-0.27-3.27,0,0,0,90,false,stim,true,1,538,0,0,2,38448,task1,196877,false,false,205,image-keyboard-response,2
true,2,2,1,2,true,d,false,true,0.0-2.0-0.3-0.28-3.28,0,0,0,68,false,stim,false,0,550,0,0,0,38448,task1,198950,false,false,208,image-keyboard-response,3
true,2,0,1,0,true,q,false,true,0.0-2.0-0.3-0.29-3.29,0,0,0,81,false,stim,false,1,476,0,0,2,38448,task1,200954,false,false,211,image-keyboard-response,4
true,2,2,1,2,true,d,false,false,0.0-2.0-0.3-0.30-3.30,0,0,0,68,false,stim,false,0,714,0,0,0,38448,task1,203192,false,true,214,image-keyboard-response,5
true,2,0,1,0,true,q,false,true,0.0-2.0-0.3-0.31-3.31,0,0,0,81,false,stim,false,1,561,0,0,2,38448,task1,205281,false,false,217,image-keyboard-response,6
true,2,0,1,2,false,d,false,false,0.0-2.0-0.3-0.32-3.32,0,0,0,81,false,stim,true,0,1691,0,0,0,38448,task1,208510,false,false,220,image-keyboard-response,7
true,2,1,1,2,false,d,false,false,0.0-2.0-0.3-0.33-3.33,0,0,0,90,false,stim,true,1,760,0,0,1,38448,task1,210799,false,false,223,image-keyboard-response,8
true,2,2,1,2,true,d,false,true,0.0-2.0-0.3-0.34-3.34,0,0,0,68,false,stim,false,1,965,0,0,1,38448,task1,213305,false,false,226,image-keyboard-response,9
true,2,2,1,2,true,d,false,true,0.0-2.0-0.3-0.35-3.35,0,0,0,68,false,stim,false,1,600,0,0,1,38448,task1,215430,false,false,229,image-keyboard-response,10
true,2,0,1,2,false,d,false,false,0.0-2.0-0.4-0.36-3.36,0,0,0,81,false,stim,true,0,1845,0,0,0,38448,task1,218815,false,false,232,image-keyboard-response,11
true,2,2,1,2,true,d,false,true,0.0-2.0-0.4-0.37-3.37,0,0,0,68,false,stim,false,1,1392,0,0,1,38448,task1,221740,false,false,235,image-keyboard-response,12
true,2,2,1,2,true,d,false,true,0.0-2.0-0.4-0.38-3.38,0,0,0,68,false,stim,false,1,446,0,0,1,38448,task1,223715,false,false,238,image-keyboard-response,13
true,2,1,1,2,false,d,true,false,0.0-2.0-0.4-0.39-3.39,0,0,0,90,false,stim,false,0,1322,0,0,0,38448,task1,226571,false,false,241,image-keyboard-response,14
true,2,2,1,0,false,q,true,false,0.0-2.0-0.4-0.40-3.40,0,0,0,68,false,stim,false,1,827,0,0,2,38448,task1,228936,false,false,244,image-keyboard-response,15
true,2,1,1,0,false,q,false,false,0.0-2.0-0.4-0.41-3.41,0,0,0,90,false,stim,true,1,1171,0,0,2,38448,task1,231640,false,false,247,image-keyboard-response,16
true,2,0,1,0,true,q,false,true,0.0-2.0-0.4-0.42-3.42,0,0,0,81,false,stim,false,1,535,0,0,2,38448,task1,233715,false,false,250,image-keyboard-response,17
true,2,2,1,2,true,d,false,true,0.0-2.0-0.4-0.43-3.43,0,0,0,68,false,stim,false,1,899,0,0,1,38448,task1,236137,false,false,253,image-keyboard-response,18
true,2,1,1,2,false,d,true,false,0.0-2.0-0.4-0.44-3.44,0,0,0,90,false,stim,false,0,825,0,0,0,38448,task1,238494,false,false,256,image-keyboard-response,19
true,2,2,1,2,true,d,false,true,0.0-2.0-0.5-0.45-3.45,0,0,0,68,false,stim,false,0,885,0,0,0,38448,task1,240913,false,false,259,image-keyboard-response,20
true,2,0,1,0,true,q,false,true,0.0-2.0-0.5-0.46-3.46,0,0,0,81,false,stim,false,1,453,0,0,2,38448,task1,242893,false,false,262,image-keyboard-response,21
true,2,2,1,2,true,d,false,true,0.0-2.0-0.5-0.47-3.47,0,0,0,68,false,stim,false,1,491,0,0,1,38448,task1,244910,false,false,265,image-keyboard-response,22
true,2,2,1,2,true,d,false,true,0.0-2.0-0.5-0.48-3.48,0,0,0,68,false,stim,false,0,385,0,0,0,38448,task1,246824,false,false,268,image-keyboard-response,23
true,2,2,1,2,true,d,false,true,0.0-2.0-0.5-0.49-3.49,0,0,0,68,false,stim,false,0,335,0,0,0,38448,task1,248693,false,false,271,image-keyboard-response,24
true,2,0,1,0,true,q,false,true,0.0-2.0-0.5-0.50-3.50,0,0,0,81,false,stim,false,1,627,0,0,2,38448,task1,250847,false,false,274,image-keyboard-response,25
true,2,2,1,2,true,d,false,true,0.0-2.0-0.5-0.51-3.51,0,0,0,68,false,stim,false,1,572,0,0,1,38448,task1,252941,false,false,277,image-keyboard-response,26
true,2,0,1,0,true,q,false,true,0.0-2.0-0.5-0.52-3.52,0,0,0,81,false,stim,false,1,587,0,0,2,38448,task1,255044,false,false,280,image-keyboard-response,27
true,2,2,1,2,true,d,false,true,0.0-2.0-0.5-0.53-3.53,0,0,0,68,false,stim,false,1,638,0,0,1,38448,task1,257218,false,false,283,image-keyboard-response,28
true,2,2,1,2,true,d,false,true,0.0-2.0-0.6-0.54-3.54,0,0,0,68,false,stim,false,0,342,0,0,0,38448,task1,259101,false,false,286,image-keyboard-response,29
true,2,2,1,2,true,d,false,false,0.0-2.0-0.6-0.55-3.55,0,0,0,68,false,stim,false,0,336,0,0,0,38448,task1,260976,false,true,289,image-keyboard-response,30
true,2,0,1,0,true,q,false,true,0.0-2.0-0.6-0.56-3.56,0,0,0,81,false,stim,false,1,432,0,0,2,38448,task1,262930,false,false,292,image-keyboard-response,31
true,2,2,1,2,true,d,false,true,0.0-2.0-0.6-0.57-3.57,0,0,0,68,false,stim,false,1,550,0,0,1,38448,task1,265009,false,false,295,image-keyboard-response,32
true,2,0,1,0,true,q,false,true,0.0-2.0-0.6-0.58-3.58,0,0,0,81,false,stim,false,1,398,0,0,2,38448,task1,266947,false,false,298,image-keyboard-response,33
true,2,2,1,2,true,d,false,true,0.0-2.0-0.6-0.59-3.59,0,0,0,68,false,stim,false,1,498,0,0,1,38448,task1,268991,false,false,301,image-keyboard-response,34
true,2,0,1,2,false,d,false,false,0.0-2.0-0.6-0.60-3.60,0,0,0,81,false,stim,true,0,636,0,0,0,38448,task1,271165,false,false,304,image-keyboard-response,35
true,2,0,1,0,true,q,false,true,0.0-2.0-0.6-0.61-3.61,0,0,0,81,false,stim,false,1,614,0,0,2,38448,task1,273304,false,false,307,image-keyboard-response,36
true,2,2,1,2,true,d,false,true,0.0-2.0-0.6-0.62-3.62,0,0,0,68,false,stim,false,1,1053,0,0,1,38448,task1,275881,false,false,310,image-keyboard-response,37
true,2,0,1,0,true,q,false,true,0.0-2.0-0.7-0.63-3.63,0,0,0,81,false,stim,false,1,1925,0,0,2,38448,task1,279336,false,false,313,image-keyboard-response,38
true,2,0,1,0,true,q,false,true,0.0-2.0-0.7-0.64-3.64,0,0,0,81,false,stim,false,1,455,0,0,2,38448,task1,281325,false,false,316,image-keyboard-response,39
true,2,1,1,2,false,d,true,false,0.0-2.0-0.7-0.65-3.65,0,0,0,90,false,stim,false,0,871,0,0,0,38448,task1,283721,false,false,319,image-keyboard-response,40
true,3,2,1,0,false,q,false,false,0.0-2.0-0.7-0.66-3.66,0,0,0,68,true,stim,true,2,880,0,0,0,38448,task1,286139,false,false,322,image-keyboard-response,1
true,3,2,1,0,false,q,false,false,0.0-2.0-0.7-0.67-3.67,0,0,0,68,false,stim,true,2,837,0,0,1,38448,task1,288517,false,false,325,image-keyboard-response,2
true,3,0,1,2,false,d,false,true,0.0-2.0-0.7-0.68-3.68,0,0,0,81,false,stim,true,0,412,0,0,2,38448,task1,290471,false,true,328,image-keyboard-response,3
true,3,0,1,0,true,q,false,true,0.0-2.0-0.7-0.69-3.69,0,0,0,81,false,stim,false,2,255,0,0,1,38448,task1,292265,false,false,331,image-keyboard-response,4
true,3,0,1,0,true,q,false,true,0.0-2.0-0.7-0.70-3.70,0,0,0,81,false,stim,false,2,231,0,0,1,38448,task1,294019,false,false,334,image-keyboard-response,5
true,3,0,1,0,true,q,false,true,0.0-2.0-0.7-0.71-3.71,0,0,0,81,false,stim,false,2,80,0,0,0,38448,task1,295630,false,false,337,image-keyboard-response,6
true,3,0,1,2,false,d,false,false,0.0-2.0-0.8-0.72-3.72,0,0,0,81,false,stim,true,0,6,0,0,2,38448,task1,297175,false,false,340,image-keyboard-response,7
true,3,0,1,0,true,q,false,true,0.0-2.0-0.8-0.73-3.73,0,0,0,81,false,stim,false,2,346,0,0,0,38448,task1,299045,false,false,343,image-keyboard-response,8
true,3,1,1,2,false,d,true,false,0.0-2.0-0.8-0.74-3.74,0,0,0,90,false,stim,false,0,499,0,0,2,38448,task1,301079,false,false,346,image-keyboard-response,9
true,3,0,1,0,true,q,false,true,0.0-2.0-0.8-0.75-3.75,0,0,0,81,false,stim,false,2,418,0,0,1,38448,task1,303038,false,false,349,image-keyboard-response,10
true,3,0,1,0,true,q,false,true,0.0-2.0-0.8-0.76-3.76,0,0,0,81,false,stim,false,2,368,0,0,0,38448,task1,304936,false,false,352,image-keyboard-response,11
true,3,2,1,2,true,d,false,true,0.0-2.0-0.8-0.77-3.77,0,0,0,68,false,stim,false,0,361,0,0,2,38448,task1,306830,false,false,355,image-keyboard-response,12
true,3,0,1,0,true,q,false,true,0.0-2.0-0.8-0.78-3.78,0,0,0,81,false,stim,false,2,431,0,0,1,38448,task1,308799,false,false,358,image-keyboard-response,13
true,3,0,1,0,true,q,false,true,0.0-2.0-0.8-0.79-3.79,0,0,0,81,false,stim,false,2,356,0,0,0,38448,task1,310686,false,false,361,image-keyboard-response,14
true,3,0,1,0,true,q,false,true,0.0-2.0-0.8-0.80-3.80,0,0,0,81,false,stim,false,2,505,0,0,1,38448,task1,312714,false,false,364,image-keyboard-response,15
true,3,2,1,2,true,d,false,true,0.0-2.0-0.9-0.81-3.81,0,0,0,68,false,stim,false,0,901,0,0,2,38448,task1,315150,false,false,367,image-keyboard-response,16
true,3,0,1,0,true,q,false,true,0.0-2.0-0.9-0.82-3.82,0,0,0,81,false,stim,false,2,1628,0,0,1,38448,task1,318306,false,false,370,image-keyboard-response,17
true,3,2,1,2,true,d,false,true,0.0-2.0-0.9-0.83-3.83,0,0,0,68,false,stim,false,0,530,0,0,2,38448,task1,320369,false,false,373,image-keyboard-response,18
true,3,0,1,0,true,q,false,true,0.0-2.0-0.9-0.84-3.84,0,0,0,81,false,stim,false,2,559,0,0,0,38448,task1,322458,false,false,376,image-keyboard-response,19
true,3,0,1,0,true,q,false,true,0.0-2.0-0.9-0.85-3.85,0,0,0,81,false,stim,false,2,372,0,0,0,38448,task1,324372,false,false,379,image-keyboard-response,20
true,3,0,1,0,true,q,false,true,0.0-2.0-0.9-0.86-3.86,0,0,0,81,false,stim,false,2,1464,0,0,1,38448,task1,327358,false,false,382,image-keyboard-response,21
true,3,2,1,2,true,d,false,true,0.0-2.0-0.9-0.87-3.87,0,0,0,68,false,stim,false,0,1519,0,0,2,38448,task1,330398,false,false,385,image-keyboard-response,22
true,3,0,1,0,true,q,false,true,0.0-2.0-0.9-0.88-3.88,0,0,0,81,false,stim,false,2,867,0,0,1,38448,task1,332806,false,false,388,image-keyboard-response,23
true,3,0,1,0,true,q,false,true,0.0-2.0-0.9-0.89-3.89,0,0,0,81,false,stim,false,2,472,0,0,0,38448,task1,334810,false,false,391,image-keyboard-response,24
true,3,0,1,0,true,q,false,true,0.0-2.0-0.10-0.90-3.90,0,0,0,81,false,stim,false,2,644,0,0,1,38448,task1,336983,false,false,394,image-keyboard-response,25
true,3,2,1,2,true,d,false,true,0.0-2.0-0.10-0.91-3.91,0,0,0,68,false,stim,false,0,1444,0,0,2,38448,task1,339963,false,false,397,image-keyboard-response,26
true,3,0,1,0,true,q,false,true,0.0-2.0-0.10-0.92-3.92,0,0,0,81,false,stim,false,2,1041,0,0,0,38448,task1,342531,false,false,400,image-keyboard-response,27
true,3,2,1,2,true,d,false,false,0.0-2.0-0.10-0.93-3.93,0,0,0,68,false,stim,false,0,1014,0,0,2,38448,task1,345084,false,true,403,image-keyboard-response,28
true,3,0,1,0,true,q,false,true,0.0-2.0-0.10-0.94-3.94,0,0,0,81,false,stim,false,2,417,0,0,1,38448,task1,347026,false,false,406,image-keyboard-response,29
true,3,0,1,0,true,q,false,true,0.0-2.0-0.10-0.95-3.95,0,0,0,81,false,stim,false,2,383,0,0,1,38448,task1,348940,false,false,409,image-keyboard-response,30
true,3,1,1,2,false,d,true,true,0.0-2.0-0.10-0.96-3.96,0,0,0,90,false,stim,false,0,809,0,0,2,38448,task1,351290,false,true,412,image-keyboard-response,31
true,3,0,1,0,true,q,false,true,0.0-2.0-0.10-0.97-3.97,0,0,0,81,false,stim,false,2,543,0,0,0,38448,task1,353362,false,false,415,image-keyboard-response,32
true,3,0,1,0,true,q,false,true,0.0-2.0-0.10-0.98-3.98,0,0,0,81,false,stim,false,2,472,0,0,0,38448,task1,355371,false,false,418,image-keyboard-response,33
true,3,1,1,2,false,d,true,false,0.0-2.0-0.11-0.99-3.99,0,0,0,90,false,stim,false,0,565,0,0,2,38448,task1,357465,false,false,421,image-keyboard-response,34
true,3,0,1,0,true,q,false,true,0.0-2.0-0.11-0.100-3.100,0,0,0,81,false,stim,false,2,460,0,0,0,38448,task1,359458,false,false,424,image-keyboard-response,35
true,3,0,1,0,true,q,false,true,0.0-2.0-0.11-0.101-3.101,0,0,0,81,false,stim,false,2,345,0,0,0,38448,task1,361343,false,false,427,image-keyboard-response,36
true,3,0,1,0,true,q,false,true,0.0-2.0-0.11-0.102-3.102,0,0,0,81,false,stim,false,2,831,0,0,1,38448,task1,363710,false,false,430,image-keyboard-response,37
true,3,0,1,0,true,q,false,true,0.0-2.0-0.11-0.103-3.103,0,0,0,81,false,stim,false,2,371,0,0,1,38448,task1,365611,false,false,433,image-keyboard-response,38
true,3,2,1,2,true,d,false,true,0.0-2.0-0.11-0.104-3.104,0,0,0,68,false,stim,false,0,604,0,0,2,38448,task1,367753,false,false,436,image-keyboard-response,39
true,3,0,1,0,true,q,false,true,0.0-2.0-0.11-0.105-3.105,0,0,0,81,false,stim,false,2,471,0,0,0,38448,task1,369761,false,false,439,image-keyboard-response,40
true,3,2,1,2,true,d,false,true,0.0-2.0-0.11-0.106-3.106,0,0,0,68,false,stim,false,0,735,0,0,2,38448,task1,372025,false,false,442,image-keyboard-response,41
true,4,0,1,2,false,d,false,false,0.0-2.0-0.11-0.107-3.107,0,0,0,81,true,stim,true,0,450,0,0,1,38448,task1,373999,false,false,445,image-keyboard-response,1
true,4,1,1,2,false,d,true,false,0.0-2.0-0.12-0.108-3.108,0,0,0,90,false,stim,false,0,821,0,0,1,38448,task1,376341,false,false,448,image-keyboard-response,2
true,4,0,1,1,false,z,false,true,0.0-2.0-0.12-0.109-3.109,0,0,0,81,false,stim,true,0,666,0,0,0,38448,task1,378545,false,true,451,image-keyboard-response,3
true,4,2,1,2,true,d,false,true,0.0-2.0-0.12-0.110-3.110,0,0,0,68,false,stim,false,0,525,0,0,1,38448,task1,380603,false,false,454,image-keyboard-response,4
true,4,0,1,1,false,z,false,false,0.0-2.0-0.12-0.111-3.111,0,0,0,81,false,stim,true,0,980,0,0,0,38448,task1,383120,false,false,457,image-keyboard-response,5
true,4,2,1,1,false,z,false,false,0.0-2.0-0.12-0.112-3.112,0,0,0,68,false,stim,true,2,454,0,0,2,38448,task1,385115,false,false,460,image-keyboard-response,6
true,4,1,1,1,true,z,false,true,0.0-2.0-0.12-0.113-3.113,0,0,0,90,false,stim,false,0,1082,0,0,0,38448,task1,387720,false,false,463,image-keyboard-response,7
true,4,2,1,1,false,z,false,false,0.0-2.0-0.12-0.114-3.114,0,0,0,68,false,stim,true,2,1109,0,0,2,38448,task1,390368,false,false,466,image-keyboard-response,8
true,4,0,1,1,false,z,true,false,0.0-2.0-0.12-0.115-3.115,0,0,0,81,false,stim,false,2,1550,0,0,2,38448,task1,393450,false,false,469,image-keyboard-response,9
true,4,2,1,2,true,d,false,true,0.0-2.0-0.12-0.116-3.116,0,0,0,68,false,stim,false,0,777,0,0,1,38448,task1,395757,false,false,472,image-keyboard-response,10
true,4,1,1,1,true,z,false,true,0.0-2.0-0.13-0.117-3.117,0,0,0,90,false,stim,false,0,526,0,0,0,38448,task1,397815,false,false,475,image-keyboard-response,11
true,4,1,1,1,true,z,false,true,0.0-2.0-0.13-0.118-3.118,0,0,0,90,false,stim,false,0,534,0,0,0,38448,task1,399874,false,false,478,image-keyboard-response,12
true,4,2,1,2,true,d,false,true,0.0-2.0-0.13-0.119-3.119,0,0,0,68,false,stim,false,0,792,0,0,1,38448,task1,402192,false,false,481,image-keyboard-response,13
true,4,1,1,1,true,z,false,true,0.0-2.0-0.13-0.120-3.120,0,0,0,90,false,stim,false,2,590,0,0,2,38448,task1,404310,false,false,484,image-keyboard-response,14
true,4,1,1,1,true,z,false,true,0.0-2.0-0.13-0.121-3.121,0,0,0,90,false,stim,false,2,585,0,0,2,38448,task1,406425,false,false,487,image-keyboard-response,15
true,4,2,1,1,false,z,true,false,0.0-2.0-0.13-0.122-3.122,0,0,0,68,false,stim,false,0,398,0,0,0,38448,task1,408359,false,false,490,image-keyboard-response,16
true,4,2,1,2,true,d,false,true,0.0-2.0-0.13-0.123-3.123,0,0,0,68,false,stim,false,0,553,0,0,1,38448,task1,410453,false,false,493,image-keyboard-response,17
true,4,2,1,2,true,d,false,true,0.0-2.0-0.13-0.124-3.124,0,0,0,68,false,stim,false,0,447,0,0,1,38448,task1,412427,false,false,496,image-keyboard-response,18
true,4,1,1,1,true,z,false,true,0.0-2.0-0.13-0.125-3.125,0,0,0,90,false,stim,false,2,565,0,0,2,38448,task1,414515,false,false,499,image-keyboard-response,19
true,4,1,1,1,true,z,false,true,0.0-2.0-0.14-0.126-3.126,0,0,0,90,false,stim,false,2,397,0,0,2,38448,task1,416445,false,false,502,image-keyboard-response,20
true,4,2,1,2,true,d,false,true,0.0-2.0-0.14-0.127-3.127,0,0,0,68,false,stim,false,0,629,0,0,1,38448,task1,418597,false,false,505,image-keyboard-response,21
true,4,0,1,1,false,z,false,false,0.0-2.0-0.14-0.128-3.128,0,0,0,81,false,stim,true,0,1474,0,0,0,38448,task1,421603,false,false,508,image-keyboard-response,22
true,4,1,1,1,true,z,false,true,0.0-2.0-0.14-0.129-3.129,0,0,0,90,false,stim,false,0,483,0,0,0,38448,task1,423611,false,false,511,image-keyboard-response,23
true,4,2,1,1,false,z,false,false,0.0-2.0-0.14-0.130-3.130,0,0,0,68,false,stim,true,2,476,0,0,2,38448,task1,425616,false,false,514,image-keyboard-response,24
true,4,2,1,2,true,d,false,false,0.0-2.0-0.14-0.131-3.131,0,0,0,68,false,stim,false,0,1010,0,0,1,38448,task1,428148,false,true,517,image-keyboard-response,25
true,4,0,1,1,false,z,true,true,0.0-2.0-0.14-0.132-3.132,0,0,0,81,false,stim,false,2,1411,0,0,2,38448,task1,431100,false,true,520,image-keyboard-response,26
true,4,1,1,1,true,z,false,true,0.0-2.0-0.14-0.133-3.133,0,0,0,90,false,stim,false,0,704,0,0,0,38448,task1,433334,false,false,523,image-keyboard-response,27
true,4,1,1,2,false,d,true,false,0.0-2.0-0.14-0.134-3.134,0,0,0,90,false,stim,false,0,561,0,0,1,38448,task1,435426,false,false,526,image-keyboard-response,28
true,4,1,1,1,true,z,false,true,0.0-2.0-0.15-0.135-3.135,0,0,0,90,false,stim,false,0,815,0,0,0,38448,task1,437764,false,false,529,image-keyboard-response,29
true,4,2,1,1,false,z,false,false,0.0-2.0-0.15-0.136-3.136,0,0,0,68,false,stim,true,2,548,0,0,2,38448,task1,439838,false,false,532,image-keyboard-response,30
true,4,1,1,1,true,z,false,true,0.0-2.0-0.15-0.137-3.137,0,0,0,90,false,stim,false,0,611,0,0,0,38448,task1,441981,false,false,535,image-keyboard-response,31
true,4,0,1,1,false,z,true,false,0.0-2.0-0.15-0.138-3.138,0,0,0,81,false,stim,false,2,360,0,0,2,38448,task1,443870,false,false,538,image-keyboard-response,32
true,4,1,1,1,true,z,false,true,0.0-2.0-0.15-0.139-3.139,0,0,0,90,false,stim,false,0,475,0,0,0,38448,task1,445884,false,false,541,image-keyboard-response,33
true,4,0,1,2,false,d,false,false,0.0-2.0-0.15-0.140-3.140,0,0,0,81,false,stim,true,0,409,0,0,1,38448,task1,447829,false,false,544,image-keyboard-response,34
true,4,1,1,2,false,d,true,false,0.0-2.0-0.15-0.141-3.141,0,0,0,90,false,stim,false,0,189,0,0,1,38448,task1,449548,false,false,547,image-keyboard-response,35
true,4,1,1,1,true,z,false,true,0.0-2.0-0.15-0.142-3.142,0,0,0,90,false,stim,false,2,552,0,0,2,38448,task1,451632,false,false,550,image-keyboard-response,36
true,4,2,1,2,true,d,false,true,0.0-2.0-0.15-0.143-3.143,0,0,0,68,false,stim,false,0,621,0,0,1,38448,task1,453791,false,false,553,image-keyboard-response,37
true,4,1,1,1,true,z,false,false,0.0-2.0-0.16-0.144-3.144,0,0,0,90,false,stim,false,0,853,0,0,0,38448,task1,456183,false,true,556,image-keyboard-response,38
true,4,2,1,2,true,d,false,true,0.0-2.0-0.16-0.145-3.145,0,0,0,68,false,stim,false,0,398,0,0,1,38448,task1,458118,false,false,559,image-keyboard-response,39
true,4,1,1,1,true,z,false,true,0.0-2.0-0.16-0.146-3.146,0,0,0,90,false,stim,false,2,1490,0,0,2,38448,task1,461149,false,false,562,image-keyboard-response,40
true,4,1,1,1,true,z,false,true,0.0-2.0-0.16-0.147-3.147,0,0,0,90,false,stim,false,2,452,0,0,2,38448,task1,463131,false,false,565,image-keyboard-response,41
true,4,1,1,1,true,z,false,true,0.0-2.0-0.16-0.148-3.148,0,0,0,90,false,stim,false,2,679,0,0,2,38448,task1,465340,false,false,568,image-keyboard-response,42
true,4,2,1,2,true,d,false,true,0.0-2.0-0.16-0.149-3.149,0,0,0,68,false,stim,false,0,735,0,0,1,38448,task1,467613,false,false,571,image-keyboard-response,43
true,5,0,2,0,true,q,false,true,0.0-2.0-0.16-0.150-3.150,0,0,0,81,true,stim,false,1,1380,0,0,0,38448,task1,470519,false,false,574,image-keyboard-response,1
true,5,0,2,0,true,q,false,true,0.0-2.0-0.16-0.151-3.151,0,0,0,81,false,stim,false,1,474,0,0,0,38448,task1,472533,false,false,577,image-keyboard-response,2
true,5,2,2,0,false,q,false,true,0.0-2.0-0.16-0.152-3.152,0,0,0,68,false,stim,true,2,1848,0,0,1,38448,task1,475908,false,true,580,image-keyboard-response,3
true,5,2,2,0,false,q,false,false,0.0-2.0-0.17-0.153-3.153,0,0,0,68,false,stim,true,2,582,0,0,1,38448,task1,478021,false,false,583,image-keyboard-response,4
true,5,0,2,0,true,q,false,true,0.0-2.0-0.17-0.154-3.154,0,0,0,81,false,stim,false,1,2435,0,0,0,38448,task1,481994,false,false,586,image-keyboard-response,5
true,5,1,2,2,false,d,false,false,0.0-2.0-0.17-0.155-3.155,0,0,0,90,false,stim,true,1,723,0,0,2,38448,task1,484243,false,false,589,image-keyboard-response,6
true,5,0,2,2,false,d,true,false,0.0-2.0-0.17-0.156-3.156,0,0,0,81,false,stim,false,1,741,0,0,2,38448,task1,486520,false,false,592,image-keyboard-response,7
true,5,0,2,0,true,q,false,true,0.0-2.0-0.17-0.157-3.157,0,0,0,81,false,stim,false,1,640,0,0,0,38448,task1,488699,false,false,595,image-keyboard-response,8
true,5,2,2,2,true,d,false,true,0.0-2.0-0.17-0.158-3.158,0,0,0,68,false,stim,false,1,432,0,0,2,38448,task1,490672,false,false,598,image-keyboard-response,9
true,5,0,2,0,true,q,false,false,0.0-2.0-0.17-0.159-3.159,0,0,0,81,false,stim,false,1,652,0,0,0,38448,task1,492866,false,true,601,image-keyboard-response,10
true,5,2,2,0,false,q,false,false,0.0-2.0-0.17-0.160-3.160,0,0,0,68,false,stim,true,2,974,0,0,1,38448,task1,495363,false,false,604,image-keyboard-response,11
true,5,0,2,0,true,q,false,true,0.0-2.0-0.17-0.161-3.161,0,0,0,81,false,stim,false,2,991,0,0,1,38448,task1,497880,false,false,607,image-keyboard-response,12
true,5,0,2,0,true,q,false,true,0.0-2.0-0.18-0.162-3.162,0,0,0,81,false,stim,false,2,440,0,0,1,38448,task1,499849,false,false,610,image-keyboard-response,13
true,5,0,2,0,true,q,false,true,0.0-2.0-0.18-0.163-3.163,0,0,0,81,false,stim,false,1,893,0,0,0,38448,task1,502282,false,false,613,image-keyboard-response,14
true,5,0,2,0,true,q,false,true,0.0-2.0-0.18-0.164-3.164,0,0,0,81,false,stim,false,2,456,0,0,1,38448,task1,504265,false,false,616,image-keyboard-response,15
true,5,1,2,2,false,d,false,false,0.0-2.0-0.18-0.165-3.165,0,0,0,90,false,stim,true,1,519,0,0,2,38448,task1,506310,false,false,619,image-keyboard-response,16
true,5,0,2,2,false,d,true,false,0.0-2.0-0.18-0.166-3.166,0,0,0,81,false,stim,false,1,333,0,0,2,38448,task1,508184,false,false,622,image-keyboard-response,17
true,5,0,2,0,true,q,false,true,0.0-2.0-0.18-0.167-3.167,0,0,0,81,false,stim,false,2,558,0,0,1,38448,task1,510277,false,false,625,image-keyboard-response,18
true,5,2,2,0,false,q,true,false,0.0-2.0-0.18-0.168-3.168,0,0,0,68,false,stim,false,1,625,0,0,0,38448,task1,512426,false,false,628,image-keyboard-response,19
true,5,0,2,0,true,q,false,true,0.0-2.0-0.18-0.169-3.169,0,0,0,81,false,stim,false,1,469,0,0,0,38448,task1,514430,false,false,631,image-keyboard-response,20
true,5,2,2,2,true,d,false,true,0.0-2.0-0.18-0.170-3.170,0,0,0,68,false,stim,false,1,1062,0,0,2,38448,task1,517021,false,false,634,image-keyboard-response,21
true,5,0,2,0,true,q,false,false,0.0-2.0-0.19-0.171-3.171,0,0,0,81,false,stim,false,2,729,0,0,1,38448,task1,519289,false,true,637,image-keyboard-response,22
true,5,0,2,0,true,q,false,true,0.0-2.0-0.19-0.172-3.172,0,0,0,81,false,stim,false,1,2457,0,0,0,38448,task1,523277,false,false,640,image-keyboard-response,23
true,5,2,2,2,true,d,false,true,0.0-2.0-0.19-0.173-3.173,0,0,0,68,false,stim,false,1,1148,0,0,2,38448,task1,525949,false,false,643,image-keyboard-response,24
true,5,2,2,2,true,d,false,true,0.0-2.0-0.19-0.174-3.174,0,0,0,68,false,stim,false,1,487,0,0,2,38448,task1,527967,false,false,646,image-keyboard-response,25
true,5,0,2,0,true,q,false,true,0.0-2.0-0.19-0.175-3.175,0,0,0,81,false,stim,false,1,582,0,0,0,38448,task1,530081,false,false,649,image-keyboard-response,26
true,5,2,2,2,true,d,false,true,0.0-2.0-0.19-0.176-3.176,0,0,0,68,false,stim,false,1,1293,0,0,2,38448,task1,532911,false,false,652,image-keyboard-response,27
true,5,0,2,0,true,q,false,true,0.0-2.0-0.19-0.177-3.177,0,0,0,81,false,stim,false,1,2140,0,0,0,38448,task1,536580,false,false,655,image-keyboard-response,28
true,5,0,2,0,true,q,false,true,0.0-2.0-0.19-0.178-3.178,0,0,0,81,false,stim,false,2,600,0,0,1,38448,task1,538709,false,false,658,image-keyboard-response,29
true,5,0,2,0,true,q,false,true,0.0-2.0-0.19-0.179-3.179,0,0,0,81,false,stim,false,2,390,0,0,1,38448,task1,540638,false,false,661,image-keyboard-response,30
true,5,0,2,0,true,q,false,true,0.0-2.0-0.20-0.180-3.180,0,0,0,81,false,stim,false,1,611,0,0,0,38448,task1,542781,false,false,664,image-keyboard-response,31
true,5,0,2,0,true,q,false,true,0.0-2.0-0.20-0.181-3.181,0,0,0,81,false,stim,false,1,362,0,0,0,38448,task1,544671,false,false,667,image-keyboard-response,32
true,5,0,2,0,true,q,false,true,0.0-2.0-0.20-0.182-3.182,0,0,0,81,false,stim,false,1,359,0,0,0,38448,task1,546570,false,false,670,image-keyboard-response,33
true,5,2,2,2,true,d,false,true,0.0-2.0-0.20-0.183-3.183,0,0,0,68,false,stim,false,1,550,0,0,2,38448,task1,548658,false,false,673,image-keyboard-response,34
true,5,2,2,2,true,d,false,true,0.0-2.0-0.20-0.184-3.184,0,0,0,68,false,stim,false,1,262,0,0,2,38448,task1,550452,false,false,676,image-keyboard-response,35
true,5,2,2,2,true,d,false,true,0.0-2.0-0.20-0.185-3.185,0,0,0,68,false,stim,false,1,362,0,0,2,38448,task1,552342,false,false,679,image-keyboard-response,36
true,5,0,2,0,true,q,false,true,0.0-2.0-0.20-0.186-3.186,0,0,0,81,false,stim,false,2,487,0,0,1,38448,task1,554366,false,false,682,image-keyboard-response,37
true,5,0,2,0,true,q,false,true,0.0-2.0-0.20-0.187-3.187,0,0,0,81,false,stim,false,2,430,0,0,1,38448,task1,556330,false,false,685,image-keyboard-response,38
true,5,0,2,0,true,q,false,true,0.0-2.0-0.20-0.188-3.188,0,0,0,81,false,stim,false,2,346,0,0,1,38448,task1,558204,false,false,688,image-keyboard-response,39
true,5,0,2,0,true,q,false,true,0.0-2.0-0.21-0.189-3.189,0,0,0,81,false,stim,false,1,288,0,0,0,38448,task1,560029,false,false,691,image-keyboard-response,40
true,5,2,2,2,true,d,false,true,0.0-2.0-0.21-0.190-3.190,0,0,0,68,false,stim,false,1,379,0,0,2,38448,task1,561938,false,false,694,image-keyboard-response,41
true,5,0,2,0,true,q,false,true,0.0-2.0-0.21-0.191-3.191,0,0,0,81,false,stim,false,1,337,0,0,0,38448,task1,563817,false,false,697,image-keyboard-response,42
true,5,0,2,0,true,q,false,true,0.0-2.0-0.21-0.192-3.192,0,0,0,81,false,stim,false,1,301,0,0,0,38448,task1,565641,false,false,700,image-keyboard-response,43
true,6,0,2,2,false,d,false,false,0.0-2.0-0.21-0.193-3.193,0,0,0,81,true,stim,true,0,236,0,0,1,38448,task1,567416,false,false,703,image-keyboard-response,1
true,6,2,2,1,false,z,false,false,0.0-2.0-0.21-0.194-3.194,0,0,0,68,false,stim,true,2,350,0,0,2,38448,task1,569291,false,false,706,image-keyboard-response,2
true,6,1,2,1,true,z,false,true,0.0-2.0-0.21-0.195-3.195,0,0,0,90,false,stim,false,2,1247,0,0,2,38448,task1,572067,false,false,709,image-keyboard-response,3
true,6,1,2,2,false,d,true,false,0.0-2.0-0.21-0.196-3.196,0,0,0,90,false,stim,false,0,791,0,0,1,38448,task1,574380,false,false,712,image-keyboard-response,4
true,6,0,2,2,false,d,false,false,0.0-2.0-0.21-0.197-3.197,0,0,0,81,false,stim,true,0,474,0,0,1,38448,task1,576383,false,false,715,image-keyboard-response,5
true,6,2,2,2,true,d,false,true,0.0-2.0-0.22-0.198-3.198,0,0,0,68,false,stim,false,0,447,0,0,1,38448,task1,578367,false,false,718,image-keyboard-response,6
true,6,0,2,1,false,z,false,false,0.0-2.0-0.22-0.199-3.199,0,0,0,81,false,stim,true,0,756,0,0,0,38448,task1,580656,false,false,721,image-keyboard-response,7
true,6,1,2,1,true,z,false,true,0.0-2.0-0.22-0.200-3.200,0,0,0,90,false,stim,false,2,676,0,0,2,38448,task1,582854,false,false,724,image-keyboard-response,8
true,6,1,2,1,true,z,false,true,0.0-2.0-0.22-0.201-3.201,0,0,0,90,false,stim,false,0,1011,0,0,0,38448,task1,585391,false,false,727,image-keyboard-response,9
true,6,1,2,1,true,z,false,true,0.0-2.0-0.22-0.202-3.202,0,0,0,90,false,stim,false,0,401,0,0,0,38448,task1,587320,false,false,730,image-keyboard-response,10
true,6,1,2,1,true,z,false,true,0.0-2.0-0.22-0.203-3.203,0,0,0,90,false,stim,false,2,499,0,0,2,38448,task1,589359,false,false,733,image-keyboard-response,11
true,6,1,2,1,true,z,false,true,0.0-2.0-0.22-0.204-3.204,0,0,0,90,false,stim,false,2,407,0,0,2,38448,task1,591308,false,false,736,image-keyboard-response,12
true,6,2,2,2,true,d,false,true,0.0-2.0-0.22-0.205-3.205,0,0,0,68,false,stim,false,0,426,0,0,1,38448,task1,593267,false,false,739,image-keyboard-response,13
true,6,2,2,2,true,d,false,true,0.0-2.0-0.22-0.206-3.206,0,0,0,68,false,stim,false,0,878,0,0,1,38448,task1,595680,false,false,742,image-keyboard-response,14
true,6,2,2,2,true,d,false,true,0.0-2.0-0.23-0.207-3.207,0,0,0,68,false,stim,false,0,427,0,0,1,38448,task1,597648,false,false,745,image-keyboard-response,15
true,6,1,2,1,true,z,false,true,0.0-2.0-0.23-0.208-3.208,0,0,0,90,false,stim,false,0,1021,0,0,0,38448,task1,600200,false,false,748,image-keyboard-response,16
true,6,1,2,1,true,z,false,true,0.0-2.0-0.23-0.209-3.209,0,0,0,90,false,stim,false,0,419,0,0,0,38448,task1,602149,false,false,751,image-keyboard-response,17
true,6,2,2,2,true,d,false,true,0.0-2.0-0.23-0.210-3.210,0,0,0,68,false,stim,false,0,1286,0,0,1,38448,task1,604975,false,false,754,image-keyboard-response,18
true,6,1,2,1,true,z,false,true,0.0-2.0-0.23-0.211-3.211,0,0,0,90,false,stim,false,2,698,0,0,2,38448,task1,607199,false,false,757,image-keyboard-response,19
true,6,1,2,1,true,z,false,true,0.0-2.0-0.23-0.212-3.212,0,0,0,90,false,stim,false,2,526,0,0,2,38448,task1,609267,false,false,760,image-keyboard-response,20
true,6,2,2,1,false,z,true,false,0.0-2.0-0.23-0.213-3.213,0,0,0,68,false,stim,false,0,707,0,0,0,38448,task1,611505,false,false,763,image-keyboard-response,21
true,6,1,2,2,false,d,true,false,0.0-2.0-0.23-0.214-3.214,0,0,0,90,false,stim,false,0,405,0,0,1,38448,task1,613444,false,false,766,image-keyboard-response,22
true,6,0,2,1,false,z,true,false,0.0-2.0-0.23-0.215-3.215,0,0,0,81,false,stim,false,2,1289,0,0,2,38448,task1,616270,false,false,769,image-keyboard-response,23
true,6,2,2,1,false,z,false,false,0.0-2.0-0.24-0.216-3.216,0,0,0,68,false,stim,true,2,609,0,0,2,38448,task1,618409,false,false,772,image-keyboard-response,24
true,6,0,2,2,false,d,false,false,0.0-2.0-0.24-0.217-3.217,0,0,0,81,false,stim,true,0,558,0,0,1,38448,task1,620497,false,false,775,image-keyboard-response,25
true,6,1,2,1,true,z,false,true,0.0-2.0-0.24-0.218-3.218,0,0,0,90,false,stim,false,0,841,0,0,0,38448,task1,622860,false,false,778,image-keyboard-response,26
true,6,1,2,2,false,d,true,false,0.0-2.0-0.24-0.219-3.219,0,0,0,90,false,stim,false,0,992,0,0,1,38448,task1,625392,false,false,781,image-keyboard-response,27
true,6,2,2,1,false,z,false,false,0.0-2.0-0.24-0.220-3.220,0,0,0,68,false,stim,true,2,798,0,0,2,38448,task1,627726,false,false,784,image-keyboard-response,28
true,6,2,2,2,true,d,false,true,0.0-2.0-0.24-0.221-3.221,0,0,0,68,false,stim,false,0,471,0,0,1,38448,task1,629710,false,false,787,image-keyboard-response,29
true,6,1,2,1,true,z,false,true,0.0-2.0-0.24-0.222-3.222,0,0,0,90,false,stim,false,0,701,0,0,0,38448,task1,631951,false,false,790,image-keyboard-response,30
true,6,1,2,1,true,z,false,true,0.0-2.0-0.24-0.223-3.223,0,0,0,90,false,stim,false,2,1235,0,0,2,38448,task1,634715,false,false,793,image-keyboard-response,31
true,6,1,2,1,true,z,false,true,0.0-2.0-0.24-0.224-3.224,0,0,0,90,false,stim,false,0,607,0,0,0,38448,task1,636857,false,false,796,image-keyboard-response,32
true,6,2,2,2,true,d,false,true,0.0-2.0-0.25-0.225-3.225,0,0,0,68,false,stim,false,0,471,0,0,1,38448,task1,638861,false,false,799,image-keyboard-response,33
true,6,2,2,2,true,d,false,false,0.0-2.0-0.25-0.226-3.226,0,0,0,68,false,stim,false,0,594,0,0,1,38448,task1,640984,false,true,802,image-keyboard-response,34
true,6,1,2,1,true,z,false,true,0.0-2.0-0.25-0.227-3.227,0,0,0,90,false,stim,false,2,587,0,0,2,38448,task1,643108,false,false,805,image-keyboard-response,35
true,6,1,2,1,true,z,false,true,0.0-2.0-0.25-0.228-3.228,0,0,0,90,false,stim,false,0,1255,0,0,0,38448,task1,645894,false,false,808,image-keyboard-response,36
true,6,1,2,1,true,z,false,true,0.0-2.0-0.25-0.229-3.229,0,0,0,90,false,stim,false,0,517,0,0,0,38448,task1,647938,false,false,811,image-keyboard-response,37
true,6,1,2,2,false,d,true,false,0.0-2.0-0.25-0.230-3.230,0,0,0,90,false,stim,false,0,436,0,0,1,38448,task1,649896,false,false,814,image-keyboard-response,38
true,6,2,2,1,false,z,false,true,0.0-2.0-0.25-0.231-3.231,0,0,0,68,false,stim,true,2,626,0,0,2,38448,task1,652055,false,true,817,image-keyboard-response,39
true,7,2,1,2,true,d,false,true,0.0-2.0-0.25-0.232-3.232,0,0,0,68,true,stim,false,1,523,0,0,2,38448,task1,654113,false,false,820,image-keyboard-response,1
true,7,1,1,2,false,d,false,false,0.0-2.0-0.25-0.233-3.233,0,0,0,90,false,stim,true,1,676,0,0,0,38448,task1,656327,false,false,823,image-keyboard-response,2
true,7,0,1,0,true,q,false,true,0.0-2.0-0.26-0.234-3.234,0,0,0,81,false,stim,false,2,515,0,0,1,38448,task1,658375,false,false,826,image-keyboard-response,3
true,7,0,1,0,true,q,false,false,0.0-2.0-0.26-0.235-3.235,0,0,0,81,false,stim,false,2,430,0,0,1,38448,task1,660330,false,true,829,image-keyboard-response,4
true,7,1,1,2,false,d,false,false,0.0-2.0-0.26-0.236-3.236,0,0,0,90,false,stim,true,1,588,0,0,0,38448,task1,662448,false,false,832,image-keyboard-response,5
true,7,2,1,2,true,d,false,true,0.0-2.0-0.26-0.237-3.237,0,0,0,68,false,stim,false,1,611,0,0,0,38448,task1,664591,false,false,835,image-keyboard-response,6
true,7,1,1,0,false,q,true,false,0.0-2.0-0.26-0.238-3.238,0,0,0,90,false,stim,false,2,839,0,0,1,38448,task1,666959,false,false,838,image-keyboard-response,7
true,7,2,1,2,true,d,false,true,0.0-2.0-0.26-0.239-3.239,0,0,0,68,false,stim,false,1,184,0,0,2,38448,task1,668684,false,false,841,image-keyboard-response,8
true,7,2,1,2,true,d,false,true,0.0-2.0-0.26-0.240-3.240,0,0,0,68,false,stim,false,1,178,0,0,2,38448,task1,670398,false,false,844,image-keyboard-response,9
true,7,2,1,2,true,d,false,true,0.0-2.0-0.26-0.241-3.241,0,0,0,68,false,stim,false,1,92,0,0,0,38448,task1,672022,false,false,847,image-keyboard-response,10
true,7,2,1,2,true,d,false,true,0.0-2.0-0.26-0.242-3.242,0,0,0,68,false,stim,false,1,139,0,0,2,38448,task1,673688,false,false,850,image-keyboard-response,11
true,7,2,1,2,true,d,false,true,0.0-2.0-0.27-0.243-3.243,0,0,0,68,false,stim,false,1,202,0,0,0,38448,task1,675432,false,false,853,image-keyboard-response,12
true,7,2,1,0,false,q,false,false,0.0-2.0-0.27-0.244-3.244,0,0,0,68,false,stim,true,2,137,0,0,1,38448,task1,677107,false,false,856,image-keyboard-response,13
true,7,2,1,2,true,d,false,true,0.0-2.0-0.27-0.245-3.245,0,0,0,68,false,stim,false,1,101,0,0,2,38448,task1,678732,false,false,859,image-keyboard-response,14
true,7,2,1,2,true,d,false,true,0.0-2.0-0.27-0.246-3.246,0,0,0,68,false,stim,false,1,45,0,0,0,38448,task1,680312,false,false,862,image-keyboard-response,15
true,7,2,1,0,false,q,false,false,0.0-2.0-0.27-0.247-3.247,0,0,0,68,false,stim,true,2,28,0,0,1,38448,task1,681867,false,false,865,image-keyboard-response,16
true,7,2,1,2,true,d,false,true,0.0-2.0-0.27-0.248-3.248,0,0,0,68,false,stim,false,1,570,0,0,0,38448,task1,683970,false,false,868,image-keyboard-response,17
true,7,2,1,2,true,d,false,true,0.0-2.0-0.27-0.249-3.249,0,0,0,68,false,stim,false,1,485,0,0,2,38448,task1,685984,false,false,871,image-keyboard-response,18
true,7,2,1,2,true,d,false,true,0.0-2.0-0.27-0.250-3.250,0,0,0,68,false,stim,false,1,399,0,0,2,38448,task1,687909,false,false,874,image-keyboard-response,19
true,7,0,1,0,true,q,false,true,0.0-2.0-0.27-0.251-3.251,0,0,0,81,false,stim,false,2,442,0,0,1,38448,task1,689892,false,false,877,image-keyboard-response,20
true,7,2,1,2,true,d,false,true,0.0-2.0-0.28-0.252-3.252,0,0,0,68,false,stim,false,1,794,0,0,0,38448,task1,692224,false,false,880,image-keyboard-response,21
true,7,2,1,2,true,d,false,true,0.0-2.0-0.28-0.253-3.253,0,0,0,68,false,stim,false,1,643,0,0,2,38448,task1,694393,false,false,883,image-keyboard-response,22
true,7,2,1,2,true,d,false,true,0.0-2.0-0.28-0.254-3.254,0,0,0,68,false,stim,false,1,511,0,0,0,38448,task1,696442,false,false,886,image-keyboard-response,23
true,7,2,1,2,true,d,false,true,0.0-2.0-0.28-0.255-3.255,0,0,0,68,false,stim,false,1,720,0,0,2,38448,task1,698690,false,false,889,image-keyboard-response,24
true,7,0,1,0,true,q,false,true,0.0-2.0-0.28-0.256-3.256,0,0,0,81,false,stim,false,2,614,0,0,1,38448,task1,700843,false,false,892,image-keyboard-response,25
true,7,0,1,0,true,q,false,true,0.0-2.0-0.28-0.257-3.257,0,0,0,81,false,stim,false,2,516,0,0,1,38448,task1,702887,false,false,895,image-keyboard-response,26
true,7,0,1,0,true,q,false,true,0.0-2.0-0.28-0.258-3.258,0,0,0,81,false,stim,false,2,446,0,0,1,38448,task1,704856,false,false,898,image-keyboard-response,27
true,7,2,1,2,true,d,false,true,0.0-2.0-0.28-0.259-3.259,0,0,0,68,false,stim,false,1,945,0,0,2,38448,task1,707333,false,false,901,image-keyboard-response,28
true,7,2,1,2,true,d,false,true,0.0-2.0-0.28-0.260-3.260,0,0,0,68,false,stim,false,1,1788,0,0,0,38448,task1,710648,false,false,904,image-keyboard-response,29
true,7,2,1,2,true,d,false,true,0.0-2.0-0.29-0.261-3.261,0,0,0,68,false,stim,false,1,901,0,0,2,38448,task1,713090,false,false,907,image-keyboard-response,30
true,7,2,1,2,true,d,false,true,0.0-2.0-0.29-0.262-3.262,0,0,0,68,false,stim,false,1,389,0,0,2,38448,task1,715019,false,false,910,image-keyboard-response,31
true,7,0,1,0,true,q,false,true,0.0-2.0-0.29-0.263-3.263,0,0,0,81,false,stim,false,2,647,0,0,1,38448,task1,717197,false,false,913,image-keyboard-response,32
true,7,0,1,0,true,q,false,true,0.0-2.0-0.29-0.264-3.264,0,0,0,81,false,stim,false,2,451,0,0,1,38448,task1,719182,false,false,916,image-keyboard-response,33
true,7,2,1,2,true,d,false,false,0.0-2.0-0.29-0.265-3.265,0,0,0,68,false,stim,false,1,735,0,0,2,38448,task1,721455,false,true,919,image-keyboard-response,34
true,7,0,1,2,false,d,true,false,0.0-2.0-0.29-0.266-3.266,0,0,0,81,false,stim,false,1,499,0,0,0,38448,task1,723479,false,false,922,image-keyboard-response,35
true,7,1,1,2,false,d,false,false,0.0-2.0-0.29-0.267-3.267,0,0,0,90,false,stim,true,1,541,0,0,0,38448,task1,725561,false,false,925,image-keyboard-response,36
true,7,2,1,2,true,d,false,true,0.0-2.0-0.29-0.268-3.268,0,0,0,68,false,stim,false,1,356,0,0,0,38448,task1,727457,false,false,928,image-keyboard-response,37
true,7,1,1,0,false,q,true,false,0.0-2.0-0.29-0.269-3.269,0,0,0,90,false,stim,false,2,659,0,0,1,38448,task1,729639,false,false,931,image-keyboard-response,38
true,7,2,1,2,true,d,false,true,0.0-2.0-0.30-0.270-3.270,0,0,0,68,false,stim,false,1,537,0,0,0,38448,task1,731717,false,false,934,image-keyboard-response,39
true,7,2,1,0,false,q,false,false,0.0-2.0-0.30-0.271-3.271,0,0,0,68,false,stim,true,2,406,0,0,1,38448,task1,733647,false,false,937,image-keyboard-response,40
true,7,0,1,0,true,q,false,false,0.0-2.0-0.30-0.272-3.272,0,0,0,81,false,stim,false,2,370,0,0,1,38448,task1,735551,false,true,940,image-keyboard-response,41
true,7,0,1,2,false,d,true,false,0.0-2.0-0.30-0.273-3.273,0,0,0,81,false,stim,false,1,909,0,0,2,38448,task1,737989,false,false,943,image-keyboard-response,42
true,7,1,1,2,false,d,false,false,0.0-2.0-0.30-0.274-3.274,0,0,0,90,false,stim,true,1,472,0,0,2,38448,task1,739992,false,false,946,image-keyboard-response,43
true,8,2,1,0,false,q,false,false,0.0-2.0-0.30-0.275-3.275,0,0,0,68,true,stim,true,2,166,0,0,0,38448,task1,741687,false,false,949,image-keyboard-response,1
true,8,2,1,0,false,q,false,false,0.0-2.0-0.30-0.276-3.276,0,0,0,68,false,stim,true,2,66,0,0,2,38448,task1,743287,false,false,952,image-keyboard-response,2
true,8,1,1,1,true,z,false,true,0.0-2.0-0.30-0.277-3.277,0,0,0,90,false,stim,false,0,436,0,0,1,38448,task1,745256,false,false,955,image-keyboard-response,3
true,8,2,1,0,false,q,false,true,0.0-2.0-0.30-0.278-3.278,0,0,0,68,false,stim,true,2,1182,0,0,0,38448,task1,747962,false,true,958,image-keyboard-response,4
true,8,1,1,1,true,z,false,true,0.0-2.0-0.31-0.279-3.279,0,0,0,90,false,stim,false,0,436,0,0,1,38448,task1,749926,false,false,961,image-keyboard-response,5
true,8,2,1,0,false,q,false,false,0.0-2.0-0.31-0.280-3.280,0,0,0,68,false,stim,true,2,794,0,0,0,38448,task1,752245,false,false,964,image-keyboard-response,6
true,8,0,1,0,true,q,false,true,0.0-2.0-0.31-0.281-3.281,0,0,0,81,false,stim,false,2,901,0,0,2,38448,task1,754672,false,false,967,image-keyboard-response,7
true,8,0,1,0,true,q,false,false,0.0-2.0-0.31-0.282-3.282,0,0,0,81,false,stim,false,2,515,0,0,2,38448,task1,756725,false,true,970,image-keyboard-response,8
true,8,1,1,1,true,z,false,true,0.0-2.0-0.31-0.283-3.283,0,0,0,90,false,stim,false,0,1022,0,0,1,38448,task1,759272,false,false,973,image-keyboard-response,9
true,8,1,1,1,true,z,false,true,0.0-2.0-0.31-0.284-3.284,0,0,0,90,false,stim,false,0,381,0,0,1,38448,task1,761191,false,false,976,image-keyboard-response,10
true,8,2,1,0,false,q,false,false,0.0-2.0-0.31-0.285-3.285,0,0,0,68,false,stim,true,2,2255,0,0,0,38448,task1,764985,false,false,979,image-keyboard-response,11
true,8,0,1,0,true,q,false,true,0.0-2.0-0.31-0.286-3.286,0,0,0,81,false,stim,false,2,1575,0,0,2,38448,task1,768096,false,false,982,image-keyboard-response,12
true,8,0,1,0,true,q,false,true,0.0-2.0-0.31-0.287-3.287,0,0,0,81,false,stim,false,2,848,0,0,0,38448,task1,770468,false,false,985,image-keyboard-response,13
true,8,0,1,0,true,q,false,false,0.0-2.0-0.32-0.288-3.288,0,0,0,81,false,stim,false,2,391,0,0,0,38448,task1,772392,false,true,988,image-keyboard-response,14
true,8,0,1,0,true,q,false,true,0.0-2.0-0.32-0.289-3.289,0,0,0,81,false,stim,false,2,445,0,0,0,38448,task1,774365,false,false,991,image-keyboard-response,15
true,8,0,1,1,false,z,false,false,0.0-2.0-0.32-0.290-3.290,0,0,0,81,false,stim,true,0,623,0,0,1,38448,task1,776524,false,false,994,image-keyboard-response,16
true,8,0,1,0,true,q,false,true,0.0-2.0-0.32-0.291-3.291,0,0,0,81,false,stim,false,2,332,0,0,2,38448,task1,778393,false,false,997,image-keyboard-response,17
true,8,0,1,0,true,q,false,true,0.0-2.0-0.32-0.292-3.292,0,0,0,81,false,stim,false,2,565,0,0,2,38448,task1,780486,false,false,1000,image-keyboard-response,18
true,8,0,1,0,true,q,false,false,0.0-2.0-0.32-0.293-3.293,0,0,0,81,false,stim,false,2,400,0,0,2,38448,task1,782420,false,true,1003,image-keyboard-response,19
true,8,1,1,1,true,z,false,true,0.0-2.0-0.32-0.294-3.294,0,0,0,90,false,stim,false,0,425,0,0,1,38448,task1,784384,false,false,1006,image-keyboard-response,20
true,8,0,1,0,true,q,false,true,0.0-2.0-0.32-0.295-3.295,0,0,0,81,false,stim,false,2,886,0,0,0,38448,task1,786807,false,false,1009,image-keyboard-response,21
true,8,1,1,1,true,z,false,true,0.0-2.0-0.32-0.296-3.296,0,0,0,90,false,stim,false,0,694,0,0,1,38448,task1,789034,false,false,1012,image-keyboard-response,22
true,8,0,1,0,true,q,false,true,0.0-2.0-0.33-0.297-3.297,0,0,0,81,false,stim,false,2,649,0,0,2,38448,task1,791219,false,false,1015,image-keyboard-response,23
true,8,0,1,0,true,q,false,true,0.0-2.0-0.33-0.298-3.298,0,0,0,81,false,stim,false,2,537,0,0,0,38448,task1,793287,false,false,1018,image-keyboard-response,24
true,8,0,1,0,true,q,false,false,0.0-2.0-0.33-0.299-3.299,0,0,0,81,false,stim,false,2,773,0,0,2,38448,task1,795584,false,true,1021,image-keyboard-response,25
true,8,0,1,0,true,q,false,false,0.0-2.0-0.33-0.300-3.300,0,0,0,81,false,stim,false,2,601,0,0,0,38448,task1,797712,false,true,1024,image-keyboard-response,26
true,8,0,1,1,false,z,false,false,0.0-2.0-0.33-0.301-3.301,0,0,0,81,false,stim,true,0,700,0,0,1,38448,task1,799940,false,false,1027,image-keyboard-response,27
true,8,1,1,0,false,q,true,false,0.0-2.0-0.33-0.302-3.302,0,0,0,90,false,stim,false,2,633,0,0,0,38448,task1,802113,false,false,1030,image-keyboard-response,28
true,8,2,1,1,false,z,true,true,0.0-2.0-0.33-0.303-3.303,0,0,0,68,false,stim,false,0,940,0,0,1,38448,task1,804590,false,true,1033,image-keyboard-response,29
true,8,2,1,1,false,z,true,true,0.0-2.0-0.33-0.304-3.304,0,0,0,68,false,stim,false,0,499,0,0,1,38448,task1,806629,false,true,1036,image-keyboard-response,30
true,8,1,1,0,false,q,true,false,0.0-2.0-0.33-0.305-3.305,0,0,0,90,false,stim,false,2,747,0,0,2,38448,task1,808917,false,false,1039,image-keyboard-response,31
true,8,0,1,0,true,q,false,true,0.0-2.0-0.34-0.306-3.306,0,0,0,81,false,stim,false,2,440,0,0,2,38448,task1,810890,false,false,1042,image-keyboard-response,32
true,8,2,1,0,false,q,false,true,0.0-2.0-0.34-0.307-3.307,0,0,0,68,false,stim,true,2,902,0,0,0,38448,task1,813332,false,true,1045,image-keyboard-response,33
true,8,2,1,1,false,z,true,false,0.0-2.0-0.34-0.308-3.308,0,0,0,68,false,stim,false,0,511,0,0,1,38448,task1,815381,false,false,1048,image-keyboard-response,34
true,8,2,1,1,false,z,true,false,0.0-2.0-0.34-0.309-3.309,0,0,0,68,false,stim,false,0,414,0,0,1,38448,task1,817325,false,false,1051,image-keyboard-response,35
true,8,0,1,0,true,q,false,true,0.0-2.0-0.34-0.310-3.310,0,0,0,81,false,stim,false,2,960,0,0,2,38448,task1,819821,false,false,1054,image-keyboard-response,36
true,8,2,1,0,false,q,false,false,0.0-2.0-0.34-0.311-3.311,0,0,0,68,false,stim,true,2,1163,0,0,0,38448,task1,822524,false,false,1057,image-keyboard-response,37
true,8,0,1,0,true,q,false,true,0.0-2.0-0.34-0.312-3.312,0,0,0,81,false,stim,false,2,531,0,0,2,38448,task1,824592,false,false,1060,image-keyboard-response,38
true,8,0,1,1,false,z,false,false,0.0-2.0-0.34-0.313-3.313,0,0,0,81,false,stim,true,0,585,0,0,1,38448,task1,826705,false,false,1063,image-keyboard-response,39
true,8,0,1,0,true,q,false,true,0.0-2.0-0.34-0.314-3.314,0,0,0,81,false,stim,false,2,719,0,0,0,38448,task1,828958,false,false,1066,image-keyboard-response,40
true,8,0,1,0,true,q,false,true,0.0-2.0-0.35-0.315-3.315,0,0,0,81,false,stim,false,2,476,0,0,0,38448,task1,830967,false,false,1069,image-keyboard-response,41
true,8,0,1,0,true,q,false,true,0.0-2.0-0.35-0.316-3.316,0,0,0,81,false,stim,false,2,814,0,0,2,38448,task1,833304,false,false,1072,image-keyboard-response,42
true,8,0,1,0,true,q,false,true,0.0-2.0-0.35-0.317-3.317,0,0,0,81,false,stim,false,2,537,0,0,0,38448,task1,835378,false,false,1075,image-keyboard-response,43
true,8,1,1,1,true,z,false,true,0.0-2.0-0.35-0.318-3.318,0,0,0,90,false,stim,false,0,501,0,0,1,38448,task1,837401,false,false,1078,image-keyboard-response,44
true,9,1,2,2,false,d,false,false,0.0-2.0-0.35-0.319-3.319,0,0,0,90,true,stim,true,1,394,0,0,1,38448,task1,839335,false,false,1081,image-keyboard-response,1
true,9,0,2,1,false,z,false,false,0.0-2.0-0.35-0.320-3.320,0,0,0,81,false,stim,true,0,613,0,0,2,38448,task1,841473,false,false,1084,image-keyboard-response,2
true,9,0,2,1,false,z,false,false,0.0-2.0-0.35-0.321-3.321,0,0,0,81,false,stim,true,0,656,0,0,0,38448,task1,843657,false,false,1087,image-keyboard-response,3
true,9,1,2,1,true,z,false,true,0.0-2.0-0.35-0.322-3.322,0,0,0,90,false,stim,false,0,511,0,0,2,38448,task1,845700,false,false,1090,image-keyboard-response,4
true,9,2,2,2,true,d,false,true,0.0-2.0-0.35-0.323-3.323,0,0,0,68,false,stim,false,1,1461,0,0,1,38448,task1,848691,false,false,1093,image-keyboard-response,5
true,9,2,2,2,true,d,false,true,0.0-2.0-0.36-0.324-3.324,0,0,0,68,false,stim,false,1,514,0,0,1,38448,task1,850744,false,false,1096,image-keyboard-response,6
true,9,0,2,1,false,z,false,true,0.0-2.0-0.36-0.325-3.325,0,0,0,81,false,stim,true,0,890,0,0,0,38448,task1,853161,false,true,1099,image-keyboard-response,7
true,9,0,2,1,false,z,false,false,0.0-2.0-0.36-0.326-3.326,0,0,0,81,false,stim,true,0,615,0,0,0,38448,task1,855305,false,false,1102,image-keyboard-response,8
true,9,0,2,1,false,z,false,false,0.0-2.0-0.36-0.327-3.327,0,0,0,81,false,stim,true,0,442,0,0,0,38448,task1,857273,false,false,1105,image-keyboard-response,9
true,9,1,2,1,true,z,false,true,0.0-2.0-0.36-0.328-3.328,0,0,0,90,false,stim,false,0,686,0,0,2,38448,task1,859496,false,false,1108,image-keyboard-response,10
true,9,1,2,1,true,z,false,true,0.0-2.0-0.36-0.329-3.329,0,0,0,90,false,stim,false,0,694,0,0,2,38448,task1,861724,false,false,1111,image-keyboard-response,11
true,9,2,2,2,true,d,false,true,0.0-2.0-0.36-0.330-3.330,0,0,0,68,false,stim,false,1,741,0,0,1,38448,task1,864002,false,false,1114,image-keyboard-response,12
true,9,1,2,1,true,z,false,true,0.0-2.0-0.36-0.331-3.331,0,0,0,90,false,stim,false,0,726,0,0,2,38448,task1,866266,false,false,1117,image-keyboard-response,13
true,9,2,2,2,true,d,false,true,0.0-2.0-0.36-0.332-3.332,0,0,0,68,false,stim,false,1,602,0,0,1,38448,task1,868402,false,false,1120,image-keyboard-response,14
true,9,1,2,1,true,z,false,true,0.0-2.0-0.37-0.333-3.333,0,0,0,90,false,stim,false,0,656,0,0,2,38448,task1,870586,false,false,1123,image-keyboard-response,15
true,9,0,2,1,false,z,false,true,0.0-2.0-0.37-0.334-3.334,0,0,0,81,false,stim,true,0,2279,0,0,0,38448,task1,874389,false,true,1126,image-keyboard-response,16
true,9,2,2,2,true,d,false,true,0.0-2.0-0.37-0.335-3.335,0,0,0,68,false,stim,false,1,516,0,0,1,38448,task1,876447,false,false,1129,image-keyboard-response,17
true,9,0,2,1,false,z,false,false,0.0-2.0-0.37-0.336-3.336,0,0,0,81,false,stim,true,0,585,0,0,0,38448,task1,878555,false,false,1132,image-keyboard-response,18
true,9,1,2,1,true,z,false,true,0.0-2.0-0.37-0.337-3.337,0,0,0,90,false,stim,false,0,463,0,0,2,38448,task1,880555,false,false,1135,image-keyboard-response,19
true,9,0,2,1,false,z,false,false,0.0-2.0-0.37-0.338-3.338,0,0,0,81,false,stim,true,0,966,0,0,0,38448,task1,883057,false,false,1138,image-keyboard-response,20
true,9,1,2,1,true,z,false,true,0.0-2.0-0.37-0.339-3.339,0,0,0,90,false,stim,false,0,584,0,0,2,38448,task1,885175,false,false,1141,image-keyboard-response,21
true,9,2,2,2,true,d,false,false,0.0-2.0-0.37-0.340-3.340,0,0,0,68,false,stim,false,1,627,0,0,1,38448,task1,887337,false,true,1144,image-keyboard-response,22
true,9,0,2,2,false,d,true,true,0.0-2.0-0.37-0.341-3.341,0,0,0,81,false,stim,false,1,651,0,0,1,38448,task1,889521,false,true,1147,image-keyboard-response,23
true,9,1,2,1,true,z,false,true,0.0-2.0-0.38-0.342-3.342,0,0,0,90,false,stim,false,0,429,0,0,2,38448,task1,891490,false,false,1150,image-keyboard-response,24
true,9,0,2,2,false,d,true,false,0.0-2.0-0.38-0.343-3.343,0,0,0,81,false,stim,false,1,1609,0,0,1,38448,task1,894631,false,false,1153,image-keyboard-response,25
true,9,1,2,1,true,z,false,true,0.0-2.0-0.38-0.344-3.344,0,0,0,90,false,stim,false,0,433,0,0,2,38448,task1,896603,false,false,1156,image-keyboard-response,26
true,9,2,2,1,false,z,true,false,0.0-2.0-0.38-0.345-3.345,0,0,0,68,false,stim,false,0,801,0,0,0,38448,task1,898933,false,false,1159,image-keyboard-response,27
true,9,0,2,1,false,z,false,false,0.0-2.0-0.38-0.346-3.346,0,0,0,81,false,stim,true,0,633,0,0,0,38448,task1,901104,false,false,1162,image-keyboard-response,28
true,9,1,2,1,true,z,false,true,0.0-2.0-0.38-0.347-3.347,0,0,0,90,false,stim,false,0,120,0,0,0,38448,task1,902749,false,false,1165,image-keyboard-response,29
true,9,1,2,1,true,z,false,true,0.0-2.0-0.38-0.348-3.348,0,0,0,90,false,stim,false,0,79,0,0,2,38448,task1,904369,false,false,1168,image-keyboard-response,30
true,9,1,2,2,false,d,false,false,0.0-2.0-0.38-0.349-3.349,0,0,0,90,false,stim,true,1,30,0,0,1,38448,task1,905940,false,false,1171,image-keyboard-response,31
true,9,2,2,2,true,d,false,true,0.0-2.0-0.38-0.350-3.350,0,0,0,68,false,stim,false,1,347,0,0,1,38448,task1,907818,false,false,1174,image-keyboard-response,32
true,9,2,2,2,true,d,false,true,0.0-2.0-0.39-0.351-3.351,0,0,0,68,false,stim,false,1,447,0,0,1,38448,task1,909797,false,false,1177,image-keyboard-response,33
true,9,2,2,2,true,d,false,true,0.0-2.0-0.39-0.352-3.352,0,0,0,68,false,stim,false,1,386,0,0,1,38448,task1,911716,false,false,1180,image-keyboard-response,34
true,9,1,2,1,true,z,false,true,0.0-2.0-0.39-0.353-3.353,0,0,0,90,false,stim,false,0,676,0,0,2,38448,task1,913924,false,false,1183,image-keyboard-response,35
true,9,1,2,1,true,z,false,false,0.0-2.0-0.39-0.354-3.354,0,0,0,90,false,stim,false,0,394,0,0,0,38448,task1,915843,false,true,1186,image-keyboard-response,36
true,9,1,2,1,true,z,false,true,0.0-2.0-0.39-0.355-3.355,0,0,0,90,false,stim,false,0,456,0,0,0,38448,task1,917827,false,false,1189,image-keyboard-response,37
true,9,1,2,1,true,z,false,true,0.0-2.0-0.39-0.356-3.356,0,0,0,90,false,stim,false,0,424,0,0,2,38448,task1,919775,false,false,1192,image-keyboard-response,38
true,9,1,2,1,true,z,false,true,0.0-2.0-0.39-0.357-3.357,0,0,0,90,false,stim,false,0,947,0,0,2,38448,task1,922257,false,false,1195,image-keyboard-response,39
true,9,1,2,1,true,z,false,true,0.0-2.0-0.39-0.358-3.358,0,0,0,90,false,stim,false,0,1986,0,0,0,38448,task1,925778,false,false,1198,image-keyboard-response,40
true,9,2,2,2,true,d,false,true,0.0-2.0-0.39-0.359-3.359,0,0,0,68,false,stim,false,1,622,0,0,1,38448,task1,927929,false,false,1201,image-keyboard-response,41
true,9,1,2,1,true,z,false,true,0.0-2.0-0.40-0.360-3.360,0,0,0,90,false,stim,false,0,1026,0,0,2,38448,task1,930486,false,false,1204,image-keyboard-response,42
true,9,1,2,1,true,z,false,true,0.0-2.0-0.40-0.361-3.361,0,0,0,90,false,stim,false,0,924,0,0,0,38448,task1,932933,false,false,1207,image-keyboard-response,43
true,9,1,2,1,true,z,false,true,0.0-2.0-0.40-0.362-3.362,0,0,0,90,false,stim,false,0,466,0,0,0,38448,task1,934937,false,false,1210,image-keyboard-response,44
true,10,1,1,1,true,z,false,true,0.0-2.0-0.40-0.363-3.363,0,0,0,90,true,stim,false,2,425,0,0,1,38448,task1,936896,false,false,1213,image-keyboard-response,1
true,10,1,1,2,false,d,false,false,0.0-2.0-0.40-0.364-3.364,0,0,0,90,false,stim,true,1,443,0,0,0,38448,task1,938875,false,false,1216,image-keyboard-response,2
true,10,1,1,1,true,z,false,true,0.0-2.0-0.40-0.365-3.365,0,0,0,90,false,stim,false,2,521,0,0,1,38448,task1,940932,false,false,1219,image-keyboard-response,3
true,10,1,1,0,false,q,false,false,0.0-2.0-0.40-0.366-3.366,0,0,0,90,false,stim,true,1,391,0,0,2,38448,task1,942862,false,false,1222,image-keyboard-response,4
true,10,2,1,1,false,z,false,false,0.0-2.0-0.40-0.367-3.367,0,0,0,68,false,stim,true,2,455,0,0,1,38448,task1,944846,false,false,1225,image-keyboard-response,5
true,10,0,1,0,true,q,false,true,0.0-2.0-0.40-0.368-3.368,0,0,0,81,false,stim,false,1,478,0,0,2,38448,task1,946849,false,false,1228,image-keyboard-response,6
true,10,1,1,2,false,d,false,false,0.0-2.0-0.41-0.369-3.369,0,0,0,90,false,stim,true,1,717,0,0,0,38448,task1,949107,false,false,1231,image-keyboard-response,7
true,10,0,1,1,false,z,true,false,0.0-2.0-0.41-0.370-3.370,0,0,0,81,false,stim,false,2,470,0,0,1,38448,task1,951111,false,false,1234,image-keyboard-response,8
true,10,0,1,1,false,z,true,false,0.0-2.0-0.41-0.371-3.371,0,0,0,81,false,stim,false,2,388,0,0,1,38448,task1,953030,false,false,1237,image-keyboard-response,9
true,10,0,1,0,true,q,false,true,0.0-2.0-0.41-0.372-3.372,0,0,0,81,false,stim,false,1,960,0,0,2,38448,task1,955522,false,false,1240,image-keyboard-response,10
true,10,0,1,0,true,q,false,true,0.0-2.0-0.41-0.373-3.373,0,0,0,81,false,stim,false,1,420,0,0,2,38448,task1,957481,false,false,1243,image-keyboard-response,11
true,10,0,1,0,true,q,false,true,0.0-2.0-0.41-0.374-3.374,0,0,0,81,false,stim,false,1,498,0,0,2,38448,task1,959520,false,false,1246,image-keyboard-response,12
true,10,2,1,1,false,z,false,true,0.0-2.0-0.41-0.375-3.375,0,0,0,68,false,stim,true,2,781,0,0,1,38448,task1,961842,false,true,1249,image-keyboard-response,13
true,10,1,1,2,false,d,false,false,0.0-2.0-0.41-0.376-3.376,0,0,0,90,false,stim,true,1,823,0,0,0,38448,task1,964204,false,false,1252,image-keyboard-response,14
true,10,2,1,2,true,d,false,true,0.0-2.0-0.41-0.377-3.377,0,0,0,68,false,stim,false,1,587,0,0,0,38448,task1,966318,false,false,1255,image-keyboard-response,15
true,10,2,1,2,true,d,false,true,0.0-2.0-0.42-0.378-3.378,0,0,0,68,false,stim,false,1,516,0,0,0,38448,task1,968367,false,false,1258,image-keyboard-response,16
true,10,2,1,1,false,z,false,false,0.0-2.0-0.42-0.379-3.379,0,0,0,68,false,stim,true,2,937,0,0,1,38448,task1,970839,false,false,1261,image-keyboard-response,17
true,10,0,1,0,true,q,false,true,0.0-2.0-0.42-0.380-3.380,0,0,0,81,false,stim,false,1,1642,0,0,2,38448,task1,974023,false,false,1264,image-keyboard-response,18
true,10,0,1,1,false,z,true,false,0.0-2.0-0.42-0.381-3.381,0,0,0,81,false,stim,false,2,1489,0,0,1,38448,task1,977050,false,false,1267,image-keyboard-response,19
true,10,2,1,2,true,d,false,false,0.0-2.0-0.42-0.382-3.382,0,0,0,68,false,stim,false,1,960,0,0,0,38448,task1,979551,false,true,1270,image-keyboard-response,20
true,10,0,1,0,true,q,false,true,0.0-2.0-0.42-0.383-3.383,0,0,0,81,false,stim,false,1,570,0,0,2,38448,task1,981651,false,false,1273,image-keyboard-response,21
true,10,1,1,1,true,z,false,true,0.0-2.0-0.42-0.384-3.384,0,0,0,90,false,stim,false,2,682,0,0,1,38448,task1,983863,false,false,1276,image-keyboard-response,22
true,10,0,1,0,true,q,false,true,0.0-2.0-0.42-0.385-3.385,0,0,0,81,false,stim,false,1,640,0,0,2,38448,task1,986041,false,false,1279,image-keyboard-response,23
true,10,2,1,2,true,d,false,true,0.0-2.0-0.42-0.386-3.386,0,0,0,68,false,stim,false,1,903,0,0,0,38448,task1,988484,false,false,1282,image-keyboard-response,24
true,10,1,1,1,true,z,false,true,0.0-2.0-0.43-0.387-3.387,0,0,0,90,false,stim,false,2,568,0,0,1,38448,task1,990589,false,false,1285,image-keyboard-response,25
true,10,0,1,0,true,q,false,true,0.0-2.0-0.43-0.388-3.388,0,0,0,81,false,stim,false,1,1222,0,0,2,38448,task1,993333,false,false,1288,image-keyboard-response,26
true,10,2,1,2,true,d,false,true,0.0-2.0-0.43-0.389-3.389,0,0,0,68,false,stim,false,1,1488,0,0,0,38448,task1,996359,false,false,1291,image-keyboard-response,27
true,10,0,1,0,true,q,false,true,0.0-2.0-0.43-0.390-3.390,0,0,0,81,false,stim,false,1,742,0,0,2,38448,task1,998642,false,false,1294,image-keyboard-response,28
true,10,2,1,2,true,d,false,true,0.0-2.0-0.43-0.391-3.391,0,0,0,68,false,stim,false,1,1860,0,0,0,38448,task1,1002041,false,false,1297,image-keyboard-response,29
true,10,2,1,2,true,d,false,false,0.0-2.0-0.43-0.392-3.392,0,0,0,68,false,stim,false,1,668,0,0,0,38448,task1,1004239,false,true,1300,image-keyboard-response,30
true,10,1,1,1,true,z,false,true,0.0-2.0-0.43-0.393-3.393,0,0,0,90,false,stim,false,2,1245,0,0,1,38448,task1,1007016,false,false,1303,image-keyboard-response,31
true,10,0,1,0,true,q,false,true,0.0-2.0-0.43-0.394-3.394,0,0,0,81,false,stim,false,1,728,0,0,2,38448,task1,1009268,false,false,1306,image-keyboard-response,32
true,10,1,1,1,true,z,false,true,0.0-2.0-0.43-0.395-3.395,0,0,0,90,false,stim,false,2,1298,0,0,1,38448,task1,1012099,false,false,1309,image-keyboard-response,33
true,10,2,1,2,true,d,false,false,0.0-2.0-0.44-0.396-3.396,0,0,0,68,false,stim,false,1,2641,0,0,0,38448,task1,1016281,false,true,1312,image-keyboard-response,34
true,10,0,1,2,false,d,true,false,0.0-2.0-0.44-0.397-3.397,0,0,0,81,false,stim,false,1,633,0,0,0,38448,task1,1018455,false,false,1315,image-keyboard-response,35
true,10,1,1,2,false,d,false,false,0.0-2.0-0.44-0.398-3.398,0,0,0,90,false,stim,true,1,522,0,0,0,38448,task1,1020504,false,false,1318,image-keyboard-response,36
true,10,0,1,0,true,q,false,true,0.0-2.0-0.44-0.399-3.399,0,0,0,81,false,stim,false,1,486,0,0,2,38448,task1,1022528,false,false,1321,image-keyboard-response,37
true,10,0,1,1,false,z,true,false,0.0-2.0-0.44-0.400-3.400,0,0,0,81,false,stim,false,2,470,0,0,1,38448,task1,1024531,false,false,1324,image-keyboard-response,38
true,10,0,1,0,true,q,false,true,0.0-2.0-0.44-0.401-3.401,0,0,0,81,false,stim,false,1,513,0,0,2,38448,task1,1026573,false,false,1327,image-keyboard-response,39
true,10,2,1,0,false,q,true,false,0.0-2.0-0.44-0.402-3.402,0,0,0,68,false,stim,false,1,1145,0,0,2,38448,task1,1029236,false,false,1330,image-keyboard-response,40
true,10,0,1,1,false,z,true,false,0.0-2.0-0.44-0.403-3.403,0,0,0,81,false,stim,false,2,544,0,0,1,38448,task1,1031314,false,false,1333,image-keyboard-response,41
true,10,1,1,1,true,z,false,true,0.0-2.0-0.44-0.404-3.404,0,0,0,90,false,stim,false,2,556,0,0,1,38448,task1,1033407,false,false,1336,image-keyboard-response,42
true,10,1,1,1,true,z,false,true,0.0-2.0-0.45-0.405-3.405,0,0,0,90,false,stim,false,2,435,0,0,1,38448,task1,1035366,false,false,1339,image-keyboard-response,43
true,10,1,1,2,false,d,false,false,0.0-2.0-0.45-0.406-3.406,0,0,0,90,false,stim,true,1,648,0,0,0,38448,task1,1037550,false,false,1342,image-keyboard-response,44
true,10,1,1,0,false,q,false,false,0.0-2.0-0.45-0.407-3.407,0,0,0,90,false,stim,true,1,859,0,0,2,38448,task1,1039927,false,false,1345,image-keyboard-response,45
true,11,1,2,0,false,q,false,false,0.0-2.0-0.45-0.408-3.408,0,0,0,90,true,stim,true,1,839,0,0,1,38448,task1,1042300,false,false,1348,image-keyboard-response,1
true,11,0,2,0,true,q,false,false,0.0-2.0-0.45-0.409-3.409,0,0,0,81,false,stim,false,2,607,0,0,0,38448,task1,1044438,false,true,1351,image-keyboard-response,2
true,11,2,2,0,false,q,false,false,0.0-2.0-0.45-0.410-3.410,0,0,0,68,false,stim,true,2,466,0,0,0,38448,task1,1046437,false,false,1354,image-keyboard-response,3
true,11,1,2,0,false,q,false,false,0.0-2.0-0.45-0.411-3.411,0,0,0,90,false,stim,true,1,727,0,0,1,38448,task1,1048698,false,false,1357,image-keyboard-response,4
true,11,2,2,2,true,d,false,true,0.0-2.0-0.45-0.412-3.412,0,0,0,68,false,stim,false,0,497,0,0,2,38448,task1,1050738,false,false,1360,image-keyboard-response,5
true,11,2,2,2,true,d,false,true,0.0-2.0-0.45-0.413-3.413,0,0,0,68,false,stim,false,0,481,0,0,2,38448,task1,1052761,false,false,1363,image-keyboard-response,6
true,11,2,2,2,true,d,false,true,0.0-2.0-0.46-0.414-3.414,0,0,0,68,false,stim,false,0,484,0,0,2,38448,task1,1054774,false,false,1366,image-keyboard-response,7
true,11,2,2,2,true,d,false,true,0.0-2.0-0.46-0.415-3.415,0,0,0,68,false,stim,false,0,504,0,0,2,38448,task1,1056815,false,false,1369,image-keyboard-response,8
true,11,0,2,0,true,q,false,true,0.0-2.0-0.46-0.416-3.416,0,0,0,81,false,stim,false,1,426,0,0,1,38448,task1,1058777,false,false,1372,image-keyboard-response,9
true,11,0,2,0,true,q,false,true,0.0-2.0-0.46-0.417-3.417,0,0,0,81,false,stim,false,1,466,0,0,1,38448,task1,1060776,false,false,1375,image-keyboard-response,10
true,11,1,2,0,false,q,true,true,0.0-2.0-0.46-0.418-3.418,0,0,0,90,false,stim,false,2,1083,0,0,0,38448,task1,1063384,false,true,1378,image-keyboard-response,11
true,11,1,2,0,false,q,true,false,0.0-2.0-0.46-0.419-3.419,0,0,0,90,false,stim,false,2,913,0,0,0,38448,task1,1065835,false,false,1381,image-keyboard-response,12
true,11,0,2,0,true,q,false,true,0.0-2.0-0.46-0.420-3.420,0,0,0,81,false,stim,false,1,512,0,0,1,38448,task1,1067873,false,false,1384,image-keyboard-response,13
true,11,2,2,2,true,d,false,true,0.0-2.0-0.46-0.421-3.421,0,0,0,68,false,stim,false,0,571,0,0,2,38448,task1,1069972,false,false,1387,image-keyboard-response,14
true,11,1,2,0,false,q,true,false,0.0-2.0-0.46-0.422-3.422,0,0,0,90,false,stim,false,2,1337,0,0,0,38448,task1,1072838,false,false,1390,image-keyboard-response,15
true,11,2,2,0,false,q,false,false,0.0-2.0-0.47-0.423-3.423,0,0,0,68,false,stim,true,2,436,0,0,0,38448,task1,1074796,false,false,1393,image-keyboard-response,16
true,11,0,2,0,true,q,false,true,0.0-2.0-0.47-0.424-3.424,0,0,0,81,false,stim,false,2,583,0,0,0,38448,task1,1076895,false,false,1396,image-keyboard-response,17
true,11,0,2,0,true,q,false,true,0.0-2.0-0.47-0.425-3.425,0,0,0,81,false,stim,false,2,452,0,0,0,38448,task1,1078884,false,false,1399,image-keyboard-response,18
true,11,2,2,0,false,q,true,false,0.0-2.0-0.47-0.426-3.426,0,0,0,68,false,stim,false,1,711,0,0,1,38448,task1,1081111,false,false,1402,image-keyboard-response,19
true,11,2,2,2,true,d,false,true,0.0-2.0-0.47-0.427-3.427,0,0,0,68,false,stim,false,0,310,0,0,2,38448,task1,1082961,false,false,1405,image-keyboard-response,20
true,11,2,2,2,true,d,false,true,0.0-2.0-0.47-0.428-3.428,0,0,0,68,false,stim,false,0,414,0,0,2,38448,task1,1084905,false,false,1408,image-keyboard-response,21
true,11,0,2,0,true,q,false,true,0.0-2.0-0.47-0.429-3.429,0,0,0,81,false,stim,false,1,447,0,0,1,38448,task1,1086888,false,false,1411,image-keyboard-response,22
true,11,0,2,0,true,q,false,true,0.0-2.0-0.47-0.430-3.430,0,0,0,81,false,stim,false,1,560,0,0,1,38448,task1,1088981,false,false,1414,image-keyboard-response,23
true,11,2,2,2,true,d,false,true,0.0-2.0-0.47-0.431-3.431,0,0,0,68,false,stim,false,0,873,0,0,2,38448,task1,1091394,false,false,1417,image-keyboard-response,24
true,11,0,2,0,true,q,false,false,0.0-2.0-0.48-0.432-3.432,0,0,0,81,false,stim,false,2,1937,0,0,0,38448,task1,1094858,false,true,1420,image-keyboard-response,25
true,11,2,2,0,false,q,false,false,0.0-2.0-0.48-0.433-3.433,0,0,0,68,false,stim,true,2,1029,0,0,0,38448,task1,1097420,false,false,1423,image-keyboard-response,26
true,11,2,2,0,false,q,true,false,0.0-2.0-0.48-0.434-3.434,0,0,0,68,false,stim,false,1,602,0,0,1,38448,task1,1099563,false,false,1426,image-keyboard-response,27
true,11,1,2,0,false,q,true,false,0.0-2.0-0.48-0.435-3.435,0,0,0,90,false,stim,false,2,921,0,0,0,38448,task1,1102001,false,false,1429,image-keyboard-response,28
true,11,2,2,2,true,d,false,true,0.0-2.0-0.48-0.436-3.436,0,0,0,68,false,stim,false,0,848,0,0,2,38448,task1,1104378,false,false,1432,image-keyboard-response,29
true,11,0,2,0,true,q,false,true,0.0-2.0-0.48-0.437-3.437,0,0,0,81,false,stim,false,1,471,0,0,1,38448,task1,1106382,false,false,1435,image-keyboard-response,30
true,11,0,2,0,true,q,false,true,0.0-2.0-0.48-0.438-3.438,0,0,0,81,false,stim,false,1,414,0,0,1,38448,task1,1108325,false,false,1438,image-keyboard-response,31
true,11,2,2,2,true,d,false,true,0.0-2.0-0.48-0.439-3.439,0,0,0,68,false,stim,false,0,653,0,0,2,38448,task1,1110505,false,false,1441,image-keyboard-response,32
true,11,2,2,2,true,d,false,true,0.0-2.0-0.48-0.440-3.440,0,0,0,68,false,stim,false,0,431,0,0,2,38448,task1,1112463,false,false,1444,image-keyboard-response,33
true,11,2,2,2,true,d,false,false,0.0-2.0-0.49-0.441-3.441,0,0,0,68,false,stim,false,0,425,0,0,2,38448,task1,1114417,false,true,1447,image-keyboard-response,34
true,11,0,2,0,true,q,false,true,0.0-2.0-0.49-0.442-3.442,0,0,0,81,false,stim,false,2,814,0,0,0,38448,task1,1116765,false,false,1450,image-keyboard-response,35
true,11,0,2,0,true,q,false,true,0.0-2.0-0.49-0.443-3.443,0,0,0,81,false,stim,false,2,481,0,0,0,38448,task1,1118772,false,false,1453,image-keyboard-response,36
true,11,0,2,0,true,q,false,true,0.0-2.0-0.49-0.444-3.444,0,0,0,81,false,stim,false,1,655,0,0,1,38448,task1,1120967,false,false,1456,image-keyboard-response,37
true,11,0,2,0,true,q,false,true,0.0-2.0-0.49-0.445-3.445,0,0,0,81,false,stim,false,2,468,0,0,0,38448,task1,1122970,false,false,1459,image-keyboard-response,38
true,11,0,2,0,true,q,false,true,0.0-2.0-0.49-0.446-3.446,0,0,0,81,false,stim,false,1,552,0,0,1,38448,task1,1125053,false,false,1462,image-keyboard-response,39
true,11,2,2,2,true,d,false,true,0.0-2.0-0.49-0.447-3.447,0,0,0,68,false,stim,false,0,470,0,0,2,38448,task1,1127051,false,false,1465,image-keyboard-response,40
true,11,0,2,0,true,q,false,true,0.0-2.0-0.49-0.448-3.448,0,0,0,81,false,stim,false,1,424,0,0,1,38448,task1,1129006,false,false,1468,image-keyboard-response,41
true,12,2,2,1,false,z,false,false,0.0-2.0-0.49-0.449-3.449,0,0,0,68,true,stim,true,2,468,0,0,2,38448,task1,1130999,false,false,1471,image-keyboard-response,1
true,12,0,2,2,false,d,false,false,0.0-2.0-0.50-0.450-3.450,0,0,0,81,false,stim,true,0,437,0,0,1,38448,task1,1132969,false,false,1474,image-keyboard-response,2
true,12,2,2,1,false,z,true,false,0.0-2.0-0.50-0.451-3.451,0,0,0,68,false,stim,false,0,1159,0,0,0,38448,task1,1135660,false,false,1477,image-keyboard-response,3
true,12,0,2,2,false,d,false,false,0.0-2.0-0.50-0.452-3.452,0,0,0,81,false,stim,true,0,1304,0,0,1,38448,task1,1138506,false,false,1480,image-keyboard-response,4
true,12,1,2,1,true,z,false,true,0.0-2.0-0.50-0.453-3.453,0,0,0,90,false,stim,false,2,962,0,0,2,38448,task1,1141003,false,false,1483,image-keyboard-response,5
true,12,1,2,1,true,z,false,true,0.0-2.0-0.50-0.454-3.454,0,0,0,90,false,stim,false,2,730,0,0,2,38448,task1,1143261,false,false,1486,image-keyboard-response,6
true,12,1,2,1,true,z,false,true,0.0-2.0-0.50-0.455-3.455,0,0,0,90,false,stim,false,2,543,0,0,2,38448,task1,1145334,false,false,1489,image-keyboard-response,7
true,12,0,2,1,false,z,false,false,0.0-2.0-0.50-0.456-3.456,0,0,0,81,false,stim,true,0,792,0,0,0,38448,task1,1147662,false,false,1492,image-keyboard-response,8
true,12,2,2,2,true,d,false,true,0.0-2.0-0.50-0.457-3.457,0,0,0,68,false,stim,false,0,1350,0,0,1,38448,task1,1150543,false,false,1495,image-keyboard-response,9
true,12,2,2,1,false,z,true,false,0.0-2.0-0.50-0.458-3.458,0,0,0,68,false,stim,false,0,1303,0,0,0,38448,task1,1153374,false,false,1498,image-keyboard-response,10
true,12,1,2,1,true,z,false,false,0.0-2.0-0.51-0.459-3.459,0,0,0,90,false,stim,false,0,794,0,0,0,38448,task1,1155682,false,true,1501,image-keyboard-response,11
true,12,2,2,2,true,d,false,true,0.0-2.0-0.51-0.460-3.460,0,0,0,68,false,stim,false,0,434,0,0,1,38448,task1,1157656,false,false,1504,image-keyboard-response,12
true,12,0,2,1,false,z,false,false,0.0-2.0-0.51-0.461-3.461,0,0,0,81,false,stim,true,0,717,0,0,0,38448,task1,1159908,false,false,1507,image-keyboard-response,13
true,12,2,2,2,true,d,false,true,0.0-2.0-0.51-0.462-3.462,0,0,0,68,false,stim,false,0,758,0,0,1,38448,task1,1162206,false,false,1510,image-keyboard-response,14
true,12,1,2,1,true,z,false,true,0.0-2.0-0.51-0.463-3.463,0,0,0,90,false,stim,false,2,688,0,0,2,38448,task1,1164430,false,false,1513,image-keyboard-response,15
true,12,1,2,1,true,z,false,true,0.0-2.0-0.51-0.464-3.464,0,0,0,90,false,stim,false,2,361,0,0,2,38448,task1,1166323,false,false,1516,image-keyboard-response,16
true,12,1,2,1,true,z,false,true,0.0-2.0-0.51-0.465-3.465,0,0,0,90,false,stim,false,0,884,0,0,0,38448,task1,1168741,false,false,1519,image-keyboard-response,17
true,12,2,2,2,true,d,false,true,0.0-2.0-0.51-0.466-3.466,0,0,0,68,false,stim,false,0,803,0,0,1,38448,task1,1171084,false,false,1522,image-keyboard-response,18
true,12,1,2,1,true,z,false,true,0.0-2.0-0.51-0.467-3.467,0,0,0,90,false,stim,false,2,760,0,0,2,38448,task1,1173381,false,false,1525,image-keyboard-response,19
true,12,1,2,1,true,z,false,true,0.0-2.0-0.52-0.468-3.468,0,0,0,90,false,stim,false,2,534,0,0,2,38448,task1,1175455,false,false,1528,image-keyboard-response,20
true,12,1,2,1,true,z,false,true,0.0-2.0-0.52-0.469-3.469,0,0,0,90,false,stim,false,2,571,0,0,2,38448,task1,1177553,false,false,1531,image-keyboard-response,21
true,12,2,2,1,false,z,true,false,0.0-2.0-0.52-0.470-3.470,0,0,0,68,false,stim,false,0,800,0,0,0,38448,task1,1179881,false,false,1534,image-keyboard-response,22
true,12,1,2,1,true,z,false,false,0.0-2.0-0.52-0.471-3.471,0,0,0,90,false,stim,false,0,498,0,0,0,38448,task1,1181920,false,true,1537,image-keyboard-response,23
true,12,2,2,2,true,d,false,true,0.0-2.0-0.52-0.472-3.472,0,0,0,68,false,stim,false,0,552,0,0,1,38448,task1,1184013,false,false,1540,image-keyboard-response,24
true,12,0,2,1,false,z,false,false,0.0-2.0-0.52-0.473-3.473,0,0,0,81,false,stim,true,0,879,0,0,0,38448,task1,1186420,false,false,1543,image-keyboard-response,25
true,12,2,2,2,true,d,false,true,0.0-2.0-0.52-0.474-3.474,0,0,0,68,false,stim,false,0,627,0,0,1,38448,task1,1188588,false,false,1546,image-keyboard-response,26
true,12,1,2,1,true,z,false,true,0.0-2.0-0.52-0.475-3.475,0,0,0,90,false,stim,false,2,561,0,0,2,38448,task1,1190682,false,false,1549,image-keyboard-response,27
true,12,2,2,2,true,d,false,true,0.0-2.0-0.52-0.476-3.476,0,0,0,68,false,stim,false,0,543,0,0,1,38448,task1,1192765,false,false,1552,image-keyboard-response,28
true,12,1,2,1,true,z,false,false,0.0-2.0-0.53-0.477-3.477,0,0,0,90,false,stim,false,0,677,0,0,0,38448,task1,1194969,false,true,1555,image-keyboard-response,29
true,12,2,2,1,false,z,false,true,0.0-2.0-0.53-0.478-3.478,0,0,0,68,false,stim,true,2,665,0,0,2,38448,task1,1197176,false,true,1558,image-keyboard-response,30
true,12,2,2,1,false,z,false,false,0.0-2.0-0.53-0.479-3.479,0,0,0,68,false,stim,true,2,520,0,0,2,38448,task1,1199229,false,false,1561,image-keyboard-response,31
true,12,1,2,1,true,z,false,true,0.0-2.0-0.53-0.480-3.480,0,0,0,90,false,stim,false,0,1828,0,0,0,38448,task1,1202598,false,false,1564,image-keyboard-response,32
true,12,2,2,2,true,d,false,true,0.0-2.0-0.53-0.481-3.481,0,0,0,68,false,stim,false,0,846,0,0,1,38448,task1,1204978,false,false,1567,image-keyboard-response,33
true,12,2,2,2,true,d,false,true,0.0-2.0-0.53-0.482-3.482,0,0,0,68,false,stim,false,0,488,0,0,1,38448,task1,1206980,false,false,1570,image-keyboard-response,34
true,12,2,2,2,true,d,false,true,0.0-2.0-0.53-0.483-3.483,0,0,0,68,false,stim,false,0,716,0,0,1,38448,task1,1209218,false,false,1573,image-keyboard-response,35
true,12,1,2,1,true,z,false,true,0.0-2.0-0.53-0.484-3.484,0,0,0,90,false,stim,false,0,675,0,0,0,38448,task1,1211416,false,false,1576,image-keyboard-response,36
true,12,1,2,1,true,z,false,true,0.0-2.0-0.53-0.485-3.485,0,0,0,90,false,stim,false,2,852,0,0,2,38448,task1,1213793,false,false,1579,image-keyboard-response,37
true,12,1,2,1,true,z,false,true,0.0-2.0-0.54-0.486-3.486,0,0,0,90,false,stim,false,2,2605,0,0,2,38448,task1,1217926,false,false,1582,image-keyboard-response,38
true,12,1,2,1,true,z,false,true,0.0-2.0-0.54-0.487-3.487,0,0,0,90,false,stim,false,2,508,0,0,2,38448,task1,1219969,false,false,1585,image-keyboard-response,39
true,12,2,2,2,true,d,false,true,0.0-2.0-0.54-0.488-3.488,0,0,0,68,false,stim,false,0,1294,0,0,1,38448,task1,1222795,false,false,1588,image-keyboard-response,40
true,12,1,2,1,true,z,false,true,0.0-2.0-0.54-0.489-3.489,0,0,0,90,false,stim,false,0,1130,0,0,0,38448,task1,1225451,false,false,1591,image-keyboard-response,41
true,12,1,2,1,true,z,false,true,0.0-2.0-0.54-0.490-3.490,0,0,0,90,false,stim,false,2,2382,0,0,2,38448,task1,1229364,false,false,1594,image-keyboard-response,42
true,12,2,2,2,true,d,false,true,0.0-2.0-0.54-0.491-3.491,0,0,0,68,false,stim,false,0,1836,0,0,1,38448,task1,1232728,false,false,1597,image-keyboard-response,43
true,12,1,2,1,true,z,false,true,0.0-2.0-0.54-0.492-3.492,0,0,0,90,false,stim,false,0,930,0,0,0,38448,task1,1235191,false,false,1600,image-keyboard-response,44
true,12,1,2,1,true,z,false,true,0.0-2.0-0.54-0.493-3.493,0,0,0,90,false,stim,false,0,672,0,0,0,38448,task1,1237393,false,false,1603,image-keyboard-response,45
true,13,2,2,0,false,q,false,false,0.0-2.0-0.54-0.494-3.494,0,0,0,68,true,stim,true,2,1199,0,0,1,38448,task1,1240121,false,false,1606,image-keyboard-response,1
true,13,2,2,2,true,d,false,true,0.0-2.0-0.55-0.495-3.495,0,0,0,68,false,stim,false,1,696,0,0,2,38448,task1,1242358,false,false,1609,image-keyboard-response,2
true,13,1,2,0,false,q,false,false,0.0-2.0-0.55-0.496-3.496,0,0,0,90,false,stim,true,1,1388,0,0,0,38448,task1,1245263,false,false,1612,image-keyboard-response,3
true,13,1,2,0,false,q,false,false,0.0-2.0-0.55-0.497-3.497,0,0,0,90,false,stim,true,1,2260,0,0,0,38448,task1,1249062,false,false,1615,image-keyboard-response,4
true,13,2,2,0,false,q,false,false,0.0-2.0-0.55-0.498-3.498,0,0,0,68,false,stim,true,2,777,0,0,1,38448,task1,1251379,false,false,1618,image-keyboard-response,5
true,13,0,2,2,false,d,true,false,0.0-2.0-0.55-0.499-3.499,0,0,0,81,false,stim,false,1,840,0,0,2,38448,task1,1253762,false,false,1621,image-keyboard-response,6
true,13,2,2,2,true,d,false,true,0.0-2.0-0.55-0.500-3.500,0,0,0,68,false,stim,false,1,510,0,0,2,38448,task1,1255811,false,false,1624,image-keyboard-response,7
true,13,0,2,0,true,q,false,true,0.0-2.0-0.55-0.501-3.501,0,0,0,81,false,stim,false,2,501,0,0,1,38448,task1,1257844,false,false,1627,image-keyboard-response,8
true,13,0,2,0,true,q,false,true,0.0-2.0-0.55-0.502-3.502,0,0,0,81,false,stim,false,2,874,0,0,1,38448,task1,1260246,false,false,1630,image-keyboard-response,9
true,13,0,2,0,true,q,false,true,0.0-2.0-0.55-0.503-3.503,0,0,0,81,false,stim,false,1,992,0,0,0,38448,task1,1262764,false,false,1633,image-keyboard-response,10
true,13,2,2,2,true,d,false,true,0.0-2.0-0.56-0.504-3.504,0,0,0,68,false,stim,false,1,380,0,0,2,38448,task1,1264671,false,false,1636,image-keyboard-response,11
true,13,0,2,0,true,q,false,true,0.0-2.0-0.56-0.505-3.505,0,0,0,81,false,stim,false,1,863,0,0,0,38448,task1,1267064,false,false,1639,image-keyboard-response,12
true,13,2,2,2,true,d,false,true,0.0-2.0-0.56-0.506-3.506,0,0,0,68,false,stim,false,1,756,0,0,2,38448,task1,1269358,false,false,1642,image-keyboard-response,13
true,13,0,2,0,true,q,false,true,0.0-2.0-0.56-0.507-3.507,0,0,0,81,false,stim,false,2,638,0,0,1,38448,task1,1271521,false,false,1645,image-keyboard-response,14
true,13,0,2,2,false,d,true,false,0.0-2.0-0.56-0.508-3.508,0,0,0,81,false,stim,false,1,592,0,0,2,38448,task1,1273643,false,false,1648,image-keyboard-response,15
true,13,0,2,0,true,q,false,true,0.0-2.0-0.56-0.509-3.509,0,0,0,81,false,stim,false,2,519,0,0,1,38448,task1,1275692,false,false,1651,image-keyboard-response,16
true,13,0,2,0,true,q,false,true,0.0-2.0-0.56-0.510-3.510,0,0,0,81,false,stim,false,2,897,0,0,1,38448,task1,1278119,false,false,1654,image-keyboard-response,17
true,13,0,2,0,true,q,false,true,0.0-2.0-0.56-0.511-3.511,0,0,0,81,false,stim,false,1,1177,0,0,0,38448,task1,1280840,false,false,1657,image-keyboard-response,18
true,13,0,2,0,true,q,false,true,0.0-2.0-0.56-0.512-3.512,0,0,0,81,false,stim,false,1,458,0,0,0,38448,task1,1282839,false,false,1660,image-keyboard-response,19
true,13,2,2,2,true,d,false,true,0.0-2.0-0.57-0.513-3.513,0,0,0,68,false,stim,false,1,505,0,0,2,38448,task1,1284887,false,false,1663,image-keyboard-response,20
true,13,0,2,0,true,q,false,true,0.0-2.0-0.57-0.514-3.514,0,0,0,81,false,stim,false,1,669,0,0,0,38448,task1,1287080,false,false,1666,image-keyboard-response,21
true,13,0,2,0,true,q,false,true,0.0-2.0-0.57-0.515-3.515,0,0,0,81,false,stim,false,1,666,0,0,0,38448,task1,1289278,false,false,1669,image-keyboard-response,22
true,13,0,2,0,true,q,false,true,0.0-2.0-0.57-0.516-3.516,0,0,0,81,false,stim,false,2,769,0,0,1,38448,task1,1291570,false,false,1672,image-keyboard-response,23
true,13,0,2,0,true,q,false,true,0.0-2.0-0.57-0.517-3.517,0,0,0,81,false,stim,false,1,632,0,0,0,38448,task1,1293733,false,false,1675,image-keyboard-response,24
true,13,0,2,0,true,q,false,true,0.0-2.0-0.57-0.518-3.518,0,0,0,81,false,stim,false,2,820,0,0,1,38448,task1,1296092,false,false,1678,image-keyboard-response,25
true,13,0,2,0,true,q,false,true,0.0-2.0-0.57-0.519-3.519,0,0,0,81,false,stim,false,2,965,0,0,1,38448,task1,1298588,false,false,1681,image-keyboard-response,26
true,13,2,2,2,true,d,false,false,0.0-2.0-0.57-0.520-3.520,0,0,0,68,false,stim,false,1,471,0,0,2,38448,task1,1300593,false,true,1684,image-keyboard-response,27
true,13,2,2,2,true,d,false,true,0.0-2.0-0.57-0.521-3.521,0,0,0,68,false,stim,false,1,718,0,0,2,38448,task1,1302839,false,false,1687,image-keyboard-response,28
true,13,2,2,2,true,d,false,true,0.0-2.0-0.58-0.522-3.522,0,0,0,68,false,stim,false,1,1185,0,0,2,38448,task1,1305565,false,false,1690,image-keyboard-response,29
true,13,0,2,0,true,q,false,true,0.0-2.0-0.58-0.523-3.523,0,0,0,81,false,stim,false,2,514,0,0,1,38448,task1,1307615,false,false,1693,image-keyboard-response,30
true,13,2,2,2,true,d,false,true,0.0-2.0-0.58-0.524-3.524,0,0,0,68,false,stim,false,1,570,0,0,2,38448,task1,1309712,false,false,1696,image-keyboard-response,31
true,13,0,2,0,true,q,false,true,0.0-2.0-0.58-0.525-3.525,0,0,0,81,false,stim,false,1,922,0,0,0,38448,task1,1312164,false,false,1699,image-keyboard-response,32
true,13,2,2,2,true,d,false,true,0.0-2.0-0.58-0.526-3.526,0,0,0,68,false,stim,false,1,941,0,0,2,38448,task1,1314642,false,false,1702,image-keyboard-response,33
true,13,0,2,0,true,q,false,false,0.0-2.0-0.58-0.527-3.527,0,0,0,81,false,stim,false,2,543,0,0,1,38448,task1,1316724,false,true,1705,image-keyboard-response,34
true,13,0,2,0,true,q,false,true,0.0-2.0-0.58-0.528-3.528,0,0,0,81,false,stim,false,2,636,0,0,1,38448,task1,1318898,false,false,1708,image-keyboard-response,35
true,13,0,2,0,true,q,false,false,0.0-2.0-0.58-0.529-3.529,0,0,0,81,false,stim,false,1,479,0,0,0,38448,task1,1320901,false,true,1711,image-keyboard-response,36
true,13,0,2,0,true,q,false,true,0.0-2.0-0.58-0.530-3.530,0,0,0,81,false,stim,false,1,519,0,0,0,38448,task1,1322959,false,false,1714,image-keyboard-response,37
true,13,2,2,2,true,d,false,true,0.0-2.0-0.59-0.531-3.531,0,0,0,68,false,stim,false,1,631,0,0,2,38448,task1,1325123,false,false,1717,image-keyboard-response,38
true,13,2,2,2,true,d,false,true,0.0-2.0-0.59-0.532-3.532,0,0,0,68,false,stim,false,1,430,0,1,2,38448,task1,1327081,false,false,1720,image-keyboard-response,39
true,13,0,2,0,true,q,false,true,0.0-2.0-0.59-0.533-3.533,0,0,0,81,false,stim,false,2,597,0,1,1,38448,task1,1329209,false,false,1723,image-keyboard-response,40
true,13,0,2,0,true,q,false,true,0.0-2.0-0.59-0.534-3.534,0,0,0,81,false,stim,false,2,686,0,1,1,38448,task1,1331438,false,false,1726,image-keyboard-response,41
true,13,0,2,0,true,q,false,true,0.0-2.0-0.59-0.535-3.535,0,0,0,81,false,stim,false,1,928,0,1,0,38448,task1,1333890,false,false,1729,image-keyboard-response,42
true,13,2,2,2,true,d,false,true,0.0-2.0-0.59-0.536-3.536,0,0,0,68,false,stim,false,1,1822,0,1,2,38448,task1,1337244,false,false,1732,image-keyboard-response,43
true,14,1,0,0,false,q,true,false,0.0-2.0-0.59-0.537-3.537,1,1,1,90,true,stim,false,0,1823,0,1,0,38448,task1,1462916,false,false,1855,image-keyboard-response,1
true,14,2,0,0,false,q,true,true,0.0-2.0-0.59-0.538-3.538,1,1,1,68,false,stim,false,0,874,0,1,0,38448,task1,1465327,false,true,1858,image-keyboard-response,2
true,14,0,0,0,true,q,false,true,0.0-2.0-0.59-0.539-3.539,1,1,1,81,false,stim,false,0,842,0,1,1,38448,task1,1467714,false,false,1861,image-keyboard-response,3
true,14,0,0,0,true,q,false,true,0.0-2.0-0.60-0.540-3.540,1,1,1,81,false,stim,false,0,441,0,1,1,38448,task1,1469692,false,false,1864,image-keyboard-response,4
true,14,1,0,2,false,d,true,false,0.0-2.0-0.60-0.541-3.541,1,1,1,90,false,stim,false,2,644,0,1,2,38448,task1,1471856,false,false,1867,image-keyboard-response,5
true,14,0,0,2,false,d,true,false,0.0-2.0-0.60-0.542-3.542,1,1,1,81,false,stim,false,2,707,0,1,2,38448,task1,1474099,false,false,1870,image-keyboard-response,6
true,14,2,0,0,false,q,true,false,0.0-2.0-0.60-0.543-3.543,1,1,1,68,false,stim,false,0,467,0,1,0,38448,task1,1476098,false,false,1873,image-keyboard-response,7
true,14,0,0,0,true,q,false,true,0.0-2.0-0.60-0.544-3.544,1,1,1,81,false,stim,false,0,449,0,1,1,38448,task1,1478081,false,false,1876,image-keyboard-response,8
true,14,2,0,2,true,d,false,true,0.0-2.0-0.60-0.545-3.545,1,1,1,68,false,stim,false,2,444,0,0,2,38448,task1,1480056,false,false,1879,image-keyboard-response,9
true,14,2,0,0,false,q,true,false,0.0-2.0-0.60-0.546-3.546,1,1,1,68,false,stim,false,0,556,0,0,0,38448,task1,1482148,false,false,1882,image-keyboard-response,10
true,14,0,0,0,true,q,false,true,0.0-2.0-0.60-0.547-3.547,1,1,1,81,false,stim,false,0,719,0,0,1,38448,task1,1484390,false,false,1885,image-keyboard-response,11
true,14,1,0,0,false,q,true,false,0.0-2.0-0.60-0.548-3.548,1,1,1,90,false,stim,false,0,760,0,0,0,38448,task1,1486693,false,false,1888,image-keyboard-response,12
true,14,2,0,2,true,d,false,true,0.0-2.0-0.61-0.549-3.549,1,1,1,68,false,stim,false,2,600,0,0,2,38448,task1,1488832,false,false,1891,image-keyboard-response,13
true,15,0,1,2,false,d,false,false,0.0-2.0-0.61-0.550-3.550,0,0,0,81,true,stim,true,0,1111,0,0,0,38448,task1,1491483,false,false,1894,image-keyboard-response,1
true,15,0,1,2,false,d,false,false,0.0-2.0-0.61-0.551-3.551,0,0,0,81,false,stim,true,0,549,0,0,1,38448,task1,1493572,false,false,1897,image-keyboard-response,2
true,15,0,1,2,false,d,false,false,0.0-2.0-0.61-0.552-3.552,0,0,0,81,false,stim,true,0,498,0,0,1,38448,task1,1495600,false,false,1900,image-keyboard-response,3
true,15,2,1,1,false,z,false,false,0.0-2.0-0.61-0.553-3.553,0,0,0,68,false,stim,true,2,917,0,0,2,38448,task1,1498058,false,false,1903,image-keyboard-response,4
true,15,1,1,1,true,z,false,true,0.0-2.0-0.61-0.554-3.554,0,0,0,90,false,stim,false,2,553,0,0,2,38448,task1,1500125,false,false,1906,image-keyboard-response,5
true,15,2,1,2,true,d,false,true,0.0-2.0-0.61-0.555-3.555,0,0,0,68,false,stim,false,0,1474,0,0,1,38448,task1,1503131,false,false,1909,image-keyboard-response,6
true,15,0,1,2,false,d,false,false,0.0-2.0-0.61-0.556-3.556,0,0,0,81,false,stim,true,0,716,0,0,0,38448,task1,1505377,false,false,1912,image-keyboard-response,7
true,15,1,1,2,false,d,true,false,0.0-2.0-0.61-0.557-3.557,0,0,0,90,false,stim,false,0,659,0,0,0,38448,task1,1507561,false,false,1915,image-keyboard-response,8
true,15,2,1,2,true,d,false,true,0.0-2.0-0.62-0.558-3.558,0,0,0,68,false,stim,false,0,827,0,0,1,38448,task1,1509925,false,false,1918,image-keyboard-response,9
true,15,2,1,2,true,d,false,true,0.0-2.0-0.62-0.559-3.559,0,0,0,68,false,stim,false,0,396,0,0,1,38448,task1,1511848,false,false,1921,image-keyboard-response,10
true,15,1,1,1,true,z,false,true,0.0-2.0-0.62-0.560-3.560,0,0,0,90,false,stim,false,2,634,0,0,2,38448,task1,1514007,false,false,1924,image-keyboard-response,11
true,15,1,1,1,true,z,false,false,0.0-2.0-0.62-0.561-3.561,0,0,0,90,false,stim,false,2,449,0,0,2,38448,task1,1515990,false,true,1927,image-keyboard-response,12
true,15,2,1,2,true,d,false,true,0.0-2.0-0.62-0.562-3.562,0,0,0,68,false,stim,false,0,452,0,0,1,38448,task1,1517973,false,false,1930,image-keyboard-response,13
true,15,2,1,2,true,d,false,true,0.0-2.0-0.62-0.563-3.563,0,0,0,68,false,stim,false,0,1248,0,0,0,38448,task1,1520749,false,false,1933,image-keyboard-response,14
true,15,1,1,1,true,z,false,true,0.0-2.0-0.62-0.564-3.564,0,0,0,90,false,stim,false,2,875,0,0,2,38448,task1,1523146,false,false,1936,image-keyboard-response,15
false,15,-1,1,2,false,d,true,false,0.0-2.0-0.62-0.565-3.565,0,0,0,,false,stim,false,0,,0,0,0,38448,task1,1527700,false,false,1939,image-keyboard-response,16
true,15,2,1,2,true,d,false,true,0.0-2.0-0.62-0.566-3.566,0,0,0,68,false,stim,false,0,387,0,0,0,38448,task1,1529630,false,false,1942,image-keyboard-response,17
true,15,1,1,1,true,z,false,true,0.0-2.0-0.63-0.567-3.567,0,0,0,90,false,stim,false,2,1828,0,0,2,38448,task1,1532990,false,false,1945,image-keyboard-response,18
true,15,2,1,2,true,d,false,true,0.0-2.0-0.63-0.568-3.568,0,0,0,68,false,stim,false,0,775,0,0,1,38448,task1,1535297,false,false,1948,image-keyboard-response,19
true,15,2,1,2,true,d,false,true,0.0-2.0-0.63-0.569-3.569,0,0,0,68,false,stim,false,0,1974,0,0,1,38448,task1,1538807,false,false,1951,image-keyboard-response,20
true,15,2,1,2,true,d,false,true,0.0-2.0-0.63-0.570-3.570,0,0,0,68,false,stim,false,0,2904,0,0,0,38448,task1,1543236,false,false,1954,image-keyboard-response,21
true,15,2,1,2,true,d,false,true,0.0-2.0-0.63-0.571-3.571,0,0,0,68,false,stim,false,0,2660,0,0,0,38448,task1,1547423,false,false,1957,image-keyboard-response,22
true,15,1,1,1,true,z,false,true,0.0-2.0-0.63-0.572-3.572,0,0,0,90,false,stim,false,2,804,0,0,2,38448,task1,1549755,false,false,1960,image-keyboard-response,23
true,15,1,1,1,true,z,false,true,0.0-2.0-0.63-0.573-3.573,0,0,0,90,false,stim,false,2,402,0,0,2,38448,task1,1551694,false,false,1963,image-keyboard-response,24
true,15,2,1,2,true,d,false,true,0.0-2.0-0.63-0.574-3.574,0,0,0,68,false,stim,false,0,531,0,0,0,38448,task1,1553757,false,false,1966,image-keyboard-response,25
true,15,2,1,2,true,d,false,true,0.0-2.0-0.63-0.575-3.575,0,0,0,68,false,stim,false,0,642,0,0,1,38448,task1,1555925,false,false,1969,image-keyboard-response,26
true,15,2,1,2,true,d,false,true,0.0-2.0-0.64-0.576-3.576,0,0,0,68,false,stim,false,0,2341,0,0,0,38448,task1,1559804,false,false,1972,image-keyboard-response,27
true,15,1,1,2,false,d,true,false,0.0-2.0-0.64-0.577-3.577,0,0,0,90,false,stim,false,0,590,0,0,1,38448,task1,1561932,false,false,1975,image-keyboard-response,28
true,15,2,1,2,true,d,false,true,0.0-2.0-0.64-0.578-3.578,0,0,0,68,false,stim,false,0,428,0,0,1,38448,task1,1563900,false,false,1978,image-keyboard-response,29
true,15,1,1,1,true,z,false,true,0.0-2.0-0.64-0.579-3.579,0,0,0,90,false,stim,false,2,457,0,0,2,38448,task1,1565890,false,false,1981,image-keyboard-response,30
true,15,2,1,2,true,d,false,false,0.0-2.0-0.64-0.580-3.580,0,0,0,68,false,stim,false,0,486,0,0,0,38448,task1,1567918,false,true,1984,image-keyboard-response,31
true,15,1,1,1,true,z,false,false,0.0-2.0-0.64-0.581-3.581,0,0,0,90,false,stim,false,2,443,0,0,2,38448,task1,1569886,false,true,1987,image-keyboard-response,32
true,15,0,1,2,false,d,false,false,0.0-2.0-0.64-0.582-3.582,0,0,0,81,false,stim,true,0,418,0,0,1,38448,task1,1571840,false,false,1990,image-keyboard-response,33
true,15,2,1,2,true,d,false,true,0.0-2.0-0.64-0.583-3.583,0,0,0,68,false,stim,false,0,373,0,0,0,38448,task1,1573755,false,false,1993,image-keyboard-response,34
true,15,2,1,1,false,z,false,false,0.0-2.0-0.64-0.584-3.584,0,0,0,68,false,stim,true,2,705,0,0,2,38448,task1,1575986,false,false,1996,image-keyboard-response,35
true,15,0,1,1,false,z,true,false,0.0-2.0-0.65-0.585-3.585,0,0,0,81,false,stim,false,2,353,0,0,2,38448,task1,1577875,false,false,1999,image-keyboard-response,36
true,15,2,1,2,true,d,false,true,0.0-2.0-0.65-0.586-3.586,0,0,0,68,false,stim,false,0,580,0,0,1,38448,task1,1579983,false,false,2002,image-keyboard-response,37
true,15,1,1,1,true,z,false,false,0.0-2.0-0.65-0.587-3.587,0,0,0,90,false,stim,false,2,426,0,0,2,38448,task1,1581947,false,true,2005,image-keyboard-response,38
true,15,2,1,2,true,d,false,true,0.0-2.0-0.65-0.588-3.588,0,0,0,68,false,stim,false,0,100,0,0,0,38448,task1,1583583,false,false,2008,image-keyboard-response,39
true,16,2,2,0,false,q,false,false,0.0-2.0-0.65-0.589-3.589,0,0,0,68,true,stim,true,2,60,0,0,0,38448,task1,1585178,false,false,2011,image-keyboard-response,1
true,16,2,2,0,false,q,false,false,0.0-2.0-0.65-0.590-3.590,0,0,0,68,false,stim,true,2,150,0,0,1,38448,task1,1586862,false,false,2014,image-keyboard-response,2
true,16,2,2,0,false,q,false,true,0.0-2.0-0.65-0.591-3.591,0,0,0,68,false,stim,true,2,459,0,0,1,38448,task1,1588851,false,true,2017,image-keyboard-response,3
true,16,2,2,0,false,q,false,false,0.0-2.0-0.65-0.592-3.592,0,0,0,68,false,stim,true,2,542,0,0,0,38448,task1,1590924,false,false,2020,image-keyboard-response,4
true,16,2,2,2,true,d,false,true,0.0-2.0-0.65-0.593-3.593,0,0,0,68,false,stim,false,1,356,0,0,2,38448,task1,1592819,false,false,2023,image-keyboard-response,5
true,16,2,2,2,true,d,false,true,0.0-2.0-0.66-0.594-3.594,0,0,0,68,false,stim,false,1,445,0,0,2,38448,task1,1594788,false,false,2026,image-keyboard-response,6
true,16,2,2,0,false,q,false,false,0.0-2.0-0.66-0.595-3.595,0,0,0,68,false,stim,true,2,1006,0,0,1,38448,task1,1597329,false,false,2029,image-keyboard-response,7
true,16,0,2,0,true,q,false,true,0.0-2.0-0.66-0.596-3.596,0,0,0,81,false,stim,false,2,514,0,0,0,38448,task1,1599367,false,false,2032,image-keyboard-response,8
true,16,2,2,2,true,d,false,true,0.0-2.0-0.66-0.597-3.597,0,0,0,68,false,stim,false,1,963,0,0,2,38448,task1,1601854,false,false,2035,image-keyboard-response,9
true,16,0,2,0,true,q,false,true,0.0-2.0-0.66-0.598-3.598,0,0,0,81,false,stim,false,2,495,0,0,0,38448,task1,1603888,false,false,2038,image-keyboard-response,10
true,16,0,2,0,true,q,false,true,0.0-2.0-0.66-0.599-3.599,0,0,0,81,false,stim,false,2,440,0,0,0,38448,task1,1605853,false,false,2041,image-keyboard-response,11
true,16,2,2,0,false,q,false,false,0.0-2.0-0.66-0.600-3.600,0,0,0,68,false,stim,true,2,2412,0,0,1,38448,task1,1609804,false,false,2044,image-keyboard-response,12
true,16,0,2,0,true,q,false,true,0.0-2.0-0.66-0.601-3.601,0,0,0,81,false,stim,false,2,544,0,0,1,38448,task1,1611878,false,false,2047,image-keyboard-response,13
true,16,2,2,2,true,d,false,false,0.0-2.0-0.66-0.602-3.602,0,0,0,68,false,stim,false,1,400,0,0,2,38448,task1,1613812,false,true,2050,image-keyboard-response,14
true,16,2,2,2,true,d,false,true,0.0-2.0-0.67-0.603-3.603,0,0,0,68,false,stim,false,1,1002,0,0,2,38448,task1,1616353,false,false,2053,image-keyboard-response,15
true,16,0,2,0,true,q,false,true,0.0-2.0-0.67-0.604-3.604,0,0,0,81,false,stim,false,2,469,0,0,0,38448,task1,1618352,false,false,2056,image-keyboard-response,16
true,16,2,2,2,true,d,false,true,0.0-2.0-0.67-0.605-3.605,0,0,0,68,false,stim,false,1,1330,0,0,2,38448,task1,1621212,false,false,2059,image-keyboard-response,17
true,16,0,2,0,true,q,false,true,0.0-2.0-0.67-0.606-3.606,0,0,0,81,false,stim,false,2,573,0,0,0,38448,task1,1623317,false,false,2062,image-keyboard-response,18
false,16,-1,2,0,false,q,true,true,0.0-2.0-0.67-0.607-3.607,0,0,0,,false,stim,false,2,,0,0,1,38448,task1,1627861,false,true,2065,image-keyboard-response,19
true,16,0,2,0,true,q,false,true,0.0-2.0-0.67-0.608-3.608,0,0,0,81,false,stim,false,2,572,0,0,1,38448,task1,1629974,false,false,2068,image-keyboard-response,20
true,16,2,2,2,true,d,false,true,0.0-2.0-0.67-0.609-3.609,0,0,0,68,false,stim,false,1,607,0,0,2,38448,task1,1632108,false,false,2071,image-keyboard-response,21
true,16,0,2,0,true,q,false,true,0.0-2.0-0.67-0.610-3.610,0,0,0,81,false,stim,false,2,1136,0,0,0,38448,task1,1634778,false,false,2074,image-keyboard-response,22
true,16,0,2,0,true,q,false,true,0.0-2.0-0.67-0.611-3.611,0,0,0,81,false,stim,false,2,446,0,0,1,38448,task1,1636758,false,false,2077,image-keyboard-response,23
true,16,2,2,2,true,d,false,true,0.0-2.0-0.68-0.612-3.612,0,0,0,68,false,stim,false,1,516,0,0,2,38448,task1,1638809,false,false,2080,image-keyboard-response,24
true,16,0,2,0,true,q,false,true,0.0-2.0-0.68-0.613-3.613,0,0,0,81,false,stim,false,2,527,0,0,1,38448,task1,1640860,false,false,2083,image-keyboard-response,25
true,16,2,2,2,true,d,false,true,0.0-2.0-0.68-0.614-3.614,0,0,0,68,false,stim,false,1,580,0,0,2,38448,task1,1642973,false,false,2086,image-keyboard-response,26
true,16,0,2,0,true,q,false,true,0.0-2.0-0.68-0.615-3.615,0,0,0,81,false,stim,false,2,728,0,0,0,38448,task1,1645236,false,false,2089,image-keyboard-response,27
true,16,0,2,0,true,q,false,true,0.0-2.0-0.68-0.616-3.616,0,0,0,81,false,stim,false,2,448,0,0,0,38448,task1,1647220,false,false,2092,image-keyboard-response,28
true,16,0,2,0,true,q,false,true,0.0-2.0-0.68-0.617-3.617,0,0,0,81,false,stim,false,2,646,0,0,1,38448,task1,1649398,false,false,2095,image-keyboard-response,29
true,16,2,2,2,true,d,false,true,0.0-2.0-0.68-0.618-3.618,0,0,0,68,false,stim,false,1,379,0,0,2,38448,task1,1651312,false,false,2098,image-keyboard-response,30
true,16,0,2,0,true,q,false,true,0.0-2.0-0.68-0.619-3.619,0,0,0,81,false,stim,false,2,460,0,0,1,38448,task1,1653320,false,false,2101,image-keyboard-response,31
true,16,0,2,0,true,q,false,true,0.0-2.0-0.68-0.620-3.620,0,0,0,81,false,stim,false,2,1041,0,0,0,38448,task1,1655893,false,false,2104,image-keyboard-response,32
true,16,0,2,0,true,q,false,true,0.0-2.0-0.69-0.621-3.621,0,0,0,81,false,stim,false,2,614,0,0,1,38448,task1,1658046,false,false,2107,image-keyboard-response,33
true,16,2,2,2,true,d,false,true,0.0-2.0-0.69-0.622-3.622,0,0,0,68,false,stim,false,1,725,0,0,2,38448,task1,1660309,false,false,2110,image-keyboard-response,34
true,16,0,2,0,true,q,false,true,0.0-2.0-0.69-0.623-3.623,0,0,0,81,false,stim,false,2,1028,0,0,0,38448,task1,1662870,false,false,2113,image-keyboard-response,35
true,16,0,2,0,true,q,false,true,0.0-2.0-0.69-0.624-3.624,0,0,0,81,false,stim,false,2,966,0,0,1,38448,task1,1665368,false,false,2116,image-keyboard-response,36
true,16,2,2,2,true,d,false,false,0.0-2.0-0.69-0.625-3.625,0,0,0,68,false,stim,false,1,535,0,0,2,38448,task1,1667437,false,true,2119,image-keyboard-response,37
true,16,0,2,0,true,q,false,true,0.0-2.0-0.69-0.626-3.626,0,0,0,81,false,stim,false,2,801,0,0,0,38448,task1,1669763,false,false,2122,image-keyboard-response,38
true,16,0,2,0,true,q,false,true,0.0-2.0-0.69-0.627-3.627,0,0,0,81,false,stim,false,2,619,0,0,1,38448,task1,1671922,false,false,2125,image-keyboard-response,39
true,16,0,2,0,true,q,false,true,0.0-2.0-0.69-0.628-3.628,0,0,0,81,false,stim,false,2,757,0,0,0,38448,task1,1674219,false,false,2128,image-keyboard-response,40
true,16,2,2,2,true,d,false,true,0.0-2.0-0.69-0.629-3.629,0,0,0,68,false,stim,false,1,649,0,0,2,38448,task1,1676382,false,false,2131,image-keyboard-response,41
true,16,0,2,0,true,q,false,true,0.0-2.0-0.70-0.630-3.630,0,0,0,81,false,stim,false,2,453,0,0,1,38448,task1,1678366,false,false,2134,image-keyboard-response,42
true,17,0,2,2,false,d,false,false,0.0-2.0-0.70-0.631-3.631,0,0,0,81,true,stim,true,0,446,0,0,1,38448,task1,1680339,false,false,2137,image-keyboard-response,1
true,17,2,2,1,false,z,false,false,0.0-2.0-0.70-0.632-3.632,0,0,0,68,false,stim,true,2,1047,0,0,2,38448,task1,1682916,false,false,2140,image-keyboard-response,2
true,17,2,2,1,false,z,false,false,0.0-2.0-0.70-0.633-3.633,0,0,0,68,false,stim,true,2,1758,0,0,2,38448,task1,1686200,false,false,2143,image-keyboard-response,3
true,17,0,2,2,false,d,false,false,0.0-2.0-0.70-0.634-3.634,0,0,0,81,false,stim,true,0,476,0,0,1,38448,task1,1688219,false,false,2146,image-keyboard-response,4
