answered,blockNum,choice,condition,corResp,correct,correct_response,explo,fb,internal_node_id,isStable_1,isStable_2,isStable_3,key_press,newBlock,part,persev,persevResp,rt,sessNum,stableAS,stimulus,subject,task,time_elapsed,training,trap,trial_index,trial_type,trialsInBlock
true,1,0,0,1,false,z,true,false,0.0-2.0-0.0-0.0-3.0,0,0,0,81,true,stim,false,-1,953,2,0,2,38448,task3,377391,false,false,184,image-keyboard-response,1
true,1,0,0,0,true,q,false,true,0.0-2.0-0.0-0.1-3.1,0,0,0,81,false,stim,false,-1,463,2,0,0,38448,task3,379379,false,false,187,image-keyboard-response,2
true,1,1,0,1,true,z,false,true,0.0-2.0-0.0-0.2-3.2,0,0,0,90,false,stim,false,-1,960,2,0,2,38448,task3,381876,false,false,190,image-keyboard-response,3
true,1,0,0,0,true,q,false,true,0.0-2.0-0.0-0.3-3.3,0,0,0,81,false,stim,false,-1,711,2,0,0,38448,task3,384129,false,false,193,image-keyboard-response,4
true,1,2,0,1,false,z,true,false,0.0-2.0-0.0-0.4-3.4,0,0,0,68,false,stim,false,-1,939,2,0,1,38448,task3,386607,false,false,196,image-keyboard-response,5
true,1,1,0,1,true,z,false,true,0.0-2.0-0.0-0.5-3.5,0,0,0,90,false,stim,false,-1,632,2,0,2,38448,task3,388778,false,false,199,image-keyboard-response,6
true,1,0,0,1,false,z,true,false,0.0-2.0-0.0-0.6-3.6,0,0,0,81,false,stim,false,-1,1044,2,0,1,38448,task3,391350,false,false,202,image-keyboard-response,7
true,1,1,0,1,true,z,false,true,0.0-2.0-0.0-0.7-3.7,0,0,0,90,false,stim,false,-1,588,2,0,1,38448,task3,393473,false,false,205,image-keyboard-response,8
true,1,0,0,0,true,q,false,false,0.0-2.0-0.0-0.8-3.8,0,0,0,81,false,stim,false,-1,580,2,0,0,38448,task3,395586,false,true,208,image-keyboard-response,9
true,1,0,0,0,true,q,false,true,0.0-2.0-0.1-0.9-3.9,0,0,0,81,false,stim,false,-1,397,2,0,0,38448,task3,397525,false,false,211,image-keyboard-response,10
true,1,1,0,1,true,z,false,true,0.0-2.0-0.1-0.10-3.10,0,0,0,90,false,stim,false,-1,701,2,0,1,38448,task3,399767,false,false,214,image-keyboard-response,11
true,1,0,0,0,true,q,false,true,0.0-2.0-0.1-0.11-3.11,0,0,0,81,false,stim,false,-1,710,2,0,0,38448,task3,402001,false,false,217,image-keyboard-response,12
true,1,1,0,1,true,z,false,true,0.0-2.0-0.1-0.12-3.12,0,0,0,90,false,stim,false,-1,867,2,0,1,38448,task3,404403,false,false,220,image-keyboard-response,13
true,1,1,0,1,true,z,false,true,0.0-2.0-0.1-0.13-3.13,0,0,0,90,false,stim,false,-1,649,2,0,2,38448,task3,406575,false,false,223,image-keyboard-response,14
true,1,1,0,1,true,z,false,true,0.0-2.0-0.1-0.14-3.14,0,0,0,90,false,stim,false,-1,368,2,0,2,38448,task3,408474,false,false,226,image-keyboard-response,15
true,1,1,0,1,true,z,false,true,0.0-2.0-0.1-0.15-3.15,0,0,0,90,false,stim,false,-1,371,2,0,2,38448,task3,410368,false,false,229,image-keyboard-response,16
true,1,1,0,1,true,z,false,true,0.0-2.0-0.1-0.16-3.16,0,0,0,90,false,stim,false,-1,998,2,0,1,38448,task3,412895,false,false,232,image-keyboard-response,17
true,1,0,0,0,true,q,false,true,0.0-2.0-0.1-0.17-3.17,0,0,0,81,false,stim,false,-1,1177,2,0,0,38448,task3,415600,false,false,235,image-keyboard-response,18
true,1,1,0,1,true,z,false,false,0.0-2.0-0.2-0.18-3.18,0,0,0,90,false,stim,false,-1,1011,2,0,2,38448,task3,418137,false,true,238,image-keyboard-response,19
true,1,1,0,1,true,z,false,true,0.0-2.0-0.2-0.19-3.19,0,0,0,90,false,stim,false,-1,479,2,0,2,38448,task3,420146,false,false,241,image-keyboard-response,20
true,1,0,0,0,true,q,false,true,0.0-2.0-0.2-0.20-3.20,0,0,0,81,false,stim,false,-1,642,2,1,0,38448,task3,422328,false,false,244,image-keyboard-response,21
true,1,1,0,1,true,z,false,true,0.0-2.0-0.2-0.21-3.21,0,0,0,90,false,stim,false,-1,1358,2,0,2,38448,task3,425225,false,false,247,image-keyboard-response,22
true,1,1,0,1,true,z,false,false,0.0-2.0-0.2-0.22-3.22,0,0,0,90,false,stim,false,-1,445,2,0,1,38448,task3,427202,false,true,250,image-keyboard-response,23
true,2,1,1,2,false,d,false,false,0.0-2.0-0.2-0.23-3.23,1,0,0,90,true,stim,true,1,381,2,0,1,38448,task3,429116,false,false,253,image-keyboard-response,1
true,2,0,1,0,true,q,false,true,0.0-2.0-0.2-0.24-3.24,1,0,0,81,false,stim,false,0,673,2,1,0,38448,task3,431319,false,false,256,image-keyboard-response,2
true,2,2,1,2,true,d,false,true,0.0-2.0-0.2-0.25-3.25,1,0,0,68,false,stim,false,1,1121,2,0,1,38448,task3,433966,false,false,259,image-keyboard-response,3
true,2,0,1,0,true,q,false,true,0.0-2.0-0.2-0.26-3.26,1,0,0,81,false,stim,false,0,719,2,1,0,38448,task3,436223,false,false,262,image-keyboard-response,4
true,2,0,1,0,true,q,false,true,0.0-2.0-0.3-0.27-3.27,1,0,0,81,false,stim,false,0,406,2,1,0,38448,task3,438162,false,false,265,image-keyboard-response,5
true,2,1,1,2,false,d,false,false,0.0-2.0-0.3-0.28-3.28,1,0,0,90,false,stim,true,1,620,2,0,2,38448,task3,440316,false,false,268,image-keyboard-response,6
true,2,1,1,2,false,d,false,false,0.0-2.0-0.3-0.29-3.29,1,0,0,90,false,stim,true,1,577,2,0,2,38448,task3,442433,false,false,271,image-keyboard-response,7
true,2,2,1,2,true,d,false,true,0.0-2.0-0.3-0.30-3.30,1,0,0,68,false,stim,false,1,491,2,0,1,38448,task3,444456,false,false,274,image-keyboard-response,8
true,2,2,1,2,true,d,false,true,0.0-2.0-0.3-0.31-3.31,1,0,0,68,false,stim,false,1,386,2,0,2,38448,task3,446371,false,false,277,image-keyboard-response,9
true,2,0,1,0,true,q,false,true,0.0-2.0-0.3-0.32-3.32,1,0,0,81,false,stim,false,0,718,2,1,0,38448,task3,448614,false,false,280,image-keyboard-response,10
true,2,2,1,2,true,d,false,true,0.0-2.0-0.3-0.33-3.33,1,0,0,68,false,stim,false,1,1082,2,0,1,38448,task3,451219,false,false,283,image-keyboard-response,11
true,2,2,1,2,true,d,false,true,0.0-2.0-0.3-0.34-3.34,1,0,0,68,false,stim,false,1,387,2,0,1,38448,task3,453144,false,false,286,image-keyboard-response,12
true,2,0,1,0,true,q,false,true,0.0-2.0-0.3-0.35-3.35,1,0,0,81,false,stim,false,0,795,2,1,0,38448,task3,455461,false,false,289,image-keyboard-response,13
true,2,0,1,0,true,q,false,true,0.0-2.0-0.4-0.36-3.36,1,0,0,81,false,stim,false,0,558,2,1,0,38448,task3,457545,false,false,292,image-keyboard-response,14
true,2,2,1,2,true,d,false,true,0.0-2.0-0.4-0.37-3.37,1,0,0,68,false,stim,false,1,1694,2,0,2,38448,task3,460770,false,false,295,image-keyboard-response,15
true,2,2,1,2,true,d,false,false,0.0-2.0-0.4-0.38-3.38,1,0,0,68,false,stim,false,1,1542,2,0,1,38448,task3,463839,false,true,298,image-keyboard-response,16
true,2,0,1,0,true,q,false,true,0.0-2.0-0.4-0.39-3.39,1,0,0,81,false,stim,false,0,897,2,1,0,38448,task3,466266,false,false,301,image-keyboard-response,17
true,2,2,1,2,true,d,false,true,0.0-2.0-0.4-0.40-3.40,1,0,0,68,false,stim,false,1,1176,2,0,2,38448,task3,468982,false,false,304,image-keyboard-response,18
true,2,2,1,2,true,d,false,true,0.0-2.0-0.4-0.41-3.41,1,0,0,68,false,stim,false,1,580,2,0,2,38448,task3,471085,false,false,307,image-keyboard-response,19
true,2,2,1,2,true,d,false,true,0.0-2.0-0.4-0.42-3.42,1,0,0,68,false,stim,false,1,2169,2,0,1,38448,task3,474785,false,false,310,image-keyboard-response,20
true,2,0,1,0,true,q,false,true,0.0-2.0-0.4-0.43-3.43,1,0,0,81,false,stim,false,0,725,2,1,0,38448,task3,477041,false,false,313,image-keyboard-response,21
true,2,2,1,2,true,d,false,true,0.0-2.0-0.4-0.44-3.44,1,0,0,68,false,stim,false,1,1714,2,0,1,38448,task3,480290,false,false,316,image-keyboard-response,22
true,2,2,1,2,true,d,false,true,0.0-2.0-0.5-0.45-3.45,1,0,0,68,false,stim,false,1,2122,2,0,1,38448,task3,483939,false,false,319,image-keyboard-response,23
true,2,2,1,2,true,d,false,true,0.0-2.0-0.5-0.46-3.46,1,0,0,68,false,stim,false,1,462,2,0,1,38448,task3,485938,false,false,322,image-keyboard-response,24
true,2,2,1,2,true,d,false,true,0.0-2.0-0.5-0.47-3.47,1,0,0,68,false,stim,false,1,664,2,0,2,38448,task3,488130,false,false,325,image-keyboard-response,25
true,2,0,1,0,true,q,false,false,0.0-2.0-0.5-0.48-3.48,1,0,0,81,false,stim,false,0,453,2,1,0,38448,task3,490119,false,true,328,image-keyboard-response,26
true,2,2,1,2,true,d,false,true,0.0-2.0-0.5-0.49-3.49,1,0,0,68,false,stim,false,1,711,2,1,1,38448,task3,492347,false,false,331,image-keyboard-response,27
true,2,2,1,2,true,d,false,true,0.0-2.0-0.5-0.50-3.50,1,0,0,68,false,stim,false,1,524,2,0,2,38448,task3,494400,false,false,334,image-keyboard-response,28
true,2,0,1,0,true,q,false,true,0.0-2.0-0.5-0.51-3.51,1,0,0,81,false,stim,false,0,631,2,1,0,38448,task3,496568,false,false,337,image-keyboard-response,29
true,2,2,1,2,true,d,false,true,0.0-2.0-0.5-0.52-3.52,1,0,0,68,false,stim,false,1,720,2,0,2,38448,task3,498816,false,false,340,image-keyboard-response,30
true,3,0,2,0,true,q,false,true,0.0-2.0-0.5-0.53-3.53,1,1,0,81,true,stim,false,0,673,2,1,0,38448,task3,501019,false,false,343,image-keyboard-response,1
true,3,2,2,1,false,z,false,true,0.0-2.0-0.6-0.54-3.54,1,1,0,68,false,stim,true,2,457,2,0,2,38448,task3,503002,false,true,346,image-keyboard-response,2
true,3,2,2,2,true,d,false,true,0.0-2.0-0.6-0.55-3.55,1,1,0,68,false,stim,false,2,1134,2,1,1,38448,task3,505660,false,false,349,image-keyboard-response,3
true,3,0,2,0,true,q,false,true,0.0-2.0-0.6-0.56-3.56,1,1,0,81,false,stim,false,0,1234,2,1,0,38448,task3,508421,false,false,352,image-keyboard-response,4
true,3,0,2,0,true,q,false,true,0.0-2.0-0.6-0.57-3.57,1,1,0,81,false,stim,false,0,1326,2,1,0,38448,task3,511272,false,false,355,image-keyboard-response,5
true,3,2,2,1,false,z,false,false,0.0-2.0-0.6-0.58-3.58,1,1,0,68,false,stim,true,2,843,2,0,2,38448,task3,513649,false,false,358,image-keyboard-response,6
true,3,2,2,1,false,z,false,false,0.0-2.0-0.6-0.59-3.59,1,1,0,68,false,stim,true,2,821,2,0,2,38448,task3,515996,false,false,361,image-keyboard-response,7
true,3,2,2,2,true,d,false,true,0.0-2.0-0.6-0.60-3.60,1,1,0,68,false,stim,false,2,1241,2,1,1,38448,task3,518777,false,false,364,image-keyboard-response,8
true,3,2,2,2,true,d,false,true,0.0-2.0-0.6-0.61-3.61,1,1,0,68,false,stim,false,2,440,2,1,1,38448,task3,520747,false,false,367,image-keyboard-response,9
true,3,0,2,0,true,q,false,true,0.0-2.0-0.6-0.62-3.62,1,1,0,81,false,stim,false,0,592,2,1,0,38448,task3,522879,false,false,370,image-keyboard-response,10
true,3,0,2,0,true,q,false,true,0.0-2.0-0.7-0.63-3.63,1,1,0,81,false,stim,false,0,441,2,1,0,38448,task3,524858,false,false,373,image-keyboard-response,11
true,3,0,2,0,true,q,false,true,0.0-2.0-0.7-0.64-3.64,1,1,0,81,false,stim,false,0,466,2,0,0,38448,task3,526861,false,false,376,image-keyboard-response,12
true,3,2,2,2,true,d,false,true,0.0-2.0-0.7-0.65-3.65,1,1,0,68,false,stim,false,2,612,2,0,1,38448,task3,529009,false,false,379,image-keyboard-response,13
true,3,1,2,1,true,z,false,true,0.0-2.0-0.7-0.66-3.66,1,1,0,90,false,stim,false,2,512,2,1,2,38448,task3,531049,false,false,382,image-keyboard-response,14
true,3,1,2,1,true,z,false,true,0.0-2.0-0.7-0.67-3.67,1,1,0,90,false,stim,false,2,411,2,1,2,38448,task3,532986,false,false,385,image-keyboard-response,15
true,3,0,2,0,true,q,false,true,0.0-2.0-0.7-0.68-3.68,1,1,0,81,false,stim,false,0,668,2,0,0,38448,task3,535184,false,false,388,image-keyboard-response,16
true,4,1,1,1,true,z,false,true,0.0-2.0-0.7-0.69-3.69,0,0,1,90,true,stim,false,1,631,2,1,2,38448,task3,537347,false,false,391,image-keyboard-response,1
true,4,2,1,1,false,z,false,false,0.0-2.0-0.7-0.70-3.70,0,0,1,68,false,stim,true,2,1766,2,0,1,38448,task3,540652,false,false,394,image-keyboard-response,2
true,4,2,1,1,false,z,false,false,0.0-2.0-0.7-0.71-3.71,0,0,1,68,false,stim,true,2,813,2,0,1,38448,task3,543000,false,false,397,image-keyboard-response,3
true,4,1,1,1,true,z,false,true,0.0-2.0-0.8-0.72-3.72,0,0,1,90,false,stim,false,1,646,2,1,2,38448,task3,545183,false,false,400,image-keyboard-response,4
true,4,1,1,1,true,z,false,true,0.0-2.0-0.8-0.73-3.73,0,0,1,90,false,stim,false,2,689,2,0,1,38448,task3,547405,false,false,403,image-keyboard-response,5
true,4,0,1,2,false,d,false,false,0.0-2.0-0.8-0.74-3.74,0,0,1,81,false,stim,true,0,514,2,0,0,38448,task3,549451,false,false,406,image-keyboard-response,6
true,4,2,1,2,true,d,false,true,0.0-2.0-0.8-0.75-3.75,0,0,1,68,false,stim,false,0,1159,2,0,0,38448,task3,552145,false,false,409,image-keyboard-response,7
true,4,1,1,1,true,z,false,true,0.0-2.0-0.8-0.76-3.76,0,0,1,90,false,stim,false,1,637,2,0,2,38448,task3,554324,false,false,412,image-keyboard-response,8
true,4,1,1,1,true,z,false,true,0.0-2.0-0.8-0.77-3.77,0,0,1,90,false,stim,false,2,372,2,1,1,38448,task3,556217,false,false,415,image-keyboard-response,9
true,4,1,1,1,true,z,false,true,0.0-2.0-0.8-0.78-3.78,0,0,1,90,false,stim,false,2,420,2,1,1,38448,task3,558166,false,false,418,image-keyboard-response,10
true,4,2,1,2,true,d,false,true,0.0-2.0-0.8-0.79-3.79,0,0,1,68,false,stim,false,0,529,2,1,0,38448,task3,560215,false,false,421,image-keyboard-response,11
true,4,1,1,1,true,z,false,true,0.0-2.0-0.8-0.80-3.80,0,0,1,90,false,stim,false,1,844,2,0,2,38448,task3,562591,false,false,424,image-keyboard-response,12
true,5,1,2,2,false,d,false,false,0.0-2.0-0.9-0.81-3.81,1,1,0,90,true,stim,true,1,435,2,0,2,38448,task3,564560,false,false,427,image-keyboard-response,1
true,5,1,2,2,false,d,false,false,0.0-2.0-0.9-0.82-3.82,1,1,0,90,false,stim,true,1,394,2,0,2,38448,task3,566481,false,false,430,image-keyboard-response,2
true,5,1,2,1,true,z,false,true,0.0-2.0-0.9-0.83-3.83,1,1,0,90,false,stim,false,1,810,2,1,1,38448,task3,568817,false,false,433,image-keyboard-response,3
true,5,1,2,1,true,z,false,true,0.0-2.0-0.9-0.84-3.84,1,1,0,90,false,stim,false,1,469,2,1,1,38448,task3,570816,false,false,436,image-keyboard-response,4
true,5,2,2,2,true,d,false,false,0.0-2.0-0.9-0.85-3.85,1,1,0,68,false,stim,false,2,662,2,1,0,38448,task3,573018,false,true,439,image-keyboard-response,5
true,5,2,2,2,true,d,false,true,0.0-2.0-0.9-0.86-3.86,1,1,0,68,false,stim,false,2,456,2,1,0,38448,task3,575012,false,false,442,image-keyboard-response,6
true,5,2,2,2,true,d,false,true,0.0-2.0-0.9-0.87-3.87,1,1,0,68,false,stim,false,2,589,2,1,0,38448,task3,577145,false,false,445,image-keyboard-response,7
true,5,1,2,1,true,z,false,true,0.0-2.0-0.9-0.88-3.88,1,1,0,90,false,stim,false,1,1170,2,1,1,38448,task3,579847,false,false,448,image-keyboard-response,8
true,5,0,2,2,false,d,true,false,0.0-2.0-0.9-0.89-3.89,1,1,0,81,false,stim,false,1,468,2,1,2,38448,task3,581845,false,false,451,image-keyboard-response,9
true,5,2,2,2,true,d,false,true,0.0-2.0-0.10-0.90-3.90,1,1,0,68,false,stim,false,2,1036,2,0,0,38448,task3,584412,false,false,454,image-keyboard-response,10
true,5,1,2,1,true,z,false,true,0.0-2.0-0.10-0.91-3.91,1,1,0,90,false,stim,false,1,539,2,1,1,38448,task3,586475,false,false,457,image-keyboard-response,11
true,5,2,2,2,true,d,false,true,0.0-2.0-0.10-0.92-3.92,1,1,0,68,false,stim,false,1,512,2,1,2,38448,task3,588517,false,false,460,image-keyboard-response,12
true,6,2,2,0,false,q,false,true,0.0-2.0-0.10-0.93-3.93,0,1,1,68,true,stim,true,2,456,2,0,0,38448,task3,590502,false,true,463,image-keyboard-response,1
true,6,1,2,1,true,z,false,true,0.0-2.0-0.10-0.94-3.94,0,1,1,90,false,stim,false,1,1540,2,1,1,38448,task3,593567,false,false,466,image-keyboard-response,2
true,6,1,2,1,true,z,false,true,0.0-2.0-0.10-0.95-3.95,0,1,1,90,false,stim,false,1,470,2,1,1,38448,task3,595566,false,false,469,image-keyboard-response,3
true,6,2,2,2,true,d,false,true,0.0-2.0-0.10-0.96-3.96,0,1,1,68,false,stim,false,2,1050,2,1,2,38448,task3,598147,false,false,472,image-keyboard-response,4
true,6,2,2,0,false,q,false,false,0.0-2.0-0.10-0.97-3.97,0,1,1,68,false,stim,true,2,924,2,0,0,38448,task3,600598,false,false,475,image-keyboard-response,5
true,6,2,2,2,true,d,false,true,0.0-2.0-0.10-0.98-3.98,0,1,1,68,false,stim,false,2,586,2,1,2,38448,task3,602723,false,false,478,image-keyboard-response,6
true,6,2,2,1,false,z,true,false,0.0-2.0-0.11-0.99-3.99,0,1,1,68,false,stim,false,1,436,2,1,1,38448,task3,604682,false,false,481,image-keyboard-response,7
true,6,2,2,0,false,q,false,false,0.0-2.0-0.11-0.100-3.100,0,1,1,68,false,stim,true,2,499,2,0,0,38448,task3,606715,false,false,484,image-keyboard-response,8
true,6,1,2,1,true,z,false,true,0.0-2.0-0.11-0.101-3.101,0,1,1,90,false,stim,false,1,378,2,1,1,38448,task3,608633,false,false,487,image-keyboard-response,9
true,6,2,2,2,true,d,false,true,0.0-2.0-0.11-0.102-3.102,0,1,1,68,false,stim,false,2,1074,2,1,2,38448,task3,611231,false,false,490,image-keyboard-response,10
true,6,2,2,0,false,q,false,false,0.0-2.0-0.11-0.103-3.103,0,1,1,68,false,stim,true,2,2172,2,0,0,38448,task3,614928,false,false,493,image-keyboard-response,11
true,6,2,2,0,false,q,false,false,0.0-2.0-0.11-0.104-3.104,0,1,1,68,false,stim,true,2,690,2,0,0,38448,task3,617147,false,false,496,image-keyboard-response,12
true,6,1,2,2,false,d,true,true,0.0-2.0-0.11-0.105-3.105,0,1,1,90,false,stim,false,2,1268,2,1,2,38448,task3,619953,false,true,499,image-keyboard-response,13
true,6,1,2,2,false,d,true,false,0.0-2.0-0.11-0.106-3.106,0,1,1,90,false,stim,false,2,465,2,1,2,38448,task3,621951,false,false,502,image-keyboard-response,14
true,6,0,2,1,false,z,true,false,0.0-2.0-0.11-0.107-3.107,0,1,1,81,false,stim,false,1,507,2,1,1,38448,task3,623994,false,false,505,image-keyboard-response,15
true,6,1,2,1,true,z,false,true,0.0-2.0-0.12-0.108-3.108,0,1,1,90,false,stim,false,1,511,2,1,1,38448,task3,626037,false,false,508,image-keyboard-response,16
true,6,1,2,1,true,z,false,true,0.0-2.0-0.12-0.109-3.109,0,1,1,90,false,stim,false,1,575,2,1,1,38448,task3,628151,false,false,511,image-keyboard-response,17
true,6,0,2,0,true,q,false,true,0.0-2.0-0.12-0.110-3.110,0,1,1,81,false,stim,false,2,1141,2,0,0,38448,task3,630818,false,false,514,image-keyboard-response,18
true,6,0,2,2,false,d,true,false,0.0-2.0-0.12-0.111-3.111,0,1,1,81,false,stim,false,2,913,2,1,2,38448,task3,633261,false,false,517,image-keyboard-response,19
true,6,0,2,0,true,q,false,true,0.0-2.0-0.12-0.112-3.112,0,1,1,81,false,stim,false,2,648,2,0,0,38448,task3,635433,false,false,520,image-keyboard-response,20
true,6,1,2,1,true,z,false,true,0.0-2.0-0.12-0.113-3.113,0,1,1,90,false,stim,false,1,540,2,1,1,38448,task3,637507,false,false,523,image-keyboard-response,21
true,6,0,2,0,true,q,false,true,0.0-2.0-0.12-0.114-3.114,0,1,1,81,false,stim,false,2,817,2,0,0,38448,task3,639864,false,false,526,image-keyboard-response,22
true,6,1,2,2,false,d,true,false,0.0-2.0-0.12-0.115-3.115,0,1,1,90,false,stim,false,2,766,2,1,2,38448,task3,642162,false,false,529,image-keyboard-response,23
true,6,2,2,2,true,d,false,true,0.0-2.0-0.12-0.116-3.116,0,1,1,68,false,stim,false,2,1007,2,1,2,38448,task3,644704,false,false,532,image-keyboard-response,24
true,6,1,2,1,true,z,false,false,0.0-2.0-0.13-0.117-3.117,0,1,1,90,false,stim,false,1,1236,2,1,1,38448,task3,647470,false,true,535,image-keyboard-response,25
true,6,1,2,1,true,z,false,true,0.0-2.0-0.13-0.118-3.118,0,1,1,90,false,stim,false,1,586,2,0,1,38448,task3,649593,false,false,538,image-keyboard-response,26
true,6,2,2,2,true,d,false,true,0.0-2.0-0.13-0.119-3.119,0,1,1,68,false,stim,false,2,484,2,1,2,38448,task3,651612,false,false,541,image-keyboard-response,27
true,6,0,2,0,true,q,false,true,0.0-2.0-0.13-0.120-3.120,0,1,1,81,false,stim,false,2,559,2,0,0,38448,task3,653695,false,false,544,image-keyboard-response,28
true,6,0,2,0,true,q,false,true,0.0-2.0-0.13-0.121-3.121,0,1,1,81,false,stim,false,2,378,2,0,0,38448,task3,655614,false,false,547,image-keyboard-response,29
true,6,2,2,2,true,d,false,true,0.0-2.0-0.13-0.122-3.122,0,1,1,68,false,stim,false,2,1153,2,1,2,38448,task3,658290,false,false,550,image-keyboard-response,30
true,7,0,1,2,false,d,false,false,0.0-2.0-0.13-0.123-3.123,0,0,1,81,true,stim,true,0,1618,2,0,0,38448,task3,661445,false,false,553,image-keyboard-response,1
true,7,2,1,2,true,d,false,true,0.0-2.0-0.13-0.124-3.124,0,0,1,68,false,stim,false,2,507,2,1,2,38448,task3,663494,false,false,556,image-keyboard-response,2
true,7,1,1,0,false,q,false,false,0.0-2.0-0.13-0.125-3.125,0,0,1,90,false,stim,true,1,1598,2,0,1,38448,task3,666624,false,false,559,image-keyboard-response,3
true,7,2,1,2,true,d,false,true,0.0-2.0-0.14-0.126-3.126,0,0,1,68,false,stim,false,2,1199,2,1,2,38448,task3,669355,false,false,562,image-keyboard-response,4
true,7,0,1,0,true,q,false,true,0.0-2.0-0.14-0.127-3.127,0,0,1,81,false,stim,false,1,1524,2,0,1,38448,task3,672420,false,false,565,image-keyboard-response,5
true,7,2,1,2,true,d,false,true,0.0-2.0-0.14-0.128-3.128,0,0,1,68,false,stim,false,2,1454,2,1,2,38448,task3,675401,false,false,568,image-keyboard-response,6
true,7,1,1,2,false,d,true,false,0.0-2.0-0.14-0.129-3.129,0,0,1,90,false,stim,false,0,1535,2,0,0,38448,task3,678472,false,false,571,image-keyboard-response,7
true,7,0,1,0,true,q,false,true,0.0-2.0-0.14-0.130-3.130,0,0,1,81,false,stim,false,1,862,2,0,1,38448,task3,680858,false,false,574,image-keyboard-response,8
true,7,0,1,2,false,d,false,false,0.0-2.0-0.14-0.131-3.131,0,0,1,81,false,stim,true,0,551,2,0,0,38448,task3,682937,false,false,577,image-keyboard-response,9
true,7,0,1,0,true,q,false,true,0.0-2.0-0.14-0.132-3.132,0,0,1,81,false,stim,false,1,1142,2,0,1,38448,task3,685608,false,false,580,image-keyboard-response,10
true,7,2,1,2,true,d,false,true,0.0-2.0-0.14-0.133-3.133,0,0,1,68,false,stim,false,0,540,2,0,0,38448,task3,687687,false,false,583,image-keyboard-response,11
true,7,2,1,2,true,d,false,true,0.0-2.0-0.14-0.134-3.134,0,0,1,68,false,stim,false,2,599,2,1,2,38448,task3,689816,false,false,586,image-keyboard-response,12
true,7,2,1,2,true,d,false,true,0.0-2.0-0.15-0.135-3.135,0,0,1,68,false,stim,false,0,403,2,0,0,38448,task3,691749,false,false,589,image-keyboard-response,13
true,7,0,1,0,true,q,false,true,0.0-2.0-0.15-0.136-3.136,0,0,1,81,false,stim,false,1,880,2,0,1,38448,task3,694166,false,false,592,image-keyboard-response,14
true,7,2,1,2,true,d,false,true,0.0-2.0-0.15-0.137-3.137,0,0,1,68,false,stim,false,2,559,2,1,2,38448,task3,696266,false,false,595,image-keyboard-response,15
true,7,0,1,2,false,d,false,false,0.0-2.0-0.15-0.138-3.138,0,0,1,81,false,stim,true,0,2012,2,0,0,38448,task3,699818,false,false,598,image-keyboard-response,16
true,7,2,1,2,true,d,false,true,0.0-2.0-0.15-0.139-3.139,0,0,1,68,false,stim,false,0,427,2,0,0,38448,task3,701778,false,false,601,image-keyboard-response,17
true,7,0,1,0,true,q,false,true,0.0-2.0-0.15-0.140-3.140,0,0,1,81,false,stim,false,1,535,2,0,1,38448,task3,703841,false,false,604,image-keyboard-response,18
true,7,0,1,0,true,q,false,true,0.0-2.0-0.15-0.141-3.141,0,0,1,81,false,stim,false,1,464,2,0,1,38448,task3,705830,false,false,607,image-keyboard-response,19
true,7,2,1,2,true,d,false,true,0.0-2.0-0.15-0.142-3.142,0,0,1,68,false,stim,false,2,622,2,1,2,38448,task3,707989,false,false,610,image-keyboard-response,20
true,7,2,1,2,true,d,false,true,0.0-2.0-0.15-0.143-3.143,0,0,1,68,false,stim,false,2,2165,2,1,2,38448,task3,711692,false,false,613,image-keyboard-response,21
true,7,0,1,2,false,d,false,false,0.0-2.0-0.16-0.144-3.144,0,0,1,81,false,stim,true,0,878,2,0,0,38448,task3,714104,false,false,616,image-keyboard-response,22
true,7,0,1,0,true,q,false,true,0.0-2.0-0.16-0.145-3.145,0,0,1,81,false,stim,false,1,496,2,0,1,38448,task3,716123,false,false,619,image-keyboard-response,23
true,7,2,1,2,true,d,false,true,0.0-2.0-0.16-0.146-3.146,0,0,1,68,false,stim,false,0,489,2,0,0,38448,task3,718136,false,false,622,image-keyboard-response,24
true,7,0,1,0,true,q,false,true,0.0-2.0-0.16-0.147-3.147,0,0,1,81,false,stim,false,1,2597,2,1,1,38448,task3,722258,false,false,625,image-keyboard-response,25
true,7,2,1,2,true,d,false,true,0.0-2.0-0.16-0.148-3.148,0,0,1,68,false,stim,false,2,705,2,1,2,38448,task3,724491,false,false,628,image-keyboard-response,26
true,7,2,1,2,true,d,false,true,0.0-2.0-0.16-0.149-3.149,0,0,1,68,false,stim,false,2,395,2,1,2,38448,task3,726410,false,false,631,image-keyboard-response,27
true,7,2,1,2,true,d,false,true,0.0-2.0-0.16-0.150-3.150,0,0,1,68,false,stim,false,2,358,2,1,2,38448,task3,728304,false,false,634,image-keyboard-response,28
true,8,0,2,0,true,q,false,true,0.0-2.0-0.16-0.151-3.151,0,1,1,81,true,stim,false,0,1593,2,1,1,38448,task3,731418,false,false,637,image-keyboard-response,1
true,8,2,2,0,false,q,false,false,0.0-2.0-0.16-0.152-3.152,0,1,1,68,false,stim,true,2,1677,2,0,0,38448,task3,734624,false,false,640,image-keyboard-response,2
true,8,2,2,2,true,d,false,true,0.0-2.0-0.17-0.153-3.153,0,1,1,68,false,stim,false,2,712,2,1,2,38448,task3,736857,false,false,643,image-keyboard-response,3
true,8,0,2,0,true,q,false,true,0.0-2.0-0.17-0.154-3.154,0,1,1,81,false,stim,false,0,684,2,1,1,38448,task3,739070,false,false,646,image-keyboard-response,4
true,8,2,2,0,false,q,false,false,0.0-2.0-0.17-0.155-3.155,0,1,1,68,false,stim,true,2,821,2,0,0,38448,task3,741428,false,false,649,image-keyboard-response,5
true,8,0,2,0,true,q,false,true,0.0-2.0-0.17-0.156-3.156,0,1,1,81,false,stim,false,0,1551,2,1,1,38448,task3,744518,false,false,652,image-keyboard-response,6
true,8,2,2,2,true,d,false,true,0.0-2.0-0.17-0.157-3.157,0,1,1,68,false,stim,false,2,673,2,0,2,38448,task3,746721,false,false,655,image-keyboard-response,7
true,8,1,2,0,false,q,true,false,0.0-2.0-0.17-0.158-3.158,0,1,1,90,false,stim,false,2,648,2,1,0,38448,task3,748894,false,false,658,image-keyboard-response,8
true,8,0,2,0,true,q,false,true,0.0-2.0-0.17-0.159-3.159,0,1,1,81,false,stim,false,0,535,2,1,1,38448,task3,750962,false,false,661,image-keyboard-response,9
true,8,0,2,0,true,q,false,true,0.0-2.0-0.17-0.160-3.160,0,1,1,81,false,stim,false,2,381,2,1,0,38448,task3,752867,false,false,664,image-keyboard-response,10
true,8,2,2,2,true,d,false,true,0.0-2.0-0.17-0.161-3.161,0,1,1,68,false,stim,false,2,1420,2,0,2,38448,task3,755827,false,false,667,image-keyboard-response,11
true,9,0,2,0,true,q,false,true,0.0-2.0-0.18-0.162-3.162,1,1,0,81,true,stim,false,0,857,2,1,1,38448,task3,758224,false,false,670,image-keyboard-response,1
true,9,2,2,0,false,q,true,false,0.0-2.0-0.18-0.163-3.163,1,1,0,68,false,stim,false,0,2600,2,1,0,38448,task3,762357,false,false,673,image-keyboard-response,2
true,9,2,2,1,false,z,false,false,0.0-2.0-0.18-0.164-3.164,1,1,0,68,false,stim,true,2,349,2,0,2,38448,task3,764235,false,false,676,image-keyboard-response,3
true,9,0,2,0,true,q,false,true,0.0-2.0-0.18-0.165-3.165,1,1,0,81,false,stim,false,0,342,2,1,0,38448,task3,766108,false,false,679,image-keyboard-response,4
true,9,0,2,0,true,q,false,true,0.0-2.0-0.18-0.166-3.166,1,1,0,81,false,stim,false,0,857,2,1,1,38448,task3,768502,false,false,682,image-keyboard-response,5
true,9,0,2,0,true,q,false,true,0.0-2.0-0.18-0.167-3.167,1,1,0,81,false,stim,false,0,583,2,1,0,38448,task3,770610,false,false,685,image-keyboard-response,6
true,9,2,2,1,false,z,false,false,0.0-2.0-0.18-0.168-3.168,1,1,0,68,false,stim,true,2,1645,2,0,2,38448,task3,773791,false,false,688,image-keyboard-response,7
true,9,1,2,1,true,z,false,true,0.0-2.0-0.18-0.169-3.169,1,1,0,90,false,stim,false,2,691,2,0,2,38448,task3,776018,false,false,691,image-keyboard-response,8
true,9,0,2,0,true,q,false,true,0.0-2.0-0.18-0.170-3.170,1,1,0,81,false,stim,false,0,671,2,0,1,38448,task3,778216,false,false,694,image-keyboard-response,9
true,9,0,2,0,true,q,false,true,0.0-2.0-0.19-0.171-3.171,1,1,0,81,false,stim,false,0,520,2,0,1,38448,task3,780265,false,false,697,image-keyboard-response,10
true,9,1,2,1,true,z,false,true,0.0-2.0-0.19-0.172-3.172,1,1,0,90,false,stim,false,2,681,2,1,2,38448,task3,782477,false,false,700,image-keyboard-response,11
true,9,1,2,1,true,z,false,false,0.0-2.0-0.19-0.173-3.173,1,1,0,90,false,stim,false,2,430,2,1,2,38448,task3,784446,false,true,703,image-keyboard-response,12
true,9,0,2,0,true,q,false,true,0.0-2.0-0.19-0.174-3.174,1,1,0,81,false,stim,false,0,623,2,0,0,38448,task3,786594,false,false,706,image-keyboard-response,13
true,10,0,1,2,false,d,false,false,0.0-2.0-0.19-0.175-3.175,0,0,1,81,true,stim,true,0,1409,2,0,1,38448,task3,789516,false,false,709,image-keyboard-response,1
true,10,0,1,2,false,d,false,false,0.0-2.0-0.19-0.176-3.176,0,0,1,81,false,stim,true,0,1630,2,0,0,38448,task3,792677,false,false,712,image-keyboard-response,2
true,10,1,1,2,false,d,true,false,0.0-2.0-0.19-0.177-3.177,0,0,1,90,false,stim,false,0,378,2,0,0,38448,task3,794594,false,false,715,image-keyboard-response,3
true,10,1,1,2,false,d,true,false,0.0-2.0-0.19-0.178-3.178,0,0,1,90,false,stim,false,0,940,2,0,1,38448,task3,797056,false,false,718,image-keyboard-response,4
true,10,1,1,1,true,z,false,true,0.0-2.0-0.19-0.179-3.179,0,0,1,90,false,stim,false,1,692,2,1,2,38448,task3,799288,false,false,721,image-keyboard-response,5
true,10,1,1,1,true,z,false,true,0.0-2.0-0.20-0.180-3.180,0,0,1,90,false,stim,false,1,368,2,1,2,38448,task3,801183,false,false,724,image-keyboard-response,6
true,10,2,1,2,true,d,false,true,0.0-2.0-0.20-0.181-3.181,0,0,1,68,false,stim,false,0,865,2,0,1,38448,task3,803581,false,false,727,image-keyboard-response,7
true,10,2,1,2,true,d,false,false,0.0-2.0-0.20-0.182-3.182,0,0,1,68,false,stim,false,0,762,2,0,0,38448,task3,805878,false,true,730,image-keyboard-response,8
true,10,2,1,2,true,d,false,true,0.0-2.0-0.20-0.183-3.183,0,0,1,68,false,stim,false,0,794,2,0,1,38448,task3,808201,false,false,733,image-keyboard-response,9
true,10,0,1,2,false,d,false,false,0.0-2.0-0.20-0.184-3.184,0,0,1,81,false,stim,true,0,607,2,0,0,38448,task3,810335,false,false,736,image-keyboard-response,10
true,10,1,1,1,true,z,false,true,0.0-2.0-0.20-0.185-3.185,0,0,1,90,false,stim,false,1,660,2,1,2,38448,task3,812527,false,false,739,image-keyboard-response,11
true,10,1,1,1,true,z,false,true,0.0-2.0-0.20-0.186-3.186,0,0,1,90,false,stim,false,1,519,2,1,2,38448,task3,814576,false,false,742,image-keyboard-response,12
true,10,2,1,2,true,d,false,true,0.0-2.0-0.20-0.187-3.187,0,0,1,68,false,stim,false,0,539,2,0,1,38448,task3,816655,false,false,745,image-keyboard-response,13
true,10,1,1,2,false,d,true,false,0.0-2.0-0.20-0.188-3.188,0,0,1,90,false,stim,false,0,984,2,0,0,38448,task3,819182,false,false,748,image-keyboard-response,14
true,10,1,1,1,true,z,false,true,0.0-2.0-0.21-0.189-3.189,0,0,1,90,false,stim,false,1,752,2,1,2,38448,task3,821458,false,false,751,image-keyboard-response,15
true,10,2,1,2,true,d,false,true,0.0-2.0-0.21-0.190-3.190,0,0,1,68,false,stim,false,0,680,2,0,1,38448,task3,823668,false,false,754,image-keyboard-response,16
true,10,2,1,2,true,d,false,true,0.0-2.0-0.21-0.191-3.191,0,0,1,68,false,stim,false,0,528,2,0,1,38448,task3,825736,false,false,757,image-keyboard-response,17
true,10,2,1,2,true,d,false,true,0.0-2.0-0.21-0.192-3.192,0,0,1,68,false,stim,false,0,394,2,0,0,38448,task3,827660,false,false,760,image-keyboard-response,18
true,10,2,1,2,true,d,false,true,0.0-2.0-0.21-0.193-3.193,0,0,1,68,false,stim,false,0,428,2,0,0,38448,task3,829624,false,false,763,image-keyboard-response,19
true,10,2,1,2,true,d,false,true,0.0-2.0-0.21-0.194-3.194,0,0,1,68,false,stim,false,0,990,2,0,0,38448,task3,832155,false,false,766,image-keyboard-response,20
true,10,1,1,2,false,d,true,false,0.0-2.0-0.21-0.195-3.195,0,0,1,90,false,stim,false,0,877,2,0,1,38448,task3,834573,false,false,769,image-keyboard-response,21
true,10,1,1,1,true,z,false,true,0.0-2.0-0.21-0.196-3.196,0,0,1,90,false,stim,false,1,569,2,1,2,38448,task3,836676,false,false,772,image-keyboard-response,22
true,10,1,1,1,true,z,false,true,0.0-2.0-0.21-0.197-3.197,0,0,1,90,false,stim,false,1,668,2,1,2,38448,task3,838884,false,false,775,image-keyboard-response,23
true,10,1,1,1,true,z,false,true,0.0-2.0-0.22-0.198-3.198,0,0,1,90,false,stim,false,1,737,2,1,2,38448,task3,841152,false,false,778,image-keyboard-response,24
true,10,1,1,1,true,z,false,true,0.0-2.0-0.22-0.199-3.199,0,0,1,90,false,stim,false,1,394,2,0,2,38448,task3,843071,false,false,781,image-keyboard-response,25
true,10,2,1,2,true,d,false,true,0.0-2.0-0.22-0.200-3.200,0,0,1,68,false,stim,false,0,872,2,1,0,38448,task3,845468,false,false,784,image-keyboard-response,26
true,10,2,1,2,true,d,false,true,0.0-2.0-0.22-0.201-3.201,0,0,1,68,false,stim,false,0,401,2,1,0,38448,task3,847407,false,false,787,image-keyboard-response,27
true,10,2,1,2,true,d,false,true,0.0-2.0-0.22-0.202-3.202,0,0,1,68,false,stim,false,0,354,2,1,0,38448,task3,849301,false,false,790,image-keyboard-response,28
true,10,2,1,1,false,z,true,false,0.0-2.0-0.22-0.203-3.203,0,0,1,68,false,stim,false,1,717,2,0,2,38448,task3,851545,false,false,793,image-keyboard-response,29
true,11,1,1,0,false,q,true,false,0.0-2.0-0.22-0.204-3.204,1,0,0,90,true,stim,false,2,1110,2,0,1,38448,task3,854195,false,false,796,image-keyboard-response,1
true,11,2,1,0,false,q,false,false,0.0-2.0-0.22-0.205-3.205,1,0,0,68,false,stim,true,2,458,2,0,1,38448,task3,856184,false,false,799,image-keyboard-response,2
true,11,2,1,0,false,q,false,false,0.0-2.0-0.22-0.206-3.206,1,0,0,68,false,stim,true,2,338,2,0,1,38448,task3,858063,false,false,802,image-keyboard-response,3
true,11,2,1,0,false,q,true,false,0.0-2.0-0.23-0.207-3.207,1,0,0,68,false,stim,false,1,700,2,0,2,38448,task3,860287,false,false,805,image-keyboard-response,4
true,11,2,1,2,true,d,false,true,0.0-2.0-0.23-0.208-3.208,1,0,0,68,false,stim,false,2,674,2,1,0,38448,task3,862500,false,false,808,image-keyboard-response,5
true,11,2,1,2,true,d,false,true,0.0-2.0-0.23-0.209-3.209,1,0,0,68,false,stim,false,2,611,2,1,0,38448,task3,864657,false,false,811,image-keyboard-response,6
true,11,0,1,0,true,q,false,false,0.0-2.0-0.23-0.210-3.210,1,0,0,81,false,stim,false,1,569,2,0,2,38448,task3,866755,false,true,814,image-keyboard-response,7
true,11,2,1,2,true,d,false,true,0.0-2.0-0.23-0.211-3.211,1,0,0,68,false,stim,false,2,980,2,1,0,38448,task3,869277,false,false,817,image-keyboard-response,8
true,11,0,1,0,true,q,false,true,0.0-2.0-0.23-0.212-3.212,1,0,0,81,false,stim,false,2,459,2,0,1,38448,task3,871266,false,false,820,image-keyboard-response,9
true,11,1,1,0,false,q,false,false,0.0-2.0-0.23-0.213-3.213,1,0,0,90,false,stim,true,1,652,2,0,2,38448,task3,873459,false,false,823,image-keyboard-response,10
true,11,0,1,0,true,q,false,true,0.0-2.0-0.23-0.214-3.214,1,0,0,81,false,stim,false,2,1085,2,0,1,38448,task3,876071,false,false,826,image-keyboard-response,11
true,11,0,1,0,true,q,false,false,0.0-2.0-0.23-0.215-3.215,1,0,0,81,false,stim,false,2,538,2,0,1,38448,task3,878133,false,true,829,image-keyboard-response,12
true,11,2,1,2,true,d,false,true,0.0-2.0-0.24-0.216-3.216,1,0,0,68,false,stim,false,2,756,2,1,0,38448,task3,880412,false,false,832,image-keyboard-response,13
true,11,2,1,0,false,q,true,false,0.0-2.0-0.24-0.217-3.217,1,0,0,68,false,stim,false,1,2122,2,0,2,38448,task3,884069,false,false,835,image-keyboard-response,14
true,11,0,1,0,true,q,false,true,0.0-2.0-0.24-0.218-3.218,1,0,0,81,false,stim,false,1,2305,2,0,2,38448,task3,887912,false,false,838,image-keyboard-response,15
true,11,2,1,2,true,d,false,true,0.0-2.0-0.24-0.219-3.219,1,0,0,68,false,stim,false,2,1078,2,1,0,38448,task3,890514,false,false,841,image-keyboard-response,16
true,11,2,1,2,true,d,false,true,0.0-2.0-0.24-0.220-3.220,1,0,0,68,false,stim,false,2,531,2,1,0,38448,task3,892567,false,false,844,image-keyboard-response,17
true,11,0,1,0,true,q,false,true,0.0-2.0-0.24-0.221-3.221,1,0,0,81,false,stim,false,1,1436,2,0,2,38448,task3,895543,false,false,847,image-keyboard-response,18
true,11,0,1,0,true,q,false,true,0.0-2.0-0.24-0.222-3.222,1,0,0,81,false,stim,false,2,733,2,0,1,38448,task3,897801,false,false,850,image-keyboard-response,19
true,11,0,1,0,true,q,false,true,0.0-2.0-0.24-0.223-3.223,1,0,0,81,false,stim,false,2,393,2,0,1,38448,task3,899729,false,false,853,image-keyboard-response,20
true,11,0,1,0,true,q,false,true,0.0-2.0-0.24-0.224-3.224,1,0,0,81,false,stim,false,2,486,2,0,1,38448,task3,901743,false,false,856,image-keyboard-response,21
true,11,0,1,0,true,q,false,true,0.0-2.0-0.25-0.225-3.225,1,0,0,81,false,stim,false,1,783,2,1,2,38448,task3,904060,false,false,859,image-keyboard-response,22
true,11,0,1,0,true,q,false,true,0.0-2.0-0.25-0.226-3.226,1,0,0,81,false,stim,false,2,462,2,0,1,38448,task3,906058,false,false,862,image-keyboard-response,23
true,11,0,1,0,true,q,false,true,0.0-2.0-0.25-0.227-3.227,1,0,0,81,false,stim,false,2,371,2,0,1,38448,task3,907968,false,false,865,image-keyboard-response,24
true,11,0,1,0,true,q,false,true,0.0-2.0-0.25-0.228-3.228,1,0,0,81,false,stim,false,1,729,2,1,2,38448,task3,910226,false,false,868,image-keyboard-response,25
true,12,2,1,1,false,z,false,false,0.0-2.0-0.25-0.229-3.229,0,0,1,68,true,stim,true,2,1050,2,0,0,38448,task3,912807,false,false,871,image-keyboard-response,1
true,12,2,1,1,false,z,false,false,0.0-2.0-0.25-0.230-3.230,0,0,1,68,false,stim,true,2,797,2,0,0,38448,task3,915135,false,false,874,image-keyboard-response,2
true,12,0,1,2,false,d,false,false,0.0-2.0-0.25-0.231-3.231,0,0,1,81,false,stim,true,0,608,2,0,1,38448,task3,917284,false,false,877,image-keyboard-response,3
true,12,0,1,0,true,q,false,true,0.0-2.0-0.25-0.232-3.232,0,0,1,81,false,stim,false,0,585,2,1,2,38448,task3,919412,false,false,880,image-keyboard-response,4
true,12,1,1,1,true,z,false,true,0.0-2.0-0.25-0.233-3.233,0,0,1,90,false,stim,false,2,751,2,0,0,38448,task3,921698,false,false,883,image-keyboard-response,5
true,12,0,1,0,true,q,false,true,0.0-2.0-0.26-0.234-3.234,0,0,1,81,false,stim,false,0,681,2,1,2,38448,task3,923907,false,false,886,image-keyboard-response,6
true,12,0,1,0,true,q,false,true,0.0-2.0-0.26-0.235-3.235,0,0,1,81,false,stim,false,0,468,2,1,2,38448,task3,925905,false,false,889,image-keyboard-response,7
true,12,0,1,0,true,q,false,true,0.0-2.0-0.26-0.236-3.236,0,0,1,81,false,stim,false,0,737,2,1,2,38448,task3,928163,false,false,892,image-keyboard-response,8
true,12,1,1,1,true,z,false,true,0.0-2.0-0.26-0.237-3.237,0,0,1,90,false,stim,false,2,994,2,0,0,38448,task3,930680,false,false,895,image-keyboard-response,9
true,12,0,1,2,false,d,false,false,0.0-2.0-0.26-0.238-3.238,0,0,1,81,false,stim,true,0,1150,2,0,1,38448,task3,933357,false,false,898,image-keyboard-response,10
true,12,1,1,1,true,z,false,true,0.0-2.0-0.26-0.239-3.239,0,0,1,90,false,stim,false,2,713,2,0,0,38448,task3,935604,false,false,901,image-keyboard-response,11
true,12,1,1,2,false,d,true,false,0.0-2.0-0.26-0.240-3.240,0,0,1,90,false,stim,false,0,746,2,0,1,38448,task3,937882,false,false,904,image-keyboard-response,12
true,12,2,1,2,true,d,false,true,0.0-2.0-0.26-0.241-3.241,0,0,1,68,false,stim,false,0,962,2,0,1,38448,task3,940359,false,false,907,image-keyboard-response,13
true,12,1,1,1,true,z,false,false,0.0-2.0-0.26-0.242-3.242,0,0,1,90,false,stim,false,2,704,2,0,0,38448,task3,942592,false,true,910,image-keyboard-response,14
true,12,2,1,2,true,d,false,true,0.0-2.0-0.27-0.243-3.243,0,0,1,68,false,stim,false,0,698,2,0,1,38448,task3,944825,false,false,913,image-keyboard-response,15
true,12,0,1,0,true,q,false,true,0.0-2.0-0.27-0.244-3.244,0,0,1,81,false,stim,false,0,820,2,1,2,38448,task3,947187,false,false,916,image-keyboard-response,16
true,12,0,1,0,true,q,false,false,0.0-2.0-0.27-0.245-3.245,0,0,1,81,false,stim,false,0,479,2,1,2,38448,task3,949197,false,true,919,image-keyboard-response,17
true,12,2,1,1,false,z,false,false,0.0-2.0-0.27-0.246-3.246,0,0,1,68,false,stim,true,2,787,2,0,0,38448,task3,951524,false,false,922,image-keyboard-response,18
true,12,2,1,2,true,d,false,true,0.0-2.0-0.27-0.247-3.247,0,0,1,68,false,stim,false,0,466,2,0,1,38448,task3,953512,false,false,925,image-keyboard-response,19
true,12,0,1,0,true,q,false,true,0.0-2.0-0.27-0.248-3.248,0,0,1,81,false,stim,false,0,649,2,1,2,38448,task3,955695,false,false,928,image-keyboard-response,20
true,12,1,1,1,true,z,false,true,0.0-2.0-0.27-0.249-3.249,0,0,1,90,false,stim,false,2,607,2,0,0,38448,task3,957833,false,false,931,image-keyboard-response,21
true,12,1,1,1,true,z,false,true,0.0-2.0-0.27-0.250-3.250,0,0,1,90,false,stim,false,2,577,2,0,0,38448,task3,959941,false,false,934,image-keyboard-response,22
true,12,2,1,2,true,d,false,true,0.0-2.0-0.27-0.251-3.251,0,0,1,68,false,stim,false,0,522,2,0,1,38448,task3,961989,false,false,937,image-keyboard-response,23
true,12,2,1,2,true,d,false,true,0.0-2.0-0.28-0.252-3.252,0,0,1,68,false,stim,false,0,512,2,0,1,38448,task3,964039,false,false,940,image-keyboard-response,24
true,12,2,1,2,true,d,false,true,0.0-2.0-0.28-0.253-3.253,0,0,1,68,false,stim,false,0,459,2,0,1,38448,task3,966027,false,false,943,image-keyboard-response,25
true,12,1,1,1,true,z,false,true,0.0-2.0-0.28-0.254-3.254,0,0,1,90,false,stim,false,2,883,2,1,0,38448,task3,968449,false,false,946,image-keyboard-response,26
true,12,1,1,1,true,z,false,false,0.0-2.0-0.28-0.255-3.255,0,0,1,90,false,stim,false,2,496,2,1,0,38448,task3,970478,false,true,949,image-keyboard-response,27
true,12,0,1,0,true,q,false,true,0.0-2.0-0.28-0.256-3.256,0,0,1,81,false,stim,false,0,1231,2,0,2,38448,task3,973248,false,false,952,image-keyboard-response,28
true,13,0,1,2,false,d,false,false,0.0-2.0-0.28-0.257-3.257,1,0,0,81,true,stim,true,0,561,2,0,2,38448,task3,975338,false,false,955,image-keyboard-response,1
true,13,0,1,2,false,d,false,false,0.0-2.0-0.28-0.258-3.258,1,0,0,81,false,stim,true,0,445,2,0,2,38448,task3,977311,false,false,958,image-keyboard-response,2
true,13,1,1,1,true,z,false,false,0.0-2.0-0.28-0.259-3.259,1,0,0,90,false,stim,false,1,613,2,1,0,38448,task3,979459,false,true,961,image-keyboard-response,3
true,13,2,1,0,false,q,false,true,0.0-2.0-0.28-0.260-3.260,1,0,0,68,false,stim,true,2,811,2,0,1,38448,task3,981797,false,true,964,image-keyboard-response,4
true,13,2,1,0,false,q,false,false,0.0-2.0-0.29-0.261-3.261,1,0,0,68,false,stim,true,2,554,2,0,1,38448,task3,983882,false,false,967,image-keyboard-response,5
true,13,2,1,2,true,d,false,true,0.0-2.0-0.29-0.262-3.262,1,0,0,68,false,stim,false,0,494,2,0,2,38448,task3,985899,false,false,970,image-keyboard-response,6
true,13,2,1,1,false,z,true,false,0.0-2.0-0.29-0.263-3.263,1,0,0,68,false,stim,false,1,1350,2,1,0,38448,task3,988777,false,false,973,image-keyboard-response,7
true,13,0,1,1,false,z,true,true,0.0-2.0-0.29-0.264-3.264,1,0,0,81,false,stim,false,1,478,2,1,0,38448,task3,990785,false,true,976,image-keyboard-response,8
true,13,1,1,0,false,q,true,false,0.0-2.0-0.29-0.265-3.265,1,0,0,90,false,stim,false,2,826,2,0,1,38448,task3,993153,false,false,979,image-keyboard-response,9
true,13,2,1,0,false,q,false,false,0.0-2.0-0.29-0.266-3.266,1,0,0,68,false,stim,true,2,949,2,0,1,38448,task3,995625,false,false,982,image-keyboard-response,10
true,13,0,1,1,false,z,true,false,0.0-2.0-0.29-0.267-3.267,1,0,0,81,false,stim,false,1,616,2,1,0,38448,task3,997773,false,false,985,image-keyboard-response,11
true,13,2,1,2,true,d,false,true,0.0-2.0-0.29-0.268-3.268,1,0,0,68,false,stim,false,0,421,2,0,2,38448,task3,999727,false,false,988,image-keyboard-response,12
true,13,2,1,2,true,d,false,true,0.0-2.0-0.29-0.269-3.269,1,0,0,68,false,stim,false,0,469,2,0,2,38448,task3,1001736,false,false,991,image-keyboard-response,13
true,13,2,1,2,true,d,false,true,0.0-2.0-0.30-0.270-3.270,1,0,0,68,false,stim,false,0,532,2,0,2,38448,task3,1003799,false,false,994,image-keyboard-response,14
true,13,0,1,1,false,z,true,false,0.0-2.0-0.30-0.271-3.271,1,0,0,81,false,stim,false,1,1818,2,1,0,38448,task3,1007144,false,false,997,image-keyboard-response,15
true,13,1,1,1,true,z,false,true,0.0-2.0-0.30-0.272-3.272,1,0,0,90,false,stim,false,1,570,2,1,0,38448,task3,1009257,false,false,1000,image-keyboard-response,16
true,13,1,1,1,true,z,false,true,0.0-2.0-0.30-0.273-3.273,1,0,0,90,false,stim,false,1,504,2,1,0,38448,task3,1011291,false,false,1003,image-keyboard-response,17
true,13,0,1,0,true,q,false,true,0.0-2.0-0.30-0.274-3.274,1,0,0,81,false,stim,false,2,1992,2,0,1,38448,task3,1014819,false,false,1006,image-keyboard-response,18
true,13,2,1,2,true,d,false,true,0.0-2.0-0.30-0.275-3.275,1,0,0,68,false,stim,false,0,1374,2,0,2,38448,task3,1017721,false,false,1009,image-keyboard-response,19
true,13,0,1,0,true,q,false,true,0.0-2.0-0.30-0.276-3.276,1,0,0,81,false,stim,false,2,798,2,0,1,38448,task3,1020045,false,false,1012,image-keyboard-response,20
true,13,2,1,2,true,d,false,true,0.0-2.0-0.30-0.277-3.277,1,0,0,68,false,stim,false,0,695,2,0,2,38448,task3,1022282,false,false,1015,image-keyboard-response,21
true,13,0,1,0,true,q,false,true,0.0-2.0-0.30-0.278-3.278,1,0,0,81,false,stim,false,2,881,2,0,1,38448,task3,1024689,false,false,1018,image-keyboard-response,22
true,13,0,1,0,true,q,false,true,0.0-2.0-0.31-0.279-3.279,1,0,0,81,false,stim,false,2,361,2,0,1,38448,task3,1026578,false,false,1021,image-keyboard-response,23
true,13,2,1,2,true,d,false,true,0.0-2.0-0.31-0.280-3.280,1,0,0,68,false,stim,false,0,2160,2,1,2,38448,task3,1030267,false,false,1024,image-keyboard-response,24
true,13,0,1,0,true,q,false,true,0.0-2.0-0.31-0.281-3.281,1,0,0,81,false,stim,false,2,1510,2,0,1,38448,task3,1033317,false,false,1027,image-keyboard-response,25
false,13,-1,1,1,false,z,true,true,0.0-2.0-0.31-0.282-3.282,1,0,0,,false,stim,false,1,,2,1,0,38448,task3,1037865,false,true,1030,image-keyboard-response,26
true,13,1,1,1,true,z,false,true,0.0-2.0-0.31-0.283-3.283,1,0,0,90,false,stim,false,1,546,2,1,0,38448,task3,1039952,false,false,1033,image-keyboard-response,27
true,13,2,1,2,true,d,false,true,0.0-2.0-0.31-0.284-3.284,1,0,0,68,false,stim,false,0,503,2,1,2,38448,task3,1041990,false,false,1036,image-keyboard-response,28
true,14,1,2,1,true,z,false,true,0.0-2.0-0.31-0.285-3.285,1,0,1,90,true,stim,false,1,862,2,1,0,38448,task3,1044387,false,false,1039,image-keyboard-response,1
true,14,2,2,2,true,d,false,true,0.0-2.0-0.31-0.286-3.286,1,0,1,68,false,stim,false,2,668,2,1,2,38448,task3,1046595,false,false,1042,image-keyboard-response,2
true,14,0,2,2,false,d,false,false,0.0-2.0-0.31-0.287-3.287,1,0,1,81,false,stim,true,0,597,2,0,1,38448,task3,1048724,false,false,1045,image-keyboard-response,3
true,14,2,2,2,true,d,false,true,0.0-2.0-0.32-0.288-3.288,1,0,1,68,false,stim,false,2,570,2,1,2,38448,task3,1050827,false,false,1048,image-keyboard-response,4
true,14,1,2,2,false,d,true,false,0.0-2.0-0.32-0.289-3.289,1,0,1,90,false,stim,false,0,619,2,0,1,38448,task3,1052976,false,false,1051,image-keyboard-response,5
true,14,1,2,1,true,z,false,true,0.0-2.0-0.32-0.290-3.290,1,0,1,90,false,stim,false,1,780,2,1,0,38448,task3,1055288,false,false,1054,image-keyboard-response,6
true,14,2,2,2,true,d,false,true,0.0-2.0-0.32-0.291-3.291,1,0,1,68,false,stim,false,2,495,2,1,2,38448,task3,1057322,false,false,1057,image-keyboard-response,7
true,14,2,2,2,true,d,false,true,0.0-2.0-0.32-0.292-3.292,1,0,1,68,false,stim,false,0,1746,2,0,1,38448,task3,1060591,false,false,1060,image-keyboard-response,8
true,14,2,2,2,true,d,false,false,0.0-2.0-0.32-0.293-3.293,1,0,1,68,false,stim,false,0,388,2,0,1,38448,task3,1062506,false,true,1063,image-keyboard-response,9
true,14,1,2,1,true,z,false,true,0.0-2.0-0.32-0.294-3.294,1,0,1,90,false,stim,false,1,867,2,1,0,38448,task3,1064904,false,false,1066,image-keyboard-response,10
true,14,2,2,2,true,d,false,true,0.0-2.0-0.32-0.295-3.295,1,0,1,68,false,stim,false,2,594,2,0,2,38448,task3,1067032,false,false,1069,image-keyboard-response,11
true,14,1,2,1,true,z,false,true,0.0-2.0-0.32-0.296-3.296,1,0,1,90,false,stim,false,1,718,2,1,0,38448,task3,1069274,false,false,1072,image-keyboard-response,12
true,14,1,2,1,true,z,false,true,0.0-2.0-0.33-0.297-3.297,1,0,1,90,false,stim,false,1,567,2,1,0,38448,task3,1071383,false,false,1075,image-keyboard-response,13
true,14,2,2,2,true,d,false,true,0.0-2.0-0.33-0.298-3.298,1,0,1,68,false,stim,false,0,1932,2,1,1,38448,task3,1074828,false,false,1078,image-keyboard-response,14
true,14,2,2,2,true,d,false,true,0.0-2.0-0.33-0.299-3.299,1,0,1,68,false,stim,false,2,1437,2,0,2,38448,task3,1077794,false,false,1081,image-keyboard-response,15
true,15,2,2,1,false,z,false,true,0.0-2.0-0.33-0.300-3.300,1,1,0,68,true,stim,true,2,435,2,0,2,38448,task3,1079762,false,true,1084,image-keyboard-response,1
true,15,2,2,2,true,d,false,true,0.0-2.0-0.33-0.301-3.301,1,1,0,68,false,stim,false,2,1277,2,1,1,38448,task3,1082563,false,false,1087,image-keyboard-response,2
true,15,2,2,2,true,d,false,true,0.0-2.0-0.33-0.302-3.302,1,1,0,68,false,stim,false,2,434,2,1,1,38448,task3,1084532,false,false,1090,image-keyboard-response,3
true,15,2,2,1,false,z,false,false,0.0-2.0-0.33-0.303-3.303,1,1,0,68,false,stim,true,2,827,2,0,2,38448,task3,1086884,false,false,1093,image-keyboard-response,4
true,15,1,2,1,true,z,false,true,0.0-2.0-0.33-0.304-3.304,1,1,0,90,false,stim,false,1,1125,2,1,0,38448,task3,1089541,false,false,1096,image-keyboard-response,5
true,15,1,2,1,true,z,false,true,0.0-2.0-0.33-0.305-3.305,1,1,0,90,false,stim,false,1,348,2,1,0,38448,task3,1091415,false,false,1099,image-keyboard-response,6
true,15,1,2,1,true,z,false,true,0.0-2.0-0.34-0.306-3.306,1,1,0,90,false,stim,false,1,462,2,1,0,38448,task3,1093408,false,false,1102,image-keyboard-response,7
true,15,2,2,1,false,z,false,false,0.0-2.0-0.34-0.307-3.307,1,1,0,68,false,stim,true,2,1477,2,0,2,38448,task3,1096425,false,false,1105,image-keyboard-response,8
true,15,1,2,1,true,z,false,true,0.0-2.0-0.34-0.308-3.308,1,1,0,90,false,stim,false,1,644,2,1,0,38448,task3,1098606,false,false,1108,image-keyboard-response,9
true,15,2,2,2,true,d,false,true,0.0-2.0-0.34-0.309-3.309,1,1,0,68,false,stim,false,2,778,2,1,1,38448,task3,1100906,false,false,1111,image-keyboard-response,10
true,15,2,2,1,false,z,false,true,0.0-2.0-0.34-0.310-3.310,1,1,0,68,false,stim,true,2,1564,2,0,2,38448,task3,1104011,false,true,1114,image-keyboard-response,11
true,15,2,2,1,false,z,false,false,0.0-2.0-0.34-0.311-3.311,1,1,0,68,false,stim,true,2,369,2,0,2,38448,task3,1105914,false,false,1117,image-keyboard-response,12
true,15,1,2,1,true,z,false,true,0.0-2.0-0.34-0.312-3.312,1,1,0,90,false,stim,false,1,826,2,1,0,38448,task3,1108272,false,false,1120,image-keyboard-response,13
true,15,2,2,2,true,d,false,true,0.0-2.0-0.34-0.313-3.313,1,1,0,68,false,stim,false,2,903,2,1,1,38448,task3,1110691,false,false,1123,image-keyboard-response,14
true,15,2,2,2,true,d,false,true,0.0-2.0-0.34-0.314-3.314,1,1,0,68,false,stim,false,2,411,2,1,1,38448,task3,1112628,false,false,1126,image-keyboard-response,15
true,15,2,2,1,false,z,false,false,0.0-2.0-0.35-0.315-3.315,1,1,0,68,false,stim,true,2,1529,2,0,2,38448,task3,1115695,false,false,1129,image-keyboard-response,16
true,15,2,2,1,false,z,false,false,0.0-2.0-0.35-0.316-3.316,1,1,0,68,false,stim,true,2,546,2,0,2,38448,task3,1117772,false,false,1132,image-keyboard-response,17
true,15,0,2,2,false,d,true,false,0.0-2.0-0.35-0.317-3.317,1,1,0,81,false,stim,false,2,1545,2,1,1,38448,task3,1120853,false,false,1135,image-keyboard-response,18
true,15,1,2,1,true,z,false,true,0.0-2.0-0.35-0.318-3.318,1,1,0,90,false,stim,false,1,644,2,1,0,38448,task3,1123031,false,false,1138,image-keyboard-response,19
true,15,1,2,2,false,d,true,false,0.0-2.0-0.35-0.319-3.319,1,1,0,90,false,stim,false,2,368,2,1,1,38448,task3,1124935,false,false,1141,image-keyboard-response,20
true,15,2,2,2,true,d,false,true,0.0-2.0-0.35-0.320-3.320,1,1,0,68,false,stim,false,2,452,2,0,1,38448,task3,1126918,false,false,1144,image-keyboard-response,21
true,15,2,2,1,false,z,false,false,0.0-2.0-0.35-0.321-3.321,1,1,0,68,false,stim,true,2,575,2,0,2,38448,task3,1129021,false,false,1147,image-keyboard-response,22
true,15,1,2,1,true,z,false,true,0.0-2.0-0.35-0.322-3.322,1,1,0,90,false,stim,false,1,559,2,1,0,38448,task3,1131095,false,false,1150,image-keyboard-response,23
true,15,1,2,1,true,z,false,true,0.0-2.0-0.35-0.323-3.323,1,1,0,90,false,stim,false,1,467,2,1,0,38448,task3,1133104,false,false,1153,image-keyboard-response,24
true,15,1,2,1,true,z,false,true,0.0-2.0-0.36-0.324-3.324,1,1,0,90,false,stim,false,1,470,2,1,0,38448,task3,1135107,false,false,1156,image-keyboard-response,25
true,16,1,1,0,false,q,true,false,0.0-2.0-0.36-0.325-3.325,1,0,0,90,true,stim,false,2,464,2,0,1,38448,task3,1137101,false,false,1159,image-keyboard-response,1
true,16,1,1,1,true,z,false,true,0.0-2.0-0.36-0.326-3.326,1,0,0,90,false,stim,false,1,578,2,1,0,38448,task3,1139214,false,false,1162,image-keyboard-response,2
true,16,0,1,0,true,q,false,true,0.0-2.0-0.36-0.327-3.327,1,0,0,81,false,stim,false,1,486,2,0,2,38448,task3,1141233,false,false,1165,image-keyboard-response,3
true,16,2,1,0,false,q,false,true,0.0-2.0-0.36-0.328-3.328,1,0,0,68,false,stim,true,2,880,2,0,1,38448,task3,1143646,false,true,1168,image-keyboard-response,4
true,16,1,1,1,true,z,false,false,0.0-2.0-0.36-0.329-3.329,1,0,0,90,false,stim,false,1,657,2,1,0,38448,task3,1145844,false,true,1171,image-keyboard-response,5
true,16,0,1,0,true,q,false,true,0.0-2.0-0.36-0.330-3.330,1,0,0,81,false,stim,false,1,527,2,0,2,38448,task3,1147892,false,false,1174,image-keyboard-response,6
true,16,2,1,0,false,q,false,false,0.0-2.0-0.36-0.331-3.331,1,0,0,68,false,stim,true,2,921,2,0,1,38448,task3,1150349,false,false,1177,image-keyboard-response,7
true,16,0,1,0,true,q,false,true,0.0-2.0-0.36-0.332-3.332,1,0,0,81,false,stim,false,1,432,2,0,2,38448,task3,1152318,false,false,1180,image-keyboard-response,8
true,16,0,1,0,true,q,false,true,0.0-2.0-0.37-0.333-3.333,1,0,0,81,false,stim,false,2,645,2,0,1,38448,task3,1154491,false,false,1183,image-keyboard-response,9
true,16,0,1,0,true,q,false,true,0.0-2.0-0.37-0.334-3.334,1,0,0,81,false,stim,false,2,438,2,0,1,38448,task3,1156465,false,false,1186,image-keyboard-response,10
true,16,0,1,0,true,q,false,true,0.0-2.0-0.37-0.335-3.335,1,0,0,81,false,stim,false,1,421,2,0,2,38448,task3,1158418,false,false,1189,image-keyboard-response,11
true,16,1,1,1,true,z,false,true,0.0-2.0-0.37-0.336-3.336,1,0,0,90,false,stim,false,1,570,2,1,0,38448,task3,1160527,false,false,1192,image-keyboard-response,12
true,16,1,1,1,true,z,false,true,0.0-2.0-0.37-0.337-3.337,1,0,0,90,false,stim,false,1,379,2,1,0,38448,task3,1162446,false,false,1195,image-keyboard-response,13
true,16,0,1,0,true,q,false,true,0.0-2.0-0.37-0.338-3.338,1,0,0,81,false,stim,false,2,539,2,0,1,38448,task3,1164526,false,false,1198,image-keyboard-response,14
true,16,0,1,0,true,q,false,true,0.0-2.0-0.37-0.339-3.339,1,0,0,81,false,stim,false,1,978,2,0,2,38448,task3,1167052,false,false,1201,image-keyboard-response,15
true,16,0,1,0,true,q,false,true,0.0-2.0-0.37-0.340-3.340,1,0,0,81,false,stim,false,1,413,2,0,2,38448,task3,1169000,false,false,1204,image-keyboard-response,16
true,16,1,1,1,true,z,false,true,0.0-2.0-0.37-0.341-3.341,1,0,0,90,false,stim,false,1,870,2,1,0,38448,task3,1171398,false,false,1207,image-keyboard-response,17
true,16,0,1,0,true,q,false,true,0.0-2.0-0.38-0.342-3.342,1,0,0,81,false,stim,false,2,2478,2,0,1,38448,task3,1175406,false,false,1210,image-keyboard-response,18
true,16,0,1,0,true,q,false,false,0.0-2.0-0.38-0.343-3.343,1,0,0,81,false,stim,false,1,1685,2,0,2,38448,task3,1178631,false,true,1213,image-keyboard-response,19
true,16,1,1,1,true,z,false,true,0.0-2.0-0.38-0.344-3.344,1,0,0,90,false,stim,false,1,1050,2,1,0,38448,task3,1181217,false,false,1216,image-keyboard-response,20
true,16,0,1,0,true,q,false,true,0.0-2.0-0.38-0.345-3.345,1,0,0,81,false,stim,false,1,533,2,0,2,38448,task3,1183290,false,false,1219,image-keyboard-response,21
true,16,1,1,1,true,z,false,true,0.0-2.0-0.38-0.346-3.346,1,0,0,90,false,stim,false,1,487,2,1,0,38448,task3,1185304,false,false,1222,image-keyboard-response,22
true,16,0,1,0,true,q,false,true,0.0-2.0-0.38-0.347-3.347,1,0,0,81,false,stim,false,2,1074,2,0,1,38448,task3,1187907,false,false,1225,image-keyboard-response,23
true,16,0,1,0,true,q,false,true,0.0-2.0-0.38-0.348-3.348,1,0,0,81,false,stim,false,1,543,2,0,2,38448,task3,1189989,false,false,1228,image-keyboard-response,24
true,16,1,1,1,true,z,false,true,0.0-2.0-0.38-0.349-3.349,1,0,0,90,false,stim,false,1,706,2,1,0,38448,task3,1192233,false,false,1231,image-keyboard-response,25
true,16,0,1,0,true,q,false,true,0.0-2.0-0.38-0.350-3.350,1,0,0,81,false,stim,false,2,1128,2,1,1,38448,task3,1194884,false,false,1234,image-keyboard-response,26
true,16,1,1,1,true,z,false,true,0.0-2.0-0.39-0.351-3.351,1,0,0,90,false,stim,false,1,1393,2,1,0,38448,task3,1197809,false,false,1237,image-keyboard-response,27
true,16,0,1,0,true,q,false,true,0.0-2.0-0.39-0.352-3.352,1,0,0,81,false,stim,false,1,801,2,0,2,38448,task3,1200147,false,false,1240,image-keyboard-response,28
true,17,1,2,1,true,z,false,true,0.0-2.0-0.39-0.353-3.353,1,1,0,90,true,stim,false,1,784,2,1,0,38448,task3,1202471,false,false,1243,image-keyboard-response,1
true,17,0,2,0,true,q,false,true,0.0-2.0-0.39-0.354-3.354,1,1,0,81,false,stim,false,0,1411,2,1,1,38448,task3,1205418,false,false,1246,image-keyboard-response,2
true,17,0,2,1,false,z,false,false,0.0-2.0-0.39-0.355-3.355,1,1,0,81,false,stim,true,0,588,2,0,2,38448,task3,1207534,false,false,1249,image-keyboard-response,3
true,17,0,2,1,false,z,false,true,0.0-2.0-0.39-0.356-3.356,1,1,0,81,false,stim,true,0,452,2,0,2,38448,task3,1209518,false,true,1252,image-keyboard-response,4
true,17,1,2,1,true,z,false,true,0.0-2.0-0.39-0.357-3.357,1,1,0,90,false,stim,false,1,884,2,1,0,38448,task3,1211930,false,false,1255,image-keyboard-response,5
true,17,0,2,0,true,q,false,true,0.0-2.0-0.39-0.358-3.358,1,1,0,81,false,stim,false,0,1679,2,1,1,38448,task3,1215136,false,false,1258,image-keyboard-response,6
true,17,0,2,0,true,q,false,true,0.0-2.0-0.39-0.359-3.359,1,1,0,81,false,stim,false,0,427,2,1,1,38448,task3,1217094,false,false,1261,image-keyboard-response,7
true,17,1,2,1,true,z,false,true,0.0-2.0-0.40-0.360-3.360,1,1,0,90,false,stim,false,1,1169,2,1,0,38448,task3,1219796,false,false,1264,image-keyboard-response,8
true,17,0,2,1,false,z,false,false,0.0-2.0-0.40-0.361-3.361,1,1,0,81,false,stim,true,0,1435,2,0,2,38448,task3,1222762,false,false,1267,image-keyboard-response,9
true,17,0,2,0,true,q,false,true,0.0-2.0-0.40-0.362-3.362,1,1,0,81,false,stim,false,0,1600,2,1,1,38448,task3,1225907,false,false,1270,image-keyboard-response,10
true,17,1,2,1,true,z,false,true,0.0-2.0-0.40-0.363-3.363,1,1,0,90,false,stim,false,1,1118,2,0,0,38448,task3,1228554,false,false,1273,image-keyboard-response,11
true,17,0,2,1,false,z,false,false,0.0-2.0-0.40-0.364-3.364,1,1,0,81,false,stim,true,0,695,2,1,2,38448,task3,1230772,false,false,1276,image-keyboard-response,12
true,17,0,2,0,true,q,false,true,0.0-2.0-0.40-0.365-3.365,1,1,0,81,false,stim,false,0,1650,2,1,1,38448,task3,1233947,false,false,1279,image-keyboard-response,13
true,17,2,2,1,false,z,true,true,0.0-2.0-0.40-0.366-3.366,1,1,0,68,false,stim,false,0,418,2,1,2,38448,task3,1235895,false,true,1282,image-keyboard-response,14
true,18,1,2,2,false,d,false,false,0.0-2.0-0.40-0.367-3.367,0,1,1,90,true,stim,true,1,552,2,0,0,38448,task3,1237988,false,false,1285,image-keyboard-response,1
true,18,0,2,0,true,q,false,true,0.0-2.0-0.40-0.368-3.368,0,1,1,81,false,stim,false,0,775,2,1,1,38448,task3,1240292,false,false,1288,image-keyboard-response,2
true,18,0,2,2,false,d,true,false,0.0-2.0-0.41-0.369-3.369,0,1,1,81,false,stim,false,1,693,2,0,0,38448,task3,1242509,false,false,1291,image-keyboard-response,3
true,18,2,2,1,false,z,true,true,0.0-2.0-0.41-0.370-3.370,0,1,1,68,false,stim,false,1,840,2,1,2,38448,task3,1244877,false,true,1294,image-keyboard-response,4
true,18,0,2,0,true,q,false,true,0.0-2.0-0.41-0.371-3.371,0,1,1,81,false,stim,false,0,802,2,1,1,38448,task3,1247220,false,false,1297,image-keyboard-response,5
true,18,2,2,2,true,d,false,true,0.0-2.0-0.41-0.372-3.372,0,1,1,68,false,stim,false,1,951,2,0,0,38448,task3,1249707,false,false,1300,image-keyboard-response,6
true,18,0,2,0,true,q,false,true,0.0-2.0-0.41-0.373-3.373,0,1,1,81,false,stim,false,0,1317,2,1,1,38448,task3,1252553,false,false,1303,image-keyboard-response,7
true,18,2,2,2,true,d,false,true,0.0-2.0-0.41-0.374-3.374,0,1,1,68,false,stim,false,1,584,2,0,0,38448,task3,1254661,false,false,1306,image-keyboard-response,8
true,18,2,2,1,false,z,true,false,0.0-2.0-0.41-0.375-3.375,0,1,1,68,false,stim,false,1,713,2,0,2,38448,task3,1256899,false,false,1309,image-keyboard-response,9
true,18,2,2,1,false,z,true,false,0.0-2.0-0.41-0.376-3.376,0,1,1,68,false,stim,false,1,806,2,0,2,38448,task3,1259233,false,false,1312,image-keyboard-response,10
true,18,0,2,0,true,q,false,true,0.0-2.0-0.41-0.377-3.377,0,1,1,81,false,stim,false,0,481,2,0,1,38448,task3,1261247,false,false,1315,image-keyboard-response,11
true,18,1,2,1,true,z,false,true,0.0-2.0-0.42-0.378-3.378,0,1,1,90,false,stim,false,1,1286,2,0,2,38448,task3,1264072,false,false,1318,image-keyboard-response,12
true,18,1,2,2,false,d,false,false,0.0-2.0-0.42-0.379-3.379,0,1,1,90,false,stim,true,1,1582,2,1,0,38448,task3,1267188,false,false,1321,image-keyboard-response,13
true,19,0,1,1,false,z,false,true,0.0-2.0-0.42-0.380-3.380,1,0,0,81,true,stim,true,0,505,2,0,1,38448,task3,1269232,false,true,1324,image-keyboard-response,1
true,19,1,1,0,false,q,false,false,0.0-2.0-0.42-0.381-3.381,1,0,0,90,false,stim,true,1,870,2,0,2,38448,task3,1271638,false,false,1327,image-keyboard-response,2
true,19,0,1,1,false,z,false,true,0.0-2.0-0.42-0.382-3.382,1,0,0,81,false,stim,true,0,794,2,0,1,38448,task3,1273961,false,true,1330,image-keyboard-response,3
true,19,0,1,0,true,q,false,true,0.0-2.0-0.42-0.383-3.383,1,0,0,81,false,stim,false,1,628,2,0,2,38448,task3,1276114,false,false,1333,image-keyboard-response,4
true,19,2,1,2,true,d,false,true,0.0-2.0-0.42-0.384-3.384,1,0,0,68,false,stim,false,2,985,2,1,0,38448,task3,1278621,false,false,1336,image-keyboard-response,5
true,19,2,1,2,true,d,false,true,0.0-2.0-0.42-0.385-3.385,1,0,0,68,false,stim,false,2,502,2,1,0,38448,task3,1280660,false,false,1339,image-keyboard-response,6
true,19,0,1,1,false,z,false,true,0.0-2.0-0.42-0.386-3.386,1,0,0,81,false,stim,true,0,895,2,0,1,38448,task3,1283092,false,true,1342,image-keyboard-response,7
true,19,0,1,1,false,z,false,false,0.0-2.0-0.43-0.387-3.387,1,0,0,81,false,stim,true,0,464,2,0,1,38448,task3,1285091,false,false,1345,image-keyboard-response,8
true,19,2,1,2,true,d,false,true,0.0-2.0-0.43-0.388-3.388,1,0,0,68,false,stim,false,2,1110,2,1,0,38448,task3,1287738,false,false,1348,image-keyboard-response,9
true,19,0,1,1,false,z,false,false,0.0-2.0-0.43-0.389-3.389,1,0,0,81,false,stim,true,0,2149,2,0,1,38448,task3,1291416,false,false,1351,image-keyboard-response,10
true,19,2,1,2,true,d,false,true,0.0-2.0-0.43-0.390-3.390,1,0,0,68,false,stim,false,2,2092,2,1,0,38448,task3,1295030,false,false,1354,image-keyboard-response,11
true,19,0,1,1,false,z,false,true,0.0-2.0-0.43-0.391-3.391,1,0,0,81,false,stim,true,0,1015,2,0,1,38448,task3,1297562,false,true,1357,image-keyboard-response,12
true,19,0,1,0,true,q,false,true,0.0-2.0-0.43-0.392-3.392,1,0,0,81,false,stim,false,1,384,2,0,2,38448,task3,1299470,false,false,1360,image-keyboard-response,13
true,19,2,1,2,true,d,false,true,0.0-2.0-0.43-0.393-3.393,1,0,0,68,false,stim,false,2,1179,2,1,0,38448,task3,1302187,false,false,1363,image-keyboard-response,14
true,19,0,1,0,true,q,false,true,0.0-2.0-0.43-0.394-3.394,1,0,0,81,false,stim,false,1,637,2,0,2,38448,task3,1304365,false,false,1366,image-keyboard-response,15
true,19,0,1,0,true,q,false,true,0.0-2.0-0.43-0.395-3.395,1,0,0,81,false,stim,false,1,405,2,0,2,38448,task3,1306314,false,false,1369,image-keyboard-response,16
true,19,2,1,2,true,d,false,true,0.0-2.0-0.44-0.396-3.396,1,0,0,68,false,stim,false,2,641,2,1,0,38448,task3,1308487,false,false,1372,image-keyboard-response,17
true,19,2,1,2,true,d,false,true,0.0-2.0-0.44-0.397-3.397,1,0,0,68,false,stim,false,2,1631,2,1,0,38448,task3,1311657,false,false,1375,image-keyboard-response,18
true,19,0,1,0,true,q,false,true,0.0-2.0-0.44-0.398-3.398,1,0,0,81,false,stim,false,1,398,2,0,2,38448,task3,1313586,false,false,1378,image-keyboard-response,19
true,19,0,1,1,false,z,false,false,0.0-2.0-0.44-0.399-3.399,1,0,0,81,false,stim,true,0,1529,2,0,1,38448,task3,1316646,false,false,1381,image-keyboard-response,20
true,19,0,1,1,false,z,false,false,0.0-2.0-0.44-0.400-3.400,1,0,0,81,false,stim,true,0,507,2,0,1,38448,task3,1318685,false,false,1384,image-keyboard-response,21
true,19,0,1,0,true,q,false,true,0.0-2.0-0.44-0.401-3.401,1,0,0,81,false,stim,false,1,1125,2,1,2,38448,task3,1321331,false,false,1387,image-keyboard-response,22
true,19,1,1,1,true,z,false,true,0.0-2.0-0.44-0.402-3.402,1,0,0,90,false,stim,false,0,837,2,0,1,38448,task3,1323704,false,false,1390,image-keyboard-response,23
true,19,0,1,0,true,q,false,true,0.0-2.0-0.44-0.403-3.403,1,0,0,81,false,stim,false,1,629,2,1,2,38448,task3,1325857,false,false,1393,image-keyboard-response,24
true,20,2,2,2,true,d,false,true,0.0-2.0-0.44-0.404-3.404,1,0,1,68,true,stim,false,2,790,2,1,0,38448,task3,1328174,false,false,1396,image-keyboard-response,1
true,20,0,2,0,true,q,false,true,0.0-2.0-0.45-0.405-3.405,1,0,1,81,false,stim,false,0,1304,2,1,2,38448,task3,1331011,false,false,1399,image-keyboard-response,2
true,20,2,2,2,true,d,false,true,0.0-2.0-0.45-0.406-3.406,1,0,1,68,false,stim,false,2,640,2,1,0,38448,task3,1333177,false,false,1402,image-keyboard-response,3
true,20,1,2,2,false,d,false,false,0.0-2.0-0.45-0.407-3.407,1,0,1,90,false,stim,true,1,929,2,0,1,38448,task3,1335635,false,false,1405,image-keyboard-response,4
true,20,1,2,2,false,d,false,true,0.0-2.0-0.45-0.408-3.408,1,0,1,90,false,stim,true,1,627,2,0,1,38448,task3,1337794,false,true,1408,image-keyboard-response,5
true,20,2,2,2,true,d,false,false,0.0-2.0-0.45-0.409-3.409,1,0,1,68,false,stim,false,2,1884,2,1,0,38448,task3,1341213,false,true,1411,image-keyboard-response,6
true,20,0,2,0,true,q,false,true,0.0-2.0-0.45-0.410-3.410,1,0,1,81,false,stim,false,0,1042,2,1,2,38448,task3,1343779,false,false,1414,image-keyboard-response,7
true,20,1,2,2,false,d,false,false,0.0-2.0-0.45-0.411-3.411,1,0,1,90,false,stim,true,1,767,2,0,1,38448,task3,1346082,false,false,1417,image-keyboard-response,8
true,20,2,2,2,true,d,false,true,0.0-2.0-0.45-0.412-3.412,1,0,1,68,false,stim,false,2,742,2,1,0,38448,task3,1348349,false,false,1420,image-keyboard-response,9
true,20,0,2,0,true,q,false,true,0.0-2.0-0.45-0.413-3.413,1,0,1,81,false,stim,false,0,650,2,1,2,38448,task3,1350538,false,false,1423,image-keyboard-response,10
true,20,2,2,2,true,d,false,true,0.0-2.0-0.46-0.414-3.414,1,0,1,68,false,stim,false,2,728,2,0,0,38448,task3,1352805,false,false,1426,image-keyboard-response,11
true,20,0,2,0,true,q,false,true,0.0-2.0-0.46-0.415-3.415,1,0,1,81,false,stim,false,0,1450,2,1,2,38448,task3,1355785,false,false,1429,image-keyboard-response,12
true,20,2,2,2,true,d,false,true,0.0-2.0-0.46-0.416-3.416,1,0,1,68,false,stim,false,1,1947,2,1,1,38448,task3,1359275,false,false,1432,image-keyboard-response,13
true,20,0,2,0,true,q,false,false,0.0-2.0-0.46-0.417-3.417,1,0,1,81,false,stim,false,0,397,2,1,2,38448,task3,1361203,false,true,1435,image-keyboard-response,14
true,21,0,2,0,true,q,false,false,0.0-2.0-0.46-0.418-3.418,0,1,1,81,true,stim,false,0,783,2,1,2,38448,task3,1363511,false,true,1438,image-keyboard-response,1
true,21,2,2,0,false,q,false,false,0.0-2.0-0.46-0.419-3.419,0,1,1,68,false,stim,true,2,502,2,0,0,38448,task3,1365549,false,false,1441,image-keyboard-response,2
true,21,1,2,0,false,q,true,false,0.0-2.0-0.46-0.420-3.420,0,1,1,90,false,stim,false,2,575,2,0,0,38448,task3,1367662,false,false,1444,image-keyboard-response,3
true,21,2,2,2,true,d,false,true,0.0-2.0-0.46-0.421-3.421,0,1,1,68,false,stim,false,2,625,2,1,1,38448,task3,1369811,false,false,1447,image-keyboard-response,4
true,21,2,2,2,true,d,false,true,0.0-2.0-0.46-0.422-3.422,0,1,1,68,false,stim,false,2,436,2,1,1,38448,task3,1371784,false,false,1450,image-keyboard-response,5
true,21,2,2,2,true,d,false,true,0.0-2.0-0.47-0.423-3.423,0,1,1,68,false,stim,false,2,476,2,1,1,38448,task3,1373793,false,false,1453,image-keyboard-response,6
true,21,1,2,0,false,q,true,false,0.0-2.0-0.47-0.424-3.424,0,1,1,90,false,stim,false,0,838,2,1,2,38448,task3,1376155,false,false,1456,image-keyboard-response,7
true,21,0,2,0,true,q,false,false,0.0-2.0-0.47-0.425-3.425,0,1,1,81,false,stim,false,2,791,2,0,0,38448,task3,1378488,false,true,1459,image-keyboard-response,8
true,21,2,2,0,false,q,true,false,0.0-2.0-0.47-0.426-3.426,0,1,1,68,false,stim,false,0,175,2,1,2,38448,task3,1380202,false,false,1462,image-keyboard-response,9
true,21,2,2,2,true,d,false,true,0.0-2.0-0.47-0.427-3.427,0,1,1,68,false,stim,false,2,580,2,1,1,38448,task3,1382306,false,false,1465,image-keyboard-response,10
true,21,2,2,0,false,q,false,false,0.0-2.0-0.47-0.428-3.428,0,1,1,68,false,stim,true,2,916,2,1,0,38448,task3,1384763,false,false,1468,image-keyboard-response,11
true,21,1,2,0,false,q,true,false,0.0-2.0-0.47-0.429-3.429,0,1,1,90,false,stim,false,0,554,2,1,2,38448,task3,1386842,false,false,1471,image-keyboard-response,12
true,21,2,2,2,true,d,false,true,0.0-2.0-0.47-0.430-3.430,0,1,1,68,false,stim,false,2,543,2,0,1,38448,task3,1388899,false,false,1474,image-keyboard-response,13
true,21,0,2,0,true,q,false,true,0.0-2.0-0.47-0.431-3.431,0,1,1,81,false,stim,false,2,581,2,1,0,38448,task3,1391008,false,false,1477,image-keyboard-response,14
true,21,0,2,0,true,q,false,true,0.0-2.0-0.48-0.432-3.432,0,1,1,81,false,stim,false,2,384,2,1,0,38448,task3,1392931,false,false,1480,image-keyboard-response,15
true,22,2,2,1,false,z,false,false,0.0-2.0-0.48-0.433-3.433,1,0,1,68,true,stim,true,2,572,2,0,1,38448,task3,1395050,false,false,1483,image-keyboard-response,1
true,22,2,2,1,false,z,false,false,0.0-2.0-0.48-0.434-3.434,1,0,1,68,false,stim,true,2,481,2,0,1,38448,task3,1397059,false,false,1486,image-keyboard-response,2
true,22,0,2,0,true,q,false,true,0.0-2.0-0.48-0.435-3.435,1,0,1,81,false,stim,false,0,804,2,1,0,38448,task3,1399401,false,false,1489,image-keyboard-response,3
true,22,2,2,0,false,q,true,false,0.0-2.0-0.48-0.436-3.436,1,0,1,68,false,stim,false,0,1075,2,1,2,38448,task3,1402012,false,false,1492,image-keyboard-response,4
true,22,1,2,1,true,z,false,true,0.0-2.0-0.48-0.437-3.437,1,0,1,90,false,stim,false,2,488,2,0,1,38448,task3,1404026,false,false,1495,image-keyboard-response,5
true,22,1,2,0,false,q,true,false,0.0-2.0-0.48-0.438-3.438,1,0,1,90,false,stim,false,0,397,2,1,2,38448,task3,1405955,false,false,1498,image-keyboard-response,6
true,22,0,2,0,true,q,false,true,0.0-2.0-0.48-0.439-3.439,1,0,1,81,false,stim,false,0,578,2,1,0,38448,task3,1408083,false,false,1501,image-keyboard-response,7
true,22,0,2,0,true,q,false,true,0.0-2.0-0.48-0.440-3.440,1,0,1,81,false,stim,false,0,429,2,1,2,38448,task3,1410047,false,false,1504,image-keyboard-response,8
true,22,0,2,0,true,q,false,true,0.0-2.0-0.49-0.441-3.441,1,0,1,81,false,stim,false,0,567,2,1,0,38448,task3,1412134,false,false,1507,image-keyboard-response,9
true,22,1,2,1,true,z,false,true,0.0-2.0-0.49-0.442-3.442,1,0,1,90,false,stim,false,2,675,2,0,1,38448,task3,1414343,false,false,1510,image-keyboard-response,10
true,22,0,2,0,true,q,false,true,0.0-2.0-0.49-0.443-3.443,1,0,1,81,false,stim,false,0,634,2,1,2,38448,task3,1416491,false,false,1513,image-keyboard-response,11
true,22,0,2,1,false,z,true,false,0.0-2.0-0.49-0.444-3.444,1,0,1,81,false,stim,false,2,2391,2,0,1,38448,task3,1420407,false,false,1516,image-keyboard-response,12
true,22,0,2,0,true,q,false,true,0.0-2.0-0.49-0.445-3.445,1,0,1,81,false,stim,false,0,1426,2,1,2,38448,task3,1423373,false,false,1519,image-keyboard-response,13
true,22,0,2,0,true,q,false,true,0.0-2.0-0.49-0.446-3.446,1,0,1,81,false,stim,false,0,425,2,1,2,38448,task3,1425332,false,false,1522,image-keyboard-response,14
true,22,0,2,0,true,q,false,true,0.0-2.0-0.49-0.447-3.447,1,0,1,81,false,stim,false,0,783,2,1,0,38448,task3,1427640,false,false,1525,image-keyboard-response,15
true,22,0,2,0,true,q,false,true,0.0-2.0-0.49-0.448-3.448,1,0,1,81,false,stim,false,0,431,2,1,0,38448,task3,1429608,false,false,1528,image-keyboard-response,16
true,22,1,2,1,true,z,false,true,0.0-2.0-0.49-0.449-3.449,1,0,1,90,false,stim,false,2,1796,2,0,1,38448,task3,1432932,false,false,1531,image-keyboard-response,17
true,22,0,2,0,true,q,false,true,0.0-2.0-0.50-0.450-3.450,1,0,1,81,false,stim,false,0,829,2,1,2,38448,task3,1435296,false,false,1534,image-keyboard-response,18
true,22,0,2,0,true,q,false,true,0.0-2.0-0.50-0.451-3.451,1,0,1,81,false,stim,false,0,760,2,1,2,38448,task3,1437588,false,false,1537,image-keyboard-response,19
true,22,0,2,0,true,q,false,true,0.0-2.0-0.50-0.452-3.452,1,0,1,81,false,stim,false,0,1721,2,1,0,38448,task3,1440837,false,false,1540,image-keyboard-response,20
true,22,0,2,0,true,q,false,true,0.0-2.0-0.50-0.453-3.453,1,0,1,81,false,stim,false,0,821,2,1,0,38448,task3,1443199,false,false,1543,image-keyboard-response,21
true,22,1,2,1,true,z,false,true,0.0-2.0-0.50-0.454-3.454,1,0,1,90,false,stim,false,2,695,2,0,1,38448,task3,1445433,false,false,1546,image-keyboard-response,22
true,22,1,2,1,true,z,false,true,0.0-2.0-0.50-0.455-3.455,1,0,1,90,false,stim,false,2,1201,2,0,1,38448,task3,1448159,false,false,1549,image-keyboard-response,23
true,22,0,2,0,true,q,false,true,0.0-2.0-0.50-0.456-3.456,1,0,1,81,false,stim,false,0,729,2,0,2,38448,task3,1450427,false,false,1552,image-keyboard-response,24
true,22,1,2,1,true,z,false,true,0.0-2.0-0.50-0.457-3.457,1,0,1,90,false,stim,false,2,739,2,0,1,38448,task3,1452705,false,false,1555,image-keyboard-response,25
true,22,0,2,0,true,q,false,true,0.0-2.0-0.50-0.458-3.458,1,0,1,81,false,stim,false,0,889,2,1,0,38448,task3,1455136,false,false,1558,image-keyboard-response,26
true,22,0,2,0,true,q,false,true,0.0-2.0-0.51-0.459-3.459,1,0,1,81,false,stim,false,0,442,2,1,0,38448,task3,1457110,false,false,1561,image-keyboard-response,27
true,23,0,1,2,false,d,false,true,0.0-2.0-0.51-0.460-3.460,1,0,0,81,true,stim,true,0,845,2,0,2,38448,task3,1459493,false,true,1564,image-keyboard-response,1
true,23,1,1,2,false,d,false,false,0.0-2.0-0.51-0.461-3.461,1,0,0,90,false,stim,true,1,642,2,0,1,38448,task3,1461657,false,false,1567,image-keyboard-response,2
true,23,1,1,2,false,d,false,false,0.0-2.0-0.51-0.462-3.462,1,0,0,90,false,stim,true,1,666,2,0,1,38448,task3,1463863,false,false,1570,image-keyboard-response,3
true,23,0,1,0,true,q,false,true,0.0-2.0-0.51-0.463-3.463,1,0,0,81,false,stim,false,0,2230,2,1,0,38448,task3,1467627,false,false,1573,image-keyboard-response,4
true,23,0,1,0,true,q,false,true,0.0-2.0-0.51-0.464-3.464,1,0,0,81,false,stim,false,0,453,2,1,0,38448,task3,1469611,false,false,1576,image-keyboard-response,5
true,23,0,1,2,false,d,true,false,0.0-2.0-0.51-0.465-3.465,1,0,0,81,false,stim,false,1,1213,2,0,1,38448,task3,1472350,false,false,1579,image-keyboard-response,6
true,23,0,1,2,false,d,false,false,0.0-2.0-0.51-0.466-3.466,1,0,0,81,false,stim,true,0,531,2,0,2,38448,task3,1474409,false,false,1582,image-keyboard-response,7
true,23,2,1,2,true,d,false,true,0.0-2.0-0.51-0.467-3.467,1,0,0,68,false,stim,false,0,795,2,0,2,38448,task3,1476731,false,false,1585,image-keyboard-response,8
true,23,2,1,2,true,d,false,true,0.0-2.0-0.52-0.468-3.468,1,0,0,68,false,stim,false,1,578,2,0,1,38448,task3,1478835,false,false,1588,image-keyboard-response,9
true,23,0,1,0,true,q,false,true,0.0-2.0-0.52-0.469-3.469,1,0,0,81,false,stim,false,0,535,2,1,0,38448,task3,1480903,false,false,1591,image-keyboard-response,10
true,23,0,1,0,true,q,false,true,0.0-2.0-0.52-0.470-3.470,1,0,0,81,false,stim,false,0,490,2,1,0,38448,task3,1482916,false,false,1594,image-keyboard-response,11
true,23,2,1,2,true,d,false,true,0.0-2.0-0.52-0.471-3.471,1,0,0,68,false,stim,false,0,616,2,0,2,38448,task3,1485064,false,false,1597,image-keyboard-response,12
true,23,2,1,2,true,d,false,true,0.0-2.0-0.52-0.472-3.472,1,0,0,68,false,stim,false,0,480,2,0,2,38448,task3,1487087,false,false,1600,image-keyboard-response,13
true,23,0,1,0,true,q,false,false,0.0-2.0-0.52-0.473-3.473,1,0,0,81,false,stim,false,0,1241,2,1,0,38448,task3,1489868,false,true,1603,image-keyboard-response,14
true,23,2,1,2,true,d,false,true,0.0-2.0-0.52-0.474-3.474,1,0,0,68,false,stim,false,1,530,2,0,1,38448,task3,1491937,false,false,1606,image-keyboard-response,15
true,23,2,1,2,true,d,false,true,0.0-2.0-0.52-0.475-3.475,1,0,0,68,false,stim,false,1,485,2,0,1,38448,task3,1493951,false,false,1609,image-keyboard-response,16
true,23,2,1,2,true,d,false,true,0.0-2.0-0.52-0.476-3.476,1,0,0,68,false,stim,false,0,1874,2,0,2,38448,task3,1497360,false,false,1612,image-keyboard-response,17
true,23,0,1,0,true,q,false,true,0.0-2.0-0.53-0.477-3.477,1,0,0,81,false,stim,false,0,975,2,1,0,38448,task3,1499873,false,false,1615,image-keyboard-response,18
true,23,2,1,2,true,d,false,false,0.0-2.0-0.53-0.478-3.478,1,0,0,68,false,stim,false,0,777,2,0,2,38448,task3,1502169,false,true,1618,image-keyboard-response,19
true,23,0,1,0,true,q,false,false,0.0-2.0-0.53-0.479-3.479,1,0,0,81,false,stim,false,0,1373,2,1,0,38448,task3,1505081,false,true,1621,image-keyboard-response,20
true,23,2,1,2,true,d,false,true,0.0-2.0-0.53-0.480-3.480,1,0,0,68,false,stim,false,0,950,2,0,2,38448,task3,1507568,false,false,1624,image-keyboard-response,21
true,23,0,1,0,true,q,false,true,0.0-2.0-0.53-0.481-3.481,1,0,0,81,false,stim,false,0,972,2,1,0,38448,task3,1510069,false,false,1627,image-keyboard-response,22
true,23,2,1,2,true,d,false,true,0.0-2.0-0.53-0.482-3.482,1,0,0,68,false,stim,false,0,559,2,0,2,38448,task3,1512157,false,false,1630,image-keyboard-response,23
true,23,2,1,2,true,d,false,true,0.0-2.0-0.53-0.483-3.483,1,0,0,68,false,stim,false,1,678,2,0,1,38448,task3,1514366,false,false,1633,image-keyboard-response,24
true,23,2,1,2,true,d,false,true,0.0-2.0-0.53-0.484-3.484,1,0,0,68,false,stim,false,1,401,2,0,1,38448,task3,1516309,false,false,1636,image-keyboard-response,25
true,23,2,1,2,true,d,false,true,0.0-2.0-0.53-0.485-3.485,1,0,0,68,false,stim,false,1,436,2,0,1,38448,task3,1518283,false,false,1639,image-keyboard-response,26
true,23,0,1,0,true,q,false,true,0.0-2.0-0.54-0.486-3.486,1,0,0,81,false,stim,false,0,998,2,1,0,38448,task3,1520815,false,false,1642,image-keyboard-response,27
true,24,2,1,1,false,z,false,false,0.0-2.0-0.54-0.487-3.487,1,0,0,68,true,stim,true,2,800,2,0,2,38448,task3,1523158,false,false,1645,image-keyboard-response,1
true,24,2,1,1,false,z,false,false,0.0-2.0-0.54-0.488-3.488,1,0,0,68,false,stim,true,2,459,2,0,2,38448,task3,1525156,false,false,1648,image-keyboard-response,2
true,24,1,1,1,true,z,false,true,0.0-2.0-0.54-0.489-3.489,1,0,0,90,false,stim,false,2,830,2,0,2,38448,task3,1527528,false,false,1651,image-keyboard-response,3
true,24,2,1,1,false,z,false,false,0.0-2.0-0.54-0.490-3.490,1,0,0,68,false,stim,true,2,579,2,0,1,38448,task3,1529646,false,false,1654,image-keyboard-response,4
true,24,0,1,0,true,q,false,false,0.0-2.0-0.54-0.491-3.491,1,0,0,81,false,stim,false,0,501,2,1,0,38448,task3,1531680,false,true,1657,image-keyboard-response,5
true,24,0,1,1,false,z,true,false,0.0-2.0-0.54-0.492-3.492,1,0,0,81,false,stim,false,2,746,2,0,1,38448,task3,1533963,false,false,1660,image-keyboard-response,6
true,24,1,1,1,true,z,false,true,0.0-2.0-0.54-0.493-3.493,1,0,0,90,false,stim,false,2,558,2,0,1,38448,task3,1536056,false,false,1663,image-keyboard-response,7
true,24,2,1,0,false,q,true,true,0.0-2.0-0.54-0.494-3.494,1,0,0,68,false,stim,false,0,641,2,1,0,38448,task3,1538229,false,true,1666,image-keyboard-response,8
true,24,2,1,0,false,q,true,false,0.0-2.0-0.55-0.495-3.495,1,0,0,68,false,stim,false,0,420,2,1,0,38448,task3,1540188,false,false,1669,image-keyboard-response,9
true,24,2,1,0,false,q,true,false,0.0-2.0-0.55-0.496-3.496,1,0,0,68,false,stim,false,0,394,2,1,0,38448,task3,1542111,false,false,1672,image-keyboard-response,10
true,24,1,1,1,true,z,false,true,0.0-2.0-0.55-0.497-3.497,1,0,0,90,false,stim,false,2,617,2,0,2,38448,task3,1544255,false,false,1675,image-keyboard-response,11
true,24,1,1,1,true,z,false,false,0.0-2.0-0.55-0.498-3.498,1,0,0,90,false,stim,false,2,456,2,0,2,38448,task3,1546253,false,true,1678,image-keyboard-response,12
true,24,1,1,1,true,z,false,true,0.0-2.0-0.55-0.499-3.499,1,0,0,90,false,stim,false,2,379,2,0,1,38448,task3,1548167,false,false,1681,image-keyboard-response,13
true,24,0,1,0,true,q,false,true,0.0-2.0-0.55-0.500-3.500,1,0,0,81,false,stim,false,0,857,2,1,0,38448,task3,1550564,false,false,1684,image-keyboard-response,14
true,24,1,1,1,true,z,false,true,0.0-2.0-0.55-0.501-3.501,1,0,0,90,false,stim,false,2,609,2,0,2,38448,task3,1552698,false,false,1687,image-keyboard-response,15
true,24,0,1,1,false,z,true,false,0.0-2.0-0.55-0.502-3.502,1,0,0,81,false,stim,false,2,836,2,0,1,38448,task3,1555075,false,false,1690,image-keyboard-response,16
true,24,1,1,1,true,z,false,true,0.0-2.0-0.55-0.503-3.503,1,0,0,90,false,stim,false,2,661,2,0,1,38448,task3,1557268,false,false,1693,image-keyboard-response,17
true,24,1,1,1,true,z,false,true,0.0-2.0-0.56-0.504-3.504,1,0,0,90,false,stim,false,2,519,2,0,2,38448,task3,1559327,false,false,1696,image-keyboard-response,18
true,24,1,1,1,true,z,false,true,0.0-2.0-0.56-0.505-3.505,1,0,0,90,false,stim,false,2,1803,2,0,1,38448,task3,1562670,false,false,1699,image-keyboard-response,19
true,24,0,1,0,true,q,false,true,0.0-2.0-0.56-0.506-3.506,1,0,0,81,false,stim,false,0,620,2,1,0,38448,task3,1564837,false,false,1702,image-keyboard-response,20
true,24,1,1,1,true,z,false,true,0.0-2.0-0.56-0.507-3.507,1,0,0,90,false,stim,false,2,997,2,0,2,38448,task3,1567375,false,false,1705,image-keyboard-response,21
true,24,0,1,0,true,q,false,true,0.0-2.0-0.56-0.508-3.508,1,0,0,81,false,stim,false,0,1064,2,1,0,38448,task3,1569972,false,false,1708,image-keyboard-response,22
true,24,1,1,1,true,z,false,true,0.0-2.0-0.56-0.509-3.509,1,0,0,90,false,stim,false,2,946,2,0,1,38448,task3,1572453,false,false,1711,image-keyboard-response,23
true,24,0,1,0,true,q,false,true,0.0-2.0-0.56-0.510-3.510,1,0,0,81,false,stim,false,0,1083,2,1,0,38448,task3,1575071,false,false,1714,image-keyboard-response,24
true,24,1,1,1,true,z,false,true,0.0-2.0-0.56-0.511-3.511,1,0,0,90,false,stim,false,2,1674,2,1,1,38448,task3,1578271,false,false,1717,image-keyboard-response,25
true,24,1,1,1,true,z,false,true,0.0-2.0-0.56-0.512-3.512,1,0,0,90,false,stim,false,2,1508,2,0,2,38448,task3,1581307,false,false,1720,image-keyboard-response,26
true,24,1,1,1,true,z,false,true,0.0-2.0-0.57-0.513-3.513,1,0,0,90,false,stim,false,2,598,2,1,1,38448,task3,1583444,false,false,1723,image-keyboard-response,27
true,24,0,1,0,true,q,false,false,0.0-2.0-0.57-0.514-3.514,1,0,0,81,false,stim,false,0,760,2,0,0,38448,task3,1585727,false,true,1726,image-keyboard-response,28
true,24,0,1,0,true,q,false,true,0.0-2.0-0.57-0.515-3.515,1,0,0,81,false,stim,false,0,397,2,0,0,38448,task3,1587656,false,false,1729,image-keyboard-response,29
true,25,1,1,1,true,z,false,true,0.0-2.0-0.57-0.516-3.516,0,1,0,90,true,stim,false,1,582,2,1,1,38448,task3,1589778,false,false,1732,image-keyboard-response,1
true,25,1,1,1,true,z,false,true,0.0-2.0-0.57-0.517-3.517,0,1,0,90,false,stim,false,1,395,2,1,1,38448,task3,1591712,false,false,1735,image-keyboard-response,2
true,25,1,1,0,false,q,false,false,0.0-2.0-0.57-0.518-3.518,0,1,0,90,false,stim,true,1,723,2,0,2,38448,task3,1593960,false,false,1738,image-keyboard-response,3
true,25,1,1,0,false,q,false,false,0.0-2.0-0.57-0.519-3.519,0,1,0,90,false,stim,true,1,468,2,0,2,38448,task3,1595964,false,false,1741,image-keyboard-response,4
true,25,0,1,1,false,z,false,true,0.0-2.0-0.57-0.520-3.520,0,1,0,81,false,stim,true,0,1208,2,0,0,38448,task3,1598705,false,true,1744,image-keyboard-response,5
true,25,2,1,0,false,q,true,false,0.0-2.0-0.57-0.521-3.521,0,1,0,68,false,stim,false,1,740,2,0,2,38448,task3,1600978,false,false,1747,image-keyboard-response,6
true,25,0,1,1,false,z,false,false,0.0-2.0-0.58-0.522-3.522,0,1,0,81,false,stim,true,0,645,2,0,0,38448,task3,1603162,false,false,1750,image-keyboard-response,7
true,25,0,1,0,true,q,false,true,0.0-2.0-0.58-0.523-3.523,0,1,0,81,false,stim,false,1,621,2,0,2,38448,task3,1605319,false,false,1753,image-keyboard-response,8
true,25,0,1,1,false,z,false,false,0.0-2.0-0.58-0.524-3.524,0,1,0,81,false,stim,true,0,974,2,0,0,38448,task3,1607831,false,false,1756,image-keyboard-response,9
true,25,1,1,1,true,z,false,true,0.0-2.0-0.58-0.525-3.525,0,1,0,90,false,stim,false,0,611,2,0,0,38448,task3,1609969,false,false,1759,image-keyboard-response,10
true,25,0,1,0,true,q,false,true,0.0-2.0-0.58-0.526-3.526,0,1,0,81,false,stim,false,1,678,2,0,2,38448,task3,1612175,false,false,1762,image-keyboard-response,11
true,25,1,1,1,true,z,false,false,0.0-2.0-0.58-0.527-3.527,0,1,0,90,false,stim,false,1,946,2,1,1,38448,task3,1614665,false,true,1765,image-keyboard-response,12
true,25,0,1,1,false,z,true,false,0.0-2.0-0.58-0.528-3.528,0,1,0,81,false,stim,false,1,587,2,1,1,38448,task3,1616783,false,false,1768,image-keyboard-response,13
true,25,2,1,1,false,z,true,false,0.0-2.0-0.58-0.529-3.529,0,1,0,68,false,stim,false,1,562,2,1,1,38448,task3,1618881,false,false,1771,image-keyboard-response,14
true,25,0,1,0,true,q,false,true,0.0-2.0-0.58-0.530-3.530,0,1,0,81,false,stim,false,1,587,2,1,2,38448,task3,1621004,false,false,1774,image-keyboard-response,15
true,25,0,1,0,true,q,false,true,0.0-2.0-0.59-0.531-3.531,0,1,0,81,false,stim,false,1,550,2,1,2,38448,task3,1623088,false,false,1777,image-keyboard-response,16
true,26,1,0,0,false,q,true,false,0.0-2.0-0.59-0.532-3.532,1,1,1,90,true,stim,false,0,1393,2,1,2,38448,task3,1748219,false,false,1900,image-keyboard-response,1
true,26,0,0,0,true,q,false,true,0.0-2.0-0.59-0.533-3.533,1,1,1,81,false,stim,false,0,618,2,1,2,38448,task3,1750386,false,false,1903,image-keyboard-response,2
false,26,-1,0,1,false,z,true,true,0.0-2.0-0.59-0.534-3.534,1,1,1,,false,stim,false,1,,2,1,1,38448,task3,1754946,false,true,1906,image-keyboard-response,3
true,26,2,0,1,false,z,true,false,0.0-2.0-0.59-0.535-3.535,1,1,1,68,false,stim,false,1,1036,2,1,0,38448,task3,1757523,false,false,1909,image-keyboard-response,4
true,26,0,0,1,false,z,true,false,0.0-2.0-0.59-0.536-3.536,1,1,1,81,false,stim,false,1,1890,2,1,1,38448,task3,1760947,false,false,1912,image-keyboard-response,5
true,26,1,0,1,true,z,false,true,0.0-2.0-0.59-0.537-3.537,1,1,1,90,false,stim,false,1,672,2,1,1,38448,task3,1763149,false,false,1915,image-keyboard-response,6
true,26,2,0,1,false,z,true,false,0.0-2.0-0.59-0.538-3.538,1,1,1,68,false,stim,false,1,816,2,1,0,38448,task3,1765503,false,false,1918,image-keyboard-response,7
true,26,1,0,1,true,z,false,true,0.0-2.0-0.59-0.539-3.539,1,1,1,90,false,stim,false,1,748,2,1,0,38448,task3,1767775,false,false,1921,image-keyboard-response,8
true,26,1,0,1,true,z,false,true,0.0-2.0-0.60-0.540-3.540,1,1,1,90,false,stim,false,1,1271,2,1,1,38448,task3,1770568,false,false,1924,image-keyboard-response,9
true,26,1,0,1,true,z,false,true,0.0-2.0-0.60-0.541-3.541,1,1,1,90,false,stim,false,1,583,2,1,1,38448,task3,1772679,false,false,1927,image-keyboard-response,10
true,26,1,0,1,true,z,false,true,0.0-2.0-0.60-0.542-3.542,1,1,1,90,false,stim,false,1,1415,2,1,0,38448,task3,1775631,false,false,1930,image-keyboard-response,11
true,26,1,0,1,true,z,false,true,0.0-2.0-0.60-0.543-3.543,1,1,1,90,false,stim,false,1,1827,2,1,1,38448,task3,1778985,false,false,1933,image-keyboard-response,12
true,26,0,0,0,true,q,false,true,0.0-2.0-0.60-0.544-3.544,1,1,1,81,false,stim,false,0,1935,2,0,2,38448,task3,1782463,false,false,1936,image-keyboard-response,13
true,27,1,2,1,true,z,false,true,0.0-2.0-0.60-0.545-3.545,1,1,0,90,true,stim,false,1,1946,2,1,0,38448,task3,1785932,false,false,1939,image-keyboard-response,1
true,27,1,2,1,true,z,false,true,0.0-2.0-0.60-0.546-3.546,1,1,0,90,false,stim,false,1,1425,2,1,0,38448,task3,1788892,false,false,1942,image-keyboard-response,2
true,27,0,2,2,false,d,false,false,0.0-2.0-0.60-0.547-3.547,1,1,0,81,false,stim,true,0,1132,2,0,2,38448,task3,1791560,false,false,1945,image-keyboard-response,3
true,27,0,2,2,false,d,false,false,0.0-2.0-0.60-0.548-3.548,1,1,0,81,false,stim,true,0,386,2,0,2,38448,task3,1793473,false,false,1948,image-keyboard-response,4
true,27,2,2,2,true,d,false,true,0.0-2.0-0.61-0.549-3.549,1,1,0,68,false,stim,false,0,1017,2,0,2,38448,task3,1796015,false,false,1951,image-keyboard-response,5
true,27,1,2,1,true,z,false,true,0.0-2.0-0.61-0.550-3.550,1,1,0,90,false,stim,false,1,784,2,1,1,38448,task3,1798332,false,false,1954,image-keyboard-response,6
true,27,1,2,1,true,z,false,true,0.0-2.0-0.61-0.551-3.551,1,1,0,90,false,stim,false,1,1116,2,1,0,38448,task3,1800983,false,false,1957,image-keyboard-response,7
true,27,2,2,2,true,d,false,true,0.0-2.0-0.61-0.552-3.552,1,1,0,68,false,stim,false,0,570,2,1,2,38448,task3,1803077,false,false,1960,image-keyboard-response,8
true,27,2,2,2,true,d,false,true,0.0-2.0-0.61-0.553-3.553,1,1,0,68,false,stim,false,0,381,2,1,2,38448,task3,1804979,false,false,1963,image-keyboard-response,9
true,27,1,2,1,true,z,false,false,0.0-2.0-0.61-0.554-3.554,1,1,0,90,false,stim,false,1,706,2,0,1,38448,task3,1807207,false,true,1966,image-keyboard-response,10
true,27,1,2,1,true,z,false,true,0.0-2.0-0.61-0.555-3.555,1,1,0,90,false,stim,false,1,976,2,0,0,38448,task3,1809715,false,false,1969,image-keyboard-response,11
true,27,1,2,1,true,z,false,true,0.0-2.0-0.61-0.556-3.556,1,1,0,90,false,stim,false,1,899,2,0,1,38448,task3,1812136,false,false,1972,image-keyboard-response,12
true,28,1,1,2,false,d,false,false,0.0-2.0-0.61-0.557-3.557,0,0,1,90,true,stim,true,1,862,2,0,0,38448,task3,1814528,false,false,1975,image-keyboard-response,1
true,28,2,1,2,true,d,false,true,0.0-2.0-0.62-0.558-3.558,0,0,1,68,false,stim,false,1,724,2,0,0,38448,task3,1816792,false,false,1978,image-keyboard-response,2
true,28,2,1,2,true,d,false,true,0.0-2.0-0.62-0.559-3.559,0,0,1,68,false,stim,false,1,618,2,0,0,38448,task3,1818946,false,false,1981,image-keyboard-response,3
true,28,2,1,0,false,q,true,false,0.0-2.0-0.62-0.560-3.560,0,0,1,68,false,stim,false,1,1772,2,0,1,38448,task3,1822259,false,false,1984,image-keyboard-response,4
true,28,1,1,0,false,q,false,false,0.0-2.0-0.62-0.561-3.561,0,0,1,90,false,stim,true,1,590,2,0,1,38448,task3,1824388,false,false,1987,image-keyboard-response,5
true,28,0,1,0,true,q,false,true,0.0-2.0-0.62-0.562-3.562,0,0,1,81,false,stim,false,1,774,2,0,1,38448,task3,1826691,false,false,1990,image-keyboard-response,6
true,28,2,1,2,true,d,false,true,0.0-2.0-0.62-0.563-3.563,0,0,1,68,false,stim,false,1,1282,2,0,0,38448,task3,1829507,false,false,1993,image-keyboard-response,7
true,28,2,1,2,true,d,false,true,0.0-2.0-0.62-0.564-3.564,0,0,1,68,false,stim,false,2,482,2,1,2,38448,task3,1831529,false,false,1996,image-keyboard-response,8
true,28,2,1,2,true,d,false,true,0.0-2.0-0.62-0.565-3.565,0,0,1,68,false,stim,false,2,661,2,1,2,38448,task3,1833718,false,false,1999,image-keyboard-response,9
true,28,2,1,2,true,d,false,true,0.0-2.0-0.62-0.566-3.566,0,0,1,68,false,stim,false,2,643,2,1,2,38448,task3,1835901,false,false,2002,image-keyboard-response,10
true,28,0,1,0,true,q,false,true,0.0-2.0-0.63-0.567-3.567,0,0,1,81,false,stim,false,1,1804,2,0,1,38448,task3,1839241,false,false,2005,image-keyboard-response,11
true,28,0,1,0,true,q,false,true,0.0-2.0-0.63-0.568-3.568,0,0,1,81,false,stim,false,1,417,2,0,1,38448,task3,1841185,false,false,2008,image-keyboard-response,12
true,28,2,1,2,true,d,false,true,0.0-2.0-0.63-0.569-3.569,0,0,1,68,false,stim,false,1,795,2,0,0,38448,task3,1843522,false,false,2011,image-keyboard-response,13
true,28,2,1,2,true,d,false,false,0.0-2.0-0.63-0.570-3.570,0,0,1,68,false,stim,false,2,1166,2,1,2,38448,task3,1846223,false,true,2014,image-keyboard-response,14
true,28,2,1,2,true,d,false,true,0.0-2.0-0.63-0.571-3.571,0,0,1,68,false,stim,false,1,2358,2,0,0,38448,task3,1850105,false,false,2017,image-keyboard-response,15
true,28,0,1,0,true,q,false,true,0.0-2.0-0.63-0.572-3.572,0,0,1,81,false,stim,false,1,721,2,0,1,38448,task3,1852368,false,false,2020,image-keyboard-response,16
true,28,2,1,2,true,d,false,true,0.0-2.0-0.63-0.573-3.573,0,0,1,68,false,stim,false,2,779,2,1,2,38448,task3,1854686,false,false,2023,image-keyboard-response,17
true,28,2,1,2,true,d,false,true,0.0-2.0-0.63-0.574-3.574,0,0,1,68,false,stim,false,1,1978,2,0,0,38448,task3,1858205,false,false,2026,image-keyboard-response,18
true,28,0,1,2,false,d,true,true,0.0-2.0-0.63-0.575-3.575,0,0,1,81,false,stim,false,2,1791,2,1,2,38448,task3,1861539,false,true,2029,image-keyboard-response,19
true,28,0,1,2,false,d,true,false,0.0-2.0-0.64-0.576-3.576,0,0,1,81,false,stim,false,2,819,2,1,2,38448,task3,1863887,false,false,2032,image-keyboard-response,20
true,28,2,1,0,false,q,true,true,0.0-2.0-0.64-0.577-3.577,0,0,1,68,false,stim,false,1,2102,2,0,1,38448,task3,1867519,false,true,2035,image-keyboard-response,21
true,28,0,1,2,false,d,true,false,0.0-2.0-0.64-0.578-3.578,0,0,1,81,false,stim,false,2,750,2,1,2,38448,task3,1869808,false,false,2038,image-keyboard-response,22
true,28,2,1,2,true,d,false,true,0.0-2.0-0.64-0.579-3.579,0,0,1,68,false,stim,false,1,552,2,1,0,38448,task3,1871890,false,false,2041,image-keyboard-response,23
true,28,2,1,0,false,q,true,false,0.0-2.0-0.64-0.580-3.580,0,0,1,68,false,stim,false,1,765,2,0,1,38448,task3,1874183,false,false,2044,image-keyboard-response,24
true,28,1,1,2,false,d,true,false,0.0-2.0-0.64-0.581-3.581,0,0,1,90,false,stim,false,2,1592,2,1,2,38448,task3,1877299,false,false,2047,image-keyboard-response,25
true,28,2,1,2,true,d,false,true,0.0-2.0-0.64-0.582-3.582,0,0,1,68,false,stim,false,1,520,2,1,0,38448,task3,1879347,false,false,2050,image-keyboard-response,26
true,29,2,2,2,true,d,false,true,0.0-2.0-0.64-0.583-3.583,1,0,1,68,true,stim,false,2,339,2,1,0,38448,task3,1881217,false,false,2053,image-keyboard-response,1
true,29,2,2,1,false,z,true,false,0.0-2.0-0.64-0.584-3.584,1,0,1,68,false,stim,false,0,543,2,0,1,38448,task3,1883301,false,false,2056,image-keyboard-response,2
true,29,1,2,1,true,z,false,true,0.0-2.0-0.65-0.585-3.585,1,0,1,90,false,stim,false,0,834,2,0,1,38448,task3,1885672,false,false,2059,image-keyboard-response,3
true,29,1,2,1,true,z,false,true,0.0-2.0-0.65-0.586-3.586,1,0,1,90,false,stim,false,0,494,2,0,1,38448,task3,1887690,false,false,2062,image-keyboard-response,4
true,29,2,2,2,true,d,false,true,0.0-2.0-0.65-0.587-3.587,1,0,1,68,false,stim,false,2,816,2,1,2,38448,task3,1890043,false,false,2065,image-keyboard-response,5
true,29,2,2,2,true,d,false,true,0.0-2.0-0.65-0.588-3.588,1,0,1,68,false,stim,false,2,475,2,1,0,38448,task3,1892042,false,false,2068,image-keyboard-response,6
true,29,2,2,2,true,d,false,true,0.0-2.0-0.65-0.589-3.589,1,0,1,68,false,stim,false,2,708,2,1,2,38448,task3,1894266,false,false,2071,image-keyboard-response,7
true,29,2,2,2,true,d,false,true,0.0-2.0-0.65-0.590-3.590,1,0,1,68,false,stim,false,2,386,2,1,2,38448,task3,1896185,false,false,2074,image-keyboard-response,8
true,29,2,2,2,true,d,false,true,0.0-2.0-0.65-0.591-3.591,1,0,1,68,false,stim,false,2,2151,2,1,0,38448,task3,1899867,false,false,2077,image-keyboard-response,9
true,29,1,2,1,true,z,false,true,0.0-2.0-0.65-0.592-3.592,1,0,1,90,false,stim,false,0,1680,2,0,1,38448,task3,1903087,false,false,2080,image-keyboard-response,10
true,29,2,2,2,true,d,false,true,0.0-2.0-0.65-0.593-3.593,1,0,1,68,false,stim,false,2,547,2,1,0,38448,task3,1905176,false,false,2083,image-keyboard-response,11
true,29,2,2,2,true,d,false,true,0.0-2.0-0.66-0.594-3.594,1,0,1,68,false,stim,false,2,526,2,1,0,38448,task3,1907243,false,false,2086,image-keyboard-response,12
true,29,1,2,1,true,z,false,false,0.0-2.0-0.66-0.595-3.595,1,0,1,90,false,stim,false,0,1556,2,0,1,38448,task3,1910333,false,true,2089,image-keyboard-response,13
true,29,2,2,1,false,z,true,false,0.0-2.0-0.66-0.596-3.596,1,0,1,68,false,stim,false,0,399,2,0,1,38448,task3,1912257,false,false,2092,image-keyboard-response,14
true,29,2,2,2,true,d,false,true,0.0-2.0-0.66-0.597-3.597,1,0,1,68,false,stim,false,2,832,2,1,2,38448,task3,1914629,false,false,2095,image-keyboard-response,15
true,29,2,2,2,true,d,false,true,0.0-2.0-0.66-0.598-3.598,1,0,1,68,false,stim,false,2,730,2,1,2,38448,task3,1916888,false,false,2098,image-keyboard-response,16
true,29,2,2,2,true,d,false,true,0.0-2.0-0.66-0.599-3.599,1,0,1,68,false,stim,false,2,1007,2,1,0,38448,task3,1919434,false,false,2101,image-keyboard-response,17
true,29,0,2,1,false,z,false,false,0.0-2.0-0.66-0.600-3.600,1,0,1,81,false,stim,true,0,1099,2,0,1,38448,task3,1922066,false,false,2104,image-keyboard-response,18
true,29,2,2,2,true,d,false,true,0.0-2.0-0.66-0.601-3.601,1,0,1,68,false,stim,false,2,690,2,1,0,38448,task3,1924299,false,false,2107,image-keyboard-response,19
true,29,2,2,2,true,d,false,true,0.0-2.0-0.66-0.602-3.602,1,0,1,68,false,stim,false,2,928,2,1,2,38448,task3,1926756,false,false,2110,image-keyboard-response,20
true,29,2,2,2,true,d,false,true,0.0-2.0-0.67-0.603-3.603,1,0,1,68,false,stim,false,2,831,2,0,0,38448,task3,1929119,false,false,2113,image-keyboard-response,21
true,29,2,2,2,true,d,false,true,0.0-2.0-0.67-0.604-3.604,1,0,1,68,false,stim,false,2,2014,2,1,2,38448,task3,1932662,false,false,2116,image-keyboard-response,22
true,29,2,2,2,true,d,false,true,0.0-2.0-0.67-0.605-3.605,1,0,1,68,false,stim,false,2,1574,2,0,0,38448,task3,1935761,false,false,2119,image-keyboard-response,23
true,29,2,2,2,true,d,false,true,0.0-2.0-0.67-0.606-3.606,1,0,1,68,false,stim,false,2,1933,2,1,2,38448,task3,1939221,false,false,2122,image-keyboard-response,24
true,29,2,2,1,false,z,true,false,0.0-2.0-0.67-0.607-3.607,1,0,1,68,false,stim,false,0,1085,2,0,1,38448,task3,1941833,false,false,2125,image-keyboard-response,25
true,30,2,1,0,false,q,false,false,0.0-2.0-0.67-0.608-3.608,0,0,1,68,true,stim,true,2,509,2,0,0,38448,task3,1943876,false,false,2128,image-keyboard-response,1
true,30,1,1,0,false,q,false,false,0.0-2.0-0.67-0.609-3.609,0,0,1,90,false,stim,true,1,517,2,0,1,38448,task3,1945924,false,false,2131,image-keyboard-response,2
true,30,0,1,0,true,q,false,true,0.0-2.0-0.67-0.610-3.610,0,0,1,81,false,stim,false,1,551,2,0,1,38448,task3,1947999,false,false,2134,image-keyboard-response,3
true,30,2,1,2,true,d,false,true,0.0-2.0-0.67-0.611-3.611,0,0,1,68,false,stim,false,2,389,2,1,2,38448,task3,1949916,false,false,2137,image-keyboard-response,4
true,30,2,1,2,true,d,false,true,0.0-2.0-0.68-0.612-3.612,0,0,1,68,false,stim,false,2,384,2,1,2,38448,task3,1951831,false,false,2140,image-keyboard-response,5
true,30,2,1,0,false,q,false,false,0.0-2.0-0.68-0.613-3.613,0,0,1,68,false,stim,true,2,1304,2,0,0,38448,task3,1954671,false,false,2143,image-keyboard-response,6
true,30,0,1,0,true,q,false,true,0.0-2.0-0.68-0.614-3.614,0,0,1,81,false,stim,false,1,631,2,0,1,38448,task3,1956839,false,false,2146,image-keyboard-response,7
true,30,0,1,0,true,q,false,true,0.0-2.0-0.68-0.615-3.615,0,0,1,81,false,stim,false,1,425,2,0,1,38448,task3,1958794,false,false,2149,image-keyboard-response,8
true,30,1,1,0,false,q,true,false,0.0-2.0-0.68-0.616-3.616,0,0,1,90,false,stim,false,2,604,2,0,0,38448,task3,1960931,false,false,2152,image-keyboard-response,9
true,30,0,1,0,true,q,false,true,0.0-2.0-0.68-0.617-3.617,0,0,1,81,false,stim,false,2,458,2,0,0,38448,task3,1962925,false,false,2155,image-keyboard-response,10
true,30,2,1,2,true,d,false,true,0.0-2.0-0.68-0.618-3.618,0,0,1,68,false,stim,false,2,417,2,1,2,38448,task3,1964884,false,false,2158,image-keyboard-response,11
true,30,0,1,0,true,q,false,true,0.0-2.0-0.68-0.619-3.619,0,0,1,81,false,stim,false,1,541,2,0,1,38448,task3,1966948,false,false,2161,image-keyboard-response,12
true,30,0,1,2,false,d,true,false,0.0-2.0-0.68-0.620-3.620,0,0,1,81,false,stim,false,2,890,2,1,2,38448,task3,1969377,false,false,2164,image-keyboard-response,13
true,30,2,1,2,true,d,false,false,0.0-2.0-0.69-0.621-3.621,0,0,1,68,false,stim,false,2,435,2,1,2,38448,task3,1971353,false,true,2167,image-keyboard-response,14
true,30,2,1,0,false,q,false,false,0.0-2.0-0.69-0.622-3.622,0,0,1,68,false,stim,true,2,1261,2,0,0,38448,task3,1974139,false,false,2170,image-keyboard-response,15
true,30,0,1,0,true,q,false,true,0.0-2.0-0.69-0.623-3.623,0,0,1,81,false,stim,false,2,361,2,0,0,38448,task3,1976037,false,false,2173,image-keyboard-response,16
true,30,0,1,0,true,q,false,true,0.0-2.0-0.69-0.624-3.624,0,0,1,81,false,stim,false,1,405,2,0,1,38448,task3,1977973,false,false,2176,image-keyboard-response,17
true,30,1,1,2,false,d,true,false,0.0-2.0-0.69-0.625-3.625,0,0,1,90,false,stim,false,2,412,2,1,2,38448,task3,1979922,false,false,2179,image-keyboard-response,18
true,30,0,1,0,true,q,false,true,0.0-2.0-0.69-0.626-3.626,0,0,1,81,false,stim,false,2,615,2,0,0,38448,task3,1982063,false,false,2182,image-keyboard-response,19
true,30,0,1,0,true,q,false,true,0.0-2.0-0.69-0.627-3.627,0,0,1,81,false,stim,false,1,385,2,0,1,38448,task3,1983974,false,false,2185,image-keyboard-response,20
true,30,0,1,0,true,q,false,true,0.0-2.0-0.69-0.628-3.628,0,0,1,81,false,stim,false,1,399,2,0,1,38448,task3,1985906,false,false,2188,image-keyboard-response,21
true,30,0,1,2,false,d,true,false,0.0-2.0-0.69-0.629-3.629,0,0,1,81,false,stim,false,2,348,2,0,2,38448,task3,1987795,false,false,2191,image-keyboard-response,22
true,30,0,1,0,true,q,false,true,0.0-2.0-0.70-0.630-3.630,0,0,1,81,false,stim,false,1,447,2,0,1,38448,task3,1989774,false,false,2194,image-keyboard-response,23
true,30,2,1,2,true,d,false,true,0.0-2.0-0.70-0.631-3.631,0,0,1,68,false,stim,false,2,474,2,0,2,38448,task3,1991782,false,false,2197,image-keyboard-response,24
true,30,2,1,2,true,d,false,false,0.0-2.0-0.70-0.632-3.632,0,0,1,68,false,stim,false,2,438,2,0,2,38448,task3,1993746,false,true,2200,image-keyboard-response,25
