answered,blockNum,choice,condition,corResp,correct,correct_response,explo,fb,internal_node_id,isStable_1,isStable_2,isStable_3,key_press,newBlock,part,persev,persevResp,rt,sessNum,stableAS,stimulus,subject,task,time_elapsed,training,trap,trial_index,trial_type,trialsInBlock
true,1,0,0,0,true,q,false,true,0.0-2.0-0.0-0.0-3.0,0,0,0,81,true,stim,false,-1,995,1,0,0,38448,task2,816645,false,false,362,image-keyboard-response,1
true,1,1,0,2,false,d,true,false,0.0-2.0-0.0-0.1-3.1,0,0,0,90,false,stim,false,-1,988,1,0,2,38448,task2,819157,false,false,365,image-keyboard-response,2
true,1,0,0,0,true,q,false,true,0.0-2.0-0.0-0.2-3.2,0,0,0,81,false,stim,false,-1,377,1,0,0,38448,task2,821066,false,false,368,image-keyboard-response,3
true,1,2,0,0,false,q,true,false,0.0-2.0-0.0-0.3-3.3,0,0,0,68,false,stim,false,-1,576,1,0,1,38448,task2,823164,false,false,371,image-keyboard-response,4
true,1,2,0,2,true,d,false,true,0.0-2.0-0.0-0.4-3.4,0,0,0,68,false,stim,false,-1,419,1,0,2,38448,task2,825109,false,false,374,image-keyboard-response,5
true,1,2,0,2,true,d,false,true,0.0-2.0-0.0-0.5-3.5,0,0,0,68,false,stim,false,-1,369,1,0,2,38448,task2,827017,false,false,377,image-keyboard-response,6
true,1,0,0,0,true,q,false,true,0.0-2.0-0.0-0.6-3.6,0,0,0,81,false,stim,false,-1,573,1,0,0,38448,task2,829119,false,false,380,image-keyboard-response,7
true,1,0,0,0,true,q,false,true,0.0-2.0-0.0-0.7-3.7,0,0,0,81,false,stim,false,-1,829,1,0,1,38448,task2,831478,false,false,383,image-keyboard-response,8
true,1,0,0,0,true,q,false,true,0.0-2.0-0.0-0.8-3.8,0,0,0,81,false,stim,false,-1,527,1,0,1,38448,task2,833537,false,false,386,image-keyboard-response,9
true,1,0,0,0,true,q,false,true,0.0-2.0-0.1-0.9-3.9,0,0,0,81,false,stim,false,-1,521,1,0,0,38448,task2,835589,false,false,389,image-keyboard-response,10
true,1,0,0,0,true,q,false,true,0.0-2.0-0.1-0.10-3.10,0,0,0,81,false,stim,false,-1,549,1,0,1,38448,task2,837677,false,false,392,image-keyboard-response,11
true,1,2,0,2,true,d,false,true,0.0-2.0-0.1-0.11-3.11,0,0,0,68,false,stim,false,-1,602,1,0,2,38448,task2,839810,false,false,395,image-keyboard-response,12
true,1,2,0,2,true,d,false,true,0.0-2.0-0.1-0.12-3.12,0,0,0,68,false,stim,false,-1,481,1,0,2,38448,task2,841828,false,false,398,image-keyboard-response,13
true,1,2,0,2,true,d,false,true,0.0-2.0-0.1-0.13-3.13,0,0,0,68,false,stim,false,-1,365,1,0,2,38448,task2,843737,false,false,401,image-keyboard-response,14
true,1,0,0,0,true,q,false,true,0.0-2.0-0.1-0.14-3.14,0,0,0,81,false,stim,false,-1,1041,1,0,0,38448,task2,846310,false,false,404,image-keyboard-response,15
true,1,0,0,0,true,q,false,true,0.0-2.0-0.1-0.15-3.15,0,0,0,81,false,stim,false,-1,400,1,0,0,38448,task2,848248,false,false,407,image-keyboard-response,16
true,1,0,0,0,true,q,false,true,0.0-2.0-0.1-0.16-3.16,0,0,0,81,false,stim,false,-1,527,1,0,1,38448,task2,850316,false,false,410,image-keyboard-response,17
true,1,0,0,0,true,q,false,true,0.0-2.0-0.1-0.17-3.17,0,0,0,81,false,stim,false,-1,397,1,0,1,38448,task2,852246,false,false,413,image-keyboard-response,18
true,1,0,0,0,true,q,false,true,0.0-2.0-0.2-0.18-3.18,0,0,0,81,false,stim,false,-1,549,1,0,0,38448,task2,854318,false,false,416,image-keyboard-response,19
true,1,2,0,2,true,d,false,true,0.0-2.0-0.2-0.19-3.19,0,0,0,68,false,stim,false,-1,558,1,0,2,38448,task2,856406,false,false,419,image-keyboard-response,20
true,1,2,0,2,true,d,false,true,0.0-2.0-0.2-0.20-3.20,0,0,0,68,false,stim,false,-1,411,1,0,2,38448,task2,858339,false,false,422,image-keyboard-response,21
true,1,0,0,0,true,q,false,false,0.0-2.0-0.2-0.21-3.21,0,0,0,81,false,stim,false,-1,429,1,1,1,38448,task2,860298,false,true,425,image-keyboard-response,22
true,1,2,0,2,true,d,false,false,0.0-2.0-0.2-0.22-3.22,0,0,0,68,false,stim,false,-1,498,1,0,2,38448,task2,862327,false,true,428,image-keyboard-response,23
true,1,2,0,0,false,q,true,false,0.0-2.0-0.2-0.23-3.23,0,0,0,68,false,stim,false,-1,715,1,1,1,38448,task2,864574,false,false,431,image-keyboard-response,24
true,1,1,0,0,false,q,true,false,0.0-2.0-0.2-0.24-3.24,0,0,0,90,false,stim,false,-1,758,1,1,1,38448,task2,866857,false,false,434,image-keyboard-response,25
true,1,0,0,0,true,q,false,true,0.0-2.0-0.2-0.25-3.25,0,0,0,81,false,stim,false,-1,687,1,0,0,38448,task2,869074,false,false,437,image-keyboard-response,26
true,2,0,2,2,false,d,false,false,0.0-2.0-0.2-0.26-3.26,0,1,0,81,true,stim,true,0,349,1,0,0,38448,task2,870958,false,false,440,image-keyboard-response,1
true,2,0,2,0,true,q,false,true,0.0-2.0-0.3-0.27-3.27,0,1,0,81,false,stim,false,0,453,1,1,1,38448,task2,872942,false,false,443,image-keyboard-response,2
true,2,0,2,0,true,q,false,true,0.0-2.0-0.3-0.28-3.28,0,1,0,81,false,stim,false,2,935,1,0,2,38448,task2,875404,false,false,446,image-keyboard-response,3
true,2,2,2,2,true,d,false,true,0.0-2.0-0.3-0.29-3.29,0,1,0,68,false,stim,false,0,449,1,0,0,38448,task2,877388,false,false,449,image-keyboard-response,4
true,2,2,2,2,true,d,false,true,0.0-2.0-0.3-0.30-3.30,0,1,0,68,false,stim,false,0,412,1,0,0,38448,task2,879311,false,false,452,image-keyboard-response,5
true,2,0,2,0,true,q,false,false,0.0-2.0-0.3-0.31-3.31,0,1,0,81,false,stim,false,0,815,1,1,1,38448,task2,881654,false,true,455,image-keyboard-response,6
true,2,0,2,0,true,q,false,true,0.0-2.0-0.3-0.32-3.32,0,1,0,81,false,stim,false,2,993,1,0,2,38448,task2,884191,false,false,458,image-keyboard-response,7
true,2,0,2,0,true,q,false,true,0.0-2.0-0.3-0.33-3.33,0,1,0,81,false,stim,false,0,833,1,1,1,38448,task2,886562,false,false,461,image-keyboard-response,8
true,2,2,2,2,true,d,false,true,0.0-2.0-0.3-0.34-3.34,0,1,0,68,false,stim,false,0,955,1,0,0,38448,task2,889044,false,false,464,image-keyboard-response,9
true,2,0,2,0,true,q,false,true,0.0-2.0-0.3-0.35-3.35,0,1,0,81,false,stim,false,2,1276,1,0,2,38448,task2,891845,false,false,467,image-keyboard-response,10
true,2,0,2,2,false,d,false,false,0.0-2.0-0.4-0.36-3.36,0,1,0,81,false,stim,true,0,1152,1,0,0,38448,task2,894521,false,false,470,image-keyboard-response,11
true,2,0,2,0,true,q,false,true,0.0-2.0-0.4-0.37-3.37,0,1,0,81,false,stim,false,2,561,1,0,2,38448,task2,896609,false,false,473,image-keyboard-response,12
true,2,0,2,0,true,q,false,false,0.0-2.0-0.4-0.38-3.38,0,1,0,81,false,stim,false,2,395,1,0,2,38448,task2,898544,false,true,476,image-keyboard-response,13
true,2,0,2,0,true,q,false,true,0.0-2.0-0.4-0.39-3.39,0,1,0,81,false,stim,false,0,572,1,1,1,38448,task2,900651,false,false,479,image-keyboard-response,14
true,2,0,2,0,true,q,false,true,0.0-2.0-0.4-0.40-3.40,0,1,0,81,false,stim,false,2,496,1,0,2,38448,task2,902674,false,false,482,image-keyboard-response,15
true,2,0,2,0,true,q,false,true,0.0-2.0-0.4-0.41-3.41,0,1,0,81,false,stim,false,0,629,1,1,1,38448,task2,904828,false,false,485,image-keyboard-response,16
true,2,0,2,0,true,q,false,true,0.0-2.0-0.4-0.42-3.42,0,1,0,81,false,stim,false,0,1041,1,1,1,38448,task2,907409,false,false,488,image-keyboard-response,17
true,2,2,2,2,true,d,false,true,0.0-2.0-0.4-0.43-3.43,0,1,0,68,false,stim,false,0,748,1,0,0,38448,task2,909697,false,false,491,image-keyboard-response,18
true,2,2,2,2,true,d,false,true,0.0-2.0-0.4-0.44-3.44,0,1,0,68,false,stim,false,0,426,1,0,0,38448,task2,911655,false,false,494,image-keyboard-response,19
true,2,0,2,0,true,q,false,true,0.0-2.0-0.5-0.45-3.45,0,1,0,81,false,stim,false,2,764,1,0,2,38448,task2,913953,false,false,497,image-keyboard-response,20
true,2,2,2,2,true,d,false,true,0.0-2.0-0.5-0.46-3.46,0,1,0,68,false,stim,false,0,756,1,0,0,38448,task2,916246,false,false,500,image-keyboard-response,21
true,2,0,2,0,true,q,false,true,0.0-2.0-0.5-0.47-3.47,0,1,0,81,false,stim,false,0,580,1,1,1,38448,task2,918368,false,false,503,image-keyboard-response,22
true,2,2,2,2,true,d,false,false,0.0-2.0-0.5-0.48-3.48,0,1,0,68,false,stim,false,0,991,1,0,0,38448,task2,920890,false,true,506,image-keyboard-response,23
true,2,0,2,0,true,q,false,true,0.0-2.0-0.5-0.49-3.49,0,1,0,81,false,stim,false,2,912,1,0,2,38448,task2,923331,false,false,509,image-keyboard-response,24
true,2,0,2,0,true,q,false,true,0.0-2.0-0.5-0.50-3.50,0,1,0,81,false,stim,false,2,411,1,0,2,38448,task2,925270,false,false,512,image-keyboard-response,25
true,2,2,2,2,true,d,false,true,0.0-2.0-0.5-0.51-3.51,0,1,0,68,false,stim,false,0,1487,1,0,0,38448,task2,928285,false,false,515,image-keyboard-response,26
true,2,0,2,0,true,q,false,true,0.0-2.0-0.5-0.52-3.52,0,1,0,81,false,stim,false,0,560,1,1,1,38448,task2,930368,false,false,518,image-keyboard-response,27
true,2,0,2,0,true,q,false,true,0.0-2.0-0.5-0.53-3.53,0,1,0,81,false,stim,false,0,509,1,0,1,38448,task2,932417,false,false,521,image-keyboard-response,28
true,2,2,2,2,true,d,false,true,0.0-2.0-0.6-0.54-3.54,0,1,0,68,false,stim,false,0,841,1,0,0,38448,task2,934789,false,false,524,image-keyboard-response,29
true,2,0,2,0,true,q,false,true,0.0-2.0-0.6-0.55-3.55,0,1,0,81,false,stim,false,0,931,1,0,1,38448,task2,937261,false,false,527,image-keyboard-response,30
true,2,0,2,0,true,q,false,true,0.0-2.0-0.6-0.56-3.56,0,1,0,81,false,stim,false,2,2123,1,0,2,38448,task2,940912,false,false,530,image-keyboard-response,31
true,2,2,2,2,true,d,false,true,0.0-2.0-0.6-0.57-3.57,0,1,0,68,false,stim,false,0,997,1,0,0,38448,task2,943445,false,false,533,image-keyboard-response,32
true,3,2,1,0,false,q,false,false,0.0-2.0-0.6-0.58-3.58,0,0,0,68,true,stim,true,2,435,1,0,0,38448,task2,945404,false,false,536,image-keyboard-response,1
true,3,0,1,2,false,d,false,false,0.0-2.0-0.6-0.59-3.59,0,0,0,81,false,stim,true,0,788,1,0,1,38448,task2,947717,false,false,539,image-keyboard-response,2
true,3,0,1,2,false,d,false,false,0.0-2.0-0.6-0.60-3.60,0,0,0,81,false,stim,true,0,1363,1,0,2,38448,task2,950622,false,false,542,image-keyboard-response,3
true,3,1,1,2,false,d,true,false,0.0-2.0-0.6-0.61-3.61,0,0,0,90,false,stim,false,0,1275,1,0,1,38448,task2,953433,false,false,545,image-keyboard-response,4
true,3,0,1,2,false,d,false,false,0.0-2.0-0.6-0.62-3.62,0,0,0,81,false,stim,true,0,2047,1,0,2,38448,task2,957017,false,false,548,image-keyboard-response,5
true,3,2,1,2,true,d,false,true,0.0-2.0-0.7-0.63-3.63,0,0,0,68,false,stim,false,0,2336,1,0,2,38448,task2,960885,false,false,551,image-keyboard-response,6
true,3,2,1,2,true,d,false,true,0.0-2.0-0.7-0.64-3.64,0,0,0,68,false,stim,false,0,373,1,0,2,38448,task2,962792,false,false,554,image-keyboard-response,7
true,3,2,1,2,true,d,false,true,0.0-2.0-0.7-0.65-3.65,0,0,0,68,false,stim,false,0,362,1,0,1,38448,task2,964681,false,false,557,image-keyboard-response,8
true,3,2,1,2,true,d,false,true,0.0-2.0-0.7-0.66-3.66,0,0,0,68,false,stim,false,0,426,1,0,1,38448,task2,966645,false,false,560,image-keyboard-response,9
true,3,1,1,0,false,q,true,false,0.0-2.0-0.7-0.67-3.67,0,0,0,90,false,stim,false,2,836,1,0,0,38448,task2,969012,false,false,563,image-keyboard-response,10
true,3,2,1,2,true,d,false,true,0.0-2.0-0.7-0.68-3.68,0,0,0,68,false,stim,false,0,197,1,0,2,38448,task2,970746,false,false,566,image-keyboard-response,11
true,3,2,1,0,false,q,false,false,0.0-2.0-0.7-0.69-3.69,0,0,0,68,false,stim,true,2,347,1,0,0,38448,task2,972616,false,false,569,image-keyboard-response,12
true,3,2,1,2,true,d,false,true,0.0-2.0-0.7-0.70-3.70,0,0,0,68,false,stim,false,0,624,1,0,1,38448,task2,974773,false,false,572,image-keyboard-response,13
true,3,0,1,0,true,q,false,true,0.0-2.0-0.7-0.71-3.71,0,0,0,81,false,stim,false,2,559,1,0,0,38448,task2,976868,false,false,575,image-keyboard-response,14
true,3,2,1,2,true,d,false,true,0.0-2.0-0.8-0.72-3.72,0,0,0,68,false,stim,false,0,735,1,0,1,38448,task2,979144,false,false,578,image-keyboard-response,15
true,3,2,1,2,true,d,false,true,0.0-2.0-0.8-0.73-3.73,0,0,0,68,false,stim,false,0,443,1,0,2,38448,task2,981112,false,false,581,image-keyboard-response,16
true,3,2,1,2,true,d,false,true,0.0-2.0-0.8-0.74-3.74,0,0,0,68,false,stim,false,0,591,1,0,1,38448,task2,983240,false,false,584,image-keyboard-response,17
true,3,0,1,0,true,q,false,true,0.0-2.0-0.8-0.75-3.75,0,0,0,81,false,stim,false,2,968,1,0,0,38448,task2,985737,false,false,587,image-keyboard-response,18
true,3,0,1,0,true,q,false,true,0.0-2.0-0.8-0.76-3.76,0,0,0,81,false,stim,false,2,420,1,0,0,38448,task2,987690,false,false,590,image-keyboard-response,19
true,3,2,1,2,true,d,false,true,0.0-2.0-0.8-0.77-3.77,0,0,0,68,false,stim,false,0,943,1,0,1,38448,task2,990173,false,false,593,image-keyboard-response,20
true,3,0,1,0,true,q,false,true,0.0-2.0-0.8-0.78-3.78,0,0,0,81,false,stim,false,2,1647,1,0,0,38448,task2,993357,false,false,596,image-keyboard-response,21
true,3,2,1,2,true,d,false,true,0.0-2.0-0.8-0.79-3.79,0,0,0,68,false,stim,false,0,1295,1,0,2,38448,task2,996183,false,false,599,image-keyboard-response,22
true,3,2,1,2,true,d,false,true,0.0-2.0-0.8-0.80-3.80,0,0,0,68,false,stim,false,0,339,1,0,2,38448,task2,998037,false,false,602,image-keyboard-response,23
true,3,0,1,2,false,d,false,false,0.0-2.0-0.9-0.81-3.81,0,0,0,81,false,stim,true,0,631,1,0,1,38448,task2,1000210,false,false,605,image-keyboard-response,24
true,3,0,1,0,true,q,false,true,0.0-2.0-0.9-0.82-3.82,0,0,0,81,false,stim,false,2,379,1,0,0,38448,task2,1002119,false,false,608,image-keyboard-response,25
true,3,2,1,2,true,d,false,true,0.0-2.0-0.9-0.83-3.83,0,0,0,68,false,stim,false,0,499,1,0,1,38448,task2,1004147,false,false,611,image-keyboard-response,26
true,3,2,1,2,true,d,false,true,0.0-2.0-0.9-0.84-3.84,0,0,0,68,false,stim,false,0,526,1,0,2,38448,task2,1006205,false,false,614,image-keyboard-response,27
true,3,0,1,0,true,q,false,true,0.0-2.0-0.9-0.85-3.85,0,0,0,81,false,stim,false,2,1092,1,0,0,38448,task2,1008830,false,false,617,image-keyboard-response,28
true,3,2,1,2,true,d,false,true,0.0-2.0-0.9-0.86-3.86,0,0,0,68,false,stim,false,0,1334,1,0,2,38448,task2,1011693,false,false,620,image-keyboard-response,29
true,3,0,1,0,true,q,false,true,0.0-2.0-0.9-0.87-3.87,0,0,0,81,false,stim,false,2,730,1,0,0,38448,task2,1013959,false,false,623,image-keyboard-response,30
true,3,2,1,2,true,d,false,true,0.0-2.0-0.9-0.88-3.88,0,0,0,68,false,stim,false,0,1680,1,0,2,38448,task2,1017169,false,false,626,image-keyboard-response,31
true,3,0,1,2,false,d,false,false,0.0-2.0-0.9-0.89-3.89,0,0,0,81,false,stim,true,0,1260,1,0,1,38448,task2,1019969,false,false,629,image-keyboard-response,32
true,3,2,1,2,true,d,false,false,0.0-2.0-0.10-0.90-3.90,0,0,0,68,false,stim,false,0,367,1,0,1,38448,task2,1021877,false,true,632,image-keyboard-response,33
true,3,2,1,2,true,d,false,true,0.0-2.0-0.10-0.91-3.91,0,0,0,68,false,stim,false,0,418,1,0,1,38448,task2,1023838,false,false,635,image-keyboard-response,34
true,4,0,1,1,false,z,false,false,0.0-2.0-0.10-0.92-3.92,0,0,0,81,true,stim,true,0,517,1,0,0,38448,task2,1025886,false,false,638,image-keyboard-response,1
true,4,2,1,1,false,z,false,false,0.0-2.0-0.10-0.93-3.93,0,0,0,68,false,stim,true,2,530,1,0,2,38448,task2,1027939,false,false,641,image-keyboard-response,2
true,4,2,1,0,false,q,false,false,0.0-2.0-0.10-0.94-3.94,0,0,0,68,false,stim,true,2,781,1,0,1,38448,task2,1030250,false,false,644,image-keyboard-response,3
true,4,2,1,1,false,z,true,false,0.0-2.0-0.10-0.95-3.95,0,0,0,68,false,stim,false,0,979,1,0,0,38448,task2,1032768,false,false,647,image-keyboard-response,4
true,4,1,1,1,true,z,false,true,0.0-2.0-0.10-0.96-3.96,0,0,0,90,false,stim,false,0,921,1,0,0,38448,task2,1035229,false,false,650,image-keyboard-response,5
true,4,1,1,1,true,z,false,true,0.0-2.0-0.10-0.97-3.97,0,0,0,90,false,stim,false,2,769,1,0,2,38448,task2,1037538,false,false,653,image-keyboard-response,6
true,4,1,1,1,true,z,false,true,0.0-2.0-0.10-0.98-3.98,0,0,0,90,false,stim,false,2,601,1,0,2,38448,task2,1039671,false,false,656,image-keyboard-response,7
true,4,1,1,1,true,z,false,true,0.0-2.0-0.11-0.99-3.99,0,0,0,90,false,stim,false,2,312,1,0,2,38448,task2,1041519,false,false,659,image-keyboard-response,8
true,4,2,1,1,false,z,true,false,0.0-2.0-0.11-0.100-3.100,0,0,0,68,false,stim,false,0,893,1,0,0,38448,task2,1043942,false,false,662,image-keyboard-response,9
true,4,1,1,1,true,z,false,true,0.0-2.0-0.11-0.101-3.101,0,0,0,90,false,stim,false,0,381,1,0,0,38448,task2,1045860,false,false,665,image-keyboard-response,10
true,4,1,1,0,false,q,true,false,0.0-2.0-0.11-0.102-3.102,0,0,0,90,false,stim,false,2,654,1,0,1,38448,task2,1048043,false,false,668,image-keyboard-response,11
true,4,1,1,1,true,z,false,true,0.0-2.0-0.11-0.103-3.103,0,0,0,90,false,stim,false,0,838,1,0,0,38448,task2,1050405,false,false,671,image-keyboard-response,12
true,4,1,1,1,true,z,false,true,0.0-2.0-0.11-0.104-3.104,0,0,0,90,false,stim,false,2,368,1,0,2,38448,task2,1052294,false,false,674,image-keyboard-response,13
true,4,0,1,0,true,q,false,true,0.0-2.0-0.11-0.105-3.105,0,0,0,81,false,stim,false,2,458,1,0,1,38448,task2,1054288,false,false,677,image-keyboard-response,14
true,4,0,1,0,true,q,false,true,0.0-2.0-0.11-0.106-3.106,0,0,0,81,false,stim,false,2,656,1,0,1,38448,task2,1056486,false,false,680,image-keyboard-response,15
true,4,1,1,1,true,z,false,true,0.0-2.0-0.11-0.107-3.107,0,0,0,90,false,stim,false,2,1328,1,0,2,38448,task2,1059336,false,false,683,image-keyboard-response,16
true,4,1,1,0,false,q,true,false,0.0-2.0-0.12-0.108-3.108,0,0,0,90,false,stim,false,2,1253,1,0,1,38448,task2,1062122,false,false,686,image-keyboard-response,17
true,4,1,1,1,true,z,false,true,0.0-2.0-0.12-0.109-3.109,0,0,0,90,false,stim,false,0,841,1,0,0,38448,task2,1064499,false,false,689,image-keyboard-response,18
true,4,1,1,1,true,z,false,false,0.0-2.0-0.12-0.110-3.110,0,0,0,90,false,stim,false,2,1247,1,0,2,38448,task2,1067286,false,true,692,image-keyboard-response,19
true,4,1,1,1,true,z,false,true,0.0-2.0-0.12-0.111-3.111,0,0,0,90,false,stim,false,0,1104,1,0,0,38448,task2,1069921,false,false,695,image-keyboard-response,20
true,4,1,1,1,true,z,false,true,0.0-2.0-0.12-0.112-3.112,0,0,0,90,false,stim,false,2,1871,1,0,2,38448,task2,1073320,false,false,698,image-keyboard-response,21
true,4,1,1,1,true,z,false,true,0.0-2.0-0.12-0.113-3.113,0,0,0,90,false,stim,false,2,405,1,0,2,38448,task2,1075260,false,false,701,image-keyboard-response,22
true,4,0,1,1,false,z,false,false,0.0-2.0-0.12-0.114-3.114,0,0,0,81,false,stim,true,0,881,1,0,0,38448,task2,1077681,false,false,704,image-keyboard-response,23
true,4,1,1,0,false,q,true,false,0.0-2.0-0.12-0.115-3.115,0,0,0,90,false,stim,false,2,736,1,0,1,38448,task2,1079954,false,false,707,image-keyboard-response,24
true,4,2,1,0,false,q,false,false,0.0-2.0-0.12-0.116-3.116,0,0,0,68,false,stim,true,2,1226,1,0,1,38448,task2,1082715,false,false,710,image-keyboard-response,25
true,4,0,1,0,true,q,false,true,0.0-2.0-0.13-0.117-3.117,0,0,0,81,false,stim,false,2,530,1,0,1,38448,task2,1084779,false,false,713,image-keyboard-response,26
true,4,1,1,1,true,z,false,false,0.0-2.0-0.13-0.118-3.118,0,0,0,90,false,stim,false,2,573,1,0,2,38448,task2,1086881,false,true,716,image-keyboard-response,27
true,4,0,1,1,false,z,true,false,0.0-2.0-0.13-0.119-3.119,0,0,0,81,false,stim,false,2,696,1,0,2,38448,task2,1089114,false,false,719,image-keyboard-response,28
true,4,1,1,1,true,z,false,true,0.0-2.0-0.13-0.120-3.120,0,0,0,90,false,stim,false,0,907,1,0,0,38448,task2,1091547,false,false,722,image-keyboard-response,29
true,4,1,1,1,true,z,false,true,0.0-2.0-0.13-0.121-3.121,0,0,0,90,false,stim,false,0,456,1,1,0,38448,task2,1093525,false,false,725,image-keyboard-response,30
true,4,0,1,0,true,q,false,true,0.0-2.0-0.13-0.122-3.122,0,0,0,81,false,stim,false,2,411,1,0,1,38448,task2,1095459,false,false,728,image-keyboard-response,31
true,4,0,1,0,true,q,false,true,0.0-2.0-0.13-0.123-3.123,0,0,0,81,false,stim,false,2,1362,1,0,1,38448,task2,1098350,false,false,731,image-keyboard-response,32
true,4,1,1,1,true,z,false,true,0.0-2.0-0.13-0.124-3.124,0,0,0,90,false,stim,false,0,634,1,1,0,38448,task2,1100522,false,false,734,image-keyboard-response,33
true,4,0,1,1,false,z,true,true,0.0-2.0-0.13-0.125-3.125,0,0,0,81,false,stim,false,2,521,1,0,2,38448,task2,1102580,false,true,737,image-keyboard-response,34
true,5,1,2,1,true,z,false,true,0.0-2.0-0.14-0.126-3.126,1,0,0,90,true,stim,false,1,558,1,1,0,38448,task2,1104679,false,false,740,image-keyboard-response,1
true,5,1,2,2,false,d,true,false,0.0-2.0-0.14-0.127-3.127,1,0,0,90,false,stim,false,0,1429,1,0,1,38448,task2,1107649,false,false,743,image-keyboard-response,2
true,5,1,2,1,true,z,false,true,0.0-2.0-0.14-0.128-3.128,1,0,0,90,false,stim,false,1,389,1,1,0,38448,task2,1109578,false,false,746,image-keyboard-response,3
true,5,1,2,2,false,d,false,false,0.0-2.0-0.14-0.129-3.129,1,0,0,90,false,stim,true,1,1484,1,0,2,38448,task2,1112593,false,false,749,image-keyboard-response,4
true,5,0,2,2,false,d,true,false,0.0-2.0-0.14-0.130-3.130,1,0,0,81,false,stim,false,1,425,1,0,2,38448,task2,1114551,false,false,752,image-keyboard-response,5
true,5,0,2,2,false,d,false,false,0.0-2.0-0.14-0.131-3.131,1,0,0,81,false,stim,true,0,547,1,0,1,38448,task2,1116636,false,false,755,image-keyboard-response,6
true,5,1,2,1,true,z,false,true,0.0-2.0-0.14-0.132-3.132,1,0,0,90,false,stim,false,1,604,1,1,0,38448,task2,1118773,false,false,758,image-keyboard-response,7
true,5,1,2,2,false,d,true,false,0.0-2.0-0.14-0.133-3.133,1,0,0,90,false,stim,false,0,562,1,0,1,38448,task2,1120871,false,false,761,image-keyboard-response,8
true,5,1,2,2,false,d,false,true,0.0-2.0-0.14-0.134-3.134,1,0,0,90,false,stim,true,1,604,1,0,2,38448,task2,1123014,false,true,764,image-keyboard-response,9
true,5,1,2,2,false,d,false,false,0.0-2.0-0.15-0.135-3.135,1,0,0,90,false,stim,true,1,458,1,0,2,38448,task2,1125007,false,false,767,image-keyboard-response,10
true,5,1,2,2,false,d,false,false,0.0-2.0-0.15-0.136-3.136,1,0,0,90,false,stim,true,1,361,1,0,2,38448,task2,1126900,false,false,770,image-keyboard-response,11
true,5,1,2,1,true,z,false,true,0.0-2.0-0.15-0.137-3.137,1,0,0,90,false,stim,false,1,665,1,1,0,38448,task2,1129104,false,false,773,image-keyboard-response,12
true,5,2,2,2,true,d,false,true,0.0-2.0-0.15-0.138-3.138,1,0,0,68,false,stim,false,0,562,1,0,1,38448,task2,1131201,false,false,776,image-keyboard-response,13
true,5,2,2,2,true,d,false,true,0.0-2.0-0.15-0.139-3.139,1,0,0,68,false,stim,false,1,445,1,0,2,38448,task2,1133174,false,false,779,image-keyboard-response,14
true,5,2,2,2,true,d,false,true,0.0-2.0-0.15-0.140-3.140,1,0,0,68,false,stim,false,0,463,1,0,1,38448,task2,1135173,false,false,782,image-keyboard-response,15
true,5,2,2,2,true,d,false,false,0.0-2.0-0.15-0.141-3.141,1,0,0,68,false,stim,false,0,368,1,0,1,38448,task2,1137077,false,true,785,image-keyboard-response,16
true,5,1,2,1,true,z,false,true,0.0-2.0-0.15-0.142-3.142,1,0,0,90,false,stim,false,1,577,1,1,0,38448,task2,1139196,false,false,788,image-keyboard-response,17
true,5,1,2,1,true,z,false,true,0.0-2.0-0.15-0.143-3.143,1,0,0,90,false,stim,false,1,545,1,1,0,38448,task2,1141264,false,false,791,image-keyboard-response,18
true,5,2,2,2,true,d,false,true,0.0-2.0-0.16-0.144-3.144,1,0,0,68,false,stim,false,0,872,1,0,1,38448,task2,1143660,false,false,794,image-keyboard-response,19
true,5,1,2,2,false,d,false,false,0.0-2.0-0.16-0.145-3.145,1,0,0,90,false,stim,true,1,719,1,0,2,38448,task2,1145908,false,false,797,image-keyboard-response,20
true,5,2,2,2,true,d,false,true,0.0-2.0-0.16-0.146-3.146,1,0,0,68,false,stim,false,0,708,1,0,1,38448,task2,1148156,false,false,800,image-keyboard-response,21
true,5,1,2,1,true,z,false,true,0.0-2.0-0.16-0.147-3.147,1,0,0,90,false,stim,false,1,845,1,1,0,38448,task2,1150543,false,false,803,image-keyboard-response,22
true,5,1,2,1,true,z,false,true,0.0-2.0-0.16-0.148-3.148,1,0,0,90,false,stim,false,1,388,1,1,0,38448,task2,1152467,false,false,806,image-keyboard-response,23
true,5,2,2,2,true,d,false,true,0.0-2.0-0.16-0.149-3.149,1,0,0,68,false,stim,false,1,645,1,0,2,38448,task2,1154645,false,false,809,image-keyboard-response,24
true,5,1,2,1,true,z,false,true,0.0-2.0-0.16-0.150-3.150,1,0,0,90,false,stim,false,1,1063,1,1,0,38448,task2,1157232,false,false,812,image-keyboard-response,25
true,5,2,2,2,true,d,false,true,0.0-2.0-0.16-0.151-3.151,1,0,0,68,false,stim,false,1,580,1,0,2,38448,task2,1159349,false,false,815,image-keyboard-response,26
true,5,2,2,2,true,d,false,true,0.0-2.0-0.16-0.152-3.152,1,0,0,68,false,stim,false,0,2418,1,0,1,38448,task2,1163307,false,false,818,image-keyboard-response,27
true,5,2,2,2,true,d,false,false,0.0-2.0-0.17-0.153-3.153,1,0,0,68,false,stim,false,1,2270,1,0,2,38448,task2,1167119,false,true,821,image-keyboard-response,28
true,5,2,2,1,false,z,true,true,0.0-2.0-0.17-0.154-3.154,1,0,0,68,false,stim,false,1,2338,1,1,0,38448,task2,1170987,false,true,824,image-keyboard-response,29
true,5,2,2,2,true,d,false,true,0.0-2.0-0.17-0.155-3.155,1,0,0,68,false,stim,false,0,758,1,0,1,38448,task2,1173285,false,false,827,image-keyboard-response,30
true,5,2,2,1,false,z,true,false,0.0-2.0-0.17-0.156-3.156,1,0,0,68,false,stim,false,1,2413,1,0,0,38448,task2,1177222,false,false,830,image-keyboard-response,31
true,5,2,2,2,true,d,false,true,0.0-2.0-0.17-0.157-3.157,1,0,0,68,false,stim,false,0,2214,1,0,1,38448,task2,1180964,false,false,833,image-keyboard-response,32
true,5,1,2,2,false,d,false,false,0.0-2.0-0.17-0.158-3.158,1,0,0,90,false,stim,true,1,684,1,0,2,38448,task2,1183173,false,false,836,image-keyboard-response,33
true,5,2,2,2,true,d,false,true,0.0-2.0-0.17-0.159-3.159,1,0,0,68,false,stim,false,0,331,1,0,1,38448,task2,1185030,false,false,839,image-keyboard-response,34
true,6,2,1,1,false,z,false,true,0.0-2.0-0.17-0.160-3.160,0,0,0,68,true,stim,true,2,526,1,0,2,38448,task2,1187094,false,true,842,image-keyboard-response,1
true,6,1,1,0,false,q,false,false,0.0-2.0-0.17-0.161-3.161,0,0,0,90,false,stim,true,1,822,1,0,0,38448,task2,1189436,false,false,845,image-keyboard-response,2
true,6,2,1,0,false,q,true,false,0.0-2.0-0.18-0.162-3.162,0,0,0,68,false,stim,false,1,247,1,0,0,38448,task2,1191215,false,false,848,image-keyboard-response,3
true,6,2,1,1,false,z,false,true,0.0-2.0-0.18-0.163-3.163,0,0,0,68,false,stim,true,2,486,1,0,1,38448,task2,1193234,false,true,851,image-keyboard-response,4
true,6,2,1,1,false,z,false,false,0.0-2.0-0.18-0.164-3.164,0,0,0,68,false,stim,true,2,329,1,0,1,38448,task2,1195099,false,false,854,image-keyboard-response,5
true,6,2,1,1,false,z,false,false,0.0-2.0-0.18-0.165-3.165,0,0,0,68,false,stim,true,2,562,1,0,2,38448,task2,1197181,false,false,857,image-keyboard-response,6
true,6,0,1,0,true,q,false,true,0.0-2.0-0.18-0.166-3.166,0,0,0,81,false,stim,false,1,471,1,0,0,38448,task2,1199189,false,false,860,image-keyboard-response,7
true,6,0,1,1,false,z,true,false,0.0-2.0-0.18-0.167-3.167,0,0,0,81,false,stim,false,2,562,1,0,2,38448,task2,1201283,false,false,863,image-keyboard-response,8
true,6,1,1,1,true,z,false,true,0.0-2.0-0.18-0.168-3.168,0,0,0,90,false,stim,false,2,721,1,0,1,38448,task2,1203540,false,false,866,image-keyboard-response,9
true,6,0,1,0,true,q,false,true,0.0-2.0-0.18-0.169-3.169,0,0,0,81,false,stim,false,1,1099,1,0,0,38448,task2,1206177,false,false,869,image-keyboard-response,10
true,6,0,1,1,false,z,true,false,0.0-2.0-0.18-0.170-3.170,0,0,0,81,false,stim,false,2,1366,1,0,2,38448,task2,1209073,false,false,872,image-keyboard-response,11
true,6,0,1,0,true,q,false,true,0.0-2.0-0.19-0.171-3.171,0,0,0,81,false,stim,false,1,565,1,0,0,38448,task2,1211175,false,false,875,image-keyboard-response,12
true,6,1,1,1,true,z,false,true,0.0-2.0-0.19-0.172-3.172,0,0,0,90,false,stim,false,2,973,1,0,2,38448,task2,1213682,false,false,878,image-keyboard-response,13
true,6,1,1,1,true,z,false,true,0.0-2.0-0.19-0.173-3.173,0,0,0,90,false,stim,false,2,510,1,0,2,38448,task2,1215720,false,false,881,image-keyboard-response,14
true,6,1,1,1,true,z,false,true,0.0-2.0-0.19-0.174-3.174,0,0,0,90,false,stim,false,2,335,1,0,2,38448,task2,1217584,false,false,884,image-keyboard-response,15
true,6,1,1,1,true,z,false,true,0.0-2.0-0.19-0.175-3.175,0,0,0,90,false,stim,false,2,1066,1,0,1,38448,task2,1220176,false,false,887,image-keyboard-response,16
true,6,1,1,1,true,z,false,true,0.0-2.0-0.19-0.176-3.176,0,0,0,90,false,stim,false,2,625,1,0,1,38448,task2,1222334,false,false,890,image-keyboard-response,17
true,6,1,1,1,true,z,false,true,0.0-2.0-0.19-0.177-3.177,0,0,0,90,false,stim,false,2,413,1,0,1,38448,task2,1224271,false,false,893,image-keyboard-response,18
true,6,0,1,0,true,q,false,true,0.0-2.0-0.19-0.178-3.178,0,0,0,81,false,stim,false,1,1170,1,0,0,38448,task2,1226979,false,false,896,image-keyboard-response,19
true,6,0,1,0,true,q,false,true,0.0-2.0-0.19-0.179-3.179,0,0,0,81,false,stim,false,1,473,1,0,0,38448,task2,1228982,false,false,899,image-keyboard-response,20
true,6,1,1,1,true,z,false,true,0.0-2.0-0.20-0.180-3.180,0,0,0,90,false,stim,false,2,520,1,0,2,38448,task2,1231031,false,false,902,image-keyboard-response,21
true,6,0,1,0,true,q,false,true,0.0-2.0-0.20-0.181-3.181,0,0,0,81,false,stim,false,1,898,1,0,0,38448,task2,1233467,false,false,905,image-keyboard-response,22
true,6,1,1,1,true,z,false,false,0.0-2.0-0.20-0.182-3.182,0,0,0,90,false,stim,false,2,567,1,0,1,38448,task2,1235575,false,true,908,image-keyboard-response,23
true,6,0,1,0,true,q,false,true,0.0-2.0-0.20-0.183-3.183,0,0,0,81,false,stim,false,1,559,1,0,0,38448,task2,1237669,false,false,911,image-keyboard-response,24
true,6,1,1,1,true,z,false,true,0.0-2.0-0.20-0.184-3.184,0,0,0,90,false,stim,false,2,611,1,0,2,38448,task2,1239821,false,false,914,image-keyboard-response,25
true,6,1,1,1,true,z,false,false,0.0-2.0-0.20-0.185-3.185,0,0,0,90,false,stim,false,2,516,1,0,2,38448,task2,1241865,false,true,917,image-keyboard-response,26
true,6,1,1,1,true,z,false,true,0.0-2.0-0.20-0.186-3.186,0,0,0,90,false,stim,false,2,1537,1,0,1,38448,task2,1244926,false,false,920,image-keyboard-response,27
true,6,1,1,1,true,z,false,true,0.0-2.0-0.20-0.187-3.187,0,0,0,90,false,stim,false,2,541,1,0,1,38448,task2,1246988,false,false,923,image-keyboard-response,28
true,6,0,1,0,true,q,false,true,0.0-2.0-0.20-0.188-3.188,0,0,0,81,false,stim,false,1,750,1,0,0,38448,task2,1249269,false,false,926,image-keyboard-response,29
true,6,1,1,1,true,z,false,true,0.0-2.0-0.21-0.189-3.189,0,0,0,90,false,stim,false,2,639,1,0,1,38448,task2,1251438,false,false,929,image-keyboard-response,30
true,6,1,1,1,true,z,false,true,0.0-2.0-0.21-0.190-3.190,0,0,0,90,false,stim,false,2,787,1,0,1,38448,task2,1253765,false,false,932,image-keyboard-response,31
true,6,0,1,0,true,q,false,false,0.0-2.0-0.21-0.191-3.191,0,0,0,81,false,stim,false,1,958,1,0,0,38448,task2,1256257,false,true,935,image-keyboard-response,32
true,6,1,1,1,true,z,false,true,0.0-2.0-0.21-0.192-3.192,0,0,0,90,false,stim,false,2,561,1,0,2,38448,task2,1258360,false,false,938,image-keyboard-response,33
true,6,1,1,1,true,z,false,true,0.0-2.0-0.21-0.193-3.193,0,0,0,90,false,stim,false,2,380,1,0,2,38448,task2,1260280,false,false,941,image-keyboard-response,34
true,6,0,1,0,true,q,false,false,0.0-2.0-0.21-0.194-3.194,0,0,0,81,false,stim,false,1,692,1,0,0,38448,task2,1262511,false,true,944,image-keyboard-response,35
true,6,1,1,0,false,q,false,false,0.0-2.0-0.21-0.195-3.195,0,0,0,90,false,stim,true,1,715,1,0,0,38448,task2,1264754,false,false,947,image-keyboard-response,36
true,6,1,1,1,true,z,false,true,0.0-2.0-0.21-0.196-3.196,0,0,0,90,false,stim,false,2,619,1,0,2,38448,task2,1266907,false,false,950,image-keyboard-response,37
true,7,1,2,1,true,z,false,true,0.0-2.0-0.21-0.197-3.197,0,1,0,90,true,stim,false,1,836,1,1,1,38448,task2,1269284,false,false,953,image-keyboard-response,1
true,7,1,2,1,true,z,false,true,0.0-2.0-0.22-0.198-3.198,0,1,0,90,false,stim,false,1,463,1,1,1,38448,task2,1271282,false,false,956,image-keyboard-response,2
true,7,1,2,2,false,d,false,false,0.0-2.0-0.22-0.199-3.199,0,1,0,90,false,stim,true,1,592,1,0,2,38448,task2,1273411,false,false,959,image-keyboard-response,3
true,7,1,2,2,false,d,false,false,0.0-2.0-0.22-0.200-3.200,0,1,0,90,false,stim,true,1,380,1,0,2,38448,task2,1275319,false,false,962,image-keyboard-response,4
true,7,2,2,1,false,z,true,false,0.0-2.0-0.22-0.201-3.201,0,1,0,68,false,stim,false,0,668,1,0,0,38448,task2,1277527,false,false,965,image-keyboard-response,5
true,7,2,2,1,false,z,true,false,0.0-2.0-0.22-0.202-3.202,0,1,0,68,false,stim,false,1,411,1,1,1,38448,task2,1279480,false,false,968,image-keyboard-response,6
true,7,0,2,1,false,z,true,false,0.0-2.0-0.22-0.203-3.203,0,1,0,81,false,stim,false,1,753,1,1,1,38448,task2,1281763,false,false,971,image-keyboard-response,7
true,7,1,2,2,false,d,false,false,0.0-2.0-0.22-0.204-3.204,0,1,0,90,false,stim,true,1,558,1,0,2,38448,task2,1283838,false,false,974,image-keyboard-response,8
true,7,0,2,1,false,z,false,false,0.0-2.0-0.22-0.205-3.205,0,1,0,81,false,stim,true,0,835,1,0,0,38448,task2,1286214,false,false,977,image-keyboard-response,9
true,7,1,2,1,true,z,false,true,0.0-2.0-0.22-0.206-3.206,0,1,0,90,false,stim,false,0,1365,1,0,0,38448,task2,1289104,false,false,980,image-keyboard-response,10
true,7,1,2,1,true,z,false,true,0.0-2.0-0.23-0.207-3.207,0,1,0,90,false,stim,false,0,409,1,0,0,38448,task2,1291038,false,false,983,image-keyboard-response,11
true,7,0,2,2,false,d,true,false,0.0-2.0-0.23-0.208-3.208,0,1,0,81,false,stim,false,1,1160,1,0,2,38448,task2,1293729,false,false,986,image-keyboard-response,12
true,7,0,2,1,false,z,true,false,0.0-2.0-0.23-0.209-3.209,0,1,0,81,false,stim,false,1,1021,1,1,1,38448,task2,1296290,false,false,989,image-keyboard-response,13
true,7,2,2,2,true,d,false,true,0.0-2.0-0.23-0.210-3.210,0,1,0,68,false,stim,false,1,673,1,0,2,38448,task2,1298503,false,false,992,image-keyboard-response,14
true,7,2,2,2,true,d,false,true,0.0-2.0-0.23-0.211-3.211,0,1,0,68,false,stim,false,1,378,1,0,2,38448,task2,1300407,false,false,995,image-keyboard-response,15
true,7,1,2,1,true,z,false,true,0.0-2.0-0.23-0.212-3.212,0,1,0,90,false,stim,false,0,786,1,0,0,38448,task2,1302735,false,false,998,image-keyboard-response,16
true,7,1,2,1,true,z,false,true,0.0-2.0-0.23-0.213-3.213,0,1,0,90,false,stim,false,0,377,1,0,0,38448,task2,1304653,false,false,1001,image-keyboard-response,17
true,7,2,2,1,false,z,true,false,0.0-2.0-0.23-0.214-3.214,0,1,0,68,false,stim,false,1,941,1,1,1,38448,task2,1307120,false,false,1004,image-keyboard-response,18
true,7,1,2,1,true,z,false,true,0.0-2.0-0.23-0.215-3.215,0,1,0,90,false,stim,false,1,659,1,1,1,38448,task2,1309318,false,false,1007,image-keyboard-response,19
true,7,1,2,1,true,z,false,true,0.0-2.0-0.24-0.216-3.216,0,1,0,90,false,stim,false,0,886,1,0,0,38448,task2,1311745,false,false,1010,image-keyboard-response,20
true,7,1,2,1,true,z,false,true,0.0-2.0-0.24-0.217-3.217,0,1,0,90,false,stim,false,1,981,1,1,1,38448,task2,1314251,false,false,1013,image-keyboard-response,21
true,7,1,2,1,true,z,false,true,0.0-2.0-0.24-0.218-3.218,0,1,0,90,false,stim,false,1,525,1,1,1,38448,task2,1316313,false,false,1016,image-keyboard-response,22
true,7,2,2,2,true,d,false,false,0.0-2.0-0.24-0.219-3.219,0,1,0,68,false,stim,false,1,933,1,0,2,38448,task2,1318772,false,true,1019,image-keyboard-response,23
true,7,1,2,1,true,z,false,true,0.0-2.0-0.24-0.220-3.220,0,1,0,90,false,stim,false,0,517,1,0,0,38448,task2,1320815,false,false,1022,image-keyboard-response,24
true,7,1,2,2,false,d,false,false,0.0-2.0-0.24-0.221-3.221,0,1,0,90,false,stim,true,1,669,1,0,2,38448,task2,1322998,false,false,1025,image-keyboard-response,25
true,7,1,2,1,true,z,false,true,0.0-2.0-0.24-0.222-3.222,0,1,0,90,false,stim,false,0,396,1,0,0,38448,task2,1324926,false,false,1028,image-keyboard-response,26
true,7,2,2,2,true,d,false,true,0.0-2.0-0.24-0.223-3.223,0,1,0,68,false,stim,false,1,745,1,0,2,38448,task2,1327194,false,false,1031,image-keyboard-response,27
true,7,2,2,1,false,z,true,false,0.0-2.0-0.24-0.224-3.224,0,1,0,68,false,stim,false,1,1261,1,1,1,38448,task2,1329980,false,false,1034,image-keyboard-response,28
true,7,2,2,2,true,d,false,true,0.0-2.0-0.25-0.225-3.225,0,1,0,68,false,stim,false,1,861,1,0,2,38448,task2,1332381,false,false,1037,image-keyboard-response,29
true,7,1,2,1,true,z,false,true,0.0-2.0-0.25-0.226-3.226,0,1,0,90,false,stim,false,1,985,1,1,1,38448,task2,1334904,false,false,1040,image-keyboard-response,30
true,7,1,2,1,true,z,false,true,0.0-2.0-0.25-0.227-3.227,0,1,0,90,false,stim,false,1,417,1,0,1,38448,task2,1336858,false,false,1043,image-keyboard-response,31
true,7,2,2,2,true,d,false,true,0.0-2.0-0.25-0.228-3.228,0,1,0,68,false,stim,false,1,1622,1,0,2,38448,task2,1340021,false,false,1046,image-keyboard-response,32
true,7,1,2,1,true,z,false,true,0.0-2.0-0.25-0.229-3.229,0,1,0,90,false,stim,false,0,1293,1,0,0,38448,task2,1342852,false,false,1049,image-keyboard-response,33
true,7,1,2,1,true,z,false,true,0.0-2.0-0.25-0.230-3.230,0,1,0,90,false,stim,false,0,1907,1,0,0,38448,task2,1346296,false,false,1052,image-keyboard-response,34
true,7,2,2,1,false,z,true,false,0.0-2.0-0.25-0.231-3.231,0,1,0,68,false,stim,false,1,1632,1,0,1,38448,task2,1349461,false,false,1055,image-keyboard-response,35
true,8,1,1,2,false,d,false,false,0.0-2.0-0.25-0.232-3.232,0,0,0,90,true,stim,true,1,1272,1,0,0,38448,task2,1352261,false,false,1058,image-keyboard-response,1
true,8,2,1,1,false,z,false,false,0.0-2.0-0.25-0.233-3.233,0,0,0,68,false,stim,true,2,885,1,0,2,38448,task2,1354674,false,false,1061,image-keyboard-response,2
true,8,1,1,2,false,d,false,false,0.0-2.0-0.26-0.234-3.234,0,0,0,90,false,stim,true,1,767,1,0,0,38448,task2,1356976,false,false,1064,image-keyboard-response,3
true,8,0,1,0,true,q,false,true,0.0-2.0-0.26-0.235-3.235,0,0,0,81,false,stim,false,1,1342,1,0,1,38448,task2,1359851,false,false,1067,image-keyboard-response,4
true,8,0,1,2,false,d,true,true,0.0-2.0-0.26-0.236-3.236,0,0,0,81,false,stim,false,1,395,1,0,0,38448,task2,1361775,false,true,1070,image-keyboard-response,5
true,8,0,1,2,false,d,true,false,0.0-2.0-0.26-0.237-3.237,0,0,0,81,false,stim,false,1,463,1,0,0,38448,task2,1363764,false,false,1073,image-keyboard-response,6
true,8,0,1,1,false,z,true,false,0.0-2.0-0.26-0.238-3.238,0,0,0,81,false,stim,false,2,712,1,0,2,38448,task2,1366011,false,false,1076,image-keyboard-response,7
true,8,1,1,1,true,z,false,true,0.0-2.0-0.26-0.239-3.239,0,0,0,90,false,stim,false,2,400,1,0,2,38448,task2,1367940,false,false,1079,image-keyboard-response,8
true,8,1,1,1,true,z,false,true,0.0-2.0-0.26-0.240-3.240,0,0,0,90,false,stim,false,2,365,1,0,2,38448,task2,1369844,false,false,1082,image-keyboard-response,9
true,8,0,1,0,true,q,false,true,0.0-2.0-0.26-0.241-3.241,0,0,0,81,false,stim,false,1,1171,1,0,1,38448,task2,1372551,false,false,1085,image-keyboard-response,10
true,8,0,1,0,true,q,false,true,0.0-2.0-0.26-0.242-3.242,0,0,0,81,false,stim,false,1,389,1,0,1,38448,task2,1374479,false,false,1088,image-keyboard-response,11
true,8,0,1,0,true,q,false,true,0.0-2.0-0.27-0.243-3.243,0,0,0,81,false,stim,false,1,381,1,0,1,38448,task2,1376391,false,false,1091,image-keyboard-response,12
true,8,0,1,0,true,q,false,true,0.0-2.0-0.27-0.244-3.244,0,0,0,81,false,stim,false,1,586,1,0,1,38448,task2,1378517,false,false,1094,image-keyboard-response,13
true,8,0,1,1,false,z,true,false,0.0-2.0-0.27-0.245-3.245,0,0,0,81,false,stim,false,2,2250,1,0,2,38448,task2,1382298,false,false,1097,image-keyboard-response,14
true,8,1,1,1,true,z,false,true,0.0-2.0-0.27-0.246-3.246,0,0,0,90,false,stim,false,2,388,1,0,2,38448,task2,1384217,false,false,1100,image-keyboard-response,15
true,8,0,1,0,true,q,false,true,0.0-2.0-0.27-0.247-3.247,0,0,0,81,false,stim,false,1,497,1,0,1,38448,task2,1386246,false,false,1103,image-keyboard-response,16
true,8,0,1,2,false,d,true,false,0.0-2.0-0.27-0.248-3.248,0,0,0,81,false,stim,false,1,1042,1,0,0,38448,task2,1388811,false,false,1106,image-keyboard-response,17
true,8,0,1,2,false,d,true,true,0.0-2.0-0.27-0.249-3.249,0,0,0,81,false,stim,false,1,380,1,0,0,38448,task2,1390720,false,true,1109,image-keyboard-response,18
true,8,1,1,1,true,z,false,true,0.0-2.0-0.27-0.250-3.250,0,0,0,90,false,stim,false,2,709,1,0,2,38448,task2,1392968,false,false,1112,image-keyboard-response,19
true,8,0,1,2,false,d,true,false,0.0-2.0-0.27-0.251-3.251,0,0,0,81,false,stim,false,1,597,1,0,0,38448,task2,1395097,false,false,1115,image-keyboard-response,20
true,8,1,1,0,false,q,false,true,0.0-2.0-0.28-0.252-3.252,0,0,0,90,false,stim,true,1,640,1,0,1,38448,task2,1397280,false,true,1118,image-keyboard-response,21
true,8,1,1,1,true,z,false,false,0.0-2.0-0.28-0.253-3.253,0,0,0,90,false,stim,false,2,320,1,0,2,38448,task2,1399139,false,true,1121,image-keyboard-response,22
true,8,1,1,0,false,q,false,false,0.0-2.0-0.28-0.254-3.254,0,0,0,90,false,stim,true,1,492,1,0,1,38448,task2,1401171,false,false,1124,image-keyboard-response,23
true,8,1,1,1,true,z,false,true,0.0-2.0-0.28-0.255-3.255,0,0,0,90,false,stim,false,2,321,1,0,2,38448,task2,1403020,false,false,1127,image-keyboard-response,24
true,8,2,1,0,false,q,true,false,0.0-2.0-0.28-0.256-3.256,0,0,0,68,false,stim,false,1,1472,1,0,1,38448,task2,1406031,false,false,1130,image-keyboard-response,25
true,8,0,1,2,false,d,true,false,0.0-2.0-0.28-0.257-3.257,0,0,0,81,false,stim,false,1,1073,1,0,0,38448,task2,1408622,false,false,1133,image-keyboard-response,26
true,8,1,1,2,false,d,false,false,0.0-2.0-0.28-0.258-3.258,0,0,0,90,false,stim,true,1,437,1,0,0,38448,task2,1410586,false,false,1136,image-keyboard-response,27
true,8,1,1,1,true,z,false,true,0.0-2.0-0.28-0.259-3.259,0,0,0,90,false,stim,false,2,1008,1,0,2,38448,task2,1413118,false,false,1139,image-keyboard-response,28
true,8,2,1,2,true,d,false,true,0.0-2.0-0.28-0.260-3.260,0,0,0,68,false,stim,false,1,926,1,0,0,38448,task2,1415574,false,false,1142,image-keyboard-response,29
true,8,1,1,1,true,z,false,true,0.0-2.0-0.29-0.261-3.261,0,0,0,90,false,stim,false,2,1142,1,0,2,38448,task2,1418251,false,false,1145,image-keyboard-response,30
true,8,1,1,1,true,z,false,true,0.0-2.0-0.29-0.262-3.262,0,0,0,90,false,stim,false,2,510,1,0,2,38448,task2,1420300,false,false,1148,image-keyboard-response,31
true,8,2,1,0,false,q,true,false,0.0-2.0-0.29-0.263-3.263,0,0,0,68,false,stim,false,1,1930,1,0,1,38448,task2,1423759,false,false,1151,image-keyboard-response,32
true,8,2,1,2,true,d,false,true,0.0-2.0-0.29-0.264-3.264,0,0,0,68,false,stim,false,1,1669,1,0,0,38448,task2,1426959,false,false,1154,image-keyboard-response,33
true,8,1,1,0,false,q,false,false,0.0-2.0-0.29-0.265-3.265,0,0,0,90,false,stim,true,1,1374,1,0,1,38448,task2,1429873,false,false,1157,image-keyboard-response,34
true,8,1,1,1,true,z,false,true,0.0-2.0-0.29-0.266-3.266,0,0,0,90,false,stim,false,2,842,1,0,2,38448,task2,1432236,false,false,1160,image-keyboard-response,35
true,8,2,1,2,true,d,false,true,0.0-2.0-0.29-0.267-3.267,0,0,0,68,false,stim,false,1,658,1,0,0,38448,task2,1434414,false,false,1163,image-keyboard-response,36
true,8,2,1,2,true,d,false,true,0.0-2.0-0.29-0.268-3.268,0,0,0,68,false,stim,false,1,355,1,0,0,38448,task2,1436304,false,false,1166,image-keyboard-response,37
true,8,0,1,0,true,q,false,false,0.0-2.0-0.29-0.269-3.269,0,0,0,81,false,stim,false,1,976,1,0,1,38448,task2,1438804,false,true,1169,image-keyboard-response,38
true,9,2,1,1,false,z,false,false,0.0-2.0-0.30-0.270-3.270,0,0,0,68,true,stim,true,2,763,1,0,0,38448,task2,1441092,false,false,1172,image-keyboard-response,1
true,9,2,1,0,false,q,true,false,0.0-2.0-0.30-0.271-3.271,0,0,0,68,false,stim,false,1,1138,1,0,2,38448,task2,1443769,false,false,1175,image-keyboard-response,2
true,9,1,1,1,true,z,false,true,0.0-2.0-0.30-0.272-3.272,0,0,0,90,false,stim,false,0,1060,1,0,1,38448,task2,1446369,false,false,1178,image-keyboard-response,3
true,9,2,1,1,false,z,false,false,0.0-2.0-0.30-0.273-3.273,0,0,0,68,false,stim,true,2,784,1,0,0,38448,task2,1448693,false,false,1181,image-keyboard-response,4
true,9,0,1,1,false,z,false,false,0.0-2.0-0.30-0.274-3.274,0,0,0,81,false,stim,true,0,810,1,0,1,38448,task2,1451039,false,false,1184,image-keyboard-response,5
true,9,1,1,0,false,q,false,false,0.0-2.0-0.30-0.275-3.275,0,0,0,90,false,stim,true,1,852,1,0,2,38448,task2,1453421,false,false,1187,image-keyboard-response,6
true,9,1,1,1,true,z,false,true,0.0-2.0-0.30-0.276-3.276,0,0,0,90,false,stim,false,2,1504,1,0,0,38448,task2,1456452,false,false,1190,image-keyboard-response,7
true,9,1,1,1,true,z,false,true,0.0-2.0-0.30-0.277-3.277,0,0,0,90,false,stim,false,0,1006,1,0,1,38448,task2,1458994,false,false,1193,image-keyboard-response,8
true,9,1,1,0,false,q,false,false,0.0-2.0-0.30-0.278-3.278,0,0,0,90,false,stim,true,1,458,1,0,2,38448,task2,1460988,false,false,1196,image-keyboard-response,9
true,9,1,1,1,true,z,false,true,0.0-2.0-0.31-0.279-3.279,0,0,0,90,false,stim,false,2,410,1,0,0,38448,task2,1462941,false,false,1199,image-keyboard-response,10
true,9,1,1,1,true,z,false,false,0.0-2.0-0.31-0.280-3.280,0,0,0,90,false,stim,false,0,455,1,0,1,38448,task2,1464925,false,true,1202,image-keyboard-response,11
true,9,1,1,1,true,z,false,true,0.0-2.0-0.31-0.281-3.281,0,0,0,90,false,stim,false,0,503,1,0,1,38448,task2,1466953,false,false,1205,image-keyboard-response,12
true,9,0,1,0,true,q,false,true,0.0-2.0-0.31-0.282-3.282,0,0,0,81,false,stim,false,1,592,1,0,2,38448,task2,1469081,false,false,1208,image-keyboard-response,13
true,9,0,1,0,true,q,false,true,0.0-2.0-0.31-0.283-3.283,0,0,0,81,false,stim,false,1,391,1,0,2,38448,task2,1471000,false,false,1211,image-keyboard-response,14
true,9,0,1,0,true,q,false,true,0.0-2.0-0.31-0.284-3.284,0,0,0,81,false,stim,false,1,339,1,0,2,38448,task2,1472868,false,false,1214,image-keyboard-response,15
true,9,1,1,1,true,z,false,true,0.0-2.0-0.31-0.285-3.285,0,0,0,90,false,stim,false,2,603,1,0,0,38448,task2,1475011,false,false,1217,image-keyboard-response,16
true,9,1,1,1,true,z,false,true,0.0-2.0-0.31-0.286-3.286,0,0,0,90,false,stim,false,0,1947,1,0,1,38448,task2,1478486,false,false,1220,image-keyboard-response,17
true,9,1,1,1,true,z,false,true,0.0-2.0-0.31-0.287-3.287,0,0,0,90,false,stim,false,2,729,1,0,0,38448,task2,1480738,false,false,1223,image-keyboard-response,18
true,9,0,1,0,true,q,false,true,0.0-2.0-0.32-0.288-3.288,0,0,0,81,false,stim,false,1,641,1,0,2,38448,task2,1482911,false,false,1226,image-keyboard-response,19
true,9,1,1,1,true,z,false,true,0.0-2.0-0.32-0.289-3.289,0,0,0,90,false,stim,false,2,520,1,0,0,38448,task2,1484970,false,false,1229,image-keyboard-response,20
true,9,0,1,0,true,q,false,true,0.0-2.0-0.32-0.290-3.290,0,0,0,81,false,stim,false,1,1297,1,0,2,38448,task2,1487806,false,false,1232,image-keyboard-response,21
true,9,1,1,1,true,z,false,true,0.0-2.0-0.32-0.291-3.291,0,0,0,90,false,stim,false,2,619,1,0,0,38448,task2,1489948,false,false,1235,image-keyboard-response,22
true,9,1,1,1,true,z,false,true,0.0-2.0-0.32-0.292-3.292,0,0,0,90,false,stim,false,2,368,1,0,0,38448,task2,1491857,false,false,1238,image-keyboard-response,23
true,9,1,1,1,true,z,false,false,0.0-2.0-0.32-0.293-3.293,0,0,0,90,false,stim,false,0,771,1,0,1,38448,task2,1494160,false,true,1241,image-keyboard-response,24
true,9,1,1,1,true,z,false,true,0.0-2.0-0.32-0.294-3.294,0,0,0,90,false,stim,false,0,485,1,0,1,38448,task2,1496174,false,false,1244,image-keyboard-response,25
true,9,0,1,0,true,q,false,true,0.0-2.0-0.32-0.295-3.295,0,0,0,81,false,stim,false,1,1130,1,0,2,38448,task2,1498840,false,false,1247,image-keyboard-response,26
true,9,1,1,1,true,z,false,true,0.0-2.0-0.32-0.296-3.296,0,0,0,90,false,stim,false,0,989,1,0,1,38448,task2,1501347,false,false,1250,image-keyboard-response,27
true,9,0,1,0,true,q,false,true,0.0-2.0-0.33-0.297-3.297,0,0,0,81,false,stim,false,1,819,1,0,2,38448,task2,1503700,false,false,1253,image-keyboard-response,28
true,9,1,1,1,true,z,false,true,0.0-2.0-0.33-0.298-3.298,0,0,0,90,false,stim,false,0,1605,1,0,1,38448,task2,1506844,false,false,1256,image-keyboard-response,29
true,9,1,1,1,true,z,false,true,0.0-2.0-0.33-0.299-3.299,0,0,0,90,false,stim,false,0,378,1,0,1,38448,task2,1508748,false,false,1259,image-keyboard-response,30
true,9,1,1,1,true,z,false,true,0.0-2.0-0.33-0.300-3.300,0,0,0,90,false,stim,false,2,1683,1,0,0,38448,task2,1511973,false,false,1262,image-keyboard-response,31
true,9,0,1,0,true,q,false,true,0.0-2.0-0.33-0.301-3.301,0,0,0,81,false,stim,false,1,899,1,1,2,38448,task2,1514410,false,false,1265,image-keyboard-response,32
true,9,1,1,1,true,z,false,true,0.0-2.0-0.33-0.302-3.302,0,0,0,90,false,stim,false,2,664,1,0,0,38448,task2,1516603,false,false,1268,image-keyboard-response,33
true,9,1,1,1,true,z,false,true,0.0-2.0-0.33-0.303-3.303,0,0,0,90,false,stim,false,0,831,1,0,1,38448,task2,1518970,false,false,1271,image-keyboard-response,34
true,9,1,1,1,true,z,false,true,0.0-2.0-0.33-0.304-3.304,0,0,0,90,false,stim,false,2,928,1,0,0,38448,task2,1521427,false,false,1274,image-keyboard-response,35
true,10,0,2,0,true,q,false,true,0.0-2.0-0.33-0.305-3.305,0,0,1,81,true,stim,false,0,651,1,1,2,38448,task2,1523620,false,false,1277,image-keyboard-response,1
true,10,0,2,0,true,q,false,false,0.0-2.0-0.34-0.306-3.306,0,0,1,81,false,stim,false,0,455,1,1,2,38448,task2,1525603,false,true,1280,image-keyboard-response,2
true,10,1,2,2,false,d,false,false,0.0-2.0-0.34-0.307-3.307,0,0,1,90,false,stim,true,1,1110,1,0,0,38448,task2,1528240,false,false,1283,image-keyboard-response,3
true,10,0,2,0,true,q,false,true,0.0-2.0-0.34-0.308-3.308,0,0,1,81,false,stim,false,0,699,1,1,2,38448,task2,1530468,false,false,1286,image-keyboard-response,4
true,10,1,2,2,false,d,false,false,0.0-2.0-0.34-0.309-3.309,0,0,1,90,false,stim,true,1,767,1,0,0,38448,task2,1532775,false,false,1289,image-keyboard-response,5
true,10,0,2,2,false,d,true,false,0.0-2.0-0.34-0.310-3.310,0,0,1,81,false,stim,false,1,1910,1,0,1,38448,task2,1536219,false,false,1292,image-keyboard-response,6
true,10,2,2,2,true,d,false,true,0.0-2.0-0.34-0.311-3.311,0,0,1,68,false,stim,false,1,1211,1,0,0,38448,task2,1538971,false,false,1295,image-keyboard-response,7
true,10,2,2,2,true,d,false,true,0.0-2.0-0.34-0.312-3.312,0,0,1,68,false,stim,false,1,1217,1,0,1,38448,task2,1541717,false,false,1298,image-keyboard-response,8
true,10,0,2,0,true,q,false,true,0.0-2.0-0.34-0.313-3.313,0,0,1,81,false,stim,false,0,467,1,1,2,38448,task2,1543735,false,false,1301,image-keyboard-response,9
true,10,2,2,2,true,d,false,true,0.0-2.0-0.34-0.314-3.314,0,0,1,68,false,stim,false,1,694,1,0,1,38448,task2,1545974,false,false,1304,image-keyboard-response,10
true,10,2,2,2,true,d,false,true,0.0-2.0-0.35-0.315-3.315,0,0,1,68,false,stim,false,1,847,1,0,0,38448,task2,1548346,false,false,1307,image-keyboard-response,11
true,10,0,2,0,true,q,false,false,0.0-2.0-0.35-0.316-3.316,0,0,1,81,false,stim,false,0,525,1,1,2,38448,task2,1550404,false,true,1310,image-keyboard-response,12
true,10,2,2,2,true,d,false,true,0.0-2.0-0.35-0.317-3.317,0,0,1,68,false,stim,false,1,697,1,0,1,38448,task2,1552636,false,false,1313,image-keyboard-response,13
true,10,2,2,2,true,d,false,true,0.0-2.0-0.35-0.318-3.318,0,0,1,68,false,stim,false,1,390,1,0,1,38448,task2,1554550,false,false,1316,image-keyboard-response,14
true,10,0,2,0,true,q,false,true,0.0-2.0-0.35-0.319-3.319,0,0,1,81,false,stim,false,0,839,1,1,2,38448,task2,1556929,false,false,1319,image-keyboard-response,15
true,10,2,2,2,true,d,false,true,0.0-2.0-0.35-0.320-3.320,0,0,1,68,false,stim,false,1,716,1,0,0,38448,task2,1559185,false,false,1322,image-keyboard-response,16
true,10,0,2,0,true,q,false,true,0.0-2.0-0.35-0.321-3.321,0,0,1,81,false,stim,false,0,859,1,1,2,38448,task2,1561578,false,false,1325,image-keyboard-response,17
true,10,2,2,2,true,d,false,true,0.0-2.0-0.35-0.322-3.322,0,0,1,68,false,stim,false,1,1124,1,0,1,38448,task2,1564244,false,false,1328,image-keyboard-response,18
true,10,2,2,2,true,d,false,true,0.0-2.0-0.35-0.323-3.323,0,0,1,68,false,stim,false,1,1903,1,0,0,38448,task2,1567679,false,false,1331,image-keyboard-response,19
true,10,2,2,2,true,d,false,true,0.0-2.0-0.36-0.324-3.324,0,0,1,68,false,stim,false,1,531,1,0,0,38448,task2,1569751,false,false,1334,image-keyboard-response,20
true,10,0,2,0,true,q,false,true,0.0-2.0-0.36-0.325-3.325,0,0,1,81,false,stim,false,0,740,1,1,2,38448,task2,1572019,false,false,1337,image-keyboard-response,21
true,10,2,2,2,true,d,false,true,0.0-2.0-0.36-0.326-3.326,0,0,1,68,false,stim,false,1,758,1,0,0,38448,task2,1574307,false,false,1340,image-keyboard-response,22
true,10,0,2,0,true,q,false,true,0.0-2.0-0.36-0.327-3.327,0,0,1,81,false,stim,false,0,1061,1,1,2,38448,task2,1576910,false,false,1343,image-keyboard-response,23
true,10,2,2,2,true,d,false,true,0.0-2.0-0.36-0.328-3.328,0,0,1,68,false,stim,false,1,722,1,0,1,38448,task2,1579171,false,false,1346,image-keyboard-response,24
true,10,2,2,2,true,d,false,true,0.0-2.0-0.36-0.329-3.329,0,0,1,68,false,stim,false,1,605,1,0,1,38448,task2,1581314,false,false,1349,image-keyboard-response,25
true,10,0,2,0,true,q,false,true,0.0-2.0-0.36-0.330-3.330,0,0,1,81,false,stim,false,0,1649,1,1,2,38448,task2,1584499,false,false,1352,image-keyboard-response,26
true,10,2,2,2,true,d,false,true,0.0-2.0-0.36-0.331-3.331,0,0,1,68,false,stim,false,1,658,1,0,1,38448,task2,1586687,false,false,1355,image-keyboard-response,27
true,10,2,2,2,true,d,false,true,0.0-2.0-0.36-0.332-3.332,0,0,1,68,false,stim,false,1,674,1,0,0,38448,task2,1588905,false,false,1358,image-keyboard-response,28
true,10,2,2,2,true,d,false,true,0.0-2.0-0.37-0.333-3.333,0,0,1,68,false,stim,false,1,1900,1,0,0,38448,task2,1592329,false,false,1361,image-keyboard-response,29
true,10,2,2,2,true,d,false,false,0.0-2.0-0.37-0.334-3.334,0,0,1,68,false,stim,false,1,1710,1,0,1,38448,task2,1595579,false,true,1364,image-keyboard-response,30
true,10,2,2,2,true,d,false,true,0.0-2.0-0.37-0.335-3.335,0,0,1,68,false,stim,false,1,398,1,0,0,38448,task2,1597517,false,false,1367,image-keyboard-response,31
true,10,2,2,2,true,d,false,true,0.0-2.0-0.37-0.336-3.336,0,0,1,68,false,stim,false,1,839,1,0,1,38448,task2,1599899,false,false,1370,image-keyboard-response,32
true,10,2,2,2,true,d,false,true,0.0-2.0-0.37-0.337-3.337,0,0,1,68,false,stim,false,1,522,1,0,0,38448,task2,1601958,false,false,1373,image-keyboard-response,33
true,10,0,2,0,true,q,false,true,0.0-2.0-0.37-0.338-3.338,0,0,1,81,false,stim,false,0,896,1,0,2,38448,task2,1604396,false,false,1376,image-keyboard-response,34
true,10,2,2,2,true,d,false,true,0.0-2.0-0.37-0.339-3.339,0,0,1,68,false,stim,false,1,822,1,0,1,38448,task2,1606741,false,false,1379,image-keyboard-response,35
true,11,2,1,1,false,z,true,false,0.0-2.0-0.37-0.340-3.340,0,0,0,68,true,stim,false,0,1119,1,0,2,38448,task2,1609400,false,false,1382,image-keyboard-response,1
true,11,0,1,1,false,z,false,false,0.0-2.0-0.37-0.341-3.341,0,0,0,81,false,stim,true,0,434,1,0,2,38448,task2,1611373,false,false,1385,image-keyboard-response,2
true,11,0,1,1,false,z,false,false,0.0-2.0-0.38-0.342-3.342,0,0,0,81,false,stim,true,0,516,1,0,2,38448,task2,1613407,false,false,1388,image-keyboard-response,3
true,11,2,1,0,false,q,false,false,0.0-2.0-0.38-0.343-3.343,0,0,0,68,false,stim,true,2,520,1,0,1,38448,task2,1615449,false,false,1391,image-keyboard-response,4
true,11,1,1,0,false,q,true,false,0.0-2.0-0.38-0.344-3.344,0,0,0,90,false,stim,false,2,873,1,0,0,38448,task2,1617862,false,false,1394,image-keyboard-response,5
true,11,2,1,1,false,z,true,false,0.0-2.0-0.38-0.345-3.345,0,0,0,68,false,stim,false,0,741,1,0,2,38448,task2,1620130,false,false,1397,image-keyboard-response,6
true,11,2,1,0,false,q,false,false,0.0-2.0-0.38-0.346-3.346,0,0,0,68,false,stim,true,2,719,1,0,0,38448,task2,1622389,false,false,1400,image-keyboard-response,7
true,11,0,1,0,true,q,false,true,0.0-2.0-0.38-0.347-3.347,0,0,0,81,false,stim,false,2,478,1,0,1,38448,task2,1624386,false,false,1403,image-keyboard-response,8
true,11,0,1,1,false,z,false,false,0.0-2.0-0.38-0.348-3.348,0,0,0,81,false,stim,true,0,821,1,0,2,38448,task2,1626730,false,false,1406,image-keyboard-response,9
true,11,0,1,0,true,q,false,true,0.0-2.0-0.38-0.349-3.349,0,0,0,81,false,stim,false,2,837,1,0,0,38448,task2,1629107,false,false,1409,image-keyboard-response,10
true,11,0,1,0,true,q,false,true,0.0-2.0-0.38-0.350-3.350,0,0,0,81,false,stim,false,2,386,1,0,1,38448,task2,1631015,false,false,1412,image-keyboard-response,11
true,11,1,1,1,true,z,false,false,0.0-2.0-0.39-0.351-3.351,0,0,0,90,false,stim,false,0,539,1,0,2,38448,task2,1633079,false,true,1415,image-keyboard-response,12
true,11,0,1,0,true,q,false,true,0.0-2.0-0.39-0.352-3.352,0,0,0,81,false,stim,false,2,437,1,0,0,38448,task2,1635057,false,false,1418,image-keyboard-response,13
true,11,0,1,0,true,q,false,true,0.0-2.0-0.39-0.353-3.353,0,0,0,81,false,stim,false,2,387,1,0,1,38448,task2,1636986,false,false,1421,image-keyboard-response,14
true,11,0,1,0,true,q,false,true,0.0-2.0-0.39-0.354-3.354,0,0,0,81,false,stim,false,2,470,1,0,1,38448,task2,1638989,false,false,1424,image-keyboard-response,15
true,11,0,1,0,true,q,false,true,0.0-2.0-0.39-0.355-3.355,0,0,0,81,false,stim,false,2,438,1,0,1,38448,task2,1640959,false,false,1427,image-keyboard-response,16
true,11,0,1,1,false,z,false,false,0.0-2.0-0.39-0.356-3.356,0,0,0,81,false,stim,true,0,2041,1,0,2,38448,task2,1644541,false,false,1430,image-keyboard-response,17
true,11,0,1,0,true,q,false,true,0.0-2.0-0.39-0.357-3.357,0,0,0,81,false,stim,false,2,2321,1,0,0,38448,task2,1648399,false,false,1433,image-keyboard-response,18
true,11,0,1,0,true,q,false,true,0.0-2.0-0.39-0.358-3.358,0,0,0,81,false,stim,false,2,439,1,0,0,38448,task2,1650378,false,false,1436,image-keyboard-response,19
true,11,2,1,1,false,z,true,false,0.0-2.0-0.39-0.359-3.359,0,0,0,68,false,stim,false,0,991,1,0,2,38448,task2,1652900,false,false,1439,image-keyboard-response,20
true,11,1,1,0,false,q,true,true,0.0-2.0-0.40-0.360-3.360,0,0,0,90,false,stim,false,2,1367,1,0,0,38448,task2,1655796,false,true,1442,image-keyboard-response,21
true,11,0,1,0,true,q,false,true,0.0-2.0-0.40-0.361-3.361,0,0,0,81,false,stim,false,2,1467,1,0,1,38448,task2,1658786,false,false,1445,image-keyboard-response,22
true,11,1,1,1,true,z,false,true,0.0-2.0-0.40-0.362-3.362,0,0,0,90,false,stim,false,0,1547,1,0,2,38448,task2,1661867,false,false,1448,image-keyboard-response,23
true,11,1,1,1,true,z,false,true,0.0-2.0-0.40-0.363-3.363,0,0,0,90,false,stim,false,0,410,1,0,2,38448,task2,1663810,false,false,1451,image-keyboard-response,24
true,11,0,1,0,true,q,false,true,0.0-2.0-0.40-0.364-3.364,0,0,0,81,false,stim,false,2,2532,1,0,1,38448,task2,1667881,false,false,1454,image-keyboard-response,25
true,11,0,1,0,true,q,false,true,0.0-2.0-0.40-0.365-3.365,0,0,0,81,false,stim,false,2,346,1,0,1,38448,task2,1669766,false,false,1457,image-keyboard-response,26
true,11,0,1,0,true,q,false,true,0.0-2.0-0.40-0.366-3.366,0,0,0,81,false,stim,false,2,665,1,0,0,38448,task2,1671963,false,false,1460,image-keyboard-response,27
true,11,0,1,0,true,q,false,true,0.0-2.0-0.40-0.367-3.367,0,0,0,81,false,stim,false,2,393,1,0,0,38448,task2,1673892,false,false,1463,image-keyboard-response,28
true,11,1,1,1,true,z,false,true,0.0-2.0-0.40-0.368-3.368,0,0,0,90,false,stim,false,0,571,1,0,2,38448,task2,1675990,false,false,1466,image-keyboard-response,29
true,11,0,1,0,true,q,false,false,0.0-2.0-0.41-0.369-3.369,0,0,0,81,false,stim,false,2,1458,1,1,1,38448,task2,1678977,false,true,1469,image-keyboard-response,30
true,11,1,1,1,true,z,false,true,0.0-2.0-0.41-0.370-3.370,0,0,0,90,false,stim,false,0,551,1,0,2,38448,task2,1681050,false,false,1472,image-keyboard-response,31
true,11,1,1,1,true,z,false,true,0.0-2.0-0.41-0.371-3.371,0,0,0,90,false,stim,false,0,369,1,0,2,38448,task2,1682949,false,false,1475,image-keyboard-response,32
true,11,1,1,1,true,z,false,true,0.0-2.0-0.41-0.372-3.372,0,0,0,90,false,stim,false,0,509,1,0,2,38448,task2,1684988,false,false,1478,image-keyboard-response,33
true,11,0,1,0,true,q,false,true,0.0-2.0-0.41-0.373-3.373,0,0,0,81,false,stim,false,2,674,1,1,1,38448,task2,1687196,false,false,1481,image-keyboard-response,34
true,12,0,2,1,false,z,false,false,0.0-2.0-0.41-0.374-3.374,0,1,0,81,true,stim,true,0,969,1,0,0,38448,task2,1689677,false,false,1484,image-keyboard-response,1
true,12,1,2,1,true,z,false,true,0.0-2.0-0.41-0.375-3.375,0,1,0,90,false,stim,false,0,562,1,0,0,38448,task2,1691771,false,false,1487,image-keyboard-response,2
true,12,1,2,1,true,z,false,true,0.0-2.0-0.41-0.376-3.376,0,1,0,90,false,stim,false,0,515,1,0,0,38448,task2,1693824,false,false,1490,image-keyboard-response,3
true,12,0,2,0,true,q,false,false,0.0-2.0-0.41-0.377-3.377,0,1,0,81,false,stim,false,0,1774,1,1,1,38448,task2,1697133,false,true,1493,image-keyboard-response,4
true,12,0,2,2,false,d,true,false,0.0-2.0-0.42-0.378-3.378,0,1,0,81,false,stim,false,1,851,1,0,2,38448,task2,1699511,false,false,1496,image-keyboard-response,5
true,12,1,2,2,false,d,false,false,0.0-2.0-0.42-0.379-3.379,0,1,0,90,false,stim,true,1,2028,1,0,2,38448,task2,1703070,false,false,1499,image-keyboard-response,6
true,12,0,2,2,false,d,true,false,0.0-2.0-0.42-0.380-3.380,0,1,0,81,false,stim,false,1,907,1,0,2,38448,task2,1705507,false,false,1502,image-keyboard-response,7
true,12,1,2,0,false,q,true,false,0.0-2.0-0.42-0.381-3.381,0,1,0,90,false,stim,false,0,869,1,1,1,38448,task2,1707908,false,false,1505,image-keyboard-response,8
true,12,1,2,1,true,z,false,true,0.0-2.0-0.42-0.382-3.382,0,1,0,90,false,stim,false,0,821,1,0,0,38448,task2,1710260,false,false,1508,image-keyboard-response,9
true,12,2,2,0,false,q,true,false,0.0-2.0-0.42-0.383-3.383,0,1,0,68,false,stim,false,0,2484,1,1,1,38448,task2,1714283,false,false,1511,image-keyboard-response,10
true,12,1,2,1,true,z,false,true,0.0-2.0-0.42-0.384-3.384,0,1,0,90,false,stim,false,0,658,1,0,0,38448,task2,1716477,false,false,1514,image-keyboard-response,11
true,12,1,2,0,false,q,true,false,0.0-2.0-0.42-0.385-3.385,0,1,0,90,false,stim,false,0,509,1,1,1,38448,task2,1718509,false,false,1517,image-keyboard-response,12
true,12,1,2,1,true,z,false,true,0.0-2.0-0.42-0.386-3.386,0,1,0,90,false,stim,false,0,562,1,0,0,38448,task2,1720602,false,false,1520,image-keyboard-response,13
true,12,0,2,2,false,d,true,false,0.0-2.0-0.43-0.387-3.387,0,1,0,81,false,stim,false,1,566,1,0,2,38448,task2,1722700,false,false,1523,image-keyboard-response,14
true,12,1,2,1,true,z,false,false,0.0-2.0-0.43-0.388-3.388,0,1,0,90,false,stim,false,0,459,1,0,0,38448,task2,1724699,false,true,1526,image-keyboard-response,15
true,12,1,2,0,false,q,true,false,0.0-2.0-0.43-0.389-3.389,0,1,0,90,false,stim,false,0,342,1,1,1,38448,task2,1726583,false,false,1529,image-keyboard-response,16
true,12,0,2,1,false,z,false,false,0.0-2.0-0.43-0.390-3.390,0,1,0,81,false,stim,true,0,596,1,0,0,38448,task2,1728715,false,false,1532,image-keyboard-response,17
true,12,2,2,1,false,z,true,false,0.0-2.0-0.43-0.391-3.391,0,1,0,68,false,stim,false,0,464,1,0,0,38448,task2,1730705,false,false,1535,image-keyboard-response,18
true,12,2,2,2,true,d,false,true,0.0-2.0-0.43-0.392-3.392,0,1,0,68,false,stim,false,1,886,1,0,2,38448,task2,1733126,false,false,1538,image-keyboard-response,19
true,12,1,2,0,false,q,true,false,0.0-2.0-0.43-0.393-3.393,0,1,0,90,false,stim,false,0,894,1,1,1,38448,task2,1735553,false,false,1541,image-keyboard-response,20
true,12,2,2,2,true,d,false,true,0.0-2.0-0.43-0.394-3.394,0,1,0,68,false,stim,false,1,423,1,0,2,38448,task2,1737502,false,false,1544,image-keyboard-response,21
true,12,0,2,0,true,q,false,false,0.0-2.0-0.43-0.395-3.395,0,1,0,81,false,stim,false,0,815,1,1,1,38448,task2,1739855,false,true,1547,image-keyboard-response,22
true,12,2,2,2,true,d,false,true,0.0-2.0-0.44-0.396-3.396,0,1,0,68,false,stim,false,1,60,1,0,2,38448,task2,1741440,false,false,1550,image-keyboard-response,23
true,12,2,2,1,false,z,true,false,0.0-2.0-0.44-0.397-3.397,0,1,0,68,false,stim,false,0,129,1,0,0,38448,task2,1743100,false,false,1553,image-keyboard-response,24
true,12,2,2,2,true,d,false,true,0.0-2.0-0.44-0.398-3.398,0,1,0,68,false,stim,false,1,270,1,0,2,38448,task2,1744899,false,false,1556,image-keyboard-response,25
true,12,2,2,1,false,z,true,true,0.0-2.0-0.44-0.399-3.399,0,1,0,68,false,stim,false,0,130,1,0,0,38448,task2,1746559,false,true,1559,image-keyboard-response,26
true,12,2,2,0,false,q,true,false,0.0-2.0-0.44-0.400-3.400,0,1,0,68,false,stim,false,0,168,1,1,1,38448,task2,1748248,false,false,1562,image-keyboard-response,27
true,12,2,2,2,true,d,false,true,0.0-2.0-0.44-0.401-3.401,0,1,0,68,false,stim,false,1,361,1,0,2,38448,task2,1750141,false,false,1565,image-keyboard-response,28
true,12,2,2,1,false,z,true,false,0.0-2.0-0.44-0.402-3.402,0,1,0,68,false,stim,false,0,436,1,0,0,38448,task2,1752106,false,false,1568,image-keyboard-response,29
true,12,1,2,0,false,q,true,false,0.0-2.0-0.44-0.403-3.403,0,1,0,90,false,stim,false,0,902,1,1,1,38448,task2,1754533,false,false,1571,image-keyboard-response,30
true,12,0,2,0,true,q,false,true,0.0-2.0-0.44-0.404-3.404,0,1,0,81,false,stim,false,0,577,1,0,1,38448,task2,1756646,false,false,1574,image-keyboard-response,31
true,12,0,2,0,true,q,false,true,0.0-2.0-0.45-0.405-3.405,0,1,0,81,false,stim,false,0,341,1,0,1,38448,task2,1758510,false,false,1577,image-keyboard-response,32
true,12,0,2,0,true,q,false,true,0.0-2.0-0.45-0.406-3.406,0,1,0,81,false,stim,false,0,439,1,0,1,38448,task2,1760479,false,false,1580,image-keyboard-response,33
true,12,0,2,0,true,q,false,true,0.0-2.0-0.45-0.407-3.407,0,1,0,81,false,stim,false,0,408,1,0,1,38448,task2,1762427,false,false,1583,image-keyboard-response,34
true,12,2,2,2,true,d,false,false,0.0-2.0-0.45-0.408-3.408,0,1,0,68,false,stim,false,1,870,1,1,2,38448,task2,1764829,false,true,1586,image-keyboard-response,35
true,13,2,2,0,false,q,true,false,0.0-2.0-0.45-0.409-3.409,0,0,1,68,true,stim,false,1,638,1,0,0,38448,task2,1766988,false,false,1589,image-keyboard-response,1
true,13,1,2,0,false,q,false,false,0.0-2.0-0.45-0.410-3.410,0,0,1,90,false,stim,true,1,650,1,0,0,38448,task2,1769180,false,false,1592,image-keyboard-response,2
true,13,2,2,2,true,d,false,true,0.0-2.0-0.45-0.411-3.411,0,0,1,68,false,stim,false,2,531,1,1,2,38448,task2,1771241,false,false,1595,image-keyboard-response,3
true,13,0,2,0,true,q,false,true,0.0-2.0-0.45-0.412-3.412,0,0,1,81,false,stim,false,1,732,1,0,0,38448,task2,1773502,false,false,1598,image-keyboard-response,4
true,13,2,2,2,true,d,false,true,0.0-2.0-0.45-0.413-3.413,0,0,1,68,false,stim,false,2,473,1,1,2,38448,task2,1775510,false,false,1601,image-keyboard-response,5
true,13,2,2,1,false,z,true,false,0.0-2.0-0.46-0.414-3.414,0,0,1,68,false,stim,false,0,1565,1,0,1,38448,task2,1778615,false,false,1604,image-keyboard-response,6
true,13,0,2,1,false,z,false,false,0.0-2.0-0.46-0.415-3.415,0,0,1,81,false,stim,true,0,604,1,0,1,38448,task2,1780743,false,false,1607,image-keyboard-response,7
true,13,2,2,0,false,q,true,false,0.0-2.0-0.46-0.416-3.416,0,0,1,68,false,stim,false,1,590,1,0,0,38448,task2,1782871,false,false,1610,image-keyboard-response,8
true,13,2,2,2,true,d,false,true,0.0-2.0-0.46-0.417-3.417,0,0,1,68,false,stim,false,2,710,1,1,2,38448,task2,1785120,false,false,1613,image-keyboard-response,9
true,13,0,2,2,false,d,true,true,0.0-2.0-0.46-0.418-3.418,0,0,1,81,false,stim,false,2,2626,1,1,2,38448,task2,1789275,false,true,1616,image-keyboard-response,10
true,13,0,2,0,true,q,false,true,0.0-2.0-0.46-0.419-3.419,0,0,1,81,false,stim,false,1,2054,1,0,0,38448,task2,1792865,false,false,1619,image-keyboard-response,11
true,13,0,2,2,false,d,true,false,0.0-2.0-0.46-0.420-3.420,0,0,1,81,false,stim,false,2,2931,1,1,2,38448,task2,1797319,false,false,1622,image-keyboard-response,12
true,13,0,2,0,true,q,false,true,0.0-2.0-0.46-0.421-3.421,0,0,1,81,false,stim,false,1,883,1,0,0,38448,task2,1799732,false,false,1625,image-keyboard-response,13
true,13,2,2,1,false,z,true,false,0.0-2.0-0.46-0.422-3.422,0,0,1,68,false,stim,false,0,651,1,0,1,38448,task2,1801919,false,false,1628,image-keyboard-response,14
true,13,0,2,1,false,z,false,false,0.0-2.0-0.47-0.423-3.423,0,0,1,81,false,stim,true,0,459,1,0,1,38448,task2,1803908,false,false,1631,image-keyboard-response,15
true,13,0,2,0,true,q,false,true,0.0-2.0-0.47-0.424-3.424,0,0,1,81,false,stim,false,1,586,1,0,0,38448,task2,1806027,false,false,1634,image-keyboard-response,16
true,13,2,2,1,false,z,true,false,0.0-2.0-0.47-0.425-3.425,0,0,1,68,false,stim,false,0,711,1,0,1,38448,task2,1808269,false,false,1637,image-keyboard-response,17
true,13,2,2,2,true,d,false,false,0.0-2.0-0.47-0.426-3.426,0,0,1,68,false,stim,false,2,687,1,1,2,38448,task2,1810487,false,true,1640,image-keyboard-response,18
true,13,1,2,1,true,z,false,true,0.0-2.0-0.47-0.427-3.427,0,0,1,90,false,stim,false,0,655,1,0,1,38448,task2,1812675,false,false,1643,image-keyboard-response,19
true,13,1,2,0,false,q,false,false,0.0-2.0-0.47-0.428-3.428,0,0,1,90,false,stim,true,1,385,1,0,0,38448,task2,1814584,false,false,1646,image-keyboard-response,20
true,13,1,2,2,false,d,true,false,0.0-2.0-0.47-0.429-3.429,0,0,1,90,false,stim,false,2,333,1,1,2,38448,task2,1816453,false,false,1649,image-keyboard-response,21
true,13,2,2,2,true,d,false,true,0.0-2.0-0.47-0.430-3.430,0,0,1,68,false,stim,false,2,487,1,1,2,38448,task2,1818467,false,false,1652,image-keyboard-response,22
true,13,0,2,0,true,q,false,true,0.0-2.0-0.47-0.431-3.431,0,0,1,81,false,stim,false,1,819,1,0,0,38448,task2,1820809,false,false,1655,image-keyboard-response,23
true,13,2,2,2,true,d,false,true,0.0-2.0-0.48-0.432-3.432,0,0,1,68,false,stim,false,2,671,1,1,2,38448,task2,1823021,false,false,1658,image-keyboard-response,24
true,13,0,2,0,true,q,false,true,0.0-2.0-0.48-0.433-3.433,0,0,1,81,false,stim,false,1,590,1,0,0,38448,task2,1825140,false,false,1661,image-keyboard-response,25
true,13,1,2,1,true,z,false,true,0.0-2.0-0.48-0.434-3.434,0,0,1,90,false,stim,false,0,513,1,0,1,38448,task2,1827183,false,false,1664,image-keyboard-response,26
true,13,1,2,1,true,z,false,true,0.0-2.0-0.48-0.435-3.435,0,0,1,90,false,stim,false,0,846,1,1,1,38448,task2,1829556,false,false,1667,image-keyboard-response,27
true,13,0,2,0,true,q,false,true,0.0-2.0-0.48-0.436-3.436,0,0,1,81,false,stim,false,1,762,1,0,0,38448,task2,1831853,false,false,1670,image-keyboard-response,28
true,13,0,2,0,true,q,false,true,0.0-2.0-0.48-0.437-3.437,0,0,1,81,false,stim,false,1,441,1,0,0,38448,task2,1833831,false,false,1673,image-keyboard-response,29
true,13,2,2,2,true,d,false,true,0.0-2.0-0.48-0.438-3.438,0,0,1,68,false,stim,false,2,685,1,0,2,38448,task2,1836055,false,false,1676,image-keyboard-response,30
true,13,1,2,1,true,z,false,false,0.0-2.0-0.48-0.439-3.439,0,0,1,90,false,stim,false,0,732,1,1,1,38448,task2,1838321,false,true,1679,image-keyboard-response,31
true,14,2,2,1,false,z,false,false,0.0-2.0-0.48-0.440-3.440,0,1,0,68,true,stim,true,2,680,1,0,2,38448,task2,1840540,false,false,1682,image-keyboard-response,1
true,14,2,2,1,false,z,false,false,0.0-2.0-0.49-0.441-3.441,0,1,0,68,false,stim,true,2,423,1,0,2,38448,task2,1842503,false,false,1685,image-keyboard-response,2
true,14,2,2,1,false,z,true,false,0.0-2.0-0.49-0.442-3.442,0,1,0,68,false,stim,false,1,780,1,1,1,38448,task2,1844820,false,false,1688,image-keyboard-response,3
true,14,0,2,1,false,z,true,true,0.0-2.0-0.49-0.443-3.443,0,1,0,81,false,stim,false,2,650,1,0,2,38448,task2,1847005,false,true,1691,image-keyboard-response,4
true,14,0,2,2,false,d,false,false,0.0-2.0-0.49-0.444-3.444,0,1,0,81,false,stim,true,0,422,1,0,0,38448,task2,1848952,false,false,1694,image-keyboard-response,5
true,14,0,2,1,false,z,true,false,0.0-2.0-0.49-0.445-3.445,0,1,0,81,false,stim,false,2,347,1,0,2,38448,task2,1850837,false,false,1697,image-keyboard-response,6
true,14,0,2,2,false,d,false,false,0.0-2.0-0.49-0.446-3.446,0,1,0,81,false,stim,true,0,888,1,0,0,38448,task2,1853254,false,false,1700,image-keyboard-response,7
true,14,0,2,1,false,z,true,true,0.0-2.0-0.49-0.447-3.447,0,1,0,81,false,stim,false,1,857,1,1,1,38448,task2,1855647,false,true,1703,image-keyboard-response,8
true,14,0,2,1,false,z,true,false,0.0-2.0-0.49-0.448-3.448,0,1,0,81,false,stim,false,1,395,1,1,1,38448,task2,1857565,false,false,1706,image-keyboard-response,9
true,14,1,2,2,false,d,true,false,0.0-2.0-0.49-0.449-3.449,0,1,0,90,false,stim,false,0,685,1,0,0,38448,task2,1859773,false,false,1709,image-keyboard-response,10
true,14,2,2,2,true,d,false,true,0.0-2.0-0.50-0.450-3.450,0,1,0,68,false,stim,false,0,427,1,0,0,38448,task2,1861736,false,false,1712,image-keyboard-response,11
true,14,2,2,1,false,z,true,false,0.0-2.0-0.50-0.451-3.451,0,1,0,68,false,stim,false,1,546,1,1,1,38448,task2,1863815,false,false,1715,image-keyboard-response,12
true,14,0,2,1,false,z,true,false,0.0-2.0-0.50-0.452-3.452,0,1,0,81,false,stim,false,1,738,1,1,1,38448,task2,1866079,false,false,1718,image-keyboard-response,13
true,14,2,2,1,false,z,false,false,0.0-2.0-0.50-0.453-3.453,0,1,0,68,false,stim,true,2,666,1,0,2,38448,task2,1868286,false,false,1721,image-keyboard-response,14
true,14,2,2,2,true,d,false,true,0.0-2.0-0.50-0.454-3.454,0,1,0,68,false,stim,false,0,385,1,0,0,38448,task2,1870204,false,false,1724,image-keyboard-response,15
true,14,1,2,1,true,z,false,true,0.0-2.0-0.50-0.455-3.455,0,1,0,90,false,stim,false,2,508,1,0,2,38448,task2,1872248,false,false,1727,image-keyboard-response,16
true,14,1,2,1,true,z,false,true,0.0-2.0-0.50-0.456-3.456,0,1,0,90,false,stim,false,2,438,1,0,2,38448,task2,1874217,false,false,1730,image-keyboard-response,17
true,14,2,2,2,true,d,false,true,0.0-2.0-0.50-0.457-3.457,0,1,0,68,false,stim,false,0,973,1,0,0,38448,task2,1876713,false,false,1733,image-keyboard-response,18
true,14,1,2,1,true,z,false,true,0.0-2.0-0.50-0.458-3.458,0,1,0,90,false,stim,false,1,643,1,1,1,38448,task2,1878883,false,false,1736,image-keyboard-response,19
true,14,2,2,2,true,d,false,true,0.0-2.0-0.51-0.459-3.459,0,1,0,68,false,stim,false,0,550,1,0,0,38448,task2,1880970,false,false,1739,image-keyboard-response,20
true,14,1,2,1,true,z,false,false,0.0-2.0-0.51-0.460-3.460,0,1,0,90,false,stim,false,1,837,1,1,1,38448,task2,1883338,false,true,1742,image-keyboard-response,21
true,14,2,2,2,true,d,false,true,0.0-2.0-0.51-0.461-3.461,0,1,0,68,false,stim,false,0,201,1,0,0,38448,task2,1885082,false,false,1745,image-keyboard-response,22
true,14,2,2,1,false,z,false,false,0.0-2.0-0.51-0.462-3.462,0,1,0,68,false,stim,true,2,580,1,0,2,38448,task2,1887200,false,false,1748,image-keyboard-response,23
true,14,1,2,1,true,z,false,true,0.0-2.0-0.51-0.463-3.463,0,1,0,90,false,stim,false,1,873,1,1,1,38448,task2,1889612,false,false,1751,image-keyboard-response,24
true,14,1,2,1,true,z,false,true,0.0-2.0-0.51-0.464-3.464,0,1,0,90,false,stim,false,1,440,1,1,1,38448,task2,1891581,false,false,1754,image-keyboard-response,25
true,14,2,2,1,false,z,false,false,0.0-2.0-0.51-0.465-3.465,0,1,0,68,false,stim,true,2,621,1,0,2,38448,task2,1893740,false,false,1757,image-keyboard-response,26
true,14,0,2,1,false,z,true,false,0.0-2.0-0.51-0.466-3.466,0,1,0,81,false,stim,false,2,966,1,0,2,38448,task2,1896247,false,false,1760,image-keyboard-response,27
true,14,2,2,2,true,d,false,true,0.0-2.0-0.51-0.467-3.467,0,1,0,68,false,stim,false,0,848,1,1,0,38448,task2,1898619,false,false,1763,image-keyboard-response,28
true,14,2,2,1,false,z,true,false,0.0-2.0-0.52-0.468-3.468,0,1,0,68,false,stim,false,1,652,1,0,1,38448,task2,1900802,false,false,1766,image-keyboard-response,29
true,14,1,2,1,true,z,false,true,0.0-2.0-0.52-0.469-3.469,0,1,0,90,false,stim,false,1,705,1,0,1,38448,task2,1903035,false,false,1769,image-keyboard-response,30
true,14,1,2,1,true,z,false,false,0.0-2.0-0.52-0.470-3.470,0,1,0,90,false,stim,false,1,453,1,0,1,38448,task2,1905022,false,true,1772,image-keyboard-response,31
true,15,2,2,2,true,d,false,true,0.0-2.0-0.52-0.471-3.471,1,0,0,68,true,stim,false,1,422,1,0,2,38448,task2,1906972,false,false,1775,image-keyboard-response,1
true,15,1,2,2,false,d,true,false,0.0-2.0-0.52-0.472-3.472,1,0,0,90,false,stim,false,2,799,1,1,0,38448,task2,1909309,false,false,1778,image-keyboard-response,2
true,15,2,2,2,true,d,false,false,0.0-2.0-0.52-0.473-3.473,1,0,0,68,false,stim,false,1,384,1,0,2,38448,task2,1911213,false,true,1781,image-keyboard-response,3
true,15,2,2,2,true,d,false,true,0.0-2.0-0.52-0.474-3.474,1,0,0,68,false,stim,false,2,543,1,1,0,38448,task2,1913291,false,false,1784,image-keyboard-response,4
true,15,2,2,2,true,d,false,true,0.0-2.0-0.52-0.475-3.475,1,0,0,68,false,stim,false,2,441,1,1,0,38448,task2,1915270,false,false,1787,image-keyboard-response,5
true,15,2,2,2,true,d,false,true,0.0-2.0-0.52-0.476-3.476,1,0,0,68,false,stim,false,1,583,1,0,2,38448,task2,1917392,false,false,1790,image-keyboard-response,6
true,15,2,2,0,false,q,true,false,0.0-2.0-0.53-0.477-3.477,1,0,0,68,false,stim,false,1,232,1,0,1,38448,task2,1919162,false,false,1793,image-keyboard-response,7
true,15,0,2,0,true,q,false,true,0.0-2.0-0.53-0.478-3.478,1,0,0,81,false,stim,false,1,431,1,0,1,38448,task2,1921120,false,false,1796,image-keyboard-response,8
true,15,2,2,2,true,d,false,true,0.0-2.0-0.53-0.479-3.479,1,0,0,68,false,stim,false,2,564,1,1,0,38448,task2,1923214,false,false,1799,image-keyboard-response,9
true,15,2,2,2,true,d,false,true,0.0-2.0-0.53-0.480-3.480,1,0,0,68,false,stim,false,1,1196,1,0,2,38448,task2,1925946,false,false,1802,image-keyboard-response,10
true,15,2,2,2,true,d,false,true,0.0-2.0-0.53-0.481-3.481,1,0,0,68,false,stim,false,2,1639,1,1,0,38448,task2,1929110,false,false,1805,image-keyboard-response,11
true,15,2,2,2,true,d,false,true,0.0-2.0-0.53-0.482-3.482,1,0,0,68,false,stim,false,1,788,1,0,2,38448,task2,1931428,false,false,1808,image-keyboard-response,12
true,15,2,2,2,true,d,false,true,0.0-2.0-0.53-0.483-3.483,1,0,0,68,false,stim,false,2,627,1,1,0,38448,task2,1933586,false,false,1811,image-keyboard-response,13
true,15,2,2,0,false,q,true,false,0.0-2.0-0.53-0.484-3.484,1,0,0,68,false,stim,false,1,728,1,0,1,38448,task2,1935848,false,false,1814,image-keyboard-response,14
true,15,2,2,2,true,d,false,true,0.0-2.0-0.53-0.485-3.485,1,0,0,68,false,stim,false,1,323,1,0,2,38448,task2,1937703,false,false,1817,image-keyboard-response,15
true,15,2,2,2,true,d,false,true,0.0-2.0-0.54-0.486-3.486,1,0,0,68,false,stim,false,2,860,1,1,0,38448,task2,1940100,false,false,1820,image-keyboard-response,16
true,15,0,2,0,true,q,false,true,0.0-2.0-0.54-0.487-3.487,1,0,0,81,false,stim,false,1,1121,1,0,1,38448,task2,1942761,false,false,1823,image-keyboard-response,17
true,15,2,2,2,true,d,false,true,0.0-2.0-0.54-0.488-3.488,1,0,0,68,false,stim,false,1,605,1,0,2,38448,task2,1944904,false,false,1826,image-keyboard-response,18
true,15,2,2,0,false,q,true,false,0.0-2.0-0.54-0.489-3.489,1,0,0,68,false,stim,false,1,1386,1,0,1,38448,task2,1947825,false,false,1829,image-keyboard-response,19
true,15,2,2,2,true,d,false,true,0.0-2.0-0.54-0.490-3.490,1,0,0,68,false,stim,false,2,534,1,1,0,38448,task2,1949893,false,false,1832,image-keyboard-response,20
true,15,0,2,0,true,q,false,false,0.0-2.0-0.54-0.491-3.491,1,0,0,81,false,stim,false,1,1041,1,0,1,38448,task2,1952470,false,true,1835,image-keyboard-response,21
true,15,2,2,2,true,d,false,true,0.0-2.0-0.54-0.492-3.492,1,0,0,68,false,stim,false,2,718,1,1,0,38448,task2,1954728,false,false,1838,image-keyboard-response,22
true,15,2,2,2,true,d,false,true,0.0-2.0-0.54-0.493-3.493,1,0,0,68,false,stim,false,1,1523,1,0,2,38448,task2,1957792,false,false,1841,image-keyboard-response,23
true,15,2,2,2,true,d,false,true,0.0-2.0-0.54-0.494-3.494,1,0,0,68,false,stim,false,1,343,1,0,2,38448,task2,1959663,false,false,1844,image-keyboard-response,24
true,15,2,2,2,true,d,false,true,0.0-2.0-0.55-0.495-3.495,1,0,0,68,false,stim,false,1,939,1,0,2,38448,task2,1962139,false,false,1847,image-keyboard-response,25
true,15,2,2,0,false,q,true,false,0.0-2.0-0.55-0.496-3.496,1,0,0,68,false,stim,false,1,2107,1,0,1,38448,task2,1965787,false,false,1850,image-keyboard-response,26
true,15,0,2,2,false,d,true,false,0.0-2.0-0.55-0.497-3.497,1,0,0,81,false,stim,false,1,2066,1,0,2,38448,task2,1969395,false,false,1853,image-keyboard-response,27
true,15,0,2,0,true,q,false,true,0.0-2.0-0.55-0.498-3.498,1,0,0,81,false,stim,false,1,748,1,0,1,38448,task2,1971678,false,false,1856,image-keyboard-response,28
true,15,2,2,2,true,d,false,true,0.0-2.0-0.55-0.499-3.499,1,0,0,68,false,stim,false,2,741,1,1,0,38448,task2,1973950,false,false,1859,image-keyboard-response,29
true,15,2,2,2,true,d,false,true,0.0-2.0-0.55-0.500-3.500,1,0,0,68,false,stim,false,2,360,1,1,0,38448,task2,1975850,false,false,1862,image-keyboard-response,30
true,15,2,2,0,false,q,true,false,0.0-2.0-0.55-0.501-3.501,1,0,0,68,false,stim,false,1,2581,1,1,1,38448,task2,1979970,false,false,1865,image-keyboard-response,31
true,15,2,2,2,true,d,false,true,0.0-2.0-0.55-0.502-3.502,1,0,0,68,false,stim,false,2,435,1,1,0,38448,task2,1981945,false,false,1868,image-keyboard-response,32
true,15,2,2,2,true,d,false,true,0.0-2.0-0.55-0.503-3.503,1,0,0,68,false,stim,false,1,609,1,1,2,38448,task2,1984078,false,false,1871,image-keyboard-response,33
true,16,0,0,0,true,q,false,true,0.0-2.0-0.56-0.504-3.504,1,1,1,81,true,stim,false,0,1652,1,1,1,38448,task2,2109471,false,false,1994,image-keyboard-response,1
true,16,2,0,2,true,d,false,true,0.0-2.0-0.56-0.505-3.505,1,1,1,68,false,stim,false,2,872,1,1,2,38448,task2,2111872,false,false,1997,image-keyboard-response,2
true,16,0,0,0,true,q,false,true,0.0-2.0-0.56-0.506-3.506,1,1,1,81,false,stim,false,0,1473,1,1,1,38448,task2,2114873,false,false,2000,image-keyboard-response,3
true,16,2,0,2,true,d,false,true,0.0-2.0-0.56-0.507-3.507,1,1,1,68,false,stim,false,2,859,1,1,2,38448,task2,2117270,false,false,2003,image-keyboard-response,4
true,16,2,0,2,true,d,false,true,0.0-2.0-0.56-0.508-3.508,1,1,1,68,false,stim,false,2,777,1,1,0,38448,task2,2119577,false,false,2006,image-keyboard-response,5
true,16,2,0,2,true,d,false,true,0.0-2.0-0.56-0.509-3.509,1,1,1,68,false,stim,false,2,546,1,1,0,38448,task2,2121666,false,false,2009,image-keyboard-response,6
true,16,2,0,2,true,d,false,true,0.0-2.0-0.56-0.510-3.510,1,1,1,68,false,stim,false,2,1878,1,1,0,38448,task2,2125072,false,false,2012,image-keyboard-response,7
true,16,0,0,0,true,q,false,true,0.0-2.0-0.56-0.511-3.511,1,1,1,81,false,stim,false,0,1939,1,1,1,38448,task2,2128550,false,false,2015,image-keyboard-response,8
true,16,2,0,2,true,d,false,true,0.0-2.0-0.56-0.512-3.512,1,1,1,68,false,stim,false,2,1869,1,0,2,38448,task2,2131958,false,false,2018,image-keyboard-response,9
true,16,2,0,2,true,d,false,false,0.0-2.0-0.57-0.513-3.513,1,1,1,68,false,stim,false,2,2409,1,0,2,38448,task2,2135910,false,true,2021,image-keyboard-response,10
true,16,0,0,2,false,d,true,false,0.0-2.0-0.57-0.514-3.514,1,1,1,81,false,stim,false,2,728,1,0,2,38448,task2,2138168,false,false,2024,image-keyboard-response,11
true,16,2,0,2,true,d,false,true,0.0-2.0-0.57-0.515-3.515,1,1,1,68,false,stim,false,2,751,1,0,0,38448,task2,2140450,false,false,2027,image-keyboard-response,12
true,16,0,0,0,true,q,false,true,0.0-2.0-0.57-0.516-3.516,1,1,1,81,false,stim,false,0,703,1,0,1,38448,task2,2142682,false,false,2030,image-keyboard-response,13
true,17,0,1,2,false,d,false,false,0.0-2.0-0.57-0.517-3.517,0,0,0,81,true,stim,true,0,487,1,0,1,38448,task2,2144707,false,false,2033,image-keyboard-response,1
true,17,0,1,2,false,d,false,false,0.0-2.0-0.57-0.518-3.518,0,0,0,81,false,stim,true,0,449,1,0,1,38448,task2,2146685,false,false,2036,image-keyboard-response,2
true,17,2,1,0,false,q,false,false,0.0-2.0-0.57-0.519-3.519,0,0,0,68,false,stim,true,2,712,1,0,0,38448,task2,2148922,false,false,2039,image-keyboard-response,3
true,17,1,1,0,false,q,true,false,0.0-2.0-0.57-0.520-3.520,0,0,0,90,false,stim,false,2,381,1,0,0,38448,task2,2150831,false,false,2042,image-keyboard-response,4
true,17,1,1,1,true,z,false,true,0.0-2.0-0.57-0.521-3.521,0,0,0,90,false,stim,false,2,585,1,0,2,38448,task2,2152954,false,false,2045,image-keyboard-response,5
true,17,1,1,1,true,z,false,true,0.0-2.0-0.58-0.522-3.522,0,0,0,90,false,stim,false,2,453,1,0,2,38448,task2,2154942,false,false,2048,image-keyboard-response,6
true,17,0,1,0,true,q,false,true,0.0-2.0-0.58-0.523-3.523,0,0,0,81,false,stim,false,2,616,1,0,0,38448,task2,2157085,false,false,2051,image-keyboard-response,7
true,17,0,1,2,false,d,false,false,0.0-2.0-0.58-0.524-3.524,0,0,0,81,false,stim,true,0,475,1,0,1,38448,task2,2159085,false,false,2054,image-keyboard-response,8
true,17,1,1,1,true,z,false,true,0.0-2.0-0.58-0.525-3.525,0,0,0,90,false,stim,false,2,548,1,0,2,38448,task2,2161158,false,false,2057,image-keyboard-response,9
true,17,0,1,0,true,q,false,true,0.0-2.0-0.58-0.526-3.526,0,0,0,81,false,stim,false,2,530,1,0,0,38448,task2,2163220,false,false,2060,image-keyboard-response,10
true,17,1,1,0,false,q,true,false,0.0-2.0-0.58-0.527-3.527,0,0,0,90,false,stim,false,2,459,1,0,0,38448,task2,2165219,false,false,2063,image-keyboard-response,11
true,17,1,1,1,true,z,false,true,0.0-2.0-0.58-0.528-3.528,0,0,0,90,false,stim,false,2,285,1,0,2,38448,task2,2167043,false,false,2066,image-keyboard-response,12
true,17,2,1,2,true,d,false,true,0.0-2.0-0.58-0.529-3.529,0,0,0,68,false,stim,false,0,1070,1,0,1,38448,task2,2169650,false,false,2069,image-keyboard-response,13
true,17,2,1,2,true,d,false,true,0.0-2.0-0.58-0.530-3.530,0,0,0,68,false,stim,false,0,518,1,0,1,38448,task2,2171694,false,false,2072,image-keyboard-response,14
true,17,1,1,1,true,z,false,false,0.0-2.0-0.59-0.531-3.531,0,0,0,90,false,stim,false,2,961,1,0,2,38448,task2,2174180,false,true,2075,image-keyboard-response,15
true,17,1,1,0,false,q,true,false,0.0-2.0-0.59-0.532-3.532,0,0,0,90,false,stim,false,2,494,1,0,0,38448,task2,2176213,false,false,2078,image-keyboard-response,16
true,17,0,1,0,true,q,false,true,0.0-2.0-0.59-0.533-3.533,0,0,0,81,false,stim,false,2,909,1,0,0,38448,task2,2178650,false,false,2081,image-keyboard-response,17
true,17,1,1,1,true,z,false,true,0.0-2.0-0.59-0.534-3.534,0,0,0,90,false,stim,false,2,782,1,0,2,38448,task2,2180964,false,false,2084,image-keyboard-response,18
true,17,2,1,2,true,d,false,true,0.0-2.0-0.59-0.535-3.535,0,0,0,68,false,stim,false,0,1084,1,0,1,38448,task2,2183574,false,false,2087,image-keyboard-response,19
true,17,0,1,0,true,q,false,true,0.0-2.0-0.59-0.536-3.536,0,0,0,81,false,stim,false,2,1763,1,0,0,38448,task2,2186874,false,false,2090,image-keyboard-response,20
true,17,2,1,2,true,d,false,true,0.0-2.0-0.59-0.537-3.537,0,0,0,68,false,stim,false,0,1214,1,0,1,38448,task2,2189624,false,false,2093,image-keyboard-response,21
true,17,1,1,1,true,z,false,true,0.0-2.0-0.59-0.538-3.538,0,0,0,90,false,stim,false,2,1290,1,0,2,38448,task2,2192440,false,false,2096,image-keyboard-response,22
true,17,2,1,2,true,d,false,true,0.0-2.0-0.59-0.539-3.539,0,0,0,68,false,stim,false,0,1969,1,0,1,38448,task2,2195940,false,false,2099,image-keyboard-response,23
true,17,0,1,0,true,q,false,true,0.0-2.0-0.60-0.540-3.540,0,0,0,81,false,stim,false,2,927,1,0,0,38448,task2,2198396,false,false,2102,image-keyboard-response,24
true,17,2,1,2,true,d,false,true,0.0-2.0-0.60-0.541-3.541,0,0,0,68,false,stim,false,0,1237,1,0,1,38448,task2,2201167,false,false,2105,image-keyboard-response,25
true,17,0,1,0,true,q,false,true,0.0-2.0-0.60-0.542-3.542,0,0,0,81,false,stim,false,2,1876,1,0,0,38448,task2,2204575,false,false,2108,image-keyboard-response,26
true,17,1,1,1,true,z,false,false,0.0-2.0-0.60-0.543-3.543,0,0,0,90,false,stim,false,2,614,1,0,2,38448,task2,2206704,false,true,2111,image-keyboard-response,27
true,17,1,1,1,true,z,false,true,0.0-2.0-0.60-0.544-3.544,0,0,0,90,false,stim,false,2,746,1,0,2,38448,task2,2208976,false,false,2114,image-keyboard-response,28
true,17,2,1,2,true,d,false,true,0.0-2.0-0.60-0.545-3.545,0,0,0,68,false,stim,false,0,1137,1,0,1,38448,task2,2211647,false,false,2117,image-keyboard-response,29
true,17,0,1,0,true,q,false,true,0.0-2.0-0.60-0.546-3.546,0,0,0,81,false,stim,false,2,1527,1,0,0,38448,task2,2214718,false,false,2120,image-keyboard-response,30
true,17,2,1,2,true,d,false,true,0.0-2.0-0.60-0.547-3.547,0,0,0,68,false,stim,false,0,1119,1,0,1,38448,task2,2217378,false,false,2123,image-keyboard-response,31
true,17,1,1,1,true,z,false,true,0.0-2.0-0.60-0.548-3.548,0,0,0,90,false,stim,false,2,887,1,0,2,38448,task2,2219786,false,false,2126,image-keyboard-response,32
true,17,2,1,1,false,z,false,true,0.0-2.0-0.61-0.549-3.549,0,0,0,68,false,stim,true,2,1003,1,0,2,38448,task2,2222323,false,true,2129,image-keyboard-response,33
true,17,2,1,1,false,z,false,false,0.0-2.0-0.61-0.550-3.550,0,0,0,68,false,stim,true,2,949,1,0,2,38448,task2,2224811,false,false,2132,image-keyboard-response,34
true,17,2,1,2,true,d,false,true,0.0-2.0-0.61-0.551-3.551,0,0,0,68,false,stim,false,0,1002,1,0,1,38448,task2,2227341,false,false,2135,image-keyboard-response,35
true,17,0,1,0,true,q,false,true,0.0-2.0-0.61-0.552-3.552,0,0,0,81,false,stim,false,2,694,1,0,0,38448,task2,2229574,false,false,2138,image-keyboard-response,36
true,17,0,1,0,true,q,false,false,0.0-2.0-0.61-0.553-3.553,0,0,0,81,false,stim,false,2,512,1,0,0,38448,task2,2231622,false,true,2141,image-keyboard-response,37
true,18,1,1,0,false,q,true,false,0.0-2.0-0.61-0.554-3.554,0,0,0,90,true,stim,false,2,705,1,0,1,38448,task2,2233855,false,false,2144,image-keyboard-response,1
true,18,2,1,0,false,q,true,false,0.0-2.0-0.61-0.555-3.555,0,0,0,68,false,stim,false,1,661,1,0,2,38448,task2,2236047,false,false,2147,image-keyboard-response,2
true,18,1,1,0,false,q,true,false,0.0-2.0-0.61-0.556-3.556,0,0,0,90,false,stim,false,2,500,1,0,1,38448,task2,2238081,false,false,2150,image-keyboard-response,3
true,18,2,1,1,false,z,true,false,0.0-2.0-0.61-0.557-3.557,0,0,0,68,false,stim,false,0,943,1,0,0,38448,task2,2240562,false,false,2153,image-keyboard-response,4
true,18,0,1,1,false,z,false,false,0.0-2.0-0.62-0.558-3.558,0,0,0,81,false,stim,true,0,416,1,0,0,38448,task2,2242507,false,false,2156,image-keyboard-response,5
true,18,0,1,0,true,q,false,true,0.0-2.0-0.62-0.559-3.559,0,0,0,81,false,stim,false,2,504,1,0,1,38448,task2,2244534,false,false,2159,image-keyboard-response,6
true,18,0,1,0,true,q,false,false,0.0-2.0-0.62-0.560-3.560,0,0,0,81,false,stim,false,2,374,1,0,1,38448,task2,2246443,false,true,2162,image-keyboard-response,7
true,18,0,1,0,true,q,false,true,0.0-2.0-0.62-0.561-3.561,0,0,0,81,false,stim,false,1,666,1,0,2,38448,task2,2248637,false,false,2165,image-keyboard-response,8
true,18,0,1,0,true,q,false,true,0.0-2.0-0.62-0.562-3.562,0,0,0,81,false,stim,false,2,530,1,0,1,38448,task2,2250699,false,false,2168,image-keyboard-response,9
true,18,1,1,1,true,z,false,true,0.0-2.0-0.62-0.563-3.563,0,0,0,90,false,stim,false,0,1423,1,0,0,38448,task2,2253644,false,false,2171,image-keyboard-response,10
true,18,1,1,1,true,z,false,true,0.0-2.0-0.62-0.564-3.564,0,0,0,90,false,stim,false,0,418,1,0,0,38448,task2,2255584,false,false,2174,image-keyboard-response,11
true,18,0,1,0,true,q,false,true,0.0-2.0-0.62-0.565-3.565,0,0,0,81,false,stim,false,1,843,1,0,2,38448,task2,2257954,false,false,2177,image-keyboard-response,12
true,18,0,1,0,true,q,false,true,0.0-2.0-0.62-0.566-3.566,0,0,0,81,false,stim,false,1,395,1,0,2,38448,task2,2259884,false,false,2180,image-keyboard-response,13
true,18,0,1,0,true,q,false,true,0.0-2.0-0.63-0.567-3.567,0,0,0,81,false,stim,false,1,412,1,0,2,38448,task2,2261823,false,false,2183,image-keyboard-response,14
true,18,0,1,0,true,q,false,true,0.0-2.0-0.63-0.568-3.568,0,0,0,81,false,stim,false,1,437,1,0,2,38448,task2,2263787,false,false,2186,image-keyboard-response,15
true,18,1,1,1,true,z,false,false,0.0-2.0-0.63-0.569-3.569,0,0,0,90,false,stim,false,0,570,1,0,0,38448,task2,2265900,false,true,2189,image-keyboard-response,16
true,18,0,1,0,true,q,false,false,0.0-2.0-0.63-0.570-3.570,0,0,0,81,false,stim,false,1,221,1,0,2,38448,task2,2267660,false,true,2192,image-keyboard-response,17
true,18,0,1,0,true,q,false,true,0.0-2.0-0.63-0.571-3.571,0,0,0,81,false,stim,false,2,611,1,0,1,38448,task2,2269811,false,false,2195,image-keyboard-response,18
true,18,0,1,1,false,z,false,false,0.0-2.0-0.63-0.572-3.572,0,0,0,81,false,stim,true,0,1810,1,0,0,38448,task2,2273151,false,false,2198,image-keyboard-response,19
true,18,0,1,0,true,q,false,true,0.0-2.0-0.63-0.573-3.573,0,0,0,81,false,stim,false,2,704,1,0,1,38448,task2,2275394,false,false,2201,image-keyboard-response,20
true,18,1,1,1,true,z,false,false,0.0-2.0-0.63-0.574-3.574,0,0,0,90,false,stim,false,0,572,1,0,0,38448,task2,2277501,false,true,2204,image-keyboard-response,21
true,18,0,1,0,true,q,false,true,0.0-2.0-0.63-0.575-3.575,0,0,0,81,false,stim,false,2,450,1,0,1,38448,task2,2279480,false,false,2207,image-keyboard-response,22
true,18,0,1,0,true,q,false,true,0.0-2.0-0.64-0.576-3.576,0,0,0,81,false,stim,false,1,1370,1,0,2,38448,task2,2282381,false,false,2210,image-keyboard-response,23
true,18,0,1,1,false,z,false,false,0.0-2.0-0.64-0.577-3.577,0,0,0,81,false,stim,true,0,1391,1,0,0,38448,task2,2285301,false,false,2213,image-keyboard-response,24
true,18,1,1,1,true,z,false,true,0.0-2.0-0.64-0.578-3.578,0,0,0,90,false,stim,false,0,1067,1,0,0,38448,task2,2287898,false,false,2216,image-keyboard-response,25
true,18,0,1,0,true,q,false,true,0.0-2.0-0.64-0.579-3.579,0,0,0,81,false,stim,false,2,859,1,0,1,38448,task2,2290290,false,false,2219,image-keyboard-response,26
true,18,0,1,0,true,q,false,true,0.0-2.0-0.64-0.580-3.580,0,0,0,81,false,stim,false,1,967,1,0,2,38448,task2,2292797,false,false,2222,image-keyboard-response,27
true,18,0,1,0,true,q,false,true,0.0-2.0-0.64-0.581-3.581,0,0,0,81,false,stim,false,2,850,1,0,1,38448,task2,2295179,false,false,2225,image-keyboard-response,28
true,18,0,1,0,true,q,false,true,0.0-2.0-0.64-0.582-3.582,0,0,0,81,false,stim,false,2,443,1,0,1,38448,task2,2297153,false,false,2228,image-keyboard-response,29
true,18,1,1,1,true,z,false,false,0.0-2.0-0.64-0.583-3.583,0,0,0,90,false,stim,false,0,1942,1,0,0,38448,task2,2300621,false,true,2231,image-keyboard-response,30
true,18,0,1,0,true,q,false,true,0.0-2.0-0.64-0.584-3.584,0,0,0,81,false,stim,false,1,590,1,0,2,38448,task2,2302750,false,false,2234,image-keyboard-response,31
true,18,0,1,0,true,q,false,true,0.0-2.0-0.65-0.585-3.585,0,0,0,81,false,stim,false,2,747,1,0,1,38448,task2,2305038,false,false,2237,image-keyboard-response,32
true,18,0,1,1,false,z,false,false,0.0-2.0-0.65-0.586-3.586,0,0,0,81,false,stim,true,0,1737,1,0,0,38448,task2,2308306,false,false,2240,image-keyboard-response,33
true,18,1,1,0,false,q,false,false,0.0-2.0-0.65-0.587-3.587,0,0,0,90,false,stim,true,1,555,1,0,2,38448,task2,2310405,false,false,2243,image-keyboard-response,34
true,18,0,1,1,false,z,false,false,0.0-2.0-0.65-0.588-3.588,0,0,0,81,false,stim,true,0,513,1,0,0,38448,task2,2312443,false,false,2246,image-keyboard-response,35
true,19,2,1,2,true,d,false,true,0.0-2.0-0.65-0.589-3.589,0,0,0,68,true,stim,false,1,710,1,0,0,38448,task2,2314681,false,false,2249,image-keyboard-response,1
true,19,0,1,1,false,z,false,false,0.0-2.0-0.65-0.590-3.590,0,0,0,81,false,stim,true,0,848,1,0,1,38448,task2,2317058,false,false,2252,image-keyboard-response,2
true,19,1,1,2,false,d,true,false,0.0-2.0-0.65-0.591-3.591,0,0,0,90,false,stim,false,0,511,1,0,2,38448,task2,2319102,false,false,2255,image-keyboard-response,3
true,19,2,1,1,false,z,true,false,0.0-2.0-0.65-0.592-3.592,0,0,0,68,false,stim,false,0,81,1,0,1,38448,task2,2320721,false,false,2258,image-keyboard-response,4
true,19,2,1,2,true,d,false,true,0.0-2.0-0.65-0.593-3.593,0,0,0,68,false,stim,false,0,874,1,0,2,38448,task2,2323133,false,false,2261,image-keyboard-response,5
true,19,2,1,2,true,d,false,true,0.0-2.0-0.66-0.594-3.594,0,0,0,68,false,stim,false,0,586,1,0,2,38448,task2,2325246,false,false,2264,image-keyboard-response,6
true,19,1,1,1,true,z,false,true,0.0-2.0-0.66-0.595-3.595,0,0,0,90,false,stim,false,0,954,1,0,1,38448,task2,2327733,false,false,2267,image-keyboard-response,7
true,19,1,1,1,true,z,false,true,0.0-2.0-0.66-0.596-3.596,0,0,0,90,false,stim,false,0,522,1,0,1,38448,task2,2329772,false,false,2270,image-keyboard-response,8
true,19,1,1,1,true,z,false,true,0.0-2.0-0.66-0.597-3.597,0,0,0,90,false,stim,false,0,446,1,0,1,38448,task2,2331756,false,false,2273,image-keyboard-response,9
true,19,2,1,2,true,d,false,true,0.0-2.0-0.66-0.598-3.598,0,0,0,68,false,stim,false,0,1700,1,0,2,38448,task2,2334980,false,false,2276,image-keyboard-response,10
true,19,2,1,2,true,d,false,true,0.0-2.0-0.66-0.599-3.599,0,0,0,68,false,stim,false,1,428,1,0,0,38448,task2,2336948,false,false,2279,image-keyboard-response,11
true,19,2,1,2,true,d,false,true,0.0-2.0-0.66-0.600-3.600,0,0,0,68,false,stim,false,0,447,1,0,2,38448,task2,2338938,false,false,2282,image-keyboard-response,12
true,19,2,1,2,true,d,false,true,0.0-2.0-0.66-0.601-3.601,0,0,0,68,false,stim,false,1,536,1,0,0,38448,task2,2341005,false,false,2285,image-keyboard-response,13
true,19,2,1,2,true,d,false,true,0.0-2.0-0.66-0.602-3.602,0,0,0,68,false,stim,false,1,368,1,0,0,38448,task2,2342899,false,false,2288,image-keyboard-response,14
true,19,2,1,2,true,d,false,true,0.0-2.0-0.67-0.603-3.603,0,0,0,68,false,stim,false,0,791,1,0,2,38448,task2,2345221,false,false,2291,image-keyboard-response,15
true,19,2,1,2,true,d,false,true,0.0-2.0-0.67-0.604-3.604,0,0,0,68,false,stim,false,1,456,1,0,0,38448,task2,2347216,false,false,2294,image-keyboard-response,16
true,19,2,1,1,false,z,true,false,0.0-2.0-0.67-0.605-3.605,0,0,0,68,false,stim,false,0,380,1,0,1,38448,task2,2349119,false,false,2297,image-keyboard-response,17
true,19,2,1,2,true,d,false,true,0.0-2.0-0.67-0.606-3.606,0,0,0,68,false,stim,false,1,413,1,0,0,38448,task2,2351073,false,false,2300,image-keyboard-response,18
true,19,2,1,1,false,z,true,false,0.0-2.0-0.67-0.607-3.607,0,0,0,68,false,stim,false,0,467,1,0,1,38448,task2,2353077,false,false,2303,image-keyboard-response,19
true,19,2,1,2,true,d,false,true,0.0-2.0-0.67-0.608-3.608,0,0,0,68,false,stim,false,1,326,1,0,0,38448,task2,2354935,false,false,2306,image-keyboard-response,20
true,19,2,1,2,true,d,false,true,0.0-2.0-0.67-0.609-3.609,0,0,0,68,false,stim,false,0,499,1,0,2,38448,task2,2356969,false,false,2309,image-keyboard-response,21
true,19,2,1,1,false,z,true,false,0.0-2.0-0.67-0.610-3.610,0,0,0,68,false,stim,false,0,422,1,0,1,38448,task2,2358922,false,false,2312,image-keyboard-response,22
true,19,2,1,2,true,d,false,true,0.0-2.0-0.67-0.611-3.611,0,0,0,68,false,stim,false,0,451,1,0,2,38448,task2,2360911,false,false,2315,image-keyboard-response,23
true,19,2,1,2,true,d,false,true,0.0-2.0-0.68-0.612-3.612,0,0,0,68,false,stim,false,0,385,1,0,2,38448,task2,2362824,false,false,2318,image-keyboard-response,24
true,19,2,1,1,false,z,true,false,0.0-2.0-0.68-0.613-3.613,0,0,0,68,false,stim,false,0,672,1,0,1,38448,task2,2365032,false,false,2321,image-keyboard-response,25
true,19,2,1,1,false,z,true,true,0.0-2.0-0.68-0.614-3.614,0,0,0,68,false,stim,false,0,436,1,0,1,38448,task2,2366996,false,true,2324,image-keyboard-response,26
true,19,2,1,2,true,d,false,false,0.0-2.0-0.68-0.615-3.615,0,0,0,68,false,stim,false,0,396,1,0,2,38448,task2,2368916,false,true,2327,image-keyboard-response,27
true,19,1,1,2,false,d,false,false,0.0-2.0-0.68-0.616-3.616,0,0,0,90,false,stim,true,1,702,1,0,0,38448,task2,2371142,false,false,2330,image-keyboard-response,28
true,19,0,1,2,false,d,false,true,0.0-2.0-0.68-0.617-3.617,0,0,0,81,false,stim,true,0,376,1,0,2,38448,task2,2373057,false,true,2333,image-keyboard-response,29
true,19,0,1,2,false,d,true,false,0.0-2.0-0.68-0.618-3.618,0,0,0,81,false,stim,false,1,709,1,0,0,38448,task2,2375290,false,false,2336,image-keyboard-response,30
true,19,1,1,2,false,d,false,false,0.0-2.0-0.68-0.619-3.619,0,0,0,90,false,stim,true,1,882,1,0,0,38448,task2,2377701,false,false,2339,image-keyboard-response,31
true,19,1,1,1,true,z,false,true,0.0-2.0-0.68-0.620-3.620,0,0,0,90,false,stim,false,0,1173,1,0,1,38448,task2,2380401,false,false,2342,image-keyboard-response,32
true,19,0,1,2,false,d,false,false,0.0-2.0-0.69-0.621-3.621,0,0,0,81,false,stim,true,0,515,1,0,2,38448,task2,2382446,false,false,2345,image-keyboard-response,33
true,19,0,1,2,false,d,false,false,0.0-2.0-0.69-0.622-3.622,0,0,0,81,false,stim,true,0,435,1,0,2,38448,task2,2384414,false,false,2348,image-keyboard-response,34
true,19,1,1,2,false,d,false,false,0.0-2.0-0.69-0.623-3.623,0,0,0,90,false,stim,true,1,522,1,1,0,38448,task2,2386482,false,false,2351,image-keyboard-response,35
true,19,2,1,1,false,z,true,false,0.0-2.0-0.69-0.624-3.624,0,0,0,68,false,stim,false,0,506,1,0,1,38448,task2,2388526,false,false,2354,image-keyboard-response,36
true,19,2,1,2,true,d,false,true,0.0-2.0-0.69-0.625-3.625,0,0,0,68,false,stim,false,0,1490,1,0,2,38448,task2,2391550,false,false,2357,image-keyboard-response,37
true,19,2,1,1,false,z,true,false,0.0-2.0-0.69-0.626-3.626,0,0,0,68,false,stim,false,0,1051,1,0,1,38448,task2,2394132,false,false,2360,image-keyboard-response,38
true,20,0,2,2,false,d,true,true,0.0-2.0-0.69-0.627-3.627,1,0,0,81,true,stim,false,1,891,1,0,1,38448,task2,2396550,false,true,2363,image-keyboard-response,1
true,20,2,2,2,true,d,false,true,0.0-2.0-0.69-0.628-3.628,1,0,0,68,false,stim,false,2,693,1,1,0,38448,task2,2398772,false,false,2366,image-keyboard-response,2
true,20,2,2,2,true,d,false,true,0.0-2.0-0.69-0.629-3.629,1,0,0,68,false,stim,false,2,341,1,1,0,38448,task2,2400651,false,false,2369,image-keyboard-response,3
true,20,2,2,2,true,d,false,true,0.0-2.0-0.70-0.630-3.630,1,0,0,68,false,stim,false,2,364,1,1,0,38448,task2,2402555,false,false,2372,image-keyboard-response,4
true,20,2,2,2,true,d,false,true,0.0-2.0-0.70-0.631-3.631,1,0,0,68,false,stim,false,1,862,1,0,1,38448,task2,2404953,false,false,2375,image-keyboard-response,5
