answered,blockNum,choice,condition,corResp,correct,correct_response,explo,fb,internal_node_id,isStable_1,isStable_2,isStable_3,key_press,newBlock,part,persev,persevResp,rt,sessNum,stableAS,stimulus,subject,task,time_elapsed,training,trap,trial_index,trial_type,trialsInBlock
true,1,0,0,1,false,z,true,false,0.0-2.0-0.0-0.0-3.0,0,0,0,81,true,stim,false,-1,1203,0,0,1,47540,task2,185235,false,false,139,image-keyboard-response,1
true,1,1,0,1,true,z,false,true,0.0-2.0-0.0-0.1-3.1,0,0,0,90,false,stim,false,-1,1211,0,0,1,47540,task2,187987,false,false,142,image-keyboard-response,2
true,1,1,0,1,true,z,false,false,0.0-2.0-0.0-0.2-3.2,0,0,0,90,false,stim,false,-1,787,0,0,1,47540,task2,190300,false,true,145,image-keyboard-response,3
true,1,0,0,2,false,d,true,false,0.0-2.0-0.0-0.3-3.3,0,0,0,81,false,stim,false,-1,849,0,0,0,47540,task2,192667,false,false,148,image-keyboard-response,4
true,1,0,0,1,false,z,true,false,0.0-2.0-0.0-0.4-3.4,0,0,0,81,false,stim,false,-1,833,0,0,2,47540,task2,195018,false,false,151,image-keyboard-response,5
true,1,1,0,2,false,d,true,false,0.0-2.0-0.0-0.5-3.5,0,0,0,90,false,stim,false,-1,1215,0,0,0,47540,task2,197747,false,false,154,image-keyboard-response,6
true,1,2,0,1,false,z,true,true,0.0-2.0-0.0-0.6-3.6,0,0,0,68,false,stim,false,-1,1509,0,0,2,47540,task2,200779,false,true,157,image-keyboard-response,7
true,1,1,0,2,false,d,true,false,0.0-2.0-0.0-0.7-3.7,0,0,0,90,false,stim,false,-1,1200,0,0,0,47540,task2,203491,false,false,160,image-keyboard-response,8
true,1,2,0,1,false,z,true,false,0.0-2.0-0.0-0.8-3.8,0,0,0,68,false,stim,false,-1,650,0,0,2,47540,task2,205651,false,false,163,image-keyboard-response,9
true,1,2,0,2,true,d,false,true,0.0-2.0-0.1-0.9-3.9,0,0,0,68,false,stim,false,-1,1650,0,0,0,47540,task2,208827,false,false,166,image-keyboard-response,10
true,1,1,0,1,true,z,false,true,0.0-2.0-0.1-0.10-3.10,0,0,0,90,false,stim,false,-1,1394,0,0,1,47540,task2,211731,false,false,169,image-keyboard-response,11
true,1,1,0,1,true,z,false,true,0.0-2.0-0.1-0.11-3.11,0,0,0,90,false,stim,false,-1,586,0,0,1,47540,task2,213828,false,false,172,image-keyboard-response,12
true,1,0,0,1,false,z,true,false,0.0-2.0-0.1-0.12-3.12,0,0,0,81,false,stim,false,-1,2179,0,0,2,47540,task2,217531,false,false,175,image-keyboard-response,13
true,1,2,0,2,true,d,false,false,0.0-2.0-0.1-0.13-3.13,0,0,0,68,false,stim,false,-1,1037,0,0,0,47540,task2,220091,false,true,178,image-keyboard-response,14
true,1,1,0,2,false,d,true,false,0.0-2.0-0.1-0.14-3.14,0,0,0,90,false,stim,false,-1,826,0,0,0,47540,task2,222443,false,false,181,image-keyboard-response,15
true,1,1,0,1,true,z,false,true,0.0-2.0-0.1-0.15-3.15,0,0,0,90,false,stim,false,-1,764,0,0,1,47540,task2,224731,false,false,184,image-keyboard-response,16
true,1,2,0,1,false,z,true,false,0.0-2.0-0.1-0.16-3.16,0,0,0,68,false,stim,false,-1,1410,0,0,2,47540,task2,227667,false,false,187,image-keyboard-response,17
true,1,1,0,1,true,z,false,true,0.0-2.0-0.1-0.17-3.17,0,0,0,90,false,stim,false,-1,680,0,0,2,47540,task2,229867,false,false,190,image-keyboard-response,18
true,1,1,0,1,true,z,false,true,0.0-2.0-0.2-0.18-3.18,0,0,0,90,false,stim,false,-1,534,0,0,2,47540,task2,231931,false,false,193,image-keyboard-response,19
true,1,1,0,1,true,z,false,true,0.0-2.0-0.2-0.19-3.19,0,0,0,90,false,stim,false,-1,417,0,0,2,47540,task2,233859,false,false,196,image-keyboard-response,20
true,1,1,0,1,true,z,false,true,0.0-2.0-0.2-0.20-3.20,0,0,0,90,false,stim,false,-1,715,0,0,1,47540,task2,236090,false,false,199,image-keyboard-response,21
true,1,1,0,1,true,z,false,true,0.0-2.0-0.2-0.21-3.21,0,0,0,90,false,stim,false,-1,445,0,0,1,47540,task2,238051,false,false,202,image-keyboard-response,22
true,1,1,0,2,false,d,true,false,0.0-2.0-0.2-0.22-3.22,0,0,0,90,false,stim,false,-1,562,0,0,0,47540,task2,240123,false,false,205,image-keyboard-response,23
true,1,0,0,2,false,d,true,false,0.0-2.0-0.2-0.23-3.23,0,0,0,81,false,stim,false,-1,764,0,0,0,47540,task2,242410,false,false,208,image-keyboard-response,24
true,1,1,0,1,true,z,false,true,0.0-2.0-0.2-0.24-3.24,0,0,0,90,false,stim,false,-1,640,0,0,1,47540,task2,244587,false,false,211,image-keyboard-response,25
true,1,1,0,1,true,z,false,true,0.0-2.0-0.2-0.25-3.25,0,0,0,90,false,stim,false,-1,614,0,1,2,47540,task2,246731,false,false,214,image-keyboard-response,26
true,2,2,2,0,false,q,false,false,0.0-2.0-0.2-0.26-3.26,0,0,1,68,true,stim,true,2,508,0,0,0,47540,task2,248754,false,false,217,image-keyboard-response,1
true,2,1,2,1,true,z,false,true,0.0-2.0-0.3-0.27-3.27,0,0,1,90,false,stim,false,1,689,0,1,2,47540,task2,250970,false,false,220,image-keyboard-response,2
true,2,1,2,1,true,z,false,true,0.0-2.0-0.3-0.28-3.28,0,0,1,90,false,stim,false,1,546,0,1,2,47540,task2,253043,false,false,223,image-keyboard-response,3
true,2,1,2,0,false,q,true,false,0.0-2.0-0.3-0.29-3.29,0,0,1,90,false,stim,false,2,530,0,0,0,47540,task2,255106,false,false,226,image-keyboard-response,4
true,2,1,2,2,false,d,false,false,0.0-2.0-0.3-0.30-3.30,0,0,1,90,false,stim,true,1,796,0,0,1,47540,task2,257427,false,false,229,image-keyboard-response,5
true,2,1,2,2,false,d,false,false,0.0-2.0-0.3-0.31-3.31,0,0,1,90,false,stim,true,1,504,0,0,1,47540,task2,259451,false,false,232,image-keyboard-response,6
true,2,1,2,1,true,z,false,true,0.0-2.0-0.3-0.32-3.32,0,0,1,90,false,stim,false,1,699,0,1,2,47540,task2,261674,false,false,235,image-keyboard-response,7
true,2,0,2,0,true,q,false,true,0.0-2.0-0.3-0.33-3.33,0,0,1,81,false,stim,false,2,1098,0,0,0,47540,task2,264291,false,false,238,image-keyboard-response,8
true,2,0,2,0,true,q,false,true,0.0-2.0-0.3-0.34-3.34,0,0,1,81,false,stim,false,2,586,0,0,0,47540,task2,266402,false,false,241,image-keyboard-response,9
true,2,0,2,2,false,d,true,false,0.0-2.0-0.3-0.35-3.35,0,0,1,81,false,stim,false,1,1220,0,0,1,47540,task2,269147,false,false,244,image-keyboard-response,10
true,2,1,2,1,true,z,false,true,0.0-2.0-0.4-0.36-3.36,0,0,1,90,false,stim,false,1,1058,0,1,2,47540,task2,271738,false,false,247,image-keyboard-response,11
true,2,2,2,2,true,d,false,true,0.0-2.0-0.4-0.37-3.37,0,0,1,68,false,stim,false,1,929,0,0,1,47540,task2,274202,false,false,250,image-keyboard-response,12
true,2,2,2,2,true,d,false,true,0.0-2.0-0.4-0.38-3.38,0,0,1,68,false,stim,false,1,524,0,0,1,47540,task2,276251,false,false,253,image-keyboard-response,13
true,2,0,2,0,true,q,false,true,0.0-2.0-0.4-0.39-3.39,0,0,1,81,false,stim,false,2,687,0,0,0,47540,task2,278450,false,false,256,image-keyboard-response,14
true,2,0,2,0,true,q,false,true,0.0-2.0-0.4-0.40-3.40,0,0,1,81,false,stim,false,2,549,0,0,0,47540,task2,280531,false,false,259,image-keyboard-response,15
true,2,1,2,1,true,z,false,true,0.0-2.0-0.4-0.41-3.41,0,0,1,90,false,stim,false,1,629,0,1,2,47540,task2,282699,false,false,262,image-keyboard-response,16
true,2,2,2,2,true,d,false,true,0.0-2.0-0.4-0.42-3.42,0,0,1,68,false,stim,false,1,828,0,0,1,47540,task2,285059,false,false,265,image-keyboard-response,17
true,2,1,2,1,true,z,false,false,0.0-2.0-0.4-0.43-3.43,0,0,1,90,false,stim,false,1,565,0,1,2,47540,task2,287147,false,true,268,image-keyboard-response,18
true,2,0,2,0,true,q,false,true,0.0-2.0-0.4-0.44-3.44,0,0,1,81,false,stim,false,2,585,0,0,0,47540,task2,289242,false,false,271,image-keyboard-response,19
true,2,1,2,1,true,z,false,true,0.0-2.0-0.5-0.45-3.45,0,0,1,90,false,stim,false,1,1047,0,1,2,47540,task2,291812,false,false,274,image-keyboard-response,20
true,2,2,2,2,true,d,false,true,0.0-2.0-0.5-0.46-3.46,0,0,1,68,false,stim,false,1,1112,0,0,1,47540,task2,294442,false,false,277,image-keyboard-response,21
true,2,0,2,0,true,q,false,true,0.0-2.0-0.5-0.47-3.47,0,0,1,81,false,stim,false,2,494,0,0,0,47540,task2,296451,false,false,280,image-keyboard-response,22
true,2,2,2,1,false,z,true,false,0.0-2.0-0.5-0.48-3.48,0,0,1,68,false,stim,false,1,1077,0,1,2,47540,task2,299043,false,false,283,image-keyboard-response,23
true,2,2,2,2,true,d,false,true,0.0-2.0-0.5-0.49-3.49,0,0,1,68,false,stim,false,1,1162,0,0,1,47540,task2,301723,false,false,286,image-keyboard-response,24
true,2,1,2,1,true,z,false,true,0.0-2.0-0.5-0.50-3.50,0,0,1,90,false,stim,false,1,916,0,1,2,47540,task2,304162,false,false,289,image-keyboard-response,25
true,2,2,2,2,true,d,false,true,0.0-2.0-0.5-0.51-3.51,0,0,1,68,false,stim,false,1,721,0,0,1,47540,task2,306402,false,false,292,image-keyboard-response,26
true,2,0,2,0,true,q,false,true,0.0-2.0-0.5-0.52-3.52,0,0,1,81,false,stim,false,2,548,0,0,0,47540,task2,308474,false,false,295,image-keyboard-response,27
true,2,0,2,0,true,q,false,true,0.0-2.0-0.5-0.53-3.53,0,0,1,81,false,stim,false,2,542,0,0,0,47540,task2,310538,false,false,298,image-keyboard-response,28
true,2,2,2,1,false,z,true,false,0.0-2.0-0.6-0.54-3.54,0,0,1,68,false,stim,false,1,1303,0,0,2,47540,task2,313363,false,false,301,image-keyboard-response,29
true,2,1,2,1,true,z,false,true,0.0-2.0-0.6-0.55-3.55,0,0,1,90,false,stim,false,1,543,0,0,2,47540,task2,315419,false,false,304,image-keyboard-response,30
true,2,1,2,1,true,z,false,true,0.0-2.0-0.6-0.56-3.56,0,0,1,90,false,stim,false,1,511,0,0,2,47540,task2,317459,false,false,307,image-keyboard-response,31
true,3,0,2,1,false,z,false,false,0.0-2.0-0.6-0.57-3.57,0,1,0,81,true,stim,true,0,1021,0,0,0,47540,task2,320002,false,false,310,image-keyboard-response,1
true,3,2,2,2,true,d,false,true,0.0-2.0-0.6-0.58-3.58,0,1,0,68,false,stim,false,2,1018,0,1,1,47540,task2,322531,false,false,313,image-keyboard-response,2
true,3,2,2,2,true,d,false,true,0.0-2.0-0.6-0.59-3.59,0,1,0,68,false,stim,false,2,587,0,1,1,47540,task2,324643,false,false,316,image-keyboard-response,3
true,3,2,2,2,true,d,false,false,0.0-2.0-0.6-0.60-3.60,0,1,0,68,false,stim,false,2,450,0,1,1,47540,task2,326627,false,true,319,image-keyboard-response,4
true,3,0,2,1,false,z,false,false,0.0-2.0-0.6-0.61-3.61,0,1,0,81,false,stim,true,0,984,0,0,0,47540,task2,329131,false,false,322,image-keyboard-response,5
true,3,1,2,1,true,z,false,true,0.0-2.0-0.6-0.62-3.62,0,1,0,90,false,stim,false,0,1703,0,0,0,47540,task2,332355,false,false,325,image-keyboard-response,6
true,3,2,2,2,true,d,false,true,0.0-2.0-0.7-0.63-3.63,0,1,0,68,false,stim,false,2,1215,0,1,1,47540,task2,335091,false,false,328,image-keyboard-response,7
true,3,1,2,1,true,z,false,true,0.0-2.0-0.7-0.64-3.64,0,1,0,90,false,stim,false,0,1190,0,0,0,47540,task2,337802,false,false,331,image-keyboard-response,8
true,3,1,2,1,true,z,false,true,0.0-2.0-0.7-0.65-3.65,0,1,0,90,false,stim,false,0,499,0,0,0,47540,task2,339827,false,false,334,image-keyboard-response,9
true,3,1,2,1,true,z,false,true,0.0-2.0-0.7-0.66-3.66,0,1,0,90,false,stim,false,0,580,0,0,0,47540,task2,341947,false,false,337,image-keyboard-response,10
true,3,2,2,2,true,d,false,true,0.0-2.0-0.7-0.67-3.67,0,1,0,68,false,stim,false,2,859,0,1,1,47540,task2,344347,false,false,340,image-keyboard-response,11
true,3,1,2,0,false,q,false,false,0.0-2.0-0.7-0.68-3.68,0,1,0,90,false,stim,true,1,908,0,0,2,47540,task2,346794,false,false,343,image-keyboard-response,12
true,3,2,2,2,true,d,false,true,0.0-2.0-0.7-0.69-3.69,0,1,0,68,false,stim,false,2,763,0,1,1,47540,task2,349066,false,false,346,image-keyboard-response,13
true,3,1,2,0,false,q,false,false,0.0-2.0-0.7-0.70-3.70,0,1,0,90,false,stim,true,1,1184,0,0,2,47540,task2,351770,false,false,349,image-keyboard-response,14
true,3,0,2,0,true,q,false,true,0.0-2.0-0.7-0.71-3.71,0,1,0,81,false,stim,false,1,574,0,0,2,47540,task2,353882,false,false,352,image-keyboard-response,15
true,3,2,2,2,true,d,false,true,0.0-2.0-0.8-0.72-3.72,0,1,0,68,false,stim,false,2,1508,0,1,1,47540,task2,356915,false,false,355,image-keyboard-response,16
true,3,1,2,1,true,z,false,true,0.0-2.0-0.8-0.73-3.73,0,1,0,90,false,stim,false,0,1671,0,0,0,47540,task2,360107,false,false,358,image-keyboard-response,17
true,3,0,2,0,true,q,false,false,0.0-2.0-0.8-0.74-3.74,0,1,0,81,false,stim,false,1,492,0,0,2,47540,task2,362115,false,true,361,image-keyboard-response,18
true,3,0,2,0,true,q,false,true,0.0-2.0-0.8-0.75-3.75,0,1,0,81,false,stim,false,1,576,0,0,2,47540,task2,364219,false,false,364,image-keyboard-response,19
true,3,2,2,2,true,d,false,false,0.0-2.0-0.8-0.76-3.76,0,1,0,68,false,stim,false,2,1056,0,1,1,47540,task2,366803,false,true,367,image-keyboard-response,20
true,3,1,2,1,true,z,false,false,0.0-2.0-0.8-0.77-3.77,0,1,0,90,false,stim,false,0,772,0,0,0,47540,task2,369107,false,true,370,image-keyboard-response,21
true,3,0,2,0,true,q,false,true,0.0-2.0-0.8-0.78-3.78,0,1,0,81,false,stim,false,1,1961,0,0,2,47540,task2,372587,false,false,373,image-keyboard-response,22
false,3,-1,2,1,false,z,true,false,0.0-2.0-0.8-0.79-3.79,0,1,0,,false,stim,false,0,,0,0,0,47540,task2,377126,false,false,376,image-keyboard-response,23
true,3,1,2,2,false,d,true,false,0.0-2.0-0.8-0.80-3.80,0,1,0,90,false,stim,false,2,1764,0,1,1,47540,task2,380410,false,false,379,image-keyboard-response,24
true,3,1,2,1,true,z,false,true,0.0-2.0-0.9-0.81-3.81,0,1,0,90,false,stim,false,0,1980,0,0,0,47540,task2,383907,false,false,382,image-keyboard-response,25
true,3,1,2,1,true,z,false,true,0.0-2.0-0.9-0.82-3.82,0,1,0,90,false,stim,false,0,600,0,0,0,47540,task2,386027,false,false,385,image-keyboard-response,26
true,3,0,2,2,false,d,true,false,0.0-2.0-0.9-0.83-3.83,0,1,0,81,false,stim,false,2,950,0,1,1,47540,task2,388506,false,false,388,image-keyboard-response,27
true,3,0,2,0,true,q,false,true,0.0-2.0-0.9-0.84-3.84,0,1,0,81,false,stim,false,1,749,0,0,2,47540,task2,390795,false,false,391,image-keyboard-response,28
true,3,2,2,2,true,d,false,true,0.0-2.0-0.9-0.85-3.85,0,1,0,68,false,stim,false,2,925,0,1,1,47540,task2,393250,false,false,394,image-keyboard-response,29
true,3,0,2,0,true,q,false,true,0.0-2.0-0.9-0.86-3.86,0,1,0,81,false,stim,false,1,2108,0,0,2,47540,task2,396883,false,false,397,image-keyboard-response,30
true,3,1,2,1,true,z,false,true,0.0-2.0-0.9-0.87-3.87,0,1,0,90,false,stim,false,0,539,0,0,0,47540,task2,398946,false,false,400,image-keyboard-response,31
true,3,2,2,2,true,d,false,true,0.0-2.0-0.9-0.88-3.88,0,1,0,68,false,stim,false,2,733,0,0,1,47540,task2,401195,false,false,403,image-keyboard-response,32
true,3,0,2,0,true,q,false,true,0.0-2.0-0.9-0.89-3.89,0,1,0,81,false,stim,false,1,1019,0,1,2,47540,task2,403722,false,false,406,image-keyboard-response,33
true,3,0,2,0,true,q,false,true,0.0-2.0-0.10-0.90-3.90,0,1,0,81,false,stim,false,1,556,0,1,2,47540,task2,405803,false,false,409,image-keyboard-response,34
true,3,0,2,0,true,q,false,false,0.0-2.0-0.10-0.91-3.91,0,1,0,81,false,stim,false,1,548,0,1,2,47540,task2,407859,false,true,412,image-keyboard-response,35
true,4,1,2,2,false,d,false,false,0.0-2.0-0.10-0.92-3.92,0,0,1,90,true,stim,true,1,694,0,0,0,47540,task2,410067,false,false,415,image-keyboard-response,1
true,4,2,2,0,false,q,false,false,0.0-2.0-0.10-0.93-3.93,0,0,1,68,false,stim,true,2,747,0,0,1,47540,task2,412346,false,false,418,image-keyboard-response,2
true,4,0,2,0,true,q,false,true,0.0-2.0-0.10-0.94-3.94,0,0,1,81,false,stim,false,0,1784,0,1,2,47540,task2,415658,false,false,421,image-keyboard-response,3
true,4,2,2,0,false,q,false,false,0.0-2.0-0.10-0.95-3.95,0,0,1,68,false,stim,true,2,1021,0,0,1,47540,task2,418203,false,false,424,image-keyboard-response,4
true,4,1,2,2,false,d,false,false,0.0-2.0-0.10-0.96-3.96,0,0,1,90,false,stim,true,1,726,0,0,0,47540,task2,420451,false,false,427,image-keyboard-response,5
true,4,1,2,0,false,q,true,false,0.0-2.0-0.10-0.97-3.97,0,0,1,90,false,stim,false,2,1658,0,0,1,47540,task2,423635,false,false,430,image-keyboard-response,6
true,4,1,2,2,false,d,false,true,0.0-2.0-0.10-0.98-3.98,0,0,1,90,false,stim,true,1,2382,0,0,0,47540,task2,427547,false,true,433,image-keyboard-response,7
true,4,1,2,2,false,d,false,false,0.0-2.0-0.11-0.99-3.99,0,0,1,90,false,stim,true,1,664,0,0,0,47540,task2,429731,false,false,436,image-keyboard-response,8
true,4,0,2,0,true,q,false,true,0.0-2.0-0.11-0.100-3.100,0,0,1,81,false,stim,false,0,2146,0,1,2,47540,task2,433403,false,false,439,image-keyboard-response,9
true,4,0,2,0,true,q,false,true,0.0-2.0-0.11-0.101-3.101,0,0,1,81,false,stim,false,0,630,0,1,2,47540,task2,435563,false,false,442,image-keyboard-response,10
true,4,0,2,0,true,q,false,true,0.0-2.0-0.11-0.102-3.102,0,0,1,81,false,stim,false,2,1127,0,0,1,47540,task2,438211,false,false,445,image-keyboard-response,11
true,4,0,2,0,true,q,false,true,0.0-2.0-0.11-0.103-3.103,0,0,1,81,false,stim,false,2,964,0,0,1,47540,task2,440707,false,false,448,image-keyboard-response,12
true,4,0,2,0,true,q,false,true,0.0-2.0-0.11-0.104-3.104,0,0,1,81,false,stim,false,2,537,0,0,1,47540,task2,442755,false,false,451,image-keyboard-response,13
true,4,0,2,2,false,d,true,false,0.0-2.0-0.11-0.105-3.105,0,0,1,81,false,stim,false,1,1241,0,0,0,47540,task2,445515,false,false,454,image-keyboard-response,14
true,4,1,2,2,false,d,false,false,0.0-2.0-0.11-0.106-3.106,0,0,1,90,false,stim,true,1,845,0,0,0,47540,task2,447898,false,false,457,image-keyboard-response,15
true,4,0,2,0,true,q,false,true,0.0-2.0-0.11-0.107-3.107,0,0,1,81,false,stim,false,0,832,0,1,2,47540,task2,450259,false,false,460,image-keyboard-response,16
true,4,0,2,0,true,q,false,true,0.0-2.0-0.12-0.108-3.108,0,0,1,81,false,stim,false,2,669,0,0,1,47540,task2,452451,false,false,463,image-keyboard-response,17
true,4,2,2,2,true,d,false,true,0.0-2.0-0.12-0.109-3.109,0,0,1,68,false,stim,false,1,523,0,0,0,47540,task2,454499,false,false,466,image-keyboard-response,18
true,4,0,2,0,true,q,false,true,0.0-2.0-0.12-0.110-3.110,0,0,1,81,false,stim,false,0,597,0,1,2,47540,task2,456611,false,false,469,image-keyboard-response,19
true,4,0,2,0,true,q,false,true,0.0-2.0-0.12-0.111-3.111,0,0,1,81,false,stim,false,2,564,0,0,1,47540,task2,458700,false,false,472,image-keyboard-response,20
true,4,2,2,2,true,d,false,true,0.0-2.0-0.12-0.112-3.112,0,0,1,68,false,stim,false,1,488,0,0,0,47540,task2,460716,false,false,475,image-keyboard-response,21
true,4,0,2,0,true,q,false,true,0.0-2.0-0.12-0.113-3.113,0,0,1,81,false,stim,false,2,909,0,0,1,47540,task2,463147,false,false,478,image-keyboard-response,22
true,4,0,2,0,true,q,false,true,0.0-2.0-0.12-0.114-3.114,0,0,1,81,false,stim,false,0,483,0,1,2,47540,task2,465147,false,false,481,image-keyboard-response,23
true,4,0,2,0,true,q,false,true,0.0-2.0-0.12-0.115-3.115,0,0,1,81,false,stim,false,0,603,0,1,2,47540,task2,467275,false,false,484,image-keyboard-response,24
true,4,2,2,2,true,d,false,true,0.0-2.0-0.12-0.116-3.116,0,0,1,68,false,stim,false,1,775,0,0,0,47540,task2,469571,false,false,487,image-keyboard-response,25
true,4,0,2,0,true,q,false,true,0.0-2.0-0.13-0.117-3.117,0,0,1,81,false,stim,false,2,570,0,0,1,47540,task2,471667,false,false,490,image-keyboard-response,26
true,4,2,2,2,true,d,false,true,0.0-2.0-0.13-0.118-3.118,0,0,1,68,false,stim,false,1,586,0,0,0,47540,task2,473771,false,false,493,image-keyboard-response,27
true,4,0,2,0,true,q,false,true,0.0-2.0-0.13-0.119-3.119,0,0,1,81,false,stim,false,2,686,0,0,1,47540,task2,475996,false,false,496,image-keyboard-response,28
true,4,0,2,0,true,q,false,true,0.0-2.0-0.13-0.120-3.120,0,0,1,81,false,stim,false,0,601,0,1,2,47540,task2,478116,false,false,499,image-keyboard-response,29
true,4,0,2,0,true,q,false,false,0.0-2.0-0.13-0.121-3.121,0,0,1,81,false,stim,false,0,615,0,0,2,47540,task2,480243,false,true,502,image-keyboard-response,30
true,4,2,2,2,true,d,false,true,0.0-2.0-0.13-0.122-3.122,0,0,1,68,false,stim,false,1,576,0,0,0,47540,task2,482348,false,false,505,image-keyboard-response,31
true,4,0,2,0,true,q,false,true,0.0-2.0-0.13-0.123-3.123,0,0,1,81,false,stim,false,0,491,0,0,2,47540,task2,484380,false,false,508,image-keyboard-response,32
true,4,2,2,2,true,d,false,true,0.0-2.0-0.13-0.124-3.124,0,0,1,68,false,stim,false,1,1016,0,0,0,47540,task2,486924,false,false,511,image-keyboard-response,33
true,4,0,2,0,true,q,false,true,0.0-2.0-0.13-0.125-3.125,0,0,1,81,false,stim,false,2,555,0,0,1,47540,task2,488987,false,false,514,image-keyboard-response,34
true,5,0,1,0,true,q,false,true,0.0-2.0-0.14-0.126-3.126,0,0,0,81,true,stim,false,2,664,0,0,0,47540,task2,491171,false,false,517,image-keyboard-response,1
true,5,0,1,1,false,z,false,false,0.0-2.0-0.14-0.127-3.127,0,0,0,81,false,stim,true,0,639,0,0,2,47540,task2,493331,false,false,520,image-keyboard-response,2
false,5,-1,1,1,false,z,true,false,0.0-2.0-0.14-0.128-3.128,0,0,0,,false,stim,false,0,,0,0,1,47540,task2,497856,false,false,523,image-keyboard-response,3
true,5,0,1,1,false,z,false,false,0.0-2.0-0.14-0.129-3.129,0,0,0,81,false,stim,true,0,883,0,0,2,47540,task2,500260,false,false,526,image-keyboard-response,4
true,5,0,1,0,true,q,false,true,0.0-2.0-0.14-0.130-3.130,0,0,0,81,false,stim,false,2,898,0,0,0,47540,task2,502683,false,false,529,image-keyboard-response,5
true,5,0,1,1,false,z,false,false,0.0-2.0-0.14-0.131-3.131,0,0,0,81,false,stim,true,0,1015,0,0,1,47540,task2,505219,false,false,532,image-keyboard-response,6
true,5,1,1,1,true,z,false,true,0.0-2.0-0.14-0.132-3.132,0,0,0,90,false,stim,false,0,560,0,0,1,47540,task2,507308,false,false,535,image-keyboard-response,7
true,5,0,1,0,true,q,false,true,0.0-2.0-0.14-0.133-3.133,0,0,0,81,false,stim,false,2,934,0,0,0,47540,task2,509772,false,false,538,image-keyboard-response,8
true,5,1,1,1,true,z,false,true,0.0-2.0-0.14-0.134-3.134,0,0,0,90,false,stim,false,0,485,0,0,2,47540,task2,511779,false,false,541,image-keyboard-response,9
true,5,2,1,1,false,z,true,false,0.0-2.0-0.15-0.135-3.135,0,0,0,68,false,stim,false,0,548,0,0,1,47540,task2,513860,false,false,544,image-keyboard-response,10
true,5,1,1,1,true,z,false,true,0.0-2.0-0.15-0.136-3.136,0,0,0,90,false,stim,false,0,925,0,0,1,47540,task2,516306,false,false,547,image-keyboard-response,11
true,5,1,1,1,true,z,false,true,0.0-2.0-0.15-0.137-3.137,0,0,0,90,false,stim,false,0,511,0,0,2,47540,task2,518355,false,false,550,image-keyboard-response,12
true,5,0,1,0,true,q,false,true,0.0-2.0-0.15-0.138-3.138,0,0,0,81,false,stim,false,2,528,0,0,0,47540,task2,520419,false,false,553,image-keyboard-response,13
true,5,0,1,0,true,q,false,true,0.0-2.0-0.15-0.139-3.139,0,0,0,81,false,stim,false,2,706,0,0,0,47540,task2,522651,false,false,556,image-keyboard-response,14
true,5,0,1,0,true,q,false,true,0.0-2.0-0.15-0.140-3.140,0,0,0,81,false,stim,false,2,714,0,0,0,47540,task2,524899,false,false,559,image-keyboard-response,15
true,5,0,1,1,false,z,false,false,0.0-2.0-0.15-0.141-3.141,0,0,0,81,false,stim,true,0,818,0,0,1,47540,task2,527252,false,false,562,image-keyboard-response,16
true,5,0,1,1,false,z,false,false,0.0-2.0-0.15-0.142-3.142,0,0,0,81,false,stim,true,0,791,0,0,2,47540,task2,529573,false,false,565,image-keyboard-response,17
true,5,0,1,1,false,z,false,false,0.0-2.0-0.15-0.143-3.143,0,0,0,81,false,stim,true,0,1200,0,0,2,47540,task2,532292,false,false,568,image-keyboard-response,18
true,5,1,1,1,true,z,false,true,0.0-2.0-0.16-0.144-3.144,0,0,0,90,false,stim,false,0,687,0,0,1,47540,task2,534500,false,false,571,image-keyboard-response,19
true,5,1,1,1,true,z,false,true,0.0-2.0-0.16-0.145-3.145,0,0,0,90,false,stim,false,0,537,0,0,2,47540,task2,536555,false,false,574,image-keyboard-response,20
true,5,1,1,1,true,z,false,true,0.0-2.0-0.16-0.146-3.146,0,0,0,90,false,stim,false,0,553,0,0,1,47540,task2,538635,false,false,577,image-keyboard-response,21
true,5,1,1,1,true,z,false,true,0.0-2.0-0.16-0.147-3.147,0,0,0,90,false,stim,false,0,429,0,0,2,47540,task2,540595,false,false,580,image-keyboard-response,22
true,5,2,1,0,false,q,false,false,0.0-2.0-0.16-0.148-3.148,0,0,0,68,false,stim,true,2,635,0,0,0,47540,task2,542763,false,false,583,image-keyboard-response,23
true,5,1,1,0,false,q,true,false,0.0-2.0-0.16-0.149-3.149,0,0,0,90,false,stim,false,2,854,0,0,0,47540,task2,545140,false,false,586,image-keyboard-response,24
true,5,1,1,1,true,z,false,false,0.0-2.0-0.16-0.150-3.150,0,0,0,90,false,stim,false,0,575,0,0,2,47540,task2,547228,false,true,589,image-keyboard-response,25
true,5,1,1,1,true,z,false,true,0.0-2.0-0.16-0.151-3.151,0,0,0,90,false,stim,false,0,546,0,0,1,47540,task2,549299,false,false,592,image-keyboard-response,26
true,5,0,1,0,true,q,false,true,0.0-2.0-0.16-0.152-3.152,0,0,0,81,false,stim,false,2,557,0,0,0,47540,task2,551396,false,false,595,image-keyboard-response,27
true,5,1,1,1,true,z,false,true,0.0-2.0-0.17-0.153-3.153,0,0,0,90,false,stim,false,0,482,0,0,2,47540,task2,553395,false,false,598,image-keyboard-response,28
true,5,1,1,1,true,z,false,true,0.0-2.0-0.17-0.154-3.154,0,0,0,90,false,stim,false,0,938,0,0,1,47540,task2,555843,false,false,601,image-keyboard-response,29
true,5,1,1,1,true,z,false,true,0.0-2.0-0.17-0.155-3.155,0,0,0,90,false,stim,false,0,576,0,0,2,47540,task2,557948,false,false,604,image-keyboard-response,30
true,5,0,1,0,true,q,false,true,0.0-2.0-0.17-0.156-3.156,0,0,0,81,false,stim,false,2,568,0,0,0,47540,task2,560019,false,false,607,image-keyboard-response,31
true,5,0,1,0,true,q,false,false,0.0-2.0-0.17-0.157-3.157,0,0,0,81,false,stim,false,2,448,0,1,0,47540,task2,561979,false,true,610,image-keyboard-response,32
true,5,0,1,0,true,q,false,true,0.0-2.0-0.17-0.158-3.158,0,0,0,81,false,stim,false,2,693,0,1,0,47540,task2,564195,false,false,613,image-keyboard-response,33
true,5,1,1,1,true,z,false,true,0.0-2.0-0.17-0.159-3.159,0,0,0,90,false,stim,false,0,559,0,0,1,47540,task2,566275,false,false,616,image-keyboard-response,34
true,5,1,1,1,true,z,false,true,0.0-2.0-0.17-0.160-3.160,0,0,0,90,false,stim,false,0,404,0,0,1,47540,task2,568196,false,false,619,image-keyboard-response,35
true,5,1,1,1,true,z,false,false,0.0-2.0-0.17-0.161-3.161,0,0,0,90,false,stim,false,0,350,0,0,2,47540,task2,570067,false,true,622,image-keyboard-response,36
true,6,1,2,2,false,d,false,false,0.0-2.0-0.18-0.162-3.162,1,0,0,90,true,stim,true,1,576,0,0,2,47540,task2,572163,false,false,625,image-keyboard-response,1
true,6,1,2,0,false,q,false,false,0.0-2.0-0.18-0.163-3.163,1,0,0,90,false,stim,true,1,987,0,0,1,47540,task2,574659,false,false,628,image-keyboard-response,2
true,6,2,2,2,true,d,false,true,0.0-2.0-0.18-0.164-3.164,1,0,0,68,false,stim,false,1,560,0,0,2,47540,task2,576747,false,false,631,image-keyboard-response,3
true,6,0,2,0,true,q,false,true,0.0-2.0-0.18-0.165-3.165,1,0,0,81,false,stim,false,0,617,0,1,0,47540,task2,578891,false,false,634,image-keyboard-response,4
true,6,1,2,0,false,q,false,false,0.0-2.0-0.18-0.166-3.166,1,0,0,90,false,stim,true,1,991,0,0,1,47540,task2,581388,false,false,637,image-keyboard-response,5
true,6,2,2,2,true,d,false,true,0.0-2.0-0.18-0.167-3.167,1,0,0,68,false,stim,false,1,546,0,0,2,47540,task2,583460,false,false,640,image-keyboard-response,6
true,6,2,2,0,false,q,true,false,0.0-2.0-0.18-0.168-3.168,1,0,0,68,false,stim,false,1,470,0,0,1,47540,task2,585443,false,false,643,image-keyboard-response,7
true,6,0,2,0,true,q,false,true,0.0-2.0-0.18-0.169-3.169,1,0,0,81,false,stim,false,0,433,0,1,0,47540,task2,587396,false,false,646,image-keyboard-response,8
true,6,0,2,0,true,q,false,true,0.0-2.0-0.18-0.170-3.170,1,0,0,81,false,stim,false,0,629,0,1,0,47540,task2,589548,false,false,649,image-keyboard-response,9
true,6,0,2,0,true,q,false,true,0.0-2.0-0.19-0.171-3.171,1,0,0,81,false,stim,false,0,542,0,1,0,47540,task2,591620,false,false,652,image-keyboard-response,10
true,6,0,2,2,false,d,true,false,0.0-2.0-0.19-0.172-3.172,1,0,0,81,false,stim,false,1,930,0,0,2,47540,task2,594067,false,false,655,image-keyboard-response,11
true,6,2,2,2,true,d,false,true,0.0-2.0-0.19-0.173-3.173,1,0,0,68,false,stim,false,1,1266,0,0,2,47540,task2,596859,false,false,658,image-keyboard-response,12
true,6,0,2,0,true,q,false,true,0.0-2.0-0.19-0.174-3.174,1,0,0,81,false,stim,false,1,421,0,0,1,47540,task2,598803,false,false,661,image-keyboard-response,13
true,6,0,2,0,true,q,false,true,0.0-2.0-0.19-0.175-3.175,1,0,0,81,false,stim,false,1,463,0,0,1,47540,task2,600795,false,false,664,image-keyboard-response,14
true,6,0,2,0,true,q,false,true,0.0-2.0-0.19-0.176-3.176,1,0,0,81,false,stim,false,1,423,0,0,1,47540,task2,602739,false,false,667,image-keyboard-response,15
true,6,0,2,0,true,q,false,true,0.0-2.0-0.19-0.177-3.177,1,0,0,81,false,stim,false,0,666,0,1,0,47540,task2,604924,false,false,670,image-keyboard-response,16
true,6,0,2,0,true,q,false,true,0.0-2.0-0.19-0.178-3.178,1,0,0,81,false,stim,false,0,456,0,1,0,47540,task2,606900,false,false,673,image-keyboard-response,17
true,6,2,2,2,true,d,false,false,0.0-2.0-0.19-0.179-3.179,1,0,0,68,false,stim,false,1,555,0,0,2,47540,task2,608971,false,true,676,image-keyboard-response,18
true,6,0,2,0,true,q,false,true,0.0-2.0-0.20-0.180-3.180,1,0,0,81,false,stim,false,0,571,0,1,0,47540,task2,611068,false,false,679,image-keyboard-response,19
true,6,0,2,0,true,q,false,false,0.0-2.0-0.20-0.181-3.181,1,0,0,81,false,stim,false,1,344,0,0,1,47540,task2,612923,false,true,682,image-keyboard-response,20
true,6,0,2,0,true,q,false,true,0.0-2.0-0.20-0.182-3.182,1,0,0,81,false,stim,false,0,559,0,1,0,47540,task2,615003,false,false,685,image-keyboard-response,21
true,6,2,2,2,true,d,false,true,0.0-2.0-0.20-0.183-3.183,1,0,0,68,false,stim,false,1,558,0,0,2,47540,task2,617075,false,false,688,image-keyboard-response,22
true,6,2,2,2,true,d,false,true,0.0-2.0-0.20-0.184-3.184,1,0,0,68,false,stim,false,1,508,0,0,2,47540,task2,619115,false,false,691,image-keyboard-response,23
true,6,0,2,0,true,q,false,true,0.0-2.0-0.20-0.185-3.185,1,0,0,81,false,stim,false,0,521,0,1,0,47540,task2,621147,false,false,694,image-keyboard-response,24
true,6,0,2,0,true,q,false,true,0.0-2.0-0.20-0.186-3.186,1,0,0,81,false,stim,false,1,736,0,0,1,47540,task2,623404,false,false,697,image-keyboard-response,25
true,6,2,2,2,true,d,false,true,0.0-2.0-0.20-0.187-3.187,1,0,0,68,false,stim,false,1,597,0,0,2,47540,task2,625531,false,false,700,image-keyboard-response,26
true,6,0,2,0,true,q,false,true,0.0-2.0-0.20-0.188-3.188,1,0,0,81,false,stim,false,1,499,0,0,1,47540,task2,627547,false,false,703,image-keyboard-response,27
true,6,0,2,0,true,q,false,true,0.0-2.0-0.21-0.189-3.189,1,0,0,81,false,stim,false,0,626,0,1,0,47540,task2,629700,false,false,706,image-keyboard-response,28
true,6,0,2,0,true,q,false,true,0.0-2.0-0.21-0.190-3.190,1,0,0,81,false,stim,false,0,445,0,1,0,47540,task2,631667,false,false,709,image-keyboard-response,29
true,6,0,2,0,true,q,false,true,0.0-2.0-0.21-0.191-3.191,1,0,0,81,false,stim,false,0,847,0,0,0,47540,task2,634043,false,false,712,image-keyboard-response,30
true,6,0,2,0,true,q,false,true,0.0-2.0-0.21-0.192-3.192,1,0,0,81,false,stim,false,1,946,0,0,1,47540,task2,636516,false,false,715,image-keyboard-response,31
true,6,0,2,2,false,d,true,false,0.0-2.0-0.21-0.193-3.193,1,0,0,81,false,stim,false,1,1403,0,0,2,47540,task2,639435,false,false,718,image-keyboard-response,32
true,6,0,2,0,true,q,false,true,0.0-2.0-0.21-0.194-3.194,1,0,0,81,false,stim,false,1,957,0,0,1,47540,task2,641900,false,false,721,image-keyboard-response,33
true,6,2,2,2,true,d,false,true,0.0-2.0-0.21-0.195-3.195,1,0,0,68,false,stim,false,1,766,0,0,2,47540,task2,644179,false,false,724,image-keyboard-response,34
true,7,0,1,2,false,d,false,false,0.0-2.0-0.21-0.196-3.196,0,0,0,81,true,stim,true,0,713,0,0,1,47540,task2,646411,false,false,727,image-keyboard-response,1
true,7,2,1,1,false,z,false,true,0.0-2.0-0.21-0.197-3.197,0,0,0,68,false,stim,true,2,933,0,0,2,47540,task2,648876,false,true,730,image-keyboard-response,2
true,7,2,1,1,false,z,false,false,0.0-2.0-0.22-0.198-3.198,0,0,0,68,false,stim,true,2,526,0,0,2,47540,task2,650939,false,false,733,image-keyboard-response,3
true,7,0,1,1,false,z,false,true,0.0-2.0-0.22-0.199-3.199,0,0,0,81,false,stim,true,0,631,0,0,0,47540,task2,653083,false,true,736,image-keyboard-response,4
true,7,2,1,1,false,z,false,false,0.0-2.0-0.22-0.200-3.200,0,0,0,68,false,stim,true,2,662,0,0,2,47540,task2,655260,false,false,739,image-keyboard-response,5
true,7,0,1,2,false,d,false,false,0.0-2.0-0.22-0.201-3.201,0,0,0,81,false,stim,true,0,876,0,0,1,47540,task2,657659,false,false,742,image-keyboard-response,6
true,7,1,1,1,true,z,false,true,0.0-2.0-0.22-0.202-3.202,0,0,0,90,false,stim,false,2,686,0,0,2,47540,task2,659859,false,false,745,image-keyboard-response,7
true,7,1,1,2,false,d,true,false,0.0-2.0-0.22-0.203-3.203,0,0,0,90,false,stim,false,0,636,0,0,1,47540,task2,662027,false,false,748,image-keyboard-response,8
true,7,0,1,1,false,z,false,false,0.0-2.0-0.22-0.204-3.204,0,0,0,81,false,stim,true,0,658,0,0,0,47540,task2,664195,false,false,751,image-keyboard-response,9
true,7,0,1,1,false,z,false,false,0.0-2.0-0.22-0.205-3.205,0,0,0,81,false,stim,true,0,727,0,0,0,47540,task2,666459,false,false,754,image-keyboard-response,10
true,7,2,1,2,true,d,false,true,0.0-2.0-0.22-0.206-3.206,0,0,0,68,false,stim,false,0,1241,0,0,1,47540,task2,669219,false,false,757,image-keyboard-response,11
true,7,1,1,1,true,z,false,false,0.0-2.0-0.23-0.207-3.207,0,0,0,90,false,stim,false,2,571,0,0,2,47540,task2,671300,false,true,760,image-keyboard-response,12
true,7,1,1,1,true,z,false,true,0.0-2.0-0.23-0.208-3.208,0,0,0,90,false,stim,false,2,791,0,0,2,47540,task2,673604,false,false,763,image-keyboard-response,13
true,7,2,1,2,true,d,false,true,0.0-2.0-0.23-0.209-3.209,0,0,0,68,false,stim,false,0,788,0,0,1,47540,task2,675915,false,false,766,image-keyboard-response,14
true,7,1,1,1,true,z,false,true,0.0-2.0-0.23-0.210-3.210,0,0,0,90,false,stim,false,0,471,0,0,0,47540,task2,677916,false,false,769,image-keyboard-response,15
true,7,1,1,2,false,d,true,false,0.0-2.0-0.23-0.211-3.211,0,0,0,90,false,stim,false,0,1165,0,0,1,47540,task2,680611,false,false,772,image-keyboard-response,16
true,7,1,1,1,true,z,false,true,0.0-2.0-0.23-0.212-3.212,0,0,0,90,false,stim,false,0,573,0,0,0,47540,task2,682716,false,false,775,image-keyboard-response,17
true,7,1,1,1,true,z,false,true,0.0-2.0-0.23-0.213-3.213,0,0,0,90,false,stim,false,2,478,0,0,2,47540,task2,684716,false,false,778,image-keyboard-response,18
true,7,1,1,1,true,z,false,false,0.0-2.0-0.23-0.214-3.214,0,0,0,90,false,stim,false,0,673,0,0,0,47540,task2,686931,false,true,781,image-keyboard-response,19
true,7,2,1,2,true,d,false,true,0.0-2.0-0.23-0.215-3.215,0,0,0,68,false,stim,false,0,644,0,0,1,47540,task2,689091,false,false,784,image-keyboard-response,20
true,7,1,1,1,true,z,false,true,0.0-2.0-0.24-0.216-3.216,0,0,0,90,false,stim,false,2,938,0,0,2,47540,task2,691556,false,false,787,image-keyboard-response,21
true,7,1,1,1,true,z,false,true,0.0-2.0-0.24-0.217-3.217,0,0,0,90,false,stim,false,0,915,0,0,0,47540,task2,694004,false,false,790,image-keyboard-response,22
true,7,1,1,1,true,z,false,true,0.0-2.0-0.24-0.218-3.218,0,0,0,90,false,stim,false,0,602,0,0,0,47540,task2,696124,false,false,793,image-keyboard-response,23
true,7,1,1,1,true,z,false,true,0.0-2.0-0.24-0.219-3.219,0,0,0,90,false,stim,false,2,1529,0,0,2,47540,task2,699171,false,false,796,image-keyboard-response,24
true,7,2,1,2,true,d,false,true,0.0-2.0-0.24-0.220-3.220,0,0,0,68,false,stim,false,0,565,0,0,1,47540,task2,701251,false,false,799,image-keyboard-response,25
true,7,2,1,2,true,d,false,true,0.0-2.0-0.24-0.221-3.221,0,0,0,68,false,stim,false,0,1352,0,0,1,47540,task2,704140,false,false,802,image-keyboard-response,26
true,7,2,1,2,true,d,false,true,0.0-2.0-0.24-0.222-3.222,0,0,0,68,false,stim,false,0,452,0,0,1,47540,task2,706115,false,false,805,image-keyboard-response,27
true,7,1,1,1,true,z,false,true,0.0-2.0-0.24-0.223-3.223,0,0,0,90,false,stim,false,0,590,0,0,0,47540,task2,708228,false,false,808,image-keyboard-response,28
true,7,1,1,1,true,z,false,true,0.0-2.0-0.24-0.224-3.224,0,0,0,90,false,stim,false,2,1833,0,0,2,47540,task2,711580,false,false,811,image-keyboard-response,29
true,7,2,1,2,true,d,false,true,0.0-2.0-0.25-0.225-3.225,0,0,0,68,false,stim,false,0,696,0,0,1,47540,task2,713787,false,false,814,image-keyboard-response,30
true,7,2,1,2,true,d,false,false,0.0-2.0-0.25-0.226-3.226,0,0,0,68,false,stim,false,0,1059,0,0,1,47540,task2,716372,false,true,817,image-keyboard-response,31
true,7,1,1,1,true,z,false,true,0.0-2.0-0.25-0.227-3.227,0,0,0,90,false,stim,false,0,499,0,1,0,47540,task2,718395,false,false,820,image-keyboard-response,32
true,7,2,1,2,true,d,false,true,0.0-2.0-0.25-0.228-3.228,0,0,0,68,false,stim,false,0,663,0,0,1,47540,task2,720580,false,false,823,image-keyboard-response,33
true,7,1,1,1,true,z,false,true,0.0-2.0-0.25-0.229-3.229,0,0,0,90,false,stim,false,0,497,0,1,0,47540,task2,722604,false,false,826,image-keyboard-response,34
true,7,1,1,1,true,z,false,true,0.0-2.0-0.25-0.230-3.230,0,0,0,90,false,stim,false,2,448,0,0,2,47540,task2,724564,false,false,829,image-keyboard-response,35
true,8,1,2,1,true,z,false,true,0.0-2.0-0.25-0.231-3.231,1,0,0,90,true,stim,false,1,556,0,1,0,47540,task2,726643,false,false,832,image-keyboard-response,1
true,8,1,2,0,false,q,false,false,0.0-2.0-0.25-0.232-3.232,1,0,0,90,false,stim,true,1,696,0,0,2,47540,task2,728868,false,false,835,image-keyboard-response,2
true,8,1,2,0,false,q,false,false,0.0-2.0-0.25-0.233-3.233,1,0,0,90,false,stim,true,1,408,0,0,2,47540,task2,730795,false,false,838,image-keyboard-response,3
true,8,1,2,1,true,z,false,true,0.0-2.0-0.26-0.234-3.234,1,0,0,90,false,stim,false,1,598,0,1,0,47540,task2,732916,false,false,841,image-keyboard-response,4
true,8,1,2,1,true,z,false,true,0.0-2.0-0.26-0.235-3.235,1,0,0,90,false,stim,false,1,543,0,1,0,47540,task2,734972,false,false,844,image-keyboard-response,5
true,8,0,2,0,true,q,false,true,0.0-2.0-0.26-0.236-3.236,1,0,0,81,false,stim,false,1,511,0,0,2,47540,task2,737003,false,false,847,image-keyboard-response,6
true,8,0,2,0,true,q,false,true,0.0-2.0-0.26-0.237-3.237,1,0,0,81,false,stim,false,1,677,0,0,2,47540,task2,739204,false,false,850,image-keyboard-response,7
true,8,2,2,0,false,q,false,false,0.0-2.0-0.26-0.238-3.238,1,0,0,68,false,stim,true,2,644,0,0,1,47540,task2,741371,false,false,853,image-keyboard-response,8
true,8,2,2,0,false,q,false,false,0.0-2.0-0.26-0.239-3.239,1,0,0,68,false,stim,true,2,784,0,0,1,47540,task2,743668,false,false,856,image-keyboard-response,9
true,8,0,2,0,true,q,false,true,0.0-2.0-0.26-0.240-3.240,1,0,0,81,false,stim,false,2,1650,0,0,1,47540,task2,746828,false,false,859,image-keyboard-response,10
true,8,1,2,1,true,z,false,true,0.0-2.0-0.26-0.241-3.241,1,0,0,90,false,stim,false,1,1017,0,1,0,47540,task2,749355,false,false,862,image-keyboard-response,11
true,8,0,2,0,true,q,false,true,0.0-2.0-0.26-0.242-3.242,1,0,0,81,false,stim,false,1,720,0,0,2,47540,task2,751588,false,false,865,image-keyboard-response,12
true,8,0,2,0,true,q,false,true,0.0-2.0-0.27-0.243-3.243,1,0,0,81,false,stim,false,2,592,0,0,1,47540,task2,753700,false,false,868,image-keyboard-response,13
true,8,0,2,0,true,q,false,true,0.0-2.0-0.27-0.244-3.244,1,0,0,81,false,stim,false,2,472,0,0,1,47540,task2,755699,false,false,871,image-keyboard-response,14
true,8,0,2,0,true,q,false,true,0.0-2.0-0.27-0.245-3.245,1,0,0,81,false,stim,false,1,578,0,0,2,47540,task2,757795,false,false,874,image-keyboard-response,15
true,8,0,2,0,true,q,false,true,0.0-2.0-0.27-0.246-3.246,1,0,0,81,false,stim,false,1,417,0,0,2,47540,task2,759740,false,false,877,image-keyboard-response,16
true,8,1,2,1,true,z,false,false,0.0-2.0-0.27-0.247-3.247,1,0,0,90,false,stim,false,1,728,0,1,0,47540,task2,762003,false,true,880,image-keyboard-response,17
true,8,1,2,1,true,z,false,true,0.0-2.0-0.27-0.248-3.248,1,0,0,90,false,stim,false,1,567,0,1,0,47540,task2,764100,false,false,883,image-keyboard-response,18
true,8,0,2,0,true,q,false,false,0.0-2.0-0.27-0.249-3.249,1,0,0,81,false,stim,false,2,387,0,0,1,47540,task2,766020,false,true,886,image-keyboard-response,19
true,8,1,2,1,true,z,false,true,0.0-2.0-0.27-0.250-3.250,1,0,0,90,false,stim,false,1,538,0,1,0,47540,task2,768076,false,false,889,image-keyboard-response,20
true,8,0,2,0,true,q,false,true,0.0-2.0-0.27-0.251-3.251,1,0,0,81,false,stim,false,1,634,0,0,2,47540,task2,770228,false,false,892,image-keyboard-response,21
true,8,0,2,0,true,q,false,true,0.0-2.0-0.28-0.252-3.252,1,0,0,81,false,stim,false,2,462,0,0,1,47540,task2,772235,false,false,895,image-keyboard-response,22
true,8,1,2,1,true,z,false,true,0.0-2.0-0.28-0.253-3.253,1,0,0,90,false,stim,false,1,501,0,1,0,47540,task2,774259,false,false,898,image-keyboard-response,23
true,8,0,2,0,true,q,false,false,0.0-2.0-0.28-0.254-3.254,1,0,0,81,false,stim,false,1,450,0,0,2,47540,task2,776219,false,true,901,image-keyboard-response,24
true,8,1,2,1,true,z,false,true,0.0-2.0-0.28-0.255-3.255,1,0,0,90,false,stim,false,1,943,0,1,0,47540,task2,778691,false,false,904,image-keyboard-response,25
true,8,0,2,0,true,q,false,true,0.0-2.0-0.28-0.256-3.256,1,0,0,81,false,stim,false,1,369,0,0,2,47540,task2,780587,false,false,907,image-keyboard-response,26
true,8,0,2,0,true,q,false,true,0.0-2.0-0.28-0.257-3.257,1,0,0,81,false,stim,false,2,526,0,0,1,47540,task2,782643,false,false,910,image-keyboard-response,27
true,8,1,2,1,true,z,false,true,0.0-2.0-0.28-0.258-3.258,1,0,0,90,false,stim,false,1,417,0,1,0,47540,task2,784595,false,false,913,image-keyboard-response,28
true,8,0,2,0,true,q,false,true,0.0-2.0-0.28-0.259-3.259,1,0,0,81,false,stim,false,1,524,0,0,2,47540,task2,786651,false,false,916,image-keyboard-response,29
true,8,0,2,0,true,q,false,true,0.0-2.0-0.28-0.260-3.260,1,0,0,81,false,stim,false,2,432,0,0,1,47540,task2,788619,false,false,919,image-keyboard-response,30
true,8,1,2,1,true,z,false,true,0.0-2.0-0.29-0.261-3.261,1,0,0,90,false,stim,false,1,472,0,1,0,47540,task2,790619,false,false,922,image-keyboard-response,31
true,9,1,2,1,true,z,false,true,0.0-2.0-0.29-0.262-3.262,1,0,0,90,true,stim,false,1,535,0,1,0,47540,task2,792667,false,false,925,image-keyboard-response,1
true,9,1,2,1,true,z,false,true,0.0-2.0-0.29-0.263-3.263,1,0,0,90,false,stim,false,1,415,0,1,0,47540,task2,794611,false,false,928,image-keyboard-response,2
true,9,0,2,2,false,d,false,false,0.0-2.0-0.29-0.264-3.264,1,0,0,81,false,stim,true,0,455,0,0,2,47540,task2,796579,false,false,931,image-keyboard-response,3
true,9,0,2,2,false,d,false,false,0.0-2.0-0.29-0.265-3.265,1,0,0,81,false,stim,true,0,387,0,0,2,47540,task2,798484,false,false,934,image-keyboard-response,4
true,9,0,2,2,false,d,false,false,0.0-2.0-0.29-0.266-3.266,1,0,0,81,false,stim,true,0,857,0,0,1,47540,task2,800875,false,false,937,image-keyboard-response,5
true,9,1,2,2,false,d,true,false,0.0-2.0-0.29-0.267-3.267,1,0,0,90,false,stim,false,0,1704,0,0,1,47540,task2,804091,false,false,940,image-keyboard-response,6
true,9,1,2,2,false,d,true,false,0.0-2.0-0.29-0.268-3.268,1,0,0,90,false,stim,false,0,837,0,0,2,47540,task2,806435,false,false,943,image-keyboard-response,7
true,9,2,2,2,true,d,false,true,0.0-2.0-0.29-0.269-3.269,1,0,0,68,false,stim,false,0,1118,0,0,1,47540,task2,809075,false,false,946,image-keyboard-response,8
true,9,2,2,2,true,d,false,true,0.0-2.0-0.30-0.270-3.270,1,0,0,68,false,stim,false,0,514,0,0,1,47540,task2,811131,false,false,949,image-keyboard-response,9
true,9,2,2,2,true,d,false,true,0.0-2.0-0.30-0.271-3.271,1,0,0,68,false,stim,false,0,467,0,0,2,47540,task2,813115,false,false,952,image-keyboard-response,10
true,9,1,2,1,true,z,false,true,0.0-2.0-0.30-0.272-3.272,1,0,0,90,false,stim,false,1,703,0,1,0,47540,task2,815323,false,false,955,image-keyboard-response,11
true,9,2,2,2,true,d,false,true,0.0-2.0-0.30-0.273-3.273,1,0,0,68,false,stim,false,0,588,0,0,2,47540,task2,817435,false,false,958,image-keyboard-response,12
true,9,1,2,1,true,z,false,true,0.0-2.0-0.30-0.274-3.274,1,0,0,90,false,stim,false,1,566,0,1,0,47540,task2,819508,false,false,961,image-keyboard-response,13
true,9,2,2,2,true,d,false,true,0.0-2.0-0.30-0.275-3.275,1,0,0,68,false,stim,false,0,464,0,0,2,47540,task2,821499,false,false,964,image-keyboard-response,14
true,9,2,2,2,true,d,false,true,0.0-2.0-0.30-0.276-3.276,1,0,0,68,false,stim,false,0,536,0,0,1,47540,task2,823547,false,false,967,image-keyboard-response,15
true,9,1,2,1,true,z,false,true,0.0-2.0-0.30-0.277-3.277,1,0,0,90,false,stim,false,1,534,0,1,0,47540,task2,825611,false,false,970,image-keyboard-response,16
true,9,2,2,2,true,d,false,true,0.0-2.0-0.30-0.278-3.278,1,0,0,68,false,stim,false,0,621,0,0,1,47540,task2,827746,false,false,973,image-keyboard-response,17
true,9,2,2,2,true,d,false,true,0.0-2.0-0.31-0.279-3.279,1,0,0,68,false,stim,false,0,438,0,0,2,47540,task2,829715,false,false,976,image-keyboard-response,18
true,9,2,2,2,true,d,false,true,0.0-2.0-0.31-0.280-3.280,1,0,0,68,false,stim,false,0,502,0,0,2,47540,task2,831739,false,false,979,image-keyboard-response,19
true,9,2,2,2,true,d,false,true,0.0-2.0-0.31-0.281-3.281,1,0,0,68,false,stim,false,0,401,0,0,2,47540,task2,833675,false,false,982,image-keyboard-response,20
true,9,2,2,2,true,d,false,true,0.0-2.0-0.31-0.282-3.282,1,0,0,68,false,stim,false,0,501,0,0,1,47540,task2,835699,false,false,985,image-keyboard-response,21
true,9,1,2,1,true,z,false,true,0.0-2.0-0.31-0.283-3.283,1,0,0,90,false,stim,false,1,631,0,1,0,47540,task2,837859,false,false,988,image-keyboard-response,22
true,9,1,2,1,true,z,false,true,0.0-2.0-0.31-0.284-3.284,1,0,0,90,false,stim,false,1,433,0,1,0,47540,task2,839819,false,false,991,image-keyboard-response,23
true,9,2,2,2,true,d,false,true,0.0-2.0-0.31-0.285-3.285,1,0,0,68,false,stim,false,0,533,0,0,1,47540,task2,841867,false,false,994,image-keyboard-response,24
true,9,2,2,2,true,d,false,true,0.0-2.0-0.31-0.286-3.286,1,0,0,68,false,stim,false,0,1094,0,0,1,47540,task2,844491,false,false,997,image-keyboard-response,25
true,9,1,2,1,true,z,false,true,0.0-2.0-0.31-0.287-3.287,1,0,0,90,false,stim,false,1,542,0,1,0,47540,task2,846539,false,false,1000,image-keyboard-response,26
true,9,1,2,1,true,z,false,true,0.0-2.0-0.32-0.288-3.288,1,0,0,90,false,stim,false,1,554,0,1,0,47540,task2,848611,false,false,1003,image-keyboard-response,27
true,9,2,2,2,true,d,false,true,0.0-2.0-0.32-0.289-3.289,1,0,0,68,false,stim,false,0,450,0,0,2,47540,task2,850587,false,false,1006,image-keyboard-response,28
true,9,1,2,1,true,z,false,true,0.0-2.0-0.32-0.290-3.290,1,0,0,90,false,stim,false,1,469,0,1,0,47540,task2,852586,false,false,1009,image-keyboard-response,29
true,9,2,2,2,true,d,false,true,0.0-2.0-0.32-0.291-3.291,1,0,0,68,false,stim,false,0,507,0,0,1,47540,task2,854602,false,false,1012,image-keyboard-response,30
true,9,2,2,2,true,d,false,true,0.0-2.0-0.32-0.292-3.292,1,0,0,68,false,stim,false,0,431,0,0,2,47540,task2,856548,false,false,1015,image-keyboard-response,31
true,9,2,2,2,true,d,false,false,0.0-2.0-0.32-0.293-3.293,1,0,0,68,false,stim,false,0,786,0,0,2,47540,task2,858866,false,true,1018,image-keyboard-response,32
true,9,2,2,2,true,d,false,true,0.0-2.0-0.32-0.294-3.294,1,0,0,68,false,stim,false,0,472,0,0,1,47540,task2,860859,false,false,1021,image-keyboard-response,33
true,9,2,2,2,true,d,false,true,0.0-2.0-0.32-0.295-3.295,1,0,0,68,false,stim,false,0,523,0,0,1,47540,task2,862899,false,false,1024,image-keyboard-response,34
true,10,1,2,1,true,z,false,true,0.0-2.0-0.32-0.296-3.296,1,0,0,90,true,stim,false,1,566,0,1,0,47540,task2,865003,false,false,1027,image-keyboard-response,1
true,10,1,2,1,true,z,false,true,0.0-2.0-0.33-0.297-3.297,1,0,0,90,false,stim,false,1,531,0,1,0,47540,task2,867059,false,false,1030,image-keyboard-response,2
true,10,2,2,1,false,z,false,true,0.0-2.0-0.33-0.298-3.298,1,0,0,68,false,stim,true,2,424,0,0,2,47540,task2,869012,false,true,1033,image-keyboard-response,3
true,10,1,2,1,true,z,false,true,0.0-2.0-0.33-0.299-3.299,1,0,0,90,false,stim,false,1,544,0,1,0,47540,task2,871075,false,false,1036,image-keyboard-response,4
true,10,1,2,1,true,z,false,true,0.0-2.0-0.33-0.300-3.300,1,0,0,90,false,stim,false,1,522,0,1,0,47540,task2,873123,false,false,1039,image-keyboard-response,5
true,10,2,2,0,false,q,false,false,0.0-2.0-0.33-0.301-3.301,1,0,0,68,false,stim,true,2,588,0,0,1,47540,task2,875236,false,false,1042,image-keyboard-response,6
true,10,2,2,0,false,q,false,false,0.0-2.0-0.33-0.302-3.302,1,0,0,68,false,stim,true,2,439,0,0,1,47540,task2,877187,false,false,1045,image-keyboard-response,7
true,10,2,2,1,false,z,false,false,0.0-2.0-0.33-0.303-3.303,1,0,0,68,false,stim,true,2,673,0,0,2,47540,task2,879395,false,false,1048,image-keyboard-response,8
true,10,2,2,1,false,z,false,false,0.0-2.0-0.33-0.304-3.304,1,0,0,68,false,stim,true,2,692,0,0,2,47540,task2,881596,false,false,1051,image-keyboard-response,9
true,10,0,2,0,true,q,false,true,0.0-2.0-0.33-0.305-3.305,1,0,0,81,false,stim,false,2,652,0,0,1,47540,task2,883780,false,false,1054,image-keyboard-response,10
true,10,0,2,1,false,z,true,true,0.0-2.0-0.34-0.306-3.306,1,0,0,81,false,stim,false,2,658,0,0,2,47540,task2,885955,false,true,1057,image-keyboard-response,11
true,10,1,2,1,true,z,false,true,0.0-2.0-0.34-0.307-3.307,1,0,0,90,false,stim,false,1,588,0,1,0,47540,task2,888075,false,false,1060,image-keyboard-response,12
true,10,0,2,1,false,z,true,false,0.0-2.0-0.34-0.308-3.308,1,0,0,81,false,stim,false,2,403,0,0,2,47540,task2,890011,false,false,1063,image-keyboard-response,13
true,10,0,2,0,true,q,false,true,0.0-2.0-0.34-0.309-3.309,1,0,0,81,false,stim,false,2,479,0,0,1,47540,task2,892027,false,false,1066,image-keyboard-response,14
true,10,0,2,0,true,q,false,true,0.0-2.0-0.34-0.310-3.310,1,0,0,81,false,stim,false,2,528,0,0,1,47540,task2,894075,false,false,1069,image-keyboard-response,15
true,10,0,2,0,true,q,false,false,0.0-2.0-0.34-0.311-3.311,1,0,0,81,false,stim,false,2,484,0,0,1,47540,task2,896092,false,true,1072,image-keyboard-response,16
true,10,1,2,1,true,z,false,false,0.0-2.0-0.34-0.312-3.312,1,0,0,90,false,stim,false,1,768,0,1,0,47540,task2,898395,false,true,1075,image-keyboard-response,17
true,10,0,2,1,false,z,true,false,0.0-2.0-0.34-0.313-3.313,1,0,0,81,false,stim,false,2,526,0,0,2,47540,task2,900443,false,false,1078,image-keyboard-response,18
true,10,1,2,1,true,z,false,true,0.0-2.0-0.34-0.314-3.314,1,0,0,90,false,stim,false,1,926,0,1,0,47540,task2,902883,false,false,1081,image-keyboard-response,19
true,10,1,2,1,true,z,false,true,0.0-2.0-0.35-0.315-3.315,1,0,0,90,false,stim,false,1,584,0,1,0,47540,task2,904987,false,false,1084,image-keyboard-response,20
true,10,1,2,1,true,z,false,true,0.0-2.0-0.35-0.316-3.316,1,0,0,90,false,stim,false,2,609,0,0,2,47540,task2,907115,false,false,1087,image-keyboard-response,21
true,10,1,2,1,true,z,false,true,0.0-2.0-0.35-0.317-3.317,1,0,0,90,false,stim,false,2,427,0,0,2,47540,task2,909059,false,false,1090,image-keyboard-response,22
true,10,0,2,0,true,q,false,true,0.0-2.0-0.35-0.318-3.318,1,0,0,81,false,stim,false,2,476,0,0,1,47540,task2,911043,false,false,1093,image-keyboard-response,23
true,10,1,2,1,true,z,false,true,0.0-2.0-0.35-0.319-3.319,1,0,0,90,false,stim,false,1,523,0,1,0,47540,task2,913091,false,false,1096,image-keyboard-response,24
true,10,0,2,0,true,q,false,true,0.0-2.0-0.35-0.320-3.320,1,0,0,81,false,stim,false,2,931,0,0,1,47540,task2,915547,false,false,1099,image-keyboard-response,25
true,10,0,2,0,true,q,false,true,0.0-2.0-0.35-0.321-3.321,1,0,0,81,false,stim,false,2,795,0,0,1,47540,task2,917883,false,false,1102,image-keyboard-response,26
true,10,1,2,1,true,z,false,true,0.0-2.0-0.35-0.322-3.322,1,0,0,90,false,stim,false,1,521,0,1,0,47540,task2,919939,false,false,1105,image-keyboard-response,27
true,10,1,2,1,true,z,false,true,0.0-2.0-0.35-0.323-3.323,1,0,0,90,false,stim,false,2,424,0,0,2,47540,task2,921892,false,false,1108,image-keyboard-response,28
true,10,1,2,1,true,z,false,true,0.0-2.0-0.36-0.324-3.324,1,0,0,90,false,stim,false,2,351,0,0,2,47540,task2,923779,false,false,1111,image-keyboard-response,29
true,10,1,2,0,false,q,true,false,0.0-2.0-0.36-0.325-3.325,1,0,0,90,false,stim,false,2,325,0,0,1,47540,task2,925626,false,false,1114,image-keyboard-response,30
true,10,1,2,1,true,z,false,true,0.0-2.0-0.36-0.326-3.326,1,0,0,90,false,stim,false,1,1031,0,1,0,47540,task2,928195,false,false,1117,image-keyboard-response,31
true,10,1,2,1,true,z,false,true,0.0-2.0-0.36-0.327-3.327,1,0,0,90,false,stim,false,1,462,0,1,0,47540,task2,930179,false,false,1120,image-keyboard-response,32
true,11,0,2,1,false,z,false,false,0.0-2.0-0.36-0.328-3.328,1,0,0,81,true,stim,true,0,407,0,0,1,47540,task2,932099,false,false,1123,image-keyboard-response,1
true,11,0,2,1,false,z,false,false,0.0-2.0-0.36-0.329-3.329,1,0,0,81,false,stim,true,0,1551,0,0,1,47540,task2,935164,false,false,1126,image-keyboard-response,2
true,11,1,2,1,true,z,false,true,0.0-2.0-0.36-0.330-3.330,1,0,0,90,false,stim,false,1,783,0,1,0,47540,task2,937460,false,false,1129,image-keyboard-response,3
true,11,1,2,0,false,q,false,false,0.0-2.0-0.36-0.331-3.331,1,0,0,90,false,stim,true,1,676,0,0,2,47540,task2,939659,false,false,1132,image-keyboard-response,4
true,11,1,2,0,false,q,false,false,0.0-2.0-0.36-0.332-3.332,1,0,0,90,false,stim,true,1,763,0,0,2,47540,task2,941940,false,false,1135,image-keyboard-response,5
true,11,0,2,0,true,q,false,false,0.0-2.0-0.37-0.333-3.333,1,0,0,81,false,stim,false,1,1221,0,0,2,47540,task2,944692,false,true,1138,image-keyboard-response,6
true,11,2,2,0,false,q,true,false,0.0-2.0-0.37-0.334-3.334,1,0,0,68,false,stim,false,1,562,0,0,2,47540,task2,946787,false,false,1141,image-keyboard-response,7
true,11,2,2,1,false,z,true,false,0.0-2.0-0.37-0.335-3.335,1,0,0,68,false,stim,false,0,920,0,0,1,47540,task2,949228,false,false,1144,image-keyboard-response,8
true,11,1,2,1,true,z,false,true,0.0-2.0-0.37-0.336-3.336,1,0,0,90,false,stim,false,0,649,0,0,1,47540,task2,951412,false,false,1147,image-keyboard-response,9
true,11,1,2,1,true,z,false,true,0.0-2.0-0.37-0.337-3.337,1,0,0,90,false,stim,false,1,428,0,1,0,47540,task2,953380,false,false,1150,image-keyboard-response,10
true,11,1,2,1,true,z,false,true,0.0-2.0-0.37-0.338-3.338,1,0,0,90,false,stim,false,1,438,0,1,0,47540,task2,955356,false,false,1153,image-keyboard-response,11
true,11,1,2,1,true,z,false,true,0.0-2.0-0.37-0.339-3.339,1,0,0,90,false,stim,false,0,907,0,0,1,47540,task2,957796,false,false,1156,image-keyboard-response,12
true,11,1,2,1,true,z,false,true,0.0-2.0-0.37-0.340-3.340,1,0,0,90,false,stim,false,1,745,0,1,0,47540,task2,960067,false,false,1159,image-keyboard-response,13
true,11,0,2,0,true,q,false,true,0.0-2.0-0.37-0.341-3.341,1,0,0,81,false,stim,false,1,469,0,0,2,47540,task2,962052,false,false,1162,image-keyboard-response,14
true,11,1,2,1,true,z,false,true,0.0-2.0-0.38-0.342-3.342,1,0,0,90,false,stim,false,1,619,0,1,0,47540,task2,964188,false,false,1165,image-keyboard-response,15
true,11,0,2,0,true,q,false,true,0.0-2.0-0.38-0.343-3.343,1,0,0,81,false,stim,false,1,639,0,0,2,47540,task2,966355,false,false,1168,image-keyboard-response,16
true,11,0,2,0,true,q,false,true,0.0-2.0-0.38-0.344-3.344,1,0,0,81,false,stim,false,1,822,0,0,2,47540,task2,968700,false,false,1171,image-keyboard-response,17
true,11,1,2,1,true,z,false,true,0.0-2.0-0.38-0.345-3.345,1,0,0,90,false,stim,false,0,553,0,0,1,47540,task2,970787,false,false,1174,image-keyboard-response,18
true,11,1,2,1,true,z,false,true,0.0-2.0-0.38-0.346-3.346,1,0,0,90,false,stim,false,0,1037,0,0,1,47540,task2,973347,false,false,1177,image-keyboard-response,19
true,11,1,2,1,true,z,false,true,0.0-2.0-0.38-0.347-3.347,1,0,0,90,false,stim,false,0,438,0,0,1,47540,task2,975316,false,false,1180,image-keyboard-response,20
true,11,1,2,1,true,z,false,false,0.0-2.0-0.38-0.348-3.348,1,0,0,90,false,stim,false,1,1934,0,1,0,47540,task2,978788,false,true,1183,image-keyboard-response,21
true,11,1,2,1,true,z,false,true,0.0-2.0-0.38-0.349-3.349,1,0,0,90,false,stim,false,1,559,0,1,0,47540,task2,980875,false,false,1186,image-keyboard-response,22
true,11,0,2,0,true,q,false,true,0.0-2.0-0.38-0.350-3.350,1,0,0,81,false,stim,false,1,869,0,0,2,47540,task2,983268,false,false,1189,image-keyboard-response,23
true,11,1,2,1,true,z,false,false,0.0-2.0-0.39-0.351-3.351,1,0,0,90,false,stim,false,0,628,0,0,1,47540,task2,985411,false,true,1192,image-keyboard-response,24
true,11,1,2,1,true,z,false,true,0.0-2.0-0.39-0.352-3.352,1,0,0,90,false,stim,false,1,785,0,1,0,47540,task2,987708,false,false,1195,image-keyboard-response,25
true,11,1,2,1,true,z,false,false,0.0-2.0-0.39-0.353-3.353,1,0,0,90,false,stim,false,1,512,0,1,0,47540,task2,989740,false,true,1198,image-keyboard-response,26
true,11,0,2,0,true,q,false,false,0.0-2.0-0.39-0.354-3.354,1,0,0,81,false,stim,false,1,772,0,0,2,47540,task2,992043,false,true,1201,image-keyboard-response,27
true,11,0,2,0,true,q,false,true,0.0-2.0-0.39-0.355-3.355,1,0,0,81,false,stim,false,1,629,0,0,2,47540,task2,994189,false,false,1204,image-keyboard-response,28
true,11,1,2,1,true,z,false,true,0.0-2.0-0.39-0.356-3.356,1,0,0,90,false,stim,false,1,648,0,0,0,47540,task2,996356,false,false,1207,image-keyboard-response,29
true,11,0,2,0,true,q,false,true,0.0-2.0-0.39-0.357-3.357,1,0,0,81,false,stim,false,1,772,0,0,2,47540,task2,998660,false,false,1210,image-keyboard-response,30
true,11,1,2,1,true,z,false,true,0.0-2.0-0.39-0.358-3.358,1,0,0,90,false,stim,false,0,2275,0,0,1,47540,task2,1002468,false,false,1213,image-keyboard-response,31
true,11,1,2,1,true,z,false,true,0.0-2.0-0.39-0.359-3.359,1,0,0,90,false,stim,false,0,490,0,0,1,47540,task2,1004492,false,false,1216,image-keyboard-response,32
true,12,0,1,1,false,z,false,false,0.0-2.0-0.40-0.360-3.360,0,0,0,81,true,stim,true,0,1399,0,0,2,47540,task2,1007428,false,false,1219,image-keyboard-response,1
true,12,1,1,0,false,q,false,false,0.0-2.0-0.40-0.361-3.361,0,0,0,90,false,stim,true,1,657,0,0,0,47540,task2,1009620,false,false,1222,image-keyboard-response,2
true,12,1,1,0,false,q,false,false,0.0-2.0-0.40-0.362-3.362,0,0,0,90,false,stim,true,1,473,0,0,0,47540,task2,1011620,false,false,1225,image-keyboard-response,3
true,12,1,1,0,false,q,false,false,0.0-2.0-0.40-0.363-3.363,0,0,0,90,false,stim,true,1,2074,0,0,1,47540,task2,1015212,false,false,1228,image-keyboard-response,4
true,12,0,1,1,false,z,false,false,0.0-2.0-0.40-0.364-3.364,0,0,0,81,false,stim,true,0,747,0,0,2,47540,task2,1017492,false,false,1231,image-keyboard-response,5
true,12,2,1,0,false,q,true,false,0.0-2.0-0.40-0.365-3.365,0,0,0,68,false,stim,false,1,1480,0,0,1,47540,task2,1020500,false,false,1234,image-keyboard-response,6
true,12,0,1,0,true,q,false,true,0.0-2.0-0.40-0.366-3.366,0,0,0,81,false,stim,false,1,2624,0,0,1,47540,task2,1024653,false,false,1237,image-keyboard-response,7
true,12,0,1,0,true,q,false,true,0.0-2.0-0.40-0.367-3.367,0,0,0,81,false,stim,false,1,1098,0,0,0,47540,task2,1027276,false,false,1240,image-keyboard-response,8
true,12,0,1,1,false,z,false,false,0.0-2.0-0.40-0.368-3.368,0,0,0,81,false,stim,true,0,846,0,0,2,47540,task2,1029644,false,false,1243,image-keyboard-response,9
true,12,1,1,1,true,z,false,true,0.0-2.0-0.41-0.369-3.369,0,0,0,90,false,stim,false,0,849,0,0,2,47540,task2,1032029,false,false,1246,image-keyboard-response,10
true,12,0,1,0,true,q,false,true,0.0-2.0-0.41-0.370-3.370,0,0,0,81,false,stim,false,1,695,0,0,0,47540,task2,1034228,false,false,1249,image-keyboard-response,11
true,12,0,1,0,true,q,false,true,0.0-2.0-0.41-0.371-3.371,0,0,0,81,false,stim,false,1,1366,0,0,1,47540,task2,1037124,false,false,1252,image-keyboard-response,12
true,12,0,1,0,true,q,false,true,0.0-2.0-0.41-0.372-3.372,0,0,0,81,false,stim,false,1,790,0,0,0,47540,task2,1039435,false,false,1255,image-keyboard-response,13
true,12,0,1,0,true,q,false,true,0.0-2.0-0.41-0.373-3.373,0,0,0,81,false,stim,false,1,681,0,0,0,47540,task2,1041643,false,false,1258,image-keyboard-response,14
true,12,1,1,1,true,z,false,true,0.0-2.0-0.41-0.374-3.374,0,0,0,90,false,stim,false,0,506,0,0,2,47540,task2,1043669,false,false,1261,image-keyboard-response,15
true,12,1,1,1,true,z,false,true,0.0-2.0-0.41-0.375-3.375,0,0,0,90,false,stim,false,0,391,0,0,2,47540,task2,1045587,false,false,1264,image-keyboard-response,16
true,12,0,1,0,true,q,false,true,0.0-2.0-0.41-0.376-3.376,0,0,0,81,false,stim,false,1,1049,0,0,1,47540,task2,1048157,false,false,1267,image-keyboard-response,17
true,12,0,1,0,true,q,false,true,0.0-2.0-0.41-0.377-3.377,0,0,0,81,false,stim,false,1,523,0,0,1,47540,task2,1050212,false,false,1270,image-keyboard-response,18
true,12,1,1,1,true,z,false,true,0.0-2.0-0.42-0.378-3.378,0,0,0,90,false,stim,false,0,818,0,0,2,47540,task2,1052556,false,false,1273,image-keyboard-response,19
true,12,1,1,1,true,z,false,false,0.0-2.0-0.42-0.379-3.379,0,0,0,90,false,stim,false,0,532,0,0,2,47540,task2,1054620,false,true,1276,image-keyboard-response,20
true,12,0,1,0,true,q,false,true,0.0-2.0-0.42-0.380-3.380,0,0,0,81,false,stim,false,1,670,0,0,1,47540,task2,1056827,false,false,1279,image-keyboard-response,21
true,12,0,1,0,true,q,false,true,0.0-2.0-0.42-0.381-3.381,0,0,0,81,false,stim,false,1,697,0,0,0,47540,task2,1059044,false,false,1282,image-keyboard-response,22
true,12,1,1,1,true,z,false,true,0.0-2.0-0.42-0.382-3.382,0,0,0,90,false,stim,false,0,536,0,0,2,47540,task2,1061100,false,false,1285,image-keyboard-response,23
true,12,0,1,0,true,q,false,false,0.0-2.0-0.42-0.383-3.383,0,0,0,81,false,stim,false,1,439,0,0,1,47540,task2,1063052,false,true,1288,image-keyboard-response,24
true,12,0,1,0,true,q,false,true,0.0-2.0-0.42-0.384-3.384,0,0,0,81,false,stim,false,1,799,0,0,0,47540,task2,1065372,false,false,1291,image-keyboard-response,25
true,12,0,1,0,true,q,false,true,0.0-2.0-0.42-0.385-3.385,0,0,0,81,false,stim,false,1,573,0,0,1,47540,task2,1067476,false,false,1294,image-keyboard-response,26
true,12,0,1,0,true,q,false,true,0.0-2.0-0.42-0.386-3.386,0,0,0,81,false,stim,false,1,728,0,0,0,47540,task2,1069732,false,false,1297,image-keyboard-response,27
true,12,0,1,0,true,q,false,true,0.0-2.0-0.43-0.387-3.387,0,0,0,81,false,stim,false,1,497,0,0,0,47540,task2,1071748,false,false,1300,image-keyboard-response,28
true,12,1,1,1,true,z,false,true,0.0-2.0-0.43-0.388-3.388,0,0,0,90,false,stim,false,0,823,0,0,2,47540,task2,1074092,false,false,1303,image-keyboard-response,29
true,12,0,1,0,true,q,false,true,0.0-2.0-0.43-0.389-3.389,0,0,0,81,false,stim,false,1,625,0,0,1,47540,task2,1076243,false,false,1306,image-keyboard-response,30
true,12,0,1,0,true,q,false,true,0.0-2.0-0.43-0.390-3.390,0,0,0,81,false,stim,false,1,502,0,0,1,47540,task2,1078260,false,false,1309,image-keyboard-response,31
true,12,0,1,0,true,q,false,true,0.0-2.0-0.43-0.391-3.391,0,0,0,81,false,stim,false,1,570,0,0,0,47540,task2,1080364,false,false,1312,image-keyboard-response,32
true,12,0,1,0,true,q,false,true,0.0-2.0-0.43-0.392-3.392,0,0,0,81,false,stim,false,1,661,0,0,1,47540,task2,1082548,false,false,1315,image-keyboard-response,33
true,12,0,1,0,true,q,false,true,0.0-2.0-0.43-0.393-3.393,0,0,0,81,false,stim,false,1,899,0,0,0,47540,task2,1084964,false,false,1318,image-keyboard-response,34
true,13,1,1,0,false,q,false,true,0.0-2.0-0.43-0.394-3.394,0,0,0,90,true,stim,true,1,557,0,0,2,47540,task2,1087044,false,true,1321,image-keyboard-response,1
true,13,1,1,0,false,q,false,true,0.0-2.0-0.43-0.395-3.395,0,0,0,90,false,stim,true,1,479,0,0,2,47540,task2,1089052,false,true,1324,image-keyboard-response,2
true,13,1,1,0,false,q,false,false,0.0-2.0-0.44-0.396-3.396,0,0,0,90,false,stim,true,1,434,0,0,2,47540,task2,1091012,false,false,1327,image-keyboard-response,3
true,13,0,1,2,false,d,false,false,0.0-2.0-0.44-0.397-3.397,0,0,0,81,false,stim,true,0,760,0,0,0,47540,task2,1093308,false,false,1330,image-keyboard-response,4
true,13,0,1,2,false,d,false,false,0.0-2.0-0.44-0.398-3.398,0,0,0,81,false,stim,true,0,520,0,0,1,47540,task2,1095348,false,false,1333,image-keyboard-response,5
true,13,0,1,2,false,d,false,false,0.0-2.0-0.44-0.399-3.399,0,0,0,81,false,stim,true,0,718,0,0,1,47540,task2,1097596,false,false,1336,image-keyboard-response,6
true,13,1,1,2,false,d,true,false,0.0-2.0-0.44-0.400-3.400,0,0,0,90,false,stim,false,0,817,0,0,1,47540,task2,1099940,false,false,1339,image-keyboard-response,7
true,13,1,1,0,false,q,false,false,0.0-2.0-0.44-0.401-3.401,0,0,0,90,false,stim,true,1,1610,0,0,2,47540,task2,1103068,false,false,1342,image-keyboard-response,8
true,13,1,1,0,false,q,false,false,0.0-2.0-0.44-0.402-3.402,0,0,0,90,false,stim,true,1,1216,0,0,2,47540,task2,1105803,false,false,1345,image-keyboard-response,9
true,13,0,1,2,false,d,false,false,0.0-2.0-0.44-0.403-3.403,0,0,0,81,false,stim,true,0,1214,0,0,0,47540,task2,1108539,false,false,1348,image-keyboard-response,10
true,13,1,1,2,false,d,true,false,0.0-2.0-0.44-0.404-3.404,0,0,0,90,false,stim,false,0,845,0,0,0,47540,task2,1110908,false,false,1351,image-keyboard-response,11
true,13,2,1,2,true,d,false,true,0.0-2.0-0.45-0.405-3.405,0,0,0,68,false,stim,false,0,695,0,0,0,47540,task2,1113124,false,false,1354,image-keyboard-response,12
true,13,0,1,0,true,q,false,true,0.0-2.0-0.45-0.406-3.406,0,0,0,81,false,stim,false,1,1298,0,0,2,47540,task2,1115940,false,false,1357,image-keyboard-response,13
true,13,0,1,0,true,q,false,true,0.0-2.0-0.45-0.407-3.407,0,0,0,81,false,stim,false,1,583,0,0,2,47540,task2,1118052,false,false,1360,image-keyboard-response,14
true,13,2,1,2,true,d,false,true,0.0-2.0-0.45-0.408-3.408,0,0,0,68,false,stim,false,0,531,0,0,1,47540,task2,1120108,false,false,1363,image-keyboard-response,15
true,13,0,1,0,true,q,false,true,0.0-2.0-0.45-0.409-3.409,0,0,0,81,false,stim,false,1,513,0,0,2,47540,task2,1122156,false,false,1366,image-keyboard-response,16
true,13,2,1,2,true,d,false,false,0.0-2.0-0.45-0.410-3.410,0,0,0,68,false,stim,false,0,439,0,0,0,47540,task2,1124117,false,true,1369,image-keyboard-response,17
true,13,2,1,2,true,d,false,true,0.0-2.0-0.45-0.411-3.411,0,0,0,68,false,stim,false,0,568,0,0,1,47540,task2,1126196,false,false,1372,image-keyboard-response,18
true,13,2,1,2,true,d,false,true,0.0-2.0-0.45-0.412-3.412,0,0,0,68,false,stim,false,0,539,0,0,1,47540,task2,1128268,false,false,1375,image-keyboard-response,19
true,13,2,1,2,true,d,false,true,0.0-2.0-0.45-0.413-3.413,0,0,0,68,false,stim,false,0,532,0,0,0,47540,task2,1130308,false,false,1378,image-keyboard-response,20
true,13,2,1,2,true,d,false,true,0.0-2.0-0.46-0.414-3.414,0,0,0,68,false,stim,false,0,1734,0,0,1,47540,task2,1133572,false,false,1381,image-keyboard-response,21
true,13,0,1,2,false,d,false,false,0.0-2.0-0.46-0.415-3.415,0,0,0,81,false,stim,true,0,501,0,0,0,47540,task2,1135604,false,false,1384,image-keyboard-response,22
true,13,2,1,2,true,d,false,true,0.0-2.0-0.46-0.416-3.416,0,0,0,68,false,stim,false,0,582,0,0,0,47540,task2,1137717,false,false,1387,image-keyboard-response,23
true,13,0,1,0,true,q,false,true,0.0-2.0-0.46-0.417-3.417,0,0,0,81,false,stim,false,1,470,0,0,2,47540,task2,1139724,false,false,1390,image-keyboard-response,24
true,13,0,1,0,true,q,false,true,0.0-2.0-0.46-0.418-3.418,0,0,0,81,false,stim,false,1,718,0,0,2,47540,task2,1141956,false,false,1393,image-keyboard-response,25
true,13,2,1,2,true,d,false,true,0.0-2.0-0.46-0.419-3.419,0,0,0,68,false,stim,false,0,594,0,0,1,47540,task2,1144068,false,false,1396,image-keyboard-response,26
true,13,2,1,2,true,d,false,true,0.0-2.0-0.46-0.420-3.420,0,0,0,68,false,stim,false,0,588,0,0,0,47540,task2,1146180,false,false,1399,image-keyboard-response,27
true,13,0,1,0,true,q,false,true,0.0-2.0-0.46-0.421-3.421,0,0,0,81,false,stim,false,1,558,0,0,2,47540,task2,1148277,false,false,1402,image-keyboard-response,28
true,13,2,1,2,true,d,false,true,0.0-2.0-0.46-0.422-3.422,0,0,0,68,false,stim,false,0,535,0,0,1,47540,task2,1150349,false,false,1405,image-keyboard-response,29
true,13,2,1,2,true,d,false,true,0.0-2.0-0.47-0.423-3.423,0,0,0,68,false,stim,false,0,390,0,0,1,47540,task2,1152268,false,false,1408,image-keyboard-response,30
true,13,0,1,0,true,q,false,true,0.0-2.0-0.47-0.424-3.424,0,0,0,81,false,stim,false,1,667,0,0,2,47540,task2,1154452,false,false,1411,image-keyboard-response,31
true,13,2,1,2,true,d,false,true,0.0-2.0-0.47-0.425-3.425,0,0,0,68,false,stim,false,0,621,0,0,0,47540,task2,1156604,false,false,1414,image-keyboard-response,32
true,13,0,1,0,true,q,false,true,0.0-2.0-0.47-0.426-3.426,0,0,0,81,false,stim,false,1,495,0,0,2,47540,task2,1158612,false,false,1417,image-keyboard-response,33
true,13,2,1,2,true,d,false,true,0.0-2.0-0.47-0.427-3.427,0,0,0,68,false,stim,false,0,555,0,0,1,47540,task2,1160693,false,false,1420,image-keyboard-response,34
true,13,2,1,0,false,q,true,true,0.0-2.0-0.47-0.428-3.428,0,0,0,68,false,stim,false,1,627,0,0,2,47540,task2,1162836,false,true,1423,image-keyboard-response,35
true,14,2,1,0,false,q,false,false,0.0-2.0-0.47-0.429-3.429,0,0,0,68,true,stim,true,2,1563,0,0,0,47540,task2,1165917,false,false,1426,image-keyboard-response,1
true,14,2,1,0,false,q,false,false,0.0-2.0-0.47-0.430-3.430,0,0,0,68,false,stim,true,2,790,0,0,0,47540,task2,1168245,false,false,1429,image-keyboard-response,2
true,14,0,1,1,false,z,true,false,0.0-2.0-0.47-0.431-3.431,0,0,0,81,false,stim,false,2,819,0,0,1,47540,task2,1170572,false,false,1432,image-keyboard-response,3
true,14,0,1,2,false,d,false,true,0.0-2.0-0.48-0.432-3.432,0,0,0,81,false,stim,true,0,476,0,0,2,47540,task2,1172589,false,true,1435,image-keyboard-response,4
true,14,0,1,2,false,d,false,false,0.0-2.0-0.48-0.433-3.433,0,0,0,81,false,stim,true,0,642,0,0,2,47540,task2,1174756,false,false,1438,image-keyboard-response,5
true,14,2,1,1,false,z,false,false,0.0-2.0-0.48-0.434-3.434,0,0,0,68,false,stim,true,2,525,0,0,1,47540,task2,1176805,false,false,1441,image-keyboard-response,6
true,14,1,1,0,false,q,true,true,0.0-2.0-0.48-0.435-3.435,0,0,0,90,false,stim,false,2,937,0,0,0,47540,task2,1179261,false,true,1444,image-keyboard-response,7
true,14,0,1,2,false,d,false,false,0.0-2.0-0.48-0.436-3.436,0,0,0,81,false,stim,true,0,517,0,0,2,47540,task2,1181284,false,false,1447,image-keyboard-response,8
true,14,2,1,1,false,z,false,false,0.0-2.0-0.48-0.437-3.437,0,0,0,68,false,stim,true,2,1365,0,0,1,47540,task2,1184165,false,false,1450,image-keyboard-response,9
true,14,1,1,1,true,z,false,true,0.0-2.0-0.48-0.438-3.438,0,0,0,90,false,stim,false,2,721,0,0,1,47540,task2,1186421,false,false,1453,image-keyboard-response,10
true,14,1,1,0,false,q,true,true,0.0-2.0-0.48-0.439-3.439,0,0,0,90,false,stim,false,2,891,0,0,0,47540,task2,1188819,false,true,1456,image-keyboard-response,11
true,14,1,1,0,false,q,true,false,0.0-2.0-0.48-0.440-3.440,0,0,0,90,false,stim,false,2,913,0,0,0,47540,task2,1191260,false,false,1459,image-keyboard-response,12
true,14,1,1,0,false,q,true,false,0.0-2.0-0.49-0.441-3.441,0,0,0,90,false,stim,false,2,468,0,0,0,47540,task2,1193252,false,false,1462,image-keyboard-response,13
true,14,0,1,2,false,d,false,false,0.0-2.0-0.49-0.442-3.442,0,0,0,81,false,stim,true,0,503,0,0,2,47540,task2,1195276,false,false,1465,image-keyboard-response,14
true,14,1,1,1,true,z,false,true,0.0-2.0-0.49-0.443-3.443,0,0,0,90,false,stim,false,2,1553,0,0,1,47540,task2,1198364,false,false,1468,image-keyboard-response,15
true,14,1,1,1,true,z,false,true,0.0-2.0-0.49-0.444-3.444,0,0,0,90,false,stim,false,2,563,0,0,1,47540,task2,1200451,false,false,1471,image-keyboard-response,16
true,14,2,1,2,true,d,false,true,0.0-2.0-0.49-0.445-3.445,0,0,0,68,false,stim,false,0,2346,0,0,2,47540,task2,1204340,false,false,1474,image-keyboard-response,17
true,14,0,1,0,true,q,false,true,0.0-2.0-0.49-0.446-3.446,0,0,0,81,false,stim,false,2,829,0,0,0,47540,task2,1206675,false,false,1477,image-keyboard-response,18
true,14,2,1,2,true,d,false,true,0.0-2.0-0.49-0.447-3.447,0,0,0,68,false,stim,false,0,941,0,0,2,47540,task2,1209140,false,false,1480,image-keyboard-response,19
true,14,1,1,1,true,z,false,true,0.0-2.0-0.49-0.448-3.448,0,0,0,90,false,stim,false,2,654,0,0,1,47540,task2,1211308,false,false,1483,image-keyboard-response,20
true,14,0,1,0,true,q,false,true,0.0-2.0-0.49-0.449-3.449,0,0,0,81,false,stim,false,2,409,0,0,0,47540,task2,1213244,false,false,1486,image-keyboard-response,21
true,14,0,1,0,true,q,false,true,0.0-2.0-0.50-0.450-3.450,0,0,0,81,false,stim,false,2,658,0,0,0,47540,task2,1215436,false,false,1489,image-keyboard-response,22
true,14,0,1,0,true,q,false,true,0.0-2.0-0.50-0.451-3.451,0,0,0,81,false,stim,false,2,403,0,0,0,47540,task2,1217380,false,false,1492,image-keyboard-response,23
true,14,1,1,1,true,z,false,true,0.0-2.0-0.50-0.452-3.452,0,0,0,90,false,stim,false,2,428,0,0,1,47540,task2,1219339,false,false,1495,image-keyboard-response,24
true,14,0,1,0,true,q,false,true,0.0-2.0-0.50-0.453-3.453,0,0,0,81,false,stim,false,2,661,0,0,0,47540,task2,1221524,false,false,1498,image-keyboard-response,25
true,14,1,1,1,true,z,false,true,0.0-2.0-0.50-0.454-3.454,0,0,0,90,false,stim,false,2,903,0,0,1,47540,task2,1223964,false,false,1501,image-keyboard-response,26
true,14,2,1,2,true,d,false,false,0.0-2.0-0.50-0.455-3.455,0,0,0,68,false,stim,false,0,635,0,0,2,47540,task2,1226116,false,true,1504,image-keyboard-response,27
true,14,2,1,2,true,d,false,true,0.0-2.0-0.50-0.456-3.456,0,0,0,68,false,stim,false,0,407,0,0,2,47540,task2,1228044,false,false,1507,image-keyboard-response,28
true,14,2,1,2,true,d,false,true,0.0-2.0-0.50-0.457-3.457,0,0,0,68,false,stim,false,0,507,0,0,2,47540,task2,1230084,false,false,1510,image-keyboard-response,29
true,14,1,1,1,true,z,false,false,0.0-2.0-0.50-0.458-3.458,0,0,0,90,false,stim,false,2,926,0,0,1,47540,task2,1232532,false,true,1513,image-keyboard-response,30
true,14,2,1,2,true,d,false,true,0.0-2.0-0.51-0.459-3.459,0,0,0,68,false,stim,false,0,594,0,0,2,47540,task2,1234652,false,false,1516,image-keyboard-response,31
true,14,1,1,1,true,z,false,true,0.0-2.0-0.51-0.460-3.460,0,0,0,90,false,stim,false,2,666,0,0,1,47540,task2,1236827,false,false,1519,image-keyboard-response,32
true,14,2,1,2,true,d,false,true,0.0-2.0-0.51-0.461-3.461,0,0,0,68,false,stim,false,0,495,0,0,2,47540,task2,1238844,false,false,1522,image-keyboard-response,33
true,14,0,1,0,true,q,false,false,0.0-2.0-0.51-0.462-3.462,0,0,0,81,false,stim,false,2,562,0,0,0,47540,task2,1240916,false,true,1525,image-keyboard-response,34
true,14,0,1,0,true,q,false,true,0.0-2.0-0.51-0.463-3.463,0,0,0,81,false,stim,false,2,397,0,0,0,47540,task2,1242843,false,false,1528,image-keyboard-response,35
true,14,1,1,1,true,z,false,true,0.0-2.0-0.51-0.464-3.464,0,0,0,90,false,stim,false,2,686,0,0,1,47540,task2,1245059,false,false,1531,image-keyboard-response,36
true,14,2,1,2,true,d,false,true,0.0-2.0-0.51-0.465-3.465,0,0,0,68,false,stim,false,0,429,0,0,2,47540,task2,1247027,false,false,1534,image-keyboard-response,37
true,15,0,1,2,false,d,false,false,0.0-2.0-0.51-0.466-3.466,0,0,0,81,true,stim,true,0,574,0,0,0,47540,task2,1249132,false,false,1537,image-keyboard-response,1
true,15,1,1,0,false,q,false,false,0.0-2.0-0.51-0.467-3.467,0,0,0,90,false,stim,true,1,629,0,0,1,47540,task2,1251275,false,false,1540,image-keyboard-response,2
true,15,0,1,2,false,d,false,false,0.0-2.0-0.52-0.468-3.468,0,0,0,81,false,stim,true,0,917,0,0,0,47540,task2,1253732,false,false,1543,image-keyboard-response,3
true,15,1,1,0,false,q,false,false,0.0-2.0-0.52-0.469-3.469,0,0,0,90,false,stim,true,1,912,0,0,1,47540,task2,1256179,false,false,1546,image-keyboard-response,4
true,15,2,1,1,false,z,false,false,0.0-2.0-0.52-0.470-3.470,0,0,0,68,false,stim,true,2,992,0,0,2,47540,task2,1258700,false,false,1549,image-keyboard-response,5
true,15,1,1,2,false,d,true,false,0.0-2.0-0.52-0.471-3.471,0,0,0,90,false,stim,false,0,758,0,0,0,47540,task2,1260996,false,false,1552,image-keyboard-response,6
true,15,0,1,0,true,q,false,true,0.0-2.0-0.52-0.472-3.472,0,0,0,81,false,stim,false,1,982,0,0,1,47540,task2,1263500,false,false,1555,image-keyboard-response,7
true,15,2,1,2,true,d,false,true,0.0-2.0-0.52-0.473-3.473,0,0,0,68,false,stim,false,0,1041,0,0,0,47540,task2,1266067,false,false,1558,image-keyboard-response,8
true,15,2,1,1,false,z,false,true,0.0-2.0-0.52-0.474-3.474,0,0,0,68,false,stim,true,2,456,0,0,2,47540,task2,1268052,false,true,1561,image-keyboard-response,9
true,15,2,1,1,false,z,false,false,0.0-2.0-0.52-0.475-3.475,0,0,0,68,false,stim,true,2,1237,0,0,2,47540,task2,1270795,false,false,1564,image-keyboard-response,10
true,15,0,1,0,true,q,false,true,0.0-2.0-0.52-0.476-3.476,0,0,0,81,false,stim,false,1,866,0,0,1,47540,task2,1273179,false,false,1567,image-keyboard-response,11
true,15,2,1,2,true,d,false,true,0.0-2.0-0.53-0.477-3.477,0,0,0,68,false,stim,false,0,489,0,0,0,47540,task2,1275188,false,false,1570,image-keyboard-response,12
true,15,0,1,0,true,q,false,false,0.0-2.0-0.53-0.478-3.478,0,0,0,81,false,stim,false,1,1009,0,0,1,47540,task2,1277715,false,true,1573,image-keyboard-response,13
true,15,0,1,0,true,q,false,true,0.0-2.0-0.53-0.479-3.479,0,0,0,81,false,stim,false,1,423,0,0,1,47540,task2,1279660,false,false,1576,image-keyboard-response,14
true,15,2,1,1,false,z,false,false,0.0-2.0-0.53-0.480-3.480,0,0,0,68,false,stim,true,2,674,0,0,2,47540,task2,1281852,false,false,1579,image-keyboard-response,15
true,15,1,1,1,true,z,false,true,0.0-2.0-0.53-0.481-3.481,0,0,0,90,false,stim,false,2,607,0,0,2,47540,task2,1283989,false,false,1582,image-keyboard-response,16
true,15,0,1,0,true,q,false,true,0.0-2.0-0.53-0.482-3.482,0,0,0,81,false,stim,false,1,442,0,0,1,47540,task2,1285948,false,false,1585,image-keyboard-response,17
true,15,1,1,1,true,z,false,true,0.0-2.0-0.53-0.483-3.483,0,0,0,90,false,stim,false,2,418,0,0,2,47540,task2,1287892,false,false,1588,image-keyboard-response,18
true,15,2,1,2,true,d,false,true,0.0-2.0-0.53-0.484-3.484,0,0,0,68,false,stim,false,0,406,0,0,0,47540,task2,1289828,false,false,1591,image-keyboard-response,19
true,15,2,1,2,true,d,false,true,0.0-2.0-0.53-0.485-3.485,0,0,0,68,false,stim,false,0,603,0,0,0,47540,task2,1291948,false,false,1594,image-keyboard-response,20
true,15,0,1,0,true,q,false,true,0.0-2.0-0.54-0.486-3.486,0,0,0,81,false,stim,false,1,640,0,0,1,47540,task2,1294108,false,false,1597,image-keyboard-response,21
true,15,1,1,1,true,z,false,true,0.0-2.0-0.54-0.487-3.487,0,0,0,90,false,stim,false,2,468,0,0,2,47540,task2,1296093,false,false,1600,image-keyboard-response,22
true,15,1,1,1,true,z,false,true,0.0-2.0-0.54-0.488-3.488,0,0,0,90,false,stim,false,2,427,0,0,2,47540,task2,1298044,false,false,1603,image-keyboard-response,23
true,15,2,1,2,true,d,false,true,0.0-2.0-0.54-0.489-3.489,0,0,0,68,false,stim,false,0,456,0,0,0,47540,task2,1300028,false,false,1606,image-keyboard-response,24
true,15,0,1,0,true,q,false,true,0.0-2.0-0.54-0.490-3.490,0,0,0,81,false,stim,false,1,661,0,0,1,47540,task2,1302220,false,false,1609,image-keyboard-response,25
true,15,1,1,1,true,z,false,true,0.0-2.0-0.54-0.491-3.491,0,0,0,90,false,stim,false,2,527,0,0,2,47540,task2,1304277,false,false,1612,image-keyboard-response,26
true,15,0,1,0,true,q,false,true,0.0-2.0-0.54-0.492-3.492,0,0,0,81,false,stim,false,1,898,0,0,1,47540,task2,1306700,false,false,1615,image-keyboard-response,27
true,15,2,1,2,true,d,false,true,0.0-2.0-0.54-0.493-3.493,0,0,0,68,false,stim,false,0,487,0,0,0,47540,task2,1308700,false,false,1618,image-keyboard-response,28
true,15,2,1,2,true,d,false,true,0.0-2.0-0.54-0.494-3.494,0,0,0,68,false,stim,false,0,533,0,0,0,47540,task2,1310749,false,false,1621,image-keyboard-response,29
true,15,0,1,0,true,q,false,true,0.0-2.0-0.55-0.495-3.495,0,0,0,81,false,stim,false,1,632,0,0,1,47540,task2,1312900,false,false,1624,image-keyboard-response,30
true,15,2,1,2,true,d,false,false,0.0-2.0-0.55-0.496-3.496,0,0,0,68,false,stim,false,0,515,0,0,0,47540,task2,1314924,false,true,1627,image-keyboard-response,31
true,15,1,1,1,true,z,false,true,0.0-2.0-0.55-0.497-3.497,0,0,0,90,false,stim,false,2,1116,0,0,2,47540,task2,1317548,false,false,1630,image-keyboard-response,32
true,15,1,1,1,true,z,false,true,0.0-2.0-0.55-0.498-3.498,0,0,0,90,false,stim,false,2,535,0,0,2,47540,task2,1319612,false,false,1633,image-keyboard-response,33
true,15,2,1,2,true,d,false,true,0.0-2.0-0.55-0.499-3.499,0,0,0,68,false,stim,false,0,415,0,0,0,47540,task2,1321548,false,false,1636,image-keyboard-response,34
true,15,0,1,0,true,q,false,true,0.0-2.0-0.55-0.500-3.500,0,0,0,81,false,stim,false,1,487,0,0,1,47540,task2,1323564,false,false,1639,image-keyboard-response,35
true,15,2,1,2,true,d,false,true,0.0-2.0-0.55-0.501-3.501,0,0,0,68,false,stim,false,0,509,0,0,0,47540,task2,1325588,false,false,1642,image-keyboard-response,36
true,15,0,1,0,true,q,false,true,0.0-2.0-0.55-0.502-3.502,0,0,0,81,false,stim,false,1,602,0,0,1,47540,task2,1327716,false,false,1645,image-keyboard-response,37
true,15,1,1,1,true,z,false,true,0.0-2.0-0.55-0.503-3.503,0,0,0,90,false,stim,false,2,422,0,0,2,47540,task2,1329660,false,false,1648,image-keyboard-response,38
true,16,0,1,2,false,d,false,false,0.0-2.0-0.56-0.504-3.504,0,0,0,81,true,stim,true,0,624,0,0,1,47540,task2,1331812,false,false,1651,image-keyboard-response,1
true,16,2,1,0,false,q,false,false,0.0-2.0-0.56-0.505-3.505,0,0,0,68,false,stim,true,2,757,0,0,0,47540,task2,1334092,false,false,1654,image-keyboard-response,2
true,16,0,1,2,false,d,false,false,0.0-2.0-0.56-0.506-3.506,0,0,0,81,false,stim,true,0,762,0,0,1,47540,task2,1336380,false,false,1657,image-keyboard-response,3
true,16,2,1,0,false,q,false,true,0.0-2.0-0.56-0.507-3.507,0,0,0,68,false,stim,true,2,1381,0,0,0,47540,task2,1339284,false,true,1660,image-keyboard-response,4
true,16,1,1,0,false,q,false,false,0.0-2.0-0.56-0.508-3.508,0,0,0,90,false,stim,true,1,985,0,0,2,47540,task2,1341804,false,false,1663,image-keyboard-response,5
true,16,2,1,0,false,q,false,false,0.0-2.0-0.56-0.509-3.509,0,0,0,68,false,stim,true,2,837,0,0,0,47540,task2,1344156,false,false,1666,image-keyboard-response,6
true,16,1,1,0,false,q,false,false,0.0-2.0-0.56-0.510-3.510,0,0,0,90,false,stim,true,1,935,0,0,2,47540,task2,1346628,false,false,1669,image-keyboard-response,7
true,16,1,1,2,false,d,true,false,0.0-2.0-0.56-0.511-3.511,0,0,0,90,false,stim,false,0,487,0,0,1,47540,task2,1348644,false,false,1672,image-keyboard-response,8
true,16,0,1,0,true,q,false,true,0.0-2.0-0.56-0.512-3.512,0,0,0,81,false,stim,false,1,722,0,0,2,47540,task2,1350876,false,false,1675,image-keyboard-response,9
true,16,2,1,0,false,q,false,false,0.0-2.0-0.57-0.513-3.513,0,0,0,68,false,stim,true,2,1178,0,0,0,47540,task2,1353572,false,false,1678,image-keyboard-response,10
true,16,0,1,0,true,q,false,true,0.0-2.0-0.57-0.514-3.514,0,0,0,81,false,stim,false,1,1406,0,0,2,47540,task2,1356492,false,false,1681,image-keyboard-response,11
true,16,1,1,2,false,d,true,false,0.0-2.0-0.57-0.515-3.515,0,0,0,90,false,stim,false,0,638,0,0,1,47540,task2,1358652,false,false,1684,image-keyboard-response,12
true,16,0,1,0,true,q,false,true,0.0-2.0-0.57-0.516-3.516,0,0,0,81,false,stim,false,1,765,0,0,2,47540,task2,1360941,false,false,1687,image-keyboard-response,13
true,16,2,1,0,false,q,true,false,0.0-2.0-0.57-0.517-3.517,0,0,0,68,false,stim,false,1,564,0,0,2,47540,task2,1363068,false,false,1690,image-keyboard-response,14
false,16,-1,1,2,false,d,true,false,0.0-2.0-0.57-0.518-3.518,0,0,0,,false,stim,false,0,,0,0,1,47540,task2,1367628,false,false,1693,image-keyboard-response,15
true,16,0,1,0,true,q,false,true,0.0-2.0-0.57-0.519-3.519,0,0,0,81,false,stim,false,2,1875,0,0,0,47540,task2,1371036,false,false,1696,image-keyboard-response,16
true,16,0,1,2,false,d,false,false,0.0-2.0-0.57-0.520-3.520,0,0,0,81,false,stim,true,0,697,0,0,1,47540,task2,1373246,false,false,1699,image-keyboard-response,17
true,16,0,1,0,true,q,false,true,0.0-2.0-0.57-0.521-3.521,0,0,0,81,false,stim,false,2,742,0,0,0,47540,task2,1375533,false,false,1702,image-keyboard-response,18
true,16,0,1,0,true,q,false,true,0.0-2.0-0.58-0.522-3.522,0,0,0,81,false,stim,false,1,552,0,0,2,47540,task2,1377620,false,false,1705,image-keyboard-response,19
true,16,1,1,2,false,d,true,false,0.0-2.0-0.58-0.523-3.523,0,0,0,90,false,stim,false,0,434,0,0,1,47540,task2,1379572,false,false,1708,image-keyboard-response,20
true,16,0,1,0,true,q,false,false,0.0-2.0-0.58-0.524-3.524,0,0,0,81,false,stim,false,2,564,0,0,0,47540,task2,1381653,false,true,1711,image-keyboard-response,21
true,16,2,1,2,true,d,false,true,0.0-2.0-0.58-0.525-3.525,0,0,0,68,false,stim,false,0,946,0,0,1,47540,task2,1384132,false,false,1714,image-keyboard-response,22
true,16,0,1,0,true,q,false,true,0.0-2.0-0.58-0.526-3.526,0,0,0,81,false,stim,false,2,643,0,0,0,47540,task2,1386299,false,false,1717,image-keyboard-response,23
true,16,2,1,2,true,d,false,true,0.0-2.0-0.58-0.527-3.527,0,0,0,68,false,stim,false,0,386,0,0,1,47540,task2,1388220,false,false,1720,image-keyboard-response,24
true,16,0,1,0,true,q,false,true,0.0-2.0-0.58-0.528-3.528,0,0,0,81,false,stim,false,1,334,0,0,2,47540,task2,1390069,false,false,1723,image-keyboard-response,25
true,16,0,1,0,true,q,false,true,0.0-2.0-0.58-0.529-3.529,0,0,0,81,false,stim,false,1,711,0,0,2,47540,task2,1392308,false,false,1726,image-keyboard-response,26
true,16,0,1,0,true,q,false,true,0.0-2.0-0.58-0.530-3.530,0,0,0,81,false,stim,false,2,558,0,0,0,47540,task2,1394397,false,false,1729,image-keyboard-response,27
true,16,0,1,0,true,q,false,true,0.0-2.0-0.59-0.531-3.531,0,0,0,81,false,stim,false,2,373,0,0,0,47540,task2,1396284,false,false,1732,image-keyboard-response,28
true,16,0,1,0,true,q,false,true,0.0-2.0-0.59-0.532-3.532,0,0,0,81,false,stim,false,2,397,0,0,0,47540,task2,1398196,false,false,1735,image-keyboard-response,29
true,16,0,1,0,true,q,false,true,0.0-2.0-0.59-0.533-3.533,0,0,0,81,false,stim,false,1,368,0,0,2,47540,task2,1400092,false,false,1738,image-keyboard-response,30
true,16,0,1,0,true,q,false,true,0.0-2.0-0.59-0.534-3.534,0,0,0,81,false,stim,false,1,357,0,0,2,47540,task2,1401981,false,false,1741,image-keyboard-response,31
true,16,2,1,2,true,d,false,false,0.0-2.0-0.59-0.535-3.535,0,0,0,68,false,stim,false,0,484,0,0,1,47540,task2,1403981,false,true,1744,image-keyboard-response,32
true,16,0,1,0,true,q,false,true,0.0-2.0-0.59-0.536-3.536,0,0,0,81,false,stim,false,2,369,0,0,0,47540,task2,1405876,false,false,1747,image-keyboard-response,33
true,16,2,1,0,false,q,true,false,0.0-2.0-0.59-0.537-3.537,0,0,0,68,false,stim,false,1,781,0,1,2,47540,task2,1408180,false,false,1750,image-keyboard-response,34
true,16,0,1,2,false,d,false,true,0.0-2.0-0.59-0.538-3.538,0,0,0,81,false,stim,true,0,517,0,1,1,47540,task2,1410220,false,true,1753,image-keyboard-response,35
true,16,0,1,2,false,d,false,false,0.0-2.0-0.59-0.539-3.539,0,0,0,81,false,stim,true,0,416,0,1,1,47540,task2,1412156,false,false,1756,image-keyboard-response,36
true,16,1,1,0,false,q,false,false,0.0-2.0-0.60-0.540-3.540,0,0,0,90,false,stim,true,1,779,0,1,2,47540,task2,1414468,false,false,1759,image-keyboard-response,37
true,16,0,1,2,false,d,false,false,0.0-2.0-0.60-0.541-3.541,0,0,0,81,false,stim,true,0,592,0,1,1,47540,task2,1416580,false,false,1762,image-keyboard-response,38
true,17,0,0,2,false,d,true,false,0.0-2.0-0.60-0.542-3.542,1,1,1,81,true,stim,false,2,1304,0,1,1,47540,task2,1441132,false,false,1787,image-keyboard-response,1
true,17,0,0,0,true,q,false,true,0.0-2.0-0.60-0.543-3.543,1,1,1,81,false,stim,false,0,1028,0,1,2,47540,task2,1443693,false,false,1790,image-keyboard-response,2
true,17,1,0,0,false,q,true,false,0.0-2.0-0.60-0.544-3.544,1,1,1,90,false,stim,false,0,792,0,1,0,47540,task2,1446012,false,false,1793,image-keyboard-response,3
true,17,0,0,0,true,q,false,true,0.0-2.0-0.60-0.545-3.545,1,1,1,81,false,stim,false,0,469,0,1,2,47540,task2,1447997,false,false,1796,image-keyboard-response,4
true,17,0,0,0,true,q,false,true,0.0-2.0-0.60-0.546-3.546,1,1,1,81,false,stim,false,0,515,0,1,0,47540,task2,1450029,false,false,1799,image-keyboard-response,5
true,17,2,0,2,true,d,false,true,0.0-2.0-0.60-0.547-3.547,1,1,1,68,false,stim,false,2,492,0,1,1,47540,task2,1452061,false,false,1802,image-keyboard-response,6
true,17,0,0,0,true,q,false,true,0.0-2.0-0.60-0.548-3.548,1,1,1,81,false,stim,false,0,624,0,1,0,47540,task2,1454213,false,false,1805,image-keyboard-response,7
true,17,0,0,0,true,q,false,true,0.0-2.0-0.61-0.549-3.549,1,1,1,81,false,stim,false,0,424,0,1,0,47540,task2,1456172,false,false,1808,image-keyboard-response,8
true,17,0,0,0,true,q,false,true,0.0-2.0-0.61-0.550-3.550,1,1,1,81,false,stim,false,0,472,0,0,0,47540,task2,1458180,false,false,1811,image-keyboard-response,9
true,17,2,0,2,true,d,false,true,0.0-2.0-0.61-0.551-3.551,1,1,1,68,false,stim,false,2,1276,0,1,1,47540,task2,1460990,false,false,1814,image-keyboard-response,10
true,17,0,0,0,true,q,false,false,0.0-2.0-0.61-0.552-3.552,1,1,1,81,false,stim,false,0,701,0,0,2,47540,task2,1463204,false,true,1817,image-keyboard-response,11
true,17,0,0,0,true,q,false,true,0.0-2.0-0.61-0.553-3.553,1,1,1,81,false,stim,false,0,622,0,0,2,47540,task2,1465340,false,false,1820,image-keyboard-response,12
true,17,0,0,0,true,q,false,true,0.0-2.0-0.61-0.554-3.554,1,1,1,81,false,stim,false,0,518,0,0,0,47540,task2,1467372,false,false,1823,image-keyboard-response,13
true,18,2,2,2,true,d,false,true,0.0-2.0-0.61-0.555-3.555,0,1,0,68,true,stim,false,2,638,0,1,1,47540,task2,1469549,false,false,1826,image-keyboard-response,1
true,18,2,2,2,true,d,false,true,0.0-2.0-0.61-0.556-3.556,0,1,0,68,false,stim,false,2,411,0,1,1,47540,task2,1471484,false,false,1829,image-keyboard-response,2
true,18,0,2,1,false,z,false,false,0.0-2.0-0.61-0.557-3.557,0,1,0,81,false,stim,true,0,535,0,0,2,47540,task2,1473548,false,false,1832,image-keyboard-response,3
true,18,0,2,2,false,d,false,true,0.0-2.0-0.62-0.558-3.558,0,1,0,81,false,stim,true,0,482,0,0,0,47540,task2,1475557,false,true,1835,image-keyboard-response,4
true,18,2,2,2,true,d,false,true,0.0-2.0-0.62-0.559-3.559,0,1,0,68,false,stim,false,2,1182,0,1,1,47540,task2,1478260,false,false,1838,image-keyboard-response,5
true,18,0,2,1,false,z,false,false,0.0-2.0-0.62-0.560-3.560,0,1,0,81,false,stim,true,0,1204,0,0,2,47540,task2,1480988,false,false,1841,image-keyboard-response,6
true,18,2,2,2,true,d,false,true,0.0-2.0-0.62-0.561-3.561,0,1,0,68,false,stim,false,2,592,0,1,1,47540,task2,1483100,false,false,1844,image-keyboard-response,7
true,18,1,2,1,true,z,false,false,0.0-2.0-0.62-0.562-3.562,0,1,0,90,false,stim,false,0,810,0,0,2,47540,task2,1485428,false,true,1847,image-keyboard-response,8
true,18,2,2,1,false,z,true,false,0.0-2.0-0.62-0.563-3.563,0,1,0,68,false,stim,false,0,430,0,0,2,47540,task2,1487396,false,false,1850,image-keyboard-response,9
true,18,0,2,2,false,d,false,false,0.0-2.0-0.62-0.564-3.564,0,1,0,81,false,stim,true,0,1126,0,0,0,47540,task2,1490044,false,false,1853,image-keyboard-response,10
true,18,0,2,2,false,d,false,false,0.0-2.0-0.62-0.565-3.565,0,1,0,81,false,stim,true,0,491,0,0,0,47540,task2,1492069,false,false,1856,image-keyboard-response,11
true,18,2,2,2,true,d,false,true,0.0-2.0-0.62-0.566-3.566,0,1,0,68,false,stim,false,2,729,0,1,1,47540,task2,1494308,false,false,1859,image-keyboard-response,12
true,18,2,2,2,true,d,false,true,0.0-2.0-0.63-0.567-3.567,0,1,0,68,false,stim,false,2,708,0,1,1,47540,task2,1496540,false,false,1862,image-keyboard-response,13
true,18,1,2,1,true,z,false,true,0.0-2.0-0.63-0.568-3.568,0,1,0,90,false,stim,false,0,498,0,0,2,47540,task2,1498548,false,false,1865,image-keyboard-response,14
true,18,2,2,2,true,d,false,true,0.0-2.0-0.63-0.569-3.569,0,1,0,68,false,stim,false,2,648,0,1,1,47540,task2,1500708,false,false,1868,image-keyboard-response,15
true,18,1,2,1,true,z,false,false,0.0-2.0-0.63-0.570-3.570,0,1,0,90,false,stim,false,0,411,0,0,2,47540,task2,1502644,false,true,1871,image-keyboard-response,16
true,18,1,2,2,false,d,true,false,0.0-2.0-0.63-0.571-3.571,0,1,0,90,false,stim,false,0,742,0,0,0,47540,task2,1504917,false,false,1874,image-keyboard-response,17
true,18,1,2,1,true,z,false,true,0.0-2.0-0.63-0.572-3.572,0,1,0,90,false,stim,false,0,896,0,0,2,47540,task2,1507325,false,false,1877,image-keyboard-response,18
true,18,2,2,2,true,d,false,true,0.0-2.0-0.63-0.573-3.573,0,1,0,68,false,stim,false,2,626,0,1,1,47540,task2,1509484,false,false,1880,image-keyboard-response,19
true,18,2,2,2,true,d,false,true,0.0-2.0-0.63-0.574-3.574,0,1,0,68,false,stim,false,0,905,0,0,0,47540,task2,1511909,false,false,1883,image-keyboard-response,20
true,18,2,2,2,true,d,false,false,0.0-2.0-0.63-0.575-3.575,0,1,0,68,false,stim,false,0,543,0,0,0,47540,task2,1513972,false,true,1886,image-keyboard-response,21
true,18,2,2,2,true,d,false,true,0.0-2.0-0.64-0.576-3.576,0,1,0,68,false,stim,false,2,909,0,1,1,47540,task2,1516412,false,false,1889,image-keyboard-response,22
true,18,2,2,2,true,d,false,true,0.0-2.0-0.64-0.577-3.577,0,1,0,68,false,stim,false,0,387,0,0,0,47540,task2,1518332,false,false,1892,image-keyboard-response,23
true,18,2,2,2,true,d,false,true,0.0-2.0-0.64-0.578-3.578,0,1,0,68,false,stim,false,0,399,0,0,0,47540,task2,1520253,false,false,1895,image-keyboard-response,24
true,18,1,2,1,true,z,false,true,0.0-2.0-0.64-0.579-3.579,0,1,0,90,false,stim,false,0,442,0,0,2,47540,task2,1522220,false,false,1898,image-keyboard-response,25
true,18,2,2,2,true,d,false,true,0.0-2.0-0.64-0.580-3.580,0,1,0,68,false,stim,false,0,838,0,0,0,47540,task2,1524589,false,false,1901,image-keyboard-response,26
true,18,1,2,1,true,z,false,true,0.0-2.0-0.64-0.581-3.581,0,1,0,90,false,stim,false,0,920,0,0,2,47540,task2,1527029,false,false,1904,image-keyboard-response,27
true,18,2,2,2,true,d,false,true,0.0-2.0-0.64-0.582-3.582,0,1,0,68,false,stim,false,2,445,0,0,1,47540,task2,1529005,false,false,1907,image-keyboard-response,28
true,18,1,2,1,true,z,false,false,0.0-2.0-0.64-0.583-3.583,0,1,0,90,false,stim,false,0,684,0,0,2,47540,task2,1531212,false,true,1910,image-keyboard-response,29
true,18,2,2,2,true,d,false,true,0.0-2.0-0.64-0.584-3.584,0,1,0,68,false,stim,false,2,466,0,0,1,47540,task2,1533189,false,false,1913,image-keyboard-response,30
true,18,1,2,1,true,z,false,true,0.0-2.0-0.65-0.585-3.585,0,1,0,90,false,stim,false,0,483,0,0,2,47540,task2,1535189,false,false,1916,image-keyboard-response,31
true,19,2,1,1,false,z,false,false,0.0-2.0-0.65-0.586-3.586,0,0,0,68,true,stim,true,2,631,0,0,1,47540,task2,1537348,false,false,1919,image-keyboard-response,1
true,19,2,1,1,false,z,false,false,0.0-2.0-0.65-0.587-3.587,0,0,0,68,false,stim,true,2,909,0,0,0,47540,task2,1539773,false,false,1922,image-keyboard-response,2
true,19,2,1,1,false,z,false,false,0.0-2.0-0.65-0.588-3.588,0,0,0,68,false,stim,true,2,766,0,0,1,47540,task2,1542061,false,false,1925,image-keyboard-response,3
true,19,1,1,2,false,d,false,false,0.0-2.0-0.65-0.589-3.589,0,0,0,90,false,stim,true,1,657,0,0,2,47540,task2,1544245,false,false,1928,image-keyboard-response,4
true,19,1,1,2,false,d,false,false,0.0-2.0-0.65-0.590-3.590,0,0,0,90,false,stim,true,1,504,0,0,2,47540,task2,1546269,false,false,1931,image-keyboard-response,5
true,19,0,1,1,false,z,true,false,0.0-2.0-0.65-0.591-3.591,0,0,0,81,false,stim,false,2,764,0,0,0,47540,task2,1548549,false,false,1934,image-keyboard-response,6
true,19,1,1,1,true,z,false,true,0.0-2.0-0.65-0.592-3.592,0,0,0,90,false,stim,false,2,825,0,0,0,47540,task2,1550884,false,false,1937,image-keyboard-response,7
true,19,0,1,1,false,z,true,false,0.0-2.0-0.65-0.593-3.593,0,0,0,81,false,stim,false,2,614,0,0,1,47540,task2,1553028,false,false,1940,image-keyboard-response,8
true,19,1,1,1,true,z,false,true,0.0-2.0-0.66-0.594-3.594,0,0,0,90,false,stim,false,2,921,0,0,0,47540,task2,1555461,false,false,1943,image-keyboard-response,9
true,19,2,1,2,true,d,false,true,0.0-2.0-0.66-0.595-3.595,0,0,0,68,false,stim,false,1,805,0,0,2,47540,task2,1557789,false,false,1946,image-keyboard-response,10
true,19,2,1,2,true,d,false,true,0.0-2.0-0.66-0.596-3.596,0,0,0,68,false,stim,false,1,672,0,0,2,47540,task2,1559997,false,false,1949,image-keyboard-response,11
true,19,1,1,1,true,z,false,false,0.0-2.0-0.66-0.597-3.597,0,0,0,90,false,stim,false,2,501,0,0,1,47540,task2,1562021,false,true,1952,image-keyboard-response,12
true,19,2,1,2,true,d,false,true,0.0-2.0-0.66-0.598-3.598,0,0,0,68,false,stim,false,1,863,0,0,2,47540,task2,1564396,false,false,1955,image-keyboard-response,13
true,19,2,1,1,false,z,false,false,0.0-2.0-0.66-0.599-3.599,0,0,0,68,false,stim,true,2,1085,0,0,1,47540,task2,1567005,false,false,1958,image-keyboard-response,14
true,19,1,1,1,true,z,false,true,0.0-2.0-0.66-0.600-3.600,0,0,0,90,false,stim,false,2,542,0,0,0,47540,task2,1569061,false,false,1961,image-keyboard-response,15
true,19,1,1,1,true,z,false,true,0.0-2.0-0.66-0.601-3.601,0,0,0,90,false,stim,false,2,666,0,0,0,47540,task2,1571244,false,false,1964,image-keyboard-response,16
true,19,0,1,1,false,z,true,false,0.0-2.0-0.66-0.602-3.602,0,0,0,81,false,stim,false,2,412,0,0,1,47540,task2,1573173,false,false,1967,image-keyboard-response,17
true,19,0,1,1,false,z,true,false,0.0-2.0-0.67-0.603-3.603,0,0,0,81,false,stim,false,2,756,0,0,1,47540,task2,1575445,false,false,1970,image-keyboard-response,18
true,19,1,1,1,true,z,false,true,0.0-2.0-0.67-0.604-3.604,0,0,0,90,false,stim,false,2,725,0,0,0,47540,task2,1577685,false,false,1973,image-keyboard-response,19
true,19,2,1,2,true,d,false,true,0.0-2.0-0.67-0.605-3.605,0,0,0,68,false,stim,false,1,593,0,0,2,47540,task2,1579797,false,false,1976,image-keyboard-response,20
true,19,2,1,1,false,z,false,false,0.0-2.0-0.67-0.606-3.606,0,0,0,68,false,stim,true,2,470,0,0,1,47540,task2,1581789,false,false,1979,image-keyboard-response,21
true,19,2,1,2,true,d,false,true,0.0-2.0-0.67-0.607-3.607,0,0,0,68,false,stim,false,1,712,0,0,2,47540,task2,1584020,false,false,1982,image-keyboard-response,22
true,19,1,1,1,true,z,false,true,0.0-2.0-0.67-0.608-3.608,0,0,0,90,false,stim,false,2,702,0,0,0,47540,task2,1586236,false,false,1985,image-keyboard-response,23
true,19,2,1,2,true,d,false,true,0.0-2.0-0.67-0.609-3.609,0,0,0,68,false,stim,false,1,1062,0,0,2,47540,task2,1588820,false,false,1988,image-keyboard-response,24
true,19,1,1,1,true,z,false,true,0.0-2.0-0.67-0.610-3.610,0,0,0,90,false,stim,false,2,730,0,0,0,47540,task2,1591068,false,false,1991,image-keyboard-response,25
true,19,1,1,1,true,z,false,true,0.0-2.0-0.67-0.611-3.611,0,0,0,90,false,stim,false,2,601,0,0,1,47540,task2,1593197,false,false,1994,image-keyboard-response,26
true,19,2,1,2,true,d,false,true,0.0-2.0-0.68-0.612-3.612,0,0,0,68,false,stim,false,1,661,0,0,2,47540,task2,1595380,false,false,1997,image-keyboard-response,27
true,19,1,1,1,true,z,false,true,0.0-2.0-0.68-0.613-3.613,0,0,0,90,false,stim,false,2,487,0,0,0,47540,task2,1597396,false,false,2000,image-keyboard-response,28
true,19,1,1,1,true,z,false,true,0.0-2.0-0.68-0.614-3.614,0,0,0,90,false,stim,false,2,467,0,0,0,47540,task2,1599412,false,false,2003,image-keyboard-response,29
true,19,1,1,1,true,z,false,true,0.0-2.0-0.68-0.615-3.615,0,0,0,90,false,stim,false,2,500,0,0,1,47540,task2,1601429,false,false,2006,image-keyboard-response,30
true,19,1,1,1,true,z,false,true,0.0-2.0-0.68-0.616-3.616,0,0,0,90,false,stim,false,2,691,0,0,0,47540,task2,1603636,false,false,2009,image-keyboard-response,31
true,19,1,1,1,true,z,false,false,0.0-2.0-0.68-0.617-3.617,0,0,0,90,false,stim,false,2,502,0,0,1,47540,task2,1605660,false,true,2012,image-keyboard-response,32
true,19,1,1,1,true,z,false,true,0.0-2.0-0.68-0.618-3.618,0,0,0,90,false,stim,false,2,699,0,1,1,47540,task2,1607892,false,false,2015,image-keyboard-response,33
true,19,2,1,2,true,d,false,true,0.0-2.0-0.68-0.619-3.619,0,0,0,68,false,stim,false,1,1130,0,0,2,47540,task2,1610549,false,false,2018,image-keyboard-response,34
true,19,2,1,2,true,d,false,true,0.0-2.0-0.68-0.620-3.620,0,0,0,68,false,stim,false,1,703,0,0,2,47540,task2,1612764,false,false,2021,image-keyboard-response,35
true,19,2,1,2,true,d,false,true,0.0-2.0-0.69-0.621-3.621,0,0,0,68,false,stim,false,1,495,0,0,2,47540,task2,1614772,false,false,2024,image-keyboard-response,36
true,19,1,1,1,true,z,false,true,0.0-2.0-0.69-0.622-3.622,0,0,0,90,false,stim,false,2,713,0,1,1,47540,task2,1617012,false,false,2027,image-keyboard-response,37
true,20,1,2,1,true,z,false,true,0.0-2.0-0.69-0.623-3.623,0,1,0,90,true,stim,false,1,402,0,1,1,47540,task2,1618940,false,false,2030,image-keyboard-response,1
true,20,1,2,0,false,q,false,false,0.0-2.0-0.69-0.624-3.624,0,1,0,90,false,stim,true,1,528,0,0,0,47540,task2,1620997,false,false,2033,image-keyboard-response,2
true,20,2,2,0,false,q,false,false,0.0-2.0-0.69-0.625-3.625,0,1,0,68,false,stim,true,2,597,0,0,2,47540,task2,1623117,false,false,2036,image-keyboard-response,3
true,20,1,2,0,false,q,false,false,0.0-2.0-0.69-0.626-3.626,0,1,0,90,false,stim,true,1,488,0,0,0,47540,task2,1625133,false,false,2039,image-keyboard-response,4
true,20,2,2,0,false,q,false,false,0.0-2.0-0.69-0.627-3.627,0,1,0,68,false,stim,true,2,629,0,0,2,47540,task2,1627285,false,false,2042,image-keyboard-response,5
true,20,1,2,1,true,z,false,true,0.0-2.0-0.69-0.628-3.628,0,1,0,90,false,stim,false,1,677,0,1,1,47540,task2,1629493,false,false,2045,image-keyboard-response,6
true,20,0,2,0,true,q,false,true,0.0-2.0-0.69-0.629-3.629,0,1,0,81,false,stim,false,1,585,0,0,0,47540,task2,1631604,false,false,2048,image-keyboard-response,7
true,20,0,2,0,true,q,false,true,0.0-2.0-0.70-0.630-3.630,0,1,0,81,false,stim,false,1,612,0,0,0,47540,task2,1633741,false,false,2051,image-keyboard-response,8
true,20,0,2,0,true,q,false,true,0.0-2.0-0.70-0.631-3.631,0,1,0,81,false,stim,false,1,775,0,0,0,47540,task2,1636044,false,false,2054,image-keyboard-response,9
true,20,1,2,1,true,z,false,false,0.0-2.0-0.70-0.632-3.632,0,1,0,90,false,stim,false,1,425,0,1,1,47540,task2,1637980,false,true,2057,image-keyboard-response,10
true,20,2,2,0,false,q,false,false,0.0-2.0-0.70-0.633-3.633,0,1,0,68,false,stim,true,2,554,0,0,2,47540,task2,1640068,false,false,2060,image-keyboard-response,11
