answered,blockNum,choice,condition,corResp,correct,correct_response,explo,fb,internal_node_id,isStable_1,isStable_2,isStable_3,key_press,newBlock,part,persev,persevResp,rt,sessNum,stableAS,stimulus,subject,task,time_elapsed,training,trap,trial_index,trial_type,trialsInBlock
true,1,0,0,1,false,z,true,false,0.0-2.0-0.0-0.0-3.0,0,0,0,81,true,stim,false,-1,1045,2,0,1,47540,task3,83455,false,false,88,image-keyboard-response,1
true,1,1,0,1,true,z,false,true,0.0-2.0-0.0-0.1-3.1,0,0,0,90,false,stim,false,-1,701,2,0,1,47540,task3,85683,false,false,91,image-keyboard-response,2
true,1,0,0,0,true,q,false,true,0.0-2.0-0.0-0.2-3.2,0,0,0,81,false,stim,false,-1,1177,2,0,0,47540,task3,88378,false,false,94,image-keyboard-response,3
true,1,0,0,0,true,q,false,true,0.0-2.0-0.0-0.3-3.3,0,0,0,81,false,stim,false,-1,845,2,0,2,47540,task3,90753,false,false,97,image-keyboard-response,4
true,1,0,0,0,true,q,false,true,0.0-2.0-0.0-0.4-3.4,0,0,0,81,false,stim,false,-1,768,2,0,0,47540,task3,93049,false,false,100,image-keyboard-response,5
true,1,0,0,0,true,q,false,true,0.0-2.0-0.0-0.5-3.5,0,0,0,81,false,stim,false,-1,733,2,0,2,47540,task3,95324,false,false,103,image-keyboard-response,6
true,1,1,0,1,true,z,false,true,0.0-2.0-0.0-0.6-3.6,0,0,0,90,false,stim,false,-1,453,2,0,1,47540,task3,97304,false,false,106,image-keyboard-response,7
true,1,0,0,0,true,q,false,true,0.0-2.0-0.0-0.7-3.7,0,0,0,81,false,stim,false,-1,657,2,0,2,47540,task3,99487,false,false,109,image-keyboard-response,8
true,1,0,0,0,true,q,false,true,0.0-2.0-0.0-0.8-3.8,0,0,0,81,false,stim,false,-1,613,2,0,0,47540,task3,101624,false,false,112,image-keyboard-response,9
true,1,0,0,0,true,q,false,true,0.0-2.0-0.1-0.9-3.9,0,0,0,81,false,stim,false,-1,404,2,0,2,47540,task3,103559,false,false,115,image-keyboard-response,10
true,1,1,0,1,true,z,false,true,0.0-2.0-0.1-0.10-3.10,0,0,0,90,false,stim,false,-1,462,2,0,1,47540,task3,105563,false,false,118,image-keyboard-response,11
true,1,0,0,0,true,q,false,true,0.0-2.0-0.1-0.11-3.11,0,0,0,81,false,stim,false,-1,438,2,0,2,47540,task3,107506,false,false,121,image-keyboard-response,12
true,1,1,0,1,true,z,false,false,0.0-2.0-0.1-0.12-3.12,0,0,0,90,false,stim,false,-1,683,2,0,1,47540,task3,109704,false,true,124,image-keyboard-response,13
true,1,0,0,0,true,q,false,true,0.0-2.0-0.1-0.13-3.13,0,0,0,81,false,stim,false,-1,499,2,0,2,47540,task3,111729,false,false,127,image-keyboard-response,14
true,1,0,0,0,true,q,false,true,0.0-2.0-0.1-0.14-3.14,0,0,0,81,false,stim,false,-1,343,2,0,0,47540,task3,113593,false,false,130,image-keyboard-response,15
true,1,0,0,0,true,q,false,true,0.0-2.0-0.1-0.15-3.15,0,0,0,81,false,stim,false,-1,502,2,0,0,47540,task3,115624,false,false,133,image-keyboard-response,16
true,1,0,0,0,true,q,false,true,0.0-2.0-0.1-0.16-3.16,0,0,0,81,false,stim,false,-1,409,2,0,0,47540,task3,117560,false,false,136,image-keyboard-response,17
true,1,1,0,1,true,z,false,true,0.0-2.0-0.1-0.17-3.17,0,0,0,90,false,stim,false,-1,424,2,0,1,47540,task3,119514,false,false,139,image-keyboard-response,18
true,1,0,0,0,true,q,false,true,0.0-2.0-0.2-0.18-3.18,0,0,0,81,false,stim,false,-1,462,2,0,0,47540,task3,121512,false,false,142,image-keyboard-response,19
true,1,1,0,1,true,z,false,true,0.0-2.0-0.2-0.19-3.19,0,0,0,90,false,stim,false,-1,535,2,0,1,47540,task3,123576,false,false,145,image-keyboard-response,20
true,1,0,0,0,true,q,false,true,0.0-2.0-0.2-0.20-3.20,0,0,0,81,false,stim,false,-1,515,2,0,0,47540,task3,125615,false,false,148,image-keyboard-response,21
true,1,0,0,0,true,q,false,true,0.0-2.0-0.2-0.21-3.21,0,0,0,81,false,stim,false,-1,555,2,0,2,47540,task3,127696,false,false,151,image-keyboard-response,22
true,1,0,0,0,true,q,false,true,0.0-2.0-0.2-0.22-3.22,0,0,0,81,false,stim,false,-1,375,2,1,2,47540,task3,129592,false,false,154,image-keyboard-response,23
true,1,0,0,1,false,z,true,true,0.0-2.0-0.2-0.23-3.23,0,0,0,81,false,stim,false,-1,456,2,1,1,47540,task3,131576,false,true,157,image-keyboard-response,24
true,1,0,0,0,true,q,false,true,0.0-2.0-0.2-0.24-3.24,0,0,0,81,false,stim,false,-1,441,2,0,0,47540,task3,133552,false,false,160,image-keyboard-response,25
true,1,1,0,1,true,z,false,true,0.0-2.0-0.2-0.25-3.25,0,0,0,90,false,stim,false,-1,434,2,1,1,47540,task3,135505,false,false,163,image-keyboard-response,26
true,1,0,0,0,true,q,false,true,0.0-2.0-0.2-0.26-3.26,0,0,0,81,false,stim,false,-1,442,2,1,2,47540,task3,137464,false,false,166,image-keyboard-response,27
true,2,0,2,2,false,d,false,false,0.0-2.0-0.3-0.27-3.27,0,1,1,81,true,stim,true,0,923,2,0,0,47540,task3,139914,false,false,169,image-keyboard-response,1
true,2,0,2,0,true,q,false,true,0.0-2.0-0.3-0.28-3.28,0,1,1,81,false,stim,false,0,641,2,1,2,47540,task3,142082,false,false,172,image-keyboard-response,2
true,2,1,2,1,true,z,false,true,0.0-2.0-0.3-0.29-3.29,0,1,1,90,false,stim,false,1,531,2,1,1,47540,task3,144152,false,false,175,image-keyboard-response,3
true,2,1,2,1,true,z,false,true,0.0-2.0-0.3-0.30-3.30,0,1,1,90,false,stim,false,1,647,2,1,1,47540,task3,146337,false,false,178,image-keyboard-response,4
true,2,0,2,0,true,q,false,true,0.0-2.0-0.3-0.31-3.31,0,1,1,81,false,stim,false,0,510,2,1,2,47540,task3,148362,false,false,181,image-keyboard-response,5
true,2,0,2,2,false,d,false,false,0.0-2.0-0.3-0.32-3.32,0,1,1,81,false,stim,true,0,349,2,0,0,47540,task3,150242,false,false,184,image-keyboard-response,6
true,2,0,2,0,true,q,false,true,0.0-2.0-0.3-0.33-3.33,0,1,1,81,false,stim,false,0,843,2,1,2,47540,task3,152616,false,false,187,image-keyboard-response,7
true,2,1,2,1,true,z,false,true,0.0-2.0-0.3-0.34-3.34,0,1,1,90,false,stim,false,1,609,2,1,1,47540,task3,154760,false,false,190,image-keyboard-response,8
true,2,2,2,2,true,d,false,true,0.0-2.0-0.3-0.35-3.35,0,1,1,68,false,stim,false,0,384,2,1,0,47540,task3,156663,false,false,193,image-keyboard-response,9
true,2,0,2,0,true,q,false,true,0.0-2.0-0.4-0.36-3.36,0,1,1,81,false,stim,false,0,562,2,0,2,47540,task3,158752,false,false,196,image-keyboard-response,10
true,2,2,2,2,true,d,false,true,0.0-2.0-0.4-0.37-3.37,0,1,1,68,false,stim,false,0,593,2,1,0,47540,task3,160864,false,false,199,image-keyboard-response,11
true,2,1,2,1,true,z,false,true,0.0-2.0-0.4-0.38-3.38,0,1,1,90,false,stim,false,1,432,2,0,1,47540,task3,162824,false,false,202,image-keyboard-response,12
true,2,2,2,2,true,d,false,true,0.0-2.0-0.4-0.39-3.39,0,1,1,68,false,stim,false,0,697,2,1,0,47540,task3,165057,false,false,205,image-keyboard-response,13
true,3,1,1,2,false,d,false,false,0.0-2.0-0.4-0.40-3.40,1,0,0,90,true,stim,true,1,776,2,0,1,47540,task3,167344,false,false,208,image-keyboard-response,1
true,3,0,1,1,false,z,false,false,0.0-2.0-0.4-0.41-3.41,1,0,0,81,false,stim,true,0,498,2,0,2,47540,task3,169369,false,false,211,image-keyboard-response,2
true,3,2,1,2,true,d,false,true,0.0-2.0-0.4-0.42-3.42,1,0,0,68,false,stim,false,2,865,2,1,0,47540,task3,171746,false,false,214,image-keyboard-response,3
true,3,1,1,2,false,d,false,false,0.0-2.0-0.4-0.43-3.43,1,0,0,90,false,stim,true,1,1135,2,0,1,47540,task3,174416,false,false,217,image-keyboard-response,4
true,3,1,1,1,true,z,false,true,0.0-2.0-0.4-0.44-3.44,1,0,0,90,false,stim,false,0,742,2,0,2,47540,task3,176673,false,false,220,image-keyboard-response,5
true,3,1,1,1,true,z,false,true,0.0-2.0-0.5-0.45-3.45,1,0,0,90,false,stim,false,0,630,2,0,2,47540,task3,178840,false,false,223,image-keyboard-response,6
true,3,2,1,2,true,d,false,true,0.0-2.0-0.5-0.46-3.46,1,0,0,68,false,stim,false,2,569,2,1,0,47540,task3,180952,false,false,226,image-keyboard-response,7
true,3,2,1,2,true,d,false,false,0.0-2.0-0.5-0.47-3.47,1,0,0,68,false,stim,false,2,649,2,1,0,47540,task3,183129,false,true,229,image-keyboard-response,8
true,3,2,1,2,true,d,false,false,0.0-2.0-0.5-0.48-3.48,1,0,0,68,false,stim,false,2,514,2,1,0,47540,task3,185184,false,true,232,image-keyboard-response,9
true,3,0,1,2,false,d,true,false,0.0-2.0-0.5-0.49-3.49,1,0,0,81,false,stim,false,1,1758,2,0,1,47540,task3,188449,false,false,235,image-keyboard-response,10
true,3,1,1,1,true,z,false,true,0.0-2.0-0.5-0.50-3.50,1,0,0,90,false,stim,false,0,725,2,0,2,47540,task3,190696,false,false,238,image-keyboard-response,11
true,3,2,1,2,true,d,false,false,0.0-2.0-0.5-0.51-3.51,1,0,0,68,false,stim,false,1,463,2,1,1,47540,task3,192682,false,true,241,image-keyboard-response,12
true,3,1,1,1,true,z,false,true,0.0-2.0-0.5-0.52-3.52,1,0,0,90,false,stim,false,0,492,2,1,2,47540,task3,194714,false,false,244,image-keyboard-response,13
true,3,1,1,2,false,d,false,false,0.0-2.0-0.5-0.53-3.53,1,0,0,90,false,stim,true,1,591,2,1,1,47540,task3,196831,false,false,247,image-keyboard-response,14
true,3,1,1,1,true,z,false,true,0.0-2.0-0.6-0.54-3.54,1,0,0,90,false,stim,false,0,623,2,1,2,47540,task3,198993,false,false,250,image-keyboard-response,15
true,3,0,1,2,false,d,true,false,0.0-2.0-0.6-0.55-3.55,1,0,0,81,false,stim,false,2,352,2,0,0,47540,task3,200874,false,false,253,image-keyboard-response,16
true,4,2,2,0,false,q,false,false,0.0-2.0-0.6-0.56-3.56,0,1,1,68,true,stim,true,2,488,2,0,0,47540,task3,202889,false,false,256,image-keyboard-response,1
true,4,1,2,2,false,d,true,false,0.0-2.0-0.6-0.57-3.57,0,1,1,90,false,stim,false,2,586,2,1,1,47540,task3,205008,false,false,259,image-keyboard-response,2
true,4,2,2,2,true,d,false,false,0.0-2.0-0.6-0.58-3.58,0,1,1,68,false,stim,false,2,586,2,1,1,47540,task3,207106,false,true,262,image-keyboard-response,3
true,4,1,2,0,false,q,true,false,0.0-2.0-0.6-0.59-3.59,0,1,1,90,false,stim,false,2,754,2,0,0,47540,task3,209386,false,false,265,image-keyboard-response,4
true,4,0,2,2,false,d,true,false,0.0-2.0-0.6-0.60-3.60,0,1,1,81,false,stim,false,2,557,2,1,1,47540,task3,211458,false,false,268,image-keyboard-response,5
true,4,1,2,1,true,z,false,true,0.0-2.0-0.6-0.61-3.61,0,1,1,90,false,stim,false,1,624,2,1,2,47540,task3,213616,false,false,271,image-keyboard-response,6
true,4,1,2,1,true,z,false,true,0.0-2.0-0.6-0.62-3.62,0,1,1,90,false,stim,false,1,712,2,1,2,47540,task3,215863,false,false,274,image-keyboard-response,7
true,4,0,2,2,false,d,true,false,0.0-2.0-0.7-0.63-3.63,0,1,1,81,false,stim,false,2,632,2,1,1,47540,task3,218023,false,false,277,image-keyboard-response,8
true,4,1,2,1,true,z,false,true,0.0-2.0-0.7-0.64-3.64,0,1,1,90,false,stim,false,1,583,2,1,2,47540,task3,220143,false,false,280,image-keyboard-response,9
true,4,0,2,0,true,q,false,true,0.0-2.0-0.7-0.65-3.65,0,1,1,81,false,stim,false,2,1112,2,0,0,47540,task3,222794,false,false,283,image-keyboard-response,10
true,4,2,2,2,true,d,false,false,0.0-2.0-0.7-0.66-3.66,0,1,1,68,false,stim,false,2,633,2,1,1,47540,task3,224952,false,true,286,image-keyboard-response,11
true,4,1,2,1,true,z,false,true,0.0-2.0-0.7-0.67-3.67,0,1,1,90,false,stim,false,1,645,2,1,2,47540,task3,227136,false,false,289,image-keyboard-response,12
true,4,1,2,1,true,z,false,true,0.0-2.0-0.7-0.68-3.68,0,1,1,90,false,stim,false,1,667,2,1,2,47540,task3,229328,false,false,292,image-keyboard-response,13
true,4,0,2,0,true,q,false,true,0.0-2.0-0.7-0.69-3.69,0,1,1,81,false,stim,false,2,375,2,0,0,47540,task3,231226,false,false,295,image-keyboard-response,14
true,4,0,2,0,true,q,false,true,0.0-2.0-0.7-0.70-3.70,0,1,1,81,false,stim,false,2,514,2,0,0,47540,task3,233265,false,false,298,image-keyboard-response,15
true,4,1,2,2,false,d,true,false,0.0-2.0-0.7-0.71-3.71,0,1,1,90,false,stim,false,2,489,2,1,1,47540,task3,235282,false,false,301,image-keyboard-response,16
true,4,0,2,2,false,d,true,false,0.0-2.0-0.8-0.72-3.72,0,1,1,81,false,stim,false,2,579,2,1,1,47540,task3,237400,false,false,304,image-keyboard-response,17
true,4,2,2,2,true,d,false,true,0.0-2.0-0.8-0.73-3.73,0,1,1,68,false,stim,false,2,866,2,1,1,47540,task3,239786,false,false,307,image-keyboard-response,18
true,4,2,2,2,true,d,false,false,0.0-2.0-0.8-0.74-3.74,0,1,1,68,false,stim,false,2,680,2,1,1,47540,task3,241992,false,true,310,image-keyboard-response,19
true,4,1,2,1,true,z,false,true,0.0-2.0-0.8-0.75-3.75,0,1,1,90,false,stim,false,1,661,2,1,2,47540,task3,244192,false,false,313,image-keyboard-response,20
true,4,0,2,0,true,q,false,true,0.0-2.0-0.8-0.76-3.76,0,1,1,81,false,stim,false,2,993,2,0,0,47540,task3,246713,false,false,316,image-keyboard-response,21
true,4,1,2,1,true,z,false,true,0.0-2.0-0.8-0.77-3.77,0,1,1,90,false,stim,false,1,543,2,0,2,47540,task3,248794,false,false,319,image-keyboard-response,22
true,4,1,2,1,true,z,false,true,0.0-2.0-0.8-0.78-3.78,0,1,1,90,false,stim,false,1,535,2,0,2,47540,task3,250856,false,false,322,image-keyboard-response,23
true,4,0,2,0,true,q,false,true,0.0-2.0-0.8-0.79-3.79,0,1,1,81,false,stim,false,2,571,2,0,0,47540,task3,252962,false,false,325,image-keyboard-response,24
true,4,0,2,0,true,q,false,true,0.0-2.0-0.8-0.80-3.80,0,1,1,81,false,stim,false,2,477,2,0,0,47540,task3,254969,false,false,328,image-keyboard-response,25
true,5,0,1,1,false,z,false,false,0.0-2.0-0.9-0.81-3.81,0,1,0,81,true,stim,true,0,389,2,0,0,47540,task3,256880,false,false,331,image-keyboard-response,1
true,5,0,1,1,false,z,false,false,0.0-2.0-0.9-0.82-3.82,0,1,0,81,false,stim,true,0,385,2,0,0,47540,task3,258776,false,false,334,image-keyboard-response,2
true,5,2,1,2,true,d,false,true,0.0-2.0-0.9-0.83-3.83,0,1,0,68,false,stim,false,2,622,2,1,1,47540,task3,260904,false,false,337,image-keyboard-response,3
true,5,1,1,2,false,d,false,false,0.0-2.0-0.9-0.84-3.84,0,1,0,90,false,stim,true,1,745,2,0,2,47540,task3,263154,false,false,340,image-keyboard-response,4
true,5,1,1,2,false,d,false,false,0.0-2.0-0.9-0.85-3.85,0,1,0,90,false,stim,true,1,398,2,0,2,47540,task3,265090,false,false,343,image-keyboard-response,5
true,5,2,1,2,true,d,false,true,0.0-2.0-0.9-0.86-3.86,0,1,0,68,false,stim,false,2,881,2,1,1,47540,task3,267498,false,false,346,image-keyboard-response,6
true,5,1,1,1,true,z,false,true,0.0-2.0-0.9-0.87-3.87,0,1,0,90,false,stim,false,0,521,2,0,0,47540,task3,269544,false,false,349,image-keyboard-response,7
true,5,0,1,2,false,d,true,false,0.0-2.0-0.9-0.88-3.88,0,1,0,81,false,stim,false,1,608,2,0,2,47540,task3,271680,false,false,352,image-keyboard-response,8
true,5,2,1,2,true,d,false,true,0.0-2.0-0.9-0.89-3.89,0,1,0,68,false,stim,false,2,646,2,1,1,47540,task3,273857,false,false,355,image-keyboard-response,9
true,5,1,1,1,true,z,false,true,0.0-2.0-0.10-0.90-3.90,0,1,0,90,false,stim,false,0,550,2,0,0,47540,task3,275930,false,false,358,image-keyboard-response,10
true,5,2,1,2,true,d,false,true,0.0-2.0-0.10-0.91-3.91,0,1,0,68,false,stim,false,1,459,2,0,2,47540,task3,277920,false,false,361,image-keyboard-response,11
true,5,2,1,2,true,d,false,true,0.0-2.0-0.10-0.92-3.92,0,1,0,68,false,stim,false,1,644,2,0,2,47540,task3,280106,false,false,364,image-keyboard-response,12
true,5,1,1,1,true,z,false,true,0.0-2.0-0.10-0.93-3.93,0,1,0,90,false,stim,false,0,526,2,0,0,47540,task3,282168,false,false,367,image-keyboard-response,13
true,5,2,1,2,true,d,false,true,0.0-2.0-0.10-0.94-3.94,0,1,0,68,false,stim,false,2,523,2,1,1,47540,task3,284225,false,false,370,image-keyboard-response,14
true,5,1,1,1,true,z,false,true,0.0-2.0-0.10-0.95-3.95,0,1,0,90,false,stim,false,0,552,2,0,0,47540,task3,286305,false,false,373,image-keyboard-response,15
true,5,2,1,2,true,d,false,true,0.0-2.0-0.10-0.96-3.96,0,1,0,68,false,stim,false,2,632,2,1,1,47540,task3,288474,false,false,376,image-keyboard-response,16
true,5,2,1,2,true,d,false,true,0.0-2.0-0.10-0.97-3.97,0,1,0,68,false,stim,false,2,456,2,1,1,47540,task3,290466,false,false,379,image-keyboard-response,17
true,5,2,1,2,true,d,false,false,0.0-2.0-0.10-0.98-3.98,0,1,0,68,false,stim,false,1,516,2,0,2,47540,task3,292489,false,true,382,image-keyboard-response,18
true,5,2,1,2,true,d,false,true,0.0-2.0-0.11-0.99-3.99,0,1,0,68,false,stim,false,2,498,2,1,1,47540,task3,294506,false,false,385,image-keyboard-response,19
true,5,2,1,2,true,d,false,true,0.0-2.0-0.11-0.100-3.100,0,1,0,68,false,stim,false,1,475,2,0,2,47540,task3,296506,false,false,388,image-keyboard-response,20
true,5,1,1,1,true,z,false,true,0.0-2.0-0.11-0.101-3.101,0,1,0,90,false,stim,false,0,384,2,0,0,47540,task3,298416,false,false,391,image-keyboard-response,21
true,5,2,1,2,true,d,false,false,0.0-2.0-0.11-0.102-3.102,0,1,0,68,false,stim,false,2,578,2,1,1,47540,task3,300538,false,true,394,image-keyboard-response,22
true,5,1,1,1,true,z,false,true,0.0-2.0-0.11-0.103-3.103,0,1,0,90,false,stim,false,0,641,2,0,0,47540,task3,302712,false,false,397,image-keyboard-response,23
true,5,2,1,2,true,d,false,true,0.0-2.0-0.11-0.104-3.104,0,1,0,68,false,stim,false,1,591,2,0,2,47540,task3,304831,false,false,400,image-keyboard-response,24
true,5,2,1,2,true,d,false,true,0.0-2.0-0.11-0.105-3.105,0,1,0,68,false,stim,false,1,374,2,0,2,47540,task3,306736,false,false,403,image-keyboard-response,25
true,5,1,1,1,true,z,false,true,0.0-2.0-0.11-0.106-3.106,0,1,0,90,false,stim,false,0,538,2,0,0,47540,task3,308810,false,false,406,image-keyboard-response,26
true,5,2,1,2,true,d,false,true,0.0-2.0-0.11-0.107-3.107,0,1,0,68,false,stim,false,2,478,2,0,1,47540,task3,310809,false,false,409,image-keyboard-response,27
true,5,2,1,2,true,d,false,true,0.0-2.0-0.12-0.108-3.108,0,1,0,68,false,stim,false,1,403,2,1,2,47540,task3,312735,false,false,412,image-keyboard-response,28
true,5,2,1,2,true,d,false,true,0.0-2.0-0.12-0.109-3.109,0,1,0,68,false,stim,false,2,435,2,0,1,47540,task3,314696,false,false,415,image-keyboard-response,29
true,5,1,1,1,true,z,false,true,0.0-2.0-0.12-0.110-3.110,0,1,0,90,false,stim,false,0,463,2,0,0,47540,task3,316683,false,false,418,image-keyboard-response,30
true,5,2,1,2,true,d,false,true,0.0-2.0-0.12-0.111-3.111,0,1,0,68,false,stim,false,1,455,2,1,2,47540,task3,318658,false,false,421,image-keyboard-response,31
true,6,1,1,2,false,d,false,false,0.0-2.0-0.12-0.112-3.112,0,0,1,90,true,stim,true,1,631,2,0,0,47540,task3,320802,false,false,424,image-keyboard-response,1
true,6,1,1,2,false,d,false,false,0.0-2.0-0.12-0.113-3.113,0,0,1,90,false,stim,true,1,507,2,0,0,47540,task3,322849,false,false,427,image-keyboard-response,2
true,6,2,1,0,false,q,false,false,0.0-2.0-0.12-0.114-3.114,0,0,1,68,false,stim,true,2,573,2,0,1,47540,task3,324954,false,false,430,image-keyboard-response,3
true,6,2,1,0,false,q,false,false,0.0-2.0-0.12-0.115-3.115,0,0,1,68,false,stim,true,2,504,2,0,1,47540,task3,326986,false,false,433,image-keyboard-response,4
true,6,2,1,2,true,d,false,true,0.0-2.0-0.12-0.116-3.116,0,0,1,68,false,stim,false,2,609,2,1,2,47540,task3,329128,false,false,436,image-keyboard-response,5
true,6,0,1,0,true,q,false,true,0.0-2.0-0.13-0.117-3.117,0,0,1,81,false,stim,false,2,647,2,0,1,47540,task3,331297,false,false,439,image-keyboard-response,6
true,6,0,1,2,false,d,true,false,0.0-2.0-0.13-0.118-3.118,0,0,1,81,false,stim,false,1,360,2,0,0,47540,task3,333186,false,false,442,image-keyboard-response,7
true,6,2,1,2,true,d,false,true,0.0-2.0-0.13-0.119-3.119,0,0,1,68,false,stim,false,2,628,2,1,2,47540,task3,335328,false,false,445,image-keyboard-response,8
true,6,2,1,2,true,d,false,true,0.0-2.0-0.13-0.120-3.120,0,0,1,68,false,stim,false,1,381,2,0,0,47540,task3,337231,false,false,448,image-keyboard-response,9
true,6,2,1,2,true,d,false,true,0.0-2.0-0.13-0.121-3.121,0,0,1,68,false,stim,false,1,1095,2,0,0,47540,task3,339856,false,false,451,image-keyboard-response,10
true,6,0,1,0,true,q,false,true,0.0-2.0-0.13-0.122-3.122,0,0,1,81,false,stim,false,2,835,2,1,1,47540,task3,342216,false,false,454,image-keyboard-response,11
true,6,2,1,2,true,d,false,true,0.0-2.0-0.13-0.123-3.123,0,0,1,68,false,stim,false,2,523,2,0,2,47540,task3,344274,false,false,457,image-keyboard-response,12
true,6,0,1,0,true,q,false,true,0.0-2.0-0.13-0.124-3.124,0,0,1,81,false,stim,false,2,502,2,1,1,47540,task3,346303,false,false,460,image-keyboard-response,13
true,6,2,1,2,true,d,false,true,0.0-2.0-0.13-0.125-3.125,0,0,1,68,false,stim,false,2,370,2,0,2,47540,task3,348201,false,false,463,image-keyboard-response,14
true,6,2,1,2,true,d,false,true,0.0-2.0-0.14-0.126-3.126,0,0,1,68,false,stim,false,1,379,2,1,0,47540,task3,350120,false,false,466,image-keyboard-response,15
true,7,0,2,0,true,q,false,true,0.0-2.0-0.14-0.127-3.127,1,1,0,81,true,stim,false,0,533,2,1,1,47540,task3,352183,false,false,469,image-keyboard-response,1
true,7,2,2,1,false,z,false,false,0.0-2.0-0.14-0.128-3.128,1,1,0,68,false,stim,true,2,415,2,0,2,47540,task3,354137,false,false,472,image-keyboard-response,2
true,7,2,2,2,true,d,false,true,0.0-2.0-0.14-0.129-3.129,1,1,0,68,false,stim,false,2,460,2,1,0,47540,task3,356119,false,false,475,image-keyboard-response,3
true,7,0,2,0,true,q,false,true,0.0-2.0-0.14-0.130-3.130,1,1,0,81,false,stim,false,0,581,2,1,1,47540,task3,358233,false,false,478,image-keyboard-response,4
true,7,0,2,0,true,q,false,true,0.0-2.0-0.14-0.131-3.131,1,1,0,81,false,stim,false,0,525,2,1,1,47540,task3,360296,false,false,481,image-keyboard-response,5
true,7,2,2,1,false,z,false,true,0.0-2.0-0.14-0.132-3.132,1,1,0,68,false,stim,true,2,394,2,0,2,47540,task3,362216,false,true,484,image-keyboard-response,6
true,7,2,2,1,false,z,false,false,0.0-2.0-0.14-0.133-3.133,1,1,0,68,false,stim,true,2,395,2,0,2,47540,task3,364136,false,false,487,image-keyboard-response,7
true,7,2,2,2,true,d,false,true,0.0-2.0-0.14-0.134-3.134,1,1,0,68,false,stim,false,2,628,2,1,0,47540,task3,366290,false,false,490,image-keyboard-response,8
true,7,2,2,2,true,d,false,true,0.0-2.0-0.15-0.135-3.135,1,1,0,68,false,stim,false,2,497,2,1,0,47540,task3,368330,false,false,493,image-keyboard-response,9
true,7,2,2,2,true,d,false,true,0.0-2.0-0.15-0.136-3.136,1,1,0,68,false,stim,false,2,405,2,1,0,47540,task3,370266,false,false,496,image-keyboard-response,10
true,7,0,2,0,true,q,false,true,0.0-2.0-0.15-0.137-3.137,1,1,0,81,false,stim,false,0,447,2,1,1,47540,task3,372249,false,false,499,image-keyboard-response,11
true,7,2,2,1,false,z,false,false,0.0-2.0-0.15-0.138-3.138,1,1,0,68,false,stim,true,2,472,2,0,2,47540,task3,374242,false,false,502,image-keyboard-response,12
true,7,0,2,0,true,q,false,true,0.0-2.0-0.15-0.139-3.139,1,1,0,81,false,stim,false,0,708,2,1,1,47540,task3,376490,false,false,505,image-keyboard-response,13
true,7,2,2,2,true,d,false,false,0.0-2.0-0.15-0.140-3.140,1,1,0,68,false,stim,false,2,545,2,1,0,47540,task3,378576,false,true,508,image-keyboard-response,14
true,7,1,2,1,true,z,false,true,0.0-2.0-0.15-0.141-3.141,1,1,0,90,false,stim,false,2,643,2,0,2,47540,task3,380745,false,false,511,image-keyboard-response,15
true,7,0,2,0,true,q,false,false,0.0-2.0-0.15-0.142-3.142,1,1,0,81,false,stim,false,0,682,2,1,1,47540,task3,382954,false,true,514,image-keyboard-response,16
true,7,1,2,1,true,z,false,true,0.0-2.0-0.15-0.143-3.143,1,1,0,90,false,stim,false,2,672,2,0,2,47540,task3,385163,false,false,517,image-keyboard-response,17
true,7,0,2,0,true,q,false,true,0.0-2.0-0.16-0.144-3.144,1,1,0,81,false,stim,false,0,406,2,1,1,47540,task3,387106,false,false,520,image-keyboard-response,18
true,7,2,2,2,true,d,false,true,0.0-2.0-0.16-0.145-3.145,1,1,0,68,false,stim,false,2,1218,2,1,0,47540,task3,389850,false,false,523,image-keyboard-response,19
true,7,1,2,1,true,z,false,true,0.0-2.0-0.16-0.146-3.146,1,1,0,90,false,stim,false,2,705,2,0,2,47540,task3,392098,false,false,526,image-keyboard-response,20
true,7,1,2,1,true,z,false,true,0.0-2.0-0.16-0.147-3.147,1,1,0,90,false,stim,false,2,418,2,0,2,47540,task3,394040,false,false,529,image-keyboard-response,21
true,7,0,2,0,true,q,false,true,0.0-2.0-0.16-0.148-3.148,1,1,0,81,false,stim,false,0,475,2,1,1,47540,task3,396056,false,false,532,image-keyboard-response,22
true,7,2,2,2,true,d,false,true,0.0-2.0-0.16-0.149-3.149,1,1,0,68,false,stim,false,2,543,2,1,0,47540,task3,398124,false,false,535,image-keyboard-response,23
true,7,1,2,1,true,z,false,true,0.0-2.0-0.16-0.150-3.150,1,1,0,90,false,stim,false,2,890,2,0,2,47540,task3,400552,false,false,538,image-keyboard-response,24
true,7,2,2,2,true,d,false,true,0.0-2.0-0.16-0.151-3.151,1,1,0,68,false,stim,false,2,631,2,0,0,47540,task3,402712,false,false,541,image-keyboard-response,25
true,7,0,2,0,true,q,false,true,0.0-2.0-0.16-0.152-3.152,1,1,0,81,false,stim,false,0,511,2,1,1,47540,task3,404753,false,false,544,image-keyboard-response,26
true,7,1,2,1,true,z,false,true,0.0-2.0-0.17-0.153-3.153,1,1,0,90,false,stim,false,2,424,2,0,2,47540,task3,406706,false,false,547,image-keyboard-response,27
true,7,0,2,0,true,q,false,true,0.0-2.0-0.17-0.154-3.154,1,1,0,81,false,stim,false,0,907,2,1,1,47540,task3,409128,false,false,550,image-keyboard-response,28
true,7,2,2,2,true,d,false,true,0.0-2.0-0.17-0.155-3.155,1,1,0,68,false,stim,false,2,625,2,0,0,47540,task3,411266,false,false,553,image-keyboard-response,29
true,8,1,1,2,false,d,false,false,0.0-2.0-0.17-0.156-3.156,0,1,0,90,true,stim,true,1,769,2,0,2,47540,task3,413560,false,false,556,image-keyboard-response,1
true,8,2,1,0,false,q,false,false,0.0-2.0-0.17-0.157-3.157,0,1,0,68,false,stim,true,2,1158,2,0,0,47540,task3,416250,false,false,559,image-keyboard-response,2
true,8,2,1,0,false,q,false,true,0.0-2.0-0.17-0.158-3.158,0,1,0,68,false,stim,true,2,518,2,0,0,47540,task3,418298,false,true,562,image-keyboard-response,3
true,8,1,1,2,false,d,false,false,0.0-2.0-0.17-0.159-3.159,0,1,0,90,false,stim,true,1,461,2,0,2,47540,task3,420281,false,false,565,image-keyboard-response,4
true,8,0,1,0,true,q,false,true,0.0-2.0-0.17-0.160-3.160,0,1,0,81,false,stim,false,0,517,2,1,1,47540,task3,422328,false,false,568,image-keyboard-response,5
true,8,0,1,0,true,q,false,true,0.0-2.0-0.17-0.161-3.161,0,1,0,81,false,stim,false,0,493,2,1,1,47540,task3,424354,false,false,571,image-keyboard-response,6
true,8,2,1,0,false,q,false,false,0.0-2.0-0.18-0.162-3.162,0,1,0,68,false,stim,true,2,631,2,0,0,47540,task3,426513,false,false,574,image-keyboard-response,7
true,8,2,1,2,true,d,false,true,0.0-2.0-0.18-0.163-3.163,0,1,0,68,false,stim,false,1,519,2,0,2,47540,task3,428570,false,false,577,image-keyboard-response,8
true,8,2,1,2,true,d,false,true,0.0-2.0-0.18-0.164-3.164,0,1,0,68,false,stim,false,1,463,2,0,2,47540,task3,430575,false,false,580,image-keyboard-response,9
true,8,0,1,0,true,q,false,true,0.0-2.0-0.18-0.165-3.165,0,1,0,81,false,stim,false,0,637,2,1,1,47540,task3,432745,false,false,583,image-keyboard-response,10
true,8,0,1,0,true,q,false,true,0.0-2.0-0.18-0.166-3.166,0,1,0,81,false,stim,false,0,899,2,0,1,47540,task3,435170,false,false,586,image-keyboard-response,11
true,8,0,1,0,true,q,false,true,0.0-2.0-0.18-0.167-3.167,0,1,0,81,false,stim,false,0,459,2,0,1,47540,task3,437162,false,false,589,image-keyboard-response,12
true,8,2,1,0,false,q,false,true,0.0-2.0-0.18-0.168-3.168,0,1,0,68,false,stim,true,2,509,2,1,0,47540,task3,439210,false,true,592,image-keyboard-response,13
true,8,2,1,0,false,q,false,false,0.0-2.0-0.18-0.169-3.169,0,1,0,68,false,stim,true,2,508,2,1,0,47540,task3,441250,false,false,595,image-keyboard-response,14
true,8,2,1,2,true,d,false,true,0.0-2.0-0.18-0.170-3.170,0,1,0,68,false,stim,false,1,542,2,1,2,47540,task3,443312,false,false,598,image-keyboard-response,15
true,9,0,2,2,false,d,false,false,0.0-2.0-0.19-0.171-3.171,1,0,1,81,true,stim,true,0,521,2,0,1,47540,task3,445364,false,false,601,image-keyboard-response,1
true,9,0,2,2,false,d,false,false,0.0-2.0-0.19-0.172-3.172,1,0,1,81,false,stim,true,0,397,2,0,1,47540,task3,447288,false,false,604,image-keyboard-response,2
true,9,2,2,2,true,d,false,true,0.0-2.0-0.19-0.173-3.173,1,0,1,68,false,stim,false,2,571,2,1,2,47540,task3,449392,false,false,607,image-keyboard-response,3
true,9,1,2,2,false,d,true,false,0.0-2.0-0.19-0.174-3.174,1,0,1,90,false,stim,false,0,391,2,0,1,47540,task3,451320,false,false,610,image-keyboard-response,4
true,9,2,2,2,true,d,false,true,0.0-2.0-0.19-0.175-3.175,1,0,1,68,false,stim,false,2,723,2,1,2,47540,task3,453584,false,false,613,image-keyboard-response,5
true,9,0,2,0,true,q,false,false,0.0-2.0-0.19-0.176-3.176,1,0,1,81,false,stim,false,0,644,2,1,0,47540,task3,455744,false,true,616,image-keyboard-response,6
true,9,2,2,2,true,d,false,false,0.0-2.0-0.19-0.177-3.177,1,0,1,68,false,stim,false,2,608,2,1,2,47540,task3,457889,false,true,619,image-keyboard-response,7
true,9,1,2,0,false,q,true,false,0.0-2.0-0.19-0.178-3.178,1,0,1,90,false,stim,false,0,463,2,1,0,47540,task3,459874,false,false,622,image-keyboard-response,8
true,9,2,2,0,false,q,true,false,0.0-2.0-0.19-0.179-3.179,1,0,1,68,false,stim,false,0,425,2,1,0,47540,task3,461826,false,false,625,image-keyboard-response,9
true,9,2,2,2,true,d,false,false,0.0-2.0-0.20-0.180-3.180,1,0,1,68,false,stim,false,0,1238,2,0,1,47540,task3,464593,false,true,628,image-keyboard-response,10
true,9,2,2,2,true,d,false,true,0.0-2.0-0.20-0.181-3.181,1,0,1,68,false,stim,false,2,435,2,0,2,47540,task3,466562,false,false,631,image-keyboard-response,11
true,9,0,2,0,true,q,false,true,0.0-2.0-0.20-0.182-3.182,1,0,1,81,false,stim,false,0,1429,2,1,0,47540,task3,469530,false,false,634,image-keyboard-response,12
true,9,2,2,2,true,d,false,true,0.0-2.0-0.20-0.183-3.183,1,0,1,68,false,stim,false,2,514,2,0,2,47540,task3,471585,false,false,637,image-keyboard-response,13
true,9,0,2,0,true,q,false,true,0.0-2.0-0.20-0.184-3.184,1,0,1,81,false,stim,false,0,368,2,1,0,47540,task3,473488,false,false,640,image-keyboard-response,14
true,9,0,2,0,true,q,false,true,0.0-2.0-0.20-0.185-3.185,1,0,1,81,false,stim,false,0,459,2,1,0,47540,task3,475480,false,false,643,image-keyboard-response,15
true,10,1,2,2,false,d,true,false,0.0-2.0-0.20-0.186-3.186,1,1,0,90,true,stim,false,2,691,2,1,1,47540,task3,477714,false,false,646,image-keyboard-response,1
true,10,2,2,0,false,q,false,false,0.0-2.0-0.20-0.187-3.187,1,1,0,68,false,stim,true,2,885,2,0,2,47540,task3,480137,false,false,649,image-keyboard-response,2
true,10,2,2,2,true,d,false,true,0.0-2.0-0.20-0.188-3.188,1,1,0,68,false,stim,false,2,531,2,1,1,47540,task3,482192,false,false,652,image-keyboard-response,3
true,10,0,2,0,true,q,false,true,0.0-2.0-0.21-0.189-3.189,1,1,0,81,false,stim,false,0,722,2,1,0,47540,task3,484442,false,false,655,image-keyboard-response,4
true,10,2,2,2,true,d,false,true,0.0-2.0-0.21-0.190-3.190,1,1,0,68,false,stim,false,2,690,2,1,1,47540,task3,486672,false,false,658,image-keyboard-response,5
true,10,2,2,0,false,q,false,false,0.0-2.0-0.21-0.191-3.191,1,1,0,68,false,stim,true,2,767,2,0,2,47540,task3,488979,false,false,661,image-keyboard-response,6
true,10,0,2,0,true,q,false,true,0.0-2.0-0.21-0.192-3.192,1,1,0,81,false,stim,false,0,672,2,1,0,47540,task3,491184,false,false,664,image-keyboard-response,7
true,10,2,2,2,true,d,false,true,0.0-2.0-0.21-0.193-3.193,1,1,0,68,false,stim,false,2,600,2,1,1,47540,task3,493290,false,false,667,image-keyboard-response,8
true,10,0,2,0,true,q,false,false,0.0-2.0-0.21-0.194-3.194,1,1,0,81,false,stim,false,0,698,2,1,0,47540,task3,495530,false,true,670,image-keyboard-response,9
true,10,2,2,2,true,d,false,true,0.0-2.0-0.21-0.195-3.195,1,1,0,68,false,stim,false,2,422,2,1,1,47540,task3,497482,false,false,673,image-keyboard-response,10
true,10,0,2,0,true,q,false,true,0.0-2.0-0.21-0.196-3.196,1,1,0,81,false,stim,false,2,829,2,0,2,47540,task3,499832,false,false,676,image-keyboard-response,11
true,10,0,2,0,true,q,false,true,0.0-2.0-0.21-0.197-3.197,1,1,0,81,false,stim,false,2,476,2,0,2,47540,task3,501826,false,false,679,image-keyboard-response,12
true,10,0,2,0,true,q,false,true,0.0-2.0-0.22-0.198-3.198,1,1,0,81,false,stim,false,0,843,2,1,0,47540,task3,504185,false,false,682,image-keyboard-response,13
true,10,0,2,0,true,q,false,true,0.0-2.0-0.22-0.199-3.199,1,1,0,81,false,stim,false,2,534,2,0,2,47540,task3,506243,false,false,685,image-keyboard-response,14
true,10,2,2,2,true,d,false,true,0.0-2.0-0.22-0.200-3.200,1,1,0,68,false,stim,false,2,669,2,1,1,47540,task3,508440,false,false,688,image-keyboard-response,15
true,10,0,2,0,true,q,false,true,0.0-2.0-0.22-0.201-3.201,1,1,0,81,false,stim,false,0,502,2,1,0,47540,task3,510483,false,false,691,image-keyboard-response,16
true,10,0,2,0,true,q,false,true,0.0-2.0-0.22-0.202-3.202,1,1,0,81,false,stim,false,2,575,2,0,2,47540,task3,512576,false,false,694,image-keyboard-response,17
true,10,2,2,2,true,d,false,true,0.0-2.0-0.22-0.203-3.203,1,1,0,68,false,stim,false,2,856,2,1,1,47540,task3,514954,false,false,697,image-keyboard-response,18
true,10,0,2,0,true,q,false,true,0.0-2.0-0.22-0.204-3.204,1,1,0,81,false,stim,false,2,936,2,0,2,47540,task3,517418,false,false,700,image-keyboard-response,19
true,10,2,2,2,true,d,false,true,0.0-2.0-0.22-0.205-3.205,1,1,0,68,false,stim,false,2,510,2,1,1,47540,task3,519472,false,false,703,image-keyboard-response,20
true,10,0,2,0,true,q,false,true,0.0-2.0-0.22-0.206-3.206,1,1,0,81,false,stim,false,0,502,2,1,0,47540,task3,521505,false,false,706,image-keyboard-response,21
true,10,2,2,2,true,d,false,true,0.0-2.0-0.23-0.207-3.207,1,1,0,68,false,stim,false,2,825,2,1,1,47540,task3,523856,false,false,709,image-keyboard-response,22
true,10,0,2,0,true,q,false,true,0.0-2.0-0.23-0.208-3.208,1,1,0,81,false,stim,false,0,465,2,1,0,47540,task3,525856,false,false,712,image-keyboard-response,23
true,10,2,2,2,true,d,false,true,0.0-2.0-0.23-0.209-3.209,1,1,0,68,false,stim,false,2,491,2,1,1,47540,task3,527872,false,false,715,image-keyboard-response,24
true,10,0,2,0,true,q,false,true,0.0-2.0-0.23-0.210-3.210,1,1,0,81,false,stim,false,0,583,2,1,0,47540,task3,529986,false,false,718,image-keyboard-response,25
true,10,0,2,0,true,q,false,true,0.0-2.0-0.23-0.211-3.211,1,1,0,81,false,stim,false,2,496,2,0,2,47540,task3,532009,false,false,721,image-keyboard-response,26
true,10,0,2,0,true,q,false,true,0.0-2.0-0.23-0.212-3.212,1,1,0,81,false,stim,false,0,678,2,1,0,47540,task3,534210,false,false,724,image-keyboard-response,27
true,10,2,2,2,true,d,false,true,0.0-2.0-0.23-0.213-3.213,1,1,0,68,false,stim,false,2,681,2,0,1,47540,task3,536432,false,false,727,image-keyboard-response,28
true,10,0,2,0,true,q,false,true,0.0-2.0-0.23-0.214-3.214,1,1,0,81,false,stim,false,2,781,2,0,2,47540,task3,538752,false,false,730,image-keyboard-response,29
true,10,0,2,0,true,q,false,true,0.0-2.0-0.23-0.215-3.215,1,1,0,81,false,stim,false,2,416,2,0,2,47540,task3,540706,false,false,733,image-keyboard-response,30
true,10,0,2,0,true,q,false,true,0.0-2.0-0.24-0.216-3.216,1,1,0,81,false,stim,false,2,425,2,0,2,47540,task3,542657,false,false,736,image-keyboard-response,31
true,11,0,1,0,true,q,false,true,0.0-2.0-0.24-0.217-3.217,1,0,0,81,true,stim,false,0,467,2,1,0,47540,task3,544649,false,false,739,image-keyboard-response,1
true,11,0,1,2,false,d,false,false,0.0-2.0-0.24-0.218-3.218,1,0,0,81,false,stim,true,0,458,2,0,2,47540,task3,546632,false,false,742,image-keyboard-response,2
true,11,2,1,1,false,z,false,false,0.0-2.0-0.24-0.219-3.219,1,0,0,68,false,stim,true,2,533,2,0,1,47540,task3,548705,false,false,745,image-keyboard-response,3
true,11,2,1,1,false,z,false,false,0.0-2.0-0.24-0.220-3.220,1,0,0,68,false,stim,true,2,433,2,0,1,47540,task3,550663,false,false,748,image-keyboard-response,4
true,11,0,1,2,false,d,false,false,0.0-2.0-0.24-0.221-3.221,1,0,0,81,false,stim,true,0,819,2,0,2,47540,task3,553011,false,false,751,image-keyboard-response,5
true,11,0,1,0,true,q,false,true,0.0-2.0-0.24-0.222-3.222,1,0,0,81,false,stim,false,0,676,2,1,0,47540,task3,555210,false,false,754,image-keyboard-response,6
true,11,1,1,1,true,z,false,true,0.0-2.0-0.24-0.223-3.223,1,0,0,90,false,stim,false,2,461,2,0,1,47540,task3,557203,false,false,757,image-keyboard-response,7
true,11,0,1,0,true,q,false,true,0.0-2.0-0.24-0.224-3.224,1,0,0,81,false,stim,false,0,699,2,1,0,47540,task3,559441,false,false,760,image-keyboard-response,8
true,11,1,1,2,false,d,true,false,0.0-2.0-0.25-0.225-3.225,1,0,0,90,false,stim,false,0,648,2,0,2,47540,task3,561618,false,false,763,image-keyboard-response,9
true,11,0,1,2,false,d,false,false,0.0-2.0-0.25-0.226-3.226,1,0,0,81,false,stim,true,0,730,2,0,2,47540,task3,563882,false,false,766,image-keyboard-response,10
true,11,0,1,0,true,q,false,true,0.0-2.0-0.25-0.227-3.227,1,0,0,81,false,stim,false,0,782,2,1,0,47540,task3,566204,false,false,769,image-keyboard-response,11
true,11,2,1,2,true,d,false,false,0.0-2.0-0.25-0.228-3.228,1,0,0,68,false,stim,false,0,570,2,0,2,47540,task3,568313,false,true,772,image-keyboard-response,12
true,11,1,1,1,true,z,false,true,0.0-2.0-0.25-0.229-3.229,1,0,0,90,false,stim,false,2,769,2,0,1,47540,task3,570610,false,false,775,image-keyboard-response,13
true,11,1,1,1,true,z,false,true,0.0-2.0-0.25-0.230-3.230,1,0,0,90,false,stim,false,2,546,2,0,1,47540,task3,572688,false,false,778,image-keyboard-response,14
true,11,0,1,0,true,q,false,true,0.0-2.0-0.25-0.231-3.231,1,0,0,81,false,stim,false,0,637,2,1,0,47540,task3,574859,false,false,781,image-keyboard-response,15
true,11,0,1,0,true,q,false,true,0.0-2.0-0.25-0.232-3.232,1,0,0,81,false,stim,false,0,548,2,1,0,47540,task3,576928,false,false,784,image-keyboard-response,16
true,11,1,1,1,true,z,false,true,0.0-2.0-0.25-0.233-3.233,1,0,0,90,false,stim,false,2,562,2,0,1,47540,task3,579024,false,false,787,image-keyboard-response,17
true,11,2,1,2,true,d,false,true,0.0-2.0-0.26-0.234-3.234,1,0,0,68,false,stim,false,0,538,2,0,2,47540,task3,581090,false,false,790,image-keyboard-response,18
true,11,0,1,0,true,q,false,true,0.0-2.0-0.26-0.235-3.235,1,0,0,81,false,stim,false,0,668,2,1,0,47540,task3,583291,false,false,793,image-keyboard-response,19
true,11,1,1,1,true,z,false,true,0.0-2.0-0.26-0.236-3.236,1,0,0,90,false,stim,false,2,498,2,0,1,47540,task3,585330,false,false,796,image-keyboard-response,20
true,11,2,1,2,true,d,false,true,0.0-2.0-0.26-0.237-3.237,1,0,0,68,false,stim,false,0,442,2,0,2,47540,task3,587312,false,false,799,image-keyboard-response,21
true,11,1,1,1,true,z,false,true,0.0-2.0-0.26-0.238-3.238,1,0,0,90,false,stim,false,2,792,2,0,1,47540,task3,589634,false,false,802,image-keyboard-response,22
true,11,0,1,0,true,q,false,true,0.0-2.0-0.26-0.239-3.239,1,0,0,81,false,stim,false,0,543,2,0,0,47540,task3,591691,false,false,805,image-keyboard-response,23
true,11,2,1,2,true,d,false,true,0.0-2.0-0.26-0.240-3.240,1,0,0,68,false,stim,false,0,837,2,0,2,47540,task3,594058,false,false,808,image-keyboard-response,24
true,11,0,1,0,true,q,false,true,0.0-2.0-0.26-0.241-3.241,1,0,0,81,false,stim,false,0,578,2,0,0,47540,task3,596178,false,false,811,image-keyboard-response,25
true,11,1,1,1,true,z,false,true,0.0-2.0-0.26-0.242-3.242,1,0,0,90,false,stim,false,2,548,2,1,1,47540,task3,598249,false,false,814,image-keyboard-response,26
true,11,0,1,0,true,q,false,true,0.0-2.0-0.27-0.243-3.243,1,0,0,81,false,stim,false,0,608,2,0,0,47540,task3,600376,false,false,817,image-keyboard-response,27
true,12,0,1,2,false,d,false,false,0.0-2.0-0.27-0.244-3.244,0,1,0,81,true,stim,true,0,473,2,0,0,47540,task3,602384,false,false,820,image-keyboard-response,1
true,12,1,1,1,true,z,false,true,0.0-2.0-0.27-0.245-3.245,0,1,0,90,false,stim,false,1,852,2,1,1,47540,task3,604753,false,false,823,image-keyboard-response,2
true,12,2,1,1,false,z,false,false,0.0-2.0-0.27-0.246-3.246,0,1,0,68,false,stim,true,2,513,2,0,2,47540,task3,606794,false,false,826,image-keyboard-response,3
true,12,1,1,1,true,z,false,true,0.0-2.0-0.27-0.247-3.247,0,1,0,90,false,stim,false,1,680,2,1,1,47540,task3,609002,false,false,829,image-keyboard-response,4
true,12,0,1,2,false,d,false,false,0.0-2.0-0.27-0.248-3.248,0,1,0,81,false,stim,true,0,581,2,0,0,47540,task3,611114,false,false,832,image-keyboard-response,5
true,12,1,1,1,true,z,false,true,0.0-2.0-0.27-0.249-3.249,0,1,0,90,false,stim,false,1,744,2,1,1,47540,task3,613394,false,false,835,image-keyboard-response,6
true,12,2,1,1,false,z,false,false,0.0-2.0-0.27-0.250-3.250,0,1,0,68,false,stim,true,2,427,2,0,2,47540,task3,615339,false,false,838,image-keyboard-response,7
true,12,1,1,1,true,z,false,true,0.0-2.0-0.27-0.251-3.251,0,1,0,90,false,stim,false,2,1716,2,0,2,47540,task3,618578,false,false,841,image-keyboard-response,8
true,12,2,1,2,true,d,false,true,0.0-2.0-0.28-0.252-3.252,0,1,0,68,false,stim,false,0,446,2,0,0,47540,task3,620538,false,false,844,image-keyboard-response,9
true,12,1,1,1,true,z,false,true,0.0-2.0-0.28-0.253-3.253,0,1,0,90,false,stim,false,1,1297,2,1,1,47540,task3,623369,false,false,847,image-keyboard-response,10
true,12,2,1,2,true,d,false,true,0.0-2.0-0.28-0.254-3.254,0,1,0,68,false,stim,false,0,390,2,0,0,47540,task3,625272,false,false,850,image-keyboard-response,11
true,12,2,1,2,true,d,false,true,0.0-2.0-0.28-0.255-3.255,0,1,0,68,false,stim,false,0,516,2,0,0,47540,task3,627329,false,false,853,image-keyboard-response,12
true,12,1,1,1,true,z,false,true,0.0-2.0-0.28-0.256-3.256,0,1,0,90,false,stim,false,2,520,2,0,2,47540,task3,629362,false,false,856,image-keyboard-response,13
true,12,1,1,1,true,z,false,true,0.0-2.0-0.28-0.257-3.257,0,1,0,90,false,stim,false,1,436,2,1,1,47540,task3,631338,false,false,859,image-keyboard-response,14
true,12,1,1,1,true,z,false,true,0.0-2.0-0.28-0.258-3.258,0,1,0,90,false,stim,false,2,434,2,0,2,47540,task3,633297,false,false,862,image-keyboard-response,15
true,12,1,1,1,true,z,false,true,0.0-2.0-0.28-0.259-3.259,0,1,0,90,false,stim,false,2,589,2,0,2,47540,task3,635410,false,false,865,image-keyboard-response,16
true,12,1,1,1,true,z,false,true,0.0-2.0-0.28-0.260-3.260,0,1,0,90,false,stim,false,1,425,2,1,1,47540,task3,637377,false,false,868,image-keyboard-response,17
true,12,1,1,1,true,z,false,true,0.0-2.0-0.29-0.261-3.261,0,1,0,90,false,stim,false,2,402,2,0,2,47540,task3,639305,false,false,871,image-keyboard-response,18
true,12,2,1,2,true,d,false,true,0.0-2.0-0.29-0.262-3.262,0,1,0,68,false,stim,false,0,560,2,0,0,47540,task3,641393,false,false,874,image-keyboard-response,19
true,12,1,1,1,true,z,false,true,0.0-2.0-0.29-0.263-3.263,0,1,0,90,false,stim,false,1,487,2,1,1,47540,task3,643408,false,false,877,image-keyboard-response,20
true,12,1,1,1,true,z,false,true,0.0-2.0-0.29-0.264-3.264,0,1,0,90,false,stim,false,1,392,2,1,1,47540,task3,645323,false,false,880,image-keyboard-response,21
true,12,1,1,2,false,d,true,false,0.0-2.0-0.29-0.265-3.265,0,1,0,90,false,stim,false,0,695,2,0,0,47540,task3,647546,false,false,883,image-keyboard-response,22
true,12,1,1,1,true,z,false,true,0.0-2.0-0.29-0.266-3.266,0,1,0,90,false,stim,false,2,554,2,0,2,47540,task3,649625,false,false,886,image-keyboard-response,23
true,12,1,1,1,true,z,false,true,0.0-2.0-0.29-0.267-3.267,0,1,0,90,false,stim,false,1,491,2,0,1,47540,task3,651643,false,false,889,image-keyboard-response,24
true,12,2,1,2,true,d,false,true,0.0-2.0-0.29-0.268-3.268,0,1,0,68,false,stim,false,0,452,2,1,0,47540,task3,653632,false,false,892,image-keyboard-response,25
true,12,1,1,1,true,z,false,true,0.0-2.0-0.29-0.269-3.269,0,1,0,90,false,stim,false,2,481,2,0,2,47540,task3,655643,false,false,895,image-keyboard-response,26
true,12,2,1,2,true,d,false,true,0.0-2.0-0.30-0.270-3.270,0,1,0,68,false,stim,false,0,485,2,1,0,47540,task3,657656,false,false,898,image-keyboard-response,27
true,12,2,1,2,true,d,false,true,0.0-2.0-0.30-0.271-3.271,0,1,0,68,false,stim,false,0,395,2,1,0,47540,task3,659571,false,false,901,image-keyboard-response,28
true,13,1,1,0,false,q,false,false,0.0-2.0-0.30-0.272-3.272,1,0,0,90,true,stim,true,1,513,2,0,1,47540,task3,661624,false,false,904,image-keyboard-response,1
true,13,1,1,0,false,q,false,false,0.0-2.0-0.30-0.273-3.273,1,0,0,90,false,stim,true,1,432,2,0,1,47540,task3,663585,false,false,907,image-keyboard-response,2
true,13,0,1,0,true,q,false,true,0.0-2.0-0.30-0.274-3.274,1,0,0,81,false,stim,false,1,462,2,0,1,47540,task3,665564,false,false,910,image-keyboard-response,3
true,13,1,1,0,false,q,false,false,0.0-2.0-0.30-0.275-3.275,1,0,0,90,false,stim,true,1,367,2,0,2,47540,task3,667456,false,false,913,image-keyboard-response,4
true,13,1,1,0,false,q,false,false,0.0-2.0-0.30-0.276-3.276,1,0,0,90,false,stim,true,1,433,2,0,2,47540,task3,669424,false,false,916,image-keyboard-response,5
true,13,2,1,2,true,d,false,true,0.0-2.0-0.30-0.277-3.277,1,0,0,68,false,stim,false,2,595,2,1,0,47540,task3,671547,false,false,919,image-keyboard-response,6
true,13,0,1,0,true,q,false,true,0.0-2.0-0.30-0.278-3.278,1,0,0,81,false,stim,false,1,558,2,0,2,47540,task3,673619,false,false,922,image-keyboard-response,7
true,13,2,1,2,true,d,false,true,0.0-2.0-0.31-0.279-3.279,1,0,0,68,false,stim,false,2,523,2,1,0,47540,task3,675665,false,false,925,image-keyboard-response,8
true,13,0,1,0,true,q,false,true,0.0-2.0-0.31-0.280-3.280,1,0,0,81,false,stim,false,1,323,2,0,1,47540,task3,677512,false,false,928,image-keyboard-response,9
true,13,0,1,0,true,q,false,true,0.0-2.0-0.31-0.281-3.281,1,0,0,81,false,stim,false,1,427,2,0,1,47540,task3,679458,false,false,931,image-keyboard-response,10
true,13,2,1,2,true,d,false,true,0.0-2.0-0.31-0.282-3.282,1,0,0,68,false,stim,false,2,447,2,1,0,47540,task3,681448,false,false,934,image-keyboard-response,11
true,13,0,1,0,true,q,false,true,0.0-2.0-0.31-0.283-3.283,1,0,0,81,false,stim,false,1,526,2,0,2,47540,task3,683497,false,false,937,image-keyboard-response,12
true,13,0,1,0,true,q,false,true,0.0-2.0-0.31-0.284-3.284,1,0,0,81,false,stim,false,1,556,2,1,2,47540,task3,685578,false,false,940,image-keyboard-response,13
true,13,2,1,2,true,d,false,true,0.0-2.0-0.31-0.285-3.285,1,0,0,68,false,stim,false,2,468,2,0,0,47540,task3,687560,false,false,943,image-keyboard-response,14
true,13,0,1,0,true,q,false,true,0.0-2.0-0.31-0.286-3.286,1,0,0,81,false,stim,false,1,502,2,1,2,47540,task3,689585,false,false,946,image-keyboard-response,15
true,13,0,1,0,true,q,false,true,0.0-2.0-0.31-0.287-3.287,1,0,0,81,false,stim,false,1,457,2,1,1,47540,task3,691578,false,false,949,image-keyboard-response,16
true,13,0,1,0,true,q,false,true,0.0-2.0-0.32-0.288-3.288,1,0,0,81,false,stim,false,1,421,2,1,2,47540,task3,693523,false,false,952,image-keyboard-response,17
true,14,0,2,0,true,q,false,true,0.0-2.0-0.32-0.289-3.289,0,1,1,81,true,stim,false,0,380,2,1,2,47540,task3,695442,false,false,955,image-keyboard-response,1
true,14,0,2,0,true,q,false,true,0.0-2.0-0.32-0.290-3.290,0,1,1,81,false,stim,false,0,441,2,1,1,47540,task3,697404,false,false,958,image-keyboard-response,2
true,14,2,2,1,false,z,false,false,0.0-2.0-0.32-0.291-3.291,0,1,1,68,false,stim,true,2,525,2,0,0,47540,task3,699464,false,false,961,image-keyboard-response,3
true,14,0,2,0,true,q,false,true,0.0-2.0-0.32-0.292-3.292,0,1,1,81,false,stim,false,0,464,2,1,2,47540,task3,701464,false,false,964,image-keyboard-response,4
true,14,2,2,1,false,z,false,false,0.0-2.0-0.32-0.293-3.293,0,1,1,68,false,stim,true,2,567,2,0,0,47540,task3,703568,false,false,967,image-keyboard-response,5
true,14,1,2,1,true,z,false,true,0.0-2.0-0.32-0.294-3.294,0,1,1,90,false,stim,false,2,478,2,0,0,47540,task3,705570,false,false,970,image-keyboard-response,6
true,14,0,2,0,true,q,false,true,0.0-2.0-0.32-0.295-3.295,0,1,1,81,false,stim,false,0,357,2,1,1,47540,task3,707458,false,false,973,image-keyboard-response,7
true,14,1,2,0,false,q,true,false,0.0-2.0-0.32-0.296-3.296,0,1,1,90,false,stim,false,0,385,2,1,1,47540,task3,709376,false,false,976,image-keyboard-response,8
true,14,1,2,1,true,z,false,true,0.0-2.0-0.33-0.297-3.297,0,1,1,90,false,stim,false,2,474,2,0,0,47540,task3,711386,false,false,979,image-keyboard-response,9
true,14,0,2,0,true,q,false,true,0.0-2.0-0.33-0.298-3.298,0,1,1,81,false,stim,false,0,410,2,1,2,47540,task3,713322,false,false,982,image-keyboard-response,10
true,14,0,2,0,true,q,false,true,0.0-2.0-0.33-0.299-3.299,0,1,1,81,false,stim,false,0,535,2,1,1,47540,task3,715386,false,false,985,image-keyboard-response,11
true,14,1,2,1,true,z,false,true,0.0-2.0-0.33-0.300-3.300,0,1,1,90,false,stim,false,2,497,2,0,0,47540,task3,717419,false,false,988,image-keyboard-response,12
true,14,1,2,1,true,z,false,true,0.0-2.0-0.33-0.301-3.301,0,1,1,90,false,stim,false,2,427,2,0,0,47540,task3,719369,false,false,991,image-keyboard-response,13
true,14,0,2,0,true,q,false,false,0.0-2.0-0.33-0.302-3.302,0,1,1,81,false,stim,false,0,481,2,1,1,47540,task3,721384,false,true,994,image-keyboard-response,14
true,14,0,2,0,true,q,false,true,0.0-2.0-0.33-0.303-3.303,0,1,1,81,false,stim,false,0,472,2,1,2,47540,task3,723394,false,false,997,image-keyboard-response,15
true,14,0,2,0,true,q,false,true,0.0-2.0-0.33-0.304-3.304,0,1,1,81,false,stim,false,0,384,2,1,2,47540,task3,725306,false,false,1000,image-keyboard-response,16
true,14,0,2,0,true,q,false,true,0.0-2.0-0.33-0.305-3.305,0,1,1,81,false,stim,false,0,650,2,1,1,47540,task3,727491,false,false,1003,image-keyboard-response,17
true,14,0,2,0,true,q,false,true,0.0-2.0-0.34-0.306-3.306,0,1,1,81,false,stim,false,0,460,2,1,1,47540,task3,729481,false,false,1006,image-keyboard-response,18
true,14,1,2,1,true,z,false,true,0.0-2.0-0.34-0.307-3.307,0,1,1,90,false,stim,false,2,614,2,0,0,47540,task3,731626,false,false,1009,image-keyboard-response,19
true,14,0,2,0,true,q,false,true,0.0-2.0-0.34-0.308-3.308,0,1,1,81,false,stim,false,0,449,2,1,2,47540,task3,733601,false,false,1012,image-keyboard-response,20
true,14,1,2,1,true,z,false,true,0.0-2.0-0.34-0.309-3.309,0,1,1,90,false,stim,false,2,620,2,0,0,47540,task3,735753,false,false,1015,image-keyboard-response,21
true,14,0,2,0,true,q,false,true,0.0-2.0-0.34-0.310-3.310,0,1,1,81,false,stim,false,0,526,2,1,1,47540,task3,737818,false,false,1018,image-keyboard-response,22
true,14,0,2,0,true,q,false,true,0.0-2.0-0.34-0.311-3.311,0,1,1,81,false,stim,false,0,549,2,1,2,47540,task3,739880,false,false,1021,image-keyboard-response,23
true,14,0,2,0,true,q,false,true,0.0-2.0-0.34-0.312-3.312,0,1,1,81,false,stim,false,0,571,2,1,1,47540,task3,741992,false,false,1024,image-keyboard-response,24
true,14,0,2,0,true,q,false,false,0.0-2.0-0.34-0.313-3.313,0,1,1,81,false,stim,false,0,519,2,1,2,47540,task3,744041,false,true,1027,image-keyboard-response,25
true,14,1,2,1,true,z,false,true,0.0-2.0-0.34-0.314-3.314,0,1,1,90,false,stim,false,2,714,2,0,0,47540,task3,746296,false,false,1030,image-keyboard-response,26
true,14,0,2,0,true,q,false,false,0.0-2.0-0.35-0.315-3.315,0,1,1,81,false,stim,false,0,731,2,1,1,47540,task3,748552,false,true,1033,image-keyboard-response,27
true,14,1,2,1,true,z,false,true,0.0-2.0-0.35-0.316-3.316,0,1,1,90,false,stim,false,2,697,2,0,0,47540,task3,750778,false,false,1036,image-keyboard-response,28
true,14,2,2,0,false,q,true,false,0.0-2.0-0.35-0.317-3.317,0,1,1,68,false,stim,false,0,523,2,1,1,47540,task3,752825,false,false,1039,image-keyboard-response,29
true,14,0,2,0,true,q,false,true,0.0-2.0-0.35-0.318-3.318,0,1,1,81,false,stim,false,0,1358,2,0,2,47540,task3,755721,false,false,1042,image-keyboard-response,30
true,14,0,2,0,true,q,false,true,0.0-2.0-0.35-0.319-3.319,0,1,1,81,false,stim,false,0,472,2,0,2,47540,task3,757712,false,false,1045,image-keyboard-response,31
true,14,1,2,1,true,z,false,true,0.0-2.0-0.35-0.320-3.320,0,1,1,90,false,stim,false,2,367,2,0,0,47540,task3,759608,false,false,1048,image-keyboard-response,32
true,15,1,1,0,false,q,false,false,0.0-2.0-0.35-0.321-3.321,0,1,0,90,true,stim,true,1,492,2,0,0,47540,task3,761634,false,false,1051,image-keyboard-response,1
true,15,1,1,0,false,q,true,false,0.0-2.0-0.35-0.322-3.322,0,1,0,90,false,stim,false,0,481,2,1,1,47540,task3,763644,false,false,1054,image-keyboard-response,2
true,15,0,1,1,false,z,false,false,0.0-2.0-0.35-0.323-3.323,0,1,0,81,false,stim,true,0,550,2,0,2,47540,task3,765714,false,false,1057,image-keyboard-response,3
true,15,0,1,0,true,q,false,true,0.0-2.0-0.36-0.324-3.324,0,1,0,81,false,stim,false,1,1478,2,0,0,47540,task3,768730,false,false,1060,image-keyboard-response,4
true,15,1,1,1,true,z,false,true,0.0-2.0-0.36-0.325-3.325,0,1,0,90,false,stim,false,0,518,2,0,2,47540,task3,770769,false,false,1063,image-keyboard-response,5
true,15,1,1,1,true,z,false,true,0.0-2.0-0.36-0.326-3.326,0,1,0,90,false,stim,false,0,462,2,0,2,47540,task3,772755,false,false,1066,image-keyboard-response,6
true,15,2,1,0,false,q,true,false,0.0-2.0-0.36-0.327-3.327,0,1,0,68,false,stim,false,0,406,2,1,1,47540,task3,774698,false,false,1069,image-keyboard-response,7
true,15,0,1,0,true,q,false,true,0.0-2.0-0.36-0.328-3.328,0,1,0,81,false,stim,false,0,401,2,1,1,47540,task3,776633,false,false,1072,image-keyboard-response,8
true,15,0,1,0,true,q,false,true,0.0-2.0-0.36-0.329-3.329,0,1,0,81,false,stim,false,1,560,2,0,0,47540,task3,778712,false,false,1075,image-keyboard-response,9
true,15,0,1,0,true,q,false,true,0.0-2.0-0.36-0.330-3.330,0,1,0,81,false,stim,false,1,456,2,0,0,47540,task3,780696,false,false,1078,image-keyboard-response,10
true,15,0,1,0,true,q,false,true,0.0-2.0-0.36-0.331-3.331,0,1,0,81,false,stim,false,0,484,2,1,1,47540,task3,782716,false,false,1081,image-keyboard-response,11
true,15,1,1,1,true,z,false,true,0.0-2.0-0.36-0.332-3.332,0,1,0,90,false,stim,false,0,444,2,0,2,47540,task3,784697,false,false,1084,image-keyboard-response,12
true,15,1,1,1,true,z,false,true,0.0-2.0-0.37-0.333-3.333,0,1,0,90,false,stim,false,0,392,2,0,2,47540,task3,786619,false,false,1087,image-keyboard-response,13
true,15,0,1,0,true,q,false,true,0.0-2.0-0.37-0.334-3.334,0,1,0,81,false,stim,false,1,476,2,0,0,47540,task3,788618,false,false,1090,image-keyboard-response,14
true,15,0,1,0,true,q,false,true,0.0-2.0-0.37-0.335-3.335,0,1,0,81,false,stim,false,0,610,2,1,1,47540,task3,790762,false,false,1093,image-keyboard-response,15
true,15,0,1,0,true,q,false,true,0.0-2.0-0.37-0.336-3.336,0,1,0,81,false,stim,false,1,573,2,0,0,47540,task3,792865,false,false,1096,image-keyboard-response,16
true,15,0,1,1,false,z,false,false,0.0-2.0-0.37-0.337-3.337,0,1,0,81,false,stim,true,0,543,2,0,2,47540,task3,794945,false,false,1099,image-keyboard-response,17
true,15,0,1,0,true,q,false,true,0.0-2.0-0.37-0.338-3.338,0,1,0,81,false,stim,false,0,1679,2,1,1,47540,task3,798161,false,false,1102,image-keyboard-response,18
true,15,0,1,0,true,q,false,true,0.0-2.0-0.37-0.339-3.339,0,1,0,81,false,stim,false,0,509,2,1,1,47540,task3,800201,false,false,1105,image-keyboard-response,19
true,15,0,1,0,true,q,false,true,0.0-2.0-0.37-0.340-3.340,0,1,0,81,false,stim,false,1,508,2,0,0,47540,task3,802241,false,false,1108,image-keyboard-response,20
true,15,1,1,1,true,z,false,true,0.0-2.0-0.37-0.341-3.341,0,1,0,90,false,stim,false,0,440,2,0,2,47540,task3,804210,false,false,1111,image-keyboard-response,21
true,15,0,1,0,true,q,false,true,0.0-2.0-0.38-0.342-3.342,0,1,0,81,false,stim,false,0,473,2,1,1,47540,task3,806224,false,false,1114,image-keyboard-response,22
true,15,0,1,0,true,q,false,true,0.0-2.0-0.38-0.343-3.343,0,1,0,81,false,stim,false,1,441,2,0,0,47540,task3,808192,false,false,1117,image-keyboard-response,23
true,15,0,1,1,false,z,false,false,0.0-2.0-0.38-0.344-3.344,0,1,0,81,false,stim,true,0,488,2,1,2,47540,task3,810211,false,false,1120,image-keyboard-response,24
true,15,1,1,1,true,z,false,true,0.0-2.0-0.38-0.345-3.345,0,1,0,90,false,stim,false,0,463,2,1,2,47540,task3,812184,false,false,1123,image-keyboard-response,25
true,15,0,1,0,true,q,false,true,0.0-2.0-0.38-0.346-3.346,0,1,0,81,false,stim,false,1,544,2,0,0,47540,task3,814264,false,false,1126,image-keyboard-response,26
true,15,0,1,0,true,q,false,true,0.0-2.0-0.38-0.347-3.347,0,1,0,81,false,stim,false,0,625,2,1,1,47540,task3,816426,false,false,1129,image-keyboard-response,27
true,16,1,2,1,true,z,false,true,0.0-2.0-0.38-0.348-3.348,0,1,1,90,true,stim,false,1,513,2,1,2,47540,task3,818466,false,false,1132,image-keyboard-response,1
true,16,0,2,0,true,q,false,false,0.0-2.0-0.38-0.349-3.349,0,1,1,81,false,stim,false,0,753,2,1,1,47540,task3,820744,false,true,1135,image-keyboard-response,2
true,16,0,2,1,false,z,false,false,0.0-2.0-0.38-0.350-3.350,0,1,1,81,false,stim,true,0,659,2,0,0,47540,task3,822930,false,false,1138,image-keyboard-response,3
true,16,1,2,1,true,z,false,true,0.0-2.0-0.39-0.351-3.351,0,1,1,90,false,stim,false,1,609,2,1,2,47540,task3,825080,false,false,1141,image-keyboard-response,4
true,16,1,2,1,true,z,false,true,0.0-2.0-0.39-0.352-3.352,0,1,1,90,false,stim,false,1,673,2,1,2,47540,task3,827274,false,false,1144,image-keyboard-response,5
true,16,0,2,0,true,q,false,true,0.0-2.0-0.39-0.353-3.353,0,1,1,81,false,stim,false,0,444,2,1,1,47540,task3,829257,false,false,1147,image-keyboard-response,6
true,16,1,2,1,true,z,false,true,0.0-2.0-0.39-0.354-3.354,0,1,1,90,false,stim,false,1,594,2,1,2,47540,task3,831385,false,false,1150,image-keyboard-response,7
true,16,0,2,1,false,z,false,false,0.0-2.0-0.39-0.355-3.355,0,1,1,81,false,stim,true,0,461,2,0,0,47540,task3,833385,false,false,1153,image-keyboard-response,8
true,16,1,2,1,true,z,false,false,0.0-2.0-0.39-0.356-3.356,0,1,1,90,false,stim,false,0,951,2,0,0,47540,task3,835865,false,true,1156,image-keyboard-response,9
true,16,2,2,1,false,z,true,false,0.0-2.0-0.39-0.357-3.357,0,1,1,68,false,stim,false,0,587,2,0,0,47540,task3,837985,false,false,1159,image-keyboard-response,10
true,16,0,2,0,true,q,false,true,0.0-2.0-0.39-0.358-3.358,0,1,1,81,false,stim,false,0,767,2,0,1,47540,task3,840290,false,false,1162,image-keyboard-response,11
true,16,0,2,0,true,q,false,true,0.0-2.0-0.39-0.359-3.359,0,1,1,81,false,stim,false,0,1082,2,0,1,47540,task3,842915,false,false,1165,image-keyboard-response,12
true,16,1,2,1,true,z,false,true,0.0-2.0-0.40-0.360-3.360,0,1,1,90,false,stim,false,1,555,2,1,2,47540,task3,845009,false,false,1168,image-keyboard-response,13
true,16,0,2,0,true,q,false,true,0.0-2.0-0.40-0.361-3.361,0,1,1,81,false,stim,false,0,774,2,0,1,47540,task3,847306,false,false,1171,image-keyboard-response,14
true,16,1,2,1,true,z,false,true,0.0-2.0-0.40-0.362-3.362,0,1,1,90,false,stim,false,0,846,2,1,0,47540,task3,849688,false,false,1174,image-keyboard-response,15
true,17,1,2,1,true,z,false,true,0.0-2.0-0.40-0.363-3.363,1,0,1,90,true,stim,false,1,557,2,1,2,47540,task3,851779,false,false,1177,image-keyboard-response,1
true,17,1,2,1,true,z,false,true,0.0-2.0-0.40-0.364-3.364,1,0,1,90,false,stim,false,1,463,2,1,0,47540,task3,853754,false,false,1180,image-keyboard-response,2
true,17,1,2,1,true,z,false,true,0.0-2.0-0.40-0.365-3.365,1,0,1,90,false,stim,false,1,441,2,1,0,47540,task3,855723,false,false,1183,image-keyboard-response,3
true,17,0,2,2,false,d,false,false,0.0-2.0-0.40-0.366-3.366,1,0,1,81,false,stim,true,0,605,2,0,1,47540,task3,857856,false,false,1186,image-keyboard-response,4
true,17,1,2,1,true,z,false,true,0.0-2.0-0.40-0.367-3.367,1,0,1,90,false,stim,false,1,601,2,1,2,47540,task3,859993,false,false,1189,image-keyboard-response,5
true,17,0,2,2,false,d,false,false,0.0-2.0-0.40-0.368-3.368,1,0,1,81,false,stim,true,0,743,2,0,1,47540,task3,862265,false,false,1192,image-keyboard-response,6
true,17,1,2,1,true,z,false,false,0.0-2.0-0.41-0.369-3.369,1,0,1,90,false,stim,false,1,625,2,1,0,47540,task3,864426,false,true,1195,image-keyboard-response,7
true,17,2,2,2,true,d,false,true,0.0-2.0-0.41-0.370-3.370,1,0,1,68,false,stim,false,0,612,2,0,1,47540,task3,866544,false,false,1198,image-keyboard-response,8
true,17,2,2,2,true,d,false,true,0.0-2.0-0.41-0.371-3.371,1,0,1,68,false,stim,false,0,678,2,1,1,47540,task3,868745,false,false,1201,image-keyboard-response,9
true,17,1,2,1,true,z,false,true,0.0-2.0-0.41-0.372-3.372,1,0,1,90,false,stim,false,1,596,2,0,2,47540,task3,870858,false,false,1204,image-keyboard-response,10
true,17,1,2,1,true,z,false,true,0.0-2.0-0.41-0.373-3.373,1,0,1,90,false,stim,false,1,377,2,0,2,47540,task3,872771,false,false,1207,image-keyboard-response,11
true,17,1,2,1,true,z,false,false,0.0-2.0-0.41-0.374-3.374,1,0,1,90,false,stim,false,1,439,2,1,0,47540,task3,874741,false,true,1210,image-keyboard-response,12
true,17,0,2,1,false,z,true,false,0.0-2.0-0.41-0.375-3.375,1,0,1,81,false,stim,false,1,882,2,1,0,47540,task3,877144,false,false,1213,image-keyboard-response,13
true,18,2,2,2,true,d,false,true,0.0-2.0-0.41-0.376-3.376,1,1,0,68,true,stim,false,2,768,2,1,1,47540,task3,879451,false,false,1216,image-keyboard-response,1
true,18,1,2,0,false,q,false,false,0.0-2.0-0.41-0.377-3.377,1,1,0,90,false,stim,true,1,654,2,0,2,47540,task3,881627,false,false,1219,image-keyboard-response,2
true,18,1,2,0,false,q,false,false,0.0-2.0-0.42-0.378-3.378,1,1,0,90,false,stim,true,1,387,2,0,2,47540,task3,883538,false,false,1222,image-keyboard-response,3
true,18,2,2,1,false,z,true,false,0.0-2.0-0.42-0.379-3.379,1,1,0,68,false,stim,false,1,745,2,1,0,47540,task3,885818,false,false,1225,image-keyboard-response,4
true,18,0,2,1,false,z,true,false,0.0-2.0-0.42-0.380-3.380,1,1,0,81,false,stim,false,1,474,2,1,0,47540,task3,887825,false,false,1228,image-keyboard-response,5
true,18,0,2,0,true,q,false,true,0.0-2.0-0.42-0.381-3.381,1,1,0,81,false,stim,false,1,796,2,0,2,47540,task3,890139,false,false,1231,image-keyboard-response,6
true,18,2,2,2,true,d,false,true,0.0-2.0-0.42-0.382-3.382,1,1,0,68,false,stim,false,2,513,2,1,1,47540,task3,892187,false,false,1234,image-keyboard-response,7
true,18,0,2,0,true,q,false,true,0.0-2.0-0.42-0.383-3.383,1,1,0,81,false,stim,false,1,650,2,0,2,47540,task3,894369,false,false,1237,image-keyboard-response,8
true,18,1,2,1,true,z,false,true,0.0-2.0-0.42-0.384-3.384,1,1,0,90,false,stim,false,1,749,2,1,0,47540,task3,896651,false,false,1240,image-keyboard-response,9
true,18,2,2,2,true,d,false,true,0.0-2.0-0.42-0.385-3.385,1,1,0,68,false,stim,false,2,671,2,1,1,47540,task3,898841,false,false,1243,image-keyboard-response,10
true,18,2,2,2,true,d,false,true,0.0-2.0-0.42-0.386-3.386,1,1,0,68,false,stim,false,2,869,2,1,1,47540,task3,901251,false,false,1246,image-keyboard-response,11
true,18,2,2,2,true,d,false,true,0.0-2.0-0.43-0.387-3.387,1,1,0,68,false,stim,false,2,553,2,1,1,47540,task3,903345,false,false,1249,image-keyboard-response,12
true,18,1,2,1,true,z,false,true,0.0-2.0-0.43-0.388-3.388,1,1,0,90,false,stim,false,1,473,2,0,0,47540,task3,905347,false,false,1252,image-keyboard-response,13
true,18,2,2,2,true,d,false,true,0.0-2.0-0.43-0.389-3.389,1,1,0,68,false,stim,false,2,620,2,1,1,47540,task3,907482,false,false,1255,image-keyboard-response,14
true,18,0,2,0,true,q,false,true,0.0-2.0-0.43-0.390-3.390,1,1,0,81,false,stim,false,1,537,2,1,2,47540,task3,909539,false,false,1258,image-keyboard-response,15
true,18,0,2,0,true,q,false,true,0.0-2.0-0.43-0.391-3.391,1,1,0,81,false,stim,false,1,598,2,1,2,47540,task3,911651,false,false,1261,image-keyboard-response,16
true,19,1,2,2,false,d,false,true,0.0-2.0-0.43-0.392-3.392,0,1,1,90,true,stim,true,1,790,2,0,0,47540,task3,913971,false,true,1264,image-keyboard-response,1
true,19,0,2,0,true,q,false,true,0.0-2.0-0.43-0.393-3.393,0,1,1,81,false,stim,false,0,700,2,1,2,47540,task3,916201,false,false,1267,image-keyboard-response,2
true,19,1,2,2,false,d,false,false,0.0-2.0-0.43-0.394-3.394,0,1,1,90,false,stim,true,1,588,2,0,0,47540,task3,918321,false,false,1270,image-keyboard-response,3
true,19,2,2,2,true,d,false,true,0.0-2.0-0.43-0.395-3.395,0,1,1,68,false,stim,false,2,565,2,1,1,47540,task3,920427,false,false,1273,image-keyboard-response,4
true,19,2,2,2,true,d,false,true,0.0-2.0-0.44-0.396-3.396,0,1,1,68,false,stim,false,2,679,2,1,1,47540,task3,922641,false,false,1276,image-keyboard-response,5
true,19,2,2,2,true,d,false,true,0.0-2.0-0.44-0.397-3.397,0,1,1,68,false,stim,false,2,509,2,1,1,47540,task3,924682,false,false,1279,image-keyboard-response,6
true,19,0,2,0,true,q,false,true,0.0-2.0-0.44-0.398-3.398,0,1,1,81,false,stim,false,0,646,2,1,2,47540,task3,926857,false,false,1282,image-keyboard-response,7
true,19,0,2,0,true,q,false,true,0.0-2.0-0.44-0.399-3.399,0,1,1,81,false,stim,false,0,434,2,1,2,47540,task3,928817,false,false,1285,image-keyboard-response,8
true,19,1,2,2,false,d,false,false,0.0-2.0-0.44-0.400-3.400,0,1,1,90,false,stim,true,1,550,2,0,0,47540,task3,930883,false,false,1288,image-keyboard-response,9
true,19,2,2,2,true,d,false,true,0.0-2.0-0.44-0.401-3.401,0,1,1,68,false,stim,false,2,644,2,1,1,47540,task3,933067,false,false,1291,image-keyboard-response,10
true,19,2,2,2,true,d,false,true,0.0-2.0-0.44-0.402-3.402,0,1,1,68,false,stim,false,1,508,2,0,0,47540,task3,935090,false,false,1294,image-keyboard-response,11
true,19,0,2,0,true,q,false,true,0.0-2.0-0.44-0.403-3.403,0,1,1,81,false,stim,false,0,1211,2,1,2,47540,task3,937833,false,false,1297,image-keyboard-response,12
true,19,2,2,2,true,d,false,true,0.0-2.0-0.44-0.404-3.404,0,1,1,68,false,stim,false,1,376,2,0,0,47540,task3,939729,false,false,1300,image-keyboard-response,13
true,19,2,2,2,true,d,false,true,0.0-2.0-0.45-0.405-3.405,0,1,1,68,false,stim,false,2,379,2,1,1,47540,task3,941651,false,false,1303,image-keyboard-response,14
true,19,2,2,2,true,d,false,true,0.0-2.0-0.45-0.406-3.406,0,1,1,68,false,stim,false,1,925,2,0,0,47540,task3,944098,false,false,1306,image-keyboard-response,15
true,19,2,2,2,true,d,false,false,0.0-2.0-0.45-0.407-3.407,0,1,1,68,false,stim,false,2,441,2,1,1,47540,task3,946065,false,true,1309,image-keyboard-response,16
true,19,2,2,2,true,d,false,true,0.0-2.0-0.45-0.408-3.408,0,1,1,68,false,stim,false,1,455,2,0,0,47540,task3,948049,false,false,1312,image-keyboard-response,17
true,19,0,2,0,true,q,false,true,0.0-2.0-0.45-0.409-3.409,0,1,1,81,false,stim,false,0,493,2,1,2,47540,task3,950065,false,false,1315,image-keyboard-response,18
true,19,0,2,0,true,q,false,true,0.0-2.0-0.45-0.410-3.410,0,1,1,81,false,stim,false,0,433,2,1,2,47540,task3,952034,false,false,1318,image-keyboard-response,19
true,19,2,2,2,true,d,false,true,0.0-2.0-0.45-0.411-3.411,0,1,1,68,false,stim,false,1,556,2,0,0,47540,task3,954129,false,false,1321,image-keyboard-response,20
true,19,2,2,2,true,d,false,false,0.0-2.0-0.45-0.412-3.412,0,1,1,68,false,stim,false,2,463,2,0,1,47540,task3,956114,false,true,1324,image-keyboard-response,21
true,19,0,2,0,true,q,false,true,0.0-2.0-0.45-0.413-3.413,0,1,1,81,false,stim,false,0,602,2,1,2,47540,task3,958244,false,false,1327,image-keyboard-response,22
true,19,1,2,2,false,d,true,false,0.0-2.0-0.46-0.414-3.414,0,1,1,90,false,stim,false,2,661,2,0,1,47540,task3,960433,false,false,1330,image-keyboard-response,23
true,19,2,2,2,true,d,false,true,0.0-2.0-0.46-0.415-3.415,0,1,1,68,false,stim,false,1,719,2,0,0,47540,task3,962681,false,false,1333,image-keyboard-response,24
true,19,0,2,2,false,d,true,false,0.0-2.0-0.46-0.416-3.416,0,1,1,81,false,stim,false,2,421,2,0,1,47540,task3,964633,false,false,1336,image-keyboard-response,25
true,20,0,1,0,true,q,false,false,0.0-2.0-0.46-0.417-3.417,0,0,1,81,true,stim,false,0,699,2,1,2,47540,task3,966851,false,true,1339,image-keyboard-response,1
true,20,0,1,1,false,z,true,false,0.0-2.0-0.46-0.418-3.418,0,0,1,81,false,stim,false,2,1033,2,0,1,47540,task3,969417,false,false,1342,image-keyboard-response,2
true,20,0,1,0,true,q,false,true,0.0-2.0-0.46-0.419-3.419,0,0,1,81,false,stim,false,0,499,2,1,2,47540,task3,971441,false,false,1345,image-keyboard-response,3
true,20,2,1,1,false,z,false,true,0.0-2.0-0.46-0.420-3.420,0,0,1,68,false,stim,true,2,627,2,0,0,47540,task3,973608,false,true,1348,image-keyboard-response,4
true,20,0,1,0,true,q,false,true,0.0-2.0-0.46-0.421-3.421,0,0,1,81,false,stim,false,0,765,2,1,2,47540,task3,975889,false,false,1351,image-keyboard-response,5
true,20,2,1,1,false,z,false,false,0.0-2.0-0.46-0.422-3.422,0,0,1,68,false,stim,true,2,703,2,0,0,47540,task3,978114,false,false,1354,image-keyboard-response,6
true,20,2,1,1,false,z,false,false,0.0-2.0-0.47-0.423-3.423,0,0,1,68,false,stim,true,2,472,2,0,0,47540,task3,980114,false,false,1357,image-keyboard-response,7
true,20,1,1,1,true,z,false,true,0.0-2.0-0.47-0.424-3.424,0,0,1,90,false,stim,false,2,868,2,0,1,47540,task3,982521,false,false,1360,image-keyboard-response,8
true,20,1,1,1,true,z,false,false,0.0-2.0-0.47-0.425-3.425,0,0,1,90,false,stim,false,2,496,2,0,0,47540,task3,984539,false,true,1363,image-keyboard-response,9
true,20,0,1,0,true,q,false,true,0.0-2.0-0.47-0.426-3.426,0,0,1,81,false,stim,false,0,634,2,1,2,47540,task3,986697,false,false,1366,image-keyboard-response,10
true,20,1,1,1,true,z,false,true,0.0-2.0-0.47-0.427-3.427,0,0,1,90,false,stim,false,2,418,2,0,1,47540,task3,988641,false,false,1369,image-keyboard-response,11
true,20,1,1,1,true,z,false,true,0.0-2.0-0.47-0.428-3.428,0,0,1,90,false,stim,false,2,520,2,1,1,47540,task3,990691,false,false,1372,image-keyboard-response,12
true,20,0,1,0,true,q,false,true,0.0-2.0-0.47-0.429-3.429,0,0,1,81,false,stim,false,0,556,2,0,2,47540,task3,992778,false,false,1375,image-keyboard-response,13
true,20,1,1,1,true,z,false,true,0.0-2.0-0.47-0.430-3.430,0,0,1,90,false,stim,false,2,402,2,1,0,47540,task3,994705,false,false,1378,image-keyboard-response,14
true,20,0,1,0,true,q,false,true,0.0-2.0-0.47-0.431-3.431,0,0,1,81,false,stim,false,0,647,2,0,2,47540,task3,996889,false,false,1381,image-keyboard-response,15
true,20,1,1,1,true,z,false,true,0.0-2.0-0.48-0.432-3.432,0,0,1,90,false,stim,false,2,448,2,1,0,47540,task3,998856,false,false,1384,image-keyboard-response,16
true,21,0,2,2,false,d,false,false,0.0-2.0-0.48-0.433-3.433,1,1,0,81,true,stim,true,0,614,2,0,2,47540,task3,1000995,false,false,1387,image-keyboard-response,1
true,21,1,2,1,true,z,false,true,0.0-2.0-0.48-0.434-3.434,1,1,0,90,false,stim,false,1,536,2,1,1,47540,task3,1003057,false,false,1390,image-keyboard-response,2
true,21,0,2,2,false,d,false,false,0.0-2.0-0.48-0.435-3.435,1,1,0,81,false,stim,true,0,611,2,0,2,47540,task3,1005203,false,false,1393,image-keyboard-response,3
true,21,1,2,1,true,z,false,true,0.0-2.0-0.48-0.436-3.436,1,1,0,90,false,stim,false,1,912,2,1,0,47540,task3,1007635,false,false,1396,image-keyboard-response,4
true,21,1,2,1,true,z,false,true,0.0-2.0-0.48-0.437-3.437,1,1,0,90,false,stim,false,1,501,2,1,0,47540,task3,1009673,false,false,1399,image-keyboard-response,5
true,21,1,2,1,true,z,false,true,0.0-2.0-0.48-0.438-3.438,1,1,0,90,false,stim,false,1,812,2,1,1,47540,task3,1012004,false,false,1402,image-keyboard-response,6
true,21,1,2,1,true,z,false,true,0.0-2.0-0.48-0.439-3.439,1,1,0,90,false,stim,false,1,461,2,1,1,47540,task3,1014004,false,false,1405,image-keyboard-response,7
true,21,2,2,2,true,d,false,true,0.0-2.0-0.48-0.440-3.440,1,1,0,68,false,stim,false,0,396,2,1,2,47540,task3,1015939,false,false,1408,image-keyboard-response,8
true,21,1,2,1,true,z,false,true,0.0-2.0-0.49-0.441-3.441,1,1,0,90,false,stim,false,1,508,2,1,0,47540,task3,1017970,false,false,1411,image-keyboard-response,9
true,21,1,2,1,true,z,false,true,0.0-2.0-0.49-0.442-3.442,1,1,0,90,false,stim,false,1,772,2,0,1,47540,task3,1020274,false,false,1414,image-keyboard-response,10
true,21,1,2,1,true,z,false,true,0.0-2.0-0.49-0.443-3.443,1,1,0,90,false,stim,false,1,663,2,1,0,47540,task3,1022474,false,false,1417,image-keyboard-response,11
true,21,1,2,1,true,z,false,true,0.0-2.0-0.49-0.444-3.444,1,1,0,90,false,stim,false,1,385,2,1,0,47540,task3,1024387,false,false,1420,image-keyboard-response,12
true,22,2,2,2,true,d,false,true,0.0-2.0-0.49-0.445-3.445,1,0,1,68,true,stim,false,2,424,2,1,2,47540,task3,1026337,false,false,1423,image-keyboard-response,1
true,22,2,2,2,true,d,false,true,0.0-2.0-0.49-0.446-3.446,1,0,1,68,false,stim,false,2,918,2,1,2,47540,task3,1028779,false,false,1426,image-keyboard-response,2
true,22,2,2,2,true,d,false,true,0.0-2.0-0.49-0.447-3.447,1,0,1,68,false,stim,false,2,491,2,1,2,47540,task3,1030793,false,false,1429,image-keyboard-response,3
true,22,1,2,0,false,q,false,false,0.0-2.0-0.49-0.448-3.448,1,0,1,90,false,stim,true,1,399,2,0,1,47540,task3,1032721,false,false,1432,image-keyboard-response,4
true,22,1,2,0,false,q,false,false,0.0-2.0-0.49-0.449-3.449,1,0,1,90,false,stim,true,1,441,2,0,1,47540,task3,1034697,false,false,1435,image-keyboard-response,5
true,22,0,2,0,true,q,false,true,0.0-2.0-0.50-0.450-3.450,1,0,1,81,false,stim,false,1,376,2,0,1,47540,task3,1036587,false,false,1438,image-keyboard-response,6
true,22,2,2,2,true,d,false,true,0.0-2.0-0.50-0.451-3.451,1,0,1,68,false,stim,false,2,643,2,1,2,47540,task3,1038754,false,false,1441,image-keyboard-response,7
true,22,2,2,2,true,d,false,true,0.0-2.0-0.50-0.452-3.452,1,0,1,68,false,stim,false,2,513,2,1,2,47540,task3,1040793,false,false,1444,image-keyboard-response,8
true,22,0,2,0,true,q,false,true,0.0-2.0-0.50-0.453-3.453,1,0,1,81,false,stim,false,1,920,2,0,1,47540,task3,1043242,false,false,1447,image-keyboard-response,9
true,22,2,2,2,true,d,false,true,0.0-2.0-0.50-0.454-3.454,1,0,1,68,false,stim,false,2,605,2,1,2,47540,task3,1045386,false,false,1450,image-keyboard-response,10
true,22,1,2,1,true,z,false,true,0.0-2.0-0.50-0.455-3.455,1,0,1,90,false,stim,false,1,466,2,1,0,47540,task3,1047379,false,false,1453,image-keyboard-response,11
true,22,1,2,1,true,z,false,true,0.0-2.0-0.50-0.456-3.456,1,0,1,90,false,stim,false,1,524,2,1,0,47540,task3,1049417,false,false,1456,image-keyboard-response,12
true,22,1,2,1,true,z,false,true,0.0-2.0-0.50-0.457-3.457,1,0,1,90,false,stim,false,1,365,2,1,0,47540,task3,1051307,false,false,1459,image-keyboard-response,13
true,22,0,2,0,true,q,false,true,0.0-2.0-0.50-0.458-3.458,1,0,1,81,false,stim,false,1,708,2,0,1,47540,task3,1053539,false,false,1462,image-keyboard-response,14
true,22,0,2,0,true,q,false,true,0.0-2.0-0.51-0.459-3.459,1,0,1,81,false,stim,false,1,477,2,0,1,47540,task3,1055538,false,false,1465,image-keyboard-response,15
true,22,0,2,0,true,q,false,true,0.0-2.0-0.51-0.460-3.460,1,0,1,81,false,stim,false,1,379,2,0,1,47540,task3,1057442,false,false,1468,image-keyboard-response,16
true,22,1,2,1,true,z,false,true,0.0-2.0-0.51-0.461-3.461,1,0,1,90,false,stim,false,1,510,2,1,0,47540,task3,1059483,false,false,1471,image-keyboard-response,17
true,22,0,2,0,true,q,false,true,0.0-2.0-0.51-0.462-3.462,1,0,1,81,false,stim,false,1,535,2,0,1,47540,task3,1061547,false,false,1474,image-keyboard-response,18
true,22,2,2,2,true,d,false,true,0.0-2.0-0.51-0.463-3.463,1,0,1,68,false,stim,false,2,494,2,1,2,47540,task3,1063577,false,false,1477,image-keyboard-response,19
true,22,2,2,2,true,d,false,true,0.0-2.0-0.51-0.464-3.464,1,0,1,68,false,stim,false,2,390,2,1,2,47540,task3,1065491,false,false,1480,image-keyboard-response,20
true,22,2,2,2,true,d,false,true,0.0-2.0-0.51-0.465-3.465,1,0,1,68,false,stim,false,2,394,2,1,2,47540,task3,1067395,false,false,1483,image-keyboard-response,21
true,22,1,2,1,true,z,false,true,0.0-2.0-0.51-0.466-3.466,1,0,1,90,false,stim,false,1,511,2,1,0,47540,task3,1069433,false,false,1486,image-keyboard-response,22
true,22,1,2,1,true,z,false,true,0.0-2.0-0.51-0.467-3.467,1,0,1,90,false,stim,false,1,401,2,1,0,47540,task3,1071364,false,false,1489,image-keyboard-response,23
true,22,1,2,1,true,z,false,false,0.0-2.0-0.52-0.468-3.468,1,0,1,90,false,stim,false,1,327,2,0,0,47540,task3,1073218,false,true,1492,image-keyboard-response,24
true,22,1,2,1,true,z,false,true,0.0-2.0-0.52-0.469-3.469,1,0,1,90,false,stim,false,1,339,2,0,0,47540,task3,1075091,false,false,1495,image-keyboard-response,25
true,22,0,2,0,true,q,false,true,0.0-2.0-0.52-0.470-3.470,1,0,1,81,false,stim,false,1,641,2,0,1,47540,task3,1077272,false,false,1498,image-keyboard-response,26
true,22,2,2,2,true,d,false,true,0.0-2.0-0.52-0.471-3.471,1,0,1,68,false,stim,false,2,625,2,1,2,47540,task3,1079433,false,false,1501,image-keyboard-response,27
true,22,2,2,2,true,d,false,true,0.0-2.0-0.52-0.472-3.472,1,0,1,68,false,stim,false,2,383,2,1,2,47540,task3,1081355,false,false,1504,image-keyboard-response,28
true,23,2,1,2,true,d,false,true,0.0-2.0-0.52-0.473-3.473,0,0,1,68,true,stim,false,2,381,2,1,2,47540,task3,1083273,false,false,1507,image-keyboard-response,1
true,23,1,1,1,true,z,false,true,0.0-2.0-0.52-0.474-3.474,0,0,1,90,false,stim,false,0,959,2,0,1,47540,task3,1085770,false,false,1510,image-keyboard-response,2
true,23,0,1,1,false,z,false,true,0.0-2.0-0.52-0.475-3.475,0,0,1,81,false,stim,true,0,1269,2,0,1,47540,task3,1088562,false,true,1513,image-keyboard-response,3
true,23,1,1,2,false,d,false,false,0.0-2.0-0.52-0.476-3.476,0,0,1,90,false,stim,true,1,388,2,0,0,47540,task3,1090481,false,false,1516,image-keyboard-response,4
true,23,1,1,2,false,d,false,true,0.0-2.0-0.53-0.477-3.477,0,0,1,90,false,stim,true,1,366,2,0,0,47540,task3,1092377,false,true,1519,image-keyboard-response,5
true,23,0,1,1,false,z,false,false,0.0-2.0-0.53-0.478-3.478,0,0,1,81,false,stim,true,0,702,2,0,1,47540,task3,1094604,false,false,1522,image-keyboard-response,6
true,23,2,1,2,true,d,false,true,0.0-2.0-0.53-0.479-3.479,0,0,1,68,false,stim,false,2,692,2,1,2,47540,task3,1096825,false,false,1525,image-keyboard-response,7
true,23,0,1,1,false,z,false,false,0.0-2.0-0.53-0.480-3.480,0,0,1,81,false,stim,true,0,505,2,0,1,47540,task3,1098857,false,false,1528,image-keyboard-response,8
true,23,1,1,2,false,d,false,false,0.0-2.0-0.53-0.481-3.481,0,0,1,90,false,stim,true,1,636,2,0,0,47540,task3,1101008,false,false,1531,image-keyboard-response,9
true,23,2,1,2,true,d,false,true,0.0-2.0-0.53-0.482-3.482,0,0,1,68,false,stim,false,2,558,2,1,2,47540,task3,1103091,false,false,1534,image-keyboard-response,10
true,23,2,1,2,true,d,false,true,0.0-2.0-0.53-0.483-3.483,0,0,1,68,false,stim,false,2,520,2,1,2,47540,task3,1105153,false,false,1537,image-keyboard-response,11
true,23,1,1,1,true,z,false,true,0.0-2.0-0.53-0.484-3.484,0,0,1,90,false,stim,false,0,397,2,0,1,47540,task3,1107090,false,false,1540,image-keyboard-response,12
true,23,1,1,2,false,d,false,false,0.0-2.0-0.53-0.485-3.485,0,0,1,90,false,stim,true,1,671,2,0,0,47540,task3,1109290,false,false,1543,image-keyboard-response,13
true,23,2,1,2,true,d,false,false,0.0-2.0-0.54-0.486-3.486,0,0,1,68,false,stim,false,2,732,2,1,2,47540,task3,1111545,false,true,1546,image-keyboard-response,14
true,23,2,1,2,true,d,false,true,0.0-2.0-0.54-0.487-3.487,0,0,1,68,false,stim,false,2,417,2,1,2,47540,task3,1113497,false,false,1549,image-keyboard-response,15
true,23,0,1,2,false,d,true,false,0.0-2.0-0.54-0.488-3.488,0,0,1,81,false,stim,false,1,449,2,0,0,47540,task3,1115473,false,false,1552,image-keyboard-response,16
true,23,1,1,1,true,z,false,true,0.0-2.0-0.54-0.489-3.489,0,0,1,90,false,stim,false,0,744,2,0,1,47540,task3,1117745,false,false,1555,image-keyboard-response,17
true,23,1,1,1,true,z,false,true,0.0-2.0-0.54-0.490-3.490,0,0,1,90,false,stim,false,0,539,2,0,1,47540,task3,1119811,false,false,1558,image-keyboard-response,18
true,23,2,1,2,true,d,false,true,0.0-2.0-0.54-0.491-3.491,0,0,1,68,false,stim,false,1,596,2,0,0,47540,task3,1121939,false,false,1561,image-keyboard-response,19
true,23,2,1,2,true,d,false,true,0.0-2.0-0.54-0.492-3.492,0,0,1,68,false,stim,false,1,596,2,0,0,47540,task3,1124059,false,false,1564,image-keyboard-response,20
true,23,2,1,2,true,d,false,true,0.0-2.0-0.54-0.493-3.493,0,0,1,68,false,stim,false,2,358,2,1,2,47540,task3,1125939,false,false,1567,image-keyboard-response,21
true,23,1,1,1,true,z,false,true,0.0-2.0-0.54-0.494-3.494,0,0,1,90,false,stim,false,0,558,2,1,1,47540,task3,1128020,false,false,1570,image-keyboard-response,22
true,23,1,1,1,true,z,false,true,0.0-2.0-0.55-0.495-3.495,0,0,1,90,false,stim,false,0,1267,2,1,1,47540,task3,1130810,false,false,1573,image-keyboard-response,23
true,23,2,1,2,true,d,false,false,0.0-2.0-0.55-0.496-3.496,0,0,1,68,false,stim,false,1,436,2,0,0,47540,task3,1132769,false,true,1576,image-keyboard-response,24
true,23,2,1,2,true,d,false,true,0.0-2.0-0.55-0.497-3.497,0,0,1,68,false,stim,false,1,556,2,0,0,47540,task3,1134859,false,false,1579,image-keyboard-response,25
true,23,2,1,2,true,d,false,true,0.0-2.0-0.55-0.498-3.498,0,0,1,68,false,stim,false,1,665,2,0,0,47540,task3,1137048,false,false,1582,image-keyboard-response,26
true,24,1,1,1,true,z,false,true,0.0-2.0-0.55-0.499-3.499,0,1,0,90,true,stim,false,1,563,2,1,1,47540,task3,1139146,false,false,1585,image-keyboard-response,1
true,24,2,1,0,false,q,false,false,0.0-2.0-0.55-0.500-3.500,0,1,0,68,false,stim,true,2,641,2,0,2,47540,task3,1141315,false,false,1588,image-keyboard-response,2
true,24,1,1,1,true,z,false,true,0.0-2.0-0.55-0.501-3.501,0,1,0,90,false,stim,false,1,775,2,1,1,47540,task3,1143627,false,false,1591,image-keyboard-response,3
true,24,2,1,0,false,q,false,false,0.0-2.0-0.55-0.502-3.502,0,1,0,68,false,stim,true,2,573,2,0,2,47540,task3,1145715,false,false,1594,image-keyboard-response,4
true,24,0,1,0,true,q,false,false,0.0-2.0-0.55-0.503-3.503,0,1,0,81,false,stim,false,2,574,2,0,2,47540,task3,1147817,false,true,1597,image-keyboard-response,5
true,24,2,1,0,false,q,false,false,0.0-2.0-0.56-0.504-3.504,0,1,0,68,false,stim,true,2,876,2,0,0,47540,task3,1150219,false,false,1600,image-keyboard-response,6
true,24,1,1,0,false,q,true,false,0.0-2.0-0.56-0.505-3.505,0,1,0,90,false,stim,false,2,673,2,0,2,47540,task3,1152425,false,false,1603,image-keyboard-response,7
true,24,0,1,0,true,q,false,true,0.0-2.0-0.56-0.506-3.506,0,1,0,81,false,stim,false,2,875,2,0,2,47540,task3,1154817,false,false,1606,image-keyboard-response,8
true,24,0,1,0,true,q,false,true,0.0-2.0-0.56-0.507-3.507,0,1,0,81,false,stim,false,2,647,2,0,2,47540,task3,1156979,false,false,1609,image-keyboard-response,9
true,24,2,1,1,false,z,true,false,0.0-2.0-0.56-0.508-3.508,0,1,0,68,false,stim,false,1,635,2,1,1,47540,task3,1159137,false,false,1612,image-keyboard-response,10
true,24,1,1,1,true,z,false,false,0.0-2.0-0.56-0.509-3.509,0,1,0,90,false,stim,false,1,451,2,1,1,47540,task3,1161115,false,true,1615,image-keyboard-response,11
true,24,1,1,1,true,z,false,true,0.0-2.0-0.56-0.510-3.510,0,1,0,90,false,stim,false,1,616,2,1,1,47540,task3,1163256,false,false,1618,image-keyboard-response,12
true,24,1,1,0,false,q,true,false,0.0-2.0-0.56-0.511-3.511,0,1,0,90,false,stim,false,2,536,2,0,0,47540,task3,1165329,false,false,1621,image-keyboard-response,13
true,24,1,1,0,false,q,true,true,0.0-2.0-0.56-0.512-3.512,0,1,0,90,false,stim,false,2,375,2,0,0,47540,task3,1167218,false,true,1624,image-keyboard-response,14
true,24,1,1,1,true,z,false,true,0.0-2.0-0.57-0.513-3.513,0,1,0,90,false,stim,false,1,361,2,1,1,47540,task3,1169113,false,false,1627,image-keyboard-response,15
true,24,1,1,1,true,z,false,true,0.0-2.0-0.57-0.514-3.514,0,1,0,90,false,stim,false,1,400,2,1,1,47540,task3,1171043,false,false,1630,image-keyboard-response,16
true,24,1,1,0,false,q,true,false,0.0-2.0-0.57-0.515-3.515,0,1,0,90,false,stim,false,2,1030,2,0,0,47540,task3,1173603,false,false,1633,image-keyboard-response,17
true,24,0,1,0,true,q,false,true,0.0-2.0-0.57-0.516-3.516,0,1,0,81,false,stim,false,2,638,2,0,2,47540,task3,1175761,false,false,1636,image-keyboard-response,18
true,24,0,1,0,true,q,false,true,0.0-2.0-0.57-0.517-3.517,0,1,0,81,false,stim,false,2,456,2,0,2,47540,task3,1177739,false,false,1639,image-keyboard-response,19
true,24,1,1,1,true,z,false,true,0.0-2.0-0.57-0.518-3.518,0,1,0,90,false,stim,false,1,668,2,1,1,47540,task3,1179931,false,false,1642,image-keyboard-response,20
true,24,1,1,0,false,q,true,false,0.0-2.0-0.57-0.519-3.519,0,1,0,90,false,stim,false,2,396,2,0,0,47540,task3,1181857,false,false,1645,image-keyboard-response,21
true,24,2,1,0,false,q,false,false,0.0-2.0-0.57-0.520-3.520,0,1,0,68,false,stim,true,2,451,2,0,0,47540,task3,1183843,false,false,1648,image-keyboard-response,22
true,24,0,1,0,true,q,false,true,0.0-2.0-0.57-0.521-3.521,0,1,0,81,false,stim,false,2,1582,2,0,2,47540,task3,1186946,false,false,1651,image-keyboard-response,23
true,24,0,1,0,true,q,false,true,0.0-2.0-0.58-0.522-3.522,0,1,0,81,false,stim,false,2,794,2,0,2,47540,task3,1189266,false,false,1654,image-keyboard-response,24
true,24,0,1,0,true,q,false,true,0.0-2.0-0.58-0.523-3.523,0,1,0,81,false,stim,false,2,490,2,0,2,47540,task3,1191282,false,false,1657,image-keyboard-response,25
true,24,2,1,1,false,z,true,false,0.0-2.0-0.58-0.524-3.524,0,1,0,68,false,stim,false,1,1263,2,0,1,47540,task3,1194083,false,false,1660,image-keyboard-response,26
true,24,0,1,1,false,z,true,false,0.0-2.0-0.58-0.525-3.525,0,1,0,81,false,stim,false,1,826,2,0,1,47540,task3,1196449,false,false,1663,image-keyboard-response,27
true,24,2,1,0,false,q,false,false,0.0-2.0-0.58-0.526-3.526,0,1,0,68,false,stim,true,2,883,2,1,0,47540,task3,1198866,false,false,1666,image-keyboard-response,28
true,24,1,1,1,true,z,false,true,0.0-2.0-0.58-0.527-3.527,0,1,0,90,false,stim,false,1,645,2,0,1,47540,task3,1201036,false,false,1669,image-keyboard-response,29
true,25,0,1,0,true,q,false,true,0.0-2.0-0.58-0.528-3.528,1,0,0,81,true,stim,false,0,451,2,1,0,47540,task3,1203025,false,false,1672,image-keyboard-response,1
true,25,0,1,0,true,q,false,true,0.0-2.0-0.58-0.529-3.529,1,0,0,81,false,stim,false,0,543,2,1,0,47540,task3,1205098,false,false,1675,image-keyboard-response,2
true,25,0,1,1,false,z,false,false,0.0-2.0-0.58-0.530-3.530,1,0,0,81,false,stim,true,0,763,2,0,2,47540,task3,1207387,false,false,1678,image-keyboard-response,3
true,25,0,1,0,true,q,false,true,0.0-2.0-0.59-0.531-3.531,1,0,0,81,false,stim,false,0,526,2,1,0,47540,task3,1209450,false,false,1681,image-keyboard-response,4
true,25,1,1,2,false,d,false,false,0.0-2.0-0.59-0.532-3.532,1,0,0,90,false,stim,true,1,596,2,0,1,47540,task3,1211570,false,false,1684,image-keyboard-response,5
true,25,0,1,1,false,z,false,false,0.0-2.0-0.59-0.533-3.533,1,0,0,81,false,stim,true,0,695,2,0,2,47540,task3,1213787,false,false,1687,image-keyboard-response,6
true,25,1,1,2,false,d,false,false,0.0-2.0-0.59-0.534-3.534,1,0,0,90,false,stim,true,1,1225,2,0,1,47540,task3,1216537,false,false,1690,image-keyboard-response,7
true,25,0,1,0,true,q,false,true,0.0-2.0-0.59-0.535-3.535,1,0,0,81,false,stim,false,0,800,2,1,0,47540,task3,1218873,false,false,1693,image-keyboard-response,8
true,25,0,1,0,true,q,false,true,0.0-2.0-0.59-0.536-3.536,1,0,0,81,false,stim,false,0,667,2,1,0,47540,task3,1221081,false,false,1696,image-keyboard-response,9
true,25,2,1,2,true,d,false,false,0.0-2.0-0.59-0.537-3.537,1,0,0,68,false,stim,false,1,871,2,1,1,47540,task3,1223465,false,true,1699,image-keyboard-response,10
true,25,1,1,1,true,z,false,true,0.0-2.0-0.59-0.538-3.538,1,0,0,90,false,stim,false,0,686,2,1,2,47540,task3,1225689,false,false,1702,image-keyboard-response,11
true,25,1,1,1,true,z,false,false,0.0-2.0-0.59-0.539-3.539,1,0,0,90,false,stim,false,0,566,2,1,2,47540,task3,1227780,false,true,1705,image-keyboard-response,12
true,26,1,0,1,true,z,false,true,0.0-2.0-0.60-0.540-3.540,1,1,1,90,true,stim,false,1,940,2,1,2,47540,task3,1233393,false,false,1712,image-keyboard-response,1
true,26,0,0,0,true,q,false,false,0.0-2.0-0.60-0.541-3.541,1,1,1,81,false,stim,false,0,537,2,1,0,47540,task3,1235457,false,true,1715,image-keyboard-response,2
true,26,1,0,1,true,z,false,false,0.0-2.0-0.60-0.542-3.542,1,1,1,90,false,stim,false,1,443,2,1,2,47540,task3,1237425,false,true,1718,image-keyboard-response,3
true,26,1,0,1,true,z,false,true,0.0-2.0-0.60-0.543-3.543,1,1,1,90,false,stim,false,1,352,2,1,2,47540,task3,1239305,false,false,1721,image-keyboard-response,4
true,26,0,0,2,false,d,true,false,0.0-2.0-0.60-0.544-3.544,1,1,1,81,false,stim,false,2,385,2,1,1,47540,task3,1241217,false,false,1724,image-keyboard-response,5
true,26,0,0,2,false,d,true,false,0.0-2.0-0.60-0.545-3.545,1,1,1,81,false,stim,false,2,452,2,1,1,47540,task3,1243203,false,false,1727,image-keyboard-response,6
true,26,0,0,0,true,q,false,true,0.0-2.0-0.60-0.546-3.546,1,1,1,81,false,stim,false,0,1070,2,1,0,47540,task3,1245811,false,false,1730,image-keyboard-response,7
true,26,1,0,2,false,d,true,false,0.0-2.0-0.60-0.547-3.547,1,1,1,90,false,stim,false,2,923,2,1,1,47540,task3,1248275,false,false,1733,image-keyboard-response,8
true,26,0,0,0,true,q,false,true,0.0-2.0-0.60-0.548-3.548,1,1,1,81,false,stim,false,0,780,2,0,0,47540,task3,1250593,false,false,1736,image-keyboard-response,9
true,26,1,0,1,true,z,false,true,0.0-2.0-0.61-0.549-3.549,1,1,1,90,false,stim,false,1,799,2,0,2,47540,task3,1252921,false,false,1739,image-keyboard-response,10
true,26,1,0,1,true,z,false,true,0.0-2.0-0.61-0.550-3.550,1,1,1,90,false,stim,false,1,1161,2,0,2,47540,task3,1255604,false,false,1742,image-keyboard-response,11
true,26,0,0,0,true,q,false,true,0.0-2.0-0.61-0.551-3.551,1,1,1,81,false,stim,false,0,568,2,0,0,47540,task3,1257691,false,false,1745,image-keyboard-response,12
true,26,0,0,0,true,q,false,true,0.0-2.0-0.61-0.552-3.552,1,1,1,81,false,stim,false,0,473,2,0,0,47540,task3,1259706,false,false,1748,image-keyboard-response,13
true,27,2,1,2,true,d,false,true,0.0-2.0-0.61-0.553-3.553,0,1,0,68,true,stim,false,2,600,2,1,1,47540,task3,1261843,false,false,1751,image-keyboard-response,1
true,27,0,1,1,false,z,false,false,0.0-2.0-0.61-0.554-3.554,0,1,0,81,false,stim,true,0,572,2,0,0,47540,task3,1263954,false,false,1754,image-keyboard-response,2
true,27,2,1,2,true,d,false,true,0.0-2.0-0.61-0.555-3.555,0,1,0,68,false,stim,false,2,649,2,1,1,47540,task3,1266131,false,false,1757,image-keyboard-response,3
true,27,2,1,2,true,d,false,true,0.0-2.0-0.61-0.556-3.556,0,1,0,68,false,stim,false,2,564,2,1,1,47540,task3,1268227,false,false,1760,image-keyboard-response,4
true,27,1,1,2,false,d,false,false,0.0-2.0-0.61-0.557-3.557,0,1,0,90,false,stim,true,1,630,2,0,2,47540,task3,1270393,false,false,1763,image-keyboard-response,5
true,27,2,1,2,true,d,false,true,0.0-2.0-0.62-0.558-3.558,0,1,0,68,false,stim,false,2,583,2,1,1,47540,task3,1272506,false,false,1766,image-keyboard-response,6
true,27,1,1,2,false,d,false,false,0.0-2.0-0.62-0.559-3.559,0,1,0,90,false,stim,true,1,388,2,0,2,47540,task3,1274419,false,false,1769,image-keyboard-response,7
true,27,2,1,2,true,d,false,true,0.0-2.0-0.62-0.560-3.560,0,1,0,68,false,stim,false,2,653,2,1,1,47540,task3,1276595,false,false,1772,image-keyboard-response,8
true,27,0,1,1,false,z,false,false,0.0-2.0-0.62-0.561-3.561,0,1,0,81,false,stim,true,0,622,2,0,0,47540,task3,1278745,false,false,1775,image-keyboard-response,9
true,27,1,1,1,true,z,false,false,0.0-2.0-0.62-0.562-3.562,0,1,0,90,false,stim,false,0,848,2,0,0,47540,task3,1281130,false,true,1778,image-keyboard-response,10
true,27,0,1,2,false,d,true,false,0.0-2.0-0.62-0.563-3.563,0,1,0,81,false,stim,false,1,698,2,0,2,47540,task3,1283363,false,false,1781,image-keyboard-response,11
true,27,2,1,2,true,d,false,false,0.0-2.0-0.62-0.564-3.564,0,1,0,68,false,stim,false,2,629,2,1,1,47540,task3,1285523,false,true,1784,image-keyboard-response,12
true,27,2,1,1,false,z,true,false,0.0-2.0-0.62-0.565-3.565,0,1,0,68,false,stim,false,0,1207,2,0,0,47540,task3,1288251,false,false,1787,image-keyboard-response,13
true,27,2,1,2,true,d,false,true,0.0-2.0-0.62-0.566-3.566,0,1,0,68,false,stim,false,1,1266,2,0,2,47540,task3,1291049,false,false,1790,image-keyboard-response,14
true,27,2,1,2,true,d,false,true,0.0-2.0-0.63-0.567-3.567,0,1,0,68,false,stim,false,1,675,2,0,2,47540,task3,1293258,false,false,1793,image-keyboard-response,15
true,27,2,1,2,true,d,false,true,0.0-2.0-0.63-0.568-3.568,0,1,0,68,false,stim,false,2,587,2,1,1,47540,task3,1295369,false,false,1796,image-keyboard-response,16
true,27,1,1,1,true,z,false,true,0.0-2.0-0.63-0.569-3.569,0,1,0,90,false,stim,false,0,709,2,0,0,47540,task3,1297601,false,false,1799,image-keyboard-response,17
true,27,1,1,1,true,z,false,true,0.0-2.0-0.63-0.570-3.570,0,1,0,90,false,stim,false,0,501,2,0,0,47540,task3,1299633,false,false,1802,image-keyboard-response,18
true,27,2,1,2,true,d,false,true,0.0-2.0-0.63-0.571-3.571,0,1,0,68,false,stim,false,1,609,2,0,2,47540,task3,1301779,false,false,1805,image-keyboard-response,19
true,27,1,1,1,true,z,false,true,0.0-2.0-0.63-0.572-3.572,0,1,0,90,false,stim,false,0,568,2,0,0,47540,task3,1303881,false,false,1808,image-keyboard-response,20
true,27,2,1,2,true,d,false,true,0.0-2.0-0.63-0.573-3.573,0,1,0,68,false,stim,false,1,471,2,0,2,47540,task3,1305884,false,false,1811,image-keyboard-response,21
true,27,2,1,2,true,d,false,true,0.0-2.0-0.63-0.574-3.574,0,1,0,68,false,stim,false,2,386,2,1,1,47540,task3,1307809,false,false,1814,image-keyboard-response,22
true,27,2,1,2,true,d,false,true,0.0-2.0-0.63-0.575-3.575,0,1,0,68,false,stim,false,2,495,2,1,1,47540,task3,1309820,false,false,1817,image-keyboard-response,23
true,27,2,1,2,true,d,false,true,0.0-2.0-0.64-0.576-3.576,0,1,0,68,false,stim,false,2,467,2,1,1,47540,task3,1311809,false,false,1820,image-keyboard-response,24
true,27,2,1,2,true,d,false,true,0.0-2.0-0.64-0.577-3.577,0,1,0,68,false,stim,false,2,518,2,1,1,47540,task3,1313850,false,false,1823,image-keyboard-response,25
true,28,2,1,1,false,z,false,true,0.0-2.0-0.64-0.578-3.578,0,1,0,68,true,stim,true,2,363,2,0,2,47540,task3,1315746,false,true,1826,image-keyboard-response,1
true,28,2,1,2,true,d,false,true,0.0-2.0-0.64-0.579-3.579,0,1,0,68,false,stim,false,2,402,2,1,1,47540,task3,1317684,false,false,1829,image-keyboard-response,2
true,28,2,1,1,false,z,false,false,0.0-2.0-0.64-0.580-3.580,0,1,0,68,false,stim,true,2,567,2,0,2,47540,task3,1319779,false,false,1832,image-keyboard-response,3
true,28,2,1,1,false,z,false,false,0.0-2.0-0.64-0.581-3.581,0,1,0,68,false,stim,true,2,355,2,0,2,47540,task3,1321657,false,false,1835,image-keyboard-response,4
true,28,1,1,2,false,d,false,false,0.0-2.0-0.64-0.582-3.582,0,1,0,90,false,stim,true,1,714,2,0,0,47540,task3,1323898,false,false,1838,image-keyboard-response,5
true,28,1,1,2,false,d,false,false,0.0-2.0-0.64-0.583-3.583,0,1,0,90,false,stim,true,1,436,2,0,0,47540,task3,1325860,false,false,1841,image-keyboard-response,6
true,28,0,1,2,false,d,true,false,0.0-2.0-0.64-0.584-3.584,0,1,0,81,false,stim,false,1,525,2,0,0,47540,task3,1327914,false,false,1844,image-keyboard-response,7
true,28,2,1,2,true,d,false,true,0.0-2.0-0.65-0.585-3.585,0,1,0,68,false,stim,false,2,1133,2,1,1,47540,task3,1330586,false,false,1847,image-keyboard-response,8
true,28,2,1,2,true,d,false,true,0.0-2.0-0.65-0.586-3.586,0,1,0,68,false,stim,false,1,772,2,0,0,47540,task3,1332884,false,false,1850,image-keyboard-response,9
true,28,0,1,1,false,z,true,false,0.0-2.0-0.65-0.587-3.587,0,1,0,81,false,stim,false,2,1036,2,0,2,47540,task3,1335460,false,false,1853,image-keyboard-response,10
true,28,2,1,2,true,d,false,true,0.0-2.0-0.65-0.588-3.588,0,1,0,68,false,stim,false,2,770,2,1,1,47540,task3,1337764,false,false,1856,image-keyboard-response,11
true,28,2,1,2,true,d,false,false,0.0-2.0-0.65-0.589-3.589,0,1,0,68,false,stim,false,1,645,2,1,0,47540,task3,1339937,false,true,1859,image-keyboard-response,12
true,28,2,1,2,true,d,false,true,0.0-2.0-0.65-0.590-3.590,0,1,0,68,false,stim,false,1,384,2,1,0,47540,task3,1341857,false,false,1862,image-keyboard-response,13
true,28,1,1,1,true,z,false,true,0.0-2.0-0.65-0.591-3.591,0,1,0,90,false,stim,false,2,355,2,1,2,47540,task3,1343738,false,false,1865,image-keyboard-response,14
true,28,1,1,1,true,z,false,true,0.0-2.0-0.65-0.592-3.592,0,1,0,90,false,stim,false,2,381,2,1,2,47540,task3,1345633,false,false,1868,image-keyboard-response,15
true,28,2,1,2,true,d,false,true,0.0-2.0-0.65-0.593-3.593,0,1,0,68,false,stim,false,2,535,2,0,1,47540,task3,1347697,false,false,1871,image-keyboard-response,16
true,29,1,2,1,true,z,false,true,0.0-2.0-0.66-0.594-3.594,1,0,1,90,true,stim,false,1,1438,2,1,2,47540,task3,1350649,false,false,1874,image-keyboard-response,1
true,29,2,2,0,false,q,false,false,0.0-2.0-0.66-0.595-3.595,1,0,1,68,false,stim,true,2,622,2,0,1,47540,task3,1352804,false,false,1877,image-keyboard-response,2
true,29,1,2,1,true,z,false,true,0.0-2.0-0.66-0.596-3.596,1,0,1,90,false,stim,false,1,595,2,1,2,47540,task3,1354929,false,false,1880,image-keyboard-response,3
true,29,1,2,1,true,z,false,true,0.0-2.0-0.66-0.597-3.597,1,0,1,90,false,stim,false,1,494,2,1,2,47540,task3,1356945,false,false,1883,image-keyboard-response,4
true,29,2,2,0,false,q,false,false,0.0-2.0-0.66-0.598-3.598,1,0,1,68,false,stim,true,2,442,2,0,1,47540,task3,1358906,false,false,1886,image-keyboard-response,5
true,29,2,2,2,true,d,false,true,0.0-2.0-0.66-0.599-3.599,1,0,1,68,false,stim,false,2,498,2,1,0,47540,task3,1360931,false,false,1889,image-keyboard-response,6
true,29,2,2,2,true,d,false,true,0.0-2.0-0.66-0.600-3.600,1,0,1,68,false,stim,false,2,1145,2,1,0,47540,task3,1363617,false,false,1892,image-keyboard-response,7
true,29,2,2,2,true,d,false,true,0.0-2.0-0.66-0.601-3.601,1,0,1,68,false,stim,false,2,763,2,1,0,47540,task3,1365905,false,false,1895,image-keyboard-response,8
true,29,0,2,0,true,q,false,true,0.0-2.0-0.66-0.602-3.602,1,0,1,81,false,stim,false,2,417,2,1,1,47540,task3,1367850,false,false,1898,image-keyboard-response,9
true,29,1,2,1,true,z,false,true,0.0-2.0-0.67-0.603-3.603,1,0,1,90,false,stim,false,1,646,2,0,2,47540,task3,1370035,false,false,1901,image-keyboard-response,10
true,29,1,2,1,true,z,false,true,0.0-2.0-0.67-0.604-3.604,1,0,1,90,false,stim,false,1,697,2,0,2,47540,task3,1372260,false,false,1904,image-keyboard-response,11
true,29,1,2,1,true,z,false,true,0.0-2.0-0.67-0.605-3.605,1,0,1,90,false,stim,false,1,434,2,0,2,47540,task3,1374227,false,false,1907,image-keyboard-response,12
true,29,0,2,0,true,q,false,true,0.0-2.0-0.67-0.606-3.606,1,0,1,81,false,stim,false,2,911,2,1,1,47540,task3,1376673,false,false,1910,image-keyboard-response,13
true,30,2,1,0,false,q,false,false,0.0-2.0-0.67-0.607-3.607,0,1,0,68,true,stim,true,2,567,2,0,0,47540,task3,1378780,false,false,1913,image-keyboard-response,1
true,30,2,1,0,false,q,false,true,0.0-2.0-0.67-0.608-3.608,0,1,0,68,false,stim,true,2,393,2,0,0,47540,task3,1380707,false,true,1916,image-keyboard-response,2
true,30,2,1,0,false,q,false,false,0.0-2.0-0.67-0.609-3.609,0,1,0,68,false,stim,true,2,371,2,0,0,47540,task3,1382593,false,false,1919,image-keyboard-response,3
true,30,0,1,0,true,q,false,true,0.0-2.0-0.67-0.610-3.610,0,1,0,81,false,stim,false,0,727,2,1,1,47540,task3,1384850,false,false,1922,image-keyboard-response,4
true,30,0,1,0,true,q,false,true,0.0-2.0-0.67-0.611-3.611,0,1,0,81,false,stim,false,0,467,2,1,1,47540,task3,1386850,false,false,1925,image-keyboard-response,5
true,30,2,1,0,false,q,false,false,0.0-2.0-0.68-0.612-3.612,0,1,0,68,false,stim,true,2,587,2,0,0,47540,task3,1388970,false,false,1928,image-keyboard-response,6
true,30,0,1,0,true,q,false,true,0.0-2.0-0.68-0.613-3.613,0,1,0,81,false,stim,false,0,531,2,1,1,47540,task3,1391033,false,false,1931,image-keyboard-response,7
true,30,1,1,2,false,d,false,true,0.0-2.0-0.68-0.614-3.614,0,1,0,90,false,stim,true,1,428,2,0,2,47540,task3,1393001,false,true,1934,image-keyboard-response,8
true,30,0,1,0,true,q,false,true,0.0-2.0-0.68-0.615-3.615,0,1,0,81,false,stim,false,0,573,2,1,1,47540,task3,1395105,false,false,1937,image-keyboard-response,9
true,30,1,1,2,false,d,false,false,0.0-2.0-0.68-0.616-3.616,0,1,0,90,false,stim,true,1,651,2,0,2,47540,task3,1397283,false,false,1940,image-keyboard-response,10
true,30,0,1,0,true,q,false,true,0.0-2.0-0.68-0.617-3.617,0,1,0,81,false,stim,false,0,539,2,1,1,47540,task3,1399362,false,false,1943,image-keyboard-response,11
true,30,1,1,0,false,q,true,false,0.0-2.0-0.68-0.618-3.618,0,1,0,90,false,stim,false,2,586,2,1,0,47540,task3,1401490,false,false,1946,image-keyboard-response,12
true,30,0,1,0,true,q,false,true,0.0-2.0-0.68-0.619-3.619,0,1,0,81,false,stim,false,2,515,2,1,0,47540,task3,1403539,false,false,1949,image-keyboard-response,13
true,30,1,1,2,false,d,false,true,0.0-2.0-0.68-0.620-3.620,0,1,0,90,false,stim,true,1,557,2,1,2,47540,task3,1405610,false,true,1952,image-keyboard-response,14
true,30,1,1,2,false,d,false,false,0.0-2.0-0.69-0.621-3.621,0,1,0,90,false,stim,true,1,406,2,1,2,47540,task3,1407539,false,false,1955,image-keyboard-response,15
true,30,0,1,0,true,q,false,true,0.0-2.0-0.69-0.622-3.622,0,1,0,81,false,stim,false,0,492,2,0,1,47540,task3,1409554,false,false,1958,image-keyboard-response,16
true,31,0,2,0,true,q,false,true,0.0-2.0-0.69-0.623-3.623,1,0,1,81,true,stim,false,0,499,2,1,0,47540,task3,1411572,false,false,1961,image-keyboard-response,1
true,31,0,2,0,true,q,false,true,0.0-2.0-0.69-0.624-3.624,1,0,1,81,false,stim,false,0,618,2,1,0,47540,task3,1413730,false,false,1964,image-keyboard-response,2
true,31,0,2,2,false,d,false,false,0.0-2.0-0.69-0.625-3.625,1,0,1,81,false,stim,true,0,404,2,0,1,47540,task3,1415657,false,false,1967,image-keyboard-response,3
true,31,1,2,2,false,d,true,false,0.0-2.0-0.69-0.626-3.626,1,0,1,90,false,stim,false,2,552,2,1,2,47540,task3,1417746,false,false,1970,image-keyboard-response,4
true,31,0,2,2,false,d,false,false,0.0-2.0-0.69-0.627-3.627,1,0,1,81,false,stim,true,0,621,2,0,1,47540,task3,1419890,false,false,1973,image-keyboard-response,5
true,31,0,2,0,true,q,false,true,0.0-2.0-0.69-0.628-3.628,1,0,1,81,false,stim,false,0,716,2,1,0,47540,task3,1422130,false,false,1976,image-keyboard-response,6
true,31,0,2,2,false,d,true,false,0.0-2.0-0.69-0.629-3.629,1,0,1,81,false,stim,false,2,391,2,1,2,47540,task3,1424035,false,false,1979,image-keyboard-response,7
true,31,2,2,2,true,d,false,true,0.0-2.0-0.70-0.630-3.630,1,0,1,68,false,stim,false,0,744,2,0,1,47540,task3,1426305,false,false,1982,image-keyboard-response,8
true,31,2,2,2,true,d,false,true,0.0-2.0-0.70-0.631-3.631,1,0,1,68,false,stim,false,0,775,2,0,1,47540,task3,1428609,false,false,1985,image-keyboard-response,9
true,31,2,2,2,true,d,false,false,0.0-2.0-0.70-0.632-3.632,1,0,1,68,false,stim,false,2,445,2,1,2,47540,task3,1430577,false,true,1988,image-keyboard-response,10
true,31,0,2,0,true,q,false,true,0.0-2.0-0.70-0.633-3.633,1,0,1,81,false,stim,false,0,570,2,1,0,47540,task3,1432683,false,false,1991,image-keyboard-response,11
true,31,0,2,2,false,d,true,false,0.0-2.0-0.70-0.634-3.634,1,0,1,81,false,stim,false,2,409,2,1,2,47540,task3,1434611,false,false,1994,image-keyboard-response,12
