answered,blockNum,choice,condition,corResp,correct,correct_response,explo,fb,internal_node_id,isStable_1,isStable_2,isStable_3,key_press,newBlock,part,persev,persevResp,rt,sessNum,stableAS,stimulus,subject,task,time_elapsed,training,trap,trial_index,trial_type,trialsInBlock
true,1,0,0,0,true,q,false,true,0.0-2.0-0.0-0.0-3.0,0,0,0,81,true,stim,false,-1,677,1,0,2,47540,task1,89155,false,false,85,image-keyboard-response,1
true,1,0,0,2,false,d,true,false,0.0-2.0-0.0-0.1-3.1,0,0,0,81,false,stim,false,-1,801,1,0,1,47540,task1,91468,false,false,88,image-keyboard-response,2
true,1,1,0,2,false,d,true,false,0.0-2.0-0.0-0.2-3.2,0,0,0,90,false,stim,false,-1,794,1,0,1,47540,task1,93797,false,false,91,image-keyboard-response,3
true,1,0,0,2,false,d,true,false,0.0-2.0-0.0-0.3-3.3,0,0,0,81,false,stim,false,-1,811,1,0,0,47540,task1,96131,false,false,94,image-keyboard-response,4
true,1,1,0,2,false,d,true,false,0.0-2.0-0.0-0.4-3.4,0,0,0,90,false,stim,false,-1,1391,1,0,0,47540,task1,99042,false,false,97,image-keyboard-response,5
true,1,2,0,2,true,d,false,true,0.0-2.0-0.0-0.5-3.5,0,0,0,68,false,stim,false,-1,667,1,0,0,47540,task1,101243,false,false,100,image-keyboard-response,6
true,1,0,0,0,true,q,false,true,0.0-2.0-0.0-0.6-3.6,0,0,0,81,false,stim,false,-1,974,1,0,2,47540,task1,103773,false,false,103,image-keyboard-response,7
true,1,2,0,2,true,d,false,true,0.0-2.0-0.0-0.7-3.7,0,0,0,68,false,stim,false,-1,786,1,0,1,47540,task1,106083,false,false,106,image-keyboard-response,8
true,1,0,0,0,true,q,false,true,0.0-2.0-0.0-0.8-3.8,0,0,0,81,false,stim,false,-1,730,1,0,2,47540,task1,108347,false,false,109,image-keyboard-response,9
true,1,2,0,2,true,d,false,true,0.0-2.0-0.1-0.9-3.9,0,0,0,68,false,stim,false,-1,540,1,0,1,47540,task1,110419,false,false,112,image-keyboard-response,10
true,1,0,0,2,false,d,true,false,0.0-2.0-0.1-0.10-3.10,0,0,0,81,false,stim,false,-1,640,1,0,0,47540,task1,112586,false,false,115,image-keyboard-response,11
true,1,0,0,0,true,q,false,true,0.0-2.0-0.1-0.11-3.11,0,0,0,81,false,stim,false,-1,972,1,0,2,47540,task1,115083,false,false,118,image-keyboard-response,12
true,1,2,0,2,true,d,false,true,0.0-2.0-0.1-0.12-3.12,0,0,0,68,false,stim,false,-1,668,1,0,1,47540,task1,117275,false,false,121,image-keyboard-response,13
true,1,2,0,2,true,d,false,true,0.0-2.0-0.1-0.13-3.13,0,0,0,68,false,stim,false,-1,661,1,0,1,47540,task1,119458,false,false,124,image-keyboard-response,14
true,1,0,0,0,true,q,false,true,0.0-2.0-0.1-0.14-3.14,0,0,0,81,false,stim,false,-1,800,1,0,2,47540,task1,121772,false,false,127,image-keyboard-response,15
true,1,2,0,2,true,d,false,true,0.0-2.0-0.1-0.15-3.15,0,0,0,68,false,stim,false,-1,1255,1,0,0,47540,task1,124557,false,false,130,image-keyboard-response,16
true,1,2,0,2,true,d,false,true,0.0-2.0-0.1-0.16-3.16,0,0,0,68,false,stim,false,-1,512,1,0,0,47540,task1,126595,false,false,133,image-keyboard-response,17
true,1,0,0,0,true,q,false,false,0.0-2.0-0.1-0.17-3.17,0,0,0,81,false,stim,false,-1,626,1,0,2,47540,task1,128733,false,true,136,image-keyboard-response,18
true,1,2,0,2,true,d,false,true,0.0-2.0-0.2-0.18-3.18,0,0,0,68,false,stim,false,-1,662,1,0,0,47540,task1,130923,false,false,139,image-keyboard-response,19
true,1,0,0,0,true,q,false,true,0.0-2.0-0.2-0.19-3.19,0,0,0,81,false,stim,false,-1,698,1,0,2,47540,task1,133139,false,false,142,image-keyboard-response,20
true,1,2,0,2,true,d,false,true,0.0-2.0-0.2-0.20-3.20,0,0,0,68,false,stim,false,-1,694,1,0,1,47540,task1,135364,false,false,145,image-keyboard-response,21
true,1,0,0,0,true,q,false,false,0.0-2.0-0.2-0.21-3.21,0,0,0,81,false,stim,false,-1,783,1,0,2,47540,task1,137655,false,true,148,image-keyboard-response,22
true,1,2,0,2,true,d,false,true,0.0-2.0-0.2-0.22-3.22,0,0,0,68,false,stim,false,-1,610,1,0,0,47540,task1,139788,false,false,151,image-keyboard-response,23
true,1,0,0,0,true,q,false,true,0.0-2.0-0.2-0.23-3.23,0,0,0,81,false,stim,false,-1,477,1,0,2,47540,task1,141779,false,false,154,image-keyboard-response,24
true,1,2,0,2,true,d,false,true,0.0-2.0-0.2-0.24-3.24,0,0,0,68,false,stim,false,-1,709,1,0,0,47540,task1,144011,false,false,157,image-keyboard-response,25
true,1,2,0,2,true,d,false,true,0.0-2.0-0.2-0.25-3.25,0,0,0,68,false,stim,false,-1,597,1,0,1,47540,task1,146131,false,false,160,image-keyboard-response,26
true,2,2,1,1,false,z,false,false,0.0-2.0-0.2-0.26-3.26,0,0,0,68,true,stim,true,2,505,1,0,1,47540,task1,148146,false,false,163,image-keyboard-response,1
true,2,0,1,2,false,d,false,true,0.0-2.0-0.3-0.27-3.27,0,0,0,81,false,stim,true,0,649,1,0,2,47540,task1,150315,false,true,166,image-keyboard-response,2
true,2,2,1,0,false,q,false,false,0.0-2.0-0.3-0.28-3.28,0,0,0,68,false,stim,true,2,498,1,0,0,47540,task1,152338,false,false,169,image-keyboard-response,3
true,2,2,1,1,false,z,false,false,0.0-2.0-0.3-0.29-3.29,0,0,0,68,false,stim,true,2,624,1,0,1,47540,task1,154496,false,false,172,image-keyboard-response,4
true,2,1,1,1,true,z,false,true,0.0-2.0-0.3-0.30-3.30,0,0,0,90,false,stim,false,2,878,1,0,1,47540,task1,156907,false,false,175,image-keyboard-response,5
true,2,0,1,2,false,d,false,false,0.0-2.0-0.3-0.31-3.31,0,0,0,81,false,stim,true,0,843,1,0,2,47540,task1,159275,false,false,178,image-keyboard-response,6
true,2,2,1,0,false,q,false,false,0.0-2.0-0.3-0.32-3.32,0,0,0,68,false,stim,true,2,593,1,0,0,47540,task1,161404,false,false,181,image-keyboard-response,7
true,2,0,1,2,false,d,false,true,0.0-2.0-0.3-0.33-3.33,0,0,0,81,false,stim,true,0,859,1,0,2,47540,task1,163795,false,true,184,image-keyboard-response,8
true,2,1,1,1,true,z,false,true,0.0-2.0-0.3-0.34-3.34,0,0,0,90,false,stim,false,2,1528,1,0,1,47540,task1,166851,false,false,187,image-keyboard-response,9
true,2,1,1,0,false,q,true,false,0.0-2.0-0.3-0.35-3.35,0,0,0,90,false,stim,false,2,818,1,0,0,47540,task1,169195,false,false,190,image-keyboard-response,10
true,2,0,1,2,false,d,false,false,0.0-2.0-0.4-0.36-3.36,0,0,0,81,false,stim,true,0,696,1,0,2,47540,task1,171403,false,false,193,image-keyboard-response,11
true,2,0,1,2,false,d,false,false,0.0-2.0-0.4-0.37-3.37,0,0,0,81,false,stim,true,0,1297,1,0,2,47540,task1,174235,false,false,196,image-keyboard-response,12
true,2,1,1,1,true,z,false,true,0.0-2.0-0.4-0.38-3.38,0,0,0,90,false,stim,false,2,2449,1,0,1,47540,task1,178195,false,false,199,image-keyboard-response,13
true,2,0,1,0,true,q,false,true,0.0-2.0-0.4-0.39-3.39,0,0,0,81,false,stim,false,2,615,1,0,0,47540,task1,180333,false,false,202,image-keyboard-response,14
true,2,1,1,1,true,z,false,false,0.0-2.0-0.4-0.40-3.40,0,0,0,90,false,stim,false,2,1023,1,0,1,47540,task1,182884,false,true,205,image-keyboard-response,15
true,2,1,1,1,true,z,false,true,0.0-2.0-0.4-0.41-3.41,0,0,0,90,false,stim,false,2,1049,1,0,1,47540,task1,185451,false,false,208,image-keyboard-response,16
true,2,0,1,0,true,q,false,true,0.0-2.0-0.4-0.42-3.42,0,0,0,81,false,stim,false,2,921,1,0,0,47540,task1,187899,false,false,211,image-keyboard-response,17
true,2,1,1,2,false,d,true,false,0.0-2.0-0.4-0.43-3.43,0,0,0,90,false,stim,false,0,879,1,0,2,47540,task1,190290,false,false,214,image-keyboard-response,18
true,2,0,1,0,true,q,false,true,0.0-2.0-0.4-0.44-3.44,0,0,0,81,false,stim,false,2,682,1,0,0,47540,task1,192499,false,false,217,image-keyboard-response,19
true,2,2,1,2,true,d,false,true,0.0-2.0-0.5-0.45-3.45,0,0,0,68,false,stim,false,0,900,1,0,2,47540,task1,194918,false,false,220,image-keyboard-response,20
true,2,1,1,1,true,z,false,false,0.0-2.0-0.5-0.46-3.46,0,0,0,90,false,stim,false,2,802,1,0,1,47540,task1,197234,false,true,223,image-keyboard-response,21
true,2,0,1,0,true,q,false,true,0.0-2.0-0.5-0.47-3.47,0,0,0,81,false,stim,false,2,601,1,0,0,47540,task1,199347,false,false,226,image-keyboard-response,22
true,2,0,1,0,true,q,false,true,0.0-2.0-0.5-0.48-3.48,0,0,0,81,false,stim,false,2,695,1,0,0,47540,task1,201547,false,false,229,image-keyboard-response,23
true,2,0,1,0,true,q,false,true,0.0-2.0-0.5-0.49-3.49,0,0,0,81,false,stim,false,2,650,1,0,0,47540,task1,203715,false,false,232,image-keyboard-response,24
true,2,1,1,1,true,z,false,true,0.0-2.0-0.5-0.50-3.50,0,0,0,90,false,stim,false,2,744,1,0,1,47540,task1,205979,false,false,235,image-keyboard-response,25
true,2,2,1,2,true,d,false,true,0.0-2.0-0.5-0.51-3.51,0,0,0,68,false,stim,false,0,443,1,0,2,47540,task1,207947,false,false,238,image-keyboard-response,26
true,2,1,1,1,true,z,false,true,0.0-2.0-0.5-0.52-3.52,0,0,0,90,false,stim,false,2,928,1,0,1,47540,task1,210395,false,false,241,image-keyboard-response,27
true,2,2,1,2,true,d,false,true,0.0-2.0-0.5-0.53-3.53,0,0,0,68,false,stim,false,0,688,1,0,2,47540,task1,212596,false,false,244,image-keyboard-response,28
true,2,0,1,0,true,q,false,true,0.0-2.0-0.6-0.54-3.54,0,0,0,81,false,stim,false,2,523,1,0,0,47540,task1,214651,false,false,247,image-keyboard-response,29
true,2,1,1,1,true,z,false,true,0.0-2.0-0.6-0.55-3.55,0,0,0,90,false,stim,false,2,432,1,0,1,47540,task1,216603,false,false,250,image-keyboard-response,30
true,2,2,1,2,true,d,false,true,0.0-2.0-0.6-0.56-3.56,0,0,0,68,false,stim,false,0,586,1,0,2,47540,task1,218708,false,false,253,image-keyboard-response,31
true,2,2,1,2,true,d,false,true,0.0-2.0-0.6-0.57-3.57,0,0,0,68,false,stim,false,0,560,1,0,2,47540,task1,220812,false,false,256,image-keyboard-response,32
true,2,1,1,1,true,z,false,true,0.0-2.0-0.6-0.58-3.58,0,0,0,90,false,stim,false,2,965,1,0,1,47540,task1,223306,false,false,259,image-keyboard-response,33
true,2,2,1,2,true,d,false,true,0.0-2.0-0.6-0.59-3.59,0,0,0,68,false,stim,false,0,772,1,0,2,47540,task1,225603,false,false,262,image-keyboard-response,34
true,2,0,1,0,true,q,false,false,0.0-2.0-0.6-0.60-3.60,0,0,0,81,false,stim,false,2,511,1,0,0,47540,task1,227627,false,true,265,image-keyboard-response,35
true,2,0,1,0,true,q,false,true,0.0-2.0-0.6-0.61-3.61,0,0,0,81,false,stim,false,2,541,1,0,0,47540,task1,229683,false,false,268,image-keyboard-response,36
true,2,1,1,1,true,z,false,true,0.0-2.0-0.6-0.62-3.62,0,0,0,90,false,stim,false,2,541,1,0,1,47540,task1,231740,false,false,271,image-keyboard-response,37
true,2,1,1,1,true,z,false,true,0.0-2.0-0.7-0.63-3.63,0,0,0,90,false,stim,false,2,463,1,0,1,47540,task1,233723,false,false,274,image-keyboard-response,38
true,2,2,1,2,true,d,false,true,0.0-2.0-0.7-0.64-3.64,0,0,0,68,false,stim,false,0,475,1,0,2,47540,task1,235716,false,false,277,image-keyboard-response,39
true,2,1,1,1,true,z,false,true,0.0-2.0-0.7-0.65-3.65,0,0,0,90,false,stim,false,2,690,1,0,1,47540,task1,237932,false,false,280,image-keyboard-response,40
true,2,2,1,2,true,d,false,true,0.0-2.0-0.7-0.66-3.66,0,0,0,68,false,stim,false,0,740,1,0,2,47540,task1,240211,false,false,283,image-keyboard-response,41
true,2,0,1,0,true,q,false,true,0.0-2.0-0.7-0.67-3.67,0,0,0,81,false,stim,false,2,583,1,0,0,47540,task1,242315,false,false,286,image-keyboard-response,42
true,2,0,1,0,true,q,false,true,0.0-2.0-0.7-0.68-3.68,0,0,0,81,false,stim,false,2,603,1,0,0,47540,task1,244435,false,false,289,image-keyboard-response,43
true,2,2,1,2,true,d,false,true,0.0-2.0-0.7-0.69-3.69,0,0,0,68,false,stim,false,0,816,1,0,2,47540,task1,246773,false,false,292,image-keyboard-response,44
true,2,1,1,1,true,z,false,true,0.0-2.0-0.7-0.70-3.70,0,0,0,90,false,stim,false,2,639,1,0,1,47540,task1,248932,false,false,295,image-keyboard-response,45
true,3,0,1,2,false,d,false,false,0.0-2.0-0.7-0.71-3.71,0,0,0,81,true,stim,true,0,563,1,0,0,47540,task1,251019,false,false,298,image-keyboard-response,1
true,3,0,1,2,false,d,false,true,0.0-2.0-0.8-0.72-3.72,0,0,0,81,false,stim,true,0,473,1,0,0,47540,task1,253019,false,true,301,image-keyboard-response,2
true,3,2,1,1,false,z,false,false,0.0-2.0-0.8-0.73-3.73,0,0,0,68,false,stim,true,2,811,1,0,2,47540,task1,255347,false,false,304,image-keyboard-response,3
true,3,1,1,0,false,q,false,false,0.0-2.0-0.8-0.74-3.74,0,0,0,90,false,stim,true,1,597,1,0,1,47540,task1,257459,false,false,307,image-keyboard-response,4
true,3,1,1,0,false,q,false,false,0.0-2.0-0.8-0.75-3.75,0,0,0,90,false,stim,true,1,706,1,0,1,47540,task1,259691,false,false,310,image-keyboard-response,5
true,3,0,1,2,false,d,false,false,0.0-2.0-0.8-0.76-3.76,0,0,0,81,false,stim,true,0,670,1,0,0,47540,task1,261899,false,false,313,image-keyboard-response,6
true,3,0,1,2,false,d,false,false,0.0-2.0-0.8-0.77-3.77,0,0,0,81,false,stim,true,0,657,1,0,0,47540,task1,264084,false,false,316,image-keyboard-response,7
true,3,2,1,1,false,z,false,false,0.0-2.0-0.8-0.78-3.78,0,0,0,68,false,stim,true,2,894,1,0,2,47540,task1,266492,false,false,319,image-keyboard-response,8
true,3,1,1,1,true,z,false,true,0.0-2.0-0.8-0.79-3.79,0,0,0,90,false,stim,false,2,807,1,0,2,47540,task1,268828,false,false,322,image-keyboard-response,9
true,3,0,1,0,true,q,false,true,0.0-2.0-0.8-0.80-3.80,0,0,0,81,false,stim,false,1,789,1,0,1,47540,task1,271131,false,false,325,image-keyboard-response,10
true,3,0,1,0,true,q,false,true,0.0-2.0-0.9-0.81-3.81,0,0,0,81,false,stim,false,1,764,1,0,1,47540,task1,273413,false,false,328,image-keyboard-response,11
true,3,1,1,1,true,z,false,true,0.0-2.0-0.9-0.82-3.82,0,0,0,90,false,stim,false,2,577,1,0,2,47540,task1,275526,false,false,331,image-keyboard-response,12
true,3,0,1,0,true,q,false,false,0.0-2.0-0.9-0.83-3.83,0,0,0,81,false,stim,false,1,655,1,0,1,47540,task1,277691,false,true,334,image-keyboard-response,13
true,3,1,1,1,true,z,false,true,0.0-2.0-0.9-0.84-3.84,0,0,0,90,false,stim,false,2,524,1,0,2,47540,task1,279731,false,false,337,image-keyboard-response,14
true,3,1,1,2,false,d,true,false,0.0-2.0-0.9-0.85-3.85,0,0,0,90,false,stim,false,0,668,1,0,0,47540,task1,281916,false,false,340,image-keyboard-response,15
true,3,2,1,2,true,d,false,true,0.0-2.0-0.9-0.86-3.86,0,0,0,68,false,stim,false,0,522,1,0,0,47540,task1,283963,false,false,343,image-keyboard-response,16
true,3,1,1,1,true,z,false,false,0.0-2.0-0.9-0.87-3.87,0,0,0,90,false,stim,false,2,492,1,0,2,47540,task1,285978,false,true,346,image-keyboard-response,17
true,3,2,1,2,true,d,false,true,0.0-2.0-0.9-0.88-3.88,0,0,0,68,false,stim,false,0,766,1,0,0,47540,task1,288268,false,false,349,image-keyboard-response,18
true,3,0,1,0,true,q,false,false,0.0-2.0-0.9-0.89-3.89,0,0,0,81,false,stim,false,1,520,1,0,1,47540,task1,290317,false,true,352,image-keyboard-response,19
true,3,1,1,0,false,q,false,false,0.0-2.0-0.10-0.90-3.90,0,0,0,90,false,stim,true,1,919,1,0,1,47540,task1,292755,false,false,355,image-keyboard-response,20
true,3,2,1,2,true,d,false,true,0.0-2.0-0.10-0.91-3.91,0,0,0,68,false,stim,false,0,789,1,0,0,47540,task1,295066,false,false,358,image-keyboard-response,21
true,3,2,1,2,true,d,false,true,0.0-2.0-0.10-0.92-3.92,0,0,0,68,false,stim,false,0,1345,1,0,0,47540,task1,297946,false,false,361,image-keyboard-response,22
true,3,2,1,2,true,d,false,true,0.0-2.0-0.10-0.93-3.93,0,0,0,68,false,stim,false,0,692,1,0,0,47540,task1,300164,false,false,364,image-keyboard-response,23
true,3,2,1,0,false,q,true,false,0.0-2.0-0.10-0.94-3.94,0,0,0,68,false,stim,false,1,820,1,0,1,47540,task1,302508,false,false,367,image-keyboard-response,24
true,3,1,1,1,true,z,false,true,0.0-2.0-0.10-0.95-3.95,0,0,0,90,false,stim,false,2,940,1,0,2,47540,task1,304963,false,false,370,image-keyboard-response,25
true,3,1,1,1,true,z,false,true,0.0-2.0-0.10-0.96-3.96,0,0,0,90,false,stim,false,2,663,1,0,2,47540,task1,307148,false,false,373,image-keyboard-response,26
true,3,1,1,0,false,q,false,false,0.0-2.0-0.10-0.97-3.97,0,0,0,90,false,stim,true,1,1140,1,0,1,47540,task1,309811,false,false,376,image-keyboard-response,27
true,3,1,1,1,true,z,false,true,0.0-2.0-0.10-0.98-3.98,0,0,0,90,false,stim,false,2,944,1,0,2,47540,task1,312282,false,false,379,image-keyboard-response,28
true,3,1,1,1,true,z,false,true,0.0-2.0-0.11-0.99-3.99,0,0,0,90,false,stim,false,2,464,1,0,2,47540,task1,314275,false,false,382,image-keyboard-response,29
true,3,2,1,0,false,q,true,false,0.0-2.0-0.11-0.100-3.100,0,0,0,68,false,stim,false,1,878,1,0,1,47540,task1,316675,false,false,385,image-keyboard-response,30
true,3,1,1,1,true,z,false,true,0.0-2.0-0.11-0.101-3.101,0,0,0,90,false,stim,false,2,712,1,0,2,47540,task1,318899,false,false,388,image-keyboard-response,31
true,3,1,1,1,true,z,false,true,0.0-2.0-0.11-0.102-3.102,0,0,0,90,false,stim,false,2,555,1,0,2,47540,task1,320973,false,false,391,image-keyboard-response,32
true,3,0,1,0,true,q,false,true,0.0-2.0-0.11-0.103-3.103,0,0,0,81,false,stim,false,1,651,1,0,1,47540,task1,323162,false,false,394,image-keyboard-response,33
true,3,2,1,2,true,d,false,true,0.0-2.0-0.11-0.104-3.104,0,0,0,68,false,stim,false,0,591,1,0,0,47540,task1,325267,false,false,397,image-keyboard-response,34
true,3,2,1,2,true,d,false,true,0.0-2.0-0.11-0.105-3.105,0,0,0,68,false,stim,false,0,766,1,0,0,47540,task1,327546,false,false,400,image-keyboard-response,35
true,3,2,1,2,true,d,false,true,0.0-2.0-0.11-0.106-3.106,0,0,0,68,false,stim,false,0,532,1,0,0,47540,task1,329587,false,false,403,image-keyboard-response,36
true,3,0,1,0,true,q,false,true,0.0-2.0-0.11-0.107-3.107,0,0,0,81,false,stim,false,1,585,1,0,1,47540,task1,331692,false,false,406,image-keyboard-response,37
true,3,0,1,0,true,q,false,true,0.0-2.0-0.12-0.108-3.108,0,0,0,81,false,stim,false,1,556,1,0,1,47540,task1,333763,false,false,409,image-keyboard-response,38
true,3,2,1,2,true,d,false,true,0.0-2.0-0.12-0.109-3.109,0,0,0,68,false,stim,false,0,967,1,0,0,47540,task1,336258,false,false,412,image-keyboard-response,39
true,4,1,1,2,false,d,false,false,0.0-2.0-0.12-0.110-3.110,0,0,0,90,true,stim,true,1,706,1,0,2,47540,task1,338507,false,false,415,image-keyboard-response,1
true,4,0,1,2,false,d,false,false,0.0-2.0-0.12-0.111-3.111,0,0,0,81,false,stim,true,0,605,1,0,1,47540,task1,340626,false,false,418,image-keyboard-response,2
true,4,0,1,2,false,d,false,false,0.0-2.0-0.12-0.112-3.112,0,0,0,81,false,stim,true,0,619,1,0,1,47540,task1,342779,false,false,421,image-keyboard-response,3
true,4,2,1,0,false,q,false,false,0.0-2.0-0.12-0.113-3.113,0,0,0,68,false,stim,true,2,716,1,0,0,47540,task1,345027,false,false,424,image-keyboard-response,4
true,4,1,1,2,false,d,false,false,0.0-2.0-0.12-0.114-3.114,0,0,0,90,false,stim,true,1,755,1,0,2,47540,task1,347307,false,false,427,image-keyboard-response,5
true,4,0,1,2,false,d,true,false,0.0-2.0-0.12-0.115-3.115,0,0,0,81,false,stim,false,1,630,1,0,2,47540,task1,349484,false,false,430,image-keyboard-response,6
true,4,1,1,0,false,q,true,false,0.0-2.0-0.12-0.116-3.116,0,0,0,90,false,stim,false,2,1081,1,0,0,47540,task1,352084,false,false,433,image-keyboard-response,7
true,4,1,1,2,false,d,true,false,0.0-2.0-0.13-0.117-3.117,0,0,0,90,false,stim,false,0,1380,1,0,1,47540,task1,354978,false,false,436,image-keyboard-response,8
true,4,2,1,2,true,d,false,true,0.0-2.0-0.13-0.118-3.118,0,0,0,68,false,stim,false,1,983,1,0,2,47540,task1,357474,false,false,439,image-keyboard-response,9
true,4,2,1,2,true,d,false,true,0.0-2.0-0.13-0.119-3.119,0,0,0,68,false,stim,false,1,597,1,0,2,47540,task1,359589,false,false,442,image-keyboard-response,10
true,4,1,1,2,false,d,true,false,0.0-2.0-0.13-0.120-3.120,0,0,0,90,false,stim,false,0,913,1,0,1,47540,task1,362019,false,false,445,image-keyboard-response,11
true,4,2,1,2,true,d,false,true,0.0-2.0-0.13-0.121-3.121,0,0,0,68,false,stim,false,1,786,1,0,2,47540,task1,364323,false,false,448,image-keyboard-response,12
true,4,0,1,0,true,q,false,true,0.0-2.0-0.13-0.122-3.122,0,0,0,81,false,stim,false,2,871,1,0,0,47540,task1,366708,false,false,451,image-keyboard-response,13
true,4,0,1,0,true,q,false,true,0.0-2.0-0.13-0.123-3.123,0,0,0,81,false,stim,false,2,486,1,0,0,47540,task1,368709,false,false,454,image-keyboard-response,14
true,4,0,1,0,true,q,false,true,0.0-2.0-0.13-0.124-3.124,0,0,0,81,false,stim,false,2,635,1,0,0,47540,task1,370875,false,false,457,image-keyboard-response,15
true,4,2,1,2,true,d,false,true,0.0-2.0-0.13-0.125-3.125,0,0,0,68,false,stim,false,0,536,1,0,1,47540,task1,372923,false,false,460,image-keyboard-response,16
true,4,2,1,2,true,d,false,true,0.0-2.0-0.14-0.126-3.126,0,0,0,68,false,stim,false,1,625,1,0,2,47540,task1,375076,false,false,463,image-keyboard-response,17
true,4,2,1,2,true,d,false,true,0.0-2.0-0.14-0.127-3.127,0,0,0,68,false,stim,false,1,541,1,0,2,47540,task1,377147,false,false,466,image-keyboard-response,18
true,4,0,1,0,true,q,false,true,0.0-2.0-0.14-0.128-3.128,0,0,0,81,false,stim,false,2,680,1,0,0,47540,task1,379347,false,false,469,image-keyboard-response,19
true,4,2,1,2,true,d,false,true,0.0-2.0-0.14-0.129-3.129,0,0,0,68,false,stim,false,0,496,1,0,1,47540,task1,381362,false,false,472,image-keyboard-response,20
true,4,2,1,2,true,d,false,true,0.0-2.0-0.14-0.130-3.130,0,0,0,68,false,stim,false,0,503,1,0,1,47540,task1,383390,false,false,475,image-keyboard-response,21
true,4,0,1,0,true,q,false,true,0.0-2.0-0.14-0.131-3.131,0,0,0,81,false,stim,false,2,554,1,0,0,47540,task1,385477,false,false,478,image-keyboard-response,22
true,4,2,1,2,true,d,false,false,0.0-2.0-0.14-0.132-3.132,0,0,0,68,false,stim,false,1,451,1,0,2,47540,task1,387468,false,true,481,image-keyboard-response,23
true,4,2,1,2,true,d,false,true,0.0-2.0-0.14-0.133-3.133,0,0,0,68,false,stim,false,0,512,1,0,1,47540,task1,389494,false,false,484,image-keyboard-response,24
true,4,0,1,0,true,q,false,true,0.0-2.0-0.14-0.134-3.134,0,0,0,81,false,stim,false,2,539,1,0,0,47540,task1,391571,false,false,487,image-keyboard-response,25
true,4,0,1,0,true,q,false,true,0.0-2.0-0.15-0.135-3.135,0,0,0,81,false,stim,false,2,790,1,0,0,47540,task1,393892,false,false,490,image-keyboard-response,26
true,4,2,1,2,true,d,false,true,0.0-2.0-0.15-0.136-3.136,0,0,0,68,false,stim,false,0,463,1,0,1,47540,task1,395891,false,false,493,image-keyboard-response,27
true,4,2,1,2,true,d,false,true,0.0-2.0-0.15-0.137-3.137,0,0,0,68,false,stim,false,1,480,1,0,2,47540,task1,397907,false,false,496,image-keyboard-response,28
true,4,2,1,2,true,d,false,true,0.0-2.0-0.15-0.138-3.138,0,0,0,68,false,stim,false,0,588,1,0,1,47540,task1,400011,false,false,499,image-keyboard-response,29
true,4,0,1,0,true,q,false,true,0.0-2.0-0.15-0.139-3.139,0,0,0,81,false,stim,false,2,453,1,0,0,47540,task1,401995,false,false,502,image-keyboard-response,30
true,4,2,1,2,true,d,false,true,0.0-2.0-0.15-0.140-3.140,0,0,0,68,false,stim,false,0,599,1,0,1,47540,task1,404114,false,false,505,image-keyboard-response,31
true,4,2,1,2,true,d,false,true,0.0-2.0-0.15-0.141-3.141,0,0,0,68,false,stim,false,1,547,1,0,2,47540,task1,406187,false,false,508,image-keyboard-response,32
true,4,0,1,0,true,q,false,true,0.0-2.0-0.15-0.142-3.142,0,0,0,81,false,stim,false,2,531,1,0,0,47540,task1,408243,false,false,511,image-keyboard-response,33
true,4,2,1,2,true,d,false,true,0.0-2.0-0.15-0.143-3.143,0,0,0,68,false,stim,false,1,695,1,0,2,47540,task1,410443,false,false,514,image-keyboard-response,34
true,4,2,1,2,true,d,false,true,0.0-2.0-0.16-0.144-3.144,0,0,0,68,false,stim,false,1,526,1,0,2,47540,task1,412493,false,false,517,image-keyboard-response,35
true,4,2,1,2,true,d,false,true,0.0-2.0-0.16-0.145-3.145,0,0,0,68,false,stim,false,1,399,1,0,2,47540,task1,414421,false,false,520,image-keyboard-response,36
true,4,2,1,2,true,d,false,true,0.0-2.0-0.16-0.146-3.146,0,0,0,68,false,stim,false,1,407,1,0,2,47540,task1,416350,false,false,523,image-keyboard-response,37
true,4,0,1,0,true,q,false,true,0.0-2.0-0.16-0.147-3.147,0,0,0,81,false,stim,false,2,415,1,0,0,47540,task1,418277,false,false,526,image-keyboard-response,38
true,4,2,1,2,true,d,false,true,0.0-2.0-0.16-0.148-3.148,0,0,0,68,false,stim,false,0,640,1,0,1,47540,task1,420451,false,false,529,image-keyboard-response,39
true,4,0,1,0,true,q,false,true,0.0-2.0-0.16-0.149-3.149,0,0,0,81,false,stim,false,2,625,1,0,0,47540,task1,422611,false,false,532,image-keyboard-response,40
true,4,2,1,2,true,d,false,true,0.0-2.0-0.16-0.150-3.150,0,0,0,68,false,stim,false,0,487,1,0,1,47540,task1,424619,false,false,535,image-keyboard-response,41
true,5,0,1,2,false,d,false,false,0.0-2.0-0.16-0.151-3.151,0,0,0,81,true,stim,true,0,465,1,0,0,47540,task1,426611,false,false,538,image-keyboard-response,1
true,5,2,1,1,false,z,false,false,0.0-2.0-0.16-0.152-3.152,0,0,0,68,false,stim,true,2,559,1,0,1,47540,task1,428714,false,false,541,image-keyboard-response,2
true,5,2,1,0,false,q,false,true,0.0-2.0-0.17-0.153-3.153,0,0,0,68,false,stim,true,2,590,1,0,2,47540,task1,430843,false,true,544,image-keyboard-response,3
true,5,2,1,1,false,z,false,false,0.0-2.0-0.17-0.154-3.154,0,0,0,68,false,stim,true,2,682,1,0,1,47540,task1,433053,false,false,547,image-keyboard-response,4
true,5,0,1,2,false,d,false,false,0.0-2.0-0.17-0.155-3.155,0,0,0,81,false,stim,true,0,680,1,0,0,47540,task1,435252,false,false,550,image-keyboard-response,5
true,5,2,1,0,false,q,false,false,0.0-2.0-0.17-0.156-3.156,0,0,0,68,false,stim,true,2,717,1,0,2,47540,task1,437499,false,false,553,image-keyboard-response,6
true,5,1,1,1,true,z,false,true,0.0-2.0-0.17-0.157-3.157,0,0,0,90,false,stim,false,2,565,1,0,1,47540,task1,439578,false,false,556,image-keyboard-response,7
true,5,1,1,1,true,z,false,false,0.0-2.0-0.17-0.158-3.158,0,0,0,90,false,stim,false,2,617,1,0,1,47540,task1,441707,false,true,559,image-keyboard-response,8
true,5,1,1,2,false,d,true,false,0.0-2.0-0.17-0.159-3.159,0,0,0,90,false,stim,false,0,619,1,0,0,47540,task1,443851,false,false,562,image-keyboard-response,9
true,5,2,1,0,false,q,false,false,0.0-2.0-0.17-0.160-3.160,0,0,0,68,false,stim,true,2,920,1,0,2,47540,task1,446292,false,false,565,image-keyboard-response,10
true,5,2,1,2,true,d,false,true,0.0-2.0-0.17-0.161-3.161,0,0,0,68,false,stim,false,0,665,1,0,0,47540,task1,448492,false,false,568,image-keyboard-response,11
true,5,0,1,0,true,q,false,true,0.0-2.0-0.18-0.162-3.162,0,0,0,81,false,stim,false,2,1249,1,0,2,47540,task1,451300,false,false,571,image-keyboard-response,12
true,5,1,1,1,true,z,false,true,0.0-2.0-0.18-0.163-3.163,0,0,0,90,false,stim,false,2,911,1,0,1,47540,task1,453723,false,false,574,image-keyboard-response,13
true,5,2,1,2,true,d,false,true,0.0-2.0-0.18-0.164-3.164,0,0,0,68,false,stim,false,0,467,1,0,0,47540,task1,455714,false,false,577,image-keyboard-response,14
true,5,2,1,2,true,d,false,true,0.0-2.0-0.18-0.165-3.165,0,0,0,68,false,stim,false,0,674,1,0,0,47540,task1,457900,false,false,580,image-keyboard-response,15
true,5,0,1,1,false,z,true,false,0.0-2.0-0.18-0.166-3.166,0,0,0,81,false,stim,false,2,1076,1,0,1,47540,task1,460507,false,false,583,image-keyboard-response,16
true,5,2,1,2,true,d,false,true,0.0-2.0-0.18-0.167-3.167,0,0,0,68,false,stim,false,0,902,1,0,0,47540,task1,462923,false,false,586,image-keyboard-response,17
true,5,1,1,0,false,q,true,false,0.0-2.0-0.18-0.168-3.168,0,0,0,90,false,stim,false,2,930,1,0,2,47540,task1,465371,false,false,589,image-keyboard-response,18
true,5,0,1,0,true,q,false,true,0.0-2.0-0.18-0.169-3.169,0,0,0,81,false,stim,false,2,955,1,0,2,47540,task1,467853,false,false,592,image-keyboard-response,19
true,5,1,1,1,true,z,false,true,0.0-2.0-0.18-0.170-3.170,0,0,0,90,false,stim,false,2,462,1,0,1,47540,task1,469844,false,false,595,image-keyboard-response,20
true,5,2,1,2,true,d,false,true,0.0-2.0-0.19-0.171-3.171,0,0,0,68,false,stim,false,0,539,1,0,0,47540,task1,471916,false,false,598,image-keyboard-response,21
true,5,0,1,0,true,q,false,true,0.0-2.0-0.19-0.172-3.172,0,0,0,81,false,stim,false,2,673,1,0,2,47540,task1,474108,false,false,601,image-keyboard-response,22
true,5,0,1,0,true,q,false,false,0.0-2.0-0.19-0.173-3.173,0,0,0,81,false,stim,false,2,508,1,0,2,47540,task1,476140,false,true,604,image-keyboard-response,23
true,5,1,1,1,true,z,false,true,0.0-2.0-0.19-0.174-3.174,0,0,0,90,false,stim,false,2,627,1,0,1,47540,task1,478283,false,false,607,image-keyboard-response,24
true,5,1,1,1,true,z,false,true,0.0-2.0-0.19-0.175-3.175,0,0,0,90,false,stim,false,2,821,1,0,1,47540,task1,480645,false,false,610,image-keyboard-response,25
true,5,0,1,0,true,q,false,true,0.0-2.0-0.19-0.176-3.176,0,0,0,81,false,stim,false,2,1488,1,0,2,47540,task1,483659,false,false,613,image-keyboard-response,26
true,5,1,1,1,true,z,false,false,0.0-2.0-0.19-0.177-3.177,0,0,0,90,false,stim,false,2,555,1,0,1,47540,task1,485734,false,true,616,image-keyboard-response,27
true,5,2,1,2,true,d,false,true,0.0-2.0-0.19-0.178-3.178,0,0,0,68,false,stim,false,0,471,1,0,0,47540,task1,487742,false,false,619,image-keyboard-response,28
true,5,2,1,2,true,d,false,true,0.0-2.0-0.19-0.179-3.179,0,0,0,68,false,stim,false,0,867,1,0,0,47540,task1,490124,false,false,622,image-keyboard-response,29
true,5,1,1,1,true,z,false,true,0.0-2.0-0.20-0.180-3.180,0,0,0,90,false,stim,false,2,923,1,0,1,47540,task1,492574,false,false,625,image-keyboard-response,30
true,5,0,1,0,true,q,false,true,0.0-2.0-0.20-0.181-3.181,0,0,0,81,false,stim,false,2,630,1,0,2,47540,task1,494749,false,false,628,image-keyboard-response,31
true,5,2,1,2,true,d,false,false,0.0-2.0-0.20-0.182-3.182,0,0,0,68,false,stim,false,0,559,1,0,0,47540,task1,496819,false,true,631,image-keyboard-response,32
true,5,2,1,2,true,d,false,true,0.0-2.0-0.20-0.183-3.183,0,0,0,68,false,stim,false,0,440,1,0,0,47540,task1,498779,false,false,634,image-keyboard-response,33
true,5,2,1,2,true,d,false,true,0.0-2.0-0.20-0.184-3.184,0,0,0,68,false,stim,false,0,425,1,0,0,47540,task1,500726,false,false,637,image-keyboard-response,34
true,5,1,1,1,true,z,false,false,0.0-2.0-0.20-0.185-3.185,0,0,0,90,false,stim,false,2,812,1,0,1,47540,task1,503051,false,true,640,image-keyboard-response,35
true,5,1,1,1,true,z,false,true,0.0-2.0-0.20-0.186-3.186,0,0,0,90,false,stim,false,2,486,1,0,1,47540,task1,505059,false,false,643,image-keyboard-response,36
true,5,0,1,0,true,q,false,true,0.0-2.0-0.20-0.187-3.187,0,0,0,81,false,stim,false,2,713,1,0,2,47540,task1,507298,false,false,646,image-keyboard-response,37
true,5,0,1,0,true,q,false,true,0.0-2.0-0.20-0.188-3.188,0,0,0,81,false,stim,false,2,508,1,0,2,47540,task1,509331,false,false,649,image-keyboard-response,38
true,5,2,1,2,true,d,false,false,0.0-2.0-0.21-0.189-3.189,0,0,0,68,false,stim,false,0,588,1,0,0,47540,task1,511451,false,true,652,image-keyboard-response,39
true,6,1,2,2,false,d,false,false,0.0-2.0-0.21-0.190-3.190,0,0,0,90,true,stim,true,1,724,1,0,1,47540,task1,513697,false,false,655,image-keyboard-response,1
true,6,0,2,2,false,d,false,false,0.0-2.0-0.21-0.191-3.191,0,0,0,81,false,stim,true,0,664,1,0,2,47540,task1,515875,false,false,658,image-keyboard-response,2
true,6,1,2,2,false,d,false,false,0.0-2.0-0.21-0.192-3.192,0,0,0,90,false,stim,true,1,679,1,0,1,47540,task1,518075,false,false,661,image-keyboard-response,3
true,6,2,2,0,false,q,false,true,0.0-2.0-0.21-0.193-3.193,0,0,0,68,false,stim,true,2,765,1,0,0,47540,task1,520364,false,true,664,image-keyboard-response,4
true,6,2,2,0,false,q,false,false,0.0-2.0-0.21-0.194-3.194,0,0,0,68,false,stim,true,2,591,1,0,0,47540,task1,522478,false,false,667,image-keyboard-response,5
true,6,0,2,2,false,d,false,false,0.0-2.0-0.21-0.195-3.195,0,0,0,81,false,stim,true,0,800,1,0,2,47540,task1,524819,false,false,670,image-keyboard-response,6
true,6,1,2,2,false,d,true,false,0.0-2.0-0.21-0.196-3.196,0,0,0,90,false,stim,false,0,637,1,0,2,47540,task1,526979,false,false,673,image-keyboard-response,7
true,6,0,2,2,false,d,true,false,0.0-2.0-0.21-0.197-3.197,0,0,0,81,false,stim,false,1,837,1,0,1,47540,task1,529339,false,false,676,image-keyboard-response,8
true,6,2,2,2,true,d,false,true,0.0-2.0-0.22-0.198-3.198,0,0,0,68,false,stim,false,0,671,1,0,2,47540,task1,531540,false,false,679,image-keyboard-response,9
true,6,2,2,2,true,d,false,true,0.0-2.0-0.22-0.199-3.199,0,0,0,68,false,stim,false,0,709,1,0,2,47540,task1,533771,false,false,682,image-keyboard-response,10
true,6,2,2,2,true,d,false,false,0.0-2.0-0.22-0.200-3.200,0,0,0,68,false,stim,false,1,401,1,0,1,47540,task1,535699,false,true,685,image-keyboard-response,11
true,6,2,2,0,false,q,false,false,0.0-2.0-0.22-0.201-3.201,0,0,0,68,false,stim,true,2,1114,1,0,0,47540,task1,538341,false,false,688,image-keyboard-response,12
true,6,0,2,0,true,q,false,false,0.0-2.0-0.22-0.202-3.202,0,0,0,81,false,stim,false,2,763,1,0,0,47540,task1,540620,false,true,691,image-keyboard-response,13
true,6,2,2,2,true,d,false,true,0.0-2.0-0.22-0.203-3.203,0,0,0,68,false,stim,false,0,693,1,0,2,47540,task1,542844,false,false,694,image-keyboard-response,14
true,6,1,2,0,false,q,true,false,0.0-2.0-0.22-0.204-3.204,0,0,0,90,false,stim,false,2,740,1,0,0,47540,task1,545115,false,false,697,image-keyboard-response,15
true,6,0,2,2,false,d,true,false,0.0-2.0-0.22-0.205-3.205,0,0,0,81,false,stim,false,1,1263,1,0,1,47540,task1,547900,false,false,700,image-keyboard-response,16
true,6,1,2,2,false,d,false,false,0.0-2.0-0.22-0.206-3.206,0,0,0,90,false,stim,true,1,614,1,0,1,47540,task1,550052,false,false,703,image-keyboard-response,17
true,6,0,2,0,true,q,false,true,0.0-2.0-0.23-0.207-3.207,0,0,0,81,false,stim,false,2,1285,1,0,0,47540,task1,552868,false,false,706,image-keyboard-response,18
true,6,0,2,0,true,q,false,true,0.0-2.0-0.23-0.208-3.208,0,0,0,81,false,stim,false,2,663,1,0,0,47540,task1,555051,false,false,709,image-keyboard-response,19
true,6,2,2,2,true,d,false,true,0.0-2.0-0.23-0.209-3.209,0,0,0,68,false,stim,false,1,870,1,0,1,47540,task1,557451,false,false,712,image-keyboard-response,20
true,6,2,2,2,true,d,false,true,0.0-2.0-0.23-0.210-3.210,0,0,0,68,false,stim,false,0,432,1,0,2,47540,task1,559404,false,false,715,image-keyboard-response,21
true,6,2,2,2,true,d,false,true,0.0-2.0-0.23-0.211-3.211,0,0,0,68,false,stim,false,1,409,1,0,1,47540,task1,561324,false,false,718,image-keyboard-response,22
true,6,2,2,2,true,d,false,true,0.0-2.0-0.23-0.212-3.212,0,0,0,68,false,stim,false,1,435,1,0,1,47540,task1,563283,false,false,721,image-keyboard-response,23
true,6,2,2,2,true,d,false,true,0.0-2.0-0.23-0.213-3.213,0,0,0,68,false,stim,false,0,673,1,0,2,47540,task1,565476,false,false,724,image-keyboard-response,24
true,6,0,2,0,true,q,false,true,0.0-2.0-0.23-0.214-3.214,0,0,0,81,false,stim,false,2,872,1,0,0,47540,task1,567859,false,false,727,image-keyboard-response,25
true,6,2,2,2,true,d,false,true,0.0-2.0-0.23-0.215-3.215,0,0,0,68,false,stim,false,0,524,1,0,2,47540,task1,569917,false,false,730,image-keyboard-response,26
true,6,2,2,2,true,d,false,true,0.0-2.0-0.24-0.216-3.216,0,0,0,68,false,stim,false,1,509,1,0,1,47540,task1,571941,false,false,733,image-keyboard-response,27
true,6,2,2,2,true,d,false,true,0.0-2.0-0.24-0.217-3.217,0,0,0,68,false,stim,false,0,437,1,0,2,47540,task1,573918,false,false,736,image-keyboard-response,28
true,6,2,2,2,true,d,false,false,0.0-2.0-0.24-0.218-3.218,0,0,0,68,false,stim,false,0,473,1,0,2,47540,task1,575933,false,true,739,image-keyboard-response,29
true,6,2,2,2,true,d,false,true,0.0-2.0-0.24-0.219-3.219,0,0,0,68,false,stim,false,1,433,1,0,1,47540,task1,577893,false,false,742,image-keyboard-response,30
true,6,2,2,2,true,d,false,true,0.0-2.0-0.24-0.220-3.220,0,0,0,68,false,stim,false,1,794,1,0,1,47540,task1,580227,false,false,745,image-keyboard-response,31
true,6,0,2,0,true,q,false,true,0.0-2.0-0.24-0.221-3.221,0,0,0,81,false,stim,false,2,536,1,0,0,47540,task1,582284,false,false,748,image-keyboard-response,32
true,6,0,2,0,true,q,false,true,0.0-2.0-0.24-0.222-3.222,0,0,0,81,false,stim,false,2,724,1,0,0,47540,task1,584532,false,false,751,image-keyboard-response,33
true,6,2,2,2,true,d,false,true,0.0-2.0-0.24-0.223-3.223,0,0,0,68,false,stim,false,0,405,1,0,2,47540,task1,586443,false,false,754,image-keyboard-response,34
true,6,0,2,0,true,q,false,true,0.0-2.0-0.24-0.224-3.224,0,0,0,81,false,stim,false,2,572,1,0,0,47540,task1,588539,false,false,757,image-keyboard-response,35
true,6,2,2,2,true,d,false,true,0.0-2.0-0.25-0.225-3.225,0,0,0,68,false,stim,false,1,455,1,0,1,47540,task1,590507,false,false,760,image-keyboard-response,36
true,6,2,2,2,true,d,false,true,0.0-2.0-0.25-0.226-3.226,0,0,0,68,false,stim,false,1,398,1,0,1,47540,task1,592435,false,false,763,image-keyboard-response,37
true,6,2,2,2,true,d,false,true,0.0-2.0-0.25-0.227-3.227,0,0,0,68,false,stim,false,1,399,1,0,1,47540,task1,594356,false,false,766,image-keyboard-response,38
true,6,2,2,2,true,d,false,true,0.0-2.0-0.25-0.228-3.228,0,0,0,68,false,stim,false,0,387,1,0,2,47540,task1,596251,false,false,769,image-keyboard-response,39
true,6,0,2,0,true,q,false,true,0.0-2.0-0.25-0.229-3.229,0,0,0,81,false,stim,false,2,663,1,0,0,47540,task1,598435,false,false,772,image-keyboard-response,40
true,6,0,2,0,true,q,false,false,0.0-2.0-0.25-0.230-3.230,0,0,0,81,false,stim,false,2,554,1,0,0,47540,task1,600508,false,true,775,image-keyboard-response,41
true,6,2,2,2,true,d,false,true,0.0-2.0-0.25-0.231-3.231,0,0,0,68,false,stim,false,0,481,1,0,2,47540,task1,602523,false,false,778,image-keyboard-response,42
true,6,2,2,2,true,d,false,true,0.0-2.0-0.25-0.232-3.232,0,0,0,68,false,stim,false,0,490,1,0,2,47540,task1,604547,false,false,781,image-keyboard-response,43
true,6,0,2,0,true,q,false,true,0.0-2.0-0.25-0.233-3.233,0,0,0,81,false,stim,false,2,627,1,0,0,47540,task1,606685,false,false,784,image-keyboard-response,44
true,7,0,2,2,false,d,false,false,0.0-2.0-0.26-0.234-3.234,0,0,0,81,true,stim,true,0,605,1,0,0,47540,task1,608807,false,false,787,image-keyboard-response,1
true,7,2,2,0,false,q,false,false,0.0-2.0-0.26-0.235-3.235,0,0,0,68,false,stim,true,2,513,1,0,2,47540,task1,610851,false,false,790,image-keyboard-response,2
true,7,2,2,1,false,z,false,false,0.0-2.0-0.26-0.236-3.236,0,0,0,68,false,stim,true,2,689,1,0,1,47540,task1,613068,false,false,793,image-keyboard-response,3
true,7,2,2,1,false,z,false,false,0.0-2.0-0.26-0.237-3.237,0,0,0,68,false,stim,true,2,637,1,0,1,47540,task1,615219,false,false,796,image-keyboard-response,4
true,7,1,2,1,true,z,false,true,0.0-2.0-0.26-0.238-3.238,0,0,0,90,false,stim,false,2,510,1,0,1,47540,task1,617243,false,false,799,image-keyboard-response,5
true,7,2,2,0,false,q,false,false,0.0-2.0-0.26-0.239-3.239,0,0,0,68,false,stim,true,2,798,1,0,2,47540,task1,619556,false,false,802,image-keyboard-response,6
true,7,1,2,0,false,q,true,false,0.0-2.0-0.26-0.240-3.240,0,0,0,90,false,stim,false,2,780,1,0,2,47540,task1,621867,false,false,805,image-keyboard-response,7
true,7,0,2,2,false,d,false,false,0.0-2.0-0.26-0.241-3.241,0,0,0,81,false,stim,true,0,923,1,0,0,47540,task1,624347,false,false,808,image-keyboard-response,8
true,7,1,2,2,false,d,true,false,0.0-2.0-0.26-0.242-3.242,0,0,0,90,false,stim,false,0,682,1,0,0,47540,task1,626549,false,false,811,image-keyboard-response,9
true,7,1,2,0,false,q,true,false,0.0-2.0-0.27-0.243-3.243,0,0,0,90,false,stim,false,2,700,1,0,2,47540,task1,628771,false,false,814,image-keyboard-response,10
true,7,1,2,1,true,z,false,true,0.0-2.0-0.27-0.244-3.244,0,0,0,90,false,stim,false,2,769,1,0,1,47540,task1,631059,false,false,817,image-keyboard-response,11
true,7,2,2,2,true,d,false,true,0.0-2.0-0.27-0.245-3.245,0,0,0,68,false,stim,false,0,658,1,0,0,47540,task1,633235,false,false,820,image-keyboard-response,12
true,7,0,2,0,true,q,false,false,0.0-2.0-0.27-0.246-3.246,0,0,0,81,false,stim,false,2,717,1,0,2,47540,task1,635460,false,true,823,image-keyboard-response,13
true,7,1,2,1,true,z,false,true,0.0-2.0-0.27-0.247-3.247,0,0,0,90,false,stim,false,2,804,1,0,1,47540,task1,637787,false,false,826,image-keyboard-response,14
true,7,2,2,2,true,d,false,true,0.0-2.0-0.27-0.248-3.248,0,0,0,68,false,stim,false,0,793,1,0,0,47540,task1,640116,false,false,829,image-keyboard-response,15
true,7,1,2,0,false,q,true,false,0.0-2.0-0.27-0.249-3.249,0,0,0,90,false,stim,false,2,545,1,0,2,47540,task1,642179,false,false,832,image-keyboard-response,16
true,7,2,2,2,true,d,false,true,0.0-2.0-0.27-0.250-3.250,0,0,0,68,false,stim,false,0,963,1,0,0,47540,task1,644661,false,false,835,image-keyboard-response,17
true,7,1,2,1,true,z,false,true,0.0-2.0-0.27-0.251-3.251,0,0,0,90,false,stim,false,2,495,1,0,1,47540,task1,646677,false,false,838,image-keyboard-response,18
true,7,1,2,1,true,z,false,true,0.0-2.0-0.28-0.252-3.252,0,0,0,90,false,stim,false,2,938,1,0,1,47540,task1,649139,false,false,841,image-keyboard-response,19
true,7,1,2,1,true,z,false,true,0.0-2.0-0.28-0.253-3.253,0,0,0,90,false,stim,false,2,659,1,0,1,47540,task1,651339,false,false,844,image-keyboard-response,20
true,7,1,2,1,true,z,false,true,0.0-2.0-0.28-0.254-3.254,0,0,0,90,false,stim,false,2,431,1,0,1,47540,task1,653283,false,false,847,image-keyboard-response,21
true,7,2,2,2,true,d,false,true,0.0-2.0-0.28-0.255-3.255,0,0,0,68,false,stim,false,0,495,1,0,0,47540,task1,655307,false,false,850,image-keyboard-response,22
true,7,2,2,0,false,q,false,false,0.0-2.0-0.28-0.256-3.256,0,0,0,68,false,stim,true,2,1166,1,0,2,47540,task1,657987,false,false,853,image-keyboard-response,23
true,7,2,2,2,true,d,false,true,0.0-2.0-0.28-0.257-3.257,0,0,0,68,false,stim,false,0,757,1,0,0,47540,task1,660267,false,false,856,image-keyboard-response,24
true,7,0,2,0,true,q,false,true,0.0-2.0-0.28-0.258-3.258,0,0,0,81,false,stim,false,2,467,1,0,2,47540,task1,662252,false,false,859,image-keyboard-response,25
true,7,0,2,0,true,q,false,true,0.0-2.0-0.28-0.259-3.259,0,0,0,81,false,stim,false,2,484,1,0,2,47540,task1,664259,false,false,862,image-keyboard-response,26
true,7,2,2,2,true,d,false,true,0.0-2.0-0.28-0.260-3.260,0,0,0,68,false,stim,false,0,795,1,0,0,47540,task1,666571,false,false,865,image-keyboard-response,27
true,7,1,2,1,true,z,false,true,0.0-2.0-0.29-0.261-3.261,0,0,0,90,false,stim,false,2,743,1,0,1,47540,task1,668860,false,false,868,image-keyboard-response,28
true,7,1,2,1,true,z,false,true,0.0-2.0-0.29-0.262-3.262,0,0,0,90,false,stim,false,2,707,1,0,1,47540,task1,671099,false,false,871,image-keyboard-response,29
true,7,2,2,2,true,d,false,true,0.0-2.0-0.29-0.263-3.263,0,0,0,68,false,stim,false,0,520,1,0,0,47540,task1,673123,false,false,874,image-keyboard-response,30
true,7,2,2,2,true,d,false,true,0.0-2.0-0.29-0.264-3.264,0,0,0,68,false,stim,false,0,555,1,0,0,47540,task1,675204,false,false,877,image-keyboard-response,31
true,7,0,2,0,true,q,false,true,0.0-2.0-0.29-0.265-3.265,0,0,0,81,false,stim,false,2,573,1,0,2,47540,task1,677285,false,false,880,image-keyboard-response,32
true,7,1,2,1,true,z,false,true,0.0-2.0-0.29-0.266-3.266,0,0,0,90,false,stim,false,2,786,1,0,1,47540,task1,679596,false,false,883,image-keyboard-response,33
true,7,0,2,0,true,q,false,true,0.0-2.0-0.29-0.267-3.267,0,0,0,81,false,stim,false,2,671,1,0,2,47540,task1,681795,false,false,886,image-keyboard-response,34
true,7,2,2,2,true,d,false,true,0.0-2.0-0.29-0.268-3.268,0,0,0,68,false,stim,false,0,638,1,0,0,47540,task1,683971,false,false,889,image-keyboard-response,35
true,7,0,2,0,true,q,false,true,0.0-2.0-0.29-0.269-3.269,0,0,0,81,false,stim,false,2,678,1,0,2,47540,task1,686181,false,false,892,image-keyboard-response,36
true,7,2,2,2,true,d,false,false,0.0-2.0-0.30-0.270-3.270,0,0,0,68,false,stim,false,0,699,1,0,0,47540,task1,688412,false,true,895,image-keyboard-response,37
true,7,1,2,1,true,z,false,true,0.0-2.0-0.30-0.271-3.271,0,0,0,90,false,stim,false,2,758,1,0,1,47540,task1,690699,false,false,898,image-keyboard-response,38
true,7,0,2,0,true,q,false,true,0.0-2.0-0.30-0.272-3.272,0,0,0,81,false,stim,false,2,705,1,0,2,47540,task1,692940,false,false,901,image-keyboard-response,39
true,7,1,2,1,true,z,false,true,0.0-2.0-0.30-0.273-3.273,0,0,0,90,false,stim,false,2,658,1,0,1,47540,task1,695115,false,false,904,image-keyboard-response,40
true,7,1,2,1,true,z,false,true,0.0-2.0-0.30-0.274-3.274,0,0,0,90,false,stim,false,2,637,1,0,1,47540,task1,697275,false,false,907,image-keyboard-response,41
true,7,0,2,0,true,q,false,true,0.0-2.0-0.30-0.275-3.275,0,0,0,81,false,stim,false,2,627,1,0,2,47540,task1,699420,false,false,910,image-keyboard-response,42
true,8,2,2,0,false,q,false,false,0.0-2.0-0.30-0.276-3.276,0,0,0,68,true,stim,true,2,870,1,0,0,47540,task1,701820,false,false,913,image-keyboard-response,1
true,8,1,2,0,false,q,true,false,0.0-2.0-0.30-0.277-3.277,0,0,0,90,false,stim,false,2,808,1,0,0,47540,task1,704157,false,false,916,image-keyboard-response,2
true,8,0,2,2,false,d,false,false,0.0-2.0-0.30-0.278-3.278,0,0,0,81,false,stim,true,0,1095,1,0,2,47540,task1,706781,false,false,919,image-keyboard-response,3
true,8,0,2,2,false,d,false,false,0.0-2.0-0.31-0.279-3.279,0,0,0,81,false,stim,true,0,579,1,0,2,47540,task1,708901,false,false,922,image-keyboard-response,4
true,8,0,2,0,true,q,false,true,0.0-2.0-0.31-0.280-3.280,0,0,0,81,false,stim,false,2,845,1,0,0,47540,task1,711268,false,false,925,image-keyboard-response,5
true,8,1,2,2,false,d,true,false,0.0-2.0-0.31-0.281-3.281,0,0,0,90,false,stim,false,0,895,1,0,2,47540,task1,713683,false,false,928,image-keyboard-response,6
true,8,1,2,2,false,d,false,false,0.0-2.0-0.31-0.282-3.282,0,0,0,90,false,stim,true,1,545,1,0,1,47540,task1,715748,false,false,931,image-keyboard-response,7
true,8,0,2,0,true,q,false,true,0.0-2.0-0.31-0.283-3.283,0,0,0,81,false,stim,false,2,606,1,0,0,47540,task1,717885,false,false,934,image-keyboard-response,8
true,8,2,2,2,true,d,false,false,0.0-2.0-0.31-0.284-3.284,0,0,0,68,false,stim,false,1,652,1,0,1,47540,task1,720060,false,true,937,image-keyboard-response,9
true,8,2,2,2,true,d,false,true,0.0-2.0-0.31-0.285-3.285,0,0,0,68,false,stim,false,1,707,1,0,1,47540,task1,722284,false,false,940,image-keyboard-response,10
true,8,0,2,0,true,q,false,true,0.0-2.0-0.31-0.286-3.286,0,0,0,81,false,stim,false,2,868,1,0,0,47540,task1,724665,false,false,943,image-keyboard-response,11
true,8,2,2,2,true,d,false,true,0.0-2.0-0.31-0.287-3.287,0,0,0,68,false,stim,false,0,622,1,0,2,47540,task1,726804,false,false,946,image-keyboard-response,12
true,8,2,2,2,true,d,false,false,0.0-2.0-0.32-0.288-3.288,0,0,0,68,false,stim,false,0,430,1,0,2,47540,task1,728783,false,true,949,image-keyboard-response,13
true,8,2,2,2,true,d,false,true,0.0-2.0-0.32-0.289-3.289,0,0,0,68,false,stim,false,1,463,1,0,1,47540,task1,730781,false,false,952,image-keyboard-response,14
true,8,2,2,2,true,d,false,true,0.0-2.0-0.32-0.290-3.290,0,0,0,68,false,stim,false,1,608,1,0,1,47540,task1,732915,false,false,955,image-keyboard-response,15
true,8,2,2,2,true,d,false,true,0.0-2.0-0.32-0.291-3.291,0,0,0,68,false,stim,false,1,472,1,0,1,47540,task1,734899,false,false,958,image-keyboard-response,16
true,8,0,2,0,true,q,false,true,0.0-2.0-0.32-0.292-3.292,0,0,0,81,false,stim,false,2,568,1,0,0,47540,task1,736980,false,false,961,image-keyboard-response,17
true,8,0,2,0,true,q,false,false,0.0-2.0-0.32-0.293-3.293,0,0,0,81,false,stim,false,2,463,1,0,0,47540,task1,738955,false,true,964,image-keyboard-response,18
true,8,2,2,2,true,d,false,true,0.0-2.0-0.32-0.294-3.294,0,0,0,68,false,stim,false,0,639,1,0,2,47540,task1,741107,false,false,967,image-keyboard-response,19
true,8,2,2,2,true,d,false,true,0.0-2.0-0.32-0.295-3.295,0,0,0,68,false,stim,false,0,430,1,0,2,47540,task1,743060,false,false,970,image-keyboard-response,20
true,8,0,2,0,true,q,false,true,0.0-2.0-0.32-0.296-3.296,0,0,0,81,false,stim,false,2,626,1,0,0,47540,task1,745219,false,false,973,image-keyboard-response,21
true,8,2,2,2,true,d,false,true,0.0-2.0-0.33-0.297-3.297,0,0,0,68,false,stim,false,1,484,1,0,1,47540,task1,747227,false,false,976,image-keyboard-response,22
true,8,2,2,2,true,d,false,false,0.0-2.0-0.33-0.298-3.298,0,0,0,68,false,stim,false,0,962,1,0,2,47540,task1,749701,false,true,979,image-keyboard-response,23
true,8,1,2,2,false,d,true,false,0.0-2.0-0.33-0.299-3.299,0,0,0,90,false,stim,false,0,963,1,0,2,47540,task1,752195,false,false,982,image-keyboard-response,24
true,8,0,2,2,false,d,false,false,0.0-2.0-0.33-0.300-3.300,0,0,0,81,false,stim,true,0,485,1,0,2,47540,task1,754205,false,false,985,image-keyboard-response,25
true,8,0,2,0,true,q,false,true,0.0-2.0-0.33-0.301-3.301,0,0,0,81,false,stim,false,2,930,1,0,0,47540,task1,756653,false,false,988,image-keyboard-response,26
true,8,0,2,0,true,q,false,true,0.0-2.0-0.33-0.302-3.302,0,0,0,81,false,stim,false,2,644,1,0,0,47540,task1,758821,false,false,991,image-keyboard-response,27
true,8,2,2,2,true,d,false,true,0.0-2.0-0.33-0.303-3.303,0,0,0,68,false,stim,false,1,868,1,0,1,47540,task1,761219,false,false,994,image-keyboard-response,28
true,8,2,2,2,true,d,false,true,0.0-2.0-0.33-0.304-3.304,0,0,0,68,false,stim,false,1,443,1,0,1,47540,task1,763187,false,false,997,image-keyboard-response,29
true,8,0,2,0,true,q,false,true,0.0-2.0-0.33-0.305-3.305,0,0,0,81,false,stim,false,2,459,1,0,0,47540,task1,765163,false,false,1000,image-keyboard-response,30
true,8,2,2,2,true,d,false,true,0.0-2.0-0.34-0.306-3.306,0,0,0,68,false,stim,false,0,545,1,0,2,47540,task1,767243,false,false,1003,image-keyboard-response,31
true,8,0,2,0,true,q,false,true,0.0-2.0-0.34-0.307-3.307,0,0,0,81,false,stim,false,2,606,1,0,0,47540,task1,769371,false,false,1006,image-keyboard-response,32
true,8,2,2,2,true,d,false,true,0.0-2.0-0.34-0.308-3.308,0,0,0,68,false,stim,false,0,445,1,0,2,47540,task1,771347,false,false,1009,image-keyboard-response,33
true,8,2,2,2,true,d,false,true,0.0-2.0-0.34-0.309-3.309,0,0,0,68,false,stim,false,1,646,1,0,1,47540,task1,773508,false,false,1012,image-keyboard-response,34
true,8,0,2,0,true,q,false,true,0.0-2.0-0.34-0.310-3.310,0,0,0,81,false,stim,false,2,465,1,0,0,47540,task1,775507,false,false,1015,image-keyboard-response,35
true,8,2,2,2,true,d,false,true,0.0-2.0-0.34-0.311-3.311,0,0,0,68,false,stim,false,0,482,1,0,2,47540,task1,777515,false,false,1018,image-keyboard-response,36
true,8,0,2,0,true,q,false,true,0.0-2.0-0.34-0.312-3.312,0,0,0,81,false,stim,false,2,484,1,0,0,47540,task1,779525,false,false,1021,image-keyboard-response,37
true,8,2,2,2,true,d,false,true,0.0-2.0-0.34-0.313-3.313,0,0,0,68,false,stim,false,1,378,1,0,1,47540,task1,781435,false,false,1024,image-keyboard-response,38
true,8,2,2,2,true,d,false,true,0.0-2.0-0.34-0.314-3.314,0,0,0,68,false,stim,false,1,373,1,0,1,47540,task1,783323,false,false,1027,image-keyboard-response,39
true,8,2,2,2,true,d,false,true,0.0-2.0-0.35-0.315-3.315,0,0,0,68,false,stim,false,0,492,1,0,2,47540,task1,785323,false,false,1030,image-keyboard-response,40
true,8,2,2,2,true,d,false,true,0.0-2.0-0.35-0.316-3.316,0,0,0,68,false,stim,false,1,448,1,0,1,47540,task1,787299,false,false,1033,image-keyboard-response,41
true,9,0,1,1,false,z,false,false,0.0-2.0-0.35-0.317-3.317,0,0,0,81,true,stim,true,0,580,1,0,0,47540,task1,789412,false,false,1036,image-keyboard-response,1
true,9,0,1,1,false,z,false,false,0.0-2.0-0.35-0.318-3.318,0,0,0,81,false,stim,true,0,398,1,0,0,47540,task1,791332,false,false,1039,image-keyboard-response,2
true,9,2,1,0,false,q,false,false,0.0-2.0-0.35-0.319-3.319,0,0,0,68,false,stim,true,2,601,1,0,2,47540,task1,793443,false,false,1042,image-keyboard-response,3
true,9,1,1,1,true,z,false,true,0.0-2.0-0.35-0.320-3.320,0,0,0,90,false,stim,false,0,621,1,0,0,47540,task1,795589,false,false,1045,image-keyboard-response,4
true,9,2,1,0,false,q,false,false,0.0-2.0-0.35-0.321-3.321,0,0,0,68,false,stim,true,2,603,1,0,2,47540,task1,797715,false,false,1048,image-keyboard-response,5
true,9,2,1,1,false,z,false,true,0.0-2.0-0.35-0.322-3.322,0,0,0,68,false,stim,true,2,449,1,0,1,47540,task1,799701,false,true,1051,image-keyboard-response,6
true,9,2,1,1,false,z,false,false,0.0-2.0-0.35-0.323-3.323,0,0,0,68,false,stim,true,2,799,1,0,1,47540,task1,802020,false,false,1054,image-keyboard-response,7
true,9,0,1,0,true,q,false,true,0.0-2.0-0.36-0.324-3.324,0,0,0,81,false,stim,false,2,678,1,0,2,47540,task1,804212,false,false,1057,image-keyboard-response,8
true,9,0,1,0,true,q,false,true,0.0-2.0-0.36-0.325-3.325,0,0,0,81,false,stim,false,2,575,1,0,2,47540,task1,806308,false,false,1060,image-keyboard-response,9
true,9,1,1,1,true,z,false,false,0.0-2.0-0.36-0.326-3.326,0,0,0,90,false,stim,false,0,645,1,0,0,47540,task1,808468,false,true,1063,image-keyboard-response,10
true,9,0,1,0,true,q,false,true,0.0-2.0-0.36-0.327-3.327,0,0,0,81,false,stim,false,2,661,1,0,2,47540,task1,810643,false,false,1066,image-keyboard-response,11
true,9,2,1,1,false,z,false,false,0.0-2.0-0.36-0.328-3.328,0,0,0,68,false,stim,true,2,1035,1,0,1,47540,task1,813203,false,false,1069,image-keyboard-response,12
true,9,1,1,1,true,z,false,true,0.0-2.0-0.36-0.329-3.329,0,0,0,90,false,stim,false,2,754,1,0,1,47540,task1,815476,false,false,1072,image-keyboard-response,13
true,9,1,1,1,true,z,false,true,0.0-2.0-0.36-0.330-3.330,0,0,0,90,false,stim,false,0,721,1,0,0,47540,task1,817747,false,false,1075,image-keyboard-response,14
true,9,1,1,1,true,z,false,true,0.0-2.0-0.36-0.331-3.331,0,0,0,90,false,stim,false,0,738,1,0,0,47540,task1,819996,false,false,1078,image-keyboard-response,15
true,9,1,1,1,true,z,false,true,0.0-2.0-0.36-0.332-3.332,0,0,0,90,false,stim,false,2,554,1,0,1,47540,task1,822067,false,false,1081,image-keyboard-response,16
true,9,1,1,1,true,z,false,true,0.0-2.0-0.37-0.333-3.333,0,0,0,90,false,stim,false,2,497,1,0,1,47540,task1,824092,false,false,1084,image-keyboard-response,17
true,9,1,1,1,true,z,false,true,0.0-2.0-0.37-0.334-3.334,0,0,0,90,false,stim,false,0,589,1,0,0,47540,task1,826211,false,false,1087,image-keyboard-response,18
true,9,0,1,0,true,q,false,true,0.0-2.0-0.37-0.335-3.335,0,0,0,81,false,stim,false,2,510,1,0,2,47540,task1,828259,false,false,1090,image-keyboard-response,19
true,9,1,1,1,true,z,false,true,0.0-2.0-0.37-0.336-3.336,0,0,0,90,false,stim,false,0,555,1,0,0,47540,task1,830334,false,false,1093,image-keyboard-response,20
true,9,1,1,1,true,z,false,true,0.0-2.0-0.37-0.337-3.337,0,0,0,90,false,stim,false,0,730,1,0,0,47540,task1,832587,false,false,1096,image-keyboard-response,21
true,9,1,1,1,true,z,false,true,0.0-2.0-0.37-0.338-3.338,0,0,0,90,false,stim,false,2,467,1,0,1,47540,task1,834579,false,false,1099,image-keyboard-response,22
true,9,0,1,0,true,q,false,true,0.0-2.0-0.37-0.339-3.339,0,0,0,81,false,stim,false,2,624,1,0,2,47540,task1,836723,false,false,1102,image-keyboard-response,23
true,9,1,1,1,true,z,false,true,0.0-2.0-0.37-0.340-3.340,0,0,0,90,false,stim,false,2,679,1,0,1,47540,task1,838931,false,false,1105,image-keyboard-response,24
true,9,0,1,0,true,q,false,false,0.0-2.0-0.37-0.341-3.341,0,0,0,81,false,stim,false,2,1217,1,0,2,47540,task1,841668,false,true,1108,image-keyboard-response,25
true,9,0,1,0,true,q,false,true,0.0-2.0-0.38-0.342-3.342,0,0,0,81,false,stim,false,2,490,1,0,2,47540,task1,843684,false,false,1111,image-keyboard-response,26
true,9,1,1,1,true,z,false,true,0.0-2.0-0.38-0.343-3.343,0,0,0,90,false,stim,false,2,578,1,0,1,47540,task1,845796,false,false,1114,image-keyboard-response,27
true,9,1,1,1,true,z,false,true,0.0-2.0-0.38-0.344-3.344,0,0,0,90,false,stim,false,2,512,1,0,1,47540,task1,847828,false,false,1117,image-keyboard-response,28
true,9,1,1,1,true,z,false,true,0.0-2.0-0.38-0.345-3.345,0,0,0,90,false,stim,false,0,610,1,0,0,47540,task1,849958,false,false,1120,image-keyboard-response,29
true,9,0,1,0,true,q,false,true,0.0-2.0-0.38-0.346-3.346,0,0,0,81,false,stim,false,2,539,1,0,2,47540,task1,852011,false,false,1123,image-keyboard-response,30
true,9,1,1,1,true,z,false,true,0.0-2.0-0.38-0.347-3.347,0,0,0,90,false,stim,false,0,531,1,0,0,47540,task1,854054,false,false,1126,image-keyboard-response,31
true,9,1,1,1,true,z,false,true,0.0-2.0-0.38-0.348-3.348,0,0,0,90,false,stim,false,2,531,1,0,1,47540,task1,856139,false,false,1129,image-keyboard-response,32
true,9,0,1,0,true,q,false,true,0.0-2.0-0.38-0.349-3.349,0,0,0,81,false,stim,false,2,605,1,0,2,47540,task1,858268,false,false,1132,image-keyboard-response,33
true,9,1,1,1,true,z,false,true,0.0-2.0-0.38-0.350-3.350,0,0,0,90,false,stim,false,0,875,1,0,0,47540,task1,860667,false,false,1135,image-keyboard-response,34
true,9,0,1,0,true,q,false,true,0.0-2.0-0.39-0.351-3.351,0,0,0,81,false,stim,false,2,998,1,0,2,47540,task1,863171,false,false,1138,image-keyboard-response,35
true,9,0,1,0,true,q,false,true,0.0-2.0-0.39-0.352-3.352,0,0,0,81,false,stim,false,2,743,1,0,2,47540,task1,865436,false,false,1141,image-keyboard-response,36
true,9,1,1,1,true,z,false,true,0.0-2.0-0.39-0.353-3.353,0,0,0,90,false,stim,false,2,582,1,0,1,47540,task1,867540,false,false,1144,image-keyboard-response,37
true,9,1,1,1,true,z,false,true,0.0-2.0-0.39-0.354-3.354,0,0,0,90,false,stim,false,0,741,1,0,0,47540,task1,869803,false,false,1147,image-keyboard-response,38
true,9,1,1,1,true,z,false,false,0.0-2.0-0.39-0.355-3.355,0,0,0,90,false,stim,false,2,712,1,0,1,47540,task1,872035,false,true,1150,image-keyboard-response,39
true,9,1,1,1,true,z,false,false,0.0-2.0-0.39-0.356-3.356,0,0,0,90,false,stim,false,2,514,1,0,1,47540,task1,874069,false,true,1153,image-keyboard-response,40
true,10,0,2,2,false,d,false,false,0.0-2.0-0.39-0.357-3.357,0,0,0,81,true,stim,true,0,886,1,0,2,47540,task1,876468,false,false,1156,image-keyboard-response,1
true,10,1,2,0,false,q,false,false,0.0-2.0-0.39-0.358-3.358,0,0,0,90,false,stim,true,1,653,1,0,0,47540,task1,878635,false,false,1159,image-keyboard-response,2
true,10,1,2,0,false,q,false,false,0.0-2.0-0.39-0.359-3.359,0,0,0,90,false,stim,true,1,751,1,0,0,47540,task1,880901,false,false,1162,image-keyboard-response,3
true,10,0,2,2,false,d,false,false,0.0-2.0-0.40-0.360-3.360,0,0,0,81,false,stim,true,0,606,1,0,2,47540,task1,883030,false,false,1165,image-keyboard-response,4
true,10,1,2,2,false,d,true,false,0.0-2.0-0.40-0.361-3.361,0,0,0,90,false,stim,false,0,725,1,0,2,47540,task1,885268,false,false,1168,image-keyboard-response,5
true,10,2,2,2,true,d,false,true,0.0-2.0-0.40-0.362-3.362,0,0,0,68,false,stim,false,0,467,1,0,2,47540,task1,887252,false,false,1171,image-keyboard-response,6
true,10,0,2,0,true,q,false,true,0.0-2.0-0.40-0.363-3.363,0,0,0,81,false,stim,false,1,1275,1,0,0,47540,task1,890052,false,false,1174,image-keyboard-response,7
true,10,0,2,0,true,q,false,true,0.0-2.0-0.40-0.364-3.364,0,0,0,81,false,stim,false,1,530,1,0,0,47540,task1,892101,false,false,1177,image-keyboard-response,8
true,10,0,2,2,false,d,true,false,0.0-2.0-0.40-0.365-3.365,0,0,0,81,false,stim,false,1,597,1,0,1,47540,task1,894205,false,false,1180,image-keyboard-response,9
true,10,0,2,0,true,q,false,true,0.0-2.0-0.40-0.366-3.366,0,0,0,81,false,stim,false,1,562,1,0,0,47540,task1,896283,false,false,1183,image-keyboard-response,10
true,10,2,2,2,true,d,false,true,0.0-2.0-0.40-0.367-3.367,0,0,0,68,false,stim,false,1,514,1,0,1,47540,task1,898316,false,false,1186,image-keyboard-response,11
true,10,2,2,2,true,d,false,true,0.0-2.0-0.40-0.368-3.368,0,0,0,68,false,stim,false,1,802,1,0,1,47540,task1,900652,false,false,1189,image-keyboard-response,12
true,10,0,2,0,true,q,false,true,0.0-2.0-0.41-0.369-3.369,0,0,0,81,false,stim,false,1,703,1,0,0,47540,task1,902870,false,false,1192,image-keyboard-response,13
true,10,0,2,0,true,q,false,true,0.0-2.0-0.41-0.370-3.370,0,0,0,81,false,stim,false,1,590,1,0,0,47540,task1,904988,false,false,1195,image-keyboard-response,14
true,10,2,2,2,true,d,false,true,0.0-2.0-0.41-0.371-3.371,0,0,0,68,false,stim,false,0,565,1,0,2,47540,task1,907068,false,false,1198,image-keyboard-response,15
true,10,2,2,2,true,d,false,true,0.0-2.0-0.41-0.372-3.372,0,0,0,68,false,stim,false,1,477,1,0,1,47540,task1,909075,false,false,1201,image-keyboard-response,16
true,10,2,2,2,true,d,false,true,0.0-2.0-0.41-0.373-3.373,0,0,0,68,false,stim,false,0,485,1,0,2,47540,task1,911068,false,false,1204,image-keyboard-response,17
true,10,0,2,0,true,q,false,true,0.0-2.0-0.41-0.374-3.374,0,0,0,81,false,stim,false,1,597,1,0,0,47540,task1,913196,false,false,1207,image-keyboard-response,18
true,10,2,2,2,true,d,false,false,0.0-2.0-0.41-0.375-3.375,0,0,0,68,false,stim,false,1,453,1,0,1,47540,task1,915164,false,true,1210,image-keyboard-response,19
true,10,2,2,2,true,d,false,true,0.0-2.0-0.41-0.376-3.376,0,0,0,68,false,stim,false,1,525,1,0,1,47540,task1,917219,false,false,1213,image-keyboard-response,20
true,10,2,2,2,true,d,false,true,0.0-2.0-0.41-0.377-3.377,0,0,0,68,false,stim,false,0,526,1,0,2,47540,task1,919276,false,false,1216,image-keyboard-response,21
true,10,0,2,0,true,q,false,true,0.0-2.0-0.42-0.378-3.378,0,0,0,81,false,stim,false,1,627,1,0,0,47540,task1,921436,false,false,1219,image-keyboard-response,22
true,10,2,2,2,true,d,false,true,0.0-2.0-0.42-0.379-3.379,0,0,0,68,false,stim,false,0,549,1,0,2,47540,task1,923507,false,false,1222,image-keyboard-response,23
true,10,2,2,2,true,d,false,true,0.0-2.0-0.42-0.380-3.380,0,0,0,68,false,stim,false,0,427,1,0,2,47540,task1,925460,false,false,1225,image-keyboard-response,24
true,10,2,2,2,true,d,false,true,0.0-2.0-0.42-0.381-3.381,0,0,0,68,false,stim,false,1,500,1,0,1,47540,task1,927482,false,false,1228,image-keyboard-response,25
true,10,0,2,0,true,q,false,true,0.0-2.0-0.42-0.382-3.382,0,0,0,81,false,stim,false,1,735,1,0,0,47540,task1,929732,false,false,1231,image-keyboard-response,26
true,10,0,2,0,true,q,false,true,0.0-2.0-0.42-0.383-3.383,0,0,0,81,false,stim,false,1,522,1,0,0,47540,task1,931790,false,false,1234,image-keyboard-response,27
true,10,2,2,2,true,d,false,true,0.0-2.0-0.42-0.384-3.384,0,0,0,68,false,stim,false,1,558,1,0,1,47540,task1,933860,false,false,1237,image-keyboard-response,28
true,10,2,2,2,true,d,false,true,0.0-2.0-0.42-0.385-3.385,0,0,0,68,false,stim,false,1,455,1,0,1,47540,task1,935827,false,false,1240,image-keyboard-response,29
true,10,2,2,2,true,d,false,true,0.0-2.0-0.42-0.386-3.386,0,0,0,68,false,stim,false,0,523,1,0,2,47540,task1,937875,false,false,1243,image-keyboard-response,30
true,10,0,2,0,true,q,false,true,0.0-2.0-0.43-0.387-3.387,0,0,0,81,false,stim,false,1,661,1,0,0,47540,task1,940059,false,false,1246,image-keyboard-response,31
true,10,2,2,2,true,d,false,true,0.0-2.0-0.43-0.388-3.388,0,0,0,68,false,stim,false,0,633,1,0,2,47540,task1,942211,false,false,1249,image-keyboard-response,32
true,10,2,2,2,true,d,false,true,0.0-2.0-0.43-0.389-3.389,0,0,0,68,false,stim,false,1,576,1,0,1,47540,task1,944307,false,false,1252,image-keyboard-response,33
true,10,2,2,2,true,d,false,true,0.0-2.0-0.43-0.390-3.390,0,0,0,68,false,stim,false,1,439,1,0,1,47540,task1,946252,false,false,1255,image-keyboard-response,34
true,10,2,2,2,true,d,false,true,0.0-2.0-0.43-0.391-3.391,0,0,0,68,false,stim,false,0,494,1,0,2,47540,task1,948276,false,false,1258,image-keyboard-response,35
true,10,2,2,2,true,d,false,true,0.0-2.0-0.43-0.392-3.392,0,0,0,68,false,stim,false,0,453,1,0,2,47540,task1,950259,false,false,1261,image-keyboard-response,36
true,10,2,2,2,true,d,false,true,0.0-2.0-0.43-0.393-3.393,0,0,0,68,false,stim,false,1,530,1,0,1,47540,task1,952324,false,false,1264,image-keyboard-response,37
true,10,0,2,0,true,q,false,true,0.0-2.0-0.43-0.394-3.394,0,0,0,81,false,stim,false,1,528,1,0,0,47540,task1,954371,false,false,1267,image-keyboard-response,38
true,10,0,2,0,true,q,false,true,0.0-2.0-0.43-0.395-3.395,0,0,0,81,false,stim,false,1,603,1,0,0,47540,task1,956483,false,false,1270,image-keyboard-response,39
true,11,0,2,2,false,d,false,false,0.0-2.0-0.44-0.396-3.396,0,0,0,81,true,stim,true,0,652,1,0,0,47540,task1,958660,false,false,1273,image-keyboard-response,1
true,11,2,2,0,false,q,false,true,0.0-2.0-0.44-0.397-3.397,0,0,0,68,false,stim,true,2,481,1,0,2,47540,task1,960670,false,true,1276,image-keyboard-response,2
true,11,0,2,2,false,d,false,false,0.0-2.0-0.44-0.398-3.398,0,0,0,81,false,stim,true,0,496,1,0,0,47540,task1,962684,false,false,1279,image-keyboard-response,3
true,11,2,2,1,false,z,false,true,0.0-2.0-0.44-0.399-3.399,0,0,0,68,false,stim,true,2,566,1,0,1,47540,task1,964764,false,true,1282,image-keyboard-response,4
true,11,2,2,1,false,z,false,false,0.0-2.0-0.44-0.400-3.400,0,0,0,68,false,stim,true,2,647,1,0,1,47540,task1,966933,false,false,1285,image-keyboard-response,5
true,11,2,2,0,false,q,false,false,0.0-2.0-0.44-0.401-3.401,0,0,0,68,false,stim,true,2,619,1,0,2,47540,task1,969093,false,false,1288,image-keyboard-response,6
true,11,2,2,0,false,q,false,false,0.0-2.0-0.44-0.402-3.402,0,0,0,68,false,stim,true,2,652,1,0,2,47540,task1,971276,false,false,1291,image-keyboard-response,7
true,11,2,2,1,false,z,false,false,0.0-2.0-0.44-0.403-3.403,0,0,0,68,false,stim,true,2,1769,1,0,1,47540,task1,974579,false,false,1294,image-keyboard-response,8
true,11,1,2,2,false,d,true,false,0.0-2.0-0.44-0.404-3.404,0,0,0,90,false,stim,false,0,677,1,0,0,47540,task1,976780,false,false,1297,image-keyboard-response,9
true,11,2,2,2,true,d,false,true,0.0-2.0-0.45-0.405-3.405,0,0,0,68,false,stim,false,0,759,1,0,0,47540,task1,979068,false,false,1300,image-keyboard-response,10
true,11,1,2,1,true,z,false,true,0.0-2.0-0.45-0.406-3.406,0,0,0,90,false,stim,false,2,918,1,0,1,47540,task1,981500,false,false,1303,image-keyboard-response,11
true,11,2,2,2,true,d,false,true,0.0-2.0-0.45-0.407-3.407,0,0,0,68,false,stim,false,0,907,1,0,0,47540,task1,983923,false,false,1306,image-keyboard-response,12
true,11,1,2,1,true,z,false,true,0.0-2.0-0.45-0.408-3.408,0,0,0,90,false,stim,false,2,888,1,0,1,47540,task1,986317,false,false,1309,image-keyboard-response,13
true,11,1,2,1,true,z,false,false,0.0-2.0-0.45-0.409-3.409,0,0,0,90,false,stim,false,2,751,1,0,1,47540,task1,988604,false,true,1312,image-keyboard-response,14
true,11,2,2,2,true,d,false,true,0.0-2.0-0.45-0.410-3.410,0,0,0,68,false,stim,false,0,608,1,0,0,47540,task1,990732,false,false,1315,image-keyboard-response,15
true,11,0,2,0,true,q,false,true,0.0-2.0-0.45-0.411-3.411,0,0,0,81,false,stim,false,2,658,1,0,2,47540,task1,992922,false,false,1318,image-keyboard-response,16
true,11,0,2,0,true,q,false,true,0.0-2.0-0.45-0.412-3.412,0,0,0,81,false,stim,false,2,506,1,0,2,47540,task1,994991,false,false,1321,image-keyboard-response,17
true,11,0,2,0,true,q,false,false,0.0-2.0-0.45-0.413-3.413,0,0,0,81,false,stim,false,2,496,1,0,2,47540,task1,997020,false,true,1324,image-keyboard-response,18
true,11,2,2,2,true,d,false,true,0.0-2.0-0.46-0.414-3.414,0,0,0,68,false,stim,false,0,478,1,0,0,47540,task1,999036,false,false,1327,image-keyboard-response,19
true,11,1,2,1,true,z,false,true,0.0-2.0-0.46-0.415-3.415,0,0,0,90,false,stim,false,2,653,1,0,1,47540,task1,1001220,false,false,1330,image-keyboard-response,20
true,11,0,2,0,true,q,false,true,0.0-2.0-0.46-0.416-3.416,0,0,0,81,false,stim,false,2,646,1,0,2,47540,task1,1003388,false,false,1333,image-keyboard-response,21
true,11,2,2,2,true,d,false,true,0.0-2.0-0.46-0.417-3.417,0,0,0,68,false,stim,false,0,553,1,0,0,47540,task1,1005491,false,false,1336,image-keyboard-response,22
true,11,0,2,0,true,q,false,true,0.0-2.0-0.46-0.418-3.418,0,0,0,81,false,stim,false,2,611,1,0,2,47540,task1,1007636,false,false,1339,image-keyboard-response,23
true,11,1,2,1,true,z,false,true,0.0-2.0-0.46-0.419-3.419,0,0,0,90,false,stim,false,2,532,1,0,1,47540,task1,1009700,false,false,1342,image-keyboard-response,24
true,11,2,2,2,true,d,false,true,0.0-2.0-0.46-0.420-3.420,0,0,0,68,false,stim,false,0,633,1,0,0,47540,task1,1011869,false,false,1345,image-keyboard-response,25
true,11,1,2,1,true,z,false,true,0.0-2.0-0.46-0.421-3.421,0,0,0,90,false,stim,false,2,905,1,0,1,47540,task1,1014308,false,false,1348,image-keyboard-response,26
true,11,0,2,0,true,q,false,true,0.0-2.0-0.46-0.422-3.422,0,0,0,81,false,stim,false,2,409,1,0,2,47540,task1,1016253,false,false,1351,image-keyboard-response,27
true,11,1,2,1,true,z,false,true,0.0-2.0-0.47-0.423-3.423,0,0,0,90,false,stim,false,2,404,1,0,1,47540,task1,1018196,false,false,1354,image-keyboard-response,28
true,11,1,2,1,true,z,false,true,0.0-2.0-0.47-0.424-3.424,0,0,0,90,false,stim,false,2,761,1,0,1,47540,task1,1020484,false,false,1357,image-keyboard-response,29
true,11,1,2,1,true,z,false,true,0.0-2.0-0.47-0.425-3.425,0,0,0,90,false,stim,false,2,518,1,0,1,47540,task1,1022525,false,false,1360,image-keyboard-response,30
true,11,0,2,0,true,q,false,true,0.0-2.0-0.47-0.426-3.426,0,0,0,81,false,stim,false,2,531,1,0,2,47540,task1,1024564,false,false,1363,image-keyboard-response,31
true,11,2,2,2,true,d,false,true,0.0-2.0-0.47-0.427-3.427,0,0,0,68,false,stim,false,0,530,1,0,0,47540,task1,1026612,false,false,1366,image-keyboard-response,32
true,11,0,2,0,true,q,false,true,0.0-2.0-0.47-0.428-3.428,0,0,0,81,false,stim,false,2,610,1,0,2,47540,task1,1028733,false,false,1369,image-keyboard-response,33
true,11,0,2,0,true,q,false,true,0.0-2.0-0.47-0.429-3.429,0,0,0,81,false,stim,false,2,499,1,0,2,47540,task1,1030757,false,false,1372,image-keyboard-response,34
true,11,2,2,2,true,d,false,true,0.0-2.0-0.47-0.430-3.430,0,0,0,68,false,stim,false,0,477,1,0,0,47540,task1,1032764,false,false,1375,image-keyboard-response,35
true,11,2,2,2,true,d,false,true,0.0-2.0-0.47-0.431-3.431,0,0,0,68,false,stim,false,0,538,1,0,0,47540,task1,1034821,false,false,1378,image-keyboard-response,36
true,11,2,2,2,true,d,false,true,0.0-2.0-0.48-0.432-3.432,0,0,0,68,false,stim,false,0,420,1,0,0,47540,task1,1036772,false,false,1381,image-keyboard-response,37
true,11,0,2,0,true,q,false,true,0.0-2.0-0.48-0.433-3.433,0,0,0,81,false,stim,false,2,679,1,0,2,47540,task1,1038972,false,false,1384,image-keyboard-response,38
true,11,1,2,1,true,z,false,true,0.0-2.0-0.48-0.434-3.434,0,0,0,90,false,stim,false,2,535,1,0,1,47540,task1,1041028,false,false,1387,image-keyboard-response,39
true,11,1,2,1,true,z,false,true,0.0-2.0-0.48-0.435-3.435,0,0,0,90,false,stim,false,2,572,1,0,1,47540,task1,1043124,false,false,1390,image-keyboard-response,40
true,12,0,1,2,false,d,false,true,0.0-2.0-0.48-0.436-3.436,0,0,0,81,true,stim,true,0,571,1,0,2,47540,task1,1045211,false,true,1393,image-keyboard-response,1
true,12,2,1,1,false,z,false,false,0.0-2.0-0.48-0.437-3.437,0,0,0,68,false,stim,true,2,606,1,0,0,47540,task1,1047332,false,false,1396,image-keyboard-response,2
true,12,2,1,1,false,z,false,false,0.0-2.0-0.48-0.438-3.438,0,0,0,68,false,stim,true,2,407,1,0,0,47540,task1,1049276,false,false,1399,image-keyboard-response,3
true,12,1,1,0,false,q,false,false,0.0-2.0-0.48-0.439-3.439,0,0,0,90,false,stim,true,1,676,1,0,1,47540,task1,1051476,false,false,1402,image-keyboard-response,4
true,12,0,1,2,false,d,false,false,0.0-2.0-0.48-0.440-3.440,0,0,0,81,false,stim,true,0,684,1,0,2,47540,task1,1053692,false,false,1405,image-keyboard-response,5
true,12,1,1,0,false,q,false,true,0.0-2.0-0.49-0.441-3.441,0,0,0,90,false,stim,true,1,989,1,0,1,47540,task1,1056196,false,true,1408,image-keyboard-response,6
true,12,1,1,0,false,q,false,false,0.0-2.0-0.49-0.442-3.442,0,0,0,90,false,stim,true,1,562,1,0,1,47540,task1,1058285,false,false,1411,image-keyboard-response,7
true,12,0,1,2,false,d,false,false,0.0-2.0-0.49-0.443-3.443,0,0,0,81,false,stim,true,0,552,1,0,2,47540,task1,1060356,false,false,1414,image-keyboard-response,8
true,12,1,1,2,false,d,true,false,0.0-2.0-0.49-0.444-3.444,0,0,0,90,false,stim,false,0,540,1,0,2,47540,task1,1062404,false,false,1417,image-keyboard-response,9
true,12,1,1,1,true,z,false,true,0.0-2.0-0.49-0.445-3.445,0,0,0,90,false,stim,false,2,896,1,0,0,47540,task1,1064835,false,false,1420,image-keyboard-response,10
true,12,2,1,2,true,d,false,true,0.0-2.0-0.49-0.446-3.446,0,0,0,68,false,stim,false,0,815,1,0,2,47540,task1,1067172,false,false,1423,image-keyboard-response,11
true,12,1,1,0,false,q,false,false,0.0-2.0-0.49-0.447-3.447,0,0,0,90,false,stim,true,1,661,1,0,1,47540,task1,1069356,false,false,1426,image-keyboard-response,12
true,12,1,1,1,true,z,false,true,0.0-2.0-0.49-0.448-3.448,0,0,0,90,false,stim,false,2,870,1,0,0,47540,task1,1071749,false,false,1429,image-keyboard-response,13
true,12,1,1,1,true,z,false,true,0.0-2.0-0.49-0.449-3.449,0,0,0,90,false,stim,false,2,481,1,0,0,47540,task1,1073764,false,false,1432,image-keyboard-response,14
true,12,2,1,2,true,d,false,true,0.0-2.0-0.50-0.450-3.450,0,0,0,68,false,stim,false,0,661,1,0,2,47540,task1,1075964,false,false,1435,image-keyboard-response,15
true,12,0,1,0,true,q,false,true,0.0-2.0-0.50-0.451-3.451,0,0,0,81,false,stim,false,1,411,1,0,1,47540,task1,1077884,false,false,1438,image-keyboard-response,16
true,12,1,1,1,true,z,false,true,0.0-2.0-0.50-0.452-3.452,0,0,0,90,false,stim,false,2,609,1,0,0,47540,task1,1080012,false,false,1441,image-keyboard-response,17
true,12,0,1,0,true,q,false,true,0.0-2.0-0.50-0.453-3.453,0,0,0,81,false,stim,false,1,432,1,0,1,47540,task1,1081980,false,false,1444,image-keyboard-response,18
true,12,0,1,0,true,q,false,true,0.0-2.0-0.50-0.454-3.454,0,0,0,81,false,stim,false,1,1080,1,0,1,47540,task1,1084605,false,false,1447,image-keyboard-response,19
true,12,1,1,1,true,z,false,true,0.0-2.0-0.50-0.455-3.455,0,0,0,90,false,stim,false,2,579,1,0,0,47540,task1,1086704,false,false,1450,image-keyboard-response,20
true,12,2,1,2,true,d,false,true,0.0-2.0-0.50-0.456-3.456,0,0,0,68,false,stim,false,0,435,1,0,2,47540,task1,1088668,false,false,1453,image-keyboard-response,21
true,12,1,1,1,true,z,false,true,0.0-2.0-0.50-0.457-3.457,0,0,0,90,false,stim,false,2,708,1,0,0,47540,task1,1090908,false,false,1456,image-keyboard-response,22
true,12,2,1,2,true,d,false,true,0.0-2.0-0.50-0.458-3.458,0,0,0,68,false,stim,false,0,454,1,0,2,47540,task1,1092900,false,false,1459,image-keyboard-response,23
true,12,2,1,2,true,d,false,true,0.0-2.0-0.51-0.459-3.459,0,0,0,68,false,stim,false,0,525,1,0,2,47540,task1,1094957,false,false,1462,image-keyboard-response,24
true,12,1,1,0,false,q,false,false,0.0-2.0-0.51-0.460-3.460,0,0,0,90,false,stim,true,1,534,1,0,1,47540,task1,1097013,false,false,1465,image-keyboard-response,25
true,12,1,1,1,true,z,false,true,0.0-2.0-0.51-0.461-3.461,0,0,0,90,false,stim,false,2,619,1,0,0,47540,task1,1099172,false,false,1468,image-keyboard-response,26
true,12,1,1,1,true,z,false,false,0.0-2.0-0.51-0.462-3.462,0,0,0,90,false,stim,false,2,583,1,0,0,47540,task1,1101292,false,true,1471,image-keyboard-response,27
true,12,2,1,2,true,d,false,true,0.0-2.0-0.51-0.463-3.463,0,0,0,68,false,stim,false,0,615,1,0,2,47540,task1,1103427,false,false,1474,image-keyboard-response,28
true,12,0,1,0,true,q,false,true,0.0-2.0-0.51-0.464-3.464,0,0,0,81,false,stim,false,1,611,1,0,1,47540,task1,1105563,false,false,1477,image-keyboard-response,29
true,12,2,1,2,true,d,false,true,0.0-2.0-0.51-0.465-3.465,0,0,0,68,false,stim,false,0,703,1,0,2,47540,task1,1107796,false,false,1480,image-keyboard-response,30
true,12,0,1,0,true,q,false,true,0.0-2.0-0.51-0.466-3.466,0,0,0,81,false,stim,false,1,656,1,0,1,47540,task1,1109964,false,false,1483,image-keyboard-response,31
true,12,1,1,1,true,z,false,true,0.0-2.0-0.51-0.467-3.467,0,0,0,90,false,stim,false,2,427,1,0,0,47540,task1,1111908,false,false,1486,image-keyboard-response,32
true,12,1,1,1,true,z,false,true,0.0-2.0-0.52-0.468-3.468,0,0,0,90,false,stim,false,2,543,1,0,0,47540,task1,1113956,false,false,1489,image-keyboard-response,33
true,12,2,1,2,true,d,false,true,0.0-2.0-0.52-0.469-3.469,0,0,0,68,false,stim,false,0,400,1,0,2,47540,task1,1115867,false,false,1492,image-keyboard-response,34
true,12,1,1,1,true,z,false,true,0.0-2.0-0.52-0.470-3.470,0,0,0,90,false,stim,false,2,576,1,0,0,47540,task1,1117965,false,false,1495,image-keyboard-response,35
true,12,0,1,0,true,q,false,false,0.0-2.0-0.52-0.471-3.471,0,0,0,81,false,stim,false,1,772,1,0,1,47540,task1,1120283,false,true,1498,image-keyboard-response,36
true,12,0,1,0,true,q,false,true,0.0-2.0-0.52-0.472-3.472,0,0,0,81,false,stim,false,1,596,1,0,1,47540,task1,1122415,false,false,1501,image-keyboard-response,37
true,12,2,1,2,true,d,false,true,0.0-2.0-0.52-0.473-3.473,0,0,0,68,false,stim,false,0,758,1,0,2,47540,task1,1124709,false,false,1504,image-keyboard-response,38
true,12,0,1,0,true,q,false,true,0.0-2.0-0.52-0.474-3.474,0,0,0,81,false,stim,false,1,698,1,0,1,47540,task1,1126924,false,false,1507,image-keyboard-response,39
true,13,1,2,2,false,d,false,false,0.0-2.0-0.52-0.475-3.475,0,0,0,90,true,stim,true,1,580,1,0,0,47540,task1,1129012,false,false,1510,image-keyboard-response,1
true,13,2,2,0,false,q,false,false,0.0-2.0-0.52-0.476-3.476,0,0,0,68,false,stim,true,2,596,1,0,2,47540,task1,1131140,false,false,1513,image-keyboard-response,2
true,13,1,2,2,false,d,false,true,0.0-2.0-0.53-0.477-3.477,0,0,0,90,false,stim,true,1,578,1,0,0,47540,task1,1133244,false,true,1516,image-keyboard-response,3
true,13,0,2,1,false,z,false,false,0.0-2.0-0.53-0.478-3.478,0,0,0,81,false,stim,true,0,850,1,0,1,47540,task1,1135613,false,false,1519,image-keyboard-response,4
true,13,2,2,0,false,q,false,false,0.0-2.0-0.53-0.479-3.479,0,0,0,68,false,stim,true,2,882,1,0,2,47540,task1,1138004,false,false,1522,image-keyboard-response,5
true,13,1,2,0,false,q,true,false,0.0-2.0-0.53-0.480-3.480,0,0,0,90,false,stim,false,2,553,1,0,2,47540,task1,1140077,false,false,1525,image-keyboard-response,6
true,13,0,2,0,true,q,false,false,0.0-2.0-0.53-0.481-3.481,0,0,0,81,false,stim,false,2,567,1,0,2,47540,task1,1142149,false,true,1528,image-keyboard-response,7
true,13,1,2,2,false,d,false,false,0.0-2.0-0.53-0.482-3.482,0,0,0,90,false,stim,true,1,871,1,0,0,47540,task1,1144549,false,false,1531,image-keyboard-response,8
true,13,0,2,1,false,z,false,false,0.0-2.0-0.53-0.483-3.483,0,0,0,81,false,stim,true,0,857,1,0,1,47540,task1,1146940,false,false,1534,image-keyboard-response,9
true,13,1,2,2,false,d,false,false,0.0-2.0-0.53-0.484-3.484,0,0,0,90,false,stim,true,1,892,1,0,0,47540,task1,1149340,false,false,1537,image-keyboard-response,10
true,13,1,2,1,true,z,false,true,0.0-2.0-0.53-0.485-3.485,0,0,0,90,false,stim,false,0,1580,1,0,1,47540,task1,1152454,false,false,1540,image-keyboard-response,11
true,13,0,2,2,false,d,true,false,0.0-2.0-0.54-0.486-3.486,0,0,0,81,false,stim,false,1,804,1,0,0,47540,task1,1154796,false,false,1543,image-keyboard-response,12
true,13,2,2,2,true,d,false,true,0.0-2.0-0.54-0.487-3.487,0,0,0,68,false,stim,false,1,553,1,0,0,47540,task1,1156860,false,false,1546,image-keyboard-response,13
true,13,1,2,1,true,z,false,true,0.0-2.0-0.54-0.488-3.488,0,0,0,90,false,stim,false,0,655,1,0,1,47540,task1,1159044,false,false,1549,image-keyboard-response,14
true,13,0,2,0,true,q,false,true,0.0-2.0-0.54-0.489-3.489,0,0,0,81,false,stim,false,2,739,1,0,2,47540,task1,1161324,false,false,1552,image-keyboard-response,15
true,13,1,2,1,true,z,false,true,0.0-2.0-0.54-0.490-3.490,0,0,0,90,false,stim,false,0,621,1,0,1,47540,task1,1163468,false,false,1555,image-keyboard-response,16
true,13,2,2,2,true,d,false,true,0.0-2.0-0.54-0.491-3.491,0,0,0,68,false,stim,false,1,730,1,0,0,47540,task1,1165708,false,false,1558,image-keyboard-response,17
true,13,0,2,0,true,q,false,true,0.0-2.0-0.54-0.492-3.492,0,0,0,81,false,stim,false,2,452,1,0,2,47540,task1,1167684,false,false,1561,image-keyboard-response,18
true,13,1,2,1,true,z,false,true,0.0-2.0-0.54-0.493-3.493,0,0,0,90,false,stim,false,0,599,1,0,1,47540,task1,1169812,false,false,1564,image-keyboard-response,19
true,13,0,2,0,true,q,false,true,0.0-2.0-0.54-0.494-3.494,0,0,0,81,false,stim,false,2,677,1,0,2,47540,task1,1172020,false,false,1567,image-keyboard-response,20
true,13,0,2,0,true,q,false,true,0.0-2.0-0.55-0.495-3.495,0,0,0,81,false,stim,false,2,507,1,0,2,47540,task1,1174052,false,false,1570,image-keyboard-response,21
true,13,2,2,2,true,d,false,true,0.0-2.0-0.55-0.496-3.496,0,0,0,68,false,stim,false,1,710,1,0,0,47540,task1,1176285,false,false,1573,image-keyboard-response,22
true,13,0,2,0,true,q,false,true,0.0-2.0-0.55-0.497-3.497,0,0,0,81,false,stim,false,2,616,1,0,2,47540,task1,1178429,false,false,1576,image-keyboard-response,23
true,13,0,2,0,true,q,false,true,0.0-2.0-0.55-0.498-3.498,0,0,0,81,false,stim,false,2,622,1,0,2,47540,task1,1180595,false,false,1579,image-keyboard-response,24
true,13,2,2,2,true,d,false,true,0.0-2.0-0.55-0.499-3.499,0,0,0,68,false,stim,false,1,701,1,0,0,47540,task1,1182804,false,false,1582,image-keyboard-response,25
true,13,1,2,1,true,z,false,true,0.0-2.0-0.55-0.500-3.500,0,0,0,90,false,stim,false,0,520,1,0,1,47540,task1,1184852,false,false,1585,image-keyboard-response,26
true,13,1,2,1,true,z,false,true,0.0-2.0-0.55-0.501-3.501,0,0,0,90,false,stim,false,0,568,1,0,1,47540,task1,1186948,false,false,1588,image-keyboard-response,27
true,13,1,2,1,true,z,false,true,0.0-2.0-0.55-0.502-3.502,0,0,0,90,false,stim,false,0,495,1,0,1,47540,task1,1188963,false,false,1591,image-keyboard-response,28
true,13,2,2,2,true,d,false,true,0.0-2.0-0.55-0.503-3.503,0,0,0,68,false,stim,false,1,612,1,0,0,47540,task1,1191092,false,false,1594,image-keyboard-response,29
true,13,2,2,2,true,d,false,true,0.0-2.0-0.56-0.504-3.504,0,0,0,68,false,stim,false,1,511,1,0,0,47540,task1,1193132,false,false,1597,image-keyboard-response,30
true,13,1,2,1,true,z,false,true,0.0-2.0-0.56-0.505-3.505,0,0,0,90,false,stim,false,0,1012,1,0,1,47540,task1,1195668,false,false,1600,image-keyboard-response,31
true,13,0,2,0,true,q,false,false,0.0-2.0-0.56-0.506-3.506,0,0,0,81,false,stim,false,2,577,1,0,2,47540,task1,1197781,false,true,1603,image-keyboard-response,32
true,13,2,2,2,true,d,false,true,0.0-2.0-0.56-0.507-3.507,0,0,0,68,false,stim,false,1,1097,1,0,0,47540,task1,1200390,false,false,1606,image-keyboard-response,33
true,13,1,2,1,true,z,false,true,0.0-2.0-0.56-0.508-3.508,0,0,0,90,false,stim,false,0,683,1,0,1,47540,task1,1202621,false,false,1609,image-keyboard-response,34
true,13,2,2,2,true,d,false,true,0.0-2.0-0.56-0.509-3.509,0,0,0,68,false,stim,false,1,627,1,0,0,47540,task1,1204765,false,false,1612,image-keyboard-response,35
true,13,0,2,0,true,q,false,true,0.0-2.0-0.56-0.510-3.510,0,0,0,81,false,stim,false,2,791,1,0,2,47540,task1,1207084,false,false,1615,image-keyboard-response,36
true,13,0,2,0,true,q,false,true,0.0-2.0-0.56-0.511-3.511,0,0,0,81,false,stim,false,2,531,1,0,2,47540,task1,1209124,false,false,1618,image-keyboard-response,37
true,13,1,2,1,true,z,false,true,0.0-2.0-0.56-0.512-3.512,0,0,0,90,false,stim,false,0,512,1,0,1,47540,task1,1211156,false,false,1621,image-keyboard-response,38
true,13,1,2,1,true,z,false,true,0.0-2.0-0.57-0.513-3.513,0,0,0,90,false,stim,false,0,488,1,1,1,47540,task1,1213171,false,false,1624,image-keyboard-response,39
true,13,2,2,2,true,d,false,true,0.0-2.0-0.57-0.514-3.514,0,0,0,68,false,stim,false,1,501,1,1,0,47540,task1,1215206,false,false,1627,image-keyboard-response,40
true,13,2,2,2,true,d,false,true,0.0-2.0-0.57-0.515-3.515,0,0,0,68,false,stim,false,1,594,1,1,0,47540,task1,1217324,false,false,1630,image-keyboard-response,41
true,13,0,2,0,true,q,false,true,0.0-2.0-0.57-0.516-3.516,0,0,0,81,false,stim,false,2,622,1,1,2,47540,task1,1219476,false,false,1633,image-keyboard-response,42
true,13,2,2,2,true,d,false,true,0.0-2.0-0.57-0.517-3.517,0,0,0,68,false,stim,false,1,686,1,1,0,47540,task1,1221668,false,false,1636,image-keyboard-response,43
true,14,1,0,1,true,z,false,true,0.0-2.0-0.57-0.518-3.518,1,1,1,90,true,stim,false,1,798,1,1,1,47540,task1,1228355,false,false,1644,image-keyboard-response,1
true,14,0,0,0,true,q,false,true,0.0-2.0-0.57-0.519-3.519,1,1,1,81,false,stim,false,0,675,1,1,2,47540,task1,1230548,false,false,1647,image-keyboard-response,2
true,14,0,0,0,true,q,false,true,0.0-2.0-0.57-0.520-3.520,1,1,1,81,false,stim,false,0,507,1,1,2,47540,task1,1232580,false,false,1650,image-keyboard-response,3
true,14,1,0,1,true,z,false,true,0.0-2.0-0.57-0.521-3.521,1,1,1,90,false,stim,false,1,582,1,1,1,47540,task1,1234683,false,false,1653,image-keyboard-response,4
true,14,1,0,1,true,z,false,true,0.0-2.0-0.58-0.522-3.522,1,1,1,90,false,stim,false,1,441,1,1,1,47540,task1,1236644,false,false,1656,image-keyboard-response,5
true,14,2,0,2,true,d,false,true,0.0-2.0-0.58-0.523-3.523,1,1,1,68,false,stim,false,2,389,1,1,0,47540,task1,1238556,false,false,1659,image-keyboard-response,6
true,14,2,0,2,true,d,false,true,0.0-2.0-0.58-0.524-3.524,1,1,1,68,false,stim,false,2,512,1,1,0,47540,task1,1240588,false,false,1662,image-keyboard-response,7
true,14,0,0,0,true,q,false,true,0.0-2.0-0.58-0.525-3.525,1,1,1,81,false,stim,false,0,772,1,1,2,47540,task1,1242876,false,false,1665,image-keyboard-response,8
true,14,0,0,0,true,q,false,true,0.0-2.0-0.58-0.526-3.526,1,1,1,81,false,stim,false,0,445,1,0,2,47540,task1,1244828,false,false,1668,image-keyboard-response,9
true,14,2,0,2,true,d,false,false,0.0-2.0-0.58-0.527-3.527,1,1,1,68,false,stim,false,2,859,1,0,0,47540,task1,1247211,false,true,1671,image-keyboard-response,10
true,14,1,0,1,true,z,false,true,0.0-2.0-0.58-0.528-3.528,1,1,1,90,false,stim,false,1,665,1,0,1,47540,task1,1249389,false,false,1674,image-keyboard-response,11
true,14,1,0,1,true,z,false,true,0.0-2.0-0.58-0.529-3.529,1,1,1,90,false,stim,false,1,478,1,0,1,47540,task1,1251404,false,false,1677,image-keyboard-response,12
true,14,0,0,0,true,q,false,true,0.0-2.0-0.58-0.530-3.530,1,1,1,81,false,stim,false,0,647,1,0,2,47540,task1,1253597,false,false,1680,image-keyboard-response,13
true,15,0,2,2,false,d,false,false,0.0-2.0-0.59-0.531-3.531,0,0,0,81,true,stim,true,0,587,1,0,2,47540,task1,1255700,false,false,1683,image-keyboard-response,1
true,15,1,2,2,false,d,false,false,0.0-2.0-0.59-0.532-3.532,0,0,0,90,false,stim,true,1,619,1,0,1,47540,task1,1257838,false,false,1686,image-keyboard-response,2
true,15,0,2,2,false,d,false,false,0.0-2.0-0.59-0.533-3.533,0,0,0,81,false,stim,true,0,640,1,0,2,47540,task1,1260028,false,false,1689,image-keyboard-response,3
true,15,2,2,0,false,q,false,false,0.0-2.0-0.59-0.534-3.534,0,0,0,68,false,stim,true,2,724,1,0,0,47540,task1,1262269,false,false,1692,image-keyboard-response,4
true,15,1,2,0,false,q,true,false,0.0-2.0-0.59-0.535-3.535,0,0,0,90,false,stim,false,2,747,1,0,0,47540,task1,1264532,false,false,1695,image-keyboard-response,5
true,15,1,2,2,false,d,false,false,0.0-2.0-0.59-0.536-3.536,0,0,0,90,false,stim,true,1,893,1,0,1,47540,task1,1266934,false,false,1698,image-keyboard-response,6
true,15,1,2,2,false,d,true,true,0.0-2.0-0.59-0.537-3.537,0,0,0,90,false,stim,false,0,878,1,0,2,47540,task1,1269324,false,true,1701,image-keyboard-response,7
true,15,2,2,2,true,d,false,true,0.0-2.0-0.59-0.538-3.538,0,0,0,68,false,stim,false,1,1951,1,0,1,47540,task1,1272798,false,false,1704,image-keyboard-response,8
true,15,0,2,0,true,q,false,false,0.0-2.0-0.59-0.539-3.539,0,0,0,81,false,stim,false,2,583,1,0,0,47540,task1,1274900,false,true,1707,image-keyboard-response,9
true,15,1,2,2,false,d,true,false,0.0-2.0-0.60-0.540-3.540,0,0,0,90,false,stim,false,0,1450,1,0,2,47540,task1,1277877,false,false,1710,image-keyboard-response,10
true,15,2,2,0,false,q,false,true,0.0-2.0-0.60-0.541-3.541,0,0,0,68,false,stim,true,2,1159,1,0,0,47540,task1,1280572,false,true,1713,image-keyboard-response,11
true,15,1,2,2,false,d,true,false,0.0-2.0-0.60-0.542-3.542,0,0,0,90,false,stim,false,0,633,1,0,2,47540,task1,1282726,false,false,1716,image-keyboard-response,12
true,15,1,2,2,false,d,false,false,0.0-2.0-0.60-0.543-3.543,0,0,0,90,false,stim,true,1,514,1,0,1,47540,task1,1284774,false,false,1719,image-keyboard-response,13
true,15,2,2,0,false,q,false,false,0.0-2.0-0.60-0.544-3.544,0,0,0,68,false,stim,true,2,826,1,0,0,47540,task1,1287125,false,false,1722,image-keyboard-response,14
true,15,2,2,2,true,d,false,true,0.0-2.0-0.60-0.545-3.545,0,0,0,68,false,stim,false,1,2041,1,0,1,47540,task1,1290700,false,false,1725,image-keyboard-response,15
true,15,2,2,0,false,q,false,false,0.0-2.0-0.60-0.546-3.546,0,0,0,68,false,stim,true,2,428,1,0,0,47540,task1,1292662,false,false,1728,image-keyboard-response,16
true,15,2,2,2,true,d,false,true,0.0-2.0-0.60-0.547-3.547,0,0,0,68,false,stim,false,1,842,1,0,1,47540,task1,1295020,false,false,1731,image-keyboard-response,17
true,15,0,2,2,false,d,false,false,0.0-2.0-0.60-0.548-3.548,0,0,0,81,false,stim,true,0,483,1,0,2,47540,task1,1297020,false,false,1734,image-keyboard-response,18
true,15,2,2,2,true,d,false,false,0.0-2.0-0.61-0.549-3.549,0,0,0,68,false,stim,false,1,932,1,0,1,47540,task1,1299492,false,true,1737,image-keyboard-response,19
true,15,0,2,0,true,q,false,true,0.0-2.0-0.61-0.550-3.550,0,0,0,81,false,stim,false,2,884,1,0,0,47540,task1,1301908,false,false,1740,image-keyboard-response,20
true,15,2,2,2,true,d,false,true,0.0-2.0-0.61-0.551-3.551,0,0,0,68,false,stim,false,0,514,1,0,2,47540,task1,1303957,false,false,1743,image-keyboard-response,21
true,15,0,2,2,false,d,true,false,0.0-2.0-0.61-0.552-3.552,0,0,0,81,false,stim,false,1,632,1,0,1,47540,task1,1306125,false,false,1746,image-keyboard-response,22
true,15,2,2,2,true,d,false,true,0.0-2.0-0.61-0.553-3.553,0,0,0,68,false,stim,false,1,877,1,0,1,47540,task1,1308508,false,false,1749,image-keyboard-response,23
true,15,0,2,2,false,d,false,false,0.0-2.0-0.61-0.554-3.554,0,0,0,81,false,stim,true,0,2277,1,0,2,47540,task1,1312317,false,false,1752,image-keyboard-response,24
true,15,0,2,0,true,q,false,true,0.0-2.0-0.61-0.555-3.555,0,0,0,81,false,stim,false,2,793,1,0,0,47540,task1,1314632,false,false,1755,image-keyboard-response,25
true,15,2,2,2,true,d,false,true,0.0-2.0-0.61-0.556-3.556,0,0,0,68,false,stim,false,0,510,1,0,2,47540,task1,1316664,false,false,1758,image-keyboard-response,26
true,15,0,2,0,true,q,false,true,0.0-2.0-0.61-0.557-3.557,0,0,0,81,false,stim,false,2,559,1,0,0,47540,task1,1318751,false,false,1761,image-keyboard-response,27
true,15,2,2,2,true,d,false,true,0.0-2.0-0.62-0.558-3.558,0,0,0,68,false,stim,false,0,366,1,0,2,47540,task1,1320635,false,false,1764,image-keyboard-response,28
true,15,2,2,2,true,d,false,true,0.0-2.0-0.62-0.559-3.559,0,0,0,68,false,stim,false,0,430,1,0,2,47540,task1,1322599,false,false,1767,image-keyboard-response,29
true,15,0,2,0,true,q,false,true,0.0-2.0-0.62-0.560-3.560,0,0,0,81,false,stim,false,2,665,1,0,0,47540,task1,1324798,false,false,1770,image-keyboard-response,30
true,15,0,2,0,true,q,false,true,0.0-2.0-0.62-0.561-3.561,0,0,0,81,false,stim,false,2,495,1,0,0,47540,task1,1326803,false,false,1773,image-keyboard-response,31
true,15,2,2,2,true,d,false,true,0.0-2.0-0.62-0.562-3.562,0,0,0,68,false,stim,false,1,507,1,0,1,47540,task1,1328821,false,false,1776,image-keyboard-response,32
true,15,2,2,2,true,d,false,false,0.0-2.0-0.62-0.563-3.563,0,0,0,68,false,stim,false,0,412,1,0,2,47540,task1,1330750,false,true,1779,image-keyboard-response,33
true,15,0,2,0,true,q,false,true,0.0-2.0-0.62-0.564-3.564,0,0,0,81,false,stim,false,2,622,1,0,0,47540,task1,1332893,false,false,1782,image-keyboard-response,34
true,15,2,2,2,true,d,false,true,0.0-2.0-0.62-0.565-3.565,0,0,0,68,false,stim,false,1,495,1,0,1,47540,task1,1334926,false,false,1785,image-keyboard-response,35
true,15,2,2,2,true,d,false,true,0.0-2.0-0.62-0.566-3.566,0,0,0,68,false,stim,false,1,501,1,0,1,47540,task1,1336941,false,false,1788,image-keyboard-response,36
true,15,0,2,0,true,q,false,true,0.0-2.0-0.63-0.567-3.567,0,0,0,81,false,stim,false,2,486,1,0,0,47540,task1,1338949,false,false,1791,image-keyboard-response,37
true,15,2,2,2,true,d,false,true,0.0-2.0-0.63-0.568-3.568,0,0,0,68,false,stim,false,1,524,1,0,1,47540,task1,1341012,false,false,1794,image-keyboard-response,38
true,15,0,2,0,true,q,false,true,0.0-2.0-0.63-0.569-3.569,0,0,0,81,false,stim,false,2,728,1,0,0,47540,task1,1343261,false,false,1797,image-keyboard-response,39
true,15,2,2,2,true,d,false,true,0.0-2.0-0.63-0.570-3.570,0,0,0,68,false,stim,false,0,542,1,0,2,47540,task1,1345316,false,false,1800,image-keyboard-response,40
true,15,2,2,2,true,d,false,true,0.0-2.0-0.63-0.571-3.571,0,0,0,68,false,stim,false,1,640,1,0,1,47540,task1,1347484,false,false,1803,image-keyboard-response,41
true,15,2,2,2,true,d,false,true,0.0-2.0-0.63-0.572-3.572,0,0,0,68,false,stim,false,0,545,1,0,2,47540,task1,1349544,false,false,1806,image-keyboard-response,42
true,15,0,2,0,true,q,false,true,0.0-2.0-0.63-0.573-3.573,0,0,0,81,false,stim,false,2,624,1,0,0,47540,task1,1351692,false,false,1809,image-keyboard-response,43
true,15,2,2,2,true,d,false,true,0.0-2.0-0.63-0.574-3.574,0,0,0,68,false,stim,false,0,526,1,0,2,47540,task1,1353740,false,false,1812,image-keyboard-response,44
true,16,2,2,1,false,z,false,false,0.0-2.0-0.63-0.575-3.575,0,0,0,68,true,stim,true,2,1576,1,0,1,47540,task1,1356844,false,false,1815,image-keyboard-response,1
true,16,2,2,1,false,z,false,false,0.0-2.0-0.64-0.576-3.576,0,0,0,68,false,stim,true,2,504,1,0,1,47540,task1,1358877,false,false,1818,image-keyboard-response,2
true,16,2,2,0,false,q,false,false,0.0-2.0-0.64-0.577-3.577,0,0,0,68,false,stim,true,2,938,1,0,2,47540,task1,1361341,false,false,1821,image-keyboard-response,3
true,16,0,2,2,false,d,false,false,0.0-2.0-0.64-0.578-3.578,0,0,0,81,false,stim,true,0,601,1,0,0,47540,task1,1363462,false,false,1824,image-keyboard-response,4
true,16,1,2,1,true,z,false,true,0.0-2.0-0.64-0.579-3.579,0,0,0,90,false,stim,false,2,1567,1,0,1,47540,task1,1366551,false,false,1827,image-keyboard-response,5
true,16,1,2,0,false,q,true,false,0.0-2.0-0.64-0.580-3.580,0,0,0,90,false,stim,false,2,1236,1,0,2,47540,task1,1369310,false,false,1830,image-keyboard-response,6
true,16,0,2,0,true,q,false,true,0.0-2.0-0.64-0.581-3.581,0,0,0,81,false,stim,false,2,842,1,0,2,47540,task1,1371700,false,false,1833,image-keyboard-response,7
true,16,1,2,1,true,z,false,true,0.0-2.0-0.64-0.582-3.582,0,0,0,90,false,stim,false,2,864,1,0,1,47540,task1,1374068,false,false,1836,image-keyboard-response,8
true,16,2,2,2,true,d,false,true,0.0-2.0-0.64-0.583-3.583,0,0,0,68,false,stim,false,0,794,1,0,0,47540,task1,1376384,false,false,1839,image-keyboard-response,9
true,16,2,2,2,true,d,false,true,0.0-2.0-0.64-0.584-3.584,0,0,0,68,false,stim,false,0,696,1,0,0,47540,task1,1378605,false,false,1842,image-keyboard-response,10
true,16,2,2,2,true,d,false,true,0.0-2.0-0.65-0.585-3.585,0,0,0,68,false,stim,false,0,1377,1,0,0,47540,task1,1381509,false,false,1845,image-keyboard-response,11
true,16,0,2,0,true,q,false,true,0.0-2.0-0.65-0.586-3.586,0,0,0,81,false,stim,false,2,1214,1,0,2,47540,task1,1384236,false,false,1848,image-keyboard-response,12
true,16,1,2,1,true,z,false,true,0.0-2.0-0.65-0.587-3.587,0,0,0,90,false,stim,false,2,886,1,0,1,47540,task1,1386661,false,false,1851,image-keyboard-response,13
true,16,2,2,2,true,d,false,true,0.0-2.0-0.65-0.588-3.588,0,0,0,68,false,stim,false,0,569,1,0,0,47540,task1,1388757,false,false,1854,image-keyboard-response,14
true,16,0,2,0,true,q,false,true,0.0-2.0-0.65-0.589-3.589,0,0,0,81,false,stim,false,2,714,1,0,2,47540,task1,1390997,false,false,1857,image-keyboard-response,15
true,16,0,2,0,true,q,false,true,0.0-2.0-0.65-0.590-3.590,0,0,0,81,false,stim,false,2,428,1,0,2,47540,task1,1392948,false,false,1860,image-keyboard-response,16
true,16,2,2,2,true,d,false,true,0.0-2.0-0.65-0.591-3.591,0,0,0,68,false,stim,false,0,793,1,0,0,47540,task1,1395246,false,false,1863,image-keyboard-response,17
true,16,1,2,1,true,z,false,true,0.0-2.0-0.65-0.592-3.592,0,0,0,90,false,stim,false,2,598,1,0,1,47540,task1,1397413,false,false,1866,image-keyboard-response,18
true,16,1,2,1,true,z,false,true,0.0-2.0-0.65-0.593-3.593,0,0,0,90,false,stim,false,2,537,1,0,1,47540,task1,1399460,false,false,1869,image-keyboard-response,19
true,16,0,2,0,true,q,false,true,0.0-2.0-0.66-0.594-3.594,0,0,0,81,false,stim,false,2,534,1,0,2,47540,task1,1401516,false,false,1872,image-keyboard-response,20
true,16,1,2,1,true,z,false,true,0.0-2.0-0.66-0.595-3.595,0,0,0,90,false,stim,false,2,763,1,0,1,47540,task1,1403788,false,false,1875,image-keyboard-response,21
true,16,2,2,2,true,d,false,true,0.0-2.0-0.66-0.596-3.596,0,0,0,68,false,stim,false,0,529,1,0,0,47540,task1,1405836,false,false,1878,image-keyboard-response,22
true,16,1,2,1,true,z,false,true,0.0-2.0-0.66-0.597-3.597,0,0,0,90,false,stim,false,2,806,1,0,1,47540,task1,1408172,false,false,1881,image-keyboard-response,23
true,16,1,2,1,true,z,false,true,0.0-2.0-0.66-0.598-3.598,0,0,0,90,false,stim,false,2,442,1,0,1,47540,task1,1410132,false,false,1884,image-keyboard-response,24
true,16,2,2,2,true,d,false,true,0.0-2.0-0.66-0.599-3.599,0,0,0,68,false,stim,false,0,534,1,0,0,47540,task1,1412182,false,false,1887,image-keyboard-response,25
true,16,0,2,0,true,q,false,true,0.0-2.0-0.66-0.600-3.600,0,0,0,81,false,stim,false,2,678,1,0,2,47540,task1,1414388,false,false,1890,image-keyboard-response,26
true,16,2,2,2,true,d,false,true,0.0-2.0-0.66-0.601-3.601,0,0,0,68,false,stim,false,0,744,1,0,0,47540,task1,1416644,false,false,1893,image-keyboard-response,27
true,16,0,2,0,true,q,false,true,0.0-2.0-0.66-0.602-3.602,0,0,0,81,false,stim,false,2,653,1,0,2,47540,task1,1418828,false,false,1896,image-keyboard-response,28
true,16,1,2,1,true,z,false,true,0.0-2.0-0.67-0.603-3.603,0,0,0,90,false,stim,false,2,564,1,0,1,47540,task1,1420916,false,false,1899,image-keyboard-response,29
true,16,1,2,1,true,z,false,true,0.0-2.0-0.67-0.604-3.604,0,0,0,90,false,stim,false,2,620,1,0,1,47540,task1,1423070,false,false,1902,image-keyboard-response,30
true,16,2,2,0,false,q,false,false,0.0-2.0-0.67-0.605-3.605,0,0,0,68,false,stim,true,2,848,1,0,2,47540,task1,1425461,false,false,1905,image-keyboard-response,31
true,16,0,2,0,true,q,false,true,0.0-2.0-0.67-0.606-3.606,0,0,0,81,false,stim,false,2,507,1,0,2,47540,task1,1427492,false,false,1908,image-keyboard-response,32
true,16,0,2,0,true,q,false,true,0.0-2.0-0.67-0.607-3.607,0,0,0,81,false,stim,false,2,544,1,0,2,47540,task1,1429564,false,false,1911,image-keyboard-response,33
true,16,2,2,2,true,d,false,true,0.0-2.0-0.67-0.608-3.608,0,0,0,68,false,stim,false,0,636,1,0,0,47540,task1,1431717,false,false,1914,image-keyboard-response,34
true,16,2,2,2,true,d,false,true,0.0-2.0-0.67-0.609-3.609,0,0,0,68,false,stim,false,0,446,1,0,0,47540,task1,1433700,false,false,1917,image-keyboard-response,35
true,16,2,2,2,true,d,false,true,0.0-2.0-0.67-0.610-3.610,0,0,0,68,false,stim,false,0,518,1,0,0,47540,task1,1435741,false,false,1920,image-keyboard-response,36
true,16,1,2,1,true,z,false,true,0.0-2.0-0.67-0.611-3.611,0,0,0,90,false,stim,false,2,1101,1,0,1,47540,task1,1438348,false,false,1923,image-keyboard-response,37
true,16,2,2,2,true,d,false,true,0.0-2.0-0.68-0.612-3.612,0,0,0,68,false,stim,false,0,652,1,0,0,47540,task1,1440525,false,false,1926,image-keyboard-response,38
true,16,0,2,0,true,q,false,true,0.0-2.0-0.68-0.613-3.613,0,0,0,81,false,stim,false,2,471,1,0,2,47540,task1,1442516,false,false,1929,image-keyboard-response,39
true,16,0,2,0,true,q,false,true,0.0-2.0-0.68-0.614-3.614,0,0,0,81,false,stim,false,2,437,1,0,2,47540,task1,1444484,false,false,1932,image-keyboard-response,40
true,16,0,2,0,true,q,false,true,0.0-2.0-0.68-0.615-3.615,0,0,0,81,false,stim,false,2,476,1,0,2,47540,task1,1446477,false,false,1935,image-keyboard-response,41
true,16,1,2,1,true,z,false,true,0.0-2.0-0.68-0.616-3.616,0,0,0,90,false,stim,false,2,559,1,0,1,47540,task1,1448564,false,false,1938,image-keyboard-response,42
true,16,2,2,2,true,d,false,true,0.0-2.0-0.68-0.617-3.617,0,0,0,68,false,stim,false,0,558,1,0,0,47540,task1,1450653,false,false,1941,image-keyboard-response,43
true,16,1,2,1,true,z,false,true,0.0-2.0-0.68-0.618-3.618,0,0,0,90,false,stim,false,2,911,1,0,1,47540,task1,1453101,false,false,1944,image-keyboard-response,44
true,17,1,1,2,false,d,false,true,0.0-2.0-0.68-0.619-3.619,0,0,0,90,true,stim,true,1,565,1,0,1,47540,task1,1455173,false,true,1947,image-keyboard-response,1
true,17,2,1,1,false,z,false,false,0.0-2.0-0.68-0.620-3.620,0,0,0,68,false,stim,true,2,731,1,0,0,47540,task1,1457428,false,false,1950,image-keyboard-response,2
true,17,1,1,2,false,d,false,false,0.0-2.0-0.69-0.621-3.621,0,0,0,90,false,stim,true,1,985,1,0,1,47540,task1,1459934,false,false,1953,image-keyboard-response,3
true,17,1,1,2,false,d,false,true,0.0-2.0-0.69-0.622-3.622,0,0,0,90,false,stim,true,1,515,1,0,1,47540,task1,1461988,false,true,1956,image-keyboard-response,4
true,17,0,1,1,false,z,false,false,0.0-2.0-0.69-0.623-3.623,0,0,0,81,false,stim,true,0,592,1,0,2,47540,task1,1464094,false,false,1959,image-keyboard-response,5
true,17,2,1,1,false,z,false,true,0.0-2.0-0.69-0.624-3.624,0,0,0,68,false,stim,true,2,738,1,0,0,47540,task1,1466340,false,true,1962,image-keyboard-response,6
true,17,2,1,1,false,z,false,false,0.0-2.0-0.69-0.625-3.625,0,0,0,68,false,stim,true,2,1158,1,0,0,47540,task1,1469012,false,false,1965,image-keyboard-response,7
true,17,1,1,1,true,z,false,true,0.0-2.0-0.69-0.626-3.626,0,0,0,90,false,stim,false,0,982,1,0,2,47540,task1,1471517,false,false,1968,image-keyboard-response,8
true,17,1,1,2,false,d,false,false,0.0-2.0-0.69-0.627-3.627,0,0,0,90,false,stim,true,1,511,1,0,1,47540,task1,1473548,false,false,1971,image-keyboard-response,9
true,17,2,1,1,false,z,false,false,0.0-2.0-0.69-0.628-3.628,0,0,0,68,false,stim,true,2,724,1,0,0,47540,task1,1475788,false,false,1974,image-keyboard-response,10
true,17,1,1,1,true,z,false,true,0.0-2.0-0.69-0.629-3.629,0,0,0,90,false,stim,false,0,733,1,0,2,47540,task1,1478036,false,false,1977,image-keyboard-response,11
true,17,1,1,1,true,z,false,true,0.0-2.0-0.70-0.630-3.630,0,0,0,90,false,stim,false,0,801,1,0,2,47540,task1,1480365,false,false,1980,image-keyboard-response,12
true,17,1,1,1,true,z,false,true,0.0-2.0-0.70-0.631-3.631,0,0,0,90,false,stim,false,0,493,1,0,2,47540,task1,1482373,false,false,1983,image-keyboard-response,13
true,17,1,1,1,true,z,false,true,0.0-2.0-0.70-0.632-3.632,0,0,0,90,false,stim,false,0,494,1,0,2,47540,task1,1484397,false,false,1986,image-keyboard-response,14
true,17,0,1,1,false,z,true,true,0.0-2.0-0.70-0.633-3.633,0,0,0,81,false,stim,false,2,678,1,0,0,47540,task1,1486597,false,true,1989,image-keyboard-response,15
true,17,0,1,1,false,z,true,false,0.0-2.0-0.70-0.634-3.634,0,0,0,81,false,stim,false,2,544,1,0,0,47540,task1,1488679,false,false,1992,image-keyboard-response,16
