answered,blockNum,choice,condition,corResp,correct,correct_response,explo,fb,internal_node_id,isStable_1,isStable_2,isStable_3,key_press,newBlock,part,persev,persevResp,rt,sessNum,stableAS,stimulus,subject,task,time_elapsed,training,trap,trial_index,trial_type,trialsInBlock
true,1,1,0,2,false,d,true,false,0.0-2.0-0.0-0.0-3.0,0,0,0,90,true,stim,false,-1,1171.3999999999069,0,0,2,47929,task1,248961,false,false,184,image-keyboard-response,1
true,1,1,0,0,false,q,true,false,0.0-2.0-0.0-0.1-3.1,0,0,0,90,false,stim,false,-1,865.8000000000466,0,0,0,47929,task1,251334,false,false,187,image-keyboard-response,2
true,1,0,0,0,true,q,false,true,0.0-2.0-0.0-0.2-3.2,0,0,0,81,false,stim,false,-1,891.5,0,0,0,47929,task1,253730,false,false,190,image-keyboard-response,3
true,1,2,0,1,false,z,true,false,0.0-2.0-0.0-0.3-3.3,0,0,0,68,false,stim,false,-1,1476.4000000001397,0,0,1,47929,task1,256713,false,false,193,image-keyboard-response,4
true,1,2,0,2,true,d,false,true,0.0-2.0-0.0-0.4-3.4,0,0,0,68,false,stim,false,-1,903.3000000000466,0,0,2,47929,task1,259123,false,false,196,image-keyboard-response,5
true,1,0,0,0,true,q,false,true,0.0-2.0-0.0-0.5-3.5,0,0,0,81,false,stim,false,-1,1076.0999999998603,0,0,0,47929,task1,261704,false,false,199,image-keyboard-response,6
true,1,1,0,1,true,z,false,true,0.0-2.0-0.0-0.6-3.6,0,0,0,90,false,stim,false,-1,476.0,0,0,1,47929,task1,263689,false,false,202,image-keyboard-response,7
true,1,2,0,2,true,d,false,true,0.0-2.0-0.0-0.7-3.7,0,0,0,68,false,stim,false,-1,849.6000000000931,0,0,2,47929,task1,266044,false,false,205,image-keyboard-response,8
true,1,1,0,1,true,z,false,true,0.0-2.0-0.0-0.8-3.8,0,0,0,90,false,stim,false,-1,732.5,0,0,1,47929,task1,268283,false,false,208,image-keyboard-response,9
true,1,2,0,2,true,d,false,true,0.0-2.0-0.1-0.9-3.9,0,0,0,68,false,stim,false,-1,600.6999999999534,0,0,2,47929,task1,270392,false,false,211,image-keyboard-response,10
true,1,2,0,2,true,d,false,true,0.0-2.0-0.1-0.10-3.10,0,0,0,68,false,stim,false,-1,633.4000000001397,0,0,2,47929,task1,272532,false,false,214,image-keyboard-response,11
true,1,2,0,2,true,d,false,true,0.0-2.0-0.1-0.11-3.11,0,0,0,68,false,stim,false,-1,657.1000000000931,0,0,2,47929,task1,274695,false,false,217,image-keyboard-response,12
true,1,0,0,0,true,q,false,true,0.0-2.0-0.1-0.12-3.12,0,0,0,81,false,stim,false,-1,640.3999999999069,0,0,0,47929,task1,276841,false,false,220,image-keyboard-response,13
true,1,1,0,1,true,z,false,true,0.0-2.0-0.1-0.13-3.13,0,0,0,90,false,stim,false,-1,807.9000000001397,0,0,1,47929,task1,279155,false,false,223,image-keyboard-response,14
true,1,1,0,1,true,z,false,true,0.0-2.0-0.1-0.14-3.14,0,0,0,90,false,stim,false,-1,604.0999999998603,0,0,1,47929,task1,281265,false,false,226,image-keyboard-response,15
true,1,1,0,1,true,z,false,true,0.0-2.0-0.1-0.15-3.15,0,0,0,90,false,stim,false,-1,576.3000000000466,0,0,1,47929,task1,283347,false,false,229,image-keyboard-response,16
true,1,0,0,0,true,q,false,true,0.0-2.0-0.1-0.16-3.16,0,0,0,81,false,stim,false,-1,608.0,0,0,0,47929,task1,285461,false,false,232,image-keyboard-response,17
true,1,0,0,0,true,q,false,true,0.0-2.0-0.1-0.17-3.17,0,0,0,81,false,stim,false,-1,701.8000000000466,0,0,0,47929,task1,287668,false,false,235,image-keyboard-response,18
true,1,0,0,0,true,q,false,true,0.0-2.0-0.2-0.18-3.18,0,0,0,81,false,stim,false,-1,463.19999999995343,0,0,0,47929,task1,289639,false,false,238,image-keyboard-response,19
true,1,2,0,2,true,d,false,true,0.0-2.0-0.2-0.19-3.19,0,0,0,68,false,stim,false,-1,842.0999999998603,0,0,2,47929,task1,291987,false,false,241,image-keyboard-response,20
true,1,0,0,0,true,q,false,true,0.0-2.0-0.2-0.20-3.20,0,0,0,81,false,stim,false,-1,543.1000000000931,0,0,0,47929,task1,294035,false,false,244,image-keyboard-response,21
true,1,2,0,2,true,d,false,true,0.0-2.0-0.2-0.21-3.21,0,0,0,68,false,stim,false,-1,1567.9000000001397,0,0,2,47929,task1,316377,false,false,248,image-keyboard-response,22
true,1,1,0,1,true,z,false,true,0.0-2.0-0.2-0.22-3.22,0,0,0,90,false,stim,false,-1,906.3000000000466,0,0,1,47929,task1,318792,false,false,251,image-keyboard-response,23
true,1,2,0,2,true,d,false,true,0.0-2.0-0.2-0.23-3.23,0,0,0,68,false,stim,false,-1,666.0,0,0,2,47929,task1,320979,false,false,254,image-keyboard-response,24
true,1,1,0,1,true,z,false,false,0.0-2.0-0.2-0.24-3.24,0,0,0,90,false,stim,false,-1,739.3000000000466,0,0,1,47929,task1,323255,false,true,257,image-keyboard-response,25
true,1,0,0,0,true,q,false,true,0.0-2.0-0.2-0.25-3.25,0,0,0,81,false,stim,false,-1,489.30000000004657,0,0,0,47929,task1,325274,false,false,260,image-keyboard-response,26
true,2,1,1,2,false,d,false,false,0.0-2.0-0.2-0.26-3.26,0,0,0,90,true,stim,true,1,446.5,0,0,1,47929,task1,327250,false,false,263,image-keyboard-response,1
true,2,0,1,2,false,d,false,true,0.0-2.0-0.3-0.27-3.27,0,0,0,81,false,stim,true,0,610.7000000001863,0,0,0,47929,task1,329382,false,true,266,image-keyboard-response,2
true,2,0,1,2,false,d,true,false,0.0-2.0-0.3-0.28-3.28,0,0,0,81,false,stim,false,1,631.1000000000931,0,0,1,47929,task1,331541,false,false,269,image-keyboard-response,3
true,2,2,1,2,true,d,false,true,0.0-2.0-0.3-0.29-3.29,0,0,0,68,false,stim,false,1,585.0,0,0,1,47929,task1,333645,false,false,272,image-keyboard-response,4
true,2,0,1,2,false,d,false,false,0.0-2.0-0.3-0.30-3.30,0,0,0,81,false,stim,true,0,610.0,0,0,0,47929,task1,335774,false,false,275,image-keyboard-response,5
true,2,2,1,1,false,z,false,false,0.0-2.0-0.3-0.31-3.31,0,0,0,68,false,stim,true,2,781.4000000001397,0,0,2,47929,task1,338079,false,false,278,image-keyboard-response,6
true,2,1,1,1,true,z,false,false,0.0-2.0-0.3-0.32-3.32,0,0,0,90,false,stim,false,2,751.6999999999534,0,0,2,47929,task1,340351,false,true,281,image-keyboard-response,7
true,2,2,1,2,true,d,false,true,0.0-2.0-0.3-0.33-3.33,0,0,0,68,false,stim,false,1,751.0,0,0,1,47929,task1,342636,false,false,284,image-keyboard-response,8
true,2,0,1,1,false,z,true,false,0.0-2.0-0.3-0.34-3.34,0,0,0,81,false,stim,false,2,867.6000000000931,0,0,2,47929,task1,345039,false,false,287,image-keyboard-response,9
true,2,1,1,2,false,d,true,false,0.0-2.0-0.3-0.35-3.35,0,0,0,90,false,stim,false,0,697.9000000001397,0,0,0,47929,task1,347243,false,false,290,image-keyboard-response,10
true,2,2,1,2,true,d,false,true,0.0-2.0-0.4-0.36-3.36,0,0,0,68,false,stim,false,1,725.8000000000466,0,0,1,47929,task1,349475,false,false,293,image-keyboard-response,11
true,2,2,1,2,true,d,false,true,0.0-2.0-0.4-0.37-3.37,0,0,0,68,false,stim,false,0,922.1999999999534,0,0,0,47929,task1,351905,false,false,296,image-keyboard-response,12
true,2,2,1,2,true,d,false,true,0.0-2.0-0.4-0.38-3.38,0,0,0,68,false,stim,false,0,780.1999999999534,0,0,0,47929,task1,354191,false,false,299,image-keyboard-response,13
true,2,0,1,1,false,z,true,false,0.0-2.0-0.4-0.39-3.39,0,0,0,81,false,stim,false,2,857.6000000000931,0,0,2,47929,task1,356557,false,false,302,image-keyboard-response,14
true,2,2,1,2,true,d,false,true,0.0-2.0-0.4-0.40-3.40,0,0,0,68,false,stim,false,1,809.5,0,0,1,47929,task1,358872,false,false,305,image-keyboard-response,15
true,2,1,1,1,true,z,false,false,0.0-2.0-0.4-0.41-3.41,0,0,0,90,false,stim,false,2,709.8999999999069,0,0,2,47929,task1,361088,false,true,308,image-keyboard-response,16
true,2,2,1,2,true,d,false,true,0.0-2.0-0.4-0.42-3.42,0,0,0,68,false,stim,false,1,496.0999999998603,0,0,1,47929,task1,363089,false,false,311,image-keyboard-response,17
true,2,2,1,2,true,d,false,true,0.0-2.0-0.4-0.43-3.43,0,0,0,68,false,stim,false,0,366.69999999995343,0,0,0,47929,task1,364961,false,false,314,image-keyboard-response,18
true,2,2,1,1,false,z,false,false,0.0-2.0-0.4-0.44-3.44,0,0,0,68,false,stim,true,2,374.80000000004657,0,0,2,47929,task1,366841,false,false,317,image-keyboard-response,19
true,2,2,1,2,true,d,false,true,0.0-2.0-0.5-0.45-3.45,0,0,0,68,false,stim,false,1,596.3999999999069,0,0,1,47929,task1,368944,false,false,320,image-keyboard-response,20
true,2,2,1,1,false,z,false,false,0.0-2.0-0.5-0.46-3.46,0,0,0,68,false,stim,true,2,550.6999999999534,0,0,2,47929,task1,371000,false,false,323,image-keyboard-response,21
true,2,2,1,2,true,d,false,true,0.0-2.0-0.5-0.47-3.47,0,0,0,68,false,stim,false,1,473.89999999990687,0,0,1,47929,task1,372980,false,false,326,image-keyboard-response,22
true,2,2,1,2,true,d,false,true,0.0-2.0-0.5-0.48-3.48,0,0,0,68,false,stim,false,1,566.2999999998137,0,0,1,47929,task1,375051,false,false,329,image-keyboard-response,23
true,2,1,1,1,true,z,false,false,0.0-2.0-0.5-0.49-3.49,0,0,0,90,false,stim,false,2,504.60000000009313,0,0,2,47929,task1,377061,false,true,332,image-keyboard-response,24
true,2,2,1,2,true,d,false,true,0.0-2.0-0.5-0.50-3.50,0,0,0,68,false,stim,false,0,873.8000000000466,0,0,0,47929,task1,379441,false,false,335,image-keyboard-response,25
true,2,2,1,2,true,d,false,true,0.0-2.0-0.5-0.51-3.51,0,0,0,68,false,stim,false,0,519.6999999999534,0,0,0,47929,task1,381468,false,false,338,image-keyboard-response,26
true,2,0,1,1,false,z,true,false,0.0-2.0-0.5-0.52-3.52,0,0,0,81,false,stim,false,2,556.6000000000931,0,0,2,47929,task1,383531,false,false,341,image-keyboard-response,27
true,2,2,1,2,true,d,false,true,0.0-2.0-0.5-0.53-3.53,0,0,0,68,false,stim,false,0,636.6000000000931,0,0,0,47929,task1,385674,false,false,344,image-keyboard-response,28
true,2,0,1,1,false,z,true,false,0.0-2.0-0.6-0.54-3.54,0,0,0,81,false,stim,false,2,573.1000000000931,0,0,2,47929,task1,387753,false,false,347,image-keyboard-response,29
true,2,2,1,2,true,d,false,true,0.0-2.0-0.6-0.55-3.55,0,0,0,68,false,stim,false,1,480.80000000004657,0,0,1,47929,task1,389741,false,false,350,image-keyboard-response,30
true,2,2,1,1,false,z,false,false,0.0-2.0-0.6-0.56-3.56,0,0,0,68,false,stim,true,2,695.0,0,0,2,47929,task1,391945,false,false,353,image-keyboard-response,31
true,2,1,1,1,true,z,false,true,0.0-2.0-0.6-0.57-3.57,0,0,0,90,false,stim,false,2,537.0,0,0,2,47929,task1,393987,false,false,356,image-keyboard-response,32
true,2,2,1,2,true,d,false,true,0.0-2.0-0.6-0.58-3.58,0,0,0,68,false,stim,false,0,635.5,0,0,0,47929,task1,396128,false,false,359,image-keyboard-response,33
true,2,2,1,2,true,d,false,true,0.0-2.0-0.6-0.59-3.59,0,0,0,68,false,stim,false,0,554.5,0,0,0,47929,task1,398189,false,false,362,image-keyboard-response,34
true,2,2,1,2,true,d,false,false,0.0-2.0-0.6-0.60-3.60,0,0,0,68,false,stim,false,1,530.0999999998603,0,0,1,47929,task1,400224,false,true,365,image-keyboard-response,35
true,2,2,1,2,true,d,false,true,0.0-2.0-0.6-0.61-3.61,0,0,0,68,false,stim,false,0,767.1000000000931,0,0,0,47929,task1,402497,false,false,368,image-keyboard-response,36
true,2,2,1,2,true,d,false,true,0.0-2.0-0.6-0.62-3.62,0,0,0,68,false,stim,false,1,519.5,0,0,1,47929,task1,404522,false,false,371,image-keyboard-response,37
true,2,1,1,1,true,z,false,false,0.0-2.0-0.7-0.63-3.63,0,0,0,90,false,stim,false,2,486.89999999990687,0,0,2,47929,task1,406516,false,true,374,image-keyboard-response,38
true,2,2,1,2,true,d,false,true,0.0-2.0-0.7-0.64-3.64,0,0,0,68,false,stim,false,1,650.8999999999069,0,0,1,47929,task1,408672,false,false,377,image-keyboard-response,39
true,3,1,1,0,false,q,false,false,0.0-2.0-0.7-0.65-3.65,0,0,0,90,true,stim,true,1,432.5,0,0,2,47929,task1,410612,false,false,380,image-keyboard-response,1
true,3,2,1,1,false,z,false,false,0.0-2.0-0.7-0.66-3.66,0,0,0,68,false,stim,true,2,661.1000000000931,0,0,0,47929,task1,412778,false,false,383,image-keyboard-response,2
true,3,2,1,1,false,z,false,false,0.0-2.0-0.7-0.67-3.67,0,0,0,68,false,stim,true,2,411.30000000004657,0,0,1,47929,task1,414696,false,false,386,image-keyboard-response,3
true,3,2,1,1,false,z,false,false,0.0-2.0-0.7-0.68-3.68,0,0,0,68,false,stim,true,2,435.80000000004657,0,0,0,47929,task1,416637,false,false,389,image-keyboard-response,4
true,3,2,1,0,false,q,true,false,0.0-2.0-0.7-0.69-3.69,0,0,0,68,false,stim,false,1,598.3000000000466,0,0,2,47929,task1,418742,false,false,392,image-keyboard-response,5
true,3,1,1,1,true,z,false,true,0.0-2.0-0.7-0.70-3.70,0,0,0,90,false,stim,false,2,725.2000000001863,0,0,0,47929,task1,420972,false,false,395,image-keyboard-response,6
true,3,1,1,1,true,z,false,true,0.0-2.0-0.7-0.71-3.71,0,0,0,90,false,stim,false,2,566.3000000000466,0,0,1,47929,task1,423046,false,false,398,image-keyboard-response,7
true,3,1,1,0,false,q,false,false,0.0-2.0-0.8-0.72-3.72,0,0,0,90,false,stim,true,1,409.5,0,0,2,47929,task1,424965,false,false,401,image-keyboard-response,8
true,3,1,1,1,true,z,false,true,0.0-2.0-0.8-0.73-3.73,0,0,0,90,false,stim,false,2,832.5999999998603,0,0,0,47929,task1,427305,false,false,404,image-keyboard-response,9
true,3,1,1,0,false,q,false,false,0.0-2.0-0.8-0.74-3.74,0,0,0,90,false,stim,true,1,379.89999999990687,0,0,2,47929,task1,429191,false,false,407,image-keyboard-response,10
true,3,1,1,1,true,z,false,true,0.0-2.0-0.8-0.75-3.75,0,0,0,90,false,stim,false,2,492.89999999990687,0,0,0,47929,task1,431190,false,false,410,image-keyboard-response,11
true,3,1,1,1,true,z,false,false,0.0-2.0-0.8-0.76-3.76,0,0,0,90,false,stim,false,2,481.80000000004657,0,0,0,47929,task1,433178,false,true,413,image-keyboard-response,12
true,3,0,1,1,false,z,true,false,0.0-2.0-0.8-0.77-3.77,0,0,0,81,false,stim,false,2,525.7000000001863,0,0,1,47929,task1,435210,false,false,416,image-keyboard-response,13
true,3,0,1,1,false,z,true,false,0.0-2.0-0.8-0.78-3.78,0,0,0,81,false,stim,false,2,594.1000000000931,0,0,1,47929,task1,437309,false,false,419,image-keyboard-response,14
true,3,0,1,0,true,q,false,true,0.0-2.0-0.8-0.79-3.79,0,0,0,81,false,stim,false,1,891.1999999999534,0,0,2,47929,task1,439705,false,false,422,image-keyboard-response,15
true,3,2,1,1,false,z,false,false,0.0-2.0-0.8-0.80-3.80,0,0,0,68,false,stim,true,2,868.0,0,0,1,47929,task1,442079,false,false,425,image-keyboard-response,16
true,3,0,1,0,true,q,false,true,0.0-2.0-0.9-0.81-3.81,0,0,0,81,false,stim,false,1,786.4000000001397,0,0,2,47929,task1,444372,false,false,428,image-keyboard-response,17
true,3,1,1,1,true,z,false,true,0.0-2.0-0.9-0.82-3.82,0,0,0,90,false,stim,false,2,457.9000000001397,0,0,0,47929,task1,446335,false,false,431,image-keyboard-response,18
true,3,1,1,1,true,z,false,false,0.0-2.0-0.9-0.83-3.83,0,0,0,90,false,stim,false,2,418.5999999998603,0,0,0,47929,task1,448259,false,true,434,image-keyboard-response,19
true,3,1,1,1,true,z,false,true,0.0-2.0-0.9-0.84-3.84,0,0,0,90,false,stim,false,2,425.19999999995343,0,0,1,47929,task1,450192,false,false,437,image-keyboard-response,20
true,3,0,1,0,true,q,false,true,0.0-2.0-0.9-0.85-3.85,0,0,0,81,false,stim,false,1,861.8000000000466,0,0,2,47929,task1,452562,false,false,440,image-keyboard-response,21
true,3,1,1,1,true,z,false,true,0.0-2.0-0.9-0.86-3.86,0,0,0,90,false,stim,false,2,744.3999999999069,0,0,0,47929,task1,454812,false,false,443,image-keyboard-response,22
true,3,1,1,1,true,z,false,true,0.0-2.0-0.9-0.87-3.87,0,0,0,90,false,stim,false,2,457.29999999981374,0,0,1,47929,task1,456775,false,false,446,image-keyboard-response,23
true,3,0,1,0,true,q,false,true,0.0-2.0-0.9-0.88-3.88,0,0,0,81,false,stim,false,1,486.0999999998603,0,0,2,47929,task1,458767,false,false,449,image-keyboard-response,24
true,3,1,1,1,true,z,false,false,0.0-2.0-0.9-0.89-3.89,0,0,0,90,false,stim,false,2,598.8999999999069,0,0,1,47929,task1,460872,false,true,452,image-keyboard-response,25
true,3,1,1,1,true,z,false,true,0.0-2.0-0.10-0.90-3.90,0,0,0,90,false,stim,false,2,413.0,0,0,0,47929,task1,462800,false,false,455,image-keyboard-response,26
true,3,0,1,0,true,q,false,true,0.0-2.0-0.10-0.91-3.91,0,0,0,81,false,stim,false,1,684.6000000000931,0,0,2,47929,task1,464991,false,false,458,image-keyboard-response,27
true,3,0,1,0,true,q,false,true,0.0-2.0-0.10-0.92-3.92,0,0,0,81,false,stim,false,1,558.3999999999069,0,0,2,47929,task1,467055,false,false,461,image-keyboard-response,28
true,3,1,1,1,true,z,false,true,0.0-2.0-0.10-0.93-3.93,0,0,0,90,false,stim,false,2,765.5,0,0,1,47929,task1,469326,false,false,464,image-keyboard-response,29
true,3,1,1,1,true,z,false,true,0.0-2.0-0.10-0.94-3.94,0,0,0,90,false,stim,false,2,691.5,0,0,1,47929,task1,471524,false,false,467,image-keyboard-response,30
true,3,1,1,1,true,z,false,true,0.0-2.0-0.10-0.95-3.95,0,0,0,90,false,stim,false,2,409.89999999990687,0,0,1,47929,task1,473442,false,false,470,image-keyboard-response,31
true,3,1,1,1,true,z,false,true,0.0-2.0-0.10-0.96-3.96,0,0,0,90,false,stim,false,2,580.5,0,0,0,47929,task1,475527,false,false,473,image-keyboard-response,32
true,3,0,1,0,true,q,false,true,0.0-2.0-0.10-0.97-3.97,0,0,0,81,false,stim,false,1,619.5999999998603,0,0,2,47929,task1,477654,false,false,476,image-keyboard-response,33
true,3,1,1,1,true,z,false,true,0.0-2.0-0.10-0.98-3.98,0,0,0,90,false,stim,false,2,483.19999999995343,0,0,0,47929,task1,479644,false,false,479,image-keyboard-response,34
true,3,1,1,1,true,z,false,true,0.0-2.0-0.11-0.99-3.99,0,0,0,90,false,stim,false,2,613.0999999998603,0,0,1,47929,task1,481763,false,false,482,image-keyboard-response,35
true,3,1,1,1,true,z,false,true,0.0-2.0-0.11-0.100-3.100,0,0,0,90,false,stim,false,2,541.1999999999534,0,0,0,47929,task1,483810,false,false,485,image-keyboard-response,36
true,3,1,1,1,true,z,false,true,0.0-2.0-0.11-0.101-3.101,0,0,0,90,false,stim,false,2,1199.7000000001863,0,0,1,47929,task1,486516,false,false,488,image-keyboard-response,37
true,3,0,1,0,true,q,false,true,0.0-2.0-0.11-0.102-3.102,0,0,0,81,false,stim,false,1,411.69999999995343,0,0,2,47929,task1,488434,false,false,491,image-keyboard-response,38
true,3,1,1,1,true,z,false,true,0.0-2.0-0.11-0.103-3.103,0,0,0,90,false,stim,false,2,593.3999999999069,0,0,1,47929,task1,490535,false,false,494,image-keyboard-response,39
true,3,1,1,1,true,z,false,true,0.0-2.0-0.11-0.104-3.104,0,0,0,90,false,stim,false,2,464.89999999990687,0,0,0,47929,task1,492506,false,false,497,image-keyboard-response,40
true,4,0,1,1,false,z,false,false,0.0-2.0-0.11-0.105-3.105,0,0,0,81,true,stim,true,0,615.2999999998137,0,0,2,47929,task1,494628,false,false,500,image-keyboard-response,1
true,4,1,1,0,false,q,false,false,0.0-2.0-0.11-0.106-3.106,0,0,0,90,false,stim,true,1,466.29999999981374,0,0,0,47929,task1,496607,false,false,503,image-keyboard-response,2
true,4,1,1,1,true,z,false,true,0.0-2.0-0.11-0.107-3.107,0,0,0,90,false,stim,false,0,856.8000000000466,0,0,2,47929,task1,498969,false,false,506,image-keyboard-response,3
true,4,2,1,0,false,q,true,false,0.0-2.0-0.12-0.108-3.108,0,0,0,68,false,stim,false,1,809.3000000000466,0,0,1,47929,task1,501285,false,false,509,image-keyboard-response,4
true,4,2,1,0,false,q,true,false,0.0-2.0-0.12-0.109-3.109,0,0,0,68,false,stim,false,1,1003.0,0,0,0,47929,task1,503794,false,false,512,image-keyboard-response,5
true,4,1,1,1,true,z,false,true,0.0-2.0-0.12-0.110-3.110,0,0,0,90,false,stim,false,0,755.3000000000466,0,0,2,47929,task1,506056,false,false,515,image-keyboard-response,6
true,4,0,1,0,true,q,false,true,0.0-2.0-0.12-0.111-3.111,0,0,0,81,false,stim,false,1,423.80000000004657,0,0,0,47929,task1,507987,false,false,518,image-keyboard-response,7
true,4,0,1,0,true,q,false,true,0.0-2.0-0.12-0.112-3.112,0,0,0,81,false,stim,false,1,881.0,0,0,1,47929,task1,510374,false,false,521,image-keyboard-response,8
true,4,0,1,0,true,q,false,true,0.0-2.0-0.12-0.113-3.113,0,0,0,81,false,stim,false,1,849.3999999999069,0,0,1,47929,task1,512732,false,false,524,image-keyboard-response,9
true,4,1,1,1,true,z,false,true,0.0-2.0-0.12-0.114-3.114,0,0,0,90,false,stim,false,0,500.10000000009313,0,0,2,47929,task1,514738,false,false,527,image-keyboard-response,10
true,4,0,1,0,true,q,false,true,0.0-2.0-0.12-0.115-3.115,0,0,0,81,false,stim,false,1,539.6000000000931,0,0,0,47929,task1,516784,false,false,530,image-keyboard-response,11
true,4,1,1,1,true,z,false,true,0.0-2.0-0.12-0.116-3.116,0,0,0,90,false,stim,false,0,817.6999999999534,0,0,2,47929,task1,519107,false,false,533,image-keyboard-response,12
true,4,1,1,1,true,z,false,true,0.0-2.0-0.13-0.117-3.117,0,0,0,90,false,stim,false,0,587.0,0,0,2,47929,task1,521201,false,false,536,image-keyboard-response,13
true,4,0,1,0,true,q,false,false,0.0-2.0-0.13-0.118-3.118,0,0,0,81,false,stim,false,1,534.0,0,0,1,47929,task1,523241,false,true,539,image-keyboard-response,14
true,4,0,1,0,true,q,false,true,0.0-2.0-0.13-0.119-3.119,0,0,0,81,false,stim,false,1,507.0,0,0,1,47929,task1,525255,false,false,542,image-keyboard-response,15
true,4,0,1,0,true,q,false,true,0.0-2.0-0.13-0.120-3.120,0,0,0,81,false,stim,false,1,565.5,0,0,1,47929,task1,527327,false,false,545,image-keyboard-response,16
true,4,0,1,0,true,q,false,true,0.0-2.0-0.13-0.121-3.121,0,0,0,81,false,stim,false,1,620.0999999998603,0,0,0,47929,task1,529453,false,false,548,image-keyboard-response,17
true,4,0,1,0,true,q,false,true,0.0-2.0-0.13-0.122-3.122,0,0,0,81,false,stim,false,1,467.5,0,0,0,47929,task1,531427,false,false,551,image-keyboard-response,18
true,4,1,1,1,true,z,false,true,0.0-2.0-0.13-0.123-3.123,0,0,0,90,false,stim,false,0,545.1999999999534,0,0,2,47929,task1,533479,false,false,554,image-keyboard-response,19
true,4,1,1,1,true,z,false,false,0.0-2.0-0.13-0.124-3.124,0,0,0,90,false,stim,false,0,477.70000000018626,0,0,2,47929,task1,535464,false,true,557,image-keyboard-response,20
true,4,0,1,0,true,q,false,true,0.0-2.0-0.13-0.125-3.125,0,0,0,81,false,stim,false,1,590.0999999998603,0,0,0,47929,task1,537559,false,false,560,image-keyboard-response,21
true,4,0,1,0,true,q,false,true,0.0-2.0-0.14-0.126-3.126,0,0,0,81,false,stim,false,1,507.5999999998603,0,0,0,47929,task1,539579,false,false,563,image-keyboard-response,22
true,4,0,1,0,true,q,false,true,0.0-2.0-0.14-0.127-3.127,0,0,0,81,false,stim,false,1,396.10000000009313,0,0,0,47929,task1,541482,false,false,566,image-keyboard-response,23
true,4,1,1,1,true,z,false,true,0.0-2.0-0.14-0.128-3.128,0,0,0,90,false,stim,false,0,607.3999999999069,0,0,2,47929,task1,543596,false,false,569,image-keyboard-response,24
true,4,1,1,1,true,z,false,true,0.0-2.0-0.14-0.129-3.129,0,0,0,90,false,stim,false,0,503.0999999998603,0,0,2,47929,task1,545605,false,false,572,image-keyboard-response,25
true,4,0,1,0,true,q,false,true,0.0-2.0-0.14-0.130-3.130,0,0,0,81,false,stim,false,1,944.8999999999069,0,0,1,47929,task1,548055,false,false,575,image-keyboard-response,26
true,4,0,1,0,true,q,false,true,0.0-2.0-0.14-0.131-3.131,0,0,0,81,false,stim,false,1,457.0,0,0,1,47929,task1,550019,false,false,578,image-keyboard-response,27
true,4,0,1,0,true,q,false,true,0.0-2.0-0.14-0.132-3.132,0,0,0,81,false,stim,false,1,843.0,0,0,0,47929,task1,552368,false,false,581,image-keyboard-response,28
true,4,0,1,0,true,q,false,true,0.0-2.0-0.14-0.133-3.133,0,0,0,81,false,stim,false,1,950.8000000000466,0,0,1,47929,task1,554825,false,false,584,image-keyboard-response,29
true,4,1,1,1,true,z,false,true,0.0-2.0-0.14-0.134-3.134,0,0,0,90,false,stim,false,0,476.5,0,0,2,47929,task1,556806,false,false,587,image-keyboard-response,30
true,4,0,1,0,true,q,false,true,0.0-2.0-0.15-0.135-3.135,0,0,0,81,false,stim,false,1,588.8999999999069,0,0,1,47929,task1,558902,false,false,590,image-keyboard-response,31
true,4,0,1,0,true,q,false,true,0.0-2.0-0.15-0.136-3.136,0,0,0,81,false,stim,false,1,522.1999999999534,0,0,1,47929,task1,560930,false,false,593,image-keyboard-response,32
true,4,0,1,0,true,q,false,true,0.0-2.0-0.15-0.137-3.137,0,0,0,81,false,stim,false,1,613.1999999999534,0,0,0,47929,task1,563049,false,false,596,image-keyboard-response,33
true,4,1,1,1,true,z,false,true,0.0-2.0-0.15-0.138-3.138,0,0,0,90,false,stim,false,0,760.1999999999534,0,0,2,47929,task1,565315,false,false,599,image-keyboard-response,34
true,4,1,1,1,true,z,false,true,0.0-2.0-0.15-0.139-3.139,0,0,0,90,false,stim,false,0,546.7999999998137,0,0,2,47929,task1,567376,false,false,602,image-keyboard-response,35
true,4,0,1,0,true,q,false,true,0.0-2.0-0.15-0.140-3.140,0,0,0,81,false,stim,false,1,644.5,0,0,1,47929,task1,569527,false,false,605,image-keyboard-response,36
true,4,0,1,0,true,q,false,true,0.0-2.0-0.15-0.141-3.141,0,0,0,81,false,stim,false,1,635.1000000000931,0,0,0,47929,task1,571671,false,false,608,image-keyboard-response,37
true,4,1,1,1,true,z,false,true,0.0-2.0-0.15-0.142-3.142,0,0,0,90,false,stim,false,0,476.5,0,0,2,47929,task1,573654,false,false,611,image-keyboard-response,38
true,4,0,1,0,true,q,false,true,0.0-2.0-0.15-0.143-3.143,0,0,0,81,false,stim,false,1,507.20000000018626,0,0,0,47929,task1,575666,false,false,614,image-keyboard-response,39
true,4,0,1,0,true,q,false,true,0.0-2.0-0.16-0.144-3.144,0,0,0,81,false,stim,false,1,444.80000000004657,0,0,0,47929,task1,577618,false,false,617,image-keyboard-response,40
true,4,0,1,0,true,q,false,true,0.0-2.0-0.16-0.145-3.145,0,0,0,81,false,stim,false,1,481.10000000009313,0,0,1,47929,task1,579605,false,false,620,image-keyboard-response,41
true,4,1,1,1,true,z,false,true,0.0-2.0-0.16-0.146-3.146,0,0,0,90,false,stim,false,0,636.1999999999534,0,0,2,47929,task1,581747,false,false,623,image-keyboard-response,42
true,4,0,1,0,true,q,false,true,0.0-2.0-0.16-0.147-3.147,0,0,0,81,false,stim,false,1,514.5,0,0,0,47929,task1,583769,false,false,626,image-keyboard-response,43
true,4,0,1,0,true,q,false,true,0.0-2.0-0.16-0.148-3.148,0,0,0,81,false,stim,false,1,508.80000000004657,0,0,0,47929,task1,585783,false,false,629,image-keyboard-response,44
true,5,1,2,0,false,q,false,true,0.0-2.0-0.16-0.149-3.149,0,0,0,90,true,stim,true,1,534.6000000000931,0,0,2,47929,task1,587825,false,true,632,image-keyboard-response,1
true,5,1,2,0,false,q,false,true,0.0-2.0-0.16-0.150-3.150,0,0,0,90,false,stim,true,1,936.6000000000931,0,0,2,47929,task1,590267,false,true,635,image-keyboard-response,2
true,5,0,2,1,false,z,false,false,0.0-2.0-0.16-0.151-3.151,0,0,0,81,false,stim,true,0,728.9000000001397,0,0,1,47929,task1,592504,false,false,638,image-keyboard-response,3
true,5,0,2,1,false,z,false,false,0.0-2.0-0.16-0.152-3.152,0,0,0,81,false,stim,true,0,545.8000000000466,0,0,1,47929,task1,594557,false,false,641,image-keyboard-response,4
true,5,0,2,1,false,z,false,false,0.0-2.0-0.17-0.153-3.153,0,0,0,81,false,stim,true,0,754.0,0,0,0,47929,task1,596817,false,false,644,image-keyboard-response,5
true,5,1,2,0,false,q,false,false,0.0-2.0-0.17-0.154-3.154,0,0,0,90,false,stim,true,1,815.5999999998603,0,0,2,47929,task1,599140,false,false,647,image-keyboard-response,6
true,5,1,2,1,true,z,false,true,0.0-2.0-0.17-0.155-3.155,0,0,0,90,false,stim,false,0,865.8999999999069,0,0,1,47929,task1,601513,false,false,650,image-keyboard-response,7
true,5,1,2,1,true,z,false,false,0.0-2.0-0.17-0.156-3.156,0,0,0,90,false,stim,false,0,803.8999999999069,0,0,0,47929,task1,603824,false,true,653,image-keyboard-response,8
true,5,2,2,0,false,q,true,false,0.0-2.0-0.17-0.157-3.157,0,0,0,68,false,stim,false,1,1086.0,0,0,2,47929,task1,606416,false,false,656,image-keyboard-response,9
true,5,0,2,0,true,q,false,true,0.0-2.0-0.17-0.158-3.158,0,0,0,81,false,stim,false,1,722.1999999999534,0,0,2,47929,task1,608645,false,false,659,image-keyboard-response,10
true,5,1,2,1,true,z,false,true,0.0-2.0-0.17-0.159-3.159,0,0,0,90,false,stim,false,0,891.0,0,0,1,47929,task1,611043,false,false,662,image-keyboard-response,11
true,5,1,2,1,true,z,false,false,0.0-2.0-0.17-0.160-3.160,0,0,0,90,false,stim,false,0,636.5999999998603,0,0,1,47929,task1,613185,false,true,665,image-keyboard-response,12
true,5,2,2,1,false,z,true,false,0.0-2.0-0.17-0.161-3.161,0,0,0,68,false,stim,false,0,709.0,0,0,0,47929,task1,615399,false,false,668,image-keyboard-response,13
true,5,0,2,0,true,q,false,true,0.0-2.0-0.18-0.162-3.162,0,0,0,81,false,stim,false,1,979.6999999999534,0,0,2,47929,task1,617886,false,false,671,image-keyboard-response,14
true,5,1,2,1,true,z,false,true,0.0-2.0-0.18-0.163-3.163,0,0,0,90,false,stim,false,0,718.7000000001863,0,0,1,47929,task1,620112,false,false,674,image-keyboard-response,15
true,5,1,2,1,true,z,false,false,0.0-2.0-0.18-0.164-3.164,0,0,0,90,false,stim,false,0,583.6999999999534,0,0,1,47929,task1,622201,false,true,677,image-keyboard-response,16
true,5,0,2,0,true,q,false,true,0.0-2.0-0.18-0.165-3.165,0,0,0,81,false,stim,false,1,810.5,0,0,2,47929,task1,624520,false,false,680,image-keyboard-response,17
true,5,1,2,1,true,z,false,true,0.0-2.0-0.18-0.166-3.166,0,0,0,90,false,stim,false,0,712.1999999999534,0,0,0,47929,task1,626738,false,false,683,image-keyboard-response,18
true,5,0,2,0,true,q,false,true,0.0-2.0-0.18-0.167-3.167,0,0,0,81,false,stim,false,1,551.7000000001863,0,0,2,47929,task1,628795,false,false,686,image-keyboard-response,19
true,5,1,2,1,true,z,false,true,0.0-2.0-0.18-0.168-3.168,0,0,0,90,false,stim,false,0,385.10000000009313,0,0,0,47929,task1,630686,false,false,689,image-keyboard-response,20
true,5,1,2,1,true,z,false,true,0.0-2.0-0.18-0.169-3.169,0,0,0,90,false,stim,false,0,654.6000000000931,0,0,1,47929,task1,632849,false,false,692,image-keyboard-response,21
true,5,1,2,1,true,z,false,true,0.0-2.0-0.18-0.170-3.170,0,0,0,90,false,stim,false,0,521.1000000000931,0,0,0,47929,task1,634876,false,false,695,image-keyboard-response,22
true,5,0,2,0,true,q,false,false,0.0-2.0-0.19-0.171-3.171,0,0,0,81,false,stim,false,1,463.89999999990687,0,0,2,47929,task1,636845,false,true,698,image-keyboard-response,23
true,5,1,2,1,true,z,false,true,0.0-2.0-0.19-0.172-3.172,0,0,0,90,false,stim,false,0,468.5,0,0,1,47929,task1,638830,false,false,701,image-keyboard-response,24
true,5,1,2,1,true,z,false,true,0.0-2.0-0.19-0.173-3.173,0,0,0,90,false,stim,false,0,333.5999999998603,0,0,1,47929,task1,640670,false,false,704,image-keyboard-response,25
true,5,1,2,1,true,z,false,true,0.0-2.0-0.19-0.174-3.174,0,0,0,90,false,stim,false,0,500.60000000009313,0,0,0,47929,task1,642675,false,false,707,image-keyboard-response,26
true,5,0,2,0,true,q,false,true,0.0-2.0-0.19-0.175-3.175,0,0,0,81,false,stim,false,1,392.60000000009313,0,0,2,47929,task1,644575,false,false,710,image-keyboard-response,27
true,5,1,2,1,true,z,false,true,0.0-2.0-0.19-0.176-3.176,0,0,0,90,false,stim,false,0,478.30000000004657,0,0,0,47929,task1,646561,false,false,713,image-keyboard-response,28
true,5,1,2,1,true,z,false,false,0.0-2.0-0.19-0.177-3.177,0,0,0,90,false,stim,false,0,355.69999999995343,0,0,1,47929,task1,648422,false,true,716,image-keyboard-response,29
true,5,0,2,0,true,q,false,true,0.0-2.0-0.19-0.178-3.178,0,0,0,81,false,stim,false,1,548.3000000000466,0,0,2,47929,task1,650477,false,false,719,image-keyboard-response,30
true,5,1,2,1,true,z,false,true,0.0-2.0-0.19-0.179-3.179,0,0,0,90,false,stim,false,0,521.1999999999534,0,0,0,47929,task1,652504,false,false,722,image-keyboard-response,31
true,5,1,2,1,true,z,false,false,0.0-2.0-0.20-0.180-3.180,0,0,0,90,false,stim,false,0,501.60000000009313,0,0,1,47929,task1,654513,false,true,725,image-keyboard-response,32
true,5,1,2,1,true,z,false,false,0.0-2.0-0.20-0.181-3.181,0,0,0,90,false,stim,false,0,528.9000000001397,0,0,0,47929,task1,656547,false,true,728,image-keyboard-response,33
true,5,0,2,0,true,q,false,false,0.0-2.0-0.20-0.182-3.182,0,0,0,81,false,stim,false,1,530.3000000000466,0,0,2,47929,task1,658585,false,true,731,image-keyboard-response,34
true,5,0,2,0,true,q,false,false,0.0-2.0-0.20-0.183-3.183,0,0,0,81,false,stim,false,1,548.8000000000466,0,0,2,47929,task1,660640,false,true,734,image-keyboard-response,35
true,5,1,2,1,true,z,false,true,0.0-2.0-0.20-0.184-3.184,0,0,0,90,false,stim,false,0,611.0999999998603,0,0,0,47929,task1,662758,false,false,737,image-keyboard-response,36
true,5,1,2,1,true,z,false,true,0.0-2.0-0.20-0.185-3.185,0,0,0,90,false,stim,false,0,571.5999999998603,0,0,1,47929,task1,664839,false,false,740,image-keyboard-response,37
true,5,1,2,1,true,z,false,true,0.0-2.0-0.20-0.186-3.186,0,0,0,90,false,stim,false,0,545.3000000000466,0,0,0,47929,task1,666892,false,false,743,image-keyboard-response,38
true,5,1,2,1,true,z,false,true,0.0-2.0-0.20-0.187-3.187,0,0,0,90,false,stim,false,0,740.8999999999069,0,0,1,47929,task1,669140,false,false,746,image-keyboard-response,39
true,5,2,2,0,false,q,true,false,0.0-2.0-0.20-0.188-3.188,0,0,0,68,false,stim,false,1,498.10000000009313,0,0,2,47929,task1,671147,false,false,749,image-keyboard-response,40
true,5,1,2,1,true,z,false,true,0.0-2.0-0.21-0.189-3.189,0,0,0,90,false,stim,false,0,411.5,0,0,0,47929,task1,673065,false,false,752,image-keyboard-response,41
true,5,0,2,0,true,q,false,false,0.0-2.0-0.21-0.190-3.190,0,0,0,81,false,stim,false,1,748.6999999999534,0,0,2,47929,task1,675319,false,true,755,image-keyboard-response,42
true,5,1,2,0,false,q,false,false,0.0-2.0-0.21-0.191-3.191,0,0,0,90,false,stim,true,1,400.30000000004657,0,0,2,47929,task1,677226,false,false,758,image-keyboard-response,43
true,5,2,2,0,false,q,true,false,0.0-2.0-0.21-0.192-3.192,0,0,0,68,false,stim,false,1,595.1999999999534,0,0,2,47929,task1,679328,false,false,761,image-keyboard-response,44
true,6,1,1,0,false,q,false,false,0.0-2.0-0.21-0.193-3.193,0,0,0,90,true,stim,true,1,596.8000000000466,0,0,1,47929,task1,681431,false,false,764,image-keyboard-response,1
true,6,1,1,0,false,q,false,false,0.0-2.0-0.21-0.194-3.194,0,0,0,90,false,stim,true,1,376.69999999995343,0,0,1,47929,task1,683314,false,false,767,image-keyboard-response,2
true,6,1,1,0,false,q,false,false,0.0-2.0-0.21-0.195-3.195,0,0,0,90,false,stim,true,1,436.39999999990687,0,0,1,47929,task1,685256,false,false,770,image-keyboard-response,3
true,6,1,1,2,false,d,false,false,0.0-2.0-0.21-0.196-3.196,0,0,0,90,false,stim,true,1,604.8000000000466,0,0,0,47929,task1,687371,false,false,773,image-keyboard-response,4
true,6,2,1,2,true,d,false,true,0.0-2.0-0.21-0.197-3.197,0,0,0,68,false,stim,false,1,445.69999999995343,0,0,0,47929,task1,689324,false,false,776,image-keyboard-response,5
true,6,2,1,0,false,q,true,false,0.0-2.0-0.22-0.198-3.198,0,0,0,68,false,stim,false,1,686.0999999998603,0,0,1,47929,task1,691517,false,false,779,image-keyboard-response,6
true,6,0,1,0,true,q,false,true,0.0-2.0-0.22-0.199-3.199,0,0,0,81,false,stim,false,1,545.0999999998603,0,0,1,47929,task1,693572,false,false,782,image-keyboard-response,7
true,6,2,1,2,true,d,false,true,0.0-2.0-0.22-0.200-3.200,0,0,0,68,false,stim,false,1,700.7000000001863,0,0,0,47929,task1,695779,false,false,785,image-keyboard-response,8
true,6,2,1,2,true,d,false,true,0.0-2.0-0.22-0.201-3.201,0,0,0,68,false,stim,false,1,629.5999999998603,0,0,0,47929,task1,697916,false,false,788,image-keyboard-response,9
true,6,1,1,1,true,z,false,true,0.0-2.0-0.22-0.202-3.202,0,0,0,90,false,stim,false,0,606.5,0,0,2,47929,task1,700029,false,false,791,image-keyboard-response,10
true,6,0,1,0,true,q,false,true,0.0-2.0-0.22-0.203-3.203,0,0,0,81,false,stim,false,1,1074.3999999999069,0,0,1,47929,task1,702611,false,false,794,image-keyboard-response,11
true,6,1,1,1,true,z,false,true,0.0-2.0-0.22-0.204-3.204,0,0,0,90,false,stim,false,0,635.3000000000466,0,0,2,47929,task1,704753,false,false,797,image-keyboard-response,12
true,6,2,1,2,true,d,false,true,0.0-2.0-0.22-0.205-3.205,0,0,0,68,false,stim,false,1,628.8000000000466,0,0,0,47929,task1,706889,false,false,800,image-keyboard-response,13
true,6,1,1,1,true,z,false,true,0.0-2.0-0.22-0.206-3.206,0,0,0,90,false,stim,false,0,718.5,0,0,2,47929,task1,709123,false,false,803,image-keyboard-response,14
true,6,0,1,0,true,q,false,false,0.0-2.0-0.23-0.207-3.207,0,0,0,81,false,stim,false,1,574.5,0,0,1,47929,task1,711204,false,true,806,image-keyboard-response,15
true,6,1,1,1,true,z,false,true,0.0-2.0-0.23-0.208-3.208,0,0,0,90,false,stim,false,0,637.1000000000931,0,0,2,47929,task1,713349,false,false,809,image-keyboard-response,16
true,6,0,1,0,true,q,false,true,0.0-2.0-0.23-0.209-3.209,0,0,0,81,false,stim,false,1,426.5,0,0,1,47929,task1,715284,false,false,812,image-keyboard-response,17
true,6,2,1,2,true,d,false,true,0.0-2.0-0.23-0.210-3.210,0,0,0,68,false,stim,false,1,680.6999999999534,0,0,0,47929,task1,717472,false,false,815,image-keyboard-response,18
true,6,1,1,1,true,z,false,true,0.0-2.0-0.23-0.211-3.211,0,0,0,90,false,stim,false,0,659.2999999998137,0,0,2,47929,task1,719638,false,false,818,image-keyboard-response,19
true,6,2,1,2,true,d,false,false,0.0-2.0-0.23-0.212-3.212,0,0,0,68,false,stim,false,1,629.1000000000931,0,0,0,47929,task1,721775,false,true,821,image-keyboard-response,20
true,6,2,1,2,true,d,false,true,0.0-2.0-0.23-0.213-3.213,0,0,0,68,false,stim,false,1,610.0,0,0,0,47929,task1,723894,false,false,824,image-keyboard-response,21
true,6,0,1,0,true,q,false,true,0.0-2.0-0.23-0.214-3.214,0,0,0,81,false,stim,false,1,887.1000000000931,0,0,1,47929,task1,726288,false,false,827,image-keyboard-response,22
true,6,1,1,1,true,z,false,true,0.0-2.0-0.23-0.215-3.215,0,0,0,90,false,stim,false,0,1094.6000000000931,0,0,2,47929,task1,728890,false,false,830,image-keyboard-response,23
true,6,0,1,0,true,q,false,true,0.0-2.0-0.24-0.216-3.216,0,0,0,81,false,stim,false,1,747.3000000000466,0,0,1,47929,task1,731144,false,false,833,image-keyboard-response,24
true,6,1,1,1,true,z,false,false,0.0-2.0-0.24-0.217-3.217,0,0,0,90,false,stim,false,0,1076.0,0,0,2,47929,task1,733728,false,true,836,image-keyboard-response,25
true,6,1,1,1,true,z,false,true,0.0-2.0-0.24-0.218-3.218,0,0,0,90,false,stim,false,0,452.10000000009313,0,0,2,47929,task1,735691,false,false,839,image-keyboard-response,26
true,6,0,1,0,true,q,false,false,0.0-2.0-0.24-0.219-3.219,0,0,0,81,false,stim,false,1,672.6999999999534,0,0,1,47929,task1,737871,false,true,842,image-keyboard-response,27
true,6,0,1,0,true,q,false,false,0.0-2.0-0.24-0.220-3.220,0,0,0,81,false,stim,false,1,386.5,0,0,1,47929,task1,739765,false,true,845,image-keyboard-response,28
true,6,2,1,2,true,d,false,true,0.0-2.0-0.24-0.221-3.221,0,0,0,68,false,stim,false,1,577.3000000000466,0,0,0,47929,task1,741849,false,false,848,image-keyboard-response,29
true,6,1,1,1,true,z,false,true,0.0-2.0-0.24-0.222-3.222,0,0,0,90,false,stim,false,0,843.3000000000466,0,0,2,47929,task1,744200,false,false,851,image-keyboard-response,30
true,6,2,1,2,true,d,false,true,0.0-2.0-0.24-0.223-3.223,0,0,0,68,false,stim,false,1,625.6000000000931,0,0,0,47929,task1,746332,false,false,854,image-keyboard-response,31
true,6,2,1,2,true,d,false,true,0.0-2.0-0.24-0.224-3.224,0,0,0,68,false,stim,false,1,499.60000000009313,0,0,0,47929,task1,748340,false,false,857,image-keyboard-response,32
true,6,0,1,0,true,q,false,true,0.0-2.0-0.25-0.225-3.225,0,0,0,81,false,stim,false,1,662.3999999999069,0,0,1,47929,task1,750509,false,false,860,image-keyboard-response,33
true,6,2,1,2,true,d,false,true,0.0-2.0-0.25-0.226-3.226,0,0,0,68,false,stim,false,1,629.5,0,0,0,47929,task1,752647,false,false,863,image-keyboard-response,34
true,6,1,1,1,true,z,false,true,0.0-2.0-0.25-0.227-3.227,0,0,0,90,false,stim,false,0,603.8999999999069,0,0,2,47929,task1,754758,false,false,866,image-keyboard-response,35
true,6,1,1,1,true,z,false,true,0.0-2.0-0.25-0.228-3.228,0,0,0,90,false,stim,false,0,498.5999999998603,0,0,2,47929,task1,756764,false,false,869,image-keyboard-response,36
true,6,2,1,2,true,d,false,true,0.0-2.0-0.25-0.229-3.229,0,0,0,68,false,stim,false,1,700.8000000000466,0,0,0,47929,task1,758973,false,false,872,image-keyboard-response,37
true,6,1,1,1,true,z,false,true,0.0-2.0-0.25-0.230-3.230,0,0,0,90,false,stim,false,0,824.5999999998603,0,0,2,47929,task1,761305,false,false,875,image-keyboard-response,38
true,6,2,1,2,true,d,false,true,0.0-2.0-0.25-0.231-3.231,0,0,0,68,false,stim,false,1,592.5,0,0,0,47929,task1,763405,false,false,878,image-keyboard-response,39
true,6,0,1,0,true,q,false,true,0.0-2.0-0.25-0.232-3.232,0,0,0,81,false,stim,false,1,598.1000000000931,0,0,1,47929,task1,765511,false,false,881,image-keyboard-response,40
true,7,0,1,2,false,d,false,false,0.0-2.0-0.25-0.233-3.233,0,0,0,81,true,stim,true,0,548.3000000000466,0,0,1,47929,task1,767567,false,false,884,image-keyboard-response,1
true,7,1,1,2,false,d,false,false,0.0-2.0-0.26-0.234-3.234,0,0,0,90,false,stim,true,1,624.1000000000931,0,0,2,47929,task1,769700,false,false,887,image-keyboard-response,2
true,7,2,1,0,false,q,false,true,0.0-2.0-0.26-0.235-3.235,0,0,0,68,false,stim,true,2,465.0999999998603,0,0,0,47929,task1,771672,false,true,890,image-keyboard-response,3
true,7,0,1,2,false,d,false,false,0.0-2.0-0.26-0.236-3.236,0,0,0,81,false,stim,true,0,689.8000000000466,0,0,1,47929,task1,773868,false,false,893,image-keyboard-response,4
true,7,2,1,0,false,q,false,false,0.0-2.0-0.26-0.237-3.237,0,0,0,68,false,stim,true,2,657.6999999999534,0,0,0,47929,task1,776034,false,false,896,image-keyboard-response,5
true,7,2,1,0,false,q,false,false,0.0-2.0-0.26-0.238-3.238,0,0,0,68,false,stim,true,2,609.8999999999069,0,0,0,47929,task1,778151,false,false,899,image-keyboard-response,6
true,7,1,1,2,false,d,true,true,0.0-2.0-0.26-0.239-3.239,0,0,0,90,false,stim,false,0,1224.1999999999534,0,0,1,47929,task1,780898,false,true,902,image-keyboard-response,7
true,7,0,1,2,false,d,true,false,0.0-2.0-0.26-0.240-3.240,0,0,0,81,false,stim,false,1,917.6999999999534,0,0,2,47929,task1,783323,false,false,905,image-keyboard-response,8
true,7,1,1,2,false,d,false,false,0.0-2.0-0.26-0.241-3.241,0,0,0,90,false,stim,true,1,739.4000000001397,0,0,2,47929,task1,785570,false,false,908,image-keyboard-response,9
true,7,1,1,2,false,d,true,false,0.0-2.0-0.26-0.242-3.242,0,0,0,90,false,stim,false,0,866.6999999999534,0,0,1,47929,task1,787945,false,false,911,image-keyboard-response,10
true,7,2,1,2,true,d,false,true,0.0-2.0-0.27-0.243-3.243,0,0,0,68,false,stim,false,1,934.5,0,0,2,47929,task1,790386,false,false,914,image-keyboard-response,11
true,7,0,1,0,true,q,false,true,0.0-2.0-0.27-0.244-3.244,0,0,0,81,false,stim,false,2,842.3000000000466,0,0,0,47929,task1,792735,false,false,917,image-keyboard-response,12
true,7,1,1,2,false,d,true,false,0.0-2.0-0.27-0.245-3.245,0,0,0,90,false,stim,false,0,654.6000000000931,0,0,1,47929,task1,794896,false,false,920,image-keyboard-response,13
true,7,2,1,2,true,d,false,true,0.0-2.0-0.27-0.246-3.246,0,0,0,68,false,stim,false,0,778.1000000000931,0,0,1,47929,task1,797180,false,false,923,image-keyboard-response,14
true,7,0,1,0,true,q,false,true,0.0-2.0-0.27-0.247-3.247,0,0,0,81,false,stim,false,2,771.6999999999534,0,0,0,47929,task1,799459,false,false,926,image-keyboard-response,15
true,7,2,1,2,true,d,false,true,0.0-2.0-0.27-0.248-3.248,0,0,0,68,false,stim,false,1,558.1999999999534,0,0,2,47929,task1,801525,false,false,929,image-keyboard-response,16
true,7,0,1,0,true,q,false,true,0.0-2.0-0.27-0.249-3.249,0,0,0,81,false,stim,false,2,642.0,0,0,0,47929,task1,803675,false,false,932,image-keyboard-response,17
true,7,2,1,2,true,d,false,true,0.0-2.0-0.27-0.250-3.250,0,0,0,68,false,stim,false,1,567.1999999999534,0,0,2,47929,task1,805751,false,false,935,image-keyboard-response,18
true,7,2,1,2,true,d,false,true,0.0-2.0-0.27-0.251-3.251,0,0,0,68,false,stim,false,0,424.9000000001397,0,0,1,47929,task1,807684,false,false,938,image-keyboard-response,19
true,7,2,1,2,true,d,false,true,0.0-2.0-0.28-0.252-3.252,0,0,0,68,false,stim,false,1,566.3000000000466,0,0,2,47929,task1,809757,false,false,941,image-keyboard-response,20
true,7,2,1,2,true,d,false,true,0.0-2.0-0.28-0.253-3.253,0,0,0,68,false,stim,false,0,481.80000000004657,0,0,1,47929,task1,811747,false,false,944,image-keyboard-response,21
true,7,2,1,2,true,d,false,true,0.0-2.0-0.28-0.254-3.254,0,0,0,68,false,stim,false,1,582.9000000001397,0,0,2,47929,task1,813839,false,false,947,image-keyboard-response,22
true,7,2,1,2,true,d,false,true,0.0-2.0-0.28-0.255-3.255,0,0,0,68,false,stim,false,1,533.1000000000931,0,0,2,47929,task1,815880,false,false,950,image-keyboard-response,23
true,7,2,1,2,true,d,false,true,0.0-2.0-0.28-0.256-3.256,0,0,0,68,false,stim,false,0,578.3999999999069,0,0,1,47929,task1,817966,false,false,953,image-keyboard-response,24
true,7,2,1,2,true,d,false,true,0.0-2.0-0.28-0.257-3.257,0,0,0,68,false,stim,false,0,459.5,0,0,1,47929,task1,819933,false,false,956,image-keyboard-response,25
true,7,0,1,0,true,q,false,true,0.0-2.0-0.28-0.258-3.258,0,0,0,81,false,stim,false,2,551.6000000000931,0,0,0,47929,task1,821993,false,false,959,image-keyboard-response,26
true,7,0,1,0,true,q,false,true,0.0-2.0-0.28-0.259-3.259,0,0,0,81,false,stim,false,2,797.0999999998603,0,0,0,47929,task1,824297,false,false,962,image-keyboard-response,27
true,7,0,1,0,true,q,false,true,0.0-2.0-0.28-0.260-3.260,0,0,0,81,false,stim,false,2,599.6999999999534,0,0,0,47929,task1,826404,false,false,965,image-keyboard-response,28
true,7,2,1,2,true,d,false,true,0.0-2.0-0.29-0.261-3.261,0,0,0,68,false,stim,false,1,601.6999999999534,0,0,2,47929,task1,828513,false,false,968,image-keyboard-response,29
true,7,2,1,2,true,d,false,true,0.0-2.0-0.29-0.262-3.262,0,0,0,68,false,stim,false,0,430.89999999990687,0,0,1,47929,task1,830451,false,false,971,image-keyboard-response,30
true,7,2,1,2,true,d,false,true,0.0-2.0-0.29-0.263-3.263,0,0,0,68,false,stim,false,0,543.7000000001863,0,0,1,47929,task1,832502,false,false,974,image-keyboard-response,31
true,7,2,1,2,true,d,false,true,0.0-2.0-0.29-0.264-3.264,0,0,0,68,false,stim,false,0,477.4000000001397,0,0,1,47929,task1,834487,false,false,977,image-keyboard-response,32
true,7,0,1,0,true,q,false,false,0.0-2.0-0.29-0.265-3.265,0,0,0,81,false,stim,false,2,568.2000000001863,0,0,0,47929,task1,836564,false,true,980,image-keyboard-response,33
true,7,2,1,2,true,d,false,true,0.0-2.0-0.29-0.266-3.266,0,0,0,68,false,stim,false,1,736.3999999999069,0,0,2,47929,task1,838808,false,false,983,image-keyboard-response,34
true,7,0,1,0,true,q,false,true,0.0-2.0-0.29-0.267-3.267,0,0,0,81,false,stim,false,2,447.89999999990687,0,0,0,47929,task1,840764,false,false,986,image-keyboard-response,35
true,7,2,1,2,true,d,false,true,0.0-2.0-0.29-0.268-3.268,0,0,0,68,false,stim,false,1,433.30000000004657,0,0,2,47929,task1,842705,false,false,989,image-keyboard-response,36
true,7,0,1,0,true,q,false,true,0.0-2.0-0.29-0.269-3.269,0,0,0,81,false,stim,false,2,550.0,0,0,0,47929,task1,844762,false,false,992,image-keyboard-response,37
true,7,0,1,0,true,q,false,true,0.0-2.0-0.30-0.270-3.270,0,0,0,81,false,stim,false,2,552.9000000001397,0,0,0,47929,task1,846822,false,false,995,image-keyboard-response,38
true,7,2,1,2,true,d,false,true,0.0-2.0-0.30-0.271-3.271,0,0,0,68,false,stim,false,1,516.5999999998603,0,0,2,47929,task1,848846,false,false,998,image-keyboard-response,39
true,7,0,1,0,true,q,false,true,0.0-2.0-0.30-0.272-3.272,0,0,0,81,false,stim,false,2,580.6000000000931,0,0,0,47929,task1,850946,false,false,1001,image-keyboard-response,40
true,7,2,1,2,true,d,false,true,0.0-2.0-0.30-0.273-3.273,0,0,0,68,false,stim,false,0,627.1000000000931,0,0,1,47929,task1,853082,false,false,1004,image-keyboard-response,41
true,7,2,1,2,true,d,false,true,0.0-2.0-0.30-0.274-3.274,0,0,0,68,false,stim,false,1,550.5,0,0,2,47929,task1,855140,false,false,1007,image-keyboard-response,42
true,8,2,1,1,false,z,false,false,0.0-2.0-0.30-0.275-3.275,0,0,0,68,true,stim,true,2,434.0999999998603,0,0,1,47929,task1,857080,false,false,1010,image-keyboard-response,1
true,8,2,1,0,false,q,false,false,0.0-2.0-0.30-0.276-3.276,0,0,0,68,false,stim,true,2,549.3999999999069,0,0,2,47929,task1,859138,false,false,1013,image-keyboard-response,2
true,8,0,1,2,false,d,false,false,0.0-2.0-0.30-0.277-3.277,0,0,0,81,false,stim,true,0,734.4000000001397,0,0,0,47929,task1,861379,false,false,1016,image-keyboard-response,3
true,8,2,1,1,false,z,false,false,0.0-2.0-0.30-0.278-3.278,0,0,0,68,false,stim,true,2,502.60000000009313,0,0,1,47929,task1,863389,false,false,1019,image-keyboard-response,4
true,8,1,1,2,false,d,true,false,0.0-2.0-0.31-0.279-3.279,0,0,0,90,false,stim,false,0,1002.0999999998603,0,0,0,47929,task1,865899,false,false,1022,image-keyboard-response,5
true,8,1,1,1,true,z,false,true,0.0-2.0-0.31-0.280-3.280,0,0,0,90,false,stim,false,2,894.6999999999534,0,0,1,47929,task1,868302,false,false,1025,image-keyboard-response,6
true,8,2,1,2,true,d,false,true,0.0-2.0-0.31-0.281-3.281,0,0,0,68,false,stim,false,0,785.0999999998603,0,0,0,47929,task1,870596,false,false,1028,image-keyboard-response,7
true,8,0,1,0,true,q,false,true,0.0-2.0-0.31-0.282-3.282,0,0,0,81,false,stim,false,2,849.6999999999534,0,0,2,47929,task1,872955,false,false,1031,image-keyboard-response,8
true,8,0,1,0,true,q,false,true,0.0-2.0-0.31-0.283-3.283,0,0,0,81,false,stim,false,2,648.3000000000466,0,0,2,47929,task1,875111,false,false,1034,image-keyboard-response,9
true,8,2,1,2,true,d,false,false,0.0-2.0-0.31-0.284-3.284,0,0,0,68,false,stim,false,0,566.8999999999069,0,0,0,47929,task1,877186,false,true,1037,image-keyboard-response,10
true,8,1,1,1,true,z,false,true,0.0-2.0-0.31-0.285-3.285,0,0,0,90,false,stim,false,2,742.1999999999534,0,0,1,47929,task1,879435,false,false,1040,image-keyboard-response,11
true,8,1,1,1,true,z,false,true,0.0-2.0-0.31-0.286-3.286,0,0,0,90,false,stim,false,2,974.8999999999069,0,0,1,47929,task1,881918,false,false,1043,image-keyboard-response,12
true,8,0,1,0,true,q,false,true,0.0-2.0-0.31-0.287-3.287,0,0,0,81,false,stim,false,2,624.5,0,0,2,47929,task1,884051,false,false,1046,image-keyboard-response,13
true,8,2,1,2,true,d,false,true,0.0-2.0-0.32-0.288-3.288,0,0,0,68,false,stim,false,0,443.9000000001397,0,0,0,47929,task1,886002,false,false,1049,image-keyboard-response,14
true,8,0,1,0,true,q,false,true,0.0-2.0-0.32-0.289-3.289,0,0,0,81,false,stim,false,2,722.1999999999534,0,0,2,47929,task1,888232,false,false,1052,image-keyboard-response,15
true,8,1,1,1,true,z,false,true,0.0-2.0-0.32-0.290-3.290,0,0,0,90,false,stim,false,2,550.0,0,0,1,47929,task1,890289,false,false,1055,image-keyboard-response,16
false,8,-1,1,1,false,z,true,true,0.0-2.0-0.32-0.291-3.291,0,0,0,,false,stim,false,2,,0,0,1,47929,task1,894798,false,true,1058,image-keyboard-response,17
false,8,-1,1,2,false,d,true,false,0.0-2.0-0.32-0.292-3.292,0,0,0,,false,stim,false,0,,0,0,0,47929,task1,899307,false,false,1061,image-keyboard-response,18
false,8,-1,1,1,false,z,true,false,0.0-2.0-0.32-0.293-3.293,0,0,0,,false,stim,false,2,,0,0,1,47929,task1,903816,false,false,1064,image-keyboard-response,19
false,8,-1,1,2,false,d,true,false,0.0-2.0-0.32-0.294-3.294,0,0,0,,false,stim,false,0,,0,0,0,47929,task1,908326,false,false,1067,image-keyboard-response,20
false,8,-1,1,0,false,q,true,false,0.0-2.0-0.32-0.295-3.295,0,0,0,,false,stim,false,2,,0,0,2,47929,task1,912835,false,false,1070,image-keyboard-response,21
true,8,2,1,0,false,q,false,false,0.0-2.0-0.32-0.296-3.296,0,0,0,68,false,stim,true,2,1839.6999999999534,0,0,2,47929,task1,931894,false,false,1074,image-keyboard-response,22
true,8,1,1,1,true,z,false,true,0.0-2.0-0.33-0.297-3.297,0,0,0,90,false,stim,false,2,830.5,0,0,1,47929,task1,934235,false,false,1077,image-keyboard-response,23
true,8,0,1,2,false,d,false,false,0.0-2.0-0.33-0.298-3.298,0,0,0,81,false,stim,true,0,848.9000000001397,0,0,0,47929,task1,936593,false,false,1080,image-keyboard-response,24
true,8,1,1,1,true,z,false,false,0.0-2.0-0.33-0.299-3.299,0,0,0,90,false,stim,false,2,572.4000000001397,0,0,1,47929,task1,938674,false,true,1083,image-keyboard-response,25
true,8,2,1,0,false,q,false,false,0.0-2.0-0.33-0.300-3.300,0,0,0,68,false,stim,true,2,492.39999999990687,0,0,2,47929,task1,940674,false,false,1086,image-keyboard-response,26
true,8,1,1,1,true,z,false,true,0.0-2.0-0.33-0.301-3.301,0,0,0,90,false,stim,false,2,616.0999999998603,0,0,1,47929,task1,942798,false,false,1089,image-keyboard-response,27
true,8,2,1,2,true,d,false,true,0.0-2.0-0.33-0.302-3.302,0,0,0,68,false,stim,false,0,765.3999999999069,0,0,0,47929,task1,945071,false,false,1092,image-keyboard-response,28
true,8,0,1,0,true,q,false,true,0.0-2.0-0.33-0.303-3.303,0,0,0,81,false,stim,false,2,1293.6000000000931,0,0,2,47929,task1,947873,false,false,1095,image-keyboard-response,29
true,8,0,1,0,true,q,false,true,0.0-2.0-0.33-0.304-3.304,0,0,0,81,false,stim,false,2,549.1999999999534,0,0,2,47929,task1,949930,false,false,1098,image-keyboard-response,30
true,8,2,1,2,true,d,false,false,0.0-2.0-0.33-0.305-3.305,0,0,0,68,false,stim,false,0,767.7000000001863,0,0,0,47929,task1,952218,false,true,1101,image-keyboard-response,31
true,8,0,1,0,true,q,false,true,0.0-2.0-0.34-0.306-3.306,0,0,0,81,false,stim,false,2,691.8999999999069,0,0,2,47929,task1,954420,false,false,1104,image-keyboard-response,32
true,8,0,1,2,false,d,false,false,0.0-2.0-0.34-0.307-3.307,0,0,0,81,false,stim,true,0,524.0,0,0,0,47929,task1,956452,false,false,1107,image-keyboard-response,33
true,8,1,1,1,true,z,false,true,0.0-2.0-0.34-0.308-3.308,0,0,0,90,false,stim,false,2,470.19999999995343,0,0,1,47929,task1,958431,false,false,1110,image-keyboard-response,34
true,8,0,1,0,true,q,false,true,0.0-2.0-0.34-0.309-3.309,0,0,0,81,false,stim,false,2,724.1999999999534,0,0,2,47929,task1,960663,false,false,1113,image-keyboard-response,35
true,8,2,1,1,false,z,false,false,0.0-2.0-0.34-0.310-3.310,0,0,0,68,false,stim,true,2,885.2999999998137,0,0,1,47929,task1,963057,false,false,1116,image-keyboard-response,36
true,8,1,1,1,true,z,false,true,0.0-2.0-0.34-0.311-3.311,0,0,0,90,false,stim,false,2,454.9000000001397,0,0,1,47929,task1,965019,false,false,1119,image-keyboard-response,37
true,8,2,1,2,true,d,false,true,0.0-2.0-0.34-0.312-3.312,0,0,0,68,false,stim,false,0,567.1999999999534,0,0,0,47929,task1,967093,false,false,1122,image-keyboard-response,38
true,8,2,1,2,true,d,false,true,0.0-2.0-0.34-0.313-3.313,0,0,0,68,false,stim,false,0,555.0999999998603,0,0,0,47929,task1,969156,false,false,1125,image-keyboard-response,39
true,8,1,1,0,false,q,true,false,0.0-2.0-0.34-0.314-3.314,0,0,0,90,false,stim,false,2,559.1000000000931,0,0,2,47929,task1,971223,false,false,1128,image-keyboard-response,40
true,8,0,1,0,true,q,false,true,0.0-2.0-0.35-0.315-3.315,0,0,0,81,false,stim,false,2,616.0,0,0,2,47929,task1,973348,false,false,1131,image-keyboard-response,41
true,9,2,2,0,false,q,false,false,0.0-2.0-0.35-0.316-3.316,0,0,0,68,true,stim,true,2,1180.6000000000931,0,0,0,47929,task1,976036,false,false,1134,image-keyboard-response,1
true,9,1,2,0,false,q,false,false,0.0-2.0-0.35-0.317-3.317,0,0,0,90,false,stim,true,1,488.30000000004657,0,0,1,47929,task1,978032,false,false,1137,image-keyboard-response,2
true,9,0,2,0,true,q,false,true,0.0-2.0-0.35-0.318-3.318,0,0,0,81,false,stim,false,1,747.8999999999069,0,0,1,47929,task1,980287,false,false,1140,image-keyboard-response,3
true,9,1,2,0,false,q,true,false,0.0-2.0-0.35-0.319-3.319,0,0,0,90,false,stim,false,2,889.6999999999534,0,0,0,47929,task1,982686,false,false,1143,image-keyboard-response,4
true,9,0,2,0,true,q,false,true,0.0-2.0-0.35-0.320-3.320,0,0,0,81,false,stim,false,2,499.0,0,0,0,47929,task1,984693,false,false,1146,image-keyboard-response,5
true,9,0,2,0,true,q,false,true,0.0-2.0-0.35-0.321-3.321,0,0,0,81,false,stim,false,1,548.5,0,0,1,47929,task1,986748,false,false,1149,image-keyboard-response,6
true,9,2,2,1,false,z,true,false,0.0-2.0-0.35-0.322-3.322,0,0,0,68,false,stim,false,0,731.6000000000931,0,0,2,47929,task1,988987,false,false,1152,image-keyboard-response,7
true,9,1,2,1,true,z,false,true,0.0-2.0-0.35-0.323-3.323,0,0,0,90,false,stim,false,0,441.29999999981374,0,0,2,47929,task1,990936,false,false,1155,image-keyboard-response,8
true,9,0,2,0,true,q,false,true,0.0-2.0-0.36-0.324-3.324,0,0,0,81,false,stim,false,1,609.5999999998603,0,0,1,47929,task1,993055,false,false,1158,image-keyboard-response,9
true,9,1,2,1,true,z,false,true,0.0-2.0-0.36-0.325-3.325,0,0,0,90,false,stim,false,0,510.89999999990687,0,0,2,47929,task1,995075,false,false,1161,image-keyboard-response,10
true,9,0,2,0,true,q,false,false,0.0-2.0-0.36-0.326-3.326,0,0,0,81,false,stim,false,2,503.80000000004657,0,0,0,47929,task1,997088,false,true,1164,image-keyboard-response,11
true,9,1,2,1,true,z,false,true,0.0-2.0-0.36-0.327-3.327,0,0,0,90,false,stim,false,0,408.29999999981374,0,0,2,47929,task1,999004,false,false,1167,image-keyboard-response,12
true,9,0,2,0,true,q,false,true,0.0-2.0-0.36-0.328-3.328,0,0,0,81,false,stim,false,1,422.8000000002794,0,0,1,47929,task1,1000935,false,false,1170,image-keyboard-response,13
true,9,1,2,1,true,z,false,true,0.0-2.0-0.36-0.329-3.329,0,0,0,90,false,stim,false,0,629.8000000002794,0,0,2,47929,task1,1003074,false,false,1173,image-keyboard-response,14
true,9,0,2,0,true,q,false,false,0.0-2.0-0.36-0.330-3.330,0,0,0,81,false,stim,false,2,454.60000000009313,0,0,0,47929,task1,1005035,false,true,1176,image-keyboard-response,15
true,9,0,2,0,true,q,false,true,0.0-2.0-0.36-0.331-3.331,0,0,0,81,false,stim,false,1,646.4000000003725,0,0,1,47929,task1,1007189,false,false,1179,image-keyboard-response,16
true,9,0,2,0,true,q,false,true,0.0-2.0-0.36-0.332-3.332,0,0,0,81,false,stim,false,2,445.0,0,0,0,47929,task1,1009142,false,false,1182,image-keyboard-response,17
true,9,0,2,0,true,q,false,true,0.0-2.0-0.37-0.333-3.333,0,0,0,81,false,stim,false,1,542.8000000002794,0,0,1,47929,task1,1011194,false,false,1185,image-keyboard-response,18
true,9,0,2,0,true,q,false,true,0.0-2.0-0.37-0.334-3.334,0,0,0,81,false,stim,false,1,488.20000000018626,0,0,1,47929,task1,1013190,false,false,1188,image-keyboard-response,19
true,9,0,2,0,true,q,false,true,0.0-2.0-0.37-0.335-3.335,0,0,0,81,false,stim,false,2,583.2999999998137,0,0,0,47929,task1,1015289,false,false,1191,image-keyboard-response,20
true,9,1,2,1,true,z,false,false,0.0-2.0-0.37-0.336-3.336,0,0,0,90,false,stim,false,0,626.1000000000931,0,0,2,47929,task1,1017423,false,true,1194,image-keyboard-response,21
true,9,1,2,1,true,z,false,false,0.0-2.0-0.37-0.337-3.337,0,0,0,90,false,stim,false,0,430.5,0,0,2,47929,task1,1019362,false,true,1197,image-keyboard-response,22
true,9,1,2,1,true,z,false,true,0.0-2.0-0.37-0.338-3.338,0,0,0,90,false,stim,false,0,465.5,0,0,2,47929,task1,1021335,false,false,1200,image-keyboard-response,23
true,9,0,2,0,true,q,false,true,0.0-2.0-0.37-0.339-3.339,0,0,0,81,false,stim,false,1,619.8000000002794,0,0,1,47929,task1,1023477,false,false,1203,image-keyboard-response,24
true,9,0,2,0,true,q,false,true,0.0-2.0-0.37-0.340-3.340,0,0,0,81,false,stim,false,2,531.2999999998137,0,0,0,47929,task1,1025517,false,false,1206,image-keyboard-response,25
true,9,0,2,0,true,q,false,true,0.0-2.0-0.37-0.341-3.341,0,0,0,81,false,stim,false,2,485.8000000002794,0,0,0,47929,task1,1027511,false,false,1209,image-keyboard-response,26
true,9,0,2,0,true,q,false,true,0.0-2.0-0.38-0.342-3.342,0,0,0,81,false,stim,false,2,490.70000000018626,0,0,0,47929,task1,1029510,false,false,1212,image-keyboard-response,27
true,9,1,2,1,true,z,false,true,0.0-2.0-0.38-0.343-3.343,0,0,0,90,false,stim,false,0,383.0,0,0,2,47929,task1,1031402,false,false,1215,image-keyboard-response,28
true,9,0,2,0,true,q,false,true,0.0-2.0-0.38-0.344-3.344,0,0,0,81,false,stim,false,2,455.5,0,0,0,47929,task1,1033366,false,false,1218,image-keyboard-response,29
true,9,1,2,1,true,z,false,true,0.0-2.0-0.38-0.345-3.345,0,0,0,90,false,stim,false,0,403.6999999997206,0,0,2,47929,task1,1035278,false,false,1221,image-keyboard-response,30
true,9,0,2,0,true,q,false,false,0.0-2.0-0.38-0.346-3.346,0,0,0,81,false,stim,false,1,831.9000000003725,0,0,1,47929,task1,1037617,false,true,1224,image-keyboard-response,31
true,9,1,2,0,false,q,true,false,0.0-2.0-0.38-0.347-3.347,0,0,0,90,false,stim,false,2,506.29999999981374,0,0,0,47929,task1,1039631,false,false,1227,image-keyboard-response,32
true,9,0,2,0,true,q,false,true,0.0-2.0-0.38-0.348-3.348,0,0,0,81,false,stim,false,1,459.0,0,0,1,47929,task1,1041599,false,false,1230,image-keyboard-response,33
true,9,1,2,1,true,z,false,true,0.0-2.0-0.38-0.349-3.349,0,0,0,90,false,stim,false,0,427.39999999990687,0,0,2,47929,task1,1043534,false,false,1233,image-keyboard-response,34
true,9,0,2,0,true,q,false,true,0.0-2.0-0.38-0.350-3.350,0,0,0,81,false,stim,false,1,437.5,0,0,1,47929,task1,1045481,false,false,1236,image-keyboard-response,35
true,9,0,2,0,true,q,false,true,0.0-2.0-0.39-0.351-3.351,0,0,0,81,false,stim,false,2,445.10000000009313,0,0,0,47929,task1,1047435,false,false,1239,image-keyboard-response,36
true,9,1,2,1,true,z,false,false,0.0-2.0-0.39-0.352-3.352,0,0,0,90,false,stim,false,0,493.0,0,0,2,47929,task1,1049436,false,true,1242,image-keyboard-response,37
true,9,0,2,0,true,q,false,true,0.0-2.0-0.39-0.353-3.353,0,0,0,81,false,stim,false,1,505.59999999962747,0,0,1,47929,task1,1051450,false,false,1245,image-keyboard-response,38
true,9,0,2,0,true,q,false,true,0.0-2.0-0.39-0.354-3.354,0,0,0,81,false,stim,false,2,452.6999999997206,0,0,0,47929,task1,1053411,false,false,1248,image-keyboard-response,39
true,9,0,2,1,false,z,false,false,0.0-2.0-0.39-0.355-3.355,0,0,0,81,false,stim,true,0,707.3000000002794,0,0,2,47929,task1,1055629,false,false,1251,image-keyboard-response,40
true,9,0,2,0,true,q,false,true,0.0-2.0-0.39-0.356-3.356,0,0,0,81,false,stim,false,2,455.10000000009313,0,0,0,47929,task1,1057593,false,false,1254,image-keyboard-response,41
true,9,0,2,0,true,q,false,true,0.0-2.0-0.39-0.357-3.357,0,0,0,81,false,stim,false,1,779.5,0,0,1,47929,task1,1059882,false,false,1257,image-keyboard-response,42
true,9,1,2,1,true,z,false,true,0.0-2.0-0.39-0.358-3.358,0,0,0,90,false,stim,false,0,454.20000000018626,0,0,2,47929,task1,1061847,false,false,1260,image-keyboard-response,43
true,9,0,2,0,true,q,false,true,0.0-2.0-0.39-0.359-3.359,0,0,0,81,false,stim,false,1,499.60000000009313,0,0,1,47929,task1,1063854,false,false,1263,image-keyboard-response,44
true,10,0,2,1,false,z,false,false,0.0-2.0-0.40-0.360-3.360,0,0,0,81,true,stim,true,0,443.39999999990687,0,0,1,47929,task1,1065807,false,false,1266,image-keyboard-response,1
true,10,1,2,0,false,q,false,false,0.0-2.0-0.40-0.361-3.361,0,0,0,90,false,stim,true,1,482.10000000009313,0,0,2,47929,task1,1067797,false,false,1269,image-keyboard-response,2
true,10,1,2,1,true,z,false,true,0.0-2.0-0.40-0.362-3.362,0,0,0,90,false,stim,false,0,807.0999999996275,0,0,0,47929,task1,1070112,false,false,1272,image-keyboard-response,3
true,10,0,2,0,true,q,false,true,0.0-2.0-0.40-0.363-3.363,0,0,0,81,false,stim,false,1,671.0,0,0,2,47929,task1,1072292,false,false,1275,image-keyboard-response,4
true,10,2,2,1,false,z,true,false,0.0-2.0-0.40-0.364-3.364,0,0,0,68,false,stim,false,0,569.1000000000931,0,0,1,47929,task1,1074370,false,false,1278,image-keyboard-response,5
true,10,0,2,0,true,q,false,true,0.0-2.0-0.40-0.365-3.365,0,0,0,81,false,stim,false,1,738.3000000002794,0,0,2,47929,task1,1076616,false,false,1281,image-keyboard-response,6
true,10,1,2,1,true,z,false,true,0.0-2.0-0.40-0.366-3.366,0,0,0,90,false,stim,false,0,488.39999999990687,0,0,0,47929,task1,1078613,false,false,1284,image-keyboard-response,7
true,10,1,2,1,true,z,false,true,0.0-2.0-0.40-0.367-3.367,0,0,0,90,false,stim,false,0,437.5,0,0,0,47929,task1,1080559,false,false,1287,image-keyboard-response,8
true,10,1,2,1,true,z,false,true,0.0-2.0-0.40-0.368-3.368,0,0,0,90,false,stim,false,0,438.59999999962747,0,0,1,47929,task1,1082508,false,false,1290,image-keyboard-response,9
true,10,0,2,0,true,q,false,true,0.0-2.0-0.41-0.369-3.369,0,0,0,81,false,stim,false,1,438.60000000009313,0,0,2,47929,task1,1084455,false,false,1293,image-keyboard-response,10
true,10,1,2,1,true,z,false,false,0.0-2.0-0.41-0.370-3.370,0,0,0,90,false,stim,false,0,576.1000000000931,0,0,1,47929,task1,1086539,false,true,1296,image-keyboard-response,11
true,10,0,2,0,true,q,false,false,0.0-2.0-0.41-0.371-3.371,0,0,0,81,false,stim,false,1,451.6999999997206,0,0,2,47929,task1,1088500,false,true,1299,image-keyboard-response,12
true,10,1,2,1,true,z,false,true,0.0-2.0-0.41-0.372-3.372,0,0,0,90,false,stim,false,0,582.3999999999069,0,0,0,47929,task1,1090609,false,false,1302,image-keyboard-response,13
true,10,1,2,1,true,z,false,false,0.0-2.0-0.41-0.373-3.373,0,0,0,90,false,stim,false,0,451.20000000018626,0,0,0,47929,task1,1092568,false,true,1305,image-keyboard-response,14
true,10,0,2,0,true,q,false,true,0.0-2.0-0.41-0.374-3.374,0,0,0,81,false,stim,false,1,520.8000000002794,0,0,2,47929,task1,1094598,false,false,1308,image-keyboard-response,15
true,10,1,2,1,true,z,false,true,0.0-2.0-0.41-0.375-3.375,0,0,0,90,false,stim,false,0,734.8999999999069,0,0,1,47929,task1,1096842,false,false,1311,image-keyboard-response,16
true,10,1,2,1,true,z,false,true,0.0-2.0-0.41-0.376-3.376,0,0,0,90,false,stim,false,0,401.89999999990687,0,0,0,47929,task1,1098753,false,false,1314,image-keyboard-response,17
true,10,1,2,1,true,z,false,true,0.0-2.0-0.41-0.377-3.377,0,0,0,90,false,stim,false,0,436.89999999990687,0,0,1,47929,task1,1100700,false,false,1317,image-keyboard-response,18
true,10,1,2,1,true,z,false,true,0.0-2.0-0.42-0.378-3.378,0,0,0,90,false,stim,false,0,405.09999999962747,0,0,1,47929,task1,1102615,false,false,1320,image-keyboard-response,19
true,10,0,2,0,true,q,false,true,0.0-2.0-0.42-0.379-3.379,0,0,0,81,false,stim,false,1,553.6999999997206,0,0,2,47929,task1,1104677,false,false,1323,image-keyboard-response,20
true,10,1,2,1,true,z,false,true,0.0-2.0-0.42-0.380-3.380,0,0,0,90,false,stim,false,0,543.2999999998137,0,0,1,47929,task1,1106730,false,false,1326,image-keyboard-response,21
true,10,1,2,1,true,z,false,true,0.0-2.0-0.42-0.381-3.381,0,0,0,90,false,stim,false,0,412.60000000009313,0,0,1,47929,task1,1108651,false,false,1329,image-keyboard-response,22
true,10,0,2,0,true,q,false,true,0.0-2.0-0.42-0.382-3.382,0,0,0,81,false,stim,false,1,420.89999999990687,0,0,2,47929,task1,1110582,false,false,1332,image-keyboard-response,23
true,10,1,2,1,true,z,false,true,0.0-2.0-0.42-0.383-3.383,0,0,0,90,false,stim,false,0,430.70000000018626,0,0,0,47929,task1,1112522,false,false,1335,image-keyboard-response,24
true,10,1,2,1,true,z,false,true,0.0-2.0-0.42-0.384-3.384,0,0,0,90,false,stim,false,0,349.29999999981374,0,0,0,47929,task1,1114379,false,false,1338,image-keyboard-response,25
true,10,0,2,0,true,q,false,true,0.0-2.0-0.42-0.385-3.385,0,0,0,81,false,stim,false,1,447.90000000037253,0,0,2,47929,task1,1116338,false,false,1341,image-keyboard-response,26
true,10,1,2,1,true,z,false,true,0.0-2.0-0.42-0.386-3.386,0,0,0,90,false,stim,false,0,497.39999999990687,0,0,0,47929,task1,1118344,false,false,1344,image-keyboard-response,27
true,10,1,2,1,true,z,false,true,0.0-2.0-0.43-0.387-3.387,0,0,0,90,false,stim,false,0,383.6999999997206,0,0,0,47929,task1,1120240,false,false,1347,image-keyboard-response,28
true,10,0,2,0,true,q,false,true,0.0-2.0-0.43-0.388-3.388,0,0,0,81,false,stim,false,1,430.3000000002794,0,0,2,47929,task1,1122180,false,false,1350,image-keyboard-response,29
true,10,1,2,1,true,z,false,true,0.0-2.0-0.43-0.389-3.389,0,0,0,90,false,stim,false,0,500.10000000009313,0,0,1,47929,task1,1124189,false,false,1353,image-keyboard-response,30
true,10,1,2,1,true,z,false,true,0.0-2.0-0.43-0.390-3.390,0,0,0,90,false,stim,false,0,455.0,0,0,1,47929,task1,1126153,false,false,1356,image-keyboard-response,31
true,10,1,2,1,true,z,false,true,0.0-2.0-0.43-0.391-3.391,0,0,0,90,false,stim,false,0,407.39999999990687,0,0,1,47929,task1,1128070,false,false,1359,image-keyboard-response,32
true,10,0,2,0,true,q,false,true,0.0-2.0-0.43-0.392-3.392,0,0,0,81,false,stim,false,1,477.10000000009313,0,0,2,47929,task1,1130056,false,false,1362,image-keyboard-response,33
true,10,1,2,1,true,z,false,true,0.0-2.0-0.43-0.393-3.393,0,0,0,90,false,stim,false,0,477.0,0,0,0,47929,task1,1132043,false,false,1365,image-keyboard-response,34
true,10,0,2,0,true,q,false,true,0.0-2.0-0.43-0.394-3.394,0,0,0,81,false,stim,false,1,614.4000000003725,0,0,2,47929,task1,1134167,false,false,1368,image-keyboard-response,35
true,10,1,2,1,true,z,false,true,0.0-2.0-0.43-0.395-3.395,0,0,0,90,false,stim,false,0,419.39999999990687,0,0,0,47929,task1,1136097,false,false,1371,image-keyboard-response,36
true,10,1,2,1,true,z,false,true,0.0-2.0-0.44-0.396-3.396,0,0,0,90,false,stim,false,0,677.0,0,0,1,47929,task1,1138283,false,false,1374,image-keyboard-response,37
true,10,0,2,0,true,q,false,true,0.0-2.0-0.44-0.397-3.397,0,0,0,81,false,stim,false,1,674.1000000000931,0,0,2,47929,task1,1140465,false,false,1377,image-keyboard-response,38
true,10,1,2,1,true,z,false,true,0.0-2.0-0.44-0.398-3.398,0,0,0,90,false,stim,false,0,546.4000000003725,0,0,0,47929,task1,1142522,false,false,1380,image-keyboard-response,39
true,10,1,2,1,true,z,false,true,0.0-2.0-0.44-0.399-3.399,0,0,0,90,false,stim,false,0,456.60000000009313,0,0,0,47929,task1,1144487,false,false,1383,image-keyboard-response,40
true,10,1,2,1,true,z,false,true,0.0-2.0-0.44-0.400-3.400,0,0,0,90,false,stim,false,0,582.6000000000931,0,0,0,47929,task1,1146577,false,false,1386,image-keyboard-response,41
true,10,1,2,1,true,z,false,false,0.0-2.0-0.44-0.401-3.401,0,0,0,90,false,stim,false,0,1211.1000000000931,0,0,1,47929,task1,1149298,false,true,1389,image-keyboard-response,42
true,10,0,2,0,true,q,false,true,0.0-2.0-0.44-0.402-3.402,0,0,0,81,false,stim,false,1,508.0,0,0,2,47929,task1,1151313,false,false,1392,image-keyboard-response,43
true,11,0,2,1,false,z,false,false,0.0-2.0-0.44-0.403-3.403,0,0,0,81,true,stim,true,0,806.2000000001863,0,0,2,47929,task1,1153630,false,false,1395,image-keyboard-response,1
true,11,1,2,0,false,q,false,false,0.0-2.0-0.44-0.404-3.404,0,0,0,90,false,stim,true,1,479.29999999981374,0,0,1,47929,task1,1155618,false,false,1398,image-keyboard-response,2
true,11,1,2,0,false,q,false,false,0.0-2.0-0.45-0.405-3.405,0,0,0,90,false,stim,true,1,609.8999999999069,0,0,0,47929,task1,1157754,false,false,1401,image-keyboard-response,3
true,11,2,2,0,false,q,true,true,0.0-2.0-0.45-0.406-3.406,0,0,0,68,false,stim,false,1,543.2000000001863,0,0,0,47929,task1,1159806,false,true,1404,image-keyboard-response,4
true,11,2,2,0,false,q,true,false,0.0-2.0-0.45-0.407-3.407,0,0,0,68,false,stim,false,1,549.7000000001863,0,0,0,47929,task1,1161865,false,false,1407,image-keyboard-response,5
true,11,0,2,1,false,z,false,false,0.0-2.0-0.45-0.408-3.408,0,0,0,81,false,stim,true,0,702.0,0,0,2,47929,task1,1164076,false,false,1410,image-keyboard-response,6
true,11,0,2,0,true,q,false,true,0.0-2.0-0.45-0.409-3.409,0,0,0,81,false,stim,false,1,600.2999999998137,0,0,1,47929,task1,1166185,false,false,1413,image-keyboard-response,7
true,11,1,2,1,true,z,false,true,0.0-2.0-0.45-0.410-3.410,0,0,0,90,false,stim,false,0,545.8000000002794,0,0,2,47929,task1,1168241,false,false,1416,image-keyboard-response,8
true,11,1,2,1,true,z,false,true,0.0-2.0-0.45-0.411-3.411,0,0,0,90,false,stim,false,0,525.5,0,0,2,47929,task1,1170276,false,false,1419,image-keyboard-response,9
true,11,0,2,0,true,q,false,true,0.0-2.0-0.45-0.412-3.412,0,0,0,81,false,stim,false,1,582.8999999999069,0,0,1,47929,task1,1172367,false,false,1422,image-keyboard-response,10
true,11,0,2,0,true,q,false,true,0.0-2.0-0.45-0.413-3.413,0,0,0,81,false,stim,false,1,529.5999999996275,0,0,1,47929,task1,1174406,false,false,1425,image-keyboard-response,11
true,11,2,2,0,false,q,true,false,0.0-2.0-0.46-0.414-3.414,0,0,0,68,false,stim,false,1,616.0,0,0,0,47929,task1,1176533,false,false,1428,image-keyboard-response,12
true,11,0,2,0,true,q,false,true,0.0-2.0-0.46-0.415-3.415,0,0,0,81,false,stim,false,1,767.0,0,0,1,47929,task1,1178810,false,false,1431,image-keyboard-response,13
true,11,1,2,1,true,z,false,true,0.0-2.0-0.46-0.416-3.416,0,0,0,90,false,stim,false,0,687.7999999998137,0,0,2,47929,task1,1181007,false,false,1434,image-keyboard-response,14
true,11,0,2,0,true,q,false,true,0.0-2.0-0.46-0.417-3.417,0,0,0,81,false,stim,false,1,968.5,0,0,1,47929,task1,1183484,false,false,1437,image-keyboard-response,15
true,11,1,2,1,true,z,false,true,0.0-2.0-0.46-0.418-3.418,0,0,0,90,false,stim,false,0,759.8999999999069,0,0,2,47929,task1,1185752,false,false,1440,image-keyboard-response,16
true,11,1,2,1,true,z,false,true,0.0-2.0-0.46-0.419-3.419,0,0,0,90,false,stim,false,0,766.6999999997206,0,0,2,47929,task1,1188029,false,false,1443,image-keyboard-response,17
true,11,2,2,0,false,q,true,false,0.0-2.0-0.46-0.420-3.420,0,0,0,68,false,stim,false,1,982.5,0,0,0,47929,task1,1190521,false,false,1446,image-keyboard-response,18
true,11,0,2,0,true,q,false,false,0.0-2.0-0.46-0.421-3.421,0,0,0,81,false,stim,false,1,630.2000000001863,0,0,0,47929,task1,1192662,false,true,1449,image-keyboard-response,19
true,11,0,2,0,true,q,false,true,0.0-2.0-0.46-0.422-3.422,0,0,0,81,false,stim,false,1,962.7999999998137,0,0,1,47929,task1,1195134,false,false,1452,image-keyboard-response,20
true,11,1,2,1,true,z,false,true,0.0-2.0-0.47-0.423-3.423,0,0,0,90,false,stim,false,0,592.8000000002794,0,0,2,47929,task1,1197235,false,false,1455,image-keyboard-response,21
true,11,1,2,1,true,z,false,false,0.0-2.0-0.47-0.424-3.424,0,0,0,90,false,stim,false,0,692.7000000001863,0,0,2,47929,task1,1199440,false,true,1458,image-keyboard-response,22
true,11,0,2,0,true,q,false,true,0.0-2.0-0.47-0.425-3.425,0,0,0,81,false,stim,false,1,601.2999999998137,0,0,1,47929,task1,1201550,false,false,1461,image-keyboard-response,23
true,11,0,2,0,true,q,false,true,0.0-2.0-0.47-0.426-3.426,0,0,0,81,false,stim,false,1,789.3999999999069,0,0,1,47929,task1,1203849,false,false,1464,image-keyboard-response,24
true,11,1,2,0,false,q,false,false,0.0-2.0-0.47-0.427-3.427,0,0,0,90,false,stim,true,1,487.10000000009313,0,0,0,47929,task1,1205846,false,false,1467,image-keyboard-response,25
true,11,0,2,0,true,q,false,true,0.0-2.0-0.47-0.428-3.428,0,0,0,81,false,stim,false,1,603.7999999998137,0,0,0,47929,task1,1207959,false,false,1470,image-keyboard-response,26
true,11,1,2,1,true,z,false,true,0.0-2.0-0.47-0.429-3.429,0,0,0,90,false,stim,false,0,727.2000000001863,0,0,2,47929,task1,1210194,false,false,1473,image-keyboard-response,27
true,11,0,2,0,true,q,false,true,0.0-2.0-0.47-0.430-3.430,0,0,0,81,false,stim,false,1,1035.8000000002794,0,0,1,47929,task1,1212740,false,false,1476,image-keyboard-response,28
true,11,0,2,0,true,q,false,true,0.0-2.0-0.47-0.431-3.431,0,0,0,81,false,stim,false,1,442.3000000002794,0,0,0,47929,task1,1214691,false,false,1479,image-keyboard-response,29
true,11,0,2,0,true,q,false,true,0.0-2.0-0.48-0.432-3.432,0,0,0,81,false,stim,false,1,441.1999999997206,0,0,0,47929,task1,1216642,false,false,1482,image-keyboard-response,30
true,11,0,2,0,true,q,false,true,0.0-2.0-0.48-0.433-3.433,0,0,0,81,false,stim,false,1,727.0,0,0,1,47929,task1,1218877,false,false,1485,image-keyboard-response,31
true,11,1,2,1,true,z,false,true,0.0-2.0-0.48-0.434-3.434,0,0,0,90,false,stim,false,0,504.60000000009313,0,0,2,47929,task1,1220891,false,false,1488,image-keyboard-response,32
true,11,0,2,0,true,q,false,true,0.0-2.0-0.48-0.435-3.435,0,0,0,81,false,stim,false,1,567.6999999997206,0,0,0,47929,task1,1222970,false,false,1491,image-keyboard-response,33
true,11,0,2,0,true,q,false,true,0.0-2.0-0.48-0.436-3.436,0,0,0,81,false,stim,false,1,922.6000000000931,0,0,1,47929,task1,1225401,false,false,1494,image-keyboard-response,34
true,11,0,2,0,true,q,false,true,0.0-2.0-0.48-0.437-3.437,0,0,0,81,false,stim,false,1,619.8000000002794,0,0,0,47929,task1,1227530,false,false,1497,image-keyboard-response,35
true,11,1,2,1,true,z,false,true,0.0-2.0-0.48-0.438-3.438,0,0,0,90,false,stim,false,0,537.8000000002794,0,0,2,47929,task1,1229577,false,false,1500,image-keyboard-response,36
true,11,1,2,1,true,z,false,false,0.0-2.0-0.48-0.439-3.439,0,0,0,90,false,stim,false,0,792.8999999999069,0,0,2,47929,task1,1231900,false,true,1503,image-keyboard-response,37
true,11,0,2,0,true,q,false,true,0.0-2.0-0.48-0.440-3.440,0,0,0,81,false,stim,false,1,518.2000000001863,0,0,1,47929,task1,1233928,false,false,1506,image-keyboard-response,38
true,11,0,2,0,true,q,false,false,0.0-2.0-0.49-0.441-3.441,0,0,0,81,false,stim,false,1,488.20000000018626,0,0,1,47929,task1,1235928,false,true,1509,image-keyboard-response,39
true,11,0,2,0,true,q,false,true,0.0-2.0-0.49-0.442-3.442,0,0,0,81,false,stim,false,1,709.6999999997206,0,0,0,47929,task1,1238146,false,false,1512,image-keyboard-response,40
true,11,0,2,0,true,q,false,true,0.0-2.0-0.49-0.443-3.443,0,0,0,81,false,stim,false,1,627.2000000001863,0,0,1,47929,task1,1240285,false,false,1515,image-keyboard-response,41
true,11,0,2,0,true,q,false,true,0.0-2.0-0.49-0.444-3.444,0,0,0,81,false,stim,false,1,467.20000000018626,0,0,1,47929,task1,1242262,false,false,1518,image-keyboard-response,42
true,12,1,2,0,false,q,false,false,0.0-2.0-0.49-0.445-3.445,0,0,0,90,true,stim,true,1,516.1000000000931,0,0,2,47929,task1,1244290,false,false,1521,image-keyboard-response,1
true,12,2,2,0,false,q,true,false,0.0-2.0-0.49-0.446-3.446,0,0,0,68,false,stim,false,1,1045.6000000000931,0,0,2,47929,task1,1246844,false,false,1524,image-keyboard-response,2
true,12,1,2,0,false,q,false,false,0.0-2.0-0.49-0.447-3.447,0,0,0,90,false,stim,true,1,544.8999999999069,0,0,2,47929,task1,1248899,false,false,1527,image-keyboard-response,3
true,12,0,2,1,false,z,false,false,0.0-2.0-0.49-0.448-3.448,0,0,0,81,false,stim,true,0,603.8000000002794,0,0,0,47929,task1,1251012,false,false,1530,image-keyboard-response,4
true,12,0,2,1,false,z,false,false,0.0-2.0-0.49-0.449-3.449,0,0,0,81,false,stim,true,0,464.0,0,0,0,47929,task1,1252985,false,false,1533,image-keyboard-response,5
true,12,0,2,0,true,q,false,true,0.0-2.0-0.50-0.450-3.450,0,0,0,81,false,stim,false,1,636.6000000000931,0,0,2,47929,task1,1255133,false,false,1536,image-keyboard-response,6
true,12,0,2,0,true,q,false,true,0.0-2.0-0.50-0.451-3.451,0,0,0,81,false,stim,false,1,756.2999999998137,0,0,2,47929,task1,1257397,false,false,1539,image-keyboard-response,7
true,12,2,2,1,false,z,true,false,0.0-2.0-0.50-0.452-3.452,0,0,0,68,false,stim,false,0,665.2999999998137,0,0,1,47929,task1,1259571,false,false,1542,image-keyboard-response,8
true,12,1,2,1,true,z,false,true,0.0-2.0-0.50-0.453-3.453,0,0,0,90,false,stim,false,0,883.5,0,0,0,47929,task1,1261963,false,false,1545,image-keyboard-response,9
true,12,1,2,1,true,z,false,true,0.0-2.0-0.50-0.454-3.454,0,0,0,90,false,stim,false,0,474.79999999981374,0,0,0,47929,task1,1263948,false,false,1548,image-keyboard-response,10
true,12,1,2,1,true,z,false,true,0.0-2.0-0.50-0.455-3.455,0,0,0,90,false,stim,false,0,479.60000000009313,0,0,1,47929,task1,1265944,false,false,1551,image-keyboard-response,11
true,12,1,2,1,true,z,false,true,0.0-2.0-0.50-0.456-3.456,0,0,0,90,false,stim,false,0,479.0,0,0,1,47929,task1,1267932,false,false,1554,image-keyboard-response,12
true,12,1,2,1,true,z,false,false,0.0-2.0-0.50-0.457-3.457,0,0,0,90,false,stim,false,0,710.6000000000931,0,0,0,47929,task1,1270152,false,true,1557,image-keyboard-response,13
true,12,0,2,0,true,q,false,true,0.0-2.0-0.50-0.458-3.458,0,0,0,81,false,stim,false,1,705.2000000001863,0,0,2,47929,task1,1272368,false,false,1560,image-keyboard-response,14
true,12,1,2,1,true,z,false,true,0.0-2.0-0.51-0.459-3.459,0,0,0,90,false,stim,false,0,435.1999999997206,0,0,0,47929,task1,1274313,false,false,1563,image-keyboard-response,15
true,12,0,2,0,true,q,false,true,0.0-2.0-0.51-0.460-3.460,0,0,0,81,false,stim,false,1,777.1999999997206,0,0,2,47929,task1,1276600,false,false,1566,image-keyboard-response,16
true,12,1,2,1,true,z,false,true,0.0-2.0-0.51-0.461-3.461,0,0,0,90,false,stim,false,0,618.7000000001863,0,0,1,47929,task1,1278729,false,false,1569,image-keyboard-response,17
true,12,0,2,0,true,q,false,true,0.0-2.0-0.51-0.462-3.462,0,0,0,81,false,stim,false,1,508.0,0,0,2,47929,task1,1280748,false,false,1572,image-keyboard-response,18
true,12,1,2,1,true,z,false,true,0.0-2.0-0.51-0.463-3.463,0,0,0,90,false,stim,false,0,612.5,0,0,0,47929,task1,1282870,false,false,1575,image-keyboard-response,19
true,12,0,2,0,true,q,false,true,0.0-2.0-0.51-0.464-3.464,0,0,0,81,false,stim,false,1,584.5,0,0,2,47929,task1,1284964,false,false,1578,image-keyboard-response,20
true,12,1,2,1,true,z,false,true,0.0-2.0-0.51-0.465-3.465,0,0,0,90,false,stim,false,0,523.3999999999069,0,0,0,47929,task1,1286999,false,false,1581,image-keyboard-response,21
true,12,1,2,1,true,z,false,true,0.0-2.0-0.51-0.466-3.466,0,0,0,90,false,stim,false,0,511.10000000009313,0,0,1,47929,task1,1289020,false,false,1584,image-keyboard-response,22
true,12,1,2,1,true,z,false,true,0.0-2.0-0.51-0.467-3.467,0,0,0,90,false,stim,false,0,508.10000000009313,0,0,1,47929,task1,1291038,false,false,1587,image-keyboard-response,23
true,12,1,2,1,true,z,false,true,0.0-2.0-0.52-0.468-3.468,0,0,0,90,false,stim,false,0,526.6000000000931,0,0,0,47929,task1,1293075,false,false,1590,image-keyboard-response,24
true,12,1,2,1,true,z,false,false,0.0-2.0-0.52-0.469-3.469,0,0,0,90,false,stim,false,0,555.5,0,0,1,47929,task1,1295141,false,true,1593,image-keyboard-response,25
true,12,1,2,1,true,z,false,true,0.0-2.0-0.52-0.470-3.470,0,0,0,90,false,stim,false,0,461.0,0,0,1,47929,task1,1297113,false,false,1596,image-keyboard-response,26
true,12,1,2,1,true,z,false,true,0.0-2.0-0.52-0.471-3.471,0,0,0,90,false,stim,false,0,526.1000000000931,0,0,0,47929,task1,1299151,false,false,1599,image-keyboard-response,27
true,12,1,2,1,true,z,false,true,0.0-2.0-0.52-0.472-3.472,0,0,0,90,false,stim,false,0,609.0,0,0,1,47929,task1,1301291,false,false,1602,image-keyboard-response,28
true,12,0,2,0,true,q,false,true,0.0-2.0-0.52-0.473-3.473,0,0,0,81,false,stim,false,1,459.90000000037253,0,0,2,47929,task1,1303261,false,false,1605,image-keyboard-response,29
true,12,0,2,0,true,q,false,true,0.0-2.0-0.52-0.474-3.474,0,0,0,81,false,stim,false,1,431.20000000018626,0,0,2,47929,task1,1305203,false,false,1608,image-keyboard-response,30
true,12,0,2,0,true,q,false,true,0.0-2.0-0.52-0.475-3.475,0,0,0,81,false,stim,false,1,503.29999999981374,0,0,2,47929,task1,1307217,false,false,1611,image-keyboard-response,31
true,12,1,2,1,true,z,false,true,0.0-2.0-0.52-0.476-3.476,0,0,0,90,false,stim,false,0,563.7000000001863,0,0,0,47929,task1,1309291,false,false,1614,image-keyboard-response,32
true,12,1,2,1,true,z,false,true,0.0-2.0-0.53-0.477-3.477,0,0,0,90,false,stim,false,0,624.1000000000931,0,0,1,47929,task1,1311425,false,false,1617,image-keyboard-response,33
true,12,1,2,1,true,z,false,true,0.0-2.0-0.53-0.478-3.478,0,0,0,90,false,stim,false,0,628.9000000003725,0,0,0,47929,task1,1313565,false,false,1620,image-keyboard-response,34
true,12,1,2,0,false,q,false,false,0.0-2.0-0.53-0.479-3.479,0,0,0,90,false,stim,true,1,501.29999999981374,0,0,2,47929,task1,1315576,false,false,1623,image-keyboard-response,35
true,12,1,2,1,true,z,false,true,0.0-2.0-0.53-0.480-3.480,0,0,0,90,false,stim,false,0,606.7999999998137,0,0,1,47929,task1,1317694,false,false,1626,image-keyboard-response,36
true,12,0,2,0,true,q,false,true,0.0-2.0-0.53-0.481-3.481,0,0,0,81,false,stim,false,1,385.5,0,0,2,47929,task1,1319589,false,false,1629,image-keyboard-response,37
true,12,1,2,1,true,z,false,true,0.0-2.0-0.53-0.482-3.482,0,0,0,90,false,stim,false,0,418.5,0,0,0,47929,task1,1321516,false,false,1632,image-keyboard-response,38
true,12,1,2,1,true,z,false,false,0.0-2.0-0.53-0.483-3.483,0,0,0,90,false,stim,false,0,548.7999999998137,0,0,1,47929,task1,1323576,false,true,1635,image-keyboard-response,39
true,12,0,2,0,true,q,false,true,0.0-2.0-0.53-0.484-3.484,0,0,0,81,false,stim,false,1,515.3000000002794,0,0,2,47929,task1,1325600,false,false,1638,image-keyboard-response,40
true,12,1,2,1,true,z,false,false,0.0-2.0-0.53-0.485-3.485,0,0,0,90,false,stim,false,0,372.5,0,0,0,47929,task1,1327485,false,true,1641,image-keyboard-response,41
true,12,0,2,0,true,q,false,true,0.0-2.0-0.54-0.486-3.486,0,0,0,81,false,stim,false,1,515.6000000000931,0,0,2,47929,task1,1329512,false,false,1644,image-keyboard-response,42
true,12,2,2,1,false,z,true,false,0.0-2.0-0.54-0.487-3.487,0,0,0,68,false,stim,false,0,439.39999999990687,0,0,0,47929,task1,1331460,false,false,1647,image-keyboard-response,43
true,12,0,2,0,true,q,false,false,0.0-2.0-0.54-0.488-3.488,0,0,0,81,false,stim,false,1,653.0,0,0,2,47929,task1,1333623,false,true,1650,image-keyboard-response,44
true,12,0,2,1,false,z,false,false,0.0-2.0-0.54-0.489-3.489,0,0,0,81,false,stim,true,0,498.5,0,0,1,47929,task1,1335632,false,false,1653,image-keyboard-response,45
true,13,0,2,1,false,z,false,false,0.0-2.0-0.54-0.490-3.490,0,0,0,81,true,stim,true,0,588.6000000000931,0,0,2,47929,task1,1337731,false,false,1656,image-keyboard-response,1
true,13,0,2,0,true,q,false,true,0.0-2.0-0.54-0.491-3.491,0,0,0,81,false,stim,false,1,1053.7000000001863,0,0,0,47929,task1,1340294,false,false,1659,image-keyboard-response,2
true,13,1,2,0,false,q,false,true,0.0-2.0-0.54-0.492-3.492,0,0,0,90,false,stim,true,1,1065.5999999996275,0,0,1,47929,task1,1342870,false,true,1662,image-keyboard-response,3
true,13,1,2,0,false,q,false,false,0.0-2.0-0.54-0.493-3.493,0,0,0,90,false,stim,true,1,709.1999999997206,0,0,1,47929,task1,1345090,false,false,1665,image-keyboard-response,4
true,13,0,2,0,true,q,false,true,0.0-2.0-0.54-0.494-3.494,0,0,0,81,false,stim,false,1,605.3999999999069,0,0,0,47929,task1,1347206,false,false,1668,image-keyboard-response,5
true,13,0,2,0,true,q,false,true,0.0-2.0-0.55-0.495-3.495,0,0,0,81,false,stim,false,1,694.6000000000931,0,0,1,47929,task1,1349411,false,false,1671,image-keyboard-response,6
true,13,0,2,0,true,q,false,true,0.0-2.0-0.55-0.496-3.496,0,0,0,81,false,stim,false,1,721.8999999999069,0,0,1,47929,task1,1351644,false,false,1674,image-keyboard-response,7
true,13,2,2,1,false,z,true,false,0.0-2.0-0.55-0.497-3.497,0,0,0,68,false,stim,false,0,661.5,0,0,2,47929,task1,1353818,false,false,1677,image-keyboard-response,8
true,13,0,2,0,true,q,false,true,0.0-2.0-0.55-0.498-3.498,0,0,0,81,false,stim,false,1,717.0999999996275,0,0,1,47929,task1,1356047,false,false,1680,image-keyboard-response,9
true,13,1,2,1,true,z,false,true,0.0-2.0-0.55-0.499-3.499,0,0,0,90,false,stim,false,0,475.79999999981374,0,0,2,47929,task1,1358035,false,false,1683,image-keyboard-response,10
true,13,0,2,0,true,q,false,true,0.0-2.0-0.55-0.500-3.500,0,0,0,81,false,stim,false,1,541.6999999997206,0,0,0,47929,task1,1360088,false,false,1686,image-keyboard-response,11
true,13,1,2,1,true,z,false,true,0.0-2.0-0.55-0.501-3.501,0,0,0,90,false,stim,false,0,539.0999999996275,0,0,2,47929,task1,1362138,false,false,1689,image-keyboard-response,12
true,13,0,2,0,true,q,false,true,0.0-2.0-0.55-0.502-3.502,0,0,0,81,false,stim,false,1,329.79999999981374,0,0,0,47929,task1,1363980,false,false,1692,image-keyboard-response,13
true,13,0,2,0,true,q,false,true,0.0-2.0-0.55-0.503-3.503,0,0,0,81,false,stim,false,1,442.89999999990687,0,0,0,47929,task1,1365934,false,false,1695,image-keyboard-response,14
true,13,0,2,0,true,q,false,true,0.0-2.0-0.56-0.504-3.504,0,0,0,81,false,stim,false,1,338.60000000009313,0,0,0,47929,task1,1367784,false,false,1698,image-keyboard-response,15
true,13,0,2,0,true,q,false,true,0.0-2.0-0.56-0.505-3.505,0,0,0,81,false,stim,false,1,585.5999999996275,0,0,1,47929,task1,1369900,false,false,1701,image-keyboard-response,16
true,13,0,2,0,true,q,false,true,0.0-2.0-0.56-0.506-3.506,0,0,0,81,false,stim,false,1,648.8000000002794,0,0,0,47929,task1,1372071,false,false,1704,image-keyboard-response,17
true,13,1,2,1,true,z,false,true,0.0-2.0-0.56-0.507-3.507,0,0,0,90,false,stim,false,0,698.5,0,0,2,47929,task1,1374278,false,false,1707,image-keyboard-response,18
true,13,1,2,1,true,z,false,true,0.0-2.0-0.56-0.508-3.508,0,0,0,90,false,stim,false,0,533.7999999998137,0,0,2,47929,task1,1376325,false,false,1710,image-keyboard-response,19
true,13,0,2,0,true,q,false,true,0.0-2.0-0.56-0.509-3.509,0,0,0,81,false,stim,false,1,656.0,0,0,1,47929,task1,1378493,false,false,1713,image-keyboard-response,20
true,13,1,2,1,true,z,false,false,0.0-2.0-0.56-0.510-3.510,0,0,0,90,false,stim,false,0,551.2999999998137,0,0,2,47929,task1,1380555,false,true,1716,image-keyboard-response,21
true,13,0,2,0,true,q,false,true,0.0-2.0-0.56-0.511-3.511,0,0,0,81,false,stim,false,1,701.0,0,0,1,47929,task1,1382766,false,false,1719,image-keyboard-response,22
true,13,0,2,0,true,q,false,true,0.0-2.0-0.56-0.512-3.512,0,0,0,81,false,stim,false,1,607.2000000001863,0,0,0,47929,task1,1384884,false,false,1722,image-keyboard-response,23
true,13,1,2,1,true,z,false,true,0.0-2.0-0.57-0.513-3.513,0,0,0,90,false,stim,false,0,471.39999999990687,0,0,2,47929,task1,1386866,false,false,1725,image-keyboard-response,24
true,13,1,2,1,true,z,false,true,0.0-2.0-0.57-0.514-3.514,0,0,0,90,false,stim,false,0,471.20000000018626,0,0,2,47929,task1,1388850,false,false,1728,image-keyboard-response,25
true,13,0,2,0,true,q,false,true,0.0-2.0-0.57-0.515-3.515,0,0,0,81,false,stim,false,1,471.60000000009313,0,0,0,47929,task1,1390830,false,false,1731,image-keyboard-response,26
true,13,0,2,0,true,q,false,true,0.0-2.0-0.57-0.516-3.516,0,0,0,81,false,stim,false,1,442.0,0,0,0,47929,task1,1392786,false,false,1734,image-keyboard-response,27
true,13,0,2,0,true,q,false,false,0.0-2.0-0.57-0.517-3.517,0,0,0,81,false,stim,false,1,503.10000000009313,0,0,1,47929,task1,1394800,false,true,1737,image-keyboard-response,28
true,13,0,2,0,true,q,false,true,0.0-2.0-0.57-0.518-3.518,0,0,0,81,false,stim,false,1,363.1999999997206,0,0,1,47929,task1,1396672,false,false,1740,image-keyboard-response,29
true,13,0,2,0,true,q,false,false,0.0-2.0-0.57-0.519-3.519,0,0,0,81,false,stim,false,1,403.79999999981374,0,0,1,47929,task1,1398584,false,true,1743,image-keyboard-response,30
true,13,0,2,0,true,q,false,true,0.0-2.0-0.57-0.520-3.520,0,0,0,81,false,stim,false,1,534.1000000000931,0,0,0,47929,task1,1400629,false,false,1746,image-keyboard-response,31
true,13,0,2,1,false,z,false,false,0.0-2.0-0.57-0.521-3.521,0,0,0,81,false,stim,true,0,451.8000000002794,0,0,2,47929,task1,1402590,false,false,1749,image-keyboard-response,32
true,13,0,2,0,true,q,false,true,0.0-2.0-0.58-0.522-3.522,0,0,0,81,false,stim,false,1,452.39999999990687,0,0,0,47929,task1,1404552,false,false,1752,image-keyboard-response,33
true,13,0,2,0,true,q,false,true,0.0-2.0-0.58-0.523-3.523,0,0,0,81,false,stim,false,1,427.0,0,0,0,47929,task1,1406489,false,false,1755,image-keyboard-response,34
true,13,0,2,0,true,q,false,false,0.0-2.0-0.58-0.524-3.524,0,0,0,81,false,stim,false,1,558.2000000001863,0,0,1,47929,task1,1408556,false,true,1758,image-keyboard-response,35
true,13,0,2,0,true,q,false,true,0.0-2.0-0.58-0.525-3.525,0,0,0,81,false,stim,false,1,1036.1000000000931,0,1,1,47929,task1,1411103,false,false,1761,image-keyboard-response,36
true,13,1,2,1,true,z,false,true,0.0-2.0-0.58-0.526-3.526,0,0,0,90,false,stim,false,0,710.2999999998137,0,1,2,47929,task1,1413323,false,false,1764,image-keyboard-response,37
true,13,0,2,0,true,q,false,true,0.0-2.0-0.58-0.527-3.527,0,0,0,81,false,stim,false,1,1000.1999999997206,0,1,1,47929,task1,1415834,false,false,1767,image-keyboard-response,38
true,13,1,2,1,true,z,false,true,0.0-2.0-0.58-0.528-3.528,0,0,0,90,false,stim,false,0,490.60000000009313,0,1,2,47929,task1,1417838,false,false,1770,image-keyboard-response,39
true,13,1,2,1,true,z,false,true,0.0-2.0-0.58-0.529-3.529,0,0,0,90,false,stim,false,0,599.7999999998137,0,1,2,47929,task1,1419948,false,false,1773,image-keyboard-response,40
true,14,0,0,0,true,q,false,true,0.0-2.0-0.58-0.530-3.530,1,1,1,81,true,stim,false,0,2310.2000000001863,0,1,0,47929,task1,1544053,false,false,1896,image-keyboard-response,1
true,14,0,0,0,true,q,false,true,0.0-2.0-0.59-0.531-3.531,1,1,1,81,false,stim,false,0,907.5,0,1,1,47929,task1,1546473,false,false,1899,image-keyboard-response,2
true,14,0,0,0,true,q,false,true,0.0-2.0-0.59-0.532-3.532,1,1,1,81,false,stim,false,0,618.6000000000931,0,1,0,47929,task1,1548625,false,false,1902,image-keyboard-response,3
true,14,0,0,0,true,q,false,true,0.0-2.0-0.59-0.533-3.533,1,1,1,81,false,stim,false,0,409.60000000009313,0,1,0,47929,task1,1550545,false,false,1905,image-keyboard-response,4
true,14,0,0,0,true,q,false,true,0.0-2.0-0.59-0.534-3.534,1,1,1,81,false,stim,false,0,348.8000000002794,0,1,0,47929,task1,1552405,false,false,1908,image-keyboard-response,5
true,14,1,0,1,true,z,false,true,0.0-2.0-0.59-0.535-3.535,1,1,1,90,false,stim,false,1,548.5,0,1,2,47929,task1,1554464,false,false,1911,image-keyboard-response,6
true,14,1,0,1,true,z,false,true,0.0-2.0-0.59-0.536-3.536,1,1,1,90,false,stim,false,1,384.29999999981374,0,1,2,47929,task1,1556359,false,false,1914,image-keyboard-response,7
true,14,0,0,0,true,q,false,true,0.0-2.0-0.59-0.537-3.537,1,1,1,81,false,stim,false,0,574.0,0,1,1,47929,task1,1558444,false,false,1917,image-keyboard-response,8
true,14,0,0,0,true,q,false,true,0.0-2.0-0.59-0.538-3.538,1,1,1,81,false,stim,false,0,662.8999999999069,0,0,1,47929,task1,1560618,false,false,1920,image-keyboard-response,9
true,14,1,0,1,true,z,false,true,0.0-2.0-0.59-0.539-3.539,1,1,1,90,false,stim,false,1,577.1999999997206,0,0,2,47929,task1,1562705,false,false,1923,image-keyboard-response,10
true,14,1,0,1,true,z,false,true,0.0-2.0-0.60-0.540-3.540,1,1,1,90,false,stim,false,1,576.7999999998137,0,0,2,47929,task1,1564793,false,false,1926,image-keyboard-response,11
true,14,0,0,0,true,q,false,true,0.0-2.0-0.60-0.541-3.541,1,1,1,81,false,stim,false,0,590.7999999998137,0,0,1,47929,task1,1566894,false,false,1929,image-keyboard-response,12
true,14,0,0,0,true,q,false,true,0.0-2.0-0.60-0.542-3.542,1,1,1,81,false,stim,false,0,770.0999999996275,0,0,1,47929,task1,1569174,false,false,1932,image-keyboard-response,13
true,15,1,2,0,false,q,false,true,0.0-2.0-0.60-0.543-3.543,0,0,0,90,true,stim,true,1,1010.0999999996275,0,0,2,47929,task1,1571695,false,true,1935,image-keyboard-response,1
true,15,0,2,1,false,z,false,true,0.0-2.0-0.60-0.544-3.544,0,0,0,81,false,stim,true,0,852.3999999999069,0,0,0,47929,task1,1574060,false,true,1938,image-keyboard-response,2
true,15,1,2,0,false,q,false,false,0.0-2.0-0.60-0.545-3.545,0,0,0,90,false,stim,true,1,934.5,0,0,2,47929,task1,1576507,false,false,1941,image-keyboard-response,3
true,15,0,2,1,false,z,false,false,0.0-2.0-0.60-0.546-3.546,0,0,0,81,false,stim,true,0,529.1999999997206,0,0,0,47929,task1,1578549,false,false,1944,image-keyboard-response,4
true,15,0,2,1,false,z,false,false,0.0-2.0-0.60-0.547-3.547,0,0,0,81,false,stim,true,0,760.2999999998137,0,0,1,47929,task1,1580820,false,false,1947,image-keyboard-response,5
true,15,1,2,1,true,z,false,true,0.0-2.0-0.60-0.548-3.548,0,0,0,90,false,stim,false,0,989.1999999997206,0,0,0,47929,task1,1583319,false,false,1950,image-keyboard-response,6
true,15,1,2,1,true,z,false,true,0.0-2.0-0.61-0.549-3.549,0,0,0,90,false,stim,false,0,495.79999999981374,0,0,1,47929,task1,1585326,false,false,1953,image-keyboard-response,7
true,15,1,2,1,true,z,false,true,0.0-2.0-0.61-0.550-3.550,0,0,0,90,false,stim,false,0,728.3999999999069,0,0,1,47929,task1,1587567,false,false,1956,image-keyboard-response,8
true,15,1,2,1,true,z,false,true,0.0-2.0-0.61-0.551-3.551,0,0,0,90,false,stim,false,0,522.1000000000931,0,0,1,47929,task1,1589600,false,false,1959,image-keyboard-response,9
true,15,1,2,1,true,z,false,true,0.0-2.0-0.61-0.552-3.552,0,0,0,90,false,stim,false,0,564.1000000000931,0,0,0,47929,task1,1591675,false,false,1962,image-keyboard-response,10
true,15,1,2,1,true,z,false,false,0.0-2.0-0.61-0.553-3.553,0,0,0,90,false,stim,false,0,435.0,0,0,0,47929,task1,1593626,false,true,1965,image-keyboard-response,11
true,15,0,2,0,true,q,false,true,0.0-2.0-0.61-0.554-3.554,0,0,0,81,false,stim,false,1,485.0,0,0,2,47929,task1,1595621,false,false,1968,image-keyboard-response,12
true,15,0,2,0,true,q,false,false,0.0-2.0-0.61-0.555-3.555,0,0,0,81,false,stim,false,1,631.0,0,0,2,47929,task1,1597763,false,true,1971,image-keyboard-response,13
true,15,0,2,0,true,q,false,true,0.0-2.0-0.61-0.556-3.556,0,0,0,81,false,stim,false,1,539.2999999998137,0,0,2,47929,task1,1599815,false,false,1974,image-keyboard-response,14
true,15,1,2,1,true,z,false,true,0.0-2.0-0.61-0.557-3.557,0,0,0,90,false,stim,false,0,404.40000000037253,0,0,0,47929,task1,1601732,false,false,1977,image-keyboard-response,15
true,15,0,2,0,true,q,false,true,0.0-2.0-0.62-0.558-3.558,0,0,0,81,false,stim,false,1,458.90000000037253,0,0,2,47929,task1,1603703,false,false,1980,image-keyboard-response,16
true,15,1,2,1,true,z,false,true,0.0-2.0-0.62-0.559-3.559,0,0,0,90,false,stim,false,0,547.6000000000931,0,0,0,47929,task1,1605761,false,false,1983,image-keyboard-response,17
true,15,0,2,0,true,q,false,true,0.0-2.0-0.62-0.560-3.560,0,0,0,81,false,stim,false,1,498.39999999990687,0,0,2,47929,task1,1607771,false,false,1986,image-keyboard-response,18
true,15,0,2,0,true,q,false,true,0.0-2.0-0.62-0.561-3.561,0,0,0,81,false,stim,false,1,582.2000000001863,0,0,2,47929,task1,1609865,false,false,1989,image-keyboard-response,19
true,15,1,2,1,true,z,false,true,0.0-2.0-0.62-0.562-3.562,0,0,0,90,false,stim,false,0,606.0,0,0,1,47929,task1,1611983,false,false,1992,image-keyboard-response,20
true,15,1,2,1,true,z,false,true,0.0-2.0-0.62-0.563-3.563,0,0,0,90,false,stim,false,0,407.60000000009313,0,0,1,47929,task1,1613901,false,false,1995,image-keyboard-response,21
true,15,1,2,1,true,z,false,true,0.0-2.0-0.62-0.564-3.564,0,0,0,90,false,stim,false,0,630.3000000002794,0,0,1,47929,task1,1616051,false,false,1998,image-keyboard-response,22
true,15,1,2,1,true,z,false,true,0.0-2.0-0.62-0.565-3.565,0,0,0,90,false,stim,false,0,493.90000000037253,0,0,0,47929,task1,1618078,false,false,2001,image-keyboard-response,23
true,15,1,2,1,true,z,false,true,0.0-2.0-0.62-0.566-3.566,0,0,0,90,false,stim,false,0,364.60000000009313,0,0,0,47929,task1,1619954,false,false,2004,image-keyboard-response,24
true,15,0,2,0,true,q,false,false,0.0-2.0-0.63-0.567-3.567,0,0,0,81,false,stim,false,1,529.2000000001863,0,0,2,47929,task1,1622002,false,true,2007,image-keyboard-response,25
true,15,1,2,1,true,z,false,true,0.0-2.0-0.63-0.568-3.568,0,0,0,90,false,stim,false,0,488.3000000002794,0,0,0,47929,task1,1624003,false,false,2010,image-keyboard-response,26
true,15,0,2,0,true,q,false,true,0.0-2.0-0.63-0.569-3.569,0,0,0,81,false,stim,false,1,480.70000000018626,0,0,2,47929,task1,1625994,false,false,2013,image-keyboard-response,27
true,15,1,2,1,true,z,false,true,0.0-2.0-0.63-0.570-3.570,0,0,0,90,false,stim,false,0,536.5,0,0,1,47929,task1,1628043,false,false,2016,image-keyboard-response,28
true,15,1,2,1,true,z,false,true,0.0-2.0-0.63-0.571-3.571,0,0,0,90,false,stim,false,0,337.10000000009313,0,0,1,47929,task1,1629891,false,false,2019,image-keyboard-response,29
true,15,1,2,1,true,z,false,true,0.0-2.0-0.63-0.572-3.572,0,0,0,90,false,stim,false,0,419.39999999990687,0,0,0,47929,task1,1631821,false,false,2022,image-keyboard-response,30
true,15,1,2,1,true,z,false,true,0.0-2.0-0.63-0.573-3.573,0,0,0,90,false,stim,false,0,343.29999999981374,0,0,0,47929,task1,1633677,false,false,2025,image-keyboard-response,31
true,15,0,2,0,true,q,false,true,0.0-2.0-0.63-0.574-3.574,0,0,0,81,false,stim,false,1,527.2000000001863,0,0,2,47929,task1,1635713,false,false,2028,image-keyboard-response,32
true,15,1,2,1,true,z,false,true,0.0-2.0-0.63-0.575-3.575,0,0,0,90,false,stim,false,0,410.59999999962747,0,0,1,47929,task1,1637633,false,false,2031,image-keyboard-response,33
true,15,1,2,1,true,z,false,true,0.0-2.0-0.64-0.576-3.576,0,0,0,90,false,stim,false,0,355.8000000002794,0,0,1,47929,task1,1639500,false,false,2034,image-keyboard-response,34
true,15,0,2,0,true,q,false,true,0.0-2.0-0.64-0.577-3.577,0,0,0,81,false,stim,false,1,523.0,0,0,2,47929,task1,1641535,false,false,2037,image-keyboard-response,35
true,15,0,2,0,true,q,false,true,0.0-2.0-0.64-0.578-3.578,0,0,0,81,false,stim,false,1,425.29999999981374,0,0,2,47929,task1,1643472,false,false,2040,image-keyboard-response,36
true,15,0,2,0,true,q,false,true,0.0-2.0-0.64-0.579-3.579,0,0,0,81,false,stim,false,1,431.1999999997206,0,0,2,47929,task1,1645414,false,false,2043,image-keyboard-response,37
true,15,1,2,1,true,z,false,true,0.0-2.0-0.64-0.580-3.580,0,0,0,90,false,stim,false,0,639.2999999998137,0,0,1,47929,task1,1647564,false,false,2046,image-keyboard-response,38
true,15,1,2,1,true,z,false,true,0.0-2.0-0.64-0.581-3.581,0,0,0,90,false,stim,false,0,577.7999999998137,0,0,0,47929,task1,1649654,false,false,2049,image-keyboard-response,39
true,15,1,2,1,true,z,false,true,0.0-2.0-0.64-0.582-3.582,0,0,0,90,false,stim,false,0,705.0,0,0,0,47929,task1,1651870,false,false,2052,image-keyboard-response,40
true,15,1,2,1,true,z,false,true,0.0-2.0-0.64-0.583-3.583,0,0,0,90,false,stim,false,0,532.7000000001863,0,0,1,47929,task1,1653914,false,false,2055,image-keyboard-response,41
true,15,1,2,1,true,z,false,true,0.0-2.0-0.64-0.584-3.584,0,0,0,90,false,stim,false,0,376.5,0,0,0,47929,task1,1655803,false,false,2058,image-keyboard-response,42
true,15,1,2,1,true,z,false,true,0.0-2.0-0.65-0.585-3.585,0,0,0,90,false,stim,false,0,355.39999999990687,0,0,0,47929,task1,1657671,false,false,2061,image-keyboard-response,43
true,15,0,2,0,true,q,false,true,0.0-2.0-0.65-0.586-3.586,0,0,0,81,false,stim,false,1,582.8999999999069,0,0,2,47929,task1,1659766,false,false,2064,image-keyboard-response,44
true,15,1,2,1,true,z,false,false,0.0-2.0-0.65-0.587-3.587,0,0,0,90,false,stim,false,0,633.8000000002794,0,0,1,47929,task1,1661912,false,true,2067,image-keyboard-response,45
true,16,1,2,0,false,q,false,false,0.0-2.0-0.65-0.588-3.588,0,0,0,90,true,stim,true,1,400.5,0,0,1,47929,task1,1663823,false,false,2070,image-keyboard-response,1
true,16,1,2,1,true,z,false,true,0.0-2.0-0.65-0.589-3.589,0,0,0,90,false,stim,false,0,1015.5,0,0,2,47929,task1,1666350,false,false,2073,image-keyboard-response,2
true,16,0,2,0,true,q,false,true,0.0-2.0-0.65-0.590-3.590,0,0,0,81,false,stim,false,1,431.20000000018626,0,0,0,47929,task1,1668296,false,false,2076,image-keyboard-response,3
