answered,blockNum,choice,condition,corResp,correct,correct_response,explo,fb,internal_node_id,isStable_1,isStable_2,isStable_3,key_press,newBlock,part,persev,persevResp,rt,sessNum,stableAS,stimulus,subject,task,time_elapsed,training,trap,trial_index,trial_type,trialsInBlock
true,1,1,0,0,false,q,true,false,0.0-2.0-0.0-0.0-3.0,0,0,0,90,true,stim,false,-1,681.9000000001397,1,0,0,47929,task3,370630,false,false,79,image-keyboard-response,1
true,1,1,0,2,false,d,true,false,0.0-2.0-0.0-0.1-3.1,0,0,0,90,false,stim,false,-1,599.8000000000466,1,0,1,47929,task3,372736,false,false,82,image-keyboard-response,2
true,1,1,0,2,false,d,true,false,0.0-2.0-0.0-0.2-3.2,0,0,0,90,false,stim,false,-1,462.60000000009313,1,0,2,47929,task3,374704,false,false,85,image-keyboard-response,3
true,1,2,0,2,true,d,false,true,0.0-2.0-0.0-0.3-3.3,0,0,0,68,false,stim,false,-1,452.5999999998603,1,0,2,47929,task3,376663,false,false,88,image-keyboard-response,4
true,1,0,0,2,false,d,true,false,0.0-2.0-0.0-0.4-3.4,0,0,0,81,false,stim,false,-1,588.3000000000466,1,0,1,47929,task3,378756,false,false,91,image-keyboard-response,5
true,1,2,0,2,true,d,false,true,0.0-2.0-0.0-0.5-3.5,0,0,0,68,false,stim,false,-1,655.8000000000466,1,0,2,47929,task3,380918,false,false,94,image-keyboard-response,6
true,1,0,0,0,true,q,false,true,0.0-2.0-0.0-0.6-3.6,0,0,0,81,false,stim,false,-1,682.4000000001397,1,0,0,47929,task3,383106,false,false,97,image-keyboard-response,7
true,1,2,0,2,true,d,false,true,0.0-2.0-0.0-0.7-3.7,0,0,0,68,false,stim,false,-1,568.0,1,0,1,47929,task3,385181,false,false,100,image-keyboard-response,8
true,1,0,0,0,true,q,false,true,0.0-2.0-0.0-0.8-3.8,0,0,0,81,false,stim,false,-1,496.80000000004657,1,0,0,47929,task3,387184,false,false,103,image-keyboard-response,9
true,1,0,0,0,true,q,false,true,0.0-2.0-0.1-0.9-3.9,0,0,0,81,false,stim,false,-1,542.1999999999534,1,0,0,47929,task3,389232,false,false,106,image-keyboard-response,10
true,1,2,0,2,true,d,false,true,0.0-2.0-0.1-0.10-3.10,0,0,0,68,false,stim,false,-1,462.30000000004657,1,0,1,47929,task3,391200,false,false,109,image-keyboard-response,11
true,1,2,0,2,true,d,false,true,0.0-2.0-0.1-0.11-3.11,0,0,0,68,false,stim,false,-1,476.89999999990687,1,0,1,47929,task3,393183,false,false,112,image-keyboard-response,12
true,1,2,0,2,true,d,false,true,0.0-2.0-0.1-0.12-3.12,0,0,0,68,false,stim,false,-1,472.5999999998603,1,0,2,47929,task3,395160,false,false,115,image-keyboard-response,13
true,1,0,0,0,true,q,false,true,0.0-2.0-0.1-0.13-3.13,0,0,0,81,false,stim,false,-1,434.5,1,0,0,47929,task3,397100,false,false,118,image-keyboard-response,14
true,1,2,0,2,true,d,false,true,0.0-2.0-0.1-0.14-3.14,0,0,0,68,false,stim,false,-1,468.4000000001397,1,0,2,47929,task3,399075,false,false,121,image-keyboard-response,15
true,1,0,0,0,true,q,false,true,0.0-2.0-0.1-0.15-3.15,0,0,0,81,false,stim,false,-1,420.69999999995343,1,0,0,47929,task3,401001,false,false,124,image-keyboard-response,16
true,1,2,0,2,true,d,false,true,0.0-2.0-0.1-0.16-3.16,0,0,0,68,false,stim,false,-1,443.5,1,0,2,47929,task3,402950,false,false,127,image-keyboard-response,17
true,1,2,0,2,true,d,false,true,0.0-2.0-0.1-0.17-3.17,0,0,0,68,false,stim,false,-1,749.3999999999069,1,0,1,47929,task3,405204,false,false,130,image-keyboard-response,18
true,1,2,0,2,true,d,false,true,0.0-2.0-0.2-0.18-3.18,0,0,0,68,false,stim,false,-1,633.6000000000931,1,0,2,47929,task3,407344,false,false,133,image-keyboard-response,19
true,1,2,0,2,true,d,false,true,0.0-2.0-0.2-0.19-3.19,0,0,0,68,false,stim,false,-1,421.0,1,0,2,47929,task3,409270,false,false,136,image-keyboard-response,20
true,1,2,0,2,true,d,false,true,0.0-2.0-0.2-0.20-3.20,0,0,0,68,false,stim,false,-1,511.80000000004657,1,0,2,47929,task3,411287,false,false,139,image-keyboard-response,21
true,1,0,0,0,true,q,false,true,0.0-2.0-0.2-0.21-3.21,0,0,0,81,false,stim,false,-1,440.69999999995343,1,0,0,47929,task3,413233,false,false,142,image-keyboard-response,22
true,1,0,0,0,true,q,false,true,0.0-2.0-0.2-0.22-3.22,0,0,0,81,false,stim,false,-1,405.5,1,0,0,47929,task3,415144,false,false,145,image-keyboard-response,23
true,1,2,0,2,true,d,false,false,0.0-2.0-0.2-0.23-3.23,0,0,0,68,false,stim,false,-1,497.0,1,0,1,47929,task3,417147,false,true,148,image-keyboard-response,24
true,1,2,0,2,true,d,false,false,0.0-2.0-0.2-0.24-3.24,0,0,0,68,false,stim,false,-1,400.19999999995343,1,0,1,47929,task3,419052,false,true,151,image-keyboard-response,25
true,1,0,0,0,true,q,false,true,0.0-2.0-0.2-0.25-3.25,0,0,0,81,false,stim,false,-1,504.0,1,0,0,47929,task3,421063,false,false,154,image-keyboard-response,26
true,1,1,0,2,false,d,true,false,0.0-2.0-0.2-0.26-3.26,0,0,0,90,false,stim,false,-1,2297.4000000001397,1,0,1,47929,task3,424865,false,false,157,image-keyboard-response,27
true,1,0,0,2,false,d,true,false,0.0-2.0-0.3-0.27-3.27,0,0,0,81,false,stim,false,-1,487.89999999990687,1,0,1,47929,task3,426860,false,false,160,image-keyboard-response,28
true,1,0,0,0,true,q,false,true,0.0-2.0-0.3-0.28-3.28,0,0,0,81,false,stim,false,-1,617.1000000000931,1,0,0,47929,task3,428982,false,false,163,image-keyboard-response,29
true,2,2,1,2,true,d,false,false,0.0-2.0-0.3-0.29-3.29,0,0,1,68,true,stim,false,2,554.7999999998137,1,1,2,47929,task3,431043,false,true,166,image-keyboard-response,1
true,2,1,1,0,false,q,true,false,0.0-2.0-0.3-0.30-3.30,0,0,1,90,false,stim,false,2,485.29999999981374,1,0,1,47929,task3,433034,false,false,169,image-keyboard-response,2
true,2,0,1,1,false,z,false,false,0.0-2.0-0.3-0.31-3.31,0,0,1,81,false,stim,true,0,564.5999999998603,1,0,0,47929,task3,435103,false,false,172,image-keyboard-response,3
true,2,0,1,0,true,q,false,true,0.0-2.0-0.3-0.32-3.32,0,0,1,81,false,stim,false,2,618.9000000001397,1,0,1,47929,task3,437228,false,false,175,image-keyboard-response,4
true,2,1,1,2,false,d,true,false,0.0-2.0-0.3-0.33-3.33,0,0,1,90,false,stim,false,2,708.8999999999069,1,1,2,47929,task3,439442,false,false,178,image-keyboard-response,5
true,2,1,1,1,true,z,false,true,0.0-2.0-0.3-0.34-3.34,0,0,1,90,false,stim,false,0,747.7999999998137,1,0,0,47929,task3,441695,false,false,181,image-keyboard-response,6
true,2,0,1,2,false,d,true,false,0.0-2.0-0.3-0.35-3.35,0,0,1,81,false,stim,false,2,409.69999999995343,1,1,2,47929,task3,443610,false,false,184,image-keyboard-response,7
true,2,1,1,2,false,d,true,false,0.0-2.0-0.4-0.36-3.36,0,0,1,90,false,stim,false,2,644.1999999999534,1,1,2,47929,task3,445760,false,false,187,image-keyboard-response,8
true,2,1,1,1,true,z,false,true,0.0-2.0-0.4-0.37-3.37,0,0,1,90,false,stim,false,0,1001.6000000000931,1,0,0,47929,task3,448267,false,false,190,image-keyboard-response,9
true,2,0,1,0,true,q,false,true,0.0-2.0-0.4-0.38-3.38,0,0,1,81,false,stim,false,2,395.80000000004657,1,0,1,47929,task3,450170,false,false,193,image-keyboard-response,10
true,2,2,1,2,true,d,false,true,0.0-2.0-0.4-0.39-3.39,0,0,1,68,false,stim,false,2,496.19999999995343,1,1,2,47929,task3,452172,false,false,196,image-keyboard-response,11
true,2,1,1,1,true,z,false,false,0.0-2.0-0.4-0.40-3.40,0,0,1,90,false,stim,false,0,606.0999999998603,1,0,0,47929,task3,454284,false,true,199,image-keyboard-response,12
true,2,0,1,0,true,q,false,false,0.0-2.0-0.4-0.41-3.41,0,0,1,81,false,stim,false,2,514.0,1,0,1,47929,task3,456306,false,true,202,image-keyboard-response,13
true,2,0,1,2,false,d,true,false,0.0-2.0-0.4-0.42-3.42,0,0,1,81,false,stim,false,2,861.3999999999069,1,1,2,47929,task3,458673,false,false,205,image-keyboard-response,14
true,2,0,1,1,false,z,false,false,0.0-2.0-0.4-0.43-3.43,0,0,1,81,false,stim,true,0,1025.0,1,0,0,47929,task3,461204,false,false,208,image-keyboard-response,15
true,2,1,1,0,false,q,true,true,0.0-2.0-0.4-0.44-3.44,0,0,1,90,false,stim,false,2,1195.8000000000466,1,0,1,47929,task3,463905,false,true,211,image-keyboard-response,16
true,2,2,1,2,true,d,false,true,0.0-2.0-0.5-0.45-3.45,0,0,1,68,false,stim,false,2,756.4000000001397,1,1,2,47929,task3,466168,false,false,214,image-keyboard-response,17
true,2,1,1,0,false,q,true,false,0.0-2.0-0.5-0.46-3.46,0,0,1,90,false,stim,false,2,835.6000000000931,1,0,1,47929,task3,468509,false,false,217,image-keyboard-response,18
true,2,2,1,1,false,z,true,false,0.0-2.0-0.5-0.47-3.47,0,0,1,68,false,stim,false,0,569.8000000000466,1,0,0,47929,task3,470585,false,false,220,image-keyboard-response,19
true,2,1,1,1,true,z,false,true,0.0-2.0-0.5-0.48-3.48,0,0,1,90,false,stim,false,0,799.8000000000466,1,0,0,47929,task3,472890,false,false,223,image-keyboard-response,20
true,2,2,1,2,true,d,false,true,0.0-2.0-0.5-0.49-3.49,0,0,1,68,false,stim,false,2,678.0,1,1,2,47929,task3,475073,false,false,226,image-keyboard-response,21
true,2,1,1,0,false,q,true,false,0.0-2.0-0.5-0.50-3.50,0,0,1,90,false,stim,false,2,557.5,1,1,1,47929,task3,477137,false,false,229,image-keyboard-response,22
true,2,1,1,1,true,z,false,true,0.0-2.0-0.5-0.51-3.51,0,0,1,90,false,stim,false,0,570.3000000000466,1,0,0,47929,task3,479213,false,false,232,image-keyboard-response,23
true,2,0,1,0,true,q,false,true,0.0-2.0-0.5-0.52-3.52,0,0,1,81,false,stim,false,2,454.20000000018626,1,1,1,47929,task3,481173,false,false,235,image-keyboard-response,24
true,2,2,1,2,true,d,false,false,0.0-2.0-0.5-0.53-3.53,0,0,1,68,false,stim,false,2,655.1000000000931,1,0,2,47929,task3,483334,false,true,238,image-keyboard-response,25
true,2,0,1,0,true,q,false,true,0.0-2.0-0.6-0.54-3.54,0,0,1,81,false,stim,false,2,702.8999999999069,1,1,1,47929,task3,485544,false,false,241,image-keyboard-response,26
true,3,1,1,0,false,q,false,false,0.0-2.0-0.6-0.55-3.55,0,1,0,90,true,stim,true,1,656.6000000000931,1,0,0,47929,task3,487707,false,false,244,image-keyboard-response,1
true,3,2,1,1,false,z,false,false,0.0-2.0-0.6-0.56-3.56,0,1,0,68,false,stim,true,2,441.5,1,0,2,47929,task3,489654,false,false,247,image-keyboard-response,2
true,3,0,1,0,true,q,false,true,0.0-2.0-0.6-0.57-3.57,0,1,0,81,false,stim,false,0,526.5999999998603,1,1,1,47929,task3,491686,false,false,250,image-keyboard-response,3
true,3,0,1,1,false,z,true,true,0.0-2.0-0.6-0.58-3.58,0,1,0,81,false,stim,false,2,540.2000000001863,1,0,2,47929,task3,493732,false,true,253,image-keyboard-response,4
true,3,0,1,1,false,z,true,false,0.0-2.0-0.6-0.59-3.59,0,1,0,81,false,stim,false,2,753.8000000000466,1,0,2,47929,task3,495991,false,false,256,image-keyboard-response,5
true,3,1,1,0,false,q,false,false,0.0-2.0-0.6-0.60-3.60,0,1,0,90,false,stim,true,1,813.8000000000466,1,0,0,47929,task3,498311,false,false,259,image-keyboard-response,6
true,3,2,1,0,false,q,true,false,0.0-2.0-0.6-0.61-3.61,0,1,0,68,false,stim,false,1,602.8000000000466,1,0,0,47929,task3,500420,false,false,262,image-keyboard-response,7
true,3,0,1,0,true,q,false,true,0.0-2.0-0.6-0.62-3.62,0,1,0,81,false,stim,false,0,452.60000000009313,1,1,1,47929,task3,502379,false,false,265,image-keyboard-response,8
true,3,0,1,0,true,q,false,true,0.0-2.0-0.7-0.63-3.63,0,1,0,81,false,stim,false,1,369.5,1,0,0,47929,task3,504254,false,false,268,image-keyboard-response,9
true,3,0,1,0,true,q,false,true,0.0-2.0-0.7-0.64-3.64,0,1,0,81,false,stim,false,0,361.69999999995343,1,1,1,47929,task3,506121,false,false,271,image-keyboard-response,10
true,3,0,1,0,true,q,false,true,0.0-2.0-0.7-0.65-3.65,0,1,0,81,false,stim,false,0,297.30000000004657,1,0,1,47929,task3,507924,false,false,274,image-keyboard-response,11
true,3,0,1,1,false,z,true,true,0.0-2.0-0.7-0.66-3.66,0,1,0,81,false,stim,false,2,430.69999999995343,1,1,2,47929,task3,509859,false,true,277,image-keyboard-response,12
true,3,0,1,0,true,q,false,true,0.0-2.0-0.7-0.67-3.67,0,1,0,81,false,stim,false,1,341.9000000001397,1,1,0,47929,task3,511707,false,false,280,image-keyboard-response,13
true,3,0,1,0,true,q,false,true,0.0-2.0-0.7-0.68-3.68,0,1,0,81,false,stim,false,1,305.30000000004657,1,1,0,47929,task3,513517,false,false,283,image-keyboard-response,14
true,3,0,1,1,false,z,true,false,0.0-2.0-0.7-0.69-3.69,0,1,0,81,false,stim,false,2,294.80000000004657,1,1,2,47929,task3,515318,false,false,286,image-keyboard-response,15
true,4,0,2,1,false,z,false,false,0.0-2.0-0.7-0.70-3.70,1,0,1,81,true,stim,true,0,344.5,1,0,1,47929,task3,517168,false,false,289,image-keyboard-response,1
true,4,1,2,1,true,z,false,true,0.0-2.0-0.7-0.71-3.71,1,0,1,90,false,stim,false,1,656.8999999999069,1,1,2,47929,task3,519330,false,false,292,image-keyboard-response,2
true,4,1,2,1,true,z,false,true,0.0-2.0-0.8-0.72-3.72,1,0,1,90,false,stim,false,0,721.6999999999534,1,0,1,47929,task3,521557,false,false,295,image-keyboard-response,3
true,4,1,2,1,true,z,false,true,0.0-2.0-0.8-0.73-3.73,1,0,1,90,false,stim,false,0,594.5,1,0,1,47929,task3,523659,false,false,298,image-keyboard-response,4
true,4,0,2,0,true,q,false,true,0.0-2.0-0.8-0.74-3.74,1,0,1,81,false,stim,false,0,504.69999999995343,1,1,0,47929,task3,525675,false,false,301,image-keyboard-response,5
true,4,1,2,1,true,z,false,true,0.0-2.0-0.8-0.75-3.75,1,0,1,90,false,stim,false,1,484.39999999990687,1,1,2,47929,task3,527666,false,false,304,image-keyboard-response,6
true,4,1,2,1,true,z,false,true,0.0-2.0-0.8-0.76-3.76,1,0,1,90,false,stim,false,0,322.5999999998603,1,0,1,47929,task3,529494,false,false,307,image-keyboard-response,7
true,4,1,2,1,true,z,false,true,0.0-2.0-0.8-0.77-3.77,1,0,1,90,false,stim,false,1,395.39999999990687,1,1,2,47929,task3,531396,false,false,310,image-keyboard-response,8
true,4,1,2,1,true,z,false,false,0.0-2.0-0.8-0.78-3.78,1,0,1,90,false,stim,false,1,318.80000000004657,1,1,2,47929,task3,533222,false,true,313,image-keyboard-response,9
true,4,0,2,0,true,q,false,true,0.0-2.0-0.8-0.79-3.79,1,0,1,81,false,stim,false,0,517.1999999999534,1,1,0,47929,task3,535245,false,false,316,image-keyboard-response,10
true,4,1,2,0,false,q,true,false,0.0-2.0-0.8-0.80-3.80,1,0,1,90,false,stim,false,0,350.5,1,1,0,47929,task3,537102,false,false,319,image-keyboard-response,11
true,4,0,2,1,false,z,false,false,0.0-2.0-0.9-0.81-3.81,1,0,1,81,false,stim,true,0,560.5,1,1,1,47929,task3,539169,false,false,322,image-keyboard-response,12
true,4,1,2,1,true,z,false,false,0.0-2.0-0.9-0.82-3.82,1,0,1,90,false,stim,false,1,450.0,1,0,2,47929,task3,541126,false,true,325,image-keyboard-response,13
true,4,2,2,1,false,z,true,false,0.0-2.0-0.9-0.83-3.83,1,0,1,68,false,stim,false,1,560.7999999998137,1,0,2,47929,task3,543193,false,false,328,image-keyboard-response,14
true,4,0,2,0,true,q,false,true,0.0-2.0-0.9-0.84-3.84,1,0,1,81,false,stim,false,0,562.7000000001863,1,0,0,47929,task3,545262,false,false,331,image-keyboard-response,15
true,4,0,2,1,false,z,true,false,0.0-2.0-0.9-0.85-3.85,1,0,1,81,false,stim,false,1,402.0999999998603,1,0,2,47929,task3,547172,false,false,334,image-keyboard-response,16
true,5,0,1,1,false,z,false,false,0.0-2.0-0.9-0.86-3.86,0,1,0,81,true,stim,true,0,593.3000000000466,1,0,0,47929,task3,549271,false,false,337,image-keyboard-response,1
true,5,0,1,1,false,z,true,false,0.0-2.0-0.9-0.87-3.87,0,1,0,81,false,stim,false,1,864.6999999999534,1,1,1,47929,task3,551642,false,false,340,image-keyboard-response,2
true,5,1,1,1,true,z,false,true,0.0-2.0-0.9-0.88-3.88,0,1,0,90,false,stim,false,1,516.5,1,1,1,47929,task3,553664,false,false,343,image-keyboard-response,3
true,5,0,1,1,false,z,false,true,0.0-2.0-0.9-0.89-3.89,0,1,0,81,false,stim,true,0,723.9000000001397,1,0,0,47929,task3,555894,false,true,346,image-keyboard-response,4
true,5,0,1,0,true,q,false,true,0.0-2.0-0.10-0.90-3.90,0,1,0,81,false,stim,false,1,940.1999999999534,1,0,2,47929,task3,558342,false,false,349,image-keyboard-response,5
true,5,0,1,1,false,z,false,false,0.0-2.0-0.10-0.91-3.91,0,1,0,81,false,stim,true,0,561.8999999999069,1,0,0,47929,task3,560409,false,false,352,image-keyboard-response,6
true,5,1,1,1,true,z,false,true,0.0-2.0-0.10-0.92-3.92,0,1,0,90,false,stim,false,0,888.1999999999534,1,0,0,47929,task3,562803,false,false,355,image-keyboard-response,7
true,5,0,1,0,true,q,false,true,0.0-2.0-0.10-0.93-3.93,0,1,0,81,false,stim,false,1,582.6999999999534,1,0,2,47929,task3,564892,false,false,358,image-keyboard-response,8
true,5,1,1,1,true,z,false,true,0.0-2.0-0.10-0.94-3.94,0,1,0,90,false,stim,false,1,437.89999999990687,1,1,1,47929,task3,566835,false,false,361,image-keyboard-response,9
true,5,1,1,0,false,q,false,false,0.0-2.0-0.10-0.95-3.95,0,1,0,90,false,stim,true,1,472.70000000018626,1,0,2,47929,task3,568814,false,false,364,image-keyboard-response,10
true,5,1,1,1,true,z,false,true,0.0-2.0-0.10-0.96-3.96,0,1,0,90,false,stim,false,0,474.39999999990687,1,0,0,47929,task3,570794,false,false,367,image-keyboard-response,11
true,5,1,1,1,true,z,false,true,0.0-2.0-0.10-0.97-3.97,0,1,0,90,false,stim,false,1,579.8000000000466,1,1,1,47929,task3,572880,false,false,370,image-keyboard-response,12
true,5,1,1,1,true,z,false,true,0.0-2.0-0.10-0.98-3.98,0,1,0,90,false,stim,false,1,771.7999999998137,1,1,1,47929,task3,575157,false,false,373,image-keyboard-response,13
true,5,1,1,1,true,z,false,false,0.0-2.0-0.11-0.99-3.99,0,1,0,90,false,stim,false,0,860.3000000000466,1,0,0,47929,task3,577523,false,true,376,image-keyboard-response,14
true,5,0,1,1,false,z,false,false,0.0-2.0-0.11-0.100-3.100,0,1,0,81,false,stim,true,0,869.0,1,0,0,47929,task3,579898,false,false,379,image-keyboard-response,15
true,5,1,1,1,true,z,false,true,0.0-2.0-0.11-0.101-3.101,0,1,0,90,false,stim,false,1,948.6000000000931,1,1,1,47929,task3,582354,false,false,382,image-keyboard-response,16
true,5,1,1,1,true,z,false,true,0.0-2.0-0.11-0.102-3.102,0,1,0,90,false,stim,false,1,630.0,1,1,1,47929,task3,584490,false,false,385,image-keyboard-response,17
true,5,1,1,1,true,z,false,true,0.0-2.0-0.11-0.103-3.103,0,1,0,90,false,stim,false,1,452.69999999995343,1,1,1,47929,task3,586447,false,false,388,image-keyboard-response,18
true,5,2,1,1,false,z,true,false,0.0-2.0-0.11-0.104-3.104,0,1,0,68,false,stim,false,0,831.3000000000466,1,0,0,47929,task3,588784,false,false,391,image-keyboard-response,19
true,5,0,1,0,true,q,false,true,0.0-2.0-0.11-0.105-3.105,0,1,0,81,false,stim,false,1,890.1000000000931,1,0,2,47929,task3,591182,false,false,394,image-keyboard-response,20
true,5,1,1,0,false,q,false,false,0.0-2.0-0.11-0.106-3.106,0,1,0,90,false,stim,true,1,538.0,1,0,2,47929,task3,593225,false,false,397,image-keyboard-response,21
true,5,0,1,0,true,q,false,true,0.0-2.0-0.11-0.107-3.107,0,1,0,81,false,stim,false,1,553.1999999999534,1,0,2,47929,task3,595283,false,false,400,image-keyboard-response,22
true,5,1,1,1,true,z,false,true,0.0-2.0-0.12-0.108-3.108,0,1,0,90,false,stim,false,0,542.5,1,0,0,47929,task3,597337,false,false,403,image-keyboard-response,23
true,5,1,1,1,true,z,false,true,0.0-2.0-0.12-0.109-3.109,0,1,0,90,false,stim,false,0,362.5999999998603,1,0,0,47929,task3,599206,false,false,406,image-keyboard-response,24
true,5,1,1,1,true,z,false,true,0.0-2.0-0.12-0.110-3.110,0,1,0,90,false,stim,false,1,800.5999999998603,1,1,1,47929,task3,601512,false,false,409,image-keyboard-response,25
true,5,1,1,1,true,z,false,true,0.0-2.0-0.12-0.111-3.111,0,1,0,90,false,stim,false,1,424.60000000009313,1,1,1,47929,task3,603442,false,false,412,image-keyboard-response,26
true,5,1,1,1,true,z,false,true,0.0-2.0-0.12-0.112-3.112,0,1,0,90,false,stim,false,1,428.89999999990687,1,1,1,47929,task3,605376,false,false,415,image-keyboard-response,27
true,5,0,1,0,true,q,false,true,0.0-2.0-0.12-0.113-3.113,0,1,0,81,false,stim,false,1,828.3999999999069,1,1,2,47929,task3,607710,false,false,418,image-keyboard-response,28
true,5,0,1,0,true,q,false,true,0.0-2.0-0.12-0.114-3.114,0,1,0,81,false,stim,false,1,668.6000000000931,1,1,2,47929,task3,609884,false,false,421,image-keyboard-response,29
true,5,0,1,0,true,q,false,true,0.0-2.0-0.12-0.115-3.115,0,1,0,81,false,stim,false,1,637.8999999999069,1,1,2,47929,task3,612027,false,false,424,image-keyboard-response,30
true,6,1,2,2,false,d,false,false,0.0-2.0-0.12-0.116-3.116,0,1,1,90,true,stim,true,1,612.8000000000466,1,0,0,47929,task3,614146,false,false,427,image-keyboard-response,1
true,6,0,2,2,false,d,true,false,0.0-2.0-0.13-0.117-3.117,0,1,1,81,false,stim,false,1,981.3999999999069,1,0,0,47929,task3,616633,false,false,430,image-keyboard-response,2
true,6,1,2,1,true,z,false,true,0.0-2.0-0.13-0.118-3.118,0,1,1,90,false,stim,false,1,704.0999999998603,1,1,1,47929,task3,618843,false,false,433,image-keyboard-response,3
true,6,0,2,0,true,q,false,true,0.0-2.0-0.13-0.119-3.119,0,1,1,81,false,stim,false,0,678.1000000000931,1,1,2,47929,task3,621028,false,false,436,image-keyboard-response,4
true,6,2,2,2,true,d,false,true,0.0-2.0-0.13-0.120-3.120,0,1,1,68,false,stim,false,1,376.5,1,0,0,47929,task3,622910,false,false,439,image-keyboard-response,5
true,6,2,2,2,true,d,false,true,0.0-2.0-0.13-0.121-3.121,0,1,1,68,false,stim,false,1,490.69999999995343,1,0,0,47929,task3,624907,false,false,442,image-keyboard-response,6
true,6,0,2,0,true,q,false,true,0.0-2.0-0.13-0.122-3.122,0,1,1,81,false,stim,false,0,524.0,1,1,2,47929,task3,626936,false,false,445,image-keyboard-response,7
true,6,1,2,1,true,z,false,true,0.0-2.0-0.13-0.123-3.123,0,1,1,90,false,stim,false,1,627.3000000000466,1,1,1,47929,task3,629069,false,false,448,image-keyboard-response,8
true,6,1,2,1,true,z,false,true,0.0-2.0-0.13-0.124-3.124,0,1,1,90,false,stim,false,1,715.3999999999069,1,1,1,47929,task3,631290,false,false,451,image-keyboard-response,9
true,6,0,2,0,true,q,false,true,0.0-2.0-0.13-0.125-3.125,0,1,1,81,false,stim,false,0,584.1999999999534,1,1,2,47929,task3,633381,false,false,454,image-keyboard-response,10
true,6,1,2,1,true,z,false,true,0.0-2.0-0.14-0.126-3.126,0,1,1,90,false,stim,false,1,683.8000000000466,1,0,1,47929,task3,635571,false,false,457,image-keyboard-response,11
true,6,0,2,2,false,d,true,false,0.0-2.0-0.14-0.127-3.127,0,1,1,81,false,stim,false,1,886.6000000000931,1,1,0,47929,task3,637963,false,false,460,image-keyboard-response,12
true,6,1,2,1,true,z,false,false,0.0-2.0-0.14-0.128-3.128,0,1,1,90,false,stim,false,1,1144.8000000000466,1,0,1,47929,task3,640614,false,true,463,image-keyboard-response,13
true,6,0,2,0,true,q,false,true,0.0-2.0-0.14-0.129-3.129,0,1,1,81,false,stim,false,0,693.0,1,0,2,47929,task3,642814,false,false,466,image-keyboard-response,14
true,6,0,2,0,true,q,false,true,0.0-2.0-0.14-0.130-3.130,0,1,1,81,false,stim,false,0,857.6999999999534,1,0,2,47929,task3,645177,false,false,469,image-keyboard-response,15
true,7,2,1,0,false,q,true,false,0.0-2.0-0.14-0.131-3.131,1,0,0,68,true,stim,false,1,601.8000000000466,1,0,1,47929,task3,647284,false,false,472,image-keyboard-response,1
true,7,2,1,2,true,d,false,true,0.0-2.0-0.14-0.132-3.132,1,0,0,68,false,stim,false,2,483.89999999990687,1,1,0,47929,task3,649273,false,false,475,image-keyboard-response,2
true,7,2,1,2,true,d,false,true,0.0-2.0-0.14-0.133-3.133,1,0,0,68,false,stim,false,2,547.5,1,1,0,47929,task3,651327,false,false,478,image-keyboard-response,3
true,7,0,1,2,false,d,false,false,0.0-2.0-0.14-0.134-3.134,1,0,0,81,false,stim,true,0,834.6000000000931,1,0,2,47929,task3,653669,false,false,481,image-keyboard-response,4
true,7,2,1,2,true,d,false,true,0.0-2.0-0.15-0.135-3.135,1,0,0,68,false,stim,false,2,572.0,1,1,0,47929,task3,655748,false,false,484,image-keyboard-response,5
true,7,1,1,0,false,q,false,false,0.0-2.0-0.15-0.136-3.136,1,0,0,90,false,stim,true,1,1101.0,1,0,1,47929,task3,658355,false,false,487,image-keyboard-response,6
true,7,1,1,2,false,d,true,false,0.0-2.0-0.15-0.137-3.137,1,0,0,90,false,stim,false,0,854.3999999999069,1,0,2,47929,task3,660716,false,false,490,image-keyboard-response,7
true,7,0,1,0,true,q,false,true,0.0-2.0-0.15-0.138-3.138,1,0,0,81,false,stim,false,1,733.5,1,0,1,47929,task3,662956,false,false,493,image-keyboard-response,8
true,7,0,1,0,true,q,false,false,0.0-2.0-0.15-0.139-3.139,1,0,0,81,false,stim,false,1,546.8000000000466,1,0,1,47929,task3,665009,false,true,496,image-keyboard-response,9
true,7,2,1,2,true,d,false,true,0.0-2.0-0.15-0.140-3.140,1,0,0,68,false,stim,false,0,732.8999999999069,1,0,2,47929,task3,667248,false,false,499,image-keyboard-response,10
true,7,2,1,2,true,d,false,true,0.0-2.0-0.15-0.141-3.141,1,0,0,68,false,stim,false,2,612.5,1,1,0,47929,task3,669372,false,false,502,image-keyboard-response,11
true,7,2,1,2,true,d,false,true,0.0-2.0-0.15-0.142-3.142,1,0,0,68,false,stim,false,2,456.20000000018626,1,1,0,47929,task3,671336,false,false,505,image-keyboard-response,12
true,7,2,1,2,true,d,false,true,0.0-2.0-0.15-0.143-3.143,1,0,0,68,false,stim,false,0,469.29999999981374,1,0,2,47929,task3,673311,false,false,508,image-keyboard-response,13
true,7,0,1,0,true,q,false,true,0.0-2.0-0.16-0.144-3.144,1,0,0,81,false,stim,false,1,406.60000000009313,1,0,1,47929,task3,675224,false,false,511,image-keyboard-response,14
true,7,0,1,0,true,q,false,true,0.0-2.0-0.16-0.145-3.145,1,0,0,81,false,stim,false,1,431.69999999995343,1,0,1,47929,task3,677161,false,false,514,image-keyboard-response,15
true,7,0,1,0,true,q,false,false,0.0-2.0-0.16-0.146-3.146,1,0,0,81,false,stim,false,1,448.9000000001397,1,0,1,47929,task3,679117,false,true,517,image-keyboard-response,16
true,7,2,1,2,true,d,false,true,0.0-2.0-0.16-0.147-3.147,1,0,0,68,false,stim,false,0,902.3999999999069,1,0,2,47929,task3,681525,false,false,520,image-keyboard-response,17
true,7,2,1,2,true,d,false,true,0.0-2.0-0.16-0.148-3.148,1,0,0,68,false,stim,false,2,541.5999999998603,1,1,0,47929,task3,683572,false,false,523,image-keyboard-response,18
true,7,0,1,2,false,d,false,true,0.0-2.0-0.16-0.149-3.149,1,0,0,81,false,stim,true,0,515.8999999999069,1,0,2,47929,task3,685593,false,true,526,image-keyboard-response,19
true,7,2,1,2,true,d,false,true,0.0-2.0-0.16-0.150-3.150,1,0,0,68,false,stim,false,2,435.5,1,1,0,47929,task3,687536,false,false,529,image-keyboard-response,20
true,7,2,1,2,true,d,false,true,0.0-2.0-0.16-0.151-3.151,1,0,0,68,false,stim,false,2,735.8000000000466,1,1,0,47929,task3,689777,false,false,532,image-keyboard-response,21
true,7,2,1,2,true,d,false,false,0.0-2.0-0.16-0.152-3.152,1,0,0,68,false,stim,false,0,814.0,1,0,2,47929,task3,692097,false,true,535,image-keyboard-response,22
true,7,0,1,2,false,d,false,false,0.0-2.0-0.17-0.153-3.153,1,0,0,81,false,stim,true,0,634.3999999999069,1,0,2,47929,task3,694237,false,false,538,image-keyboard-response,23
true,7,2,1,2,true,d,false,true,0.0-2.0-0.17-0.154-3.154,1,0,0,68,false,stim,false,2,595.1999999999534,1,1,0,47929,task3,696339,false,false,541,image-keyboard-response,24
true,7,0,1,0,true,q,false,true,0.0-2.0-0.17-0.155-3.155,1,0,0,81,false,stim,false,1,753.5,1,0,1,47929,task3,698599,false,false,544,image-keyboard-response,25
true,7,1,1,2,false,d,true,false,0.0-2.0-0.17-0.156-3.156,1,0,0,90,false,stim,false,0,467.5999999998603,1,0,2,47929,task3,700572,false,false,547,image-keyboard-response,26
true,8,0,1,1,false,z,false,false,0.0-2.0-0.17-0.157-3.157,1,0,0,81,true,stim,true,0,878.0,1,0,1,47929,task3,702955,false,false,550,image-keyboard-response,1
true,8,2,1,2,true,d,false,true,0.0-2.0-0.17-0.158-3.158,1,0,0,68,false,stim,false,2,554.2999999998137,1,1,0,47929,task3,705016,false,false,553,image-keyboard-response,2
true,8,0,1,1,false,z,true,false,0.0-2.0-0.17-0.159-3.159,1,0,0,81,false,stim,false,2,990.5999999998603,1,0,2,47929,task3,707512,false,false,556,image-keyboard-response,3
true,8,2,1,2,true,d,false,true,0.0-2.0-0.17-0.160-3.160,1,0,0,68,false,stim,false,2,737.8000000000466,1,1,0,47929,task3,709757,false,false,559,image-keyboard-response,4
true,8,0,1,1,false,z,false,false,0.0-2.0-0.17-0.161-3.161,1,0,0,81,false,stim,true,0,794.2000000001863,1,0,1,47929,task3,712057,false,false,562,image-keyboard-response,5
true,8,2,1,2,true,d,false,true,0.0-2.0-0.18-0.162-3.162,1,0,0,68,false,stim,false,2,700.7000000001863,1,1,0,47929,task3,714265,false,false,565,image-keyboard-response,6
true,8,2,1,1,false,z,false,false,0.0-2.0-0.18-0.163-3.163,1,0,0,68,false,stim,true,2,559.8999999999069,1,0,2,47929,task3,716331,false,false,568,image-keyboard-response,7
true,8,1,1,1,true,z,false,true,0.0-2.0-0.18-0.164-3.164,1,0,0,90,false,stim,false,0,707.0,1,0,1,47929,task3,718544,false,false,571,image-keyboard-response,8
true,8,0,1,1,false,z,true,false,0.0-2.0-0.18-0.165-3.165,1,0,0,81,false,stim,false,2,798.3000000000466,1,0,2,47929,task3,720849,false,false,574,image-keyboard-response,9
true,8,1,1,1,true,z,false,true,0.0-2.0-0.18-0.166-3.166,1,0,0,90,false,stim,false,2,618.6000000000931,1,0,2,47929,task3,722974,false,false,577,image-keyboard-response,10
true,8,2,1,2,true,d,false,true,0.0-2.0-0.18-0.167-3.167,1,0,0,68,false,stim,false,2,530.0,1,1,0,47929,task3,725010,false,false,580,image-keyboard-response,11
true,8,2,1,2,true,d,false,true,0.0-2.0-0.18-0.168-3.168,1,0,0,68,false,stim,false,2,392.0,1,1,0,47929,task3,726907,false,false,583,image-keyboard-response,12
true,8,1,1,1,true,z,false,true,0.0-2.0-0.18-0.169-3.169,1,0,0,90,false,stim,false,0,477.19999999995343,1,0,1,47929,task3,728891,false,false,586,image-keyboard-response,13
true,8,1,1,1,true,z,false,true,0.0-2.0-0.18-0.170-3.170,1,0,0,90,false,stim,false,0,311.5,1,0,1,47929,task3,730708,false,false,589,image-keyboard-response,14
true,8,1,1,1,true,z,false,true,0.0-2.0-0.19-0.171-3.171,1,0,0,90,false,stim,false,0,393.5,1,0,1,47929,task3,732609,false,false,592,image-keyboard-response,15
true,8,2,1,2,true,d,false,true,0.0-2.0-0.19-0.172-3.172,1,0,0,68,false,stim,false,2,669.7000000001863,1,1,0,47929,task3,734784,false,false,595,image-keyboard-response,16
true,8,1,1,1,true,z,false,true,0.0-2.0-0.19-0.173-3.173,1,0,0,90,false,stim,false,0,653.1999999999534,1,0,1,47929,task3,736943,false,false,598,image-keyboard-response,17
true,8,1,1,1,true,z,false,true,0.0-2.0-0.19-0.174-3.174,1,0,0,90,false,stim,false,2,660.5,1,0,2,47929,task3,739116,false,false,601,image-keyboard-response,18
true,8,2,1,2,true,d,false,true,0.0-2.0-0.19-0.175-3.175,1,0,0,68,false,stim,false,2,647.6999999999534,1,1,0,47929,task3,741269,false,false,604,image-keyboard-response,19
true,8,1,1,1,true,z,false,true,0.0-2.0-0.19-0.176-3.176,1,0,0,90,false,stim,false,2,565.5,1,0,2,47929,task3,743340,false,false,607,image-keyboard-response,20
true,8,2,1,2,true,d,false,true,0.0-2.0-0.19-0.177-3.177,1,0,0,68,false,stim,false,2,585.1999999999534,1,1,0,47929,task3,745431,false,false,610,image-keyboard-response,21
true,8,1,1,1,true,z,false,true,0.0-2.0-0.19-0.178-3.178,1,0,0,90,false,stim,false,2,583.7000000001863,1,0,2,47929,task3,747520,false,false,613,image-keyboard-response,22
true,8,1,1,1,true,z,false,true,0.0-2.0-0.19-0.179-3.179,1,0,0,90,false,stim,false,0,1075.1999999999534,1,0,1,47929,task3,750101,false,false,616,image-keyboard-response,23
true,8,2,1,2,true,d,false,true,0.0-2.0-0.20-0.180-3.180,1,0,0,68,false,stim,false,2,541.8000000000466,1,1,0,47929,task3,752151,false,false,619,image-keyboard-response,24
true,8,1,1,1,true,z,false,true,0.0-2.0-0.20-0.181-3.181,1,0,0,90,false,stim,false,2,1274.3999999999069,1,0,2,47929,task3,754932,false,false,622,image-keyboard-response,25
true,8,1,1,1,true,z,false,true,0.0-2.0-0.20-0.182-3.182,1,0,0,90,false,stim,false,0,1039.7000000001863,1,0,1,47929,task3,757477,false,false,625,image-keyboard-response,26
true,8,1,1,1,true,z,false,true,0.0-2.0-0.20-0.183-3.183,1,0,0,90,false,stim,false,0,691.5999999998603,1,0,1,47929,task3,759675,false,false,628,image-keyboard-response,27
true,8,1,1,1,true,z,false,true,0.0-2.0-0.20-0.184-3.184,1,0,0,90,false,stim,false,0,435.69999999995343,1,0,1,47929,task3,761616,false,false,631,image-keyboard-response,28
true,8,2,1,2,true,d,false,true,0.0-2.0-0.20-0.185-3.185,1,0,0,68,false,stim,false,2,556.3000000000466,1,1,0,47929,task3,763678,false,false,634,image-keyboard-response,29
true,8,1,1,1,true,z,false,false,0.0-2.0-0.20-0.186-3.186,1,0,0,90,false,stim,false,2,677.5999999998603,1,1,2,47929,task3,765862,false,true,637,image-keyboard-response,30
true,9,0,2,1,false,z,true,false,0.0-2.0-0.20-0.187-3.187,1,0,1,81,true,stim,false,1,860.3000000000466,1,1,2,47929,task3,768228,false,false,640,image-keyboard-response,1
true,9,2,2,2,true,d,false,true,0.0-2.0-0.20-0.188-3.188,1,0,1,68,false,stim,false,2,646.0,1,1,0,47929,task3,770381,false,false,643,image-keyboard-response,2
true,9,1,2,2,false,d,false,false,0.0-2.0-0.21-0.189-3.189,1,0,1,90,false,stim,true,1,799.1000000000931,1,0,1,47929,task3,772687,false,false,646,image-keyboard-response,3
true,9,2,2,1,false,z,true,false,0.0-2.0-0.21-0.190-3.190,1,0,1,68,false,stim,false,1,461.79999999981374,1,1,2,47929,task3,774656,false,false,649,image-keyboard-response,4
true,9,2,2,2,true,d,false,true,0.0-2.0-0.21-0.191-3.191,1,0,1,68,false,stim,false,2,686.8000000000466,1,1,0,47929,task3,776848,false,false,652,image-keyboard-response,5
true,9,0,2,2,false,d,true,false,0.0-2.0-0.21-0.192-3.192,1,0,1,81,false,stim,false,1,910.3000000000466,1,0,1,47929,task3,779264,false,false,655,image-keyboard-response,6
true,9,2,2,1,false,z,true,false,0.0-2.0-0.21-0.193-3.193,1,0,1,68,false,stim,false,1,467.80000000004657,1,1,2,47929,task3,781237,false,false,658,image-keyboard-response,7
true,9,0,2,1,false,z,true,false,0.0-2.0-0.21-0.194-3.194,1,0,1,81,false,stim,false,1,826.5999999998603,1,1,2,47929,task3,783570,false,false,661,image-keyboard-response,8
true,9,2,2,2,true,d,false,true,0.0-2.0-0.21-0.195-3.195,1,0,1,68,false,stim,false,2,655.0,1,0,0,47929,task3,785731,false,false,664,image-keyboard-response,9
true,9,2,2,2,true,d,false,true,0.0-2.0-0.21-0.196-3.196,1,0,1,68,false,stim,false,1,790.3000000000466,1,1,1,47929,task3,788028,false,false,667,image-keyboard-response,10
true,9,2,2,2,true,d,false,true,0.0-2.0-0.21-0.197-3.197,1,0,1,68,false,stim,false,2,632.0,1,0,0,47929,task3,790168,false,false,670,image-keyboard-response,11
true,9,2,2,2,true,d,false,true,0.0-2.0-0.22-0.198-3.198,1,0,1,68,false,stim,false,1,438.79999999981374,1,1,1,47929,task3,792115,false,false,673,image-keyboard-response,12
true,10,2,2,2,true,d,false,true,0.0-2.0-0.22-0.199-3.199,0,1,1,68,true,stim,false,2,495.5999999998603,1,1,1,47929,task3,794117,false,false,676,image-keyboard-response,1
true,10,2,2,1,false,z,false,false,0.0-2.0-0.22-0.200-3.200,0,1,1,68,false,stim,true,2,422.5,1,0,0,47929,task3,796046,false,false,679,image-keyboard-response,2
true,10,2,2,1,false,z,false,false,0.0-2.0-0.22-0.201-3.201,0,1,1,68,false,stim,true,2,575.5,1,0,0,47929,task3,798128,false,false,682,image-keyboard-response,3
true,10,1,2,1,true,z,false,true,0.0-2.0-0.22-0.202-3.202,0,1,1,90,false,stim,false,2,518.4000000001397,1,0,0,47929,task3,800152,false,false,685,image-keyboard-response,4
true,10,2,2,2,true,d,false,true,0.0-2.0-0.22-0.203-3.203,0,1,1,68,false,stim,false,2,860.3000000000466,1,1,1,47929,task3,802518,false,false,688,image-keyboard-response,5
true,10,1,2,1,true,z,false,true,0.0-2.0-0.22-0.204-3.204,0,1,1,90,false,stim,false,1,1209.0999999998603,1,1,2,47929,task3,805233,false,false,691,image-keyboard-response,6
true,10,1,2,1,true,z,false,true,0.0-2.0-0.22-0.205-3.205,0,1,1,90,false,stim,false,1,875.6000000000931,1,1,2,47929,task3,807615,false,false,694,image-keyboard-response,7
true,10,1,2,1,true,z,false,true,0.0-2.0-0.22-0.206-3.206,0,1,1,90,false,stim,false,1,592.3000000000466,1,1,2,47929,task3,809714,false,false,697,image-keyboard-response,8
true,10,2,2,2,true,d,false,true,0.0-2.0-0.23-0.207-3.207,0,1,1,68,false,stim,false,2,671.8000000000466,1,1,1,47929,task3,811893,false,false,700,image-keyboard-response,9
true,10,2,2,2,true,d,false,true,0.0-2.0-0.23-0.208-3.208,0,1,1,68,false,stim,false,2,550.3999999999069,1,1,1,47929,task3,813963,false,false,703,image-keyboard-response,10
true,10,1,2,1,true,z,false,true,0.0-2.0-0.23-0.209-3.209,0,1,1,90,false,stim,false,2,676.0,1,1,0,47929,task3,816145,false,false,706,image-keyboard-response,11
true,10,1,2,1,true,z,false,true,0.0-2.0-0.23-0.210-3.210,0,1,1,90,false,stim,false,2,621.1999999999534,1,1,0,47929,task3,818275,false,false,709,image-keyboard-response,12
true,10,1,2,1,true,z,false,true,0.0-2.0-0.23-0.211-3.211,0,1,1,90,false,stim,false,2,633.6999999999534,1,1,0,47929,task3,820415,false,false,712,image-keyboard-response,13
true,10,2,2,2,true,d,false,true,0.0-2.0-0.23-0.212-3.212,0,1,1,68,false,stim,false,2,476.10000000009313,1,0,1,47929,task3,822397,false,false,715,image-keyboard-response,14
true,10,1,2,1,true,z,false,true,0.0-2.0-0.23-0.213-3.213,0,1,1,90,false,stim,false,1,534.8000000000466,1,0,2,47929,task3,824437,false,false,718,image-keyboard-response,15
true,11,1,1,2,false,d,false,true,0.0-2.0-0.23-0.214-3.214,1,0,0,90,true,stim,true,1,407.0,1,0,2,47929,task3,826351,false,true,721,image-keyboard-response,1
true,11,1,1,2,false,d,false,false,0.0-2.0-0.23-0.215-3.215,1,0,0,90,false,stim,true,1,431.9000000001397,1,0,2,47929,task3,828289,false,false,724,image-keyboard-response,2
true,11,1,1,2,false,d,false,false,0.0-2.0-0.24-0.216-3.216,1,0,0,90,false,stim,true,1,575.4000000001397,1,0,2,47929,task3,830371,false,false,727,image-keyboard-response,3
true,11,1,1,1,true,z,false,true,0.0-2.0-0.24-0.217-3.217,1,0,0,90,false,stim,false,1,1097.6999999999534,1,1,0,47929,task3,832976,false,false,730,image-keyboard-response,4
true,11,0,1,2,false,d,true,true,0.0-2.0-0.24-0.218-3.218,1,0,0,81,false,stim,false,1,514.3999999999069,1,0,2,47929,task3,834996,false,true,733,image-keyboard-response,5
true,11,2,1,1,false,z,false,false,0.0-2.0-0.24-0.219-3.219,1,0,0,68,false,stim,true,2,688.5,1,0,1,47929,task3,837192,false,false,736,image-keyboard-response,6
true,11,1,1,1,true,z,false,true,0.0-2.0-0.24-0.220-3.220,1,0,0,90,false,stim,false,2,514.4000000001397,1,0,1,47929,task3,839212,false,false,739,image-keyboard-response,7
true,11,1,1,1,true,z,false,true,0.0-2.0-0.24-0.221-3.221,1,0,0,90,false,stim,false,1,604.3999999999069,1,0,0,47929,task3,841324,false,false,742,image-keyboard-response,8
true,11,1,1,1,true,z,false,false,0.0-2.0-0.24-0.222-3.222,1,0,0,90,false,stim,false,2,483.0999999998603,1,1,1,47929,task3,843313,false,true,745,image-keyboard-response,9
true,11,1,1,1,true,z,false,true,0.0-2.0-0.24-0.223-3.223,1,0,0,90,false,stim,false,1,501.9000000001397,1,0,0,47929,task3,845321,false,false,748,image-keyboard-response,10
true,11,0,1,2,false,d,true,false,0.0-2.0-0.24-0.224-3.224,1,0,0,81,false,stim,false,1,529.8999999999069,1,1,2,47929,task3,847358,false,false,751,image-keyboard-response,11
true,11,0,1,2,false,d,true,false,0.0-2.0-0.25-0.225-3.225,1,0,0,81,false,stim,false,1,592.6999999999534,1,1,2,47929,task3,849457,false,false,754,image-keyboard-response,12
true,12,1,2,2,false,d,true,false,0.0-2.0-0.25-0.226-3.226,0,1,1,90,true,stim,false,2,765.9000000001397,1,1,2,47929,task3,851731,false,false,757,image-keyboard-response,1
true,12,1,2,1,true,z,false,true,0.0-2.0-0.25-0.227-3.227,0,1,1,90,false,stim,false,1,736.6000000000931,1,1,1,47929,task3,853974,false,false,760,image-keyboard-response,2
true,12,1,2,1,true,z,false,true,0.0-2.0-0.25-0.228-3.228,0,1,1,90,false,stim,false,1,468.60000000009313,1,1,1,47929,task3,855949,false,false,763,image-keyboard-response,3
true,12,1,2,0,false,q,false,false,0.0-2.0-0.25-0.229-3.229,0,1,1,90,false,stim,true,1,449.29999999981374,1,0,0,47929,task3,857906,false,false,766,image-keyboard-response,4
true,12,1,2,1,true,z,false,true,0.0-2.0-0.25-0.230-3.230,0,1,1,90,false,stim,false,1,606.1999999999534,1,1,1,47929,task3,860019,false,false,769,image-keyboard-response,5
true,12,0,2,0,true,q,false,true,0.0-2.0-0.25-0.231-3.231,0,1,1,81,false,stim,false,1,668.3000000000466,1,0,0,47929,task3,862193,false,false,772,image-keyboard-response,6
true,12,2,2,2,true,d,false,true,0.0-2.0-0.25-0.232-3.232,0,1,1,68,false,stim,false,2,669.1999999999534,1,1,2,47929,task3,864369,false,false,775,image-keyboard-response,7
true,12,0,2,0,true,q,false,true,0.0-2.0-0.25-0.233-3.233,0,1,1,81,false,stim,false,1,617.2000000001863,1,0,0,47929,task3,866495,false,false,778,image-keyboard-response,8
true,12,0,2,0,true,q,false,true,0.0-2.0-0.26-0.234-3.234,0,1,1,81,false,stim,false,1,653.8999999999069,1,0,0,47929,task3,868660,false,false,781,image-keyboard-response,9
true,12,2,2,2,true,d,false,true,0.0-2.0-0.26-0.235-3.235,0,1,1,68,false,stim,false,2,778.5,1,1,2,47929,task3,870946,false,false,784,image-keyboard-response,10
true,12,2,2,2,true,d,false,true,0.0-2.0-0.26-0.236-3.236,0,1,1,68,false,stim,false,2,536.3000000000466,1,1,2,47929,task3,872988,false,false,787,image-keyboard-response,11
true,12,1,2,1,true,z,false,true,0.0-2.0-0.26-0.237-3.237,0,1,1,90,false,stim,false,1,559.9000000001397,1,0,1,47929,task3,875057,false,false,790,image-keyboard-response,12
true,12,0,2,0,true,q,false,true,0.0-2.0-0.26-0.238-3.238,0,1,1,81,false,stim,false,1,546.1000000000931,1,1,0,47929,task3,877111,false,false,793,image-keyboard-response,13
true,12,1,2,1,true,z,false,true,0.0-2.0-0.26-0.239-3.239,0,1,1,90,false,stim,false,1,1076.6999999999534,1,0,1,47929,task3,879695,false,false,796,image-keyboard-response,14
true,12,1,2,1,true,z,false,false,0.0-2.0-0.26-0.240-3.240,0,1,1,90,false,stim,false,1,492.69999999995343,1,0,1,47929,task3,881695,false,true,799,image-keyboard-response,15
true,13,2,2,2,true,d,false,true,0.0-2.0-0.26-0.241-3.241,1,0,1,68,true,stim,false,2,548.1000000000931,1,1,2,47929,task3,883760,false,false,802,image-keyboard-response,1
true,13,0,2,0,true,q,false,true,0.0-2.0-0.26-0.242-3.242,1,0,1,81,false,stim,false,0,548.0999999998603,1,1,0,47929,task3,885817,false,false,805,image-keyboard-response,2
true,13,0,2,0,true,q,false,true,0.0-2.0-0.27-0.243-3.243,1,0,1,81,false,stim,false,0,472.19999999995343,1,1,0,47929,task3,887797,false,false,808,image-keyboard-response,3
true,13,1,2,0,false,q,false,false,0.0-2.0-0.27-0.244-3.244,1,0,1,90,false,stim,true,1,436.0999999998603,1,0,1,47929,task3,889741,false,false,811,image-keyboard-response,4
true,13,2,2,2,true,d,false,true,0.0-2.0-0.27-0.245-3.245,1,0,1,68,false,stim,false,2,701.5,1,1,2,47929,task3,891953,false,false,814,image-keyboard-response,5
true,13,2,2,2,true,d,false,true,0.0-2.0-0.27-0.246-3.246,1,0,1,68,false,stim,false,2,801.3000000000466,1,1,2,47929,task3,894263,false,false,817,image-keyboard-response,6
true,13,0,2,0,true,q,false,true,0.0-2.0-0.27-0.247-3.247,1,0,1,81,false,stim,false,0,546.6000000000931,1,1,0,47929,task3,896316,false,false,820,image-keyboard-response,7
true,13,0,2,0,true,q,false,true,0.0-2.0-0.27-0.248-3.248,1,0,1,81,false,stim,false,1,410.39999999990687,1,0,1,47929,task3,898233,false,false,823,image-keyboard-response,8
true,13,0,2,0,true,q,false,true,0.0-2.0-0.27-0.249-3.249,1,0,1,81,false,stim,false,1,808.1000000000931,1,0,1,47929,task3,900549,false,false,826,image-keyboard-response,9
true,13,0,2,0,true,q,false,true,0.0-2.0-0.27-0.250-3.250,1,0,1,81,false,stim,false,0,426.60000000009313,1,1,0,47929,task3,902482,false,false,829,image-keyboard-response,10
true,13,2,2,2,true,d,false,true,0.0-2.0-0.27-0.251-3.251,1,0,1,68,false,stim,false,2,489.4000000001397,1,1,2,47929,task3,904479,false,false,832,image-keyboard-response,11
true,13,0,2,0,true,q,false,true,0.0-2.0-0.28-0.252-3.252,1,0,1,81,false,stim,false,1,517.0,1,0,1,47929,task3,906504,false,false,835,image-keyboard-response,12
true,13,0,2,0,true,q,false,true,0.0-2.0-0.28-0.253-3.253,1,0,1,81,false,stim,false,1,437.69999999995343,1,0,1,47929,task3,908449,false,false,838,image-keyboard-response,13
true,13,2,2,2,true,d,false,true,0.0-2.0-0.28-0.254-3.254,1,0,1,68,false,stim,false,2,577.8000000000466,1,1,2,47929,task3,910535,false,false,841,image-keyboard-response,14
true,13,0,2,0,true,q,false,true,0.0-2.0-0.28-0.255-3.255,1,0,1,81,false,stim,false,0,752.3000000000466,1,1,0,47929,task3,912795,false,false,844,image-keyboard-response,15
true,13,0,2,0,true,q,false,true,0.0-2.0-0.28-0.256-3.256,1,0,1,81,false,stim,false,1,906.8999999999069,1,0,1,47929,task3,915209,false,false,847,image-keyboard-response,16
true,13,2,2,2,true,d,false,true,0.0-2.0-0.28-0.257-3.257,1,0,1,68,false,stim,false,2,550.8000000000466,1,1,2,47929,task3,917267,false,false,850,image-keyboard-response,17
true,13,2,2,2,true,d,false,true,0.0-2.0-0.28-0.258-3.258,1,0,1,68,false,stim,false,2,730.3999999999069,1,1,2,47929,task3,919504,false,false,853,image-keyboard-response,18
true,13,0,2,0,true,q,false,true,0.0-2.0-0.28-0.259-3.259,1,0,1,81,false,stim,false,0,642.0999999998603,1,1,0,47929,task3,921654,false,false,856,image-keyboard-response,19
true,13,0,2,0,true,q,false,true,0.0-2.0-0.28-0.260-3.260,1,0,1,81,false,stim,false,0,444.0,1,1,0,47929,task3,923606,false,false,859,image-keyboard-response,20
true,13,0,2,0,true,q,false,true,0.0-2.0-0.29-0.261-3.261,1,0,1,81,false,stim,false,0,450.89999999990687,1,1,0,47929,task3,925564,false,false,862,image-keyboard-response,21
true,13,2,2,2,true,d,false,true,0.0-2.0-0.29-0.262-3.262,1,0,1,68,false,stim,false,2,685.0999999998603,1,1,2,47929,task3,927756,false,false,865,image-keyboard-response,22
true,13,2,2,2,true,d,false,true,0.0-2.0-0.29-0.263-3.263,1,0,1,68,false,stim,false,2,439.5,1,1,2,47929,task3,929702,false,false,868,image-keyboard-response,23
true,13,0,2,0,true,q,false,true,0.0-2.0-0.29-0.264-3.264,1,0,1,81,false,stim,false,1,715.2000000001863,1,0,1,47929,task3,931925,false,false,871,image-keyboard-response,24
true,13,0,2,0,true,q,false,false,0.0-2.0-0.29-0.265-3.265,1,0,1,81,false,stim,false,0,601.3999999999069,1,0,0,47929,task3,934035,false,true,874,image-keyboard-response,25
true,13,2,2,2,true,d,false,true,0.0-2.0-0.29-0.266-3.266,1,0,1,68,false,stim,false,2,823.2999999998137,1,1,2,47929,task3,936365,false,false,877,image-keyboard-response,26
true,13,0,2,0,true,q,false,true,0.0-2.0-0.29-0.267-3.267,1,0,1,81,false,stim,false,0,485.69999999995343,1,0,0,47929,task3,938357,false,false,880,image-keyboard-response,27
true,13,0,2,0,true,q,false,false,0.0-2.0-0.29-0.268-3.268,1,0,1,81,false,stim,false,1,655.5999999998603,1,0,1,47929,task3,940520,false,true,883,image-keyboard-response,28
true,13,1,2,0,false,q,false,false,0.0-2.0-0.29-0.269-3.269,1,0,1,90,false,stim,true,1,2082.399999999907,1,0,1,47929,task3,944109,false,false,886,image-keyboard-response,29
true,14,0,1,2,false,d,false,false,0.0-2.0-0.30-0.270-3.270,0,0,1,81,true,stim,true,0,759.3999999999069,1,0,0,47929,task3,946376,false,false,889,image-keyboard-response,1
true,14,1,1,2,false,d,true,false,0.0-2.0-0.30-0.271-3.271,0,0,1,90,false,stim,false,0,562.5999999998603,1,0,0,47929,task3,948446,false,false,892,image-keyboard-response,2
true,14,2,1,1,false,z,true,false,0.0-2.0-0.30-0.272-3.272,0,0,1,68,false,stim,false,0,599.1000000000931,1,0,1,47929,task3,950552,false,false,895,image-keyboard-response,3
true,14,2,1,2,true,d,false,true,0.0-2.0-0.30-0.273-3.273,0,0,1,68,false,stim,false,2,536.6000000000931,1,1,2,47929,task3,952596,false,false,898,image-keyboard-response,4
true,14,1,1,1,true,z,false,true,0.0-2.0-0.30-0.274-3.274,0,0,1,90,false,stim,false,0,942.3999999999069,1,0,1,47929,task3,955056,false,false,901,image-keyboard-response,5
true,14,1,1,1,true,z,false,true,0.0-2.0-0.30-0.275-3.275,0,0,1,90,false,stim,false,0,455.80000000004657,1,0,1,47929,task3,957021,false,false,904,image-keyboard-response,6
true,14,2,1,2,true,d,false,true,0.0-2.0-0.30-0.276-3.276,0,0,1,68,false,stim,false,2,606.8000000000466,1,1,2,47929,task3,959141,false,false,907,image-keyboard-response,7
true,14,2,1,2,true,d,false,true,0.0-2.0-0.30-0.277-3.277,0,0,1,68,false,stim,false,2,433.70000000018626,1,1,2,47929,task3,961082,false,false,910,image-keyboard-response,8
true,14,2,1,2,true,d,false,true,0.0-2.0-0.30-0.278-3.278,0,0,1,68,false,stim,false,0,944.8000000000466,1,0,0,47929,task3,963534,false,false,913,image-keyboard-response,9
true,14,1,1,1,true,z,false,true,0.0-2.0-0.31-0.279-3.279,0,0,1,90,false,stim,false,0,500.10000000009313,1,0,1,47929,task3,965542,false,false,916,image-keyboard-response,10
true,14,1,1,1,true,z,false,true,0.0-2.0-0.31-0.280-3.280,0,0,1,90,false,stim,false,0,454.5,1,0,1,47929,task3,967503,false,false,919,image-keyboard-response,11
true,14,2,1,2,true,d,false,true,0.0-2.0-0.31-0.281-3.281,0,0,1,68,false,stim,false,2,558.1999999999534,1,1,2,47929,task3,969569,false,false,922,image-keyboard-response,12
true,14,1,1,2,false,d,true,false,0.0-2.0-0.31-0.282-3.282,0,0,1,90,false,stim,false,0,900.4000000001397,1,0,0,47929,task3,971977,false,false,925,image-keyboard-response,13
true,14,2,1,2,true,d,false,true,0.0-2.0-0.31-0.283-3.283,0,0,1,68,false,stim,false,0,517.5,1,0,0,47929,task3,974004,false,false,928,image-keyboard-response,14
true,14,2,1,2,true,d,false,true,0.0-2.0-0.31-0.284-3.284,0,0,1,68,false,stim,false,0,509.0999999998603,1,0,0,47929,task3,976020,false,false,931,image-keyboard-response,15
true,14,1,1,1,true,z,false,true,0.0-2.0-0.31-0.285-3.285,0,0,1,90,false,stim,false,0,705.3999999999069,1,0,1,47929,task3,978232,false,false,934,image-keyboard-response,16
true,14,2,1,2,true,d,false,false,0.0-2.0-0.31-0.286-3.286,0,0,1,68,false,stim,false,2,506.5,1,1,2,47929,task3,980245,false,true,937,image-keyboard-response,17
true,14,2,1,2,true,d,false,true,0.0-2.0-0.31-0.287-3.287,0,0,1,68,false,stim,false,2,424.80000000004657,1,1,2,47929,task3,982177,false,false,940,image-keyboard-response,18
true,14,1,1,1,true,z,false,false,0.0-2.0-0.32-0.288-3.288,0,0,1,90,false,stim,false,0,679.1999999999534,1,0,1,47929,task3,984363,false,true,943,image-keyboard-response,19
true,14,2,1,2,true,d,false,true,0.0-2.0-0.32-0.289-3.289,0,0,1,68,false,stim,false,0,1130.4000000001397,1,0,0,47929,task3,987001,false,false,946,image-keyboard-response,20
true,14,1,1,2,false,d,true,false,0.0-2.0-0.32-0.290-3.290,0,0,1,90,false,stim,false,2,989.5999999998603,1,1,2,47929,task3,989498,false,false,949,image-keyboard-response,21
true,14,2,1,2,true,d,false,true,0.0-2.0-0.32-0.291-3.291,0,0,1,68,false,stim,false,2,1033.3999999999069,1,1,2,47929,task3,992039,false,false,952,image-keyboard-response,22
true,14,0,1,1,false,z,false,false,0.0-2.0-0.32-0.292-3.292,0,0,1,81,false,stim,true,0,1560.0,1,0,1,47929,task3,995108,false,false,955,image-keyboard-response,23
true,14,2,1,2,true,d,false,true,0.0-2.0-0.32-0.293-3.293,0,0,1,68,false,stim,false,0,743.5,1,1,0,47929,task3,997358,false,false,958,image-keyboard-response,24
true,14,2,1,2,true,d,false,true,0.0-2.0-0.32-0.294-3.294,0,0,1,68,false,stim,false,0,478.5,1,1,0,47929,task3,999344,false,false,961,image-keyboard-response,25
true,14,2,1,1,false,z,true,false,0.0-2.0-0.32-0.295-3.295,0,0,1,68,false,stim,false,0,381.0,1,0,1,47929,task3,1001233,false,false,964,image-keyboard-response,26
true,14,2,1,2,true,d,false,false,0.0-2.0-0.32-0.296-3.296,0,0,1,68,false,stim,false,2,529.0999999998603,1,0,2,47929,task3,1003269,false,true,967,image-keyboard-response,27
true,15,1,1,1,true,z,false,true,0.0-2.0-0.33-0.297-3.297,1,0,0,90,true,stim,false,2,673.5999999998603,1,0,2,47929,task3,1005450,false,false,970,image-keyboard-response,1
true,15,1,1,1,true,z,false,true,0.0-2.0-0.33-0.298-3.298,1,0,0,90,false,stim,false,2,476.30000000004657,1,0,2,47929,task3,1007433,false,false,973,image-keyboard-response,2
true,15,1,1,1,true,z,false,false,0.0-2.0-0.33-0.299-3.299,1,0,0,90,false,stim,false,2,437.20000000018626,1,0,2,47929,task3,1009378,false,true,976,image-keyboard-response,3
true,15,2,1,2,true,d,false,true,0.0-2.0-0.33-0.300-3.300,1,0,0,68,false,stim,false,2,559.0,1,1,0,47929,task3,1011444,false,false,979,image-keyboard-response,4
true,15,2,1,2,true,d,false,true,0.0-2.0-0.33-0.301-3.301,1,0,0,68,false,stim,false,2,637.1000000000931,1,1,0,47929,task3,1013589,false,false,982,image-keyboard-response,5
true,15,2,1,2,true,d,false,true,0.0-2.0-0.33-0.302-3.302,1,0,0,68,false,stim,false,2,472.80000000004657,1,1,0,47929,task3,1015568,false,false,985,image-keyboard-response,6
true,15,1,1,0,false,q,false,false,0.0-2.0-0.33-0.303-3.303,1,0,0,90,false,stim,true,1,448.69999999995343,1,0,1,47929,task3,1017524,false,false,988,image-keyboard-response,7
true,15,0,1,0,true,q,false,true,0.0-2.0-0.33-0.304-3.304,1,0,0,81,false,stim,false,1,480.19999999995343,1,0,1,47929,task3,1019513,false,false,991,image-keyboard-response,8
true,15,0,1,0,true,q,false,false,0.0-2.0-0.33-0.305-3.305,1,0,0,81,false,stim,false,1,452.39999999990687,1,1,1,47929,task3,1021476,false,true,994,image-keyboard-response,9
true,15,1,1,1,true,z,false,true,0.0-2.0-0.34-0.306-3.306,1,0,0,90,false,stim,false,2,537.1000000000931,1,1,2,47929,task3,1023520,false,false,997,image-keyboard-response,10
true,15,1,1,1,true,z,false,true,0.0-2.0-0.34-0.307-3.307,1,0,0,90,false,stim,false,2,542.1000000000931,1,1,2,47929,task3,1025569,false,false,1000,image-keyboard-response,11
true,15,2,1,2,true,d,false,true,0.0-2.0-0.34-0.308-3.308,1,0,0,68,false,stim,false,2,743.3999999999069,1,0,0,47929,task3,1027838,false,false,1003,image-keyboard-response,12
true,15,2,1,2,true,d,false,true,0.0-2.0-0.34-0.309-3.309,1,0,0,68,false,stim,false,2,525.0,1,0,0,47929,task3,1029870,false,false,1006,image-keyboard-response,13
true,16,0,2,0,true,q,false,false,0.0-2.0-0.34-0.310-3.310,0,1,1,81,true,stim,false,0,705.3000000000466,1,1,1,47929,task3,1032083,false,true,1009,image-keyboard-response,1
true,16,1,2,1,true,z,false,true,0.0-2.0-0.34-0.311-3.311,0,1,1,90,false,stim,false,1,576.0999999998603,1,1,2,47929,task3,1034168,false,false,1012,image-keyboard-response,2
true,16,0,2,0,true,q,false,true,0.0-2.0-0.34-0.312-3.312,0,1,1,81,false,stim,false,0,513.1999999999534,1,1,1,47929,task3,1036188,false,false,1015,image-keyboard-response,3
true,16,2,2,1,false,z,false,false,0.0-2.0-0.34-0.313-3.313,0,1,1,68,false,stim,true,2,636.8999999999069,1,0,0,47929,task3,1038334,false,false,1018,image-keyboard-response,4
true,16,0,2,0,true,q,false,true,0.0-2.0-0.34-0.314-3.314,0,1,1,81,false,stim,false,0,667.3000000000466,1,1,1,47929,task3,1040508,false,false,1021,image-keyboard-response,5
true,16,2,2,1,false,z,false,false,0.0-2.0-0.35-0.315-3.315,0,1,1,68,false,stim,true,2,750.6999999999534,1,0,0,47929,task3,1042765,false,false,1024,image-keyboard-response,6
true,16,1,2,0,false,q,true,false,0.0-2.0-0.35-0.316-3.316,0,1,1,90,false,stim,false,0,518.6000000000931,1,1,1,47929,task3,1044791,false,false,1027,image-keyboard-response,7
true,16,0,2,0,true,q,false,true,0.0-2.0-0.35-0.317-3.317,0,1,1,81,false,stim,false,0,476.0,1,1,1,47929,task3,1046775,false,false,1030,image-keyboard-response,8
true,16,1,2,1,true,z,false,true,0.0-2.0-0.35-0.318-3.318,0,1,1,90,false,stim,false,1,637.0,1,1,2,47929,task3,1048919,false,false,1033,image-keyboard-response,9
true,16,1,2,1,true,z,false,true,0.0-2.0-0.35-0.319-3.319,0,1,1,90,false,stim,false,2,477.69999999995343,1,0,0,47929,task3,1050905,false,false,1036,image-keyboard-response,10
true,16,1,2,1,true,z,false,true,0.0-2.0-0.35-0.320-3.320,0,1,1,90,false,stim,false,1,657.7000000001863,1,0,2,47929,task3,1053070,false,false,1039,image-keyboard-response,11
true,16,1,2,1,true,z,false,true,0.0-2.0-0.35-0.321-3.321,0,1,1,90,false,stim,false,1,489.89999999990687,1,0,2,47929,task3,1055068,false,false,1042,image-keyboard-response,12
true,16,0,2,0,true,q,false,true,0.0-2.0-0.35-0.322-3.322,0,1,1,81,false,stim,false,0,639.1999999999534,1,1,1,47929,task3,1057214,false,false,1045,image-keyboard-response,13
true,16,1,2,1,true,z,false,true,0.0-2.0-0.35-0.323-3.323,0,1,1,90,false,stim,false,2,742.6999999999534,1,1,0,47929,task3,1059464,false,false,1048,image-keyboard-response,14
true,16,1,2,1,true,z,false,true,0.0-2.0-0.36-0.324-3.324,0,1,1,90,false,stim,false,2,521.5,1,1,0,47929,task3,1061495,false,false,1051,image-keyboard-response,15
true,17,0,2,0,true,q,false,true,0.0-2.0-0.36-0.325-3.325,1,1,0,81,true,stim,false,0,1196.5,1,1,1,47929,task3,1064198,false,false,1054,image-keyboard-response,1
true,17,1,2,1,true,z,false,true,0.0-2.0-0.36-0.326-3.326,1,1,0,90,false,stim,false,1,536.4000000001397,1,1,0,47929,task3,1066244,false,false,1057,image-keyboard-response,2
true,17,1,2,0,false,q,false,false,0.0-2.0-0.36-0.327-3.327,1,1,0,90,false,stim,true,1,1031.4000000001397,1,0,2,47929,task3,1068783,false,false,1060,image-keyboard-response,3
true,17,1,2,0,false,q,false,true,0.0-2.0-0.36-0.328-3.328,1,1,0,90,false,stim,true,1,486.19999999995343,1,0,2,47929,task3,1070780,false,true,1063,image-keyboard-response,4
true,17,0,2,0,true,q,false,true,0.0-2.0-0.36-0.329-3.329,1,1,0,81,false,stim,false,0,415.69999999995343,1,1,1,47929,task3,1072703,false,false,1066,image-keyboard-response,5
true,17,1,2,0,false,q,false,false,0.0-2.0-0.36-0.330-3.330,1,1,0,90,false,stim,true,1,411.39999999990687,1,0,2,47929,task3,1074623,false,false,1069,image-keyboard-response,6
true,17,1,2,1,true,z,false,true,0.0-2.0-0.36-0.331-3.331,1,1,0,90,false,stim,false,1,661.0,1,1,0,47929,task3,1076792,false,false,1072,image-keyboard-response,7
true,17,1,2,0,false,q,true,false,0.0-2.0-0.36-0.332-3.332,1,1,0,90,false,stim,false,0,501.19999999995343,1,1,1,47929,task3,1078800,false,false,1075,image-keyboard-response,8
true,17,1,2,0,false,q,false,false,0.0-2.0-0.37-0.333-3.333,1,1,0,90,false,stim,true,1,515.8999999999069,1,1,2,47929,task3,1080824,false,false,1078,image-keyboard-response,9
true,17,0,2,0,true,q,false,true,0.0-2.0-0.37-0.334-3.334,1,1,0,81,false,stim,false,0,799.9000000001397,1,1,1,47929,task3,1083131,false,false,1081,image-keyboard-response,10
true,17,1,2,1,true,z,false,true,0.0-2.0-0.37-0.335-3.335,1,1,0,90,false,stim,false,1,683.8000000000466,1,0,0,47929,task3,1085322,false,false,1084,image-keyboard-response,11
true,17,0,2,0,true,q,false,true,0.0-2.0-0.37-0.336-3.336,1,1,0,81,false,stim,false,0,685.3999999999069,1,1,1,47929,task3,1087523,false,false,1087,image-keyboard-response,12
true,18,1,2,2,false,d,false,false,0.0-2.0-0.37-0.337-3.337,0,1,1,90,true,stim,true,1,936.6999999999534,1,0,0,47929,task3,1089967,false,false,1090,image-keyboard-response,1
true,18,2,2,0,false,q,true,true,0.0-2.0-0.37-0.338-3.338,0,1,1,68,false,stim,false,0,449.80000000004657,1,1,2,47929,task3,1091927,false,true,1093,image-keyboard-response,2
true,18,1,2,2,false,d,false,false,0.0-2.0-0.37-0.339-3.339,0,1,1,90,false,stim,true,1,950.8999999999069,1,0,0,47929,task3,1094387,false,false,1096,image-keyboard-response,3
true,18,0,2,0,true,q,false,true,0.0-2.0-0.37-0.340-3.340,0,1,1,81,false,stim,false,0,547.7000000001863,1,1,1,47929,task3,1096442,false,false,1099,image-keyboard-response,4
true,18,2,2,0,false,q,true,false,0.0-2.0-0.37-0.341-3.341,0,1,1,68,false,stim,false,0,820.8999999999069,1,1,2,47929,task3,1098788,false,false,1102,image-keyboard-response,5
true,18,0,2,2,false,d,true,false,0.0-2.0-0.38-0.342-3.342,0,1,1,81,false,stim,false,1,489.89999999990687,1,0,0,47929,task3,1100834,false,false,1105,image-keyboard-response,6
true,18,0,2,0,true,q,false,true,0.0-2.0-0.38-0.343-3.343,0,1,1,81,false,stim,false,0,582.1000000000931,1,1,1,47929,task3,1102924,false,false,1108,image-keyboard-response,7
true,18,2,2,2,true,d,false,true,0.0-2.0-0.38-0.344-3.344,0,1,1,68,false,stim,false,1,427.70000000018626,1,0,0,47929,task3,1104859,false,false,1111,image-keyboard-response,8
true,18,0,2,0,true,q,false,true,0.0-2.0-0.38-0.345-3.345,0,1,1,81,false,stim,false,0,640.1000000000931,1,1,1,47929,task3,1107007,false,false,1114,image-keyboard-response,9
true,18,2,2,0,false,q,true,false,0.0-2.0-0.38-0.346-3.346,0,1,1,68,false,stim,false,0,438.80000000004657,1,1,2,47929,task3,1108982,false,false,1117,image-keyboard-response,10
true,18,0,2,0,true,q,false,false,0.0-2.0-0.38-0.347-3.347,0,1,1,81,false,stim,false,0,926.7999999998137,1,1,1,47929,task3,1111417,false,true,1120,image-keyboard-response,11
true,18,0,2,0,true,q,false,true,0.0-2.0-0.38-0.348-3.348,0,1,1,81,false,stim,false,0,507.10000000009313,1,1,2,47929,task3,1113432,false,false,1123,image-keyboard-response,12
true,18,2,2,2,true,d,false,true,0.0-2.0-0.38-0.349-3.349,0,1,1,68,false,stim,false,1,683.4000000001397,1,0,0,47929,task3,1115623,false,false,1126,image-keyboard-response,13
true,18,0,2,0,true,q,false,true,0.0-2.0-0.38-0.350-3.350,0,1,1,81,false,stim,false,0,743.5,1,1,2,47929,task3,1117874,false,false,1129,image-keyboard-response,14
true,18,0,2,0,true,q,false,true,0.0-2.0-0.39-0.351-3.351,0,1,1,81,false,stim,false,0,599.4000000001397,1,1,2,47929,task3,1119981,false,false,1132,image-keyboard-response,15
true,18,2,2,2,true,d,false,true,0.0-2.0-0.39-0.352-3.352,0,1,1,68,false,stim,false,1,735.6999999999534,1,0,0,47929,task3,1122227,false,false,1135,image-keyboard-response,16
true,18,2,2,2,true,d,false,true,0.0-2.0-0.39-0.353-3.353,0,1,1,68,false,stim,false,1,647.9000000001397,1,0,0,47929,task3,1124382,false,false,1138,image-keyboard-response,17
true,18,0,2,0,true,q,false,true,0.0-2.0-0.39-0.354-3.354,0,1,1,81,false,stim,false,0,977.5999999998603,1,1,2,47929,task3,1126868,false,false,1141,image-keyboard-response,18
true,18,1,2,0,false,q,true,false,0.0-2.0-0.39-0.355-3.355,0,1,1,90,false,stim,false,0,446.0,1,1,1,47929,task3,1128821,false,false,1144,image-keyboard-response,19
true,18,2,2,0,false,q,true,false,0.0-2.0-0.39-0.356-3.356,0,1,1,68,false,stim,false,0,477.60000000009313,1,1,1,47929,task3,1130806,false,false,1147,image-keyboard-response,20
true,18,2,2,2,true,d,false,true,0.0-2.0-0.39-0.357-3.357,0,1,1,68,false,stim,false,1,727.6999999999534,1,0,0,47929,task3,1133041,false,false,1150,image-keyboard-response,21
true,18,0,2,0,true,q,false,true,0.0-2.0-0.39-0.358-3.358,0,1,1,81,false,stim,false,0,587.6999999999534,1,0,1,47929,task3,1135136,false,false,1153,image-keyboard-response,22
true,18,0,2,0,true,q,false,true,0.0-2.0-0.39-0.359-3.359,0,1,1,81,false,stim,false,0,471.0,1,1,2,47929,task3,1137116,false,false,1156,image-keyboard-response,23
true,18,0,2,0,true,q,false,false,0.0-2.0-0.40-0.360-3.360,0,1,1,81,false,stim,false,0,513.6000000000931,1,1,2,47929,task3,1139136,false,true,1159,image-keyboard-response,24
true,18,0,2,0,true,q,false,false,0.0-2.0-0.40-0.361-3.361,0,1,1,81,false,stim,false,0,755.6000000000931,1,0,1,47929,task3,1141401,false,true,1162,image-keyboard-response,25
true,18,2,2,2,true,d,false,true,0.0-2.0-0.40-0.362-3.362,0,1,1,68,false,stim,false,1,538.8999999999069,1,0,0,47929,task3,1143447,false,false,1165,image-keyboard-response,26
true,19,0,1,1,false,z,false,false,0.0-2.0-0.40-0.363-3.363,0,0,1,81,true,stim,true,0,490.10000000009313,1,0,1,47929,task3,1145445,false,false,1168,image-keyboard-response,1
true,19,1,1,1,true,z,false,true,0.0-2.0-0.40-0.364-3.364,0,0,1,90,false,stim,false,0,907.5,1,0,1,47929,task3,1147861,false,false,1171,image-keyboard-response,2
true,19,2,1,0,false,q,false,false,0.0-2.0-0.40-0.365-3.365,0,0,1,68,false,stim,true,2,768.0,1,0,0,47929,task3,1150137,false,false,1174,image-keyboard-response,3
true,19,0,1,0,true,q,false,true,0.0-2.0-0.40-0.366-3.366,0,0,1,81,false,stim,false,0,1087.3000000002794,1,1,2,47929,task3,1152733,false,false,1177,image-keyboard-response,4
true,19,2,1,0,false,q,false,false,0.0-2.0-0.40-0.367-3.367,0,0,1,68,false,stim,true,2,598.8999999999069,1,0,0,47929,task3,1154841,false,false,1180,image-keyboard-response,5
true,19,0,1,0,true,q,false,true,0.0-2.0-0.40-0.368-3.368,0,0,1,81,false,stim,false,0,827.2999999998137,1,1,2,47929,task3,1157176,false,false,1183,image-keyboard-response,6
true,19,0,1,0,true,q,false,false,0.0-2.0-0.41-0.369-3.369,0,0,1,81,false,stim,false,0,550.5,1,1,2,47929,task3,1159235,false,true,1186,image-keyboard-response,7
true,19,1,1,1,true,z,false,true,0.0-2.0-0.41-0.370-3.370,0,0,1,90,false,stim,false,0,548.5,1,0,1,47929,task3,1161291,false,false,1189,image-keyboard-response,8
true,19,0,1,0,true,q,false,true,0.0-2.0-0.41-0.371-3.371,0,0,1,81,false,stim,false,0,690.0,1,1,2,47929,task3,1163488,false,false,1192,image-keyboard-response,9
true,19,1,1,1,true,z,false,true,0.0-2.0-0.41-0.372-3.372,0,0,1,90,false,stim,false,0,760.8999999999069,1,0,1,47929,task3,1165757,false,false,1195,image-keyboard-response,10
true,19,1,1,1,true,z,false,true,0.0-2.0-0.41-0.373-3.373,0,0,1,90,false,stim,false,0,596.1999999997206,1,0,1,47929,task3,1167861,false,false,1198,image-keyboard-response,11
true,19,1,1,0,false,q,true,false,0.0-2.0-0.41-0.374-3.374,0,0,1,90,false,stim,false,2,552.9000000003725,1,0,0,47929,task3,1169937,false,false,1201,image-keyboard-response,12
true,19,0,1,0,true,q,false,true,0.0-2.0-0.41-0.375-3.375,0,0,1,81,false,stim,false,2,531.5,1,0,0,47929,task3,1172020,false,false,1204,image-keyboard-response,13
true,19,0,1,0,true,q,false,true,0.0-2.0-0.41-0.376-3.376,0,0,1,81,false,stim,false,2,667.3999999999069,1,0,0,47929,task3,1174195,false,false,1207,image-keyboard-response,14
true,19,0,1,0,true,q,false,true,0.0-2.0-0.41-0.377-3.377,0,0,1,81,false,stim,false,0,610.0,1,1,2,47929,task3,1176315,false,false,1210,image-keyboard-response,15
true,19,0,1,0,true,q,false,true,0.0-2.0-0.42-0.378-3.378,0,0,1,81,false,stim,false,2,544.6999999997206,1,0,0,47929,task3,1178368,false,false,1213,image-keyboard-response,16
true,19,1,1,1,true,z,false,true,0.0-2.0-0.42-0.379-3.379,0,0,1,90,false,stim,false,0,484.70000000018626,1,0,1,47929,task3,1180360,false,false,1216,image-keyboard-response,17
true,19,1,1,1,true,z,false,true,0.0-2.0-0.42-0.380-3.380,0,0,1,90,false,stim,false,0,555.9000000003725,1,0,1,47929,task3,1182424,false,false,1219,image-keyboard-response,18
true,19,1,1,1,true,z,false,true,0.0-2.0-0.42-0.381-3.381,0,0,1,90,false,stim,false,0,440.79999999981374,1,0,1,47929,task3,1184372,false,false,1222,image-keyboard-response,19
true,19,0,1,0,true,q,false,false,0.0-2.0-0.42-0.382-3.382,0,0,1,81,false,stim,false,2,475.39999999990687,1,0,0,47929,task3,1186356,false,true,1225,image-keyboard-response,20
true,19,0,1,0,true,q,false,true,0.0-2.0-0.42-0.383-3.383,0,0,1,81,false,stim,false,0,545.3999999999069,1,1,2,47929,task3,1188409,false,false,1228,image-keyboard-response,21
true,19,0,1,0,true,q,false,true,0.0-2.0-0.42-0.384-3.384,0,0,1,81,false,stim,false,0,577.8999999999069,1,1,2,47929,task3,1190496,false,false,1231,image-keyboard-response,22
true,19,0,1,0,true,q,false,true,0.0-2.0-0.42-0.385-3.385,0,0,1,81,false,stim,false,2,506.79999999981374,1,0,0,47929,task3,1192510,false,false,1234,image-keyboard-response,23
true,19,0,1,0,true,q,false,true,0.0-2.0-0.42-0.386-3.386,0,0,1,81,false,stim,false,0,514.7000000001863,1,1,2,47929,task3,1194533,false,false,1237,image-keyboard-response,24
true,19,0,1,0,true,q,false,true,0.0-2.0-0.43-0.387-3.387,0,0,1,81,false,stim,false,0,379.0,1,1,2,47929,task3,1196420,false,false,1240,image-keyboard-response,25
true,20,0,1,0,true,q,false,true,0.0-2.0-0.43-0.388-3.388,0,0,1,81,true,stim,false,0,374.0,1,1,2,47929,task3,1198303,false,false,1243,image-keyboard-response,1
true,20,0,1,1,false,z,false,true,0.0-2.0-0.43-0.389-3.389,0,0,1,81,false,stim,true,0,500.39999999990687,1,0,0,47929,task3,1200312,false,true,1246,image-keyboard-response,2
true,20,0,1,1,false,z,false,false,0.0-2.0-0.43-0.390-3.390,0,0,1,81,false,stim,true,0,406.59999999962747,1,0,0,47929,task3,1202227,false,false,1249,image-keyboard-response,3
true,20,1,1,2,false,d,false,false,0.0-2.0-0.43-0.391-3.391,0,0,1,90,false,stim,true,1,639.8000000002794,1,0,1,47929,task3,1204375,false,false,1252,image-keyboard-response,4
true,20,1,1,2,false,d,false,false,0.0-2.0-0.43-0.392-3.392,0,0,1,90,false,stim,true,1,488.89999999990687,1,0,1,47929,task3,1206372,false,false,1255,image-keyboard-response,5
true,20,0,1,1,false,z,false,false,0.0-2.0-0.43-0.393-3.393,0,0,1,81,false,stim,true,0,774.8999999999069,1,0,0,47929,task3,1208654,false,false,1258,image-keyboard-response,6
true,20,2,1,2,true,d,false,true,0.0-2.0-0.43-0.394-3.394,0,0,1,68,false,stim,false,1,675.1000000000931,1,0,1,47929,task3,1210838,false,false,1261,image-keyboard-response,7
true,20,0,1,0,true,q,false,true,0.0-2.0-0.43-0.395-3.395,0,0,1,81,false,stim,false,0,880.2999999998137,1,1,2,47929,task3,1213226,false,false,1264,image-keyboard-response,8
true,20,0,1,0,true,q,false,true,0.0-2.0-0.44-0.396-3.396,0,0,1,81,false,stim,false,0,525.2000000001863,1,1,2,47929,task3,1215287,false,false,1267,image-keyboard-response,9
true,20,1,1,1,true,z,false,false,0.0-2.0-0.44-0.397-3.397,0,0,1,90,false,stim,false,0,395.8000000002794,1,0,0,47929,task3,1217225,false,true,1270,image-keyboard-response,10
true,20,0,1,0,true,q,false,true,0.0-2.0-0.44-0.398-3.398,0,0,1,81,false,stim,false,0,749.1000000000931,1,1,2,47929,task3,1219483,false,false,1273,image-keyboard-response,11
true,20,2,1,2,true,d,false,true,0.0-2.0-0.44-0.399-3.399,0,0,1,68,false,stim,false,1,589.1999999997206,1,0,1,47929,task3,1221580,false,false,1276,image-keyboard-response,12
true,20,2,1,2,true,d,false,true,0.0-2.0-0.44-0.400-3.400,0,0,1,68,false,stim,false,1,457.5,1,0,1,47929,task3,1223547,false,false,1279,image-keyboard-response,13
true,20,2,1,1,false,z,true,false,0.0-2.0-0.44-0.401-3.401,0,0,1,68,false,stim,false,0,398.70000000018626,1,0,0,47929,task3,1225455,false,false,1282,image-keyboard-response,14
true,20,2,1,2,true,d,false,true,0.0-2.0-0.44-0.402-3.402,0,0,1,68,false,stim,false,1,805.5,1,0,1,47929,task3,1227770,false,false,1285,image-keyboard-response,15
true,20,1,1,1,true,z,false,true,0.0-2.0-0.44-0.403-3.403,0,0,1,90,false,stim,false,0,409.5,1,0,0,47929,task3,1229687,false,false,1288,image-keyboard-response,16
true,20,0,1,0,true,q,false,true,0.0-2.0-0.44-0.404-3.404,0,0,1,81,false,stim,false,0,738.2999999998137,1,1,2,47929,task3,1231934,false,false,1291,image-keyboard-response,17
true,20,1,1,1,true,z,false,true,0.0-2.0-0.45-0.405-3.405,0,0,1,90,false,stim,false,0,458.5,1,0,0,47929,task3,1233901,false,false,1294,image-keyboard-response,18
true,20,2,1,2,true,d,false,true,0.0-2.0-0.45-0.406-3.406,0,0,1,68,false,stim,false,1,798.1999999997206,1,0,1,47929,task3,1236208,false,false,1297,image-keyboard-response,19
true,20,1,1,1,true,z,false,true,0.0-2.0-0.45-0.407-3.407,0,0,1,90,false,stim,false,0,472.1999999997206,1,0,0,47929,task3,1238189,false,false,1300,image-keyboard-response,20
true,20,2,1,2,true,d,false,true,0.0-2.0-0.45-0.408-3.408,0,0,1,68,false,stim,false,1,1215.6000000000931,1,0,1,47929,task3,1240964,false,false,1303,image-keyboard-response,21
true,20,0,1,0,true,q,false,true,0.0-2.0-0.45-0.409-3.409,0,0,1,81,false,stim,false,0,558.8000000002794,1,1,2,47929,task3,1243032,false,false,1306,image-keyboard-response,22
true,20,0,1,0,true,q,false,true,0.0-2.0-0.45-0.410-3.410,0,0,1,81,false,stim,false,0,415.8000000002794,1,1,2,47929,task3,1244956,false,false,1309,image-keyboard-response,23
true,20,1,1,1,true,z,false,true,0.0-2.0-0.45-0.411-3.411,0,0,1,90,false,stim,false,0,817.6000000000931,1,0,0,47929,task3,1247282,false,false,1312,image-keyboard-response,24
true,20,2,1,0,false,q,true,false,0.0-2.0-0.45-0.412-3.412,0,0,1,68,false,stim,false,0,858.3000000002794,1,1,2,47929,task3,1249647,false,false,1315,image-keyboard-response,25
true,20,2,1,2,true,d,false,true,0.0-2.0-0.45-0.413-3.413,0,0,1,68,false,stim,false,1,580.3000000002794,1,1,1,47929,task3,1251737,false,false,1318,image-keyboard-response,26
true,20,0,1,0,true,q,false,true,0.0-2.0-0.46-0.414-3.414,0,0,1,81,false,stim,false,0,426.29999999981374,1,1,2,47929,task3,1253672,false,false,1321,image-keyboard-response,27
true,20,0,1,0,true,q,false,true,0.0-2.0-0.46-0.415-3.415,0,0,1,81,false,stim,false,0,378.5,1,1,2,47929,task3,1255558,false,false,1324,image-keyboard-response,28
true,20,1,1,1,true,z,false,false,0.0-2.0-0.46-0.416-3.416,0,0,1,90,false,stim,false,0,733.5,1,0,0,47929,task3,1257801,false,true,1327,image-keyboard-response,29
true,21,1,2,0,false,q,false,false,0.0-2.0-0.46-0.417-3.417,0,1,1,90,true,stim,true,1,379.60000000009313,1,0,0,47929,task3,1259688,false,false,1330,image-keyboard-response,1
true,21,2,2,2,true,d,false,true,0.0-2.0-0.46-0.418-3.418,0,1,1,68,false,stim,false,2,1066.6000000000931,1,1,1,47929,task3,1262263,false,false,1333,image-keyboard-response,2
true,21,2,2,2,true,d,false,true,0.0-2.0-0.46-0.419-3.419,0,1,1,68,false,stim,false,2,527.5,1,1,1,47929,task3,1264300,false,false,1336,image-keyboard-response,3
true,21,2,2,2,true,d,false,true,0.0-2.0-0.46-0.420-3.420,0,1,1,68,false,stim,false,2,476.89999999990687,1,1,1,47929,task3,1266285,false,false,1339,image-keyboard-response,4
true,21,0,2,0,true,q,false,true,0.0-2.0-0.46-0.421-3.421,0,1,1,81,false,stim,false,1,405.89999999990687,1,0,0,47929,task3,1268199,false,false,1342,image-keyboard-response,5
true,21,0,2,0,true,q,false,true,0.0-2.0-0.46-0.422-3.422,0,1,1,81,false,stim,false,0,422.5,1,1,2,47929,task3,1270131,false,false,1345,image-keyboard-response,6
true,21,0,2,0,true,q,false,true,0.0-2.0-0.47-0.423-3.423,0,1,1,81,false,stim,false,0,463.09999999962747,1,1,2,47929,task3,1272102,false,false,1348,image-keyboard-response,7
true,21,0,2,0,true,q,false,true,0.0-2.0-0.47-0.424-3.424,0,1,1,81,false,stim,false,1,405.89999999990687,1,0,0,47929,task3,1274016,false,false,1351,image-keyboard-response,8
true,21,0,2,0,true,q,false,true,0.0-2.0-0.47-0.425-3.425,0,1,1,81,false,stim,false,1,353.0,1,0,0,47929,task3,1275878,false,false,1354,image-keyboard-response,9
true,21,0,2,0,true,q,false,true,0.0-2.0-0.47-0.426-3.426,0,1,1,81,false,stim,false,0,614.5,1,1,2,47929,task3,1278001,false,false,1357,image-keyboard-response,10
true,21,0,2,0,true,q,false,true,0.0-2.0-0.47-0.427-3.427,0,1,1,81,false,stim,false,1,349.5,1,0,0,47929,task3,1279862,false,false,1360,image-keyboard-response,11
true,21,0,2,0,true,q,false,true,0.0-2.0-0.47-0.428-3.428,0,1,1,81,false,stim,false,0,350.60000000009313,1,1,2,47929,task3,1281721,false,false,1363,image-keyboard-response,12
true,21,2,2,2,true,d,false,true,0.0-2.0-0.47-0.429-3.429,0,1,1,68,false,stim,false,2,528.8999999999069,1,1,1,47929,task3,1283758,false,false,1366,image-keyboard-response,13
true,21,2,2,2,true,d,false,true,0.0-2.0-0.47-0.430-3.430,0,1,1,68,false,stim,false,2,381.39999999990687,1,1,1,47929,task3,1285647,false,false,1369,image-keyboard-response,14
true,21,2,2,2,true,d,false,true,0.0-2.0-0.47-0.431-3.431,0,1,1,68,false,stim,false,2,433.5,1,1,1,47929,task3,1287590,false,false,1372,image-keyboard-response,15
true,21,0,2,0,true,q,false,true,0.0-2.0-0.48-0.432-3.432,0,1,1,81,false,stim,false,1,447.0,1,0,0,47929,task3,1289546,false,false,1375,image-keyboard-response,16
true,21,2,2,2,true,d,false,true,0.0-2.0-0.48-0.433-3.433,0,1,1,68,false,stim,false,2,492.10000000009313,1,1,1,47929,task3,1291550,false,false,1378,image-keyboard-response,17
true,21,2,2,2,true,d,false,true,0.0-2.0-0.48-0.434-3.434,0,1,1,68,false,stim,false,2,413.5,1,1,1,47929,task3,1293470,false,false,1381,image-keyboard-response,18
true,21,0,2,0,true,q,false,false,0.0-2.0-0.48-0.435-3.435,0,1,1,81,false,stim,false,0,625.6999999997206,1,1,2,47929,task3,1295607,false,true,1384,image-keyboard-response,19
true,21,1,2,0,false,q,true,false,0.0-2.0-0.48-0.436-3.436,0,1,1,90,false,stim,false,0,749.1000000000931,1,1,2,47929,task3,1297864,false,false,1387,image-keyboard-response,20
true,21,2,2,0,false,q,true,true,0.0-2.0-0.48-0.437-3.437,0,1,1,68,false,stim,false,0,472.89999999990687,1,1,2,47929,task3,1299846,false,true,1390,image-keyboard-response,21
true,21,2,2,2,true,d,false,true,0.0-2.0-0.48-0.438-3.438,0,1,1,68,false,stim,false,2,402.6999999997206,1,1,1,47929,task3,1301757,false,false,1393,image-keyboard-response,22
true,21,0,2,0,true,q,false,true,0.0-2.0-0.48-0.439-3.439,0,1,1,81,false,stim,false,1,502.0,1,0,0,47929,task3,1303767,false,false,1396,image-keyboard-response,23
true,21,0,2,0,true,q,false,true,0.0-2.0-0.48-0.440-3.440,0,1,1,81,false,stim,false,1,507.5,1,0,0,47929,task3,1305782,false,false,1399,image-keyboard-response,24
true,21,2,2,2,true,d,false,true,0.0-2.0-0.49-0.441-3.441,0,1,1,68,false,stim,false,2,601.0,1,1,1,47929,task3,1307912,false,false,1402,image-keyboard-response,25
true,21,0,2,0,true,q,false,true,0.0-2.0-0.49-0.442-3.442,0,1,1,81,false,stim,false,1,536.8999999999069,1,0,0,47929,task3,1309990,false,false,1405,image-keyboard-response,26
true,21,0,2,0,true,q,false,true,0.0-2.0-0.49-0.443-3.443,0,1,1,81,false,stim,false,1,460.5,1,0,0,47929,task3,1311959,false,false,1408,image-keyboard-response,27
true,21,2,2,0,false,q,true,false,0.0-2.0-0.49-0.444-3.444,0,1,1,68,false,stim,false,0,374.8000000002794,1,0,2,47929,task3,1313873,false,false,1411,image-keyboard-response,28
true,22,2,1,2,true,d,false,true,0.0-2.0-0.49-0.445-3.445,0,1,0,68,true,stim,false,0,374.5,1,0,2,47929,task3,1315755,false,false,1414,image-keyboard-response,1
true,22,0,1,1,false,z,false,false,0.0-2.0-0.49-0.446-3.446,0,1,0,81,false,stim,true,0,506.89999999990687,1,0,0,47929,task3,1317771,false,false,1417,image-keyboard-response,2
true,22,2,1,2,true,d,false,true,0.0-2.0-0.49-0.447-3.447,0,1,0,68,false,stim,false,0,449.6999999997206,1,0,2,47929,task3,1319728,false,false,1420,image-keyboard-response,3
true,22,2,1,2,true,d,false,true,0.0-2.0-0.49-0.448-3.448,0,1,0,68,false,stim,false,2,433.6999999997206,1,1,1,47929,task3,1321671,false,false,1423,image-keyboard-response,4
true,22,2,1,2,true,d,false,true,0.0-2.0-0.49-0.449-3.449,0,1,0,68,false,stim,false,2,475.60000000009313,1,1,1,47929,task3,1323655,false,false,1426,image-keyboard-response,5
true,22,2,1,2,true,d,false,true,0.0-2.0-0.50-0.450-3.450,0,1,0,68,false,stim,false,0,549.8999999999069,1,0,2,47929,task3,1325715,false,false,1429,image-keyboard-response,6
true,22,2,1,2,true,d,false,false,0.0-2.0-0.50-0.451-3.451,0,1,0,68,false,stim,false,2,406.70000000018626,1,1,1,47929,task3,1327633,false,true,1432,image-keyboard-response,7
true,22,2,1,2,true,d,false,true,0.0-2.0-0.50-0.452-3.452,0,1,0,68,false,stim,false,0,568.1000000000931,1,0,2,47929,task3,1329710,false,false,1435,image-keyboard-response,8
true,22,2,1,2,true,d,false,true,0.0-2.0-0.50-0.453-3.453,0,1,0,68,false,stim,false,0,526.6999999997206,1,0,2,47929,task3,1331744,false,false,1438,image-keyboard-response,9
true,22,0,1,1,false,z,false,false,0.0-2.0-0.50-0.454-3.454,0,1,0,81,false,stim,true,0,527.0,1,0,0,47929,task3,1333779,false,false,1441,image-keyboard-response,10
true,22,1,1,1,true,z,false,false,0.0-2.0-0.50-0.455-3.455,0,1,0,90,false,stim,false,0,574.7000000001863,1,0,0,47929,task3,1335862,false,true,1444,image-keyboard-response,11
true,22,2,1,2,true,d,false,true,0.0-2.0-0.50-0.456-3.456,0,1,0,68,false,stim,false,2,961.2999999998137,1,1,1,47929,task3,1338333,false,false,1447,image-keyboard-response,12
true,22,2,1,2,true,d,false,true,0.0-2.0-0.50-0.457-3.457,0,1,0,68,false,stim,false,2,478.8000000002794,1,1,1,47929,task3,1340323,false,false,1450,image-keyboard-response,13
true,22,2,1,1,false,z,true,false,0.0-2.0-0.50-0.458-3.458,0,1,0,68,false,stim,false,0,263.0,1,0,0,47929,task3,1342095,false,false,1453,image-keyboard-response,14
true,22,2,1,1,false,z,true,true,0.0-2.0-0.51-0.459-3.459,0,1,0,68,false,stim,false,0,503.0,1,0,0,47929,task3,1344107,false,true,1456,image-keyboard-response,15
true,22,2,1,2,true,d,false,true,0.0-2.0-0.51-0.460-3.460,0,1,0,68,false,stim,false,2,308.8000000002794,1,1,1,47929,task3,1345924,false,false,1459,image-keyboard-response,16
true,22,2,1,1,false,z,true,false,0.0-2.0-0.51-0.461-3.461,0,1,0,68,false,stim,false,0,453.90000000037253,1,0,0,47929,task3,1347886,false,false,1462,image-keyboard-response,17
true,22,2,1,2,true,d,false,true,0.0-2.0-0.51-0.462-3.462,0,1,0,68,false,stim,false,2,339.10000000009313,1,1,1,47929,task3,1349735,false,false,1465,image-keyboard-response,18
true,22,2,1,1,false,z,true,false,0.0-2.0-0.51-0.463-3.463,0,1,0,68,false,stim,false,0,377.10000000009313,1,0,0,47929,task3,1351621,false,false,1468,image-keyboard-response,19
true,22,2,1,2,true,d,false,true,0.0-2.0-0.51-0.464-3.464,0,1,0,68,false,stim,false,0,453.39999999990687,1,0,2,47929,task3,1353586,false,false,1471,image-keyboard-response,20
true,22,2,1,2,true,d,false,true,0.0-2.0-0.51-0.465-3.465,0,1,0,68,false,stim,false,0,369.09999999962747,1,0,2,47929,task3,1355464,false,false,1474,image-keyboard-response,21
true,22,2,1,2,true,d,false,true,0.0-2.0-0.51-0.466-3.466,0,1,0,68,false,stim,false,0,387.60000000009313,1,0,2,47929,task3,1357363,false,false,1477,image-keyboard-response,22
true,22,2,1,2,true,d,false,true,0.0-2.0-0.51-0.467-3.467,0,1,0,68,false,stim,false,2,381.89999999990687,1,1,1,47929,task3,1359254,false,false,1480,image-keyboard-response,23
true,22,2,1,2,true,d,false,false,0.0-2.0-0.52-0.468-3.468,0,1,0,68,false,stim,false,0,355.79999999981374,1,0,2,47929,task3,1361119,false,true,1483,image-keyboard-response,24
true,22,1,1,1,true,z,false,true,0.0-2.0-0.52-0.469-3.469,0,1,0,90,false,stim,false,0,738.7000000001863,1,0,0,47929,task3,1363365,false,false,1486,image-keyboard-response,25
true,23,1,1,0,false,q,false,false,0.0-2.0-0.52-0.470-3.470,0,1,0,90,true,stim,true,1,452.10000000009313,1,0,0,47929,task3,1365326,false,false,1489,image-keyboard-response,1
true,23,2,1,2,true,d,false,true,0.0-2.0-0.52-0.471-3.471,0,1,0,68,false,stim,false,2,676.4000000003725,1,1,1,47929,task3,1367512,false,false,1492,image-keyboard-response,2
true,23,2,1,1,false,z,false,false,0.0-2.0-0.52-0.472-3.472,0,1,0,68,false,stim,true,2,449.79999999981374,1,0,2,47929,task3,1369470,false,false,1495,image-keyboard-response,3
true,23,1,1,0,false,q,false,false,0.0-2.0-0.52-0.473-3.473,0,1,0,90,false,stim,true,1,558.3000000002794,1,0,0,47929,task3,1371537,false,false,1498,image-keyboard-response,4
true,23,0,1,1,false,z,true,false,0.0-2.0-0.52-0.474-3.474,0,1,0,81,false,stim,false,2,1031.5,1,0,2,47929,task3,1374102,false,false,1501,image-keyboard-response,5
true,23,2,1,2,true,d,false,true,0.0-2.0-0.52-0.475-3.475,0,1,0,68,false,stim,false,2,1115.7999999998137,1,1,1,47929,task3,1376767,false,false,1504,image-keyboard-response,6
true,23,2,1,2,true,d,false,true,0.0-2.0-0.52-0.476-3.476,0,1,0,68,false,stim,false,2,658.7000000001863,1,1,1,47929,task3,1378934,false,false,1507,image-keyboard-response,7
true,23,0,1,0,true,q,false,true,0.0-2.0-0.53-0.477-3.477,0,1,0,81,false,stim,false,1,593.8000000002794,1,0,0,47929,task3,1381039,false,false,1510,image-keyboard-response,8
true,23,1,1,1,true,z,false,true,0.0-2.0-0.53-0.478-3.478,0,1,0,90,false,stim,false,2,437.5,1,1,2,47929,task3,1382985,false,false,1513,image-keyboard-response,9
true,23,2,1,2,true,d,false,true,0.0-2.0-0.53-0.479-3.479,0,1,0,68,false,stim,false,2,720.7999999998137,1,0,1,47929,task3,1385215,false,false,1516,image-keyboard-response,10
true,23,1,1,1,true,z,false,true,0.0-2.0-0.53-0.480-3.480,0,1,0,90,false,stim,false,2,489.0,1,1,2,47929,task3,1387212,false,false,1519,image-keyboard-response,11
true,23,0,1,0,true,q,false,true,0.0-2.0-0.53-0.481-3.481,0,1,0,81,false,stim,false,1,454.29999999981374,1,1,0,47929,task3,1389175,false,false,1522,image-keyboard-response,12
true,23,2,1,2,true,d,false,true,0.0-2.0-0.53-0.482-3.482,0,1,0,68,false,stim,false,2,760.2000000001863,1,0,1,47929,task3,1391445,false,false,1525,image-keyboard-response,13
true,24,1,2,1,true,z,false,false,0.0-2.0-0.53-0.483-3.483,1,0,1,90,true,stim,false,1,418.20000000018626,1,1,2,47929,task3,1393371,false,true,1528,image-keyboard-response,1
true,24,2,2,0,false,q,false,false,0.0-2.0-0.53-0.484-3.484,1,0,1,68,false,stim,true,2,599.3999999999069,1,0,1,47929,task3,1395480,false,false,1531,image-keyboard-response,2
true,24,0,2,0,true,q,false,true,0.0-2.0-0.53-0.485-3.485,1,0,1,81,false,stim,false,0,772.7000000001863,1,1,0,47929,task3,1397762,false,false,1534,image-keyboard-response,3
true,24,0,2,0,true,q,false,true,0.0-2.0-0.54-0.486-3.486,1,0,1,81,false,stim,false,0,674.2999999998137,1,1,0,47929,task3,1399946,false,false,1537,image-keyboard-response,4
true,24,0,2,0,true,q,false,false,0.0-2.0-0.54-0.487-3.487,1,0,1,81,false,stim,false,0,623.2000000001863,1,1,0,47929,task3,1402080,false,true,1540,image-keyboard-response,5
true,24,1,2,1,true,z,false,true,0.0-2.0-0.54-0.488-3.488,1,0,1,90,false,stim,false,1,924.3000000002794,1,1,2,47929,task3,1404513,false,false,1543,image-keyboard-response,6
true,24,1,2,0,false,q,true,false,0.0-2.0-0.54-0.489-3.489,1,0,1,90,false,stim,false,2,459.70000000018626,1,0,1,47929,task3,1406482,false,false,1546,image-keyboard-response,7
true,24,0,2,0,true,q,false,true,0.0-2.0-0.54-0.490-3.490,1,0,1,81,false,stim,false,0,731.1999999997206,1,1,0,47929,task3,1408723,false,false,1549,image-keyboard-response,8
true,24,1,2,1,true,z,false,true,0.0-2.0-0.54-0.491-3.491,1,0,1,90,false,stim,false,1,790.2999999998137,1,1,2,47929,task3,1411025,false,false,1552,image-keyboard-response,9
true,24,0,2,0,true,q,false,true,0.0-2.0-0.54-0.492-3.492,1,0,1,81,false,stim,false,2,419.10000000009313,1,0,1,47929,task3,1412956,false,false,1555,image-keyboard-response,10
true,24,0,2,0,true,q,false,true,0.0-2.0-0.54-0.493-3.493,1,0,1,81,false,stim,false,2,510.20000000018626,1,0,1,47929,task3,1415008,false,false,1558,image-keyboard-response,11
true,24,1,2,1,true,z,false,true,0.0-2.0-0.54-0.494-3.494,1,0,1,90,false,stim,false,1,842.0,1,1,2,47929,task3,1417360,false,false,1561,image-keyboard-response,12
true,24,0,2,0,true,q,false,true,0.0-2.0-0.55-0.495-3.495,1,0,1,81,false,stim,false,0,972.1000000000931,1,1,0,47929,task3,1419841,false,false,1564,image-keyboard-response,13
true,24,0,2,0,true,q,false,true,0.0-2.0-0.55-0.496-3.496,1,0,1,81,false,stim,false,0,691.2999999998137,1,1,0,47929,task3,1422056,false,false,1567,image-keyboard-response,14
true,24,1,2,1,true,z,false,true,0.0-2.0-0.55-0.497-3.497,1,0,1,90,false,stim,false,1,571.5,1,1,2,47929,task3,1424149,false,false,1570,image-keyboard-response,15
true,24,0,2,0,true,q,false,false,0.0-2.0-0.55-0.498-3.498,1,0,1,81,false,stim,false,2,885.6000000000931,1,0,1,47929,task3,1426559,false,true,1573,image-keyboard-response,16
true,24,1,2,1,true,z,false,true,0.0-2.0-0.55-0.499-3.499,1,0,1,90,false,stim,false,1,783.6000000000931,1,1,2,47929,task3,1428871,false,false,1576,image-keyboard-response,17
true,24,0,2,0,true,q,false,true,0.0-2.0-0.55-0.500-3.500,1,0,1,81,false,stim,false,2,498.89999999990687,1,0,1,47929,task3,1430895,false,false,1579,image-keyboard-response,18
true,24,0,2,0,true,q,false,true,0.0-2.0-0.55-0.501-3.501,1,0,1,81,false,stim,false,2,869.2000000001863,1,0,1,47929,task3,1433282,false,false,1582,image-keyboard-response,19
true,24,1,2,1,true,z,false,true,0.0-2.0-0.55-0.502-3.502,1,0,1,90,false,stim,false,1,535.2999999998137,1,1,2,47929,task3,1435342,false,false,1585,image-keyboard-response,20
true,24,0,2,0,true,q,false,true,0.0-2.0-0.55-0.503-3.503,1,0,1,81,false,stim,false,0,603.5,1,1,0,47929,task3,1437480,false,false,1588,image-keyboard-response,21
true,24,1,2,1,true,z,false,true,0.0-2.0-0.56-0.504-3.504,1,0,1,90,false,stim,false,1,647.2999999998137,1,1,2,47929,task3,1439662,false,false,1591,image-keyboard-response,22
true,24,0,2,0,true,q,false,true,0.0-2.0-0.56-0.505-3.505,1,0,1,81,false,stim,false,2,715.5,1,0,1,47929,task3,1441900,false,false,1594,image-keyboard-response,23
true,24,1,2,1,true,z,false,true,0.0-2.0-0.56-0.506-3.506,1,0,1,90,false,stim,false,1,686.8999999999069,1,1,2,47929,task3,1444111,false,false,1597,image-keyboard-response,24
true,24,0,2,0,true,q,false,false,0.0-2.0-0.56-0.507-3.507,1,0,1,81,false,stim,false,2,746.5,1,0,1,47929,task3,1446367,false,true,1600,image-keyboard-response,25
true,25,0,2,0,true,q,false,true,0.0-2.0-0.56-0.508-3.508,1,0,1,81,true,stim,false,0,751.6000000000931,1,1,0,47929,task3,1448692,false,false,1603,image-keyboard-response,1
true,25,0,2,1,false,z,false,false,0.0-2.0-0.56-0.509-3.509,1,0,1,81,false,stim,true,0,778.3999999999069,1,0,1,47929,task3,1450980,false,false,1606,image-keyboard-response,2
true,25,0,2,0,true,q,false,true,0.0-2.0-0.56-0.510-3.510,1,0,1,81,false,stim,false,0,589.5,1,1,0,47929,task3,1453079,false,false,1609,image-keyboard-response,3
true,25,1,2,1,true,z,false,true,0.0-2.0-0.56-0.511-3.511,1,0,1,90,false,stim,false,1,473.5,1,1,2,47929,task3,1455061,false,false,1612,image-keyboard-response,4
true,25,0,2,0,true,q,false,true,0.0-2.0-0.56-0.512-3.512,1,0,1,81,false,stim,false,0,571.6000000000931,1,1,0,47929,task3,1457144,false,false,1615,image-keyboard-response,5
true,25,0,2,0,true,q,false,true,0.0-2.0-0.57-0.513-3.513,1,0,1,81,false,stim,false,0,404.20000000018626,1,1,0,47929,task3,1459058,false,false,1618,image-keyboard-response,6
true,25,1,2,1,true,z,false,true,0.0-2.0-0.57-0.514-3.514,1,0,1,90,false,stim,false,1,539.3999999999069,1,1,2,47929,task3,1461107,false,false,1621,image-keyboard-response,7
true,25,0,2,0,true,q,false,true,0.0-2.0-0.57-0.515-3.515,1,0,1,81,false,stim,false,0,665.5,1,1,0,47929,task3,1463282,false,false,1624,image-keyboard-response,8
true,25,1,2,1,true,z,false,true,0.0-2.0-0.57-0.516-3.516,1,0,1,90,false,stim,false,1,715.0,1,1,2,47929,task3,1465505,false,false,1627,image-keyboard-response,9
true,25,0,2,1,false,z,true,false,0.0-2.0-0.57-0.517-3.517,1,0,1,81,false,stim,false,1,415.20000000018626,1,1,2,47929,task3,1467431,false,false,1630,image-keyboard-response,10
true,25,0,2,1,false,z,false,false,0.0-2.0-0.57-0.518-3.518,1,0,1,81,false,stim,true,0,525.3999999999069,1,1,1,47929,task3,1469466,false,false,1633,image-keyboard-response,11
true,25,1,2,1,true,z,false,true,0.0-2.0-0.57-0.519-3.519,1,0,1,90,false,stim,false,0,861.9000000003725,1,1,1,47929,task3,1471837,false,false,1636,image-keyboard-response,12
true,25,1,2,1,true,z,false,true,0.0-2.0-0.57-0.520-3.520,1,0,1,90,false,stim,false,0,484.8000000002794,1,1,1,47929,task3,1473832,false,false,1639,image-keyboard-response,13
true,25,0,2,0,true,q,false,true,0.0-2.0-0.57-0.521-3.521,1,0,1,81,false,stim,false,0,511.5,1,1,0,47929,task3,1475853,false,false,1642,image-keyboard-response,14
true,25,1,2,1,true,z,false,true,0.0-2.0-0.58-0.522-3.522,1,0,1,90,false,stim,false,1,421.5,1,1,2,47929,task3,1477784,false,false,1645,image-keyboard-response,15
true,26,1,0,1,true,z,false,true,0.0-2.0-0.58-0.523-3.523,1,1,1,90,true,stim,false,1,1377.2000000001863,1,1,1,47929,task3,1601457,false,false,1768,image-keyboard-response,1
true,26,1,0,1,true,z,false,true,0.0-2.0-0.58-0.524-3.524,1,1,1,90,false,stim,false,1,514.5,1,1,1,47929,task3,1603481,false,false,1771,image-keyboard-response,2
true,26,1,0,1,true,z,false,true,0.0-2.0-0.58-0.525-3.525,1,1,1,90,false,stim,false,1,469.89999999990687,1,1,1,47929,task3,1605461,false,false,1774,image-keyboard-response,3
true,26,2,0,1,false,z,true,false,0.0-2.0-0.58-0.526-3.526,1,1,1,68,false,stim,false,1,627.7999999998137,1,1,2,47929,task3,1607598,false,false,1777,image-keyboard-response,4
true,26,0,0,0,true,q,false,true,0.0-2.0-0.58-0.527-3.527,1,1,1,81,false,stim,false,0,467.09999999962747,1,1,0,47929,task3,1609574,false,false,1780,image-keyboard-response,5
true,26,0,0,0,true,q,false,true,0.0-2.0-0.58-0.528-3.528,1,1,1,81,false,stim,false,0,571.1000000000931,1,1,0,47929,task3,1611655,false,false,1783,image-keyboard-response,6
true,26,1,0,1,true,z,false,true,0.0-2.0-0.58-0.529-3.529,1,1,1,90,false,stim,false,1,664.6000000000931,1,1,2,47929,task3,1613829,false,false,1786,image-keyboard-response,7
true,26,0,0,0,true,q,false,true,0.0-2.0-0.58-0.530-3.530,1,1,1,81,false,stim,false,0,550.2999999998137,1,1,0,47929,task3,1615888,false,false,1789,image-keyboard-response,8
true,26,1,0,1,true,z,false,true,0.0-2.0-0.59-0.531-3.531,1,1,1,90,false,stim,false,1,578.8999999999069,1,1,2,47929,task3,1617983,false,false,1792,image-keyboard-response,9
true,26,0,0,0,true,q,false,true,0.0-2.0-0.59-0.532-3.532,1,1,1,81,false,stim,false,0,689.3999999999069,1,1,0,47929,task3,1620182,false,false,1795,image-keyboard-response,10
true,26,0,0,0,true,q,false,true,0.0-2.0-0.59-0.533-3.533,1,1,1,81,false,stim,false,0,508.59999999962747,1,1,0,47929,task3,1622241,false,false,1798,image-keyboard-response,11
true,26,1,0,1,true,z,false,true,0.0-2.0-0.59-0.534-3.534,1,1,1,90,false,stim,false,1,445.1999999997206,1,0,2,47929,task3,1624219,false,false,1801,image-keyboard-response,12
true,26,1,0,1,true,z,false,true,0.0-2.0-0.59-0.535-3.535,1,1,1,90,false,stim,false,1,633.7000000001863,1,0,1,47929,task3,1626395,false,false,1804,image-keyboard-response,13
true,26,1,0,1,true,z,false,true,0.0-2.0-0.59-0.536-3.536,1,1,1,90,false,stim,false,1,752.2999999998137,1,0,1,47929,task3,1628662,false,false,1807,image-keyboard-response,14
true,26,1,0,1,true,z,false,false,0.0-2.0-0.59-0.537-3.537,1,1,1,90,false,stim,false,1,455.29999999981374,1,0,2,47929,task3,1630629,false,true,1810,image-keyboard-response,15
true,27,1,1,2,false,d,false,false,0.0-2.0-0.59-0.538-3.538,1,0,0,90,true,stim,true,1,390.10000000009313,1,0,1,47929,task3,1632529,false,false,1813,image-keyboard-response,1
true,27,0,1,0,true,q,false,false,0.0-2.0-0.59-0.539-3.539,1,0,0,81,false,stim,false,0,518.4000000003725,1,1,0,47929,task3,1634557,false,true,1816,image-keyboard-response,2
true,27,1,1,0,false,q,true,false,0.0-2.0-0.60-0.540-3.540,1,0,0,90,false,stim,false,0,495.29999999981374,1,1,0,47929,task3,1636564,false,false,1819,image-keyboard-response,3
true,27,2,1,2,true,d,false,true,0.0-2.0-0.60-0.541-3.541,1,0,0,68,false,stim,false,1,762.7999999998137,1,0,2,47929,task3,1638836,false,false,1822,image-keyboard-response,4
true,27,2,1,2,true,d,false,true,0.0-2.0-0.60-0.542-3.542,1,0,0,68,false,stim,false,1,773.8999999999069,1,0,2,47929,task3,1641120,false,false,1825,image-keyboard-response,5
true,27,0,1,2,false,d,true,false,0.0-2.0-0.60-0.543-3.543,1,0,0,81,false,stim,false,1,490.0,1,0,1,47929,task3,1643121,false,false,1828,image-keyboard-response,6
true,27,2,1,0,false,q,true,false,0.0-2.0-0.60-0.544-3.544,1,0,0,68,false,stim,false,0,606.5,1,1,0,47929,task3,1645237,false,false,1831,image-keyboard-response,7
true,27,1,1,0,false,q,true,false,0.0-2.0-0.60-0.545-3.545,1,0,0,90,false,stim,false,0,449.79999999981374,1,1,0,47929,task3,1647197,false,false,1834,image-keyboard-response,8
true,27,2,1,2,true,d,false,true,0.0-2.0-0.60-0.546-3.546,1,0,0,68,false,stim,false,1,1235.7999999998137,1,0,1,47929,task3,1649943,false,false,1837,image-keyboard-response,9
true,27,2,1,2,true,d,false,true,0.0-2.0-0.60-0.547-3.547,1,0,0,68,false,stim,false,1,497.6999999997206,1,0,2,47929,task3,1651949,false,false,1840,image-keyboard-response,10
true,27,2,1,2,true,d,false,true,0.0-2.0-0.60-0.548-3.548,1,0,0,68,false,stim,false,1,670.0999999996275,1,0,1,47929,task3,1654130,false,false,1843,image-keyboard-response,11
true,27,2,1,2,true,d,false,true,0.0-2.0-0.61-0.549-3.549,1,0,0,68,false,stim,false,1,505.3000000002794,1,0,1,47929,task3,1656151,false,false,1846,image-keyboard-response,12
true,27,0,1,0,true,q,false,false,0.0-2.0-0.61-0.550-3.550,1,0,0,81,false,stim,false,0,400.10000000009313,1,1,0,47929,task3,1658065,false,true,1849,image-keyboard-response,13
true,27,2,1,2,true,d,false,true,0.0-2.0-0.61-0.551-3.551,1,0,0,68,false,stim,false,1,462.89999999990687,1,0,1,47929,task3,1660040,false,false,1852,image-keyboard-response,14
true,27,1,1,0,false,q,true,false,0.0-2.0-0.61-0.552-3.552,1,0,0,90,false,stim,false,0,527.0,1,1,0,47929,task3,1662083,false,false,1855,image-keyboard-response,15
true,27,2,1,2,true,d,false,true,0.0-2.0-0.61-0.553-3.553,1,0,0,68,false,stim,false,1,636.7999999998137,1,0,2,47929,task3,1664229,false,false,1858,image-keyboard-response,16
true,27,2,1,2,true,d,false,true,0.0-2.0-0.61-0.554-3.554,1,0,0,68,false,stim,false,1,335.10000000009313,1,0,2,47929,task3,1666076,false,false,1861,image-keyboard-response,17
true,27,2,1,2,true,d,false,true,0.0-2.0-0.61-0.555-3.555,1,0,0,68,false,stim,false,1,335.0,1,0,1,47929,task3,1667925,false,false,1864,image-keyboard-response,18
true,27,2,1,0,false,q,true,false,0.0-2.0-0.61-0.556-3.556,1,0,0,68,false,stim,false,0,377.29999999981374,1,1,0,47929,task3,1669812,false,false,1867,image-keyboard-response,19
true,27,2,1,2,true,d,false,true,0.0-2.0-0.61-0.557-3.557,1,0,0,68,false,stim,false,1,714.1000000000931,1,0,2,47929,task3,1672041,false,false,1870,image-keyboard-response,20
true,27,2,1,2,true,d,false,true,0.0-2.0-0.62-0.558-3.558,1,0,0,68,false,stim,false,1,637.7000000001863,1,0,1,47929,task3,1674190,false,false,1873,image-keyboard-response,21
true,27,1,1,0,false,q,true,false,0.0-2.0-0.62-0.559-3.559,1,0,0,90,false,stim,false,0,424.3000000002794,1,0,0,47929,task3,1676125,false,false,1876,image-keyboard-response,22
true,27,0,1,0,true,q,false,true,0.0-2.0-0.62-0.560-3.560,1,0,0,81,false,stim,false,0,430.8000000002794,1,0,0,47929,task3,1678065,false,false,1879,image-keyboard-response,23
true,27,2,1,2,true,d,false,true,0.0-2.0-0.62-0.561-3.561,1,0,0,68,false,stim,false,1,403.89999999990687,1,0,1,47929,task3,1679977,false,false,1882,image-keyboard-response,24
true,27,2,1,2,true,d,false,true,0.0-2.0-0.62-0.562-3.562,1,0,0,68,false,stim,false,1,330.0,1,1,2,47929,task3,1681817,false,false,1885,image-keyboard-response,25
true,28,2,1,2,true,d,false,true,0.0-2.0-0.62-0.563-3.563,0,0,1,68,true,stim,false,2,387.89999999990687,1,1,2,47929,task3,1683716,false,false,1888,image-keyboard-response,1
true,28,2,1,0,false,q,false,false,0.0-2.0-0.62-0.564-3.564,0,0,1,68,false,stim,true,2,388.70000000018626,1,0,1,47929,task3,1685614,false,false,1891,image-keyboard-response,2
true,28,2,1,2,true,d,false,true,0.0-2.0-0.62-0.565-3.565,0,0,1,68,false,stim,false,2,340.40000000037253,1,1,2,47929,task3,1687465,false,false,1894,image-keyboard-response,3
true,28,0,1,1,false,z,false,false,0.0-2.0-0.62-0.566-3.566,0,0,1,81,false,stim,true,0,563.6000000000931,1,0,0,47929,task3,1689540,false,false,1897,image-keyboard-response,4
true,28,0,1,1,false,z,false,false,0.0-2.0-0.63-0.567-3.567,0,0,1,81,false,stim,true,0,474.0,1,0,0,47929,task3,1691527,false,false,1900,image-keyboard-response,5
true,28,2,1,0,false,q,false,false,0.0-2.0-0.63-0.568-3.568,0,0,1,68,false,stim,true,2,704.8999999999069,1,0,1,47929,task3,1693803,false,false,1903,image-keyboard-response,6
true,28,2,1,2,true,d,false,true,0.0-2.0-0.63-0.569-3.569,0,0,1,68,false,stim,false,2,474.89999999990687,1,1,2,47929,task3,1695788,false,false,1906,image-keyboard-response,7
true,28,1,1,1,true,z,false,true,0.0-2.0-0.63-0.570-3.570,0,0,1,90,false,stim,false,0,586.1000000000931,1,0,0,47929,task3,1697886,false,false,1909,image-keyboard-response,8
true,28,2,1,2,true,d,false,true,0.0-2.0-0.63-0.571-3.571,0,0,1,68,false,stim,false,2,661.2000000001863,1,1,2,47929,task3,1700058,false,false,1912,image-keyboard-response,9
true,28,1,1,1,true,z,false,true,0.0-2.0-0.63-0.572-3.572,0,0,1,90,false,stim,false,0,393.8000000002794,1,0,0,47929,task3,1701961,false,false,1915,image-keyboard-response,10
true,28,2,1,2,true,d,false,true,0.0-2.0-0.63-0.573-3.573,0,0,1,68,false,stim,false,2,582.6999999997206,1,1,2,47929,task3,1704066,false,false,1918,image-keyboard-response,11
true,28,0,1,0,true,q,false,true,0.0-2.0-0.63-0.574-3.574,0,0,1,81,false,stim,false,2,424.29999999981374,1,0,1,47929,task3,1706000,false,false,1921,image-keyboard-response,12
true,28,0,1,0,true,q,false,true,0.0-2.0-0.63-0.575-3.575,0,0,1,81,false,stim,false,2,470.5,1,0,1,47929,task3,1707982,false,false,1924,image-keyboard-response,13
true,28,0,1,0,true,q,false,true,0.0-2.0-0.64-0.576-3.576,0,0,1,81,false,stim,false,2,398.60000000009313,1,0,1,47929,task3,1709892,false,false,1927,image-keyboard-response,14
true,28,2,1,2,true,d,false,true,0.0-2.0-0.64-0.577-3.577,0,0,1,68,false,stim,false,2,526.3999999999069,1,1,2,47929,task3,1711929,false,false,1930,image-keyboard-response,15
true,28,2,1,2,true,d,false,true,0.0-2.0-0.64-0.578-3.578,0,0,1,68,false,stim,false,2,366.70000000018626,1,1,2,47929,task3,1713805,false,false,1933,image-keyboard-response,16
true,28,1,1,1,true,z,false,true,0.0-2.0-0.64-0.579-3.579,0,0,1,90,false,stim,false,0,476.6999999997206,1,0,0,47929,task3,1715792,false,false,1936,image-keyboard-response,17
true,28,2,1,2,true,d,false,true,0.0-2.0-0.64-0.580-3.580,0,0,1,68,false,stim,false,2,486.0,1,1,2,47929,task3,1717792,false,false,1939,image-keyboard-response,18
true,28,1,1,1,true,z,false,true,0.0-2.0-0.64-0.581-3.581,0,0,1,90,false,stim,false,0,604.2000000001863,1,0,0,47929,task3,1719907,false,false,1942,image-keyboard-response,19
true,28,0,1,0,true,q,false,true,0.0-2.0-0.64-0.582-3.582,0,0,1,81,false,stim,false,2,860.3000000002794,1,0,1,47929,task3,1722277,false,false,1945,image-keyboard-response,20
true,28,0,1,0,true,q,false,true,0.0-2.0-0.64-0.583-3.583,0,0,1,81,false,stim,false,2,629.3999999999069,1,0,1,47929,task3,1724416,false,false,1948,image-keyboard-response,21
true,28,1,1,1,true,z,false,false,0.0-2.0-0.64-0.584-3.584,0,0,1,90,false,stim,false,0,866.2000000001863,1,0,0,47929,task3,1726795,false,true,1951,image-keyboard-response,22
true,28,2,1,1,false,z,true,true,0.0-2.0-0.65-0.585-3.585,0,0,1,68,false,stim,false,0,695.2000000001863,1,0,0,47929,task3,1729001,false,true,1954,image-keyboard-response,23
true,28,2,1,2,true,d,false,true,0.0-2.0-0.65-0.586-3.586,0,0,1,68,false,stim,false,2,484.10000000009313,1,1,2,47929,task3,1730996,false,false,1957,image-keyboard-response,24
true,28,0,1,0,true,q,false,true,0.0-2.0-0.65-0.587-3.587,0,0,1,81,false,stim,false,2,483.79999999981374,1,1,1,47929,task3,1733025,false,false,1960,image-keyboard-response,25
true,28,2,1,2,true,d,false,true,0.0-2.0-0.65-0.588-3.588,0,0,1,68,false,stim,false,2,557.9000000003725,1,1,2,47929,task3,1735095,false,false,1963,image-keyboard-response,26
true,28,2,1,0,false,q,false,false,0.0-2.0-0.65-0.589-3.589,0,0,1,68,false,stim,true,2,583.2999999998137,1,1,1,47929,task3,1737188,false,false,1966,image-keyboard-response,27
true,28,2,1,2,true,d,false,true,0.0-2.0-0.65-0.590-3.590,0,0,1,68,false,stim,false,2,521.2000000001863,1,1,2,47929,task3,1739220,false,false,1969,image-keyboard-response,28
