answered,blockNum,choice,condition,corResp,correct,correct_response,explo,fb,internal_node_id,isStable_1,isStable_2,isStable_3,key_press,newBlock,part,persev,persevResp,rt,sessNum,stableAS,stimulus,subject,task,time_elapsed,training,trap,trial_index,trial_type,trialsInBlock
true,1,0,0,2,false,d,true,false,0.0-2.0-0.0-0.0-3.0,0,0,0,81,true,stim,false,-1,594.8999998569489,2,0,0,48534,task3,219234,false,false,79,image-keyboard-response,1
true,1,0,0,2,false,d,true,false,0.0-2.0-0.0-0.1-3.1,0,0,0,81,false,stim,false,-1,569.6000001430511,2,0,1,48534,task3,221316,false,false,82,image-keyboard-response,2
true,1,0,0,0,true,q,false,true,0.0-2.0-0.0-0.2-3.2,0,0,0,81,false,stim,false,-1,371.40000009536743,2,0,2,48534,task3,223215,false,false,85,image-keyboard-response,3
true,1,1,0,2,false,d,true,false,0.0-2.0-0.0-0.3-3.3,0,0,0,90,false,stim,false,-1,459.7999999523163,2,0,0,48534,task3,225194,false,false,88,image-keyboard-response,4
true,1,0,0,0,true,q,false,true,0.0-2.0-0.0-0.4-3.4,0,0,0,81,false,stim,false,-1,1649.6000001430511,2,0,2,48534,task3,228369,false,false,91,image-keyboard-response,5
true,1,1,0,2,false,d,true,false,0.0-2.0-0.0-0.5-3.5,0,0,0,90,false,stim,false,-1,1105.3999998569489,2,0,1,48534,task3,230993,false,false,94,image-keyboard-response,6
true,1,2,0,2,true,d,false,false,0.0-2.0-0.0-0.6-3.6,0,0,0,68,false,stim,false,-1,721.7999999523163,2,0,0,48534,task3,233236,false,true,97,image-keyboard-response,7
true,1,0,0,0,true,q,false,true,0.0-2.0-0.0-0.7-3.7,0,0,0,81,false,stim,false,-1,669.2000000476837,2,0,2,48534,task3,235437,false,false,100,image-keyboard-response,8
true,1,2,0,2,true,d,false,true,0.0-2.0-0.0-0.8-3.8,0,0,0,68,false,stim,false,-1,1187.2000000476837,2,0,1,48534,task3,238145,false,false,103,image-keyboard-response,9
true,1,0,0,2,false,d,true,false,0.0-2.0-0.1-0.9-3.9,0,0,0,81,false,stim,false,-1,892.5999999046326,2,0,0,48534,task3,240564,false,false,106,image-keyboard-response,10
true,1,2,0,2,true,d,false,true,0.0-2.0-0.1-0.10-3.10,0,0,0,68,false,stim,false,-1,942.9000000953674,2,0,1,48534,task3,243021,false,false,109,image-keyboard-response,11
true,1,0,0,0,true,q,false,true,0.0-2.0-0.1-0.11-3.11,0,0,0,81,false,stim,false,-1,469.7999999523163,2,0,2,48534,task3,245017,false,false,112,image-keyboard-response,12
true,1,1,0,2,false,d,true,false,0.0-2.0-0.1-0.12-3.12,0,0,0,90,false,stim,false,-1,484.7000000476837,2,0,0,48534,task3,247031,false,false,115,image-keyboard-response,13
true,1,2,0,2,true,d,false,true,0.0-2.0-0.1-0.13-3.13,0,0,0,68,false,stim,false,-1,591.5,2,0,0,48534,task3,249154,false,false,118,image-keyboard-response,14
true,1,2,0,2,true,d,false,true,0.0-2.0-0.1-0.14-3.14,0,0,0,68,false,stim,false,-1,571.5999999046326,2,0,1,48534,task3,251258,false,false,121,image-keyboard-response,15
true,1,2,0,2,true,d,false,false,0.0-2.0-0.1-0.15-3.15,0,0,0,68,false,stim,false,-1,438.2999999523163,2,0,1,48534,task3,253221,false,true,124,image-keyboard-response,16
true,1,0,0,0,true,q,false,true,0.0-2.0-0.1-0.16-3.16,0,0,0,81,false,stim,false,-1,798.1000001430511,2,0,2,48534,task3,255546,false,false,127,image-keyboard-response,17
true,1,0,0,0,true,q,false,true,0.0-2.0-0.1-0.17-3.17,0,0,0,81,false,stim,false,-1,808.2000000476837,2,0,2,48534,task3,257885,false,false,130,image-keyboard-response,18
true,1,2,0,2,true,d,false,true,0.0-2.0-0.2-0.18-3.18,0,0,0,68,false,stim,false,-1,405.30000019073486,2,1,0,48534,task3,259810,false,false,133,image-keyboard-response,19
true,1,0,0,0,true,q,false,true,0.0-2.0-0.2-0.19-3.19,0,0,0,81,false,stim,false,-1,681.5,2,1,2,48534,task3,262022,false,false,136,image-keyboard-response,20
true,1,2,0,2,true,d,false,true,0.0-2.0-0.2-0.20-3.20,0,0,0,68,false,stim,false,-1,716.0999999046326,2,0,1,48534,task3,264260,false,false,139,image-keyboard-response,21
true,1,0,0,0,true,q,false,true,0.0-2.0-0.2-0.21-3.21,0,0,0,81,false,stim,false,-1,1174.0,2,1,2,48534,task3,266966,false,false,142,image-keyboard-response,22
true,1,2,0,2,true,d,false,true,0.0-2.0-0.2-0.22-3.22,0,0,0,68,false,stim,false,-1,705.2000000476837,2,1,0,48534,task3,269200,false,false,145,image-keyboard-response,23
true,2,2,2,0,false,q,false,true,0.0-2.0-0.2-0.23-3.23,1,0,1,68,true,stim,true,2,484.80000019073486,2,0,1,48534,task3,271212,false,true,148,image-keyboard-response,1
true,2,0,2,0,true,q,false,true,0.0-2.0-0.2-0.24-3.24,1,0,1,81,false,stim,false,0,468.0,2,1,2,48534,task3,273211,false,false,151,image-keyboard-response,2
true,2,2,2,0,false,q,false,false,0.0-2.0-0.2-0.25-3.25,1,0,1,68,false,stim,true,2,548.3999998569489,2,0,1,48534,task3,275289,false,false,154,image-keyboard-response,3
true,2,2,2,2,true,d,false,true,0.0-2.0-0.2-0.26-3.26,1,0,1,68,false,stim,false,2,411.39999985694885,2,1,0,48534,task3,277233,false,false,157,image-keyboard-response,4
true,2,2,2,2,true,d,false,true,0.0-2.0-0.3-0.27-3.27,1,0,1,68,false,stim,false,2,1028.5,2,1,0,48534,task3,279787,false,false,160,image-keyboard-response,5
true,2,0,2,0,true,q,false,true,0.0-2.0-0.3-0.28-3.28,1,0,1,81,false,stim,false,0,678.7999999523163,2,1,2,48534,task3,281997,false,false,163,image-keyboard-response,6
true,2,2,2,0,false,q,false,false,0.0-2.0-0.3-0.29-3.29,1,0,1,68,false,stim,true,2,752.6000001430511,2,0,1,48534,task3,284270,false,false,166,image-keyboard-response,7
true,2,1,2,0,false,q,true,false,0.0-2.0-0.3-0.30-3.30,1,0,1,90,false,stim,false,2,2196.0,2,0,1,48534,task3,287996,false,false,169,image-keyboard-response,8
true,2,0,2,0,true,q,false,true,0.0-2.0-0.3-0.31-3.31,1,0,1,81,false,stim,false,2,499.0,2,0,1,48534,task3,290019,false,false,172,image-keyboard-response,9
true,2,0,2,0,true,q,false,true,0.0-2.0-0.3-0.32-3.32,1,0,1,81,false,stim,false,0,741.7999999523163,2,1,2,48534,task3,292293,false,false,175,image-keyboard-response,10
true,2,2,2,2,true,d,false,false,0.0-2.0-0.3-0.33-3.33,1,0,1,68,false,stim,false,2,537.7000000476837,2,0,0,48534,task3,294353,false,true,178,image-keyboard-response,11
true,2,1,2,2,false,d,true,false,0.0-2.0-0.3-0.34-3.34,1,0,1,90,false,stim,false,2,707.1000001430511,2,0,0,48534,task3,296582,false,false,181,image-keyboard-response,12
true,2,0,2,0,true,q,false,true,0.0-2.0-0.3-0.35-3.35,1,0,1,81,false,stim,false,0,804.2999999523163,2,0,2,48534,task3,298914,false,false,184,image-keyboard-response,13
true,2,0,2,2,false,d,true,false,0.0-2.0-0.4-0.36-3.36,1,0,1,81,false,stim,false,2,818.5,2,0,0,48534,task3,301256,false,false,187,image-keyboard-response,14
true,2,1,2,2,false,d,true,false,0.0-2.0-0.4-0.37-3.37,1,0,1,90,false,stim,false,2,895.9000000953674,2,0,0,48534,task3,303673,false,false,190,image-keyboard-response,15
true,3,0,1,2,false,d,false,false,0.0-2.0-0.4-0.38-3.38,0,1,0,81,true,stim,true,0,840.7000000476837,2,0,2,48534,task3,306049,false,false,193,image-keyboard-response,1
true,3,0,1,0,true,q,false,false,0.0-2.0-0.4-0.39-3.39,0,1,0,81,false,stim,false,0,563.1000001430511,2,1,1,48534,task3,308146,false,true,196,image-keyboard-response,2
true,3,1,1,0,false,q,true,false,0.0-2.0-0.4-0.40-3.40,0,1,0,90,false,stim,false,0,868.0,2,1,1,48534,task3,310548,false,false,199,image-keyboard-response,3
true,3,1,1,2,false,d,true,false,0.0-2.0-0.4-0.41-3.41,0,1,0,90,false,stim,false,0,1112.3999998569489,2,0,2,48534,task3,313185,false,false,202,image-keyboard-response,4
true,3,2,1,2,true,d,false,true,0.0-2.0-0.4-0.42-3.42,0,1,0,68,false,stim,false,0,824.7000000476837,2,0,2,48534,task3,315533,false,false,205,image-keyboard-response,5
true,3,1,1,0,false,q,true,false,0.0-2.0-0.4-0.43-3.43,0,1,0,90,false,stim,false,0,1081.2000000476837,2,1,1,48534,task3,318146,false,false,208,image-keyboard-response,6
true,3,2,1,0,false,q,false,false,0.0-2.0-0.4-0.44-3.44,0,1,0,68,false,stim,true,2,1209.5,2,0,0,48534,task3,320876,false,false,211,image-keyboard-response,7
true,3,0,1,0,true,q,false,true,0.0-2.0-0.5-0.45-3.45,0,1,0,81,false,stim,false,2,430.39999985694885,2,0,0,48534,task3,322828,false,false,214,image-keyboard-response,8
true,3,2,1,2,true,d,false,true,0.0-2.0-0.5-0.46-3.46,0,1,0,68,false,stim,false,0,418.2000000476837,2,0,2,48534,task3,324757,false,false,217,image-keyboard-response,9
true,3,0,1,0,true,q,false,true,0.0-2.0-0.5-0.47-3.47,0,1,0,81,false,stim,false,2,471.69999980926514,2,1,0,48534,task3,326760,false,false,220,image-keyboard-response,10
true,3,0,1,0,true,q,false,true,0.0-2.0-0.5-0.48-3.48,0,1,0,81,false,stim,false,0,1220.8999998569489,2,0,1,48534,task3,329505,false,false,223,image-keyboard-response,11
true,3,0,1,0,true,q,false,true,0.0-2.0-0.5-0.49-3.49,0,1,0,81,false,stim,false,2,382.59999990463257,2,1,0,48534,task3,331412,false,false,226,image-keyboard-response,12
true,3,2,1,2,true,d,false,true,0.0-2.0-0.5-0.50-3.50,0,1,0,68,false,stim,false,0,553.2000000476837,2,1,2,48534,task3,333486,false,false,229,image-keyboard-response,13
true,3,0,1,0,true,q,false,true,0.0-2.0-0.5-0.51-3.51,0,1,0,81,false,stim,false,0,461.0,2,0,1,48534,task3,335468,false,false,232,image-keyboard-response,14
true,4,2,2,2,true,d,false,true,0.0-2.0-0.5-0.52-3.52,1,0,1,68,true,stim,false,2,551.0,2,1,2,48534,task3,337540,false,false,235,image-keyboard-response,1
true,4,0,2,1,false,z,false,false,0.0-2.0-0.5-0.53-3.53,1,0,1,81,false,stim,true,0,1224.0,2,0,1,48534,task3,340290,false,false,238,image-keyboard-response,2
true,4,0,2,0,true,q,false,true,0.0-2.0-0.6-0.54-3.54,1,0,1,81,false,stim,false,0,639.2000000476837,2,1,0,48534,task3,342453,false,false,241,image-keyboard-response,3
true,4,2,2,2,true,d,false,true,0.0-2.0-0.6-0.55-3.55,1,0,1,68,false,stim,false,2,638.3999998569489,2,1,2,48534,task3,344620,false,false,244,image-keyboard-response,4
true,4,0,2,0,true,q,false,false,0.0-2.0-0.6-0.56-3.56,1,0,1,81,false,stim,false,0,645.5,2,1,0,48534,task3,346800,false,true,247,image-keyboard-response,5
true,4,1,2,1,true,z,false,true,0.0-2.0-0.6-0.57-3.57,1,0,1,90,false,stim,false,0,796.1000001430511,2,0,1,48534,task3,349128,false,false,250,image-keyboard-response,6
true,4,1,2,1,true,z,false,true,0.0-2.0-0.6-0.58-3.58,1,0,1,90,false,stim,false,0,500.2999999523163,2,0,1,48534,task3,351159,false,false,253,image-keyboard-response,7
true,4,1,2,0,false,q,true,false,0.0-2.0-0.6-0.59-3.59,1,0,1,90,false,stim,false,0,1236.4000000953674,2,1,0,48534,task3,353922,false,false,256,image-keyboard-response,8
true,4,1,2,1,true,z,false,true,0.0-2.0-0.6-0.60-3.60,1,0,1,90,false,stim,false,0,868.0,2,0,1,48534,task3,356319,false,false,259,image-keyboard-response,9
true,4,2,2,2,true,d,false,true,0.0-2.0-0.6-0.61-3.61,1,0,1,68,false,stim,false,2,440.0,2,1,2,48534,task3,358279,false,false,262,image-keyboard-response,10
true,4,2,2,2,true,d,false,true,0.0-2.0-0.6-0.62-3.62,1,0,1,68,false,stim,false,2,742.1000001430511,2,1,2,48534,task3,360551,false,false,265,image-keyboard-response,11
true,4,1,2,1,true,z,false,true,0.0-2.0-0.7-0.63-3.63,1,0,1,90,false,stim,false,0,617.0,2,0,1,48534,task3,362689,false,false,268,image-keyboard-response,12
true,4,2,2,0,false,q,true,false,0.0-2.0-0.7-0.64-3.64,1,0,1,68,false,stim,false,0,780.3999998569489,2,1,0,48534,task3,364977,false,false,271,image-keyboard-response,13
true,4,2,2,2,true,d,false,true,0.0-2.0-0.7-0.65-3.65,1,0,1,68,false,stim,false,2,683.7000000476837,2,1,2,48534,task3,367180,false,false,274,image-keyboard-response,14
true,4,0,2,0,true,q,false,true,0.0-2.0-0.7-0.66-3.66,1,0,1,81,false,stim,false,0,581.0,2,1,0,48534,task3,369295,false,false,277,image-keyboard-response,15
true,4,2,2,2,true,d,false,true,0.0-2.0-0.7-0.67-3.67,1,0,1,68,false,stim,false,2,1079.5,2,1,2,48534,task3,371898,false,false,280,image-keyboard-response,16
true,4,1,2,1,true,z,false,true,0.0-2.0-0.7-0.68-3.68,1,0,1,90,false,stim,false,0,473.7000000476837,2,0,1,48534,task3,373900,false,false,283,image-keyboard-response,17
true,4,0,2,0,true,q,false,true,0.0-2.0-0.7-0.69-3.69,1,0,1,81,false,stim,false,0,385.2999999523163,2,1,0,48534,task3,375796,false,false,286,image-keyboard-response,18
true,4,2,2,2,true,d,false,true,0.0-2.0-0.7-0.70-3.70,1,0,1,68,false,stim,false,2,678.0999999046326,2,1,2,48534,task3,377995,false,false,289,image-keyboard-response,19
true,4,1,2,1,true,z,false,true,0.0-2.0-0.7-0.71-3.71,1,0,1,90,false,stim,false,0,467.60000014305115,2,0,1,48534,task3,379986,false,false,292,image-keyboard-response,20
true,4,2,2,2,true,d,false,true,0.0-2.0-0.8-0.72-3.72,1,0,1,68,false,stim,false,2,682.9000000953674,2,0,2,48534,task3,382203,false,false,295,image-keyboard-response,21
true,4,0,2,0,true,q,false,true,0.0-2.0-0.8-0.73-3.73,1,0,1,81,false,stim,false,0,636.7999999523163,2,1,0,48534,task3,384360,false,false,298,image-keyboard-response,22
true,4,1,2,2,false,d,true,false,0.0-2.0-0.8-0.74-3.74,1,0,1,90,false,stim,false,2,618.5,2,0,2,48534,task3,386513,false,false,301,image-keyboard-response,23
true,4,1,2,1,true,z,false,true,0.0-2.0-0.8-0.75-3.75,1,0,1,90,false,stim,false,0,931.7000000476837,2,0,1,48534,task3,388979,false,false,304,image-keyboard-response,24
true,5,1,1,2,false,d,false,false,0.0-2.0-0.8-0.76-3.76,1,0,0,90,true,stim,true,1,656.1000001430511,2,0,1,48534,task3,391157,false,false,307,image-keyboard-response,1
true,5,0,1,0,true,q,false,true,0.0-2.0-0.8-0.77-3.77,1,0,0,81,false,stim,false,0,606.0,2,1,0,48534,task3,393290,false,false,310,image-keyboard-response,2
true,5,2,1,0,false,q,false,false,0.0-2.0-0.8-0.78-3.78,1,0,0,68,false,stim,true,2,421.80000019073486,2,0,2,48534,task3,395233,false,false,313,image-keyboard-response,3
true,5,0,1,0,true,q,false,true,0.0-2.0-0.8-0.79-3.79,1,0,0,81,false,stim,false,0,683.7999999523163,2,1,0,48534,task3,397434,false,false,316,image-keyboard-response,4
true,5,0,1,2,false,d,true,false,0.0-2.0-0.8-0.80-3.80,1,0,0,81,false,stim,false,1,478.89999985694885,2,0,1,48534,task3,399435,false,false,319,image-keyboard-response,5
true,5,0,1,0,true,q,false,false,0.0-2.0-0.9-0.81-3.81,1,0,0,81,false,stim,false,2,1098.7999999523163,2,0,2,48534,task3,402066,false,true,322,image-keyboard-response,6
true,5,1,1,2,false,d,false,false,0.0-2.0-0.9-0.82-3.82,1,0,0,90,false,stim,true,1,1696.7000000476837,2,0,1,48534,task3,405274,false,false,325,image-keyboard-response,7
true,5,2,1,2,true,d,false,true,0.0-2.0-0.9-0.83-3.83,1,0,0,68,false,stim,false,1,511.7000000476837,2,0,1,48534,task3,407310,false,false,328,image-keyboard-response,8
true,5,0,1,0,true,q,false,true,0.0-2.0-0.9-0.84-3.84,1,0,0,81,false,stim,false,0,762.1999998092651,2,1,0,48534,task3,409606,false,false,331,image-keyboard-response,9
true,5,2,1,0,false,q,false,true,0.0-2.0-0.9-0.85-3.85,1,0,0,68,false,stim,true,2,1214.7999999523163,2,0,2,48534,task3,412349,false,true,334,image-keyboard-response,10
true,5,0,1,0,true,q,false,true,0.0-2.0-0.9-0.86-3.86,1,0,0,81,false,stim,false,0,611.5,2,1,0,48534,task3,414483,false,false,337,image-keyboard-response,11
true,5,2,1,2,true,d,false,true,0.0-2.0-0.9-0.87-3.87,1,0,0,68,false,stim,false,1,610.5,2,0,1,48534,task3,416619,false,false,340,image-keyboard-response,12
true,5,2,1,0,false,q,false,false,0.0-2.0-0.9-0.88-3.88,1,0,0,68,false,stim,true,2,351.59999990463257,2,0,2,48534,task3,418503,false,false,343,image-keyboard-response,13
true,5,0,1,0,true,q,false,true,0.0-2.0-0.9-0.89-3.89,1,0,0,81,false,stim,false,0,434.5,2,1,0,48534,task3,420458,false,false,346,image-keyboard-response,14
true,5,2,1,2,true,d,false,true,0.0-2.0-0.10-0.90-3.90,1,0,0,68,false,stim,false,1,430.7999999523163,2,0,1,48534,task3,422408,false,false,349,image-keyboard-response,15
true,5,1,1,0,false,q,true,false,0.0-2.0-0.10-0.91-3.91,1,0,0,90,false,stim,false,2,728.0,2,0,2,48534,task3,424657,false,false,352,image-keyboard-response,16
true,5,0,1,0,true,q,false,true,0.0-2.0-0.10-0.92-3.92,1,0,0,81,false,stim,false,0,539.0,2,1,0,48534,task3,426727,false,false,355,image-keyboard-response,17
true,5,0,1,0,true,q,false,true,0.0-2.0-0.10-0.93-3.93,1,0,0,81,false,stim,false,0,636.5,2,1,0,48534,task3,428884,false,false,358,image-keyboard-response,18
true,5,2,1,2,true,d,false,true,0.0-2.0-0.10-0.94-3.94,1,0,0,68,false,stim,false,1,454.0,2,0,1,48534,task3,430858,false,false,361,image-keyboard-response,19
true,5,2,1,2,true,d,false,true,0.0-2.0-0.10-0.95-3.95,1,0,0,68,false,stim,false,1,503.80000019073486,2,0,1,48534,task3,432892,false,false,364,image-keyboard-response,20
true,5,0,1,0,true,q,false,true,0.0-2.0-0.10-0.96-3.96,1,0,0,81,false,stim,false,2,458.5,2,0,2,48534,task3,434876,false,false,367,image-keyboard-response,21
true,5,0,1,0,true,q,false,true,0.0-2.0-0.10-0.97-3.97,1,0,0,81,false,stim,false,0,600.2999999523163,2,1,0,48534,task3,437004,false,false,370,image-keyboard-response,22
true,5,0,1,0,true,q,false,true,0.0-2.0-0.10-0.98-3.98,1,0,0,81,false,stim,false,2,588.7000000476837,2,1,2,48534,task3,439115,false,false,373,image-keyboard-response,23
true,5,0,1,0,true,q,false,true,0.0-2.0-0.11-0.99-3.99,1,0,0,81,false,stim,false,2,622.7999999523163,2,1,2,48534,task3,441256,false,false,376,image-keyboard-response,24
true,5,0,1,0,true,q,false,true,0.0-2.0-0.11-0.100-3.100,1,0,0,81,false,stim,false,2,500.10000014305115,2,1,2,48534,task3,443278,false,false,379,image-keyboard-response,25
true,5,0,1,0,true,q,false,true,0.0-2.0-0.11-0.101-3.101,1,0,0,81,false,stim,false,0,776.1999998092651,2,1,0,48534,task3,445586,false,false,382,image-keyboard-response,26
true,6,0,2,0,true,q,false,true,0.0-2.0-0.11-0.102-3.102,1,0,1,81,true,stim,false,0,525.7000000476837,2,1,0,48534,task3,447634,false,false,385,image-keyboard-response,1
true,6,2,2,1,false,z,false,false,0.0-2.0-0.11-0.103-3.103,1,0,1,68,false,stim,true,2,427.2000000476837,2,0,1,48534,task3,449581,false,false,388,image-keyboard-response,2
true,6,0,2,0,true,q,false,true,0.0-2.0-0.11-0.104-3.104,1,0,1,81,false,stim,false,0,1160.7000000476837,2,1,2,48534,task3,452269,false,false,391,image-keyboard-response,3
true,6,1,2,1,true,z,false,true,0.0-2.0-0.11-0.105-3.105,1,0,1,90,false,stim,false,2,910.2000000476837,2,0,1,48534,task3,454706,false,false,394,image-keyboard-response,4
true,6,1,2,1,true,z,false,true,0.0-2.0-0.11-0.106-3.106,1,0,1,90,false,stim,false,2,495.89999985694885,2,0,1,48534,task3,456726,false,false,397,image-keyboard-response,5
true,6,0,2,0,true,q,false,true,0.0-2.0-0.11-0.107-3.107,1,0,1,81,false,stim,false,0,478.59999990463257,2,1,0,48534,task3,458738,false,false,400,image-keyboard-response,6
true,6,1,2,1,true,z,false,true,0.0-2.0-0.12-0.108-3.108,1,0,1,90,false,stim,false,2,945.3999998569489,2,0,1,48534,task3,461211,false,false,403,image-keyboard-response,7
true,6,0,2,0,true,q,false,true,0.0-2.0-0.12-0.109-3.109,1,0,1,81,false,stim,false,0,601.7000000476837,2,1,0,48534,task3,463336,false,false,406,image-keyboard-response,8
true,6,0,2,0,true,q,false,true,0.0-2.0-0.12-0.110-3.110,1,0,1,81,false,stim,false,0,461.59999990463257,2,1,2,48534,task3,465325,false,false,409,image-keyboard-response,9
true,6,0,2,0,true,q,false,true,0.0-2.0-0.12-0.111-3.111,1,0,1,81,false,stim,false,0,591.0999999046326,2,1,0,48534,task3,467439,false,false,412,image-keyboard-response,10
true,6,0,2,0,true,q,false,true,0.0-2.0-0.12-0.112-3.112,1,0,1,81,false,stim,false,0,1955.2999999523163,2,0,2,48534,task3,470925,false,false,415,image-keyboard-response,11
true,6,0,2,0,true,q,false,true,0.0-2.0-0.12-0.113-3.113,1,0,1,81,false,stim,false,0,865.7999999523163,2,1,0,48534,task3,473316,false,false,418,image-keyboard-response,12
true,6,1,2,1,true,z,false,true,0.0-2.0-0.12-0.114-3.114,1,0,1,90,false,stim,false,2,649.0,2,1,1,48534,task3,475491,false,false,421,image-keyboard-response,13
true,6,1,2,1,true,z,false,true,0.0-2.0-0.12-0.115-3.115,1,0,1,90,false,stim,false,2,591.3999998569489,2,1,1,48534,task3,477603,false,false,424,image-keyboard-response,14
true,7,0,2,1,false,z,false,false,0.0-2.0-0.12-0.116-3.116,1,1,0,81,true,stim,true,0,1012.9000000953674,2,0,2,48534,task3,480141,false,false,427,image-keyboard-response,1
true,7,1,2,1,true,z,false,true,0.0-2.0-0.13-0.117-3.117,1,1,0,90,false,stim,false,1,717.2000000476837,2,1,1,48534,task3,482392,false,false,430,image-keyboard-response,2
true,7,2,2,1,false,z,true,false,0.0-2.0-0.13-0.118-3.118,1,1,0,68,false,stim,false,0,618.3000001907349,2,0,2,48534,task3,484541,false,false,433,image-keyboard-response,3
true,7,0,2,0,true,q,false,true,0.0-2.0-0.13-0.119-3.119,1,1,0,81,false,stim,false,0,425.0,2,1,0,48534,task3,486488,false,false,436,image-keyboard-response,4
true,7,1,2,1,true,z,false,true,0.0-2.0-0.13-0.120-3.120,1,1,0,90,false,stim,false,0,627.4000000953674,2,0,2,48534,task3,488646,false,false,439,image-keyboard-response,5
true,7,0,2,0,true,q,false,false,0.0-2.0-0.13-0.121-3.121,1,1,0,81,false,stim,false,0,628.3000001907349,2,1,0,48534,task3,490803,false,true,442,image-keyboard-response,6
true,7,1,2,1,true,z,false,true,0.0-2.0-0.13-0.122-3.122,1,1,0,90,false,stim,false,0,532.0,2,0,2,48534,task3,492863,false,false,445,image-keyboard-response,7
true,7,1,2,0,false,q,true,false,0.0-2.0-0.13-0.123-3.123,1,1,0,90,false,stim,false,0,945.8999998569489,2,1,0,48534,task3,495338,false,false,448,image-keyboard-response,8
true,7,1,2,1,true,z,false,true,0.0-2.0-0.13-0.124-3.124,1,1,0,90,false,stim,false,1,715.6000001430511,2,0,1,48534,task3,497576,false,false,451,image-keyboard-response,9
true,7,1,2,1,true,z,false,true,0.0-2.0-0.13-0.125-3.125,1,1,0,90,false,stim,false,1,624.5,2,0,1,48534,task3,499732,false,false,454,image-keyboard-response,10
true,7,2,2,0,false,q,true,true,0.0-2.0-0.14-0.126-3.126,1,1,0,68,false,stim,false,0,656.2999999523163,2,1,0,48534,task3,501914,false,true,457,image-keyboard-response,11
true,7,2,2,0,false,q,true,false,0.0-2.0-0.14-0.127-3.127,1,1,0,68,false,stim,false,0,433.0,2,1,0,48534,task3,503875,false,false,460,image-keyboard-response,12
true,8,1,2,2,false,d,false,false,0.0-2.0-0.14-0.128-3.128,1,0,1,90,true,stim,true,1,776.0,2,0,1,48534,task3,506170,false,false,463,image-keyboard-response,1
true,8,0,2,2,false,d,true,false,0.0-2.0-0.14-0.129-3.129,1,0,1,81,false,stim,false,1,916.4000000953674,2,0,1,48534,task3,508621,false,false,466,image-keyboard-response,2
true,8,1,2,1,true,z,false,true,0.0-2.0-0.14-0.130-3.130,1,0,1,90,false,stim,false,1,1538.7000000476837,2,1,2,48534,task3,511680,false,false,469,image-keyboard-response,3
true,8,2,2,2,true,d,false,false,0.0-2.0-0.14-0.131-3.131,1,0,1,68,false,stim,false,1,597.1000001430511,2,0,1,48534,task3,513786,false,true,472,image-keyboard-response,4
true,8,1,2,1,true,z,false,true,0.0-2.0-0.14-0.132-3.132,1,0,1,90,false,stim,false,1,760.6000001430511,2,1,2,48534,task3,516076,false,false,475,image-keyboard-response,5
true,8,0,2,0,true,q,false,false,0.0-2.0-0.14-0.133-3.133,1,0,1,81,false,stim,false,0,1093.0999999046326,2,1,0,48534,task3,518703,false,true,478,image-keyboard-response,6
true,8,1,2,1,true,z,false,false,0.0-2.0-0.14-0.134-3.134,1,0,1,90,false,stim,false,1,1566.7999999523163,2,1,2,48534,task3,521805,false,true,481,image-keyboard-response,7
true,8,2,2,1,false,z,true,false,0.0-2.0-0.15-0.135-3.135,1,0,1,68,false,stim,false,1,893.2999999523163,2,1,2,48534,task3,524231,false,false,484,image-keyboard-response,8
true,8,0,2,1,false,z,true,false,0.0-2.0-0.15-0.136-3.136,1,0,1,81,false,stim,false,1,473.10000014305115,2,1,2,48534,task3,526229,false,false,487,image-keyboard-response,9
true,8,0,2,0,true,q,false,true,0.0-2.0-0.15-0.137-3.137,1,0,1,81,false,stim,false,0,1069.0,2,1,0,48534,task3,528823,false,false,490,image-keyboard-response,10
true,8,0,2,0,true,q,false,true,0.0-2.0-0.15-0.138-3.138,1,0,1,81,false,stim,false,0,467.5,2,1,0,48534,task3,530816,false,false,493,image-keyboard-response,11
true,8,0,2,2,false,d,true,false,0.0-2.0-0.15-0.139-3.139,1,0,1,81,false,stim,false,1,1016.7999999523163,2,0,1,48534,task3,533363,false,false,496,image-keyboard-response,12
true,8,1,2,2,false,d,false,false,0.0-2.0-0.15-0.140-3.140,1,0,1,90,false,stim,true,1,413.09999990463257,2,0,1,48534,task3,535306,false,false,499,image-keyboard-response,13
true,8,0,2,0,true,q,false,true,0.0-2.0-0.15-0.141-3.141,1,0,1,81,false,stim,false,0,550.5,2,1,0,48534,task3,537385,false,false,502,image-keyboard-response,14
true,8,2,2,1,false,z,true,false,0.0-2.0-0.15-0.142-3.142,1,0,1,68,false,stim,false,1,1148.7999999523163,2,1,2,48534,task3,540062,false,false,505,image-keyboard-response,15
true,8,2,2,2,true,d,false,true,0.0-2.0-0.15-0.143-3.143,1,0,1,68,false,stim,false,1,1375.3999998569489,2,0,1,48534,task3,542969,false,false,508,image-keyboard-response,16
true,8,0,2,1,false,z,true,false,0.0-2.0-0.16-0.144-3.144,1,0,1,81,false,stim,false,1,1407.9000000953674,2,1,2,48534,task3,545905,false,false,511,image-keyboard-response,17
true,8,1,2,1,true,z,false,true,0.0-2.0-0.16-0.145-3.145,1,0,1,90,false,stim,false,1,566.1000001430511,2,1,2,48534,task3,547992,false,false,514,image-keyboard-response,18
true,8,0,2,0,true,q,false,true,0.0-2.0-0.16-0.146-3.146,1,0,1,81,false,stim,false,0,684.0,2,1,0,48534,task3,550202,false,false,517,image-keyboard-response,19
true,8,2,2,2,true,d,false,true,0.0-2.0-0.16-0.147-3.147,1,0,1,68,false,stim,false,1,435.5,2,0,1,48534,task3,552157,false,false,520,image-keyboard-response,20
true,8,2,2,2,true,d,false,false,0.0-2.0-0.16-0.148-3.148,1,0,1,68,false,stim,false,1,645.0999999046326,2,0,1,48534,task3,554336,false,true,523,image-keyboard-response,21
true,8,0,2,0,true,q,false,true,0.0-2.0-0.16-0.149-3.149,1,0,1,81,false,stim,false,0,606.4000000953674,2,0,0,48534,task3,556466,false,false,526,image-keyboard-response,22
true,8,1,2,2,false,d,false,false,0.0-2.0-0.16-0.150-3.150,1,0,1,90,false,stim,true,1,1376.5999999046326,2,0,1,48534,task3,559364,false,false,529,image-keyboard-response,23
true,8,0,2,0,true,q,false,true,0.0-2.0-0.16-0.151-3.151,1,0,1,81,false,stim,false,0,1873.4000000953674,2,0,0,48534,task3,562764,false,false,532,image-keyboard-response,24
true,9,0,1,1,false,z,true,false,0.0-2.0-0.16-0.152-3.152,0,0,1,81,true,stim,false,1,1434.3999998569489,2,1,2,48534,task3,565727,false,false,535,image-keyboard-response,1
true,9,1,1,1,true,z,false,true,0.0-2.0-0.17-0.153-3.153,0,0,1,90,false,stim,false,1,667.0,2,1,2,48534,task3,567929,false,false,538,image-keyboard-response,2
true,9,1,1,1,true,z,false,true,0.0-2.0-0.17-0.154-3.154,0,0,1,90,false,stim,false,1,497.7999999523163,2,1,2,48534,task3,569958,false,false,541,image-keyboard-response,3
true,9,0,1,2,false,d,false,false,0.0-2.0-0.17-0.155-3.155,0,0,1,81,false,stim,true,0,650.2000000476837,2,0,0,48534,task3,572141,false,false,544,image-keyboard-response,4
true,9,1,1,1,true,z,false,true,0.0-2.0-0.17-0.156-3.156,0,0,1,90,false,stim,false,1,694.4000000953674,2,1,2,48534,task3,574360,false,false,547,image-keyboard-response,5
true,9,1,1,2,false,d,true,false,0.0-2.0-0.17-0.157-3.157,0,0,1,90,false,stim,false,0,1066.5999999046326,2,0,0,48534,task3,576952,false,false,550,image-keyboard-response,6
true,9,2,1,2,true,d,false,true,0.0-2.0-0.17-0.158-3.158,0,0,1,68,false,stim,false,0,1126.1000001430511,2,0,0,48534,task3,579604,false,false,553,image-keyboard-response,7
true,9,0,1,1,false,z,true,false,0.0-2.0-0.17-0.159-3.159,0,0,1,81,false,stim,false,2,1121.8999998569489,2,0,1,48534,task3,582252,false,false,556,image-keyboard-response,8
true,9,1,1,1,true,z,false,true,0.0-2.0-0.17-0.160-3.160,0,0,1,90,false,stim,false,2,532.4000000953674,2,0,1,48534,task3,584314,false,false,559,image-keyboard-response,9
true,9,1,1,1,true,z,false,true,0.0-2.0-0.17-0.161-3.161,0,0,1,90,false,stim,false,2,513.0,2,0,1,48534,task3,586354,false,false,562,image-keyboard-response,10
true,9,1,1,1,true,z,false,true,0.0-2.0-0.18-0.162-3.162,0,0,1,90,false,stim,false,2,1596.2999999523163,2,0,1,48534,task3,589485,false,false,565,image-keyboard-response,11
false,9,-1,1,1,false,z,true,false,0.0-2.0-0.18-0.163-3.163,0,0,1,,false,stim,false,2,,2,0,1,48534,task3,594023,false,false,568,image-keyboard-response,12
true,9,1,1,1,true,z,false,true,0.0-2.0-0.18-0.164-3.164,0,0,1,90,false,stim,false,1,874.5,2,1,2,48534,task3,596433,false,false,571,image-keyboard-response,13
true,9,1,1,1,true,z,false,true,0.0-2.0-0.18-0.165-3.165,0,0,1,90,false,stim,false,1,422.10000014305115,2,1,2,48534,task3,598387,false,false,574,image-keyboard-response,14
true,9,1,1,1,true,z,false,true,0.0-2.0-0.18-0.166-3.166,0,0,1,90,false,stim,false,2,1120.1000001430511,2,0,1,48534,task3,601035,false,false,577,image-keyboard-response,15
true,9,0,1,2,false,d,false,false,0.0-2.0-0.18-0.167-3.167,0,0,1,81,false,stim,true,0,852.5999999046326,2,0,0,48534,task3,603407,false,false,580,image-keyboard-response,16
true,9,2,1,2,true,d,false,true,0.0-2.0-0.18-0.168-3.168,0,0,1,68,false,stim,false,0,493.90000009536743,2,0,0,48534,task3,605435,false,false,583,image-keyboard-response,17
true,9,2,1,2,true,d,false,true,0.0-2.0-0.18-0.169-3.169,0,0,1,68,false,stim,false,0,472.69999980926514,2,0,0,48534,task3,607419,false,false,586,image-keyboard-response,18
true,9,1,1,1,true,z,false,true,0.0-2.0-0.18-0.170-3.170,0,0,1,90,false,stim,false,1,805.5999999046326,2,1,2,48534,task3,609749,false,false,589,image-keyboard-response,19
true,9,1,1,1,true,z,false,true,0.0-2.0-0.19-0.171-3.171,0,0,1,90,false,stim,false,1,529.9000000953674,2,1,2,48534,task3,611794,false,false,592,image-keyboard-response,20
true,9,2,1,2,true,d,false,true,0.0-2.0-0.19-0.172-3.172,0,0,1,68,false,stim,false,0,528.3999998569489,2,0,0,48534,task3,613839,false,false,595,image-keyboard-response,21
true,9,1,1,1,true,z,false,true,0.0-2.0-0.19-0.173-3.173,0,0,1,90,false,stim,false,2,480.5,2,1,1,48534,task3,615839,false,false,598,image-keyboard-response,22
true,9,1,1,1,true,z,false,true,0.0-2.0-0.19-0.174-3.174,0,0,1,90,false,stim,false,1,776.6000001430511,2,0,2,48534,task3,618156,false,false,601,image-keyboard-response,23
true,9,1,1,1,true,z,false,true,0.0-2.0-0.19-0.175-3.175,0,0,1,90,false,stim,false,2,734.1000001430511,2,1,1,48534,task3,620417,false,false,604,image-keyboard-response,24
true,9,1,1,1,true,z,false,true,0.0-2.0-0.19-0.176-3.176,0,0,1,90,false,stim,false,1,1096.6000001430511,2,0,2,48534,task3,623044,false,false,607,image-keyboard-response,25
true,9,2,1,2,true,d,false,false,0.0-2.0-0.19-0.177-3.177,0,0,1,68,false,stim,false,0,783.0999999046326,2,0,0,48534,task3,625354,false,true,610,image-keyboard-response,26
true,10,1,1,1,true,z,false,true,0.0-2.0-0.19-0.178-3.178,0,1,0,90,true,stim,false,1,1069.2000000476837,2,1,1,48534,task3,627954,false,false,613,image-keyboard-response,1
true,10,2,1,1,false,z,false,false,0.0-2.0-0.19-0.179-3.179,0,1,0,68,false,stim,true,2,2100.699999809265,2,0,0,48534,task3,631576,false,false,616,image-keyboard-response,2
true,10,1,1,2,false,d,false,false,0.0-2.0-0.20-0.180-3.180,0,1,0,90,false,stim,true,1,505.40000009536743,2,0,2,48534,task3,633600,false,false,619,image-keyboard-response,3
true,10,0,1,1,false,z,true,true,0.0-2.0-0.20-0.181-3.181,0,1,0,81,false,stim,false,2,664.4000000953674,2,0,0,48534,task3,635788,false,true,622,image-keyboard-response,4
true,10,1,1,1,true,z,false,true,0.0-2.0-0.20-0.182-3.182,0,1,0,90,false,stim,false,1,553.5,2,1,1,48534,task3,637865,false,false,625,image-keyboard-response,5
true,10,0,1,1,false,z,true,false,0.0-2.0-0.20-0.183-3.183,0,1,0,81,false,stim,false,2,674.0999999046326,2,0,0,48534,task3,640060,false,false,628,image-keyboard-response,6
true,10,0,1,1,false,z,true,false,0.0-2.0-0.20-0.184-3.184,0,1,0,81,false,stim,false,2,1887.7999999523163,2,0,0,48534,task3,643475,false,false,631,image-keyboard-response,7
true,10,1,1,2,false,d,false,false,0.0-2.0-0.20-0.185-3.185,0,1,0,90,false,stim,true,1,1275.0,2,0,2,48534,task3,646281,false,false,634,image-keyboard-response,8
true,10,1,1,1,true,z,false,true,0.0-2.0-0.20-0.186-3.186,0,1,0,90,false,stim,false,1,806.5999999046326,2,1,1,48534,task3,648619,false,false,637,image-keyboard-response,9
true,10,1,1,1,true,z,false,true,0.0-2.0-0.20-0.187-3.187,0,1,0,90,false,stim,false,1,601.5,2,1,1,48534,task3,650755,false,false,640,image-keyboard-response,10
true,10,2,1,2,true,d,false,true,0.0-2.0-0.20-0.188-3.188,0,1,0,68,false,stim,false,1,1008.9000000953674,2,0,2,48534,task3,653286,false,false,643,image-keyboard-response,11
true,10,0,1,1,false,z,true,false,0.0-2.0-0.21-0.189-3.189,0,1,0,81,false,stim,false,2,674.6000001430511,2,0,0,48534,task3,655481,false,false,646,image-keyboard-response,12
true,10,1,1,1,true,z,false,true,0.0-2.0-0.21-0.190-3.190,0,1,0,90,false,stim,false,1,1543.7000000476837,2,1,1,48534,task3,658550,false,false,649,image-keyboard-response,13
true,10,1,1,1,true,z,false,true,0.0-2.0-0.21-0.191-3.191,0,1,0,90,false,stim,false,1,1015.7999999523163,2,1,1,48534,task3,661086,false,false,652,image-keyboard-response,14
true,10,1,1,1,true,z,false,true,0.0-2.0-0.21-0.192-3.192,0,1,0,90,false,stim,false,2,679.3999998569489,2,0,0,48534,task3,663299,false,false,655,image-keyboard-response,15
true,10,1,1,1,true,z,false,true,0.0-2.0-0.21-0.193-3.193,0,1,0,90,false,stim,false,1,777.7999999523163,2,1,1,48534,task3,665602,false,false,658,image-keyboard-response,16
true,10,2,1,2,true,d,false,true,0.0-2.0-0.21-0.194-3.194,0,1,0,68,false,stim,false,1,628.2999999523163,2,0,2,48534,task3,667763,false,false,661,image-keyboard-response,17
true,10,2,1,2,true,d,false,true,0.0-2.0-0.21-0.195-3.195,0,1,0,68,false,stim,false,1,441.0,2,0,2,48534,task3,669735,false,false,664,image-keyboard-response,18
true,10,1,1,1,true,z,false,true,0.0-2.0-0.21-0.196-3.196,0,1,0,90,false,stim,false,2,564.6000001430511,2,1,0,48534,task3,671828,false,false,667,image-keyboard-response,19
true,10,2,1,2,true,d,false,true,0.0-2.0-0.21-0.197-3.197,0,1,0,68,false,stim,false,1,548.0999999046326,2,0,2,48534,task3,673897,false,false,670,image-keyboard-response,20
true,10,1,1,1,true,z,false,true,0.0-2.0-0.22-0.198-3.198,0,1,0,90,false,stim,false,2,440.90000009536743,2,1,0,48534,task3,675868,false,false,673,image-keyboard-response,21
true,10,1,1,1,true,z,false,true,0.0-2.0-0.22-0.199-3.199,0,1,0,90,false,stim,false,2,512.8000001907349,2,1,0,48534,task3,677907,false,false,676,image-keyboard-response,22
true,10,1,1,1,true,z,false,false,0.0-2.0-0.22-0.200-3.200,0,1,0,90,false,stim,false,1,420.7000000476837,2,0,1,48534,task3,679858,false,true,679,image-keyboard-response,23
true,11,0,1,2,false,d,true,false,0.0-2.0-0.22-0.201-3.201,1,0,0,81,true,stim,false,1,1034.7999999523163,2,0,1,48534,task3,682426,false,false,682,image-keyboard-response,1
true,11,2,1,0,false,q,false,false,0.0-2.0-0.22-0.202-3.202,1,0,0,68,false,stim,true,2,447.80000019073486,2,0,2,48534,task3,684399,false,false,685,image-keyboard-response,2
true,11,1,1,0,false,q,true,false,0.0-2.0-0.22-0.203-3.203,1,0,0,90,false,stim,false,2,966.9000000953674,2,0,2,48534,task3,686887,false,false,688,image-keyboard-response,3
true,11,2,1,1,false,z,true,false,0.0-2.0-0.22-0.204-3.204,1,0,0,68,false,stim,false,1,1572.0,2,1,0,48534,task3,689989,false,false,691,image-keyboard-response,4
true,11,0,1,2,false,d,true,false,0.0-2.0-0.22-0.205-3.205,1,0,0,81,false,stim,false,1,893.1000001430511,2,0,1,48534,task3,692417,false,false,694,image-keyboard-response,5
true,11,2,1,0,false,q,false,false,0.0-2.0-0.22-0.206-3.206,1,0,0,68,false,stim,true,2,1062.7999999523163,2,0,2,48534,task3,695010,false,false,697,image-keyboard-response,6
true,11,1,1,2,false,d,false,false,0.0-2.0-0.23-0.207-3.207,1,0,0,90,false,stim,true,1,868.2000000476837,2,0,1,48534,task3,697406,false,false,700,image-keyboard-response,7
true,11,0,1,0,true,q,false,true,0.0-2.0-0.23-0.208-3.208,1,0,0,81,false,stim,false,2,1288.5,2,0,2,48534,task3,700229,false,false,703,image-keyboard-response,8
true,11,1,1,1,true,z,false,false,0.0-2.0-0.23-0.209-3.209,1,0,0,90,false,stim,false,1,548.5,2,1,0,48534,task3,702296,false,true,706,image-keyboard-response,9
true,11,2,1,1,false,z,true,false,0.0-2.0-0.23-0.210-3.210,1,0,0,68,false,stim,false,1,431.7999999523163,2,1,0,48534,task3,704244,false,false,709,image-keyboard-response,10
true,11,0,1,0,true,q,false,true,0.0-2.0-0.23-0.211-3.211,1,0,0,81,false,stim,false,2,503.09999990463257,2,0,2,48534,task3,706268,false,false,712,image-keyboard-response,11
true,11,0,1,1,false,z,true,false,0.0-2.0-0.23-0.212-3.212,1,0,0,81,false,stim,false,1,361.90000009536743,2,1,0,48534,task3,708158,false,false,715,image-keyboard-response,12
true,11,0,1,2,false,d,true,false,0.0-2.0-0.23-0.213-3.213,1,0,0,81,false,stim,false,1,1456.3000001907349,2,0,1,48534,task3,711141,false,false,718,image-keyboard-response,13
true,11,0,1,0,true,q,false,true,0.0-2.0-0.23-0.214-3.214,1,0,0,81,false,stim,false,2,947.2000000476837,2,0,2,48534,task3,713619,false,false,721,image-keyboard-response,14
true,11,1,1,2,false,d,false,false,0.0-2.0-0.23-0.215-3.215,1,0,0,90,false,stim,true,1,668.0,2,0,1,48534,task3,715818,false,false,724,image-keyboard-response,15
true,11,2,1,1,false,z,true,false,0.0-2.0-0.24-0.216-3.216,1,0,0,68,false,stim,false,1,1023.4000000953674,2,1,0,48534,task3,718372,false,false,727,image-keyboard-response,16
true,11,0,1,0,true,q,false,true,0.0-2.0-0.24-0.217-3.217,1,0,0,81,false,stim,false,2,1421.7000000476837,2,0,2,48534,task3,721323,false,false,730,image-keyboard-response,17
true,11,2,1,2,true,d,false,true,0.0-2.0-0.24-0.218-3.218,1,0,0,68,false,stim,false,1,1403.0,2,0,1,48534,task3,724257,false,false,733,image-keyboard-response,18
true,11,1,1,1,true,z,false,true,0.0-2.0-0.24-0.219-3.219,1,0,0,90,false,stim,false,1,1247.9000000953674,2,1,0,48534,task3,727036,false,false,736,image-keyboard-response,19
true,11,0,1,0,true,q,false,false,0.0-2.0-0.24-0.220-3.220,1,0,0,81,false,stim,false,2,930.0,2,0,2,48534,task3,729494,false,true,739,image-keyboard-response,20
true,11,2,1,2,true,d,false,true,0.0-2.0-0.24-0.221-3.221,1,0,0,68,false,stim,false,1,862.7999999523163,2,0,1,48534,task3,731876,false,false,742,image-keyboard-response,21
true,11,2,1,2,true,d,false,true,0.0-2.0-0.24-0.222-3.222,1,0,0,68,false,stim,false,1,671.7999999523163,2,1,1,48534,task3,734073,false,false,745,image-keyboard-response,22
true,11,1,1,1,true,z,false,true,0.0-2.0-0.24-0.223-3.223,1,0,0,90,false,stim,false,1,409.69999980926514,2,1,0,48534,task3,736001,false,false,748,image-keyboard-response,23
true,11,1,1,0,false,q,true,true,0.0-2.0-0.24-0.224-3.224,1,0,0,90,false,stim,false,2,894.6000001430511,2,0,2,48534,task3,738422,false,true,751,image-keyboard-response,24
true,11,1,1,0,false,q,true,false,0.0-2.0-0.25-0.225-3.225,1,0,0,90,false,stim,false,2,495.2000000476837,2,0,2,48534,task3,740444,false,false,754,image-keyboard-response,25
true,11,2,1,2,true,d,false,true,0.0-2.0-0.25-0.226-3.226,1,0,0,68,false,stim,false,1,1470.3999998569489,2,1,1,48534,task3,743445,false,false,757,image-keyboard-response,26
true,12,2,2,2,true,d,false,false,0.0-2.0-0.25-0.227-3.227,1,1,0,68,true,stim,false,2,639.9000000953674,2,1,1,48534,task3,745605,false,true,760,image-keyboard-response,1
true,12,0,2,2,false,d,false,false,0.0-2.0-0.25-0.228-3.228,1,1,0,81,false,stim,true,0,1320.5,2,0,2,48534,task3,748457,false,false,763,image-keyboard-response,2
true,12,0,2,1,false,z,true,false,0.0-2.0-0.25-0.229-3.229,1,1,0,81,false,stim,false,1,1339.0,2,1,0,48534,task3,751316,false,false,766,image-keyboard-response,3
true,12,2,2,2,true,d,false,true,0.0-2.0-0.25-0.230-3.230,1,1,0,68,false,stim,false,2,2053.5999999046326,2,1,1,48534,task3,754893,false,false,769,image-keyboard-response,4
true,12,1,2,1,true,z,false,true,0.0-2.0-0.25-0.231-3.231,1,1,0,90,false,stim,false,1,1221.3000001907349,2,1,0,48534,task3,757643,false,false,772,image-keyboard-response,5
true,12,1,2,1,true,z,false,true,0.0-2.0-0.25-0.232-3.232,1,1,0,90,false,stim,false,1,395.7000000476837,2,1,0,48534,task3,759563,false,false,775,image-keyboard-response,6
true,12,2,2,2,true,d,false,true,0.0-2.0-0.25-0.233-3.233,1,1,0,68,false,stim,false,0,2289.100000143051,2,0,2,48534,task3,763375,false,false,778,image-keyboard-response,7
true,12,2,2,2,true,d,false,true,0.0-2.0-0.26-0.234-3.234,1,1,0,68,false,stim,false,0,485.09999990463257,2,0,2,48534,task3,765386,false,false,781,image-keyboard-response,8
true,12,1,2,1,true,z,false,true,0.0-2.0-0.26-0.235-3.235,1,1,0,90,false,stim,false,1,628.0999999046326,2,1,0,48534,task3,767533,false,false,784,image-keyboard-response,9
true,12,2,2,2,true,d,false,true,0.0-2.0-0.26-0.236-3.236,1,1,0,68,false,stim,false,2,515.5,2,1,1,48534,task3,769578,false,false,787,image-keyboard-response,10
true,12,2,2,2,true,d,false,true,0.0-2.0-0.26-0.237-3.237,1,1,0,68,false,stim,false,2,484.90000009536743,2,1,1,48534,task3,771589,false,false,790,image-keyboard-response,11
true,12,1,2,1,true,z,false,true,0.0-2.0-0.26-0.238-3.238,1,1,0,90,false,stim,false,1,631.4000000953674,2,1,0,48534,task3,773745,false,false,793,image-keyboard-response,12
true,12,1,2,1,true,z,false,true,0.0-2.0-0.26-0.239-3.239,1,1,0,90,false,stim,false,1,915.2000000476837,2,1,0,48534,task3,776184,false,false,796,image-keyboard-response,13
true,12,2,2,2,true,d,false,true,0.0-2.0-0.26-0.240-3.240,1,1,0,68,false,stim,false,0,740.1000001430511,2,0,2,48534,task3,778447,false,false,799,image-keyboard-response,14
true,12,2,2,2,true,d,false,false,0.0-2.0-0.26-0.241-3.241,1,1,0,68,false,stim,false,0,452.2999999523163,2,0,2,48534,task3,780425,false,true,802,image-keyboard-response,15
true,12,2,2,2,true,d,false,true,0.0-2.0-0.26-0.242-3.242,1,1,0,68,false,stim,false,2,668.6000001430511,2,1,1,48534,task3,782620,false,false,805,image-keyboard-response,16
true,12,0,2,2,false,d,false,false,0.0-2.0-0.27-0.243-3.243,1,1,0,81,false,stim,true,0,989.2999999523163,2,0,2,48534,task3,785142,false,false,808,image-keyboard-response,17
true,12,2,2,2,true,d,false,true,0.0-2.0-0.27-0.244-3.244,1,1,0,68,false,stim,false,2,645.8999998569489,2,1,1,48534,task3,787301,false,false,811,image-keyboard-response,18
true,12,1,2,1,true,z,false,true,0.0-2.0-0.27-0.245-3.245,1,1,0,90,false,stim,false,1,583.7999999523163,2,0,0,48534,task3,789412,false,false,814,image-keyboard-response,19
true,12,2,2,2,true,d,false,true,0.0-2.0-0.27-0.246-3.246,1,1,0,68,false,stim,false,2,398.0,2,1,1,48534,task3,791336,false,false,817,image-keyboard-response,20
true,12,1,2,1,true,z,false,false,0.0-2.0-0.27-0.247-3.247,1,1,0,90,false,stim,false,1,443.69999980926514,2,0,0,48534,task3,793302,false,true,820,image-keyboard-response,21
true,12,0,2,2,false,d,false,false,0.0-2.0-0.27-0.248-3.248,1,1,0,81,false,stim,true,0,800.3999998569489,2,0,2,48534,task3,795632,false,false,823,image-keyboard-response,22
true,12,1,2,2,false,d,true,true,0.0-2.0-0.27-0.249-3.249,1,1,0,90,false,stim,false,0,457.2000000476837,2,0,2,48534,task3,797616,false,true,826,image-keyboard-response,23
true,13,1,1,2,false,d,false,false,0.0-2.0-0.27-0.250-3.250,0,1,0,90,true,stim,true,1,1334.5,2,0,0,48534,task3,800473,false,false,829,image-keyboard-response,1
true,13,0,1,2,false,d,true,false,0.0-2.0-0.27-0.251-3.251,0,1,0,81,false,stim,false,2,1108.7999999523163,2,1,1,48534,task3,803110,false,false,832,image-keyboard-response,2
true,13,0,1,2,false,d,true,false,0.0-2.0-0.28-0.252-3.252,0,1,0,81,false,stim,false,1,1485.2000000476837,2,0,0,48534,task3,806120,false,false,835,image-keyboard-response,3
true,13,1,1,1,true,z,false,true,0.0-2.0-0.28-0.253-3.253,0,1,0,90,false,stim,false,2,1449.7000000476837,2,0,2,48534,task3,809098,false,false,838,image-keyboard-response,4
true,13,1,1,1,true,z,false,true,0.0-2.0-0.28-0.254-3.254,0,1,0,90,false,stim,false,2,686.0,2,0,2,48534,task3,811311,false,false,841,image-keyboard-response,5
true,13,2,1,2,true,d,false,true,0.0-2.0-0.28-0.255-3.255,0,1,0,68,false,stim,false,1,730.7999999523163,2,0,0,48534,task3,813575,false,false,844,image-keyboard-response,6
true,13,2,1,2,true,d,false,true,0.0-2.0-0.28-0.256-3.256,0,1,0,68,false,stim,false,2,779.7000000476837,2,1,1,48534,task3,815877,false,false,847,image-keyboard-response,7
true,13,1,1,1,true,z,false,false,0.0-2.0-0.28-0.257-3.257,0,1,0,90,false,stim,false,2,432.2000000476837,2,0,2,48534,task3,817841,false,true,850,image-keyboard-response,8
true,13,2,1,2,true,d,false,true,0.0-2.0-0.28-0.258-3.258,0,1,0,68,false,stim,false,2,611.0,2,1,1,48534,task3,819971,false,false,853,image-keyboard-response,9
true,13,2,1,2,true,d,false,true,0.0-2.0-0.28-0.259-3.259,0,1,0,68,false,stim,false,1,328.2999999523163,2,0,0,48534,task3,821825,false,false,856,image-keyboard-response,10
true,13,2,1,2,true,d,false,true,0.0-2.0-0.28-0.260-3.260,0,1,0,68,false,stim,false,2,586.8999998569489,2,1,1,48534,task3,823942,false,false,859,image-keyboard-response,11
true,13,0,1,1,false,z,true,false,0.0-2.0-0.29-0.261-3.261,0,1,0,81,false,stim,false,2,893.7000000476837,2,0,2,48534,task3,826353,false,false,862,image-keyboard-response,12
true,13,2,1,2,true,d,false,true,0.0-2.0-0.29-0.262-3.262,0,1,0,68,false,stim,false,2,435.7999999523163,2,1,1,48534,task3,828312,false,false,865,image-keyboard-response,13
true,13,2,1,2,true,d,false,true,0.0-2.0-0.29-0.263-3.263,0,1,0,68,false,stim,false,1,275.90000009536743,2,0,0,48534,task3,830117,false,false,868,image-keyboard-response,14
true,13,1,1,1,true,z,false,true,0.0-2.0-0.29-0.264-3.264,0,1,0,90,false,stim,false,2,649.2999999523163,2,0,2,48534,task3,832292,false,false,871,image-keyboard-response,15
true,13,2,1,2,true,d,false,false,0.0-2.0-0.29-0.265-3.265,0,1,0,68,false,stim,false,1,492.2000000476837,2,0,0,48534,task3,834305,false,true,874,image-keyboard-response,16
true,13,0,1,2,false,d,true,false,0.0-2.0-0.29-0.266-3.266,0,1,0,81,false,stim,false,1,526.8999998569489,2,0,0,48534,task3,836364,false,false,877,image-keyboard-response,17
true,13,2,1,2,true,d,false,true,0.0-2.0-0.29-0.267-3.267,0,1,0,68,false,stim,false,2,450.40000009536743,2,1,1,48534,task3,838336,false,false,880,image-keyboard-response,18
true,13,2,1,2,true,d,false,true,0.0-2.0-0.29-0.268-3.268,0,1,0,68,false,stim,false,2,492.2000000476837,2,1,1,48534,task3,840362,false,false,883,image-keyboard-response,19
true,13,1,1,1,true,z,false,true,0.0-2.0-0.29-0.269-3.269,0,1,0,90,false,stim,false,2,435.5,2,0,2,48534,task3,842317,false,false,886,image-keyboard-response,20
true,13,1,1,1,true,z,false,true,0.0-2.0-0.30-0.270-3.270,0,1,0,90,false,stim,false,2,371.40000009536743,2,0,2,48534,task3,844216,false,false,889,image-keyboard-response,21
true,13,1,1,1,true,z,false,true,0.0-2.0-0.30-0.271-3.271,0,1,0,90,false,stim,false,2,461.2000000476837,2,0,2,48534,task3,846198,false,false,892,image-keyboard-response,22
true,13,1,1,2,false,d,false,false,0.0-2.0-0.30-0.272-3.272,0,1,0,90,false,stim,true,1,1280.5,2,1,0,48534,task3,848999,false,false,895,image-keyboard-response,23
true,13,2,1,2,true,d,false,true,0.0-2.0-0.30-0.273-3.273,0,1,0,68,false,stim,false,2,967.4000000953674,2,0,1,48534,task3,851497,false,false,898,image-keyboard-response,24
true,13,1,1,1,true,z,false,true,0.0-2.0-0.30-0.274-3.274,0,1,0,90,false,stim,false,2,1225.2999999523163,2,0,2,48534,task3,854260,false,false,901,image-keyboard-response,25
true,13,2,1,2,true,d,false,true,0.0-2.0-0.30-0.275-3.275,0,1,0,68,false,stim,false,1,727.0999999046326,2,1,0,48534,task3,856513,false,false,904,image-keyboard-response,26
true,14,2,1,0,false,q,false,false,0.0-2.0-0.30-0.276-3.276,1,0,0,68,true,stim,true,2,360.7000000476837,2,0,1,48534,task3,858400,false,false,907,image-keyboard-response,1
true,14,2,1,2,true,d,false,true,0.0-2.0-0.30-0.277-3.277,1,0,0,68,false,stim,false,2,1306.5,2,1,0,48534,task3,861232,false,false,910,image-keyboard-response,2
true,14,0,1,0,true,q,false,true,0.0-2.0-0.30-0.278-3.278,1,0,0,81,false,stim,false,2,432.90000009536743,2,0,1,48534,task3,863190,false,false,913,image-keyboard-response,3
true,14,0,1,0,true,q,false,true,0.0-2.0-0.31-0.279-3.279,1,0,0,81,false,stim,false,2,497.59999990463257,2,0,1,48534,task3,865208,false,false,916,image-keyboard-response,4
true,14,2,1,2,true,d,false,true,0.0-2.0-0.31-0.280-3.280,1,0,0,68,false,stim,false,2,656.6999998092651,2,1,0,48534,task3,867397,false,false,919,image-keyboard-response,5
true,14,0,1,0,true,q,false,true,0.0-2.0-0.31-0.281-3.281,1,0,0,81,false,stim,false,2,386.80000019073486,2,0,1,48534,task3,869313,false,false,922,image-keyboard-response,6
true,14,1,1,2,false,d,false,false,0.0-2.0-0.31-0.282-3.282,1,0,0,90,false,stim,true,1,559.1000001430511,2,0,2,48534,task3,871407,false,false,925,image-keyboard-response,7
true,14,0,1,2,false,d,true,false,0.0-2.0-0.31-0.283-3.283,1,0,0,81,false,stim,false,1,521.3000001907349,2,0,2,48534,task3,873460,false,false,928,image-keyboard-response,8
true,14,2,1,2,true,d,false,true,0.0-2.0-0.31-0.284-3.284,1,0,0,68,false,stim,false,2,790.2999999523163,2,1,0,48534,task3,875777,false,false,931,image-keyboard-response,9
true,14,0,1,0,true,q,false,true,0.0-2.0-0.31-0.285-3.285,1,0,0,81,false,stim,false,2,1269.6999998092651,2,0,1,48534,task3,878570,false,false,934,image-keyboard-response,10
true,14,2,1,2,true,d,false,true,0.0-2.0-0.31-0.286-3.286,1,0,0,68,false,stim,false,1,811.0,2,0,2,48534,task3,880907,false,false,937,image-keyboard-response,11
true,14,2,1,2,true,d,false,false,0.0-2.0-0.31-0.287-3.287,1,0,0,68,false,stim,false,2,389.2999999523163,2,1,0,48534,task3,882823,false,true,940,image-keyboard-response,12
true,14,1,1,2,false,d,true,false,0.0-2.0-0.32-0.288-3.288,1,0,0,90,false,stim,false,2,840.2000000476837,2,1,0,48534,task3,885196,false,false,943,image-keyboard-response,13
true,14,0,1,2,false,d,true,true,0.0-2.0-0.32-0.289-3.289,1,0,0,81,false,stim,false,1,737.7999999523163,2,0,2,48534,task3,887457,false,true,946,image-keyboard-response,14
true,14,0,1,2,false,d,true,false,0.0-2.0-0.32-0.290-3.290,1,0,0,81,false,stim,false,2,2324.0,2,1,0,48534,task3,891307,false,false,949,image-keyboard-response,15
true,14,0,1,0,true,q,false,true,0.0-2.0-0.32-0.291-3.291,1,0,0,81,false,stim,false,2,1341.3999998569489,2,0,1,48534,task3,894180,false,false,952,image-keyboard-response,16
true,14,0,1,0,true,q,false,true,0.0-2.0-0.32-0.292-3.292,1,0,0,81,false,stim,false,2,499.0,2,0,1,48534,task3,896211,false,false,955,image-keyboard-response,17
true,14,0,1,0,true,q,false,true,0.0-2.0-0.32-0.293-3.293,1,0,0,81,false,stim,false,2,435.2000000476837,2,0,1,48534,task3,898180,false,false,958,image-keyboard-response,18
true,14,0,1,2,false,d,true,false,0.0-2.0-0.32-0.294-3.294,1,0,0,81,false,stim,false,1,352.10000014305115,2,0,2,48534,task3,900050,false,false,961,image-keyboard-response,19
true,14,1,1,2,false,d,false,false,0.0-2.0-0.32-0.295-3.295,1,0,0,90,false,stim,true,1,805.4000000953674,2,0,2,48534,task3,902379,false,false,964,image-keyboard-response,20
true,14,2,1,2,true,d,false,true,0.0-2.0-0.32-0.296-3.296,1,0,0,68,false,stim,false,2,1294.1000001430511,2,0,0,48534,task3,905193,false,false,967,image-keyboard-response,21
true,14,2,1,2,true,d,false,true,0.0-2.0-0.33-0.297-3.297,1,0,0,68,false,stim,false,2,530.2000000476837,2,0,0,48534,task3,907256,false,false,970,image-keyboard-response,22
true,14,0,1,0,true,q,false,true,0.0-2.0-0.33-0.298-3.298,1,0,0,81,false,stim,false,2,617.9000000953674,2,1,1,48534,task3,909402,false,false,973,image-keyboard-response,23
true,14,0,1,2,false,d,true,false,0.0-2.0-0.33-0.299-3.299,1,0,0,81,false,stim,false,2,492.7000000476837,2,0,0,48534,task3,911415,false,false,976,image-keyboard-response,24
true,14,2,1,2,true,d,false,true,0.0-2.0-0.33-0.300-3.300,1,0,0,68,false,stim,false,1,1446.8999998569489,2,0,2,48534,task3,914391,false,false,979,image-keyboard-response,25
true,15,2,1,1,false,z,false,true,0.0-2.0-0.33-0.301-3.301,0,1,0,68,true,stim,true,2,696.4000000953674,2,0,2,48534,task3,916610,false,true,982,image-keyboard-response,1
true,15,0,1,0,true,q,false,true,0.0-2.0-0.33-0.302-3.302,0,1,0,81,false,stim,false,0,565.1000001430511,2,1,1,48534,task3,918703,false,false,985,image-keyboard-response,2
true,15,0,1,0,true,q,false,true,0.0-2.0-0.33-0.303-3.303,0,1,0,81,false,stim,false,0,841.6000001430511,2,1,1,48534,task3,921076,false,false,988,image-keyboard-response,3
true,15,2,1,0,false,q,false,false,0.0-2.0-0.33-0.304-3.304,0,1,0,68,false,stim,true,2,473.5,2,0,0,48534,task3,923082,false,false,991,image-keyboard-response,4
true,15,0,1,1,false,z,true,false,0.0-2.0-0.33-0.305-3.305,0,1,0,81,false,stim,false,2,1117.0,2,0,2,48534,task3,925711,false,false,994,image-keyboard-response,5
true,15,0,1,0,true,q,false,true,0.0-2.0-0.34-0.306-3.306,0,1,0,81,false,stim,false,0,798.7999999523163,2,1,1,48534,task3,928043,false,false,997,image-keyboard-response,6
true,15,0,1,0,true,q,false,true,0.0-2.0-0.34-0.307-3.307,0,1,0,81,false,stim,false,0,867.7999999523163,2,1,1,48534,task3,930435,false,false,1000,image-keyboard-response,7
true,15,2,1,0,false,q,false,false,0.0-2.0-0.34-0.308-3.308,0,1,0,68,false,stim,true,2,1140.5,2,0,0,48534,task3,933111,false,false,1003,image-keyboard-response,8
true,15,2,1,1,false,z,false,false,0.0-2.0-0.34-0.309-3.309,0,1,0,68,false,stim,true,2,487.10000014305115,2,0,2,48534,task3,935120,false,false,1006,image-keyboard-response,9
true,15,1,1,0,false,q,true,false,0.0-2.0-0.34-0.310-3.310,0,1,0,90,false,stim,false,2,845.5,2,0,0,48534,task3,937495,false,false,1009,image-keyboard-response,10
true,15,0,1,0,true,q,false,true,0.0-2.0-0.34-0.311-3.311,0,1,0,81,false,stim,false,2,500.2999999523163,2,0,0,48534,task3,939520,false,false,1012,image-keyboard-response,11
true,15,1,1,1,true,z,false,true,0.0-2.0-0.34-0.312-3.312,0,1,0,90,false,stim,false,2,1055.7000000476837,2,0,2,48534,task3,942110,false,false,1015,image-keyboard-response,12
true,15,1,1,1,true,z,false,true,0.0-2.0-0.34-0.313-3.313,0,1,0,90,false,stim,false,2,405.40000009536743,2,0,2,48534,task3,944051,false,false,1018,image-keyboard-response,13
true,15,0,1,0,true,q,false,true,0.0-2.0-0.34-0.314-3.314,0,1,0,81,false,stim,false,0,546.1000001430511,2,1,1,48534,task3,946122,false,false,1021,image-keyboard-response,14
true,15,0,1,0,true,q,false,true,0.0-2.0-0.35-0.315-3.315,0,1,0,81,false,stim,false,2,372.60000014305115,2,0,0,48534,task3,948014,false,false,1024,image-keyboard-response,15
true,15,0,1,0,true,q,false,true,0.0-2.0-0.35-0.316-3.316,0,1,0,81,false,stim,false,0,577.7999999523163,2,1,1,48534,task3,950127,false,false,1027,image-keyboard-response,16
true,15,0,1,0,true,q,false,true,0.0-2.0-0.35-0.317-3.317,0,1,0,81,false,stim,false,2,1225.9000000953674,2,0,0,48534,task3,952883,false,false,1030,image-keyboard-response,17
true,15,0,1,0,true,q,false,true,0.0-2.0-0.35-0.318-3.318,0,1,0,81,false,stim,false,0,534.1000001430511,2,1,1,48534,task3,954945,false,false,1033,image-keyboard-response,18
true,15,1,1,1,true,z,false,false,0.0-2.0-0.35-0.319-3.319,0,1,0,90,false,stim,false,2,500.7000000476837,2,1,2,48534,task3,956968,false,true,1036,image-keyboard-response,19
true,15,2,1,1,false,z,false,false,0.0-2.0-0.35-0.320-3.320,0,1,0,68,false,stim,true,2,823.7999999523163,2,1,2,48534,task3,959323,false,false,1039,image-keyboard-response,20
true,15,0,1,0,true,q,false,true,0.0-2.0-0.35-0.321-3.321,0,1,0,81,false,stim,false,2,629.7000000476837,2,0,0,48534,task3,961484,false,false,1042,image-keyboard-response,21
true,15,0,1,1,false,z,true,false,0.0-2.0-0.35-0.322-3.322,0,1,0,81,false,stim,false,2,765.0,2,1,2,48534,task3,963775,false,false,1045,image-keyboard-response,22
true,15,0,1,0,true,q,false,true,0.0-2.0-0.35-0.323-3.323,0,1,0,81,false,stim,false,0,432.0,2,0,1,48534,task3,965734,false,false,1048,image-keyboard-response,23
true,16,0,1,2,false,d,false,false,0.0-2.0-0.36-0.324-3.324,0,0,1,81,true,stim,true,0,1082.1000001430511,2,0,1,48534,task3,968350,false,false,1051,image-keyboard-response,1
true,16,1,1,2,false,d,true,false,0.0-2.0-0.36-0.325-3.325,0,0,1,90,false,stim,false,0,756.7999999523163,2,0,1,48534,task3,970634,false,false,1054,image-keyboard-response,2
true,16,0,1,1,false,z,false,false,0.0-2.0-0.36-0.326-3.326,0,0,1,81,false,stim,true,0,783.7999999523163,2,0,0,48534,task3,972942,false,false,1057,image-keyboard-response,3
true,16,1,1,1,true,z,false,false,0.0-2.0-0.36-0.327-3.327,0,0,1,90,false,stim,false,0,1074.3999998569489,2,0,0,48534,task3,975547,false,true,1060,image-keyboard-response,4
true,16,2,1,1,false,z,true,false,0.0-2.0-0.36-0.328-3.328,0,0,1,68,false,stim,false,1,691.0,2,1,2,48534,task3,977769,false,false,1063,image-keyboard-response,5
true,16,2,1,2,true,d,false,true,0.0-2.0-0.36-0.329-3.329,0,0,1,68,false,stim,false,0,442.7999999523163,2,0,1,48534,task3,979741,false,false,1066,image-keyboard-response,6
true,16,0,1,1,false,z,true,false,0.0-2.0-0.36-0.330-3.330,0,0,1,81,false,stim,false,1,962.2000000476837,2,1,2,48534,task3,982223,false,false,1069,image-keyboard-response,7
true,16,1,1,1,true,z,false,true,0.0-2.0-0.36-0.331-3.331,0,0,1,90,false,stim,false,0,580.7999999523163,2,0,0,48534,task3,984329,false,false,1072,image-keyboard-response,8
true,16,2,1,1,false,z,true,false,0.0-2.0-0.36-0.332-3.332,0,0,1,68,false,stim,false,1,1509.0,2,1,2,48534,task3,987368,false,false,1075,image-keyboard-response,9
true,16,1,1,1,true,z,false,false,0.0-2.0-0.37-0.333-3.333,0,0,1,90,false,stim,false,0,1229.1999998092651,2,0,0,48534,task3,990116,false,true,1078,image-keyboard-response,10
true,16,2,1,2,true,d,false,true,0.0-2.0-0.37-0.334-3.334,0,0,1,68,false,stim,false,0,1058.1000001430511,2,0,1,48534,task3,992710,false,false,1081,image-keyboard-response,11
true,16,2,1,2,true,d,false,true,0.0-2.0-0.37-0.335-3.335,0,0,1,68,false,stim,false,0,557.0,2,0,1,48534,task3,994785,false,false,1084,image-keyboard-response,12
true,16,0,1,1,false,z,true,false,0.0-2.0-0.37-0.336-3.336,0,0,1,81,false,stim,false,1,773.0999999046326,2,1,2,48534,task3,997084,false,false,1087,image-keyboard-response,13
true,16,1,1,1,true,z,false,true,0.0-2.0-0.37-0.337-3.337,0,0,1,90,false,stim,false,1,440.59999990463257,2,1,2,48534,task3,999050,false,false,1090,image-keyboard-response,14
true,16,2,1,2,true,d,false,true,0.0-2.0-0.37-0.338-3.338,0,0,1,68,false,stim,false,0,828.2000000476837,2,0,1,48534,task3,1001405,false,false,1093,image-keyboard-response,15
true,16,1,1,1,true,z,false,true,0.0-2.0-0.37-0.339-3.339,0,0,1,90,false,stim,false,1,439.90000009536743,2,1,2,48534,task3,1003371,false,false,1096,image-keyboard-response,16
true,16,1,1,1,true,z,false,true,0.0-2.0-0.37-0.340-3.340,0,0,1,90,false,stim,false,0,1002.4000000953674,2,0,0,48534,task3,1005901,false,false,1099,image-keyboard-response,17
true,16,1,1,1,true,z,false,true,0.0-2.0-0.37-0.341-3.341,0,0,1,90,false,stim,false,0,1091.2000000476837,2,0,0,48534,task3,1008523,false,false,1102,image-keyboard-response,18
true,16,1,1,1,true,z,false,true,0.0-2.0-0.38-0.342-3.342,0,0,1,90,false,stim,false,1,917.9000000953674,2,1,2,48534,task3,1010967,false,false,1105,image-keyboard-response,19
true,16,1,1,1,true,z,false,true,0.0-2.0-0.38-0.343-3.343,0,0,1,90,false,stim,false,0,531.7000000476837,2,1,0,48534,task3,1013028,false,false,1108,image-keyboard-response,20
true,16,1,1,1,true,z,false,true,0.0-2.0-0.38-0.344-3.344,0,0,1,90,false,stim,false,0,507.10000014305115,2,1,0,48534,task3,1015061,false,false,1111,image-keyboard-response,21
true,16,2,1,2,true,d,false,true,0.0-2.0-0.38-0.345-3.345,0,0,1,68,false,stim,false,0,646.7999999523163,2,0,1,48534,task3,1017237,false,false,1114,image-keyboard-response,22
true,16,2,1,2,true,d,false,false,0.0-2.0-0.38-0.346-3.346,0,0,1,68,false,stim,false,0,655.1000001430511,2,0,1,48534,task3,1019417,false,true,1117,image-keyboard-response,23
true,17,1,2,1,true,z,false,true,0.0-2.0-0.38-0.347-3.347,1,0,1,90,true,stim,false,1,1241.2000000476837,2,1,2,48534,task3,1022191,false,false,1120,image-keyboard-response,1
true,17,1,2,1,true,z,false,true,0.0-2.0-0.38-0.348-3.348,1,0,1,90,false,stim,false,1,551.6000001430511,2,1,0,48534,task3,1024264,false,false,1123,image-keyboard-response,2
true,17,0,2,0,true,q,false,true,0.0-2.0-0.38-0.349-3.349,1,0,1,81,false,stim,false,2,1195.2000000476837,2,0,1,48534,task3,1026984,false,false,1126,image-keyboard-response,3
true,17,1,2,1,true,z,false,true,0.0-2.0-0.38-0.350-3.350,1,0,1,90,false,stim,false,1,1031.2999999523163,2,1,2,48534,task3,1029552,false,false,1129,image-keyboard-response,4
true,17,1,2,1,true,z,false,true,0.0-2.0-0.39-0.351-3.351,1,0,1,90,false,stim,false,1,332.80000019073486,2,1,0,48534,task3,1031410,false,false,1132,image-keyboard-response,5
true,17,0,2,0,true,q,false,true,0.0-2.0-0.39-0.352-3.352,1,0,1,81,false,stim,false,2,380.90000009536743,2,0,1,48534,task3,1033317,false,false,1135,image-keyboard-response,6
true,17,1,2,1,true,z,false,true,0.0-2.0-0.39-0.353-3.353,1,0,1,90,false,stim,false,1,472.7999999523163,2,1,2,48534,task3,1035318,false,false,1138,image-keyboard-response,7
true,17,1,2,1,true,z,false,true,0.0-2.0-0.39-0.354-3.354,1,0,1,90,false,stim,false,1,721.7999999523163,2,1,0,48534,task3,1037568,false,false,1141,image-keyboard-response,8
true,17,1,2,1,true,z,false,true,0.0-2.0-0.39-0.355-3.355,1,0,1,90,false,stim,false,1,669.4000000953674,2,0,2,48534,task3,1039765,false,false,1144,image-keyboard-response,9
true,17,1,2,1,true,z,false,true,0.0-2.0-0.39-0.356-3.356,1,0,1,90,false,stim,false,1,396.69999980926514,2,0,2,48534,task3,1041696,false,false,1147,image-keyboard-response,10
true,17,0,2,0,true,q,false,true,0.0-2.0-0.39-0.357-3.357,1,0,1,81,false,stim,false,2,495.09999990463257,2,1,1,48534,task3,1043716,false,false,1150,image-keyboard-response,11
true,17,0,2,0,true,q,false,false,0.0-2.0-0.39-0.358-3.358,1,0,1,81,false,stim,false,2,812.3999998569489,2,1,1,48534,task3,1046050,false,true,1153,image-keyboard-response,12
true,18,1,2,1,true,z,false,true,0.0-2.0-0.39-0.359-3.359,1,1,0,90,true,stim,false,1,528.0999999046326,2,1,0,48534,task3,1048110,false,false,1156,image-keyboard-response,1
true,18,1,2,0,false,q,true,true,0.0-2.0-0.40-0.360-3.360,1,1,0,90,false,stim,false,0,758.0,2,1,1,48534,task3,1050400,false,true,1159,image-keyboard-response,2
true,18,1,2,0,false,q,true,false,0.0-2.0-0.40-0.361-3.361,1,1,0,90,false,stim,false,0,893.2999999523163,2,1,1,48534,task3,1052816,false,false,1162,image-keyboard-response,3
true,18,1,2,1,true,z,false,true,0.0-2.0-0.40-0.362-3.362,1,1,0,90,false,stim,false,1,486.2000000476837,2,1,0,48534,task3,1054830,false,false,1165,image-keyboard-response,4
true,18,1,2,2,false,d,false,false,0.0-2.0-0.40-0.363-3.363,1,1,0,90,false,stim,true,1,1345.4000000953674,2,0,2,48534,task3,1057701,false,false,1168,image-keyboard-response,5
true,18,2,2,0,false,q,true,false,0.0-2.0-0.40-0.364-3.364,1,1,0,68,false,stim,false,0,480.2999999523163,2,1,1,48534,task3,1059708,false,false,1171,image-keyboard-response,6
true,18,0,2,2,false,d,true,false,0.0-2.0-0.40-0.365-3.365,1,1,0,81,false,stim,false,1,1378.8000001907349,2,0,2,48534,task3,1062618,false,false,1174,image-keyboard-response,7
true,18,1,2,1,true,z,false,true,0.0-2.0-0.40-0.366-3.366,1,1,0,90,false,stim,false,1,499.7000000476837,2,1,0,48534,task3,1064640,false,false,1177,image-keyboard-response,8
true,18,1,2,1,true,z,false,true,0.0-2.0-0.40-0.367-3.367,1,1,0,90,false,stim,false,1,569.8000001907349,2,1,0,48534,task3,1066739,false,false,1180,image-keyboard-response,9
true,18,2,2,2,true,d,false,true,0.0-2.0-0.40-0.368-3.368,1,1,0,68,false,stim,false,1,938.1000001430511,2,0,2,48534,task3,1069202,false,false,1183,image-keyboard-response,10
true,18,2,2,2,true,d,false,true,0.0-2.0-0.41-0.369-3.369,1,1,0,68,false,stim,false,1,423.19999980926514,2,0,2,48534,task3,1071157,false,false,1186,image-keyboard-response,11
true,18,2,2,2,true,d,false,true,0.0-2.0-0.41-0.370-3.370,1,1,0,68,false,stim,false,1,489.7000000476837,2,0,2,48534,task3,1073171,false,false,1189,image-keyboard-response,12
true,18,0,2,0,true,q,false,true,0.0-2.0-0.41-0.371-3.371,1,1,0,81,false,stim,false,0,759.5,2,1,1,48534,task3,1075455,false,false,1192,image-keyboard-response,13
true,18,2,2,2,true,d,false,true,0.0-2.0-0.41-0.372-3.372,1,1,0,68,false,stim,false,1,875.4000000953674,2,0,2,48534,task3,1077852,false,false,1195,image-keyboard-response,14
true,18,1,2,1,true,z,false,true,0.0-2.0-0.41-0.373-3.373,1,1,0,90,false,stim,false,1,417.2999999523163,2,1,0,48534,task3,1079800,false,false,1198,image-keyboard-response,15
true,18,0,2,0,true,q,false,true,0.0-2.0-0.41-0.374-3.374,1,1,0,81,false,stim,false,0,415.59999990463257,2,1,1,48534,task3,1081761,false,false,1201,image-keyboard-response,16
true,18,1,2,1,true,z,false,true,0.0-2.0-0.41-0.375-3.375,1,1,0,90,false,stim,false,1,629.0,2,1,0,48534,task3,1083910,false,false,1204,image-keyboard-response,17
true,18,0,2,0,true,q,false,true,0.0-2.0-0.41-0.376-3.376,1,1,0,81,false,stim,false,0,786.2000000476837,2,1,1,48534,task3,1086218,false,false,1207,image-keyboard-response,18
true,18,1,2,1,true,z,false,true,0.0-2.0-0.41-0.377-3.377,1,1,0,90,false,stim,false,1,1117.7999999523163,2,1,0,48534,task3,1088854,false,false,1210,image-keyboard-response,19
true,18,1,2,1,true,z,false,true,0.0-2.0-0.42-0.378-3.378,1,1,0,90,false,stim,false,1,482.09999990463257,2,1,0,48534,task3,1090859,false,false,1213,image-keyboard-response,20
true,18,1,2,1,true,z,false,true,0.0-2.0-0.42-0.379-3.379,1,1,0,90,false,stim,false,1,484.7999999523163,2,1,0,48534,task3,1092875,false,false,1216,image-keyboard-response,21
true,18,0,2,0,true,q,false,true,0.0-2.0-0.42-0.380-3.380,1,1,0,81,false,stim,false,0,962.7000000476837,2,1,1,48534,task3,1095366,false,false,1219,image-keyboard-response,22
true,18,0,2,0,true,q,false,true,0.0-2.0-0.42-0.381-3.381,1,1,0,81,false,stim,false,0,475.7000000476837,2,1,1,48534,task3,1097369,false,false,1222,image-keyboard-response,23
true,18,2,2,2,true,d,false,true,0.0-2.0-0.42-0.382-3.382,1,1,0,68,false,stim,false,1,626.0999999046326,2,0,2,48534,task3,1099521,false,false,1225,image-keyboard-response,24
true,18,2,2,2,true,d,false,true,0.0-2.0-0.42-0.383-3.383,1,1,0,68,false,stim,false,1,511.40000009536743,2,0,2,48534,task3,1101562,false,false,1228,image-keyboard-response,25
true,18,2,2,2,true,d,false,true,0.0-2.0-0.42-0.384-3.384,1,1,0,68,false,stim,false,1,533.5999999046326,2,0,2,48534,task3,1103631,false,false,1231,image-keyboard-response,26
true,18,1,2,1,true,z,false,true,0.0-2.0-0.42-0.385-3.385,1,1,0,90,false,stim,false,1,626.2000000476837,2,1,0,48534,task3,1105788,false,false,1234,image-keyboard-response,27
true,19,0,2,0,true,q,false,true,0.0-2.0-0.42-0.386-3.386,1,1,0,81,true,stim,false,0,377.10000014305115,2,1,1,48534,task3,1107694,false,false,1237,image-keyboard-response,1
true,19,2,2,0,false,q,false,false,0.0-2.0-0.43-0.387-3.387,1,1,0,68,false,stim,true,2,517.5,2,0,2,48534,task3,1109739,false,false,1240,image-keyboard-response,2
true,19,0,2,0,true,q,false,true,0.0-2.0-0.43-0.388-3.388,1,1,0,81,false,stim,false,0,792.3999998569489,2,1,1,48534,task3,1112057,false,false,1243,image-keyboard-response,3
true,19,1,2,1,true,z,false,true,0.0-2.0-0.43-0.389-3.389,1,1,0,90,false,stim,false,1,761.2999999523163,2,1,0,48534,task3,1114353,false,false,1246,image-keyboard-response,4
true,19,0,2,0,true,q,false,true,0.0-2.0-0.43-0.390-3.390,1,1,0,81,false,stim,false,2,426.89999985694885,2,0,2,48534,task3,1116315,false,false,1249,image-keyboard-response,5
true,19,1,2,1,true,z,false,true,0.0-2.0-0.43-0.391-3.391,1,1,0,90,false,stim,false,1,572.2000000476837,2,1,0,48534,task3,1118406,false,false,1252,image-keyboard-response,6
true,19,1,2,1,true,z,false,true,0.0-2.0-0.43-0.392-3.392,1,1,0,90,false,stim,false,1,639.8999998569489,2,1,0,48534,task3,1120579,false,false,1255,image-keyboard-response,7
true,19,0,2,0,true,q,false,true,0.0-2.0-0.43-0.393-3.393,1,1,0,81,false,stim,false,2,1223.7999999523163,2,0,2,48534,task3,1123326,false,false,1258,image-keyboard-response,8
true,19,0,2,0,true,q,false,true,0.0-2.0-0.43-0.394-3.394,1,1,0,81,false,stim,false,0,396.59999990463257,2,1,1,48534,task3,1125248,false,false,1261,image-keyboard-response,9
true,19,0,2,0,true,q,false,true,0.0-2.0-0.43-0.395-3.395,1,1,0,81,false,stim,false,0,731.2000000476837,2,0,1,48534,task3,1127500,false,false,1264,image-keyboard-response,10
true,19,0,2,0,true,q,false,true,0.0-2.0-0.44-0.396-3.396,1,1,0,81,false,stim,false,0,495.30000019073486,2,0,1,48534,task3,1129526,false,false,1267,image-keyboard-response,11
true,19,1,2,1,true,z,false,true,0.0-2.0-0.44-0.397-3.397,1,1,0,90,false,stim,false,1,563.5,2,1,0,48534,task3,1131615,false,false,1270,image-keyboard-response,12
true,19,0,2,0,true,q,false,false,0.0-2.0-0.44-0.398-3.398,1,1,0,81,false,stim,false,2,395.19999980926514,2,1,2,48534,task3,1133537,false,true,1273,image-keyboard-response,13
true,19,0,2,0,true,q,false,true,0.0-2.0-0.44-0.399-3.399,1,1,0,81,false,stim,false,0,410.2999999523163,2,0,1,48534,task3,1135473,false,false,1276,image-keyboard-response,14
true,20,1,2,0,false,q,true,false,0.0-2.0-0.44-0.400-3.400,1,0,1,90,true,stim,false,0,839.5,2,1,2,48534,task3,1137840,false,false,1279,image-keyboard-response,1
true,20,1,2,1,true,z,false,true,0.0-2.0-0.44-0.401-3.401,1,0,1,90,false,stim,false,1,474.90000009536743,2,1,0,48534,task3,1139849,false,false,1282,image-keyboard-response,2
true,20,1,2,1,true,z,false,true,0.0-2.0-0.44-0.402-3.402,1,0,1,90,false,stim,false,1,667.9000000953674,2,1,0,48534,task3,1142041,false,false,1285,image-keyboard-response,3
true,20,0,2,1,false,z,false,false,0.0-2.0-0.44-0.403-3.403,1,0,1,81,false,stim,true,0,576.8999998569489,2,0,1,48534,task3,1144138,false,false,1288,image-keyboard-response,4
true,20,2,2,0,false,q,true,false,0.0-2.0-0.44-0.404-3.404,1,0,1,68,false,stim,false,0,1409.0,2,1,2,48534,task3,1147074,false,false,1291,image-keyboard-response,5
true,20,0,2,0,true,q,false,true,0.0-2.0-0.45-0.405-3.405,1,0,1,81,false,stim,false,0,630.6999998092651,2,1,2,48534,task3,1149237,false,false,1294,image-keyboard-response,6
true,20,1,2,1,true,z,false,true,0.0-2.0-0.45-0.406-3.406,1,0,1,90,false,stim,false,0,936.3999998569489,2,0,1,48534,task3,1151697,false,false,1297,image-keyboard-response,7
true,20,0,2,0,true,q,false,true,0.0-2.0-0.45-0.407-3.407,1,0,1,81,false,stim,false,0,867.0,2,1,2,48534,task3,1154093,false,false,1300,image-keyboard-response,8
true,20,1,2,1,true,z,false,true,0.0-2.0-0.45-0.408-3.408,1,0,1,90,false,stim,false,0,412.2999999523163,2,0,1,48534,task3,1156042,false,false,1303,image-keyboard-response,9
true,20,1,2,1,true,z,false,true,0.0-2.0-0.45-0.409-3.409,1,0,1,90,false,stim,false,1,499.09999990463257,2,1,0,48534,task3,1158060,false,false,1306,image-keyboard-response,10
true,20,0,2,0,true,q,false,true,0.0-2.0-0.45-0.410-3.410,1,0,1,81,false,stim,false,0,994.3999998569489,2,1,2,48534,task3,1160584,false,false,1309,image-keyboard-response,11
true,20,1,2,1,true,z,false,true,0.0-2.0-0.45-0.411-3.411,1,0,1,90,false,stim,false,0,441.2000000476837,2,1,1,48534,task3,1162555,false,false,1312,image-keyboard-response,12
true,20,1,2,1,true,z,false,true,0.0-2.0-0.45-0.412-3.412,1,0,1,90,false,stim,false,1,631.3000001907349,2,0,0,48534,task3,1164715,false,false,1315,image-keyboard-response,13
true,20,1,2,1,true,z,false,true,0.0-2.0-0.45-0.413-3.413,1,0,1,90,false,stim,false,1,691.1000001430511,2,0,0,48534,task3,1166925,false,false,1318,image-keyboard-response,14
true,20,1,2,0,false,q,true,true,0.0-2.0-0.46-0.414-3.414,1,0,1,90,false,stim,false,0,1056.1999998092651,2,1,2,48534,task3,1169506,false,true,1321,image-keyboard-response,15
true,21,1,2,2,false,d,false,true,0.0-2.0-0.46-0.415-3.415,0,1,1,90,true,stim,true,1,1113.2999999523163,2,0,0,48534,task3,1172142,false,true,1324,image-keyboard-response,1
true,21,0,2,1,false,z,true,false,0.0-2.0-0.46-0.416-3.416,0,1,1,81,false,stim,false,1,912.3999998569489,2,1,1,48534,task3,1174583,false,false,1327,image-keyboard-response,2
true,21,1,2,2,false,d,false,false,0.0-2.0-0.46-0.417-3.417,0,1,1,90,false,stim,true,1,537.8999998569489,2,0,0,48534,task3,1176640,false,false,1330,image-keyboard-response,3
true,21,2,2,0,false,q,true,false,0.0-2.0-0.46-0.418-3.418,0,1,1,68,false,stim,false,0,926.6000001430511,2,1,2,48534,task3,1179094,false,false,1333,image-keyboard-response,4
true,21,0,2,1,false,z,true,false,0.0-2.0-0.46-0.419-3.419,0,1,1,81,false,stim,false,1,1006.3999998569489,2,1,1,48534,task3,1181624,false,false,1336,image-keyboard-response,5
true,21,1,2,2,false,d,false,false,0.0-2.0-0.46-0.420-3.420,0,1,1,90,false,stim,true,1,990.4000000953674,2,0,0,48534,task3,1184139,false,false,1339,image-keyboard-response,6
true,21,1,2,1,true,z,false,true,0.0-2.0-0.46-0.421-3.421,0,1,1,90,false,stim,false,1,1002.4000000953674,2,1,1,48534,task3,1186664,false,false,1342,image-keyboard-response,7
true,21,2,2,0,false,q,true,false,0.0-2.0-0.46-0.422-3.422,0,1,1,68,false,stim,false,0,746.2999999523163,2,1,2,48534,task3,1188940,false,false,1345,image-keyboard-response,8
true,21,0,2,2,false,d,true,false,0.0-2.0-0.47-0.423-3.423,0,1,1,81,false,stim,false,1,1125.0999999046326,2,0,0,48534,task3,1191585,false,false,1348,image-keyboard-response,9
true,21,0,2,0,true,q,false,true,0.0-2.0-0.47-0.424-3.424,0,1,1,81,false,stim,false,0,1985.0,2,0,2,48534,task3,1195101,false,false,1351,image-keyboard-response,10
true,21,1,2,1,true,z,false,true,0.0-2.0-0.47-0.425-3.425,0,1,1,90,false,stim,false,1,930.8000001907349,2,0,1,48534,task3,1197563,false,false,1354,image-keyboard-response,11
true,21,2,2,2,true,d,false,false,0.0-2.0-0.47-0.426-3.426,0,1,1,68,false,stim,false,1,712.5,2,1,0,48534,task3,1199801,false,true,1357,image-keyboard-response,12
true,21,0,2,1,false,z,true,false,0.0-2.0-0.47-0.427-3.427,0,1,1,81,false,stim,false,1,1894.2000000476837,2,0,1,48534,task3,1203231,false,false,1360,image-keyboard-response,13
true,21,0,2,0,true,q,false,true,0.0-2.0-0.47-0.428-3.428,0,1,1,81,false,stim,false,0,1042.5999999046326,2,0,2,48534,task3,1205798,false,false,1363,image-keyboard-response,14
true,22,1,1,2,false,d,true,false,0.0-2.0-0.47-0.429-3.429,1,0,0,90,true,stim,false,2,1008.4000000953674,2,1,0,48534,task3,1208336,false,false,1366,image-keyboard-response,1
true,22,1,1,0,false,q,false,false,0.0-2.0-0.47-0.430-3.430,1,0,0,90,false,stim,true,1,1227.0999999046326,2,0,1,48534,task3,1211084,false,false,1369,image-keyboard-response,2
true,22,0,1,1,false,z,false,false,0.0-2.0-0.47-0.431-3.431,1,0,0,81,false,stim,true,0,664.9000000953674,2,0,2,48534,task3,1213268,false,false,1372,image-keyboard-response,3
true,22,0,1,2,false,d,true,true,0.0-2.0-0.48-0.432-3.432,1,0,0,81,false,stim,false,2,982.2000000476837,2,1,0,48534,task3,1215773,false,true,1375,image-keyboard-response,4
true,22,0,1,2,false,d,true,true,0.0-2.0-0.48-0.433-3.433,1,0,0,81,false,stim,false,2,505.89999985694885,2,1,0,48534,task3,1217815,false,true,1378,image-keyboard-response,5
true,22,1,1,0,false,q,false,false,0.0-2.0-0.48-0.434-3.434,1,0,0,90,false,stim,true,1,557.9000000953674,2,0,1,48534,task3,1219897,false,false,1381,image-keyboard-response,6
true,22,0,1,0,true,q,false,true,0.0-2.0-0.48-0.435-3.435,1,0,0,81,false,stim,false,1,417.0,2,0,1,48534,task3,1221835,false,false,1384,image-keyboard-response,7
true,22,0,1,0,true,q,false,true,0.0-2.0-0.48-0.436-3.436,1,0,0,81,false,stim,false,1,576.7000000476837,2,0,1,48534,task3,1223935,false,false,1387,image-keyboard-response,8
true,22,2,1,1,false,z,true,false,0.0-2.0-0.48-0.437-3.437,1,0,0,68,false,stim,false,0,965.7000000476837,2,0,2,48534,task3,1226430,false,false,1390,image-keyboard-response,9
true,22,1,1,1,true,z,false,true,0.0-2.0-0.48-0.438-3.438,1,0,0,90,false,stim,false,0,567.7999999523163,2,0,2,48534,task3,1228525,false,false,1393,image-keyboard-response,10
true,22,1,1,1,true,z,false,true,0.0-2.0-0.48-0.439-3.439,1,0,0,90,false,stim,false,0,467.59999990463257,2,0,2,48534,task3,1230519,false,false,1396,image-keyboard-response,11
true,22,0,1,2,false,d,true,false,0.0-2.0-0.48-0.440-3.440,1,0,0,81,false,stim,false,2,529.5,2,1,0,48534,task3,1232577,false,false,1399,image-keyboard-response,12
true,22,0,1,0,true,q,false,true,0.0-2.0-0.49-0.441-3.441,1,0,0,81,false,stim,false,1,425.0,2,0,1,48534,task3,1234549,false,false,1402,image-keyboard-response,13
true,22,1,1,1,true,z,false,true,0.0-2.0-0.49-0.442-3.442,1,0,0,90,false,stim,false,0,518.7000000476837,2,0,2,48534,task3,1236596,false,false,1405,image-keyboard-response,14
true,22,1,1,0,false,q,false,false,0.0-2.0-0.49-0.443-3.443,1,0,0,90,false,stim,true,1,544.2000000476837,2,0,1,48534,task3,1238665,false,false,1408,image-keyboard-response,15
true,22,1,1,2,false,d,true,false,0.0-2.0-0.49-0.444-3.444,1,0,0,90,false,stim,false,2,2256.0,2,1,0,48534,task3,1242452,false,false,1411,image-keyboard-response,16
true,22,1,1,1,true,z,false,true,0.0-2.0-0.49-0.445-3.445,1,0,0,90,false,stim,false,0,790.0999999046326,2,0,2,48534,task3,1244779,false,false,1414,image-keyboard-response,17
true,22,0,1,0,true,q,false,true,0.0-2.0-0.49-0.446-3.446,1,0,0,81,false,stim,false,1,1739.9000000953674,2,0,1,48534,task3,1248043,false,false,1417,image-keyboard-response,18
true,22,1,1,1,true,z,false,true,0.0-2.0-0.49-0.447-3.447,1,0,0,90,false,stim,false,0,821.1999998092651,2,0,2,48534,task3,1250388,false,false,1420,image-keyboard-response,19
true,22,1,1,2,false,d,true,false,0.0-2.0-0.49-0.448-3.448,1,0,0,90,false,stim,false,2,1637.4000000953674,2,1,0,48534,task3,1253546,false,false,1423,image-keyboard-response,20
true,22,2,1,2,true,d,false,true,0.0-2.0-0.49-0.449-3.449,1,0,0,68,false,stim,false,2,651.3999998569489,2,1,0,48534,task3,1255731,false,false,1426,image-keyboard-response,21
true,22,2,1,2,true,d,false,true,0.0-2.0-0.50-0.450-3.450,1,0,0,68,false,stim,false,2,708.5,2,1,0,48534,task3,1257974,false,false,1429,image-keyboard-response,22
true,22,1,1,1,true,z,false,false,0.0-2.0-0.50-0.451-3.451,1,0,0,90,false,stim,false,0,589.0,2,0,2,48534,task3,1260088,false,true,1432,image-keyboard-response,23
true,22,2,1,2,true,d,false,true,0.0-2.0-0.50-0.452-3.452,1,0,0,68,false,stim,false,2,654.5,2,1,0,48534,task3,1262263,false,false,1435,image-keyboard-response,24
true,22,0,1,0,true,q,false,true,0.0-2.0-0.50-0.453-3.453,1,0,0,81,false,stim,false,1,389.7999999523163,2,0,1,48534,task3,1264181,false,false,1438,image-keyboard-response,25
true,23,2,1,2,true,d,false,true,0.0-2.0-0.50-0.454-3.454,1,0,0,68,true,stim,false,1,731.6999998092651,2,0,2,48534,task3,1266444,false,false,1441,image-keyboard-response,1
true,23,2,1,2,true,d,false,true,0.0-2.0-0.50-0.455-3.455,1,0,0,68,false,stim,false,1,629.1999998092651,2,0,2,48534,task3,1268594,false,false,1444,image-keyboard-response,2
true,23,2,1,2,true,d,false,true,0.0-2.0-0.50-0.456-3.456,1,0,0,68,false,stim,false,2,356.40000009536743,2,1,0,48534,task3,1270479,false,false,1447,image-keyboard-response,3
true,23,1,1,1,true,z,false,true,0.0-2.0-0.50-0.457-3.457,1,0,0,90,false,stim,false,0,1197.5999999046326,2,0,1,48534,task3,1273210,false,false,1450,image-keyboard-response,4
true,23,1,1,1,true,z,false,true,0.0-2.0-0.50-0.458-3.458,1,0,0,90,false,stim,false,0,498.19999980926514,2,0,1,48534,task3,1275231,false,false,1453,image-keyboard-response,5
true,23,2,1,2,true,d,false,true,0.0-2.0-0.51-0.459-3.459,1,0,0,68,false,stim,false,2,571.2000000476837,2,1,0,48534,task3,1277336,false,false,1456,image-keyboard-response,6
true,23,2,1,2,true,d,false,true,0.0-2.0-0.51-0.460-3.460,1,0,0,68,false,stim,false,1,442.2000000476837,2,0,2,48534,task3,1279303,false,false,1459,image-keyboard-response,7
true,23,1,1,1,true,z,false,true,0.0-2.0-0.51-0.461-3.461,1,0,0,90,false,stim,false,0,469.7999999523163,2,0,1,48534,task3,1281298,false,false,1462,image-keyboard-response,8
true,23,1,1,1,true,z,false,true,0.0-2.0-0.51-0.462-3.462,1,0,0,90,false,stim,false,0,449.7000000476837,2,0,1,48534,task3,1283276,false,false,1465,image-keyboard-response,9
true,23,2,1,2,true,d,false,true,0.0-2.0-0.51-0.463-3.463,1,0,0,68,false,stim,false,2,913.2000000476837,2,1,0,48534,task3,1285710,false,false,1468,image-keyboard-response,10
true,23,2,1,1,false,z,true,false,0.0-2.0-0.51-0.464-3.464,1,0,0,68,false,stim,false,0,1444.9000000953674,2,0,1,48534,task3,1288692,false,false,1471,image-keyboard-response,11
true,23,2,1,2,true,d,false,true,0.0-2.0-0.51-0.465-3.465,1,0,0,68,false,stim,false,2,930.1000001430511,2,1,0,48534,task3,1291145,false,false,1474,image-keyboard-response,12
true,23,2,1,2,true,d,false,true,0.0-2.0-0.51-0.466-3.466,1,0,0,68,false,stim,false,1,472.2999999523163,2,0,2,48534,task3,1293138,false,false,1477,image-keyboard-response,13
true,23,2,1,2,true,d,false,true,0.0-2.0-0.51-0.467-3.467,1,0,0,68,false,stim,false,1,573.2999999523163,2,0,2,48534,task3,1295239,false,false,1480,image-keyboard-response,14
true,23,2,1,2,true,d,false,false,0.0-2.0-0.52-0.468-3.468,1,0,0,68,false,stim,false,1,525.5,2,0,2,48534,task3,1297300,false,true,1483,image-keyboard-response,15
true,23,0,1,2,false,d,true,false,0.0-2.0-0.52-0.469-3.469,1,0,0,81,false,stim,false,1,1121.7999999523163,2,0,2,48534,task3,1299942,false,false,1486,image-keyboard-response,16
true,23,2,1,2,true,d,false,true,0.0-2.0-0.52-0.470-3.470,1,0,0,68,false,stim,false,2,699.3999998569489,2,1,0,48534,task3,1302178,false,false,1489,image-keyboard-response,17
true,23,1,1,2,false,d,false,false,0.0-2.0-0.52-0.471-3.471,1,0,0,90,false,stim,true,1,568.3000001907349,2,0,2,48534,task3,1304280,false,false,1492,image-keyboard-response,18
true,23,1,1,1,true,z,false,true,0.0-2.0-0.52-0.472-3.472,1,0,0,90,false,stim,false,0,1298.8999998569489,2,0,1,48534,task3,1307106,false,false,1495,image-keyboard-response,19
true,23,2,1,2,true,d,false,true,0.0-2.0-0.52-0.473-3.473,1,0,0,68,false,stim,false,2,956.9000000953674,2,1,0,48534,task3,1309591,false,false,1498,image-keyboard-response,20
true,23,2,1,2,true,d,false,true,0.0-2.0-0.52-0.474-3.474,1,0,0,68,false,stim,false,2,547.3000001907349,2,1,0,48534,task3,1311670,false,false,1501,image-keyboard-response,21
true,23,1,1,1,true,z,false,true,0.0-2.0-0.52-0.475-3.475,1,0,0,90,false,stim,false,0,814.7000000476837,2,0,1,48534,task3,1314009,false,false,1504,image-keyboard-response,22
true,23,1,1,1,true,z,false,true,0.0-2.0-0.52-0.476-3.476,1,0,0,90,false,stim,false,0,711.4000000953674,2,0,1,48534,task3,1316246,false,false,1507,image-keyboard-response,23
true,23,2,1,2,true,d,false,true,0.0-2.0-0.53-0.477-3.477,1,0,0,68,false,stim,false,2,751.5,2,1,0,48534,task3,1318528,false,false,1510,image-keyboard-response,24
true,23,1,1,1,true,z,false,true,0.0-2.0-0.53-0.478-3.478,1,0,0,90,false,stim,false,0,2061.0,2,0,1,48534,task3,1322118,false,false,1513,image-keyboard-response,25
true,23,2,1,2,true,d,false,true,0.0-2.0-0.53-0.479-3.479,1,0,0,68,false,stim,false,2,948.5,2,1,0,48534,task3,1324595,false,false,1516,image-keyboard-response,26
true,23,2,1,2,true,d,false,true,0.0-2.0-0.53-0.480-3.480,1,0,0,68,false,stim,false,1,1287.0,2,0,2,48534,task3,1327403,false,false,1519,image-keyboard-response,27
true,24,2,1,2,true,d,false,true,0.0-2.0-0.53-0.481-3.481,1,0,0,68,true,stim,false,2,460.59999990463257,2,1,0,48534,task3,1329389,false,false,1522,image-keyboard-response,1
true,24,2,1,0,false,q,false,false,0.0-2.0-0.53-0.482-3.482,1,0,0,68,false,stim,true,2,335.89999985694885,2,0,2,48534,task3,1331250,false,false,1525,image-keyboard-response,2
true,24,0,1,0,true,q,false,true,0.0-2.0-0.53-0.483-3.483,1,0,0,81,false,stim,false,2,988.9000000953674,2,0,2,48534,task3,1333760,false,false,1528,image-keyboard-response,3
true,24,1,1,2,false,d,false,false,0.0-2.0-0.53-0.484-3.484,1,0,0,90,false,stim,true,1,873.2000000476837,2,0,1,48534,task3,1336159,false,false,1531,image-keyboard-response,4
true,24,2,1,2,true,d,false,true,0.0-2.0-0.53-0.485-3.485,1,0,0,68,false,stim,false,1,738.9000000953674,2,0,1,48534,task3,1338429,false,false,1534,image-keyboard-response,5
true,24,2,1,2,true,d,false,true,0.0-2.0-0.54-0.486-3.486,1,0,0,68,false,stim,false,2,2160.0999999046326,2,1,0,48534,task3,1342110,false,false,1537,image-keyboard-response,6
true,24,2,1,2,true,d,false,false,0.0-2.0-0.54-0.487-3.487,1,0,0,68,false,stim,false,1,395.0,2,0,1,48534,task3,1344031,false,true,1540,image-keyboard-response,7
true,24,0,1,0,true,q,false,true,0.0-2.0-0.54-0.488-3.488,1,0,0,81,false,stim,false,2,1107.2999999523163,2,0,2,48534,task3,1346661,false,false,1543,image-keyboard-response,8
true,24,0,1,0,true,q,false,true,0.0-2.0-0.54-0.489-3.489,1,0,0,81,false,stim,false,2,803.0999999046326,2,0,2,48534,task3,1348995,false,false,1546,image-keyboard-response,9
true,24,1,1,2,false,d,false,false,0.0-2.0-0.54-0.490-3.490,1,0,0,90,false,stim,true,1,1124.5,2,0,1,48534,task3,1351641,false,false,1549,image-keyboard-response,10
true,24,2,1,2,true,d,false,true,0.0-2.0-0.54-0.491-3.491,1,0,0,68,false,stim,false,2,728.5999999046326,2,1,0,48534,task3,1353903,false,false,1552,image-keyboard-response,11
true,24,2,1,2,true,d,false,true,0.0-2.0-0.54-0.492-3.492,1,0,0,68,false,stim,false,2,763.1000001430511,2,1,0,48534,task3,1356200,false,false,1555,image-keyboard-response,12
true,24,0,1,0,true,q,false,true,0.0-2.0-0.54-0.493-3.493,1,0,0,81,false,stim,false,2,550.2999999523163,2,0,2,48534,task3,1358284,false,false,1558,image-keyboard-response,13
true,24,0,1,2,false,d,true,true,0.0-2.0-0.54-0.494-3.494,1,0,0,81,false,stim,false,1,389.2000000476837,2,0,1,48534,task3,1360201,false,true,1561,image-keyboard-response,14
true,24,2,1,2,true,d,false,true,0.0-2.0-0.55-0.495-3.495,1,0,0,68,false,stim,false,2,322.39999985694885,2,1,0,48534,task3,1362044,false,false,1564,image-keyboard-response,15
true,24,2,1,2,true,d,false,true,0.0-2.0-0.55-0.496-3.496,1,0,0,68,false,stim,false,2,518.9000000953674,2,1,0,48534,task3,1364085,false,false,1567,image-keyboard-response,16
true,24,0,1,0,true,q,false,true,0.0-2.0-0.55-0.497-3.497,1,0,0,81,false,stim,false,2,476.2999999523163,2,0,2,48534,task3,1366087,false,false,1570,image-keyboard-response,17
true,24,0,1,2,false,d,true,false,0.0-2.0-0.55-0.498-3.498,1,0,0,81,false,stim,false,1,312.5,2,0,1,48534,task3,1367921,false,false,1573,image-keyboard-response,18
true,24,0,1,0,true,q,false,false,0.0-2.0-0.55-0.499-3.499,1,0,0,81,false,stim,false,2,1233.7000000476837,2,0,2,48534,task3,1370687,false,true,1576,image-keyboard-response,19
true,24,1,1,0,false,q,true,false,0.0-2.0-0.55-0.500-3.500,1,0,0,90,false,stim,false,2,538.0999999046326,2,0,2,48534,task3,1372745,false,false,1579,image-keyboard-response,20
true,24,2,1,2,true,d,false,true,0.0-2.0-0.55-0.501-3.501,1,0,0,68,false,stim,false,2,679.7000000476837,2,1,0,48534,task3,1374946,false,false,1582,image-keyboard-response,21
true,24,1,1,2,false,d,false,false,0.0-2.0-0.55-0.502-3.502,1,0,0,90,false,stim,true,1,721.7000000476837,2,0,1,48534,task3,1377191,false,false,1585,image-keyboard-response,22
true,24,2,1,2,true,d,false,true,0.0-2.0-0.55-0.503-3.503,1,0,0,68,false,stim,false,1,655.8000001907349,2,0,1,48534,task3,1379370,false,false,1588,image-keyboard-response,23
true,24,2,1,2,true,d,false,true,0.0-2.0-0.56-0.504-3.504,1,0,0,68,false,stim,false,1,633.9000000953674,2,0,1,48534,task3,1381533,false,false,1591,image-keyboard-response,24
true,24,2,1,2,true,d,false,true,0.0-2.0-0.56-0.505-3.505,1,0,0,68,false,stim,false,2,344.7000000476837,2,1,0,48534,task3,1383411,false,false,1594,image-keyboard-response,25
true,24,2,1,2,true,d,false,true,0.0-2.0-0.56-0.506-3.506,1,0,0,68,false,stim,false,1,638.2999999523163,2,0,1,48534,task3,1385576,false,false,1597,image-keyboard-response,26
true,24,2,1,2,true,d,false,true,0.0-2.0-0.56-0.507-3.507,1,0,0,68,false,stim,false,1,761.7999999523163,2,0,1,48534,task3,1387876,false,false,1600,image-keyboard-response,27
true,24,1,1,0,false,q,true,false,0.0-2.0-0.56-0.508-3.508,1,0,0,90,false,stim,false,2,1513.5,2,1,2,48534,task3,1390924,false,false,1603,image-keyboard-response,28
true,24,2,1,0,false,q,false,true,0.0-2.0-0.56-0.509-3.509,1,0,0,68,false,stim,true,2,812.5999999046326,2,1,2,48534,task3,1393262,false,true,1606,image-keyboard-response,29
true,25,0,2,2,false,d,true,false,0.0-2.0-0.56-0.510-3.510,1,0,1,81,true,stim,false,2,643.8000001907349,2,1,0,48534,task3,1395433,false,false,1609,image-keyboard-response,1
true,25,1,2,2,false,d,true,false,0.0-2.0-0.56-0.511-3.511,1,0,1,90,false,stim,false,2,611.2000000476837,2,1,0,48534,task3,1397576,false,false,1612,image-keyboard-response,2
true,25,2,2,0,false,q,true,false,0.0-2.0-0.56-0.512-3.512,1,0,1,68,false,stim,false,0,733.5,2,1,2,48534,task3,1399836,false,false,1615,image-keyboard-response,3
true,25,0,2,0,true,q,false,true,0.0-2.0-0.57-0.513-3.513,1,0,1,81,false,stim,false,0,688.5,2,1,2,48534,task3,1402059,false,false,1618,image-keyboard-response,4
true,25,2,2,2,true,d,false,true,0.0-2.0-0.57-0.514-3.514,1,0,1,68,false,stim,false,2,1049.9000000953674,2,1,0,48534,task3,1404641,false,false,1621,image-keyboard-response,5
true,25,1,2,0,false,q,true,false,0.0-2.0-0.57-0.515-3.515,1,0,1,90,false,stim,false,2,1775.3999998569489,2,0,1,48534,task3,1407946,false,false,1624,image-keyboard-response,6
true,25,2,2,0,false,q,false,false,0.0-2.0-0.57-0.516-3.516,1,0,1,68,false,stim,true,2,381.0,2,1,1,48534,task3,1409860,false,false,1627,image-keyboard-response,7
true,25,2,2,0,false,q,true,false,0.0-2.0-0.57-0.517-3.517,1,0,1,68,false,stim,false,0,2352.100000143051,2,1,2,48534,task3,1413735,false,false,1630,image-keyboard-response,8
true,25,2,2,2,true,d,false,true,0.0-2.0-0.57-0.518-3.518,1,0,1,68,false,stim,false,2,1523.6000001430511,2,1,0,48534,task3,1416781,false,false,1633,image-keyboard-response,9
true,25,0,2,0,true,q,false,true,0.0-2.0-0.57-0.519-3.519,1,0,1,81,false,stim,false,0,963.2000000476837,2,1,2,48534,task3,1419254,false,false,1636,image-keyboard-response,10
true,25,2,2,0,false,q,false,false,0.0-2.0-0.57-0.520-3.520,1,0,1,68,false,stim,true,2,1322.2999999523163,2,1,1,48534,task3,1422113,false,false,1639,image-keyboard-response,11
true,26,0,0,2,false,d,true,false,0.0-2.0-0.57-0.521-3.521,1,1,1,81,true,stim,false,2,1556.7999999523163,2,1,0,48534,task3,1546856,false,false,1762,image-keyboard-response,1
true,26,1,0,0,false,q,true,false,0.0-2.0-0.58-0.522-3.522,1,1,1,90,false,stim,false,0,865.0,2,1,1,48534,task3,1549258,false,false,1765,image-keyboard-response,2
true,26,1,0,2,false,d,true,false,0.0-2.0-0.58-0.523-3.523,1,1,1,90,false,stim,false,2,948.5,2,1,0,48534,task3,1551730,false,false,1768,image-keyboard-response,3
true,26,2,0,2,true,d,false,true,0.0-2.0-0.58-0.524-3.524,1,1,1,68,false,stim,false,2,675.5,2,1,0,48534,task3,1553937,false,false,1771,image-keyboard-response,4
true,26,0,0,0,true,q,false,true,0.0-2.0-0.58-0.525-3.525,1,1,1,81,false,stim,false,0,998.5999999046326,2,1,2,48534,task3,1556456,false,false,1774,image-keyboard-response,5
true,26,2,0,2,true,d,false,true,0.0-2.0-0.58-0.526-3.526,1,1,1,68,false,stim,false,2,596.5,2,1,0,48534,task3,1558587,false,false,1777,image-keyboard-response,6
true,26,0,0,0,true,q,false,true,0.0-2.0-0.58-0.527-3.527,1,1,1,81,false,stim,false,0,562.4000000953674,2,1,2,48534,task3,1560687,false,false,1780,image-keyboard-response,7
true,26,0,0,0,true,q,false,true,0.0-2.0-0.58-0.528-3.528,1,1,1,81,false,stim,false,0,1387.7999999523163,2,1,2,48534,task3,1563603,false,false,1783,image-keyboard-response,8
true,26,0,0,0,true,q,false,false,0.0-2.0-0.58-0.529-3.529,1,1,1,81,false,stim,false,0,1149.2999999523163,2,0,1,48534,task3,1566284,false,true,1786,image-keyboard-response,9
true,26,1,0,0,false,q,true,false,0.0-2.0-0.58-0.530-3.530,1,1,1,90,false,stim,false,0,784.2000000476837,2,0,1,48534,task3,1568590,false,false,1789,image-keyboard-response,10
true,26,2,0,0,false,q,true,false,0.0-2.0-0.59-0.531-3.531,1,1,1,68,false,stim,false,0,417.90000009536743,2,0,1,48534,task3,1570539,false,false,1792,image-keyboard-response,11
true,26,0,0,0,true,q,false,true,0.0-2.0-0.59-0.532-3.532,1,1,1,81,false,stim,false,0,885.0999999046326,2,1,2,48534,task3,1572946,false,false,1795,image-keyboard-response,12
true,27,0,1,1,false,z,false,false,0.0-2.0-0.59-0.533-3.533,0,0,1,81,true,stim,true,0,882.0999999046326,2,0,1,48534,task3,1575348,false,false,1798,image-keyboard-response,1
true,27,0,1,0,true,q,false,true,0.0-2.0-0.59-0.534-3.534,0,0,1,81,false,stim,false,0,662.5,2,1,2,48534,task3,1577554,false,false,1801,image-keyboard-response,2
true,27,1,1,1,true,z,false,true,0.0-2.0-0.59-0.535-3.535,0,0,1,90,false,stim,false,0,1392.0999999046326,2,0,1,48534,task3,1580478,false,false,1804,image-keyboard-response,3
true,27,2,1,0,false,q,false,false,0.0-2.0-0.59-0.536-3.536,0,0,1,68,false,stim,true,2,1349.7000000476837,2,0,0,48534,task3,1583350,false,false,1807,image-keyboard-response,4
true,27,0,1,0,true,q,false,false,0.0-2.0-0.59-0.537-3.537,0,0,1,81,false,stim,false,0,621.2999999523163,2,1,2,48534,task3,1585506,false,true,1810,image-keyboard-response,5
true,27,0,1,0,true,q,false,true,0.0-2.0-0.59-0.538-3.538,0,0,1,81,false,stim,false,2,1004.7999999523163,2,0,0,48534,task3,1588046,false,false,1813,image-keyboard-response,6
true,27,0,1,0,true,q,false,true,0.0-2.0-0.59-0.539-3.539,0,0,1,81,false,stim,false,2,566.3000001907349,2,0,0,48534,task3,1590134,false,false,1816,image-keyboard-response,7
true,27,1,1,1,true,z,false,true,0.0-2.0-0.60-0.540-3.540,0,0,1,90,false,stim,false,0,545.7000000476837,2,0,1,48534,task3,1592205,false,false,1819,image-keyboard-response,8
true,27,1,1,1,true,z,false,false,0.0-2.0-0.60-0.541-3.541,0,0,1,90,false,stim,false,0,540.0999999046326,2,0,1,48534,task3,1594278,false,true,1822,image-keyboard-response,9
true,27,0,1,0,true,q,false,true,0.0-2.0-0.60-0.542-3.542,0,0,1,81,false,stim,false,2,514.8999998569489,2,1,0,48534,task3,1596330,false,false,1825,image-keyboard-response,10
true,27,2,1,1,false,z,true,false,0.0-2.0-0.60-0.543-3.543,0,0,1,68,false,stim,false,0,732.8999998569489,2,1,1,48534,task3,1598589,false,false,1828,image-keyboard-response,11
true,27,0,1,0,true,q,false,true,0.0-2.0-0.60-0.544-3.544,0,0,1,81,false,stim,false,0,550.1000001430511,2,0,2,48534,task3,1600671,false,false,1831,image-keyboard-response,12
true,27,0,1,0,true,q,false,true,0.0-2.0-0.60-0.545-3.545,0,0,1,81,false,stim,false,2,945.0999999046326,2,1,0,48534,task3,1603152,false,false,1834,image-keyboard-response,13
true,27,0,1,0,true,q,false,true,0.0-2.0-0.60-0.546-3.546,0,0,1,81,false,stim,false,2,500.7999999523163,2,1,0,48534,task3,1605176,false,false,1837,image-keyboard-response,14
true,28,0,2,2,false,d,false,false,0.0-2.0-0.60-0.547-3.547,1,1,0,81,true,stim,true,0,494.40000009536743,2,0,2,48534,task3,1607198,false,false,1840,image-keyboard-response,1
true,28,1,2,2,false,d,true,false,0.0-2.0-0.60-0.548-3.548,1,1,0,90,false,stim,false,0,1223.5999999046326,2,0,2,48534,task3,1609950,false,false,1843,image-keyboard-response,2
true,28,2,2,2,true,d,false,true,0.0-2.0-0.61-0.549-3.549,1,1,0,68,false,stim,false,0,502.40000009536743,2,0,2,48534,task3,1611974,false,false,1846,image-keyboard-response,3
true,28,2,2,2,true,d,false,true,0.0-2.0-0.61-0.550-3.550,1,1,0,68,false,stim,false,0,470.30000019073486,2,0,2,48534,task3,1613979,false,false,1849,image-keyboard-response,4
true,28,0,2,1,false,z,true,false,0.0-2.0-0.61-0.551-3.551,1,1,0,81,false,stim,false,1,1295.1999998092651,2,1,1,48534,task3,1616802,false,false,1852,image-keyboard-response,5
true,28,0,2,0,true,q,false,false,0.0-2.0-0.61-0.552-3.552,1,1,0,81,false,stim,false,0,427.19999980926514,2,1,0,48534,task3,1618758,false,true,1855,image-keyboard-response,6
true,28,1,2,1,true,z,false,true,0.0-2.0-0.61-0.553-3.553,1,1,0,90,false,stim,false,1,883.0999999046326,2,1,1,48534,task3,1621163,false,false,1858,image-keyboard-response,7
true,28,2,2,0,false,q,true,false,0.0-2.0-0.61-0.554-3.554,1,1,0,68,false,stim,false,0,1106.8999998569489,2,1,0,48534,task3,1623792,false,false,1861,image-keyboard-response,8
true,28,0,2,0,true,q,false,true,0.0-2.0-0.61-0.555-3.555,1,1,0,81,false,stim,false,0,499.10000014305115,2,1,0,48534,task3,1625827,false,false,1864,image-keyboard-response,9
true,28,2,2,2,true,d,false,true,0.0-2.0-0.61-0.556-3.556,1,1,0,68,false,stim,false,0,1713.5999999046326,2,0,2,48534,task3,1629070,false,false,1867,image-keyboard-response,10
true,28,1,2,1,true,z,false,true,0.0-2.0-0.61-0.557-3.557,1,1,0,90,false,stim,false,1,923.2999999523163,2,1,1,48534,task3,1631517,false,false,1870,image-keyboard-response,11
true,28,0,2,0,true,q,false,true,0.0-2.0-0.62-0.558-3.558,1,1,0,81,false,stim,false,0,400.89999985694885,2,1,0,48534,task3,1633444,false,false,1873,image-keyboard-response,12
true,28,1,2,1,true,z,false,false,0.0-2.0-0.62-0.559-3.559,1,1,0,90,false,stim,false,1,718.7000000476837,2,1,1,48534,task3,1635697,false,true,1876,image-keyboard-response,13
true,28,2,2,2,true,d,false,true,0.0-2.0-0.62-0.560-3.560,1,1,0,68,false,stim,false,0,478.7000000476837,2,0,2,48534,task3,1637708,false,false,1879,image-keyboard-response,14
true,28,2,2,2,true,d,false,true,0.0-2.0-0.62-0.561-3.561,1,1,0,68,false,stim,false,0,1220.8999998569489,2,0,2,48534,task3,1640467,false,false,1882,image-keyboard-response,15
true,28,0,2,0,true,q,false,true,0.0-2.0-0.62-0.562-3.562,1,1,0,81,false,stim,false,0,598.5,2,1,0,48534,task3,1642596,false,false,1885,image-keyboard-response,16
true,28,2,2,2,true,d,false,true,0.0-2.0-0.62-0.563-3.563,1,1,0,68,false,stim,false,0,812.4000000953674,2,0,2,48534,task3,1644931,false,false,1888,image-keyboard-response,17
true,28,0,2,0,true,q,false,true,0.0-2.0-0.62-0.564-3.564,1,1,0,81,false,stim,false,0,1000.2000000476837,2,1,0,48534,task3,1647465,false,false,1891,image-keyboard-response,18
true,28,0,2,1,false,z,true,false,0.0-2.0-0.62-0.565-3.565,1,1,0,81,false,stim,false,1,951.7999999523163,2,1,1,48534,task3,1649947,false,false,1894,image-keyboard-response,19
true,28,1,2,1,true,z,false,true,0.0-2.0-0.62-0.566-3.566,1,1,0,90,false,stim,false,1,1158.6000001430511,2,1,1,48534,task3,1652637,false,false,1897,image-keyboard-response,20
true,28,2,2,2,true,d,false,true,0.0-2.0-0.63-0.567-3.567,1,1,0,68,false,stim,false,0,687.3999998569489,2,0,2,48534,task3,1654854,false,false,1900,image-keyboard-response,21
true,28,0,2,0,true,q,false,true,0.0-2.0-0.63-0.568-3.568,1,1,0,81,false,stim,false,0,561.4000000953674,2,1,0,48534,task3,1656966,false,false,1903,image-keyboard-response,22
true,28,0,2,0,true,q,false,false,0.0-2.0-0.63-0.569-3.569,1,1,0,81,false,stim,false,0,511.7000000476837,2,1,0,48534,task3,1659005,false,true,1906,image-keyboard-response,23
true,28,1,2,1,true,z,false,true,0.0-2.0-0.63-0.570-3.570,1,1,0,90,false,stim,false,1,495.10000014305115,2,0,1,48534,task3,1661027,false,false,1909,image-keyboard-response,24
true,28,1,2,2,false,d,true,false,0.0-2.0-0.63-0.571-3.571,1,1,0,90,false,stim,false,0,436.7999999523163,2,0,2,48534,task3,1663000,false,false,1912,image-keyboard-response,25
true,28,1,2,1,true,z,false,true,0.0-2.0-0.63-0.572-3.572,1,1,0,90,false,stim,false,1,1139.7000000476837,2,0,1,48534,task3,1665669,false,false,1915,image-keyboard-response,26
true,28,2,2,2,true,d,false,true,0.0-2.0-0.63-0.573-3.573,1,1,0,68,false,stim,false,0,390.10000014305115,2,0,2,48534,task3,1667590,false,false,1918,image-keyboard-response,27
true,28,0,2,0,true,q,false,true,0.0-2.0-0.63-0.574-3.574,1,1,0,81,false,stim,false,0,1035.3999998569489,2,1,0,48534,task3,1670157,false,false,1921,image-keyboard-response,28
true,29,1,1,2,false,d,false,false,0.0-2.0-0.63-0.575-3.575,1,0,0,90,true,stim,true,1,1349.0999999046326,2,0,1,48534,task3,1673029,false,false,1924,image-keyboard-response,1
true,29,0,1,0,true,q,false,true,0.0-2.0-0.64-0.576-3.576,1,0,0,81,false,stim,false,0,737.7000000476837,2,1,0,48534,task3,1675295,false,false,1927,image-keyboard-response,2
true,29,0,1,2,false,d,true,true,0.0-2.0-0.64-0.577-3.577,1,0,0,81,false,stim,false,1,500.5,2,0,1,48534,task3,1677323,false,true,1930,image-keyboard-response,3
true,29,2,1,0,false,q,false,false,0.0-2.0-0.64-0.578-3.578,1,0,0,68,false,stim,true,2,658.3999998569489,2,0,2,48534,task3,1679514,false,false,1933,image-keyboard-response,4
true,29,0,1,0,true,q,false,true,0.0-2.0-0.64-0.579-3.579,1,0,0,81,false,stim,false,0,691.2000000476837,2,1,0,48534,task3,1681729,false,false,1936,image-keyboard-response,5
true,29,1,1,0,false,q,true,false,0.0-2.0-0.64-0.580-3.580,1,0,0,90,false,stim,false,2,986.2000000476837,2,0,2,48534,task3,1684240,false,false,1939,image-keyboard-response,6
true,29,0,1,2,false,d,true,false,0.0-2.0-0.64-0.581-3.581,1,0,0,81,false,stim,false,1,949.3000001907349,2,0,1,48534,task3,1686713,false,false,1942,image-keyboard-response,7
true,29,0,1,0,true,q,false,true,0.0-2.0-0.64-0.582-3.582,1,0,0,81,false,stim,false,0,520.0999999046326,2,1,0,48534,task3,1688764,false,false,1945,image-keyboard-response,8
true,29,1,1,2,false,d,false,false,0.0-2.0-0.64-0.583-3.583,1,0,0,90,false,stim,true,1,486.5,2,0,1,48534,task3,1690777,false,false,1948,image-keyboard-response,9
true,29,0,1,0,true,q,false,false,0.0-2.0-0.64-0.584-3.584,1,0,0,81,false,stim,false,2,1351.6999998092651,2,0,2,48534,task3,1693656,false,true,1951,image-keyboard-response,10
true,29,0,1,0,true,q,false,true,0.0-2.0-0.65-0.585-3.585,1,0,0,81,false,stim,false,0,387.2000000476837,2,1,0,48534,task3,1695570,false,false,1954,image-keyboard-response,11
true,29,1,1,2,false,d,false,false,0.0-2.0-0.65-0.586-3.586,1,0,0,90,false,stim,true,1,1596.7999999523163,2,0,1,48534,task3,1698701,false,false,1957,image-keyboard-response,12
true,29,1,1,0,false,q,true,true,0.0-2.0-0.65-0.587-3.587,1,0,0,90,false,stim,false,2,1765.0999999046326,2,0,2,48534,task3,1701993,false,true,1960,image-keyboard-response,13
true,29,1,1,0,false,q,true,false,0.0-2.0-0.65-0.588-3.588,1,0,0,90,false,stim,false,2,445.5,2,0,2,48534,task3,1703962,false,false,1963,image-keyboard-response,14
true,29,0,1,2,false,d,true,false,0.0-2.0-0.65-0.589-3.589,1,0,0,81,false,stim,false,1,1093.0,2,0,1,48534,task3,1706576,false,false,1966,image-keyboard-response,15
