answered,blockNum,choice,condition,corResp,correct,correct_response,explo,fb,internal_node_id,isStable_1,isStable_2,isStable_3,key_press,newBlock,part,persev,persevResp,rt,sessNum,stableAS,stimulus,subject,task,time_elapsed,training,trap,trial_index,trial_type,trialsInBlock
true,1,1,0,2,false,d,true,true,0.0-2.0-0.0-0.0-3.0,0,0,0,90,true,stim,false,-1,923.1000000005588,1,0,1,48534,task2,106562,false,true,85,image-keyboard-response,1
true,1,0,0,0,true,q,false,true,0.0-2.0-0.0-0.1-3.1,0,0,0,81,false,stim,false,-1,605.7999999998137,1,0,2,48534,task2,108696,false,false,88,image-keyboard-response,2
true,1,1,0,0,false,q,true,false,0.0-2.0-0.0-0.2-3.2,0,0,0,90,false,stim,false,-1,1313.4000000003725,1,0,2,48534,task2,111526,false,false,91,image-keyboard-response,3
true,1,2,0,1,false,z,true,false,0.0-2.0-0.0-0.3-3.3,0,0,0,68,false,stim,false,-1,821.0,1,0,0,48534,task2,113856,false,false,94,image-keyboard-response,4
true,1,1,0,2,false,d,true,false,0.0-2.0-0.0-0.4-3.4,0,0,0,90,false,stim,false,-1,2034.9000000003725,1,0,1,48534,task2,117407,false,false,97,image-keyboard-response,5
true,1,0,0,1,false,z,true,false,0.0-2.0-0.0-0.5-3.5,0,0,0,81,false,stim,false,-1,877.6999999992549,1,0,0,48534,task2,119813,false,false,100,image-keyboard-response,6
true,1,0,0,2,false,d,true,false,0.0-2.0-0.0-0.6-3.6,0,0,0,81,false,stim,false,-1,1262.9000000003725,1,0,1,48534,task2,122603,false,false,103,image-keyboard-response,7
true,1,2,0,1,false,z,true,false,0.0-2.0-0.0-0.7-3.7,0,0,0,68,false,stim,false,-1,1304.2999999998137,1,0,0,48534,task2,125429,false,false,106,image-keyboard-response,8
true,1,1,0,0,false,q,true,false,0.0-2.0-0.0-0.8-3.8,0,0,0,90,false,stim,false,-1,993.0999999996275,1,0,2,48534,task2,127940,false,false,109,image-keyboard-response,9
true,1,2,0,0,false,q,true,false,0.0-2.0-0.1-0.9-3.9,0,0,0,68,false,stim,false,-1,746.3999999994412,1,0,2,48534,task2,130202,false,false,112,image-keyboard-response,10
true,1,1,0,1,true,z,false,true,0.0-2.0-0.1-0.10-3.10,0,0,0,90,false,stim,false,-1,1608.7000000001863,1,0,0,48534,task2,133327,false,false,115,image-keyboard-response,11
true,1,0,0,0,true,q,false,false,0.0-2.0-0.1-0.11-3.11,0,0,0,81,false,stim,false,-1,793.7999999998137,1,0,2,48534,task2,135642,false,true,118,image-keyboard-response,12
true,1,1,0,2,false,d,true,false,0.0-2.0-0.1-0.12-3.12,0,0,0,90,false,stim,false,-1,1354.0,1,0,1,48534,task2,138511,false,false,121,image-keyboard-response,13
true,1,0,0,0,true,q,false,true,0.0-2.0-0.1-0.13-3.13,0,0,0,81,false,stim,false,-1,992.8999999994412,1,0,2,48534,task2,141025,false,false,124,image-keyboard-response,14
true,1,1,0,1,true,z,false,true,0.0-2.0-0.1-0.14-3.14,0,0,0,90,false,stim,false,-1,1001.7999999998137,1,0,0,48534,task2,143549,false,false,127,image-keyboard-response,15
true,1,2,0,2,true,d,false,true,0.0-2.0-0.1-0.15-3.15,0,0,0,68,false,stim,false,-1,747.9000000003725,1,0,1,48534,task2,145822,false,false,130,image-keyboard-response,16
true,1,1,0,1,true,z,false,false,0.0-2.0-0.1-0.16-3.16,0,0,0,90,false,stim,false,-1,670.7999999998137,1,0,0,48534,task2,148019,false,true,133,image-keyboard-response,17
true,1,2,0,2,true,d,false,true,0.0-2.0-0.1-0.17-3.17,0,0,0,68,false,stim,false,-1,649.1000000005588,1,0,1,48534,task2,150192,false,false,136,image-keyboard-response,18
true,1,0,0,1,false,z,true,false,0.0-2.0-0.2-0.18-3.18,0,0,0,81,false,stim,false,-1,806.1000000005588,1,0,0,48534,task2,152515,false,false,139,image-keyboard-response,19
true,1,1,0,0,false,q,true,false,0.0-2.0-0.2-0.19-3.19,0,0,0,90,false,stim,false,-1,1110.7999999998137,1,0,2,48534,task2,155147,false,false,142,image-keyboard-response,20
true,1,2,0,2,true,d,false,true,0.0-2.0-0.2-0.20-3.20,0,0,0,68,false,stim,false,-1,650.5999999996275,1,0,1,48534,task2,157316,false,false,145,image-keyboard-response,21
true,1,0,0,1,false,z,true,false,0.0-2.0-0.2-0.21-3.21,0,0,0,81,false,stim,false,-1,746.0,1,1,0,48534,task2,159583,false,false,148,image-keyboard-response,22
true,1,1,0,1,true,z,false,true,0.0-2.0-0.2-0.22-3.22,0,0,0,90,false,stim,false,-1,601.0999999996275,1,1,0,48534,task2,161709,false,false,151,image-keyboard-response,23
true,1,2,0,0,false,q,true,true,0.0-2.0-0.2-0.23-3.23,0,0,0,68,false,stim,false,-1,614.3000000007451,1,0,2,48534,task2,163842,false,true,154,image-keyboard-response,24
true,1,1,0,2,false,d,true,false,0.0-2.0-0.2-0.24-3.24,0,0,0,90,false,stim,false,-1,1101.6000000005588,1,0,1,48534,task2,166457,false,false,157,image-keyboard-response,25
true,1,2,0,0,false,q,true,false,0.0-2.0-0.2-0.25-3.25,0,0,0,68,false,stim,false,-1,742.0,1,0,2,48534,task2,168717,false,false,160,image-keyboard-response,26
true,2,2,2,0,false,q,false,false,0.0-2.0-0.2-0.26-3.26,1,0,0,68,true,stim,true,2,1559.6000000005588,1,0,1,48534,task2,171798,false,false,163,image-keyboard-response,1
true,2,2,2,2,true,d,false,true,0.0-2.0-0.3-0.27-3.27,1,0,0,68,false,stim,false,0,1018.7000000001863,1,0,2,48534,task2,174339,false,false,166,image-keyboard-response,2
true,2,0,2,0,true,q,false,true,0.0-2.0-0.3-0.28-3.28,1,0,0,81,false,stim,false,2,1492.5,1,0,1,48534,task2,177345,false,false,169,image-keyboard-response,3
true,2,2,2,1,false,z,true,false,0.0-2.0-0.3-0.29-3.29,1,0,0,68,false,stim,false,1,1191.6000000005588,1,1,0,48534,task2,180064,false,false,172,image-keyboard-response,4
true,2,2,2,2,true,d,false,true,0.0-2.0-0.3-0.30-3.30,1,0,0,68,false,stim,false,0,940.2000000001863,1,0,2,48534,task2,182532,false,false,175,image-keyboard-response,5
true,2,0,2,0,true,q,false,true,0.0-2.0-0.3-0.31-3.31,1,0,0,81,false,stim,false,2,582.5999999996275,1,0,1,48534,task2,184636,false,false,178,image-keyboard-response,6
true,2,0,2,0,true,q,false,false,0.0-2.0-0.3-0.32-3.32,1,0,0,81,false,stim,false,2,573.7999999998137,1,0,1,48534,task2,186732,false,true,181,image-keyboard-response,7
true,2,1,2,2,false,d,true,false,0.0-2.0-0.3-0.33-3.33,1,0,0,90,false,stim,false,0,1655.199999999255,1,0,2,48534,task2,189914,false,false,184,image-keyboard-response,8
true,2,2,2,1,false,z,true,false,0.0-2.0-0.3-0.34-3.34,1,0,0,68,false,stim,false,1,1018.8000000007451,1,1,0,48534,task2,192449,false,false,187,image-keyboard-response,9
true,2,1,2,1,true,z,false,false,0.0-2.0-0.3-0.35-3.35,1,0,0,90,false,stim,false,1,1511.5,1,1,0,48534,task2,195479,false,true,190,image-keyboard-response,10
true,2,0,2,1,false,z,true,false,0.0-2.0-0.4-0.36-3.36,1,0,0,81,false,stim,false,1,1078.9000000003725,1,1,0,48534,task2,198068,false,false,193,image-keyboard-response,11
true,2,2,2,1,false,z,true,false,0.0-2.0-0.4-0.37-3.37,1,0,0,68,false,stim,false,1,545.7999999998137,1,1,0,48534,task2,200138,false,false,196,image-keyboard-response,12
true,2,1,2,1,true,z,false,true,0.0-2.0-0.4-0.38-3.38,1,0,0,90,false,stim,false,1,649.0999999996275,1,1,0,48534,task2,202301,false,false,199,image-keyboard-response,13
true,2,2,2,2,true,d,false,true,0.0-2.0-0.4-0.39-3.39,1,0,0,68,false,stim,false,0,855.7000000001863,1,0,2,48534,task2,204680,false,false,202,image-keyboard-response,14
true,2,2,2,2,true,d,false,false,0.0-2.0-0.4-0.40-3.40,1,0,0,68,false,stim,false,0,547.6000000005588,1,0,2,48534,task2,206742,false,true,205,image-keyboard-response,15
true,2,1,2,0,false,q,true,false,0.0-2.0-0.4-0.41-3.41,1,0,0,90,false,stim,false,2,1313.9000000003725,1,0,1,48534,task2,209570,false,false,208,image-keyboard-response,16
true,2,0,2,0,true,q,false,false,0.0-2.0-0.4-0.42-3.42,1,0,0,81,false,stim,false,2,577.2000000001863,1,0,1,48534,task2,211667,false,true,211,image-keyboard-response,17
true,2,2,2,2,true,d,false,true,0.0-2.0-0.4-0.43-3.43,1,0,0,68,false,stim,false,0,741.4000000003725,1,0,2,48534,task2,213921,false,false,214,image-keyboard-response,18
true,2,2,2,0,false,q,false,false,0.0-2.0-0.4-0.44-3.44,1,0,0,68,false,stim,true,2,748.0999999996275,1,0,1,48534,task2,216193,false,false,217,image-keyboard-response,19
true,2,2,2,2,true,d,false,true,0.0-2.0-0.5-0.45-3.45,1,0,0,68,false,stim,false,0,490.19999999925494,1,0,2,48534,task2,218199,false,false,220,image-keyboard-response,20
true,2,1,2,1,true,z,false,true,0.0-2.0-0.5-0.46-3.46,1,0,0,90,false,stim,false,1,1010.9000000003725,1,1,0,48534,task2,220740,false,false,223,image-keyboard-response,21
true,2,1,2,1,true,z,false,false,0.0-2.0-0.5-0.47-3.47,1,0,0,90,false,stim,false,1,525.2999999998137,1,1,0,48534,task2,222777,false,true,226,image-keyboard-response,22
true,2,2,2,0,false,q,false,false,0.0-2.0-0.5-0.48-3.48,1,0,0,68,false,stim,true,2,980.2999999998137,1,0,1,48534,task2,225282,false,false,229,image-keyboard-response,23
true,2,2,2,2,true,d,false,true,0.0-2.0-0.5-0.49-3.49,1,0,0,68,false,stim,false,0,584.2000000001863,1,0,2,48534,task2,227386,false,false,232,image-keyboard-response,24
true,2,1,2,0,false,q,true,false,0.0-2.0-0.5-0.50-3.50,1,0,0,90,false,stim,false,2,1281.9000000003725,1,0,1,48534,task2,230188,false,false,235,image-keyboard-response,25
true,2,2,2,1,false,z,true,true,0.0-2.0-0.5-0.51-3.51,1,0,0,68,false,stim,false,1,1868.7999999998137,1,1,0,48534,task2,233576,false,true,238,image-keyboard-response,26
true,2,0,2,0,true,q,false,true,0.0-2.0-0.5-0.52-3.52,1,0,0,81,false,stim,false,2,1141.5,1,0,1,48534,task2,236244,false,false,241,image-keyboard-response,27
true,2,2,2,2,true,d,false,true,0.0-2.0-0.5-0.53-3.53,1,0,0,68,false,stim,false,0,700.0,1,0,2,48534,task2,238459,false,false,244,image-keyboard-response,28
true,2,2,2,1,false,z,true,false,0.0-2.0-0.6-0.54-3.54,1,0,0,68,false,stim,false,1,444.20000000018626,1,1,0,48534,task2,240419,false,false,247,image-keyboard-response,29
true,2,0,2,0,true,q,false,true,0.0-2.0-0.6-0.55-3.55,1,0,0,81,false,stim,false,2,1026.4000000003725,1,0,1,48534,task2,242953,false,false,250,image-keyboard-response,30
true,2,2,2,2,true,d,false,true,0.0-2.0-0.6-0.56-3.56,1,0,0,68,false,stim,false,0,551.2999999998137,1,0,2,48534,task2,245031,false,false,253,image-keyboard-response,31
true,2,2,2,2,true,d,false,true,0.0-2.0-0.6-0.57-3.57,1,0,0,68,false,stim,false,0,653.7999999998137,1,0,2,48534,task2,247210,false,false,256,image-keyboard-response,32
true,3,2,2,1,false,z,false,false,0.0-2.0-0.6-0.58-3.58,1,0,0,68,true,stim,true,2,572.4000000003725,1,0,2,48534,task2,249300,false,false,259,image-keyboard-response,1
true,3,0,2,2,false,d,false,false,0.0-2.0-0.6-0.59-3.59,1,0,0,81,false,stim,true,0,489.79999999981374,1,0,1,48534,task2,251309,false,false,262,image-keyboard-response,2
true,3,0,2,1,false,z,true,false,0.0-2.0-0.6-0.60-3.60,1,0,0,81,false,stim,false,1,1321.7000000001863,1,1,0,48534,task2,254152,false,false,265,image-keyboard-response,3
true,3,1,2,1,true,z,false,true,0.0-2.0-0.6-0.61-3.61,1,0,0,90,false,stim,false,1,923.3999999994412,1,1,0,48534,task2,256595,false,false,268,image-keyboard-response,4
true,3,1,2,2,false,d,true,false,0.0-2.0-0.6-0.62-3.62,1,0,0,90,false,stim,false,0,1163.2000000001863,1,0,1,48534,task2,259283,false,false,271,image-keyboard-response,5
true,3,0,2,1,false,z,true,false,0.0-2.0-0.7-0.63-3.63,1,0,0,81,false,stim,false,2,1094.3999999994412,1,0,2,48534,task2,261892,false,false,274,image-keyboard-response,6
true,3,2,2,2,true,d,false,false,0.0-2.0-0.7-0.64-3.64,1,0,0,68,false,stim,false,0,1273.5,1,0,1,48534,task2,264687,false,true,277,image-keyboard-response,7
true,3,0,2,2,false,d,false,false,0.0-2.0-0.7-0.65-3.65,1,0,0,81,false,stim,true,0,523.6000000005588,1,0,1,48534,task2,266738,false,false,280,image-keyboard-response,8
true,3,1,2,1,true,z,false,true,0.0-2.0-0.7-0.66-3.66,1,0,0,90,false,stim,false,1,1274.7999999998137,1,1,0,48534,task2,269535,false,false,283,image-keyboard-response,9
true,3,2,2,1,false,z,false,false,0.0-2.0-0.7-0.67-3.67,1,0,0,68,false,stim,true,2,1058.7999999998137,1,0,2,48534,task2,272125,false,false,286,image-keyboard-response,10
true,3,0,2,2,false,d,false,false,0.0-2.0-0.7-0.68-3.68,1,0,0,81,false,stim,true,0,1229.7999999998137,1,0,1,48534,task2,274880,false,false,289,image-keyboard-response,11
true,3,1,2,1,true,z,false,true,0.0-2.0-0.7-0.69-3.69,1,0,0,90,false,stim,false,1,803.0,1,1,0,48534,task2,277202,false,false,292,image-keyboard-response,12
true,3,1,2,1,true,z,false,true,0.0-2.0-0.7-0.70-3.70,1,0,0,90,false,stim,false,1,626.0,1,1,0,48534,task2,279345,false,false,295,image-keyboard-response,13
true,3,0,2,1,false,z,true,false,0.0-2.0-0.7-0.71-3.71,1,0,0,81,false,stim,false,2,1459.2000000001863,1,0,2,48534,task2,282328,false,false,298,image-keyboard-response,14
true,3,1,2,2,false,d,true,false,0.0-2.0-0.8-0.72-3.72,1,0,0,90,false,stim,false,0,820.0999999996275,1,0,1,48534,task2,284668,false,false,301,image-keyboard-response,15
true,3,2,2,1,false,z,false,true,0.0-2.0-0.8-0.73-3.73,1,0,0,68,false,stim,true,2,833.7999999998137,1,0,2,48534,task2,287021,false,true,304,image-keyboard-response,16
true,3,1,2,1,true,z,false,false,0.0-2.0-0.8-0.74-3.74,1,0,0,90,false,stim,false,1,706.5999999996275,1,1,0,48534,task2,289245,false,true,307,image-keyboard-response,17
true,3,2,2,1,false,z,false,false,0.0-2.0-0.8-0.75-3.75,1,0,0,68,false,stim,true,2,967.7999999998137,1,0,2,48534,task2,291735,false,false,310,image-keyboard-response,18
true,3,1,2,1,true,z,false,true,0.0-2.0-0.8-0.76-3.76,1,0,0,90,false,stim,false,1,794.5,1,1,0,48534,task2,294052,false,false,313,image-keyboard-response,19
true,3,2,2,2,true,d,false,true,0.0-2.0-0.8-0.77-3.77,1,0,0,68,false,stim,false,0,1167.7999999998137,1,0,1,48534,task2,296746,false,false,316,image-keyboard-response,20
true,3,1,2,1,true,z,false,true,0.0-2.0-0.8-0.78-3.78,1,0,0,90,false,stim,false,1,527.5999999996275,1,1,0,48534,task2,298801,false,false,319,image-keyboard-response,21
true,3,2,2,1,false,z,false,false,0.0-2.0-0.8-0.79-3.79,1,0,0,68,false,stim,true,2,590.6000000005588,1,0,2,48534,task2,300906,false,false,322,image-keyboard-response,22
true,3,2,2,2,true,d,false,true,0.0-2.0-0.8-0.80-3.80,1,0,0,68,false,stim,false,0,1311.3999999994412,1,0,1,48534,task2,303737,false,false,325,image-keyboard-response,23
true,3,2,2,2,true,d,false,true,0.0-2.0-0.9-0.81-3.81,1,0,0,68,false,stim,false,0,857.9000000003725,1,0,1,48534,task2,306119,false,false,328,image-keyboard-response,24
true,3,1,2,1,true,z,false,true,0.0-2.0-0.9-0.82-3.82,1,0,0,90,false,stim,false,1,629.9000000003725,1,1,0,48534,task2,308261,false,false,331,image-keyboard-response,25
true,3,2,2,2,true,d,false,true,0.0-2.0-0.9-0.83-3.83,1,0,0,68,false,stim,false,0,587.7999999998137,1,0,1,48534,task2,310369,false,false,334,image-keyboard-response,26
true,3,1,2,1,true,z,false,true,0.0-2.0-0.9-0.84-3.84,1,0,0,90,false,stim,false,1,525.5999999996275,1,0,0,48534,task2,312416,false,false,337,image-keyboard-response,27
true,3,1,2,1,true,z,false,true,0.0-2.0-0.9-0.85-3.85,1,0,0,90,false,stim,false,1,662.5,1,0,0,48534,task2,314598,false,false,340,image-keyboard-response,28
true,3,0,2,1,false,z,true,false,0.0-2.0-0.9-0.86-3.86,1,0,0,81,false,stim,false,2,815.4000000003725,1,0,2,48534,task2,316936,false,false,343,image-keyboard-response,29
true,3,2,2,2,true,d,false,true,0.0-2.0-0.9-0.87-3.87,1,0,0,68,false,stim,false,0,1567.5,1,0,1,48534,task2,320026,false,false,346,image-keyboard-response,30
true,3,1,2,1,true,z,false,true,0.0-2.0-0.9-0.88-3.88,1,0,0,90,false,stim,false,2,680.0,1,0,2,48534,task2,322219,false,false,349,image-keyboard-response,31
true,4,1,1,2,false,d,false,false,0.0-2.0-0.9-0.89-3.89,0,0,0,90,true,stim,true,1,651.1000000005588,1,0,2,48534,task2,324392,false,false,352,image-keyboard-response,1
true,4,2,1,0,false,q,false,false,0.0-2.0-0.10-0.90-3.90,0,0,0,68,false,stim,true,2,1140.0,1,0,1,48534,task2,327048,false,false,355,image-keyboard-response,2
true,4,1,1,2,false,d,false,true,0.0-2.0-0.10-0.91-3.91,0,0,0,90,false,stim,true,1,1781.5999999996275,1,0,2,48534,task2,330354,false,true,358,image-keyboard-response,3
true,4,2,1,0,false,q,false,false,0.0-2.0-0.10-0.92-3.92,0,0,0,68,false,stim,true,2,1054.6000000005588,1,0,1,48534,task2,332928,false,false,361,image-keyboard-response,4
true,4,1,1,2,false,d,false,false,0.0-2.0-0.10-0.93-3.93,0,0,0,90,false,stim,true,1,844.7999999998137,1,0,0,48534,task2,335287,false,false,364,image-keyboard-response,5
true,4,2,1,2,true,d,false,true,0.0-2.0-0.10-0.94-3.94,0,0,0,68,false,stim,false,1,642.0,1,0,0,48534,task2,337451,false,false,367,image-keyboard-response,6
true,4,1,1,2,false,d,false,true,0.0-2.0-0.10-0.95-3.95,0,0,0,90,false,stim,true,1,1822.0,1,0,2,48534,task2,340791,false,true,370,image-keyboard-response,7
true,4,2,1,2,true,d,false,true,0.0-2.0-0.10-0.96-3.96,0,0,0,68,false,stim,false,1,487.70000000018626,1,0,0,48534,task2,342801,false,false,373,image-keyboard-response,8
true,4,1,1,0,false,q,true,false,0.0-2.0-0.10-0.97-3.97,0,0,0,90,false,stim,false,2,661.7000000001863,1,0,1,48534,task2,344983,false,false,376,image-keyboard-response,9
true,4,1,1,2,false,d,false,false,0.0-2.0-0.10-0.98-3.98,0,0,0,90,false,stim,true,1,1243.0,1,0,2,48534,task2,347741,false,false,379,image-keyboard-response,10
true,4,0,1,0,true,q,false,true,0.0-2.0-0.11-0.99-3.99,0,0,0,81,false,stim,false,2,1738.4000000003725,1,0,1,48534,task2,351004,false,false,382,image-keyboard-response,11
true,4,2,1,2,true,d,false,true,0.0-2.0-0.11-0.100-3.100,0,0,0,68,false,stim,false,1,1087.699999999255,1,0,2,48534,task2,353614,false,false,385,image-keyboard-response,12
true,4,1,1,2,false,d,false,false,0.0-2.0-0.11-0.101-3.101,0,0,0,90,false,stim,true,1,805.7999999998137,1,0,0,48534,task2,355943,false,false,388,image-keyboard-response,13
true,4,0,1,0,true,q,false,true,0.0-2.0-0.11-0.102-3.102,0,0,0,81,false,stim,false,2,998.2999999998137,1,0,1,48534,task2,358459,false,false,391,image-keyboard-response,14
true,4,2,1,2,true,d,false,true,0.0-2.0-0.11-0.103-3.103,0,0,0,68,false,stim,false,1,812.7000000001863,1,0,0,48534,task2,360792,false,false,394,image-keyboard-response,15
true,4,0,1,0,true,q,false,true,0.0-2.0-0.11-0.104-3.104,0,0,0,81,false,stim,false,2,1035.7999999998137,1,0,1,48534,task2,363342,false,false,397,image-keyboard-response,16
true,4,2,1,2,true,d,false,true,0.0-2.0-0.11-0.105-3.105,0,0,0,68,false,stim,false,1,587.4000000003725,1,0,2,48534,task2,365450,false,false,400,image-keyboard-response,17
true,4,2,1,2,true,d,false,true,0.0-2.0-0.11-0.106-3.106,0,0,0,68,false,stim,false,1,575.5,1,0,2,48534,task2,367545,false,false,403,image-keyboard-response,18
true,4,2,1,2,true,d,false,true,0.0-2.0-0.11-0.107-3.107,0,0,0,68,false,stim,false,1,616.7999999998137,1,0,0,48534,task2,369689,false,false,406,image-keyboard-response,19
true,4,0,1,0,true,q,false,true,0.0-2.0-0.12-0.108-3.108,0,0,0,81,false,stim,false,2,330.80000000074506,1,0,1,48534,task2,371543,false,false,409,image-keyboard-response,20
true,4,2,1,2,true,d,false,true,0.0-2.0-0.12-0.109-3.109,0,0,0,68,false,stim,false,1,510.8999999994412,1,0,0,48534,task2,373583,false,false,412,image-keyboard-response,21
true,4,0,1,0,true,q,false,true,0.0-2.0-0.12-0.110-3.110,0,0,0,81,false,stim,false,2,1288.2000000001863,1,0,1,48534,task2,376387,false,false,415,image-keyboard-response,22
true,4,2,1,2,true,d,false,true,0.0-2.0-0.12-0.111-3.111,0,0,0,68,false,stim,false,1,543.0,1,0,0,48534,task2,378448,false,false,418,image-keyboard-response,23
true,4,2,1,2,true,d,false,true,0.0-2.0-0.12-0.112-3.112,0,0,0,68,false,stim,false,1,478.5,1,0,0,48534,task2,380442,false,false,421,image-keyboard-response,24
true,4,2,1,2,true,d,false,true,0.0-2.0-0.12-0.113-3.113,0,0,0,68,false,stim,false,1,696.9000000003725,1,0,2,48534,task2,382659,false,false,424,image-keyboard-response,25
true,4,2,1,2,true,d,false,true,0.0-2.0-0.12-0.114-3.114,0,0,0,68,false,stim,false,1,972.8999999994412,1,0,2,48534,task2,385150,false,false,427,image-keyboard-response,26
true,4,2,1,2,true,d,false,false,0.0-2.0-0.12-0.115-3.115,0,0,0,68,false,stim,false,1,508.29999999981374,1,0,2,48534,task2,387178,false,true,430,image-keyboard-response,27
true,4,0,1,0,true,q,false,true,0.0-2.0-0.12-0.116-3.116,0,0,0,81,false,stim,false,2,531.2999999998137,1,0,1,48534,task2,389233,false,false,433,image-keyboard-response,28
true,4,2,1,2,true,d,false,true,0.0-2.0-0.13-0.117-3.117,0,0,0,68,false,stim,false,1,783.3000000007451,1,0,0,48534,task2,391533,false,false,436,image-keyboard-response,29
true,4,2,1,2,true,d,false,true,0.0-2.0-0.13-0.118-3.118,0,0,0,68,false,stim,false,1,589.4000000003725,1,0,0,48534,task2,393646,false,false,439,image-keyboard-response,30
true,4,0,1,0,true,q,false,true,0.0-2.0-0.13-0.119-3.119,0,0,0,81,false,stim,false,2,1145.2000000001863,1,0,1,48534,task2,396319,false,false,442,image-keyboard-response,31
true,4,2,1,2,true,d,false,true,0.0-2.0-0.13-0.120-3.120,0,0,0,68,false,stim,false,1,571.5999999996275,1,0,0,48534,task2,398412,false,false,445,image-keyboard-response,32
true,4,0,1,0,true,q,false,true,0.0-2.0-0.13-0.121-3.121,0,0,0,81,false,stim,false,2,908.4000000003725,1,0,1,48534,task2,400839,false,false,448,image-keyboard-response,33
true,4,0,1,0,true,q,false,true,0.0-2.0-0.13-0.122-3.122,0,0,0,81,false,stim,false,2,711.3999999994412,1,0,1,48534,task2,403071,false,false,451,image-keyboard-response,34
true,4,1,1,2,false,d,false,false,0.0-2.0-0.13-0.123-3.123,0,0,0,90,false,stim,true,1,889.2000000001863,1,0,2,48534,task2,405485,false,false,454,image-keyboard-response,35
true,4,2,1,2,true,d,false,true,0.0-2.0-0.13-0.124-3.124,0,0,0,68,false,stim,false,1,786.4000000003725,1,0,2,48534,task2,407801,false,false,457,image-keyboard-response,36
true,5,2,1,1,false,z,false,false,0.0-2.0-0.13-0.125-3.125,0,0,0,68,true,stim,true,2,451.29999999981374,1,0,2,48534,task2,409777,false,false,460,image-keyboard-response,1
true,5,0,1,1,false,z,false,false,0.0-2.0-0.14-0.126-3.126,0,0,0,81,false,stim,true,0,841.7000000001863,1,0,1,48534,task2,412138,false,false,463,image-keyboard-response,2
true,5,2,1,0,false,q,false,false,0.0-2.0-0.14-0.127-3.127,0,0,0,68,false,stim,true,2,685.7999999998137,1,0,0,48534,task2,414350,false,false,466,image-keyboard-response,3
true,5,0,1,1,false,z,true,false,0.0-2.0-0.14-0.128-3.128,0,0,0,81,false,stim,false,2,843.0999999996275,1,0,2,48534,task2,416718,false,false,469,image-keyboard-response,4
true,5,2,1,1,false,z,false,false,0.0-2.0-0.14-0.129-3.129,0,0,0,68,false,stim,true,2,852.5999999996275,1,0,2,48534,task2,419095,false,false,472,image-keyboard-response,5
true,5,1,1,1,true,z,false,true,0.0-2.0-0.14-0.130-3.130,0,0,0,90,false,stim,false,2,527.5,1,0,2,48534,task2,421140,false,false,475,image-keyboard-response,6
true,5,2,1,1,false,z,true,false,0.0-2.0-0.14-0.131-3.131,0,0,0,68,false,stim,false,0,1249.5,1,0,1,48534,task2,423904,false,false,478,image-keyboard-response,7
true,5,1,1,0,false,q,true,false,0.0-2.0-0.14-0.132-3.132,0,0,0,90,false,stim,false,2,1121.7000000001863,1,0,0,48534,task2,426545,false,false,481,image-keyboard-response,8
true,5,0,1,0,true,q,false,true,0.0-2.0-0.14-0.133-3.133,0,0,0,81,false,stim,false,2,845.0,1,0,0,48534,task2,428913,false,false,484,image-keyboard-response,9
true,5,1,1,1,true,z,false,false,0.0-2.0-0.14-0.134-3.134,0,0,0,90,false,stim,false,0,1170.4000000003725,1,0,1,48534,task2,431602,false,true,487,image-keyboard-response,10
true,5,2,1,1,false,z,true,false,0.0-2.0-0.15-0.135-3.135,0,0,0,68,false,stim,false,0,599.5,1,0,1,48534,task2,433724,false,false,490,image-keyboard-response,11
true,5,1,1,1,true,z,false,true,0.0-2.0-0.15-0.136-3.136,0,0,0,90,false,stim,false,2,1047.2000000001863,1,0,2,48534,task2,436294,false,false,493,image-keyboard-response,12
true,5,0,1,0,true,q,false,true,0.0-2.0-0.15-0.137-3.137,0,0,0,81,false,stim,false,2,403.59999999962747,1,0,0,48534,task2,438217,false,false,496,image-keyboard-response,13
true,5,0,1,0,true,q,false,true,0.0-2.0-0.15-0.138-3.138,0,0,0,81,false,stim,false,2,710.3000000007451,1,0,0,48534,task2,440440,false,false,499,image-keyboard-response,14
true,5,1,1,1,true,z,false,true,0.0-2.0-0.15-0.139-3.139,0,0,0,90,false,stim,false,0,856.9000000003725,1,0,1,48534,task2,442813,false,false,502,image-keyboard-response,15
true,5,1,1,1,true,z,false,true,0.0-2.0-0.15-0.140-3.140,0,0,0,90,false,stim,false,0,579.8000000007451,1,0,1,48534,task2,444922,false,false,505,image-keyboard-response,16
true,5,0,1,1,false,z,true,false,0.0-2.0-0.15-0.141-3.141,0,0,0,81,false,stim,false,2,1204.2000000001863,1,0,2,48534,task2,447641,false,false,508,image-keyboard-response,17
true,5,0,1,0,true,q,false,true,0.0-2.0-0.15-0.142-3.142,0,0,0,81,false,stim,false,2,528.9000000003725,1,0,0,48534,task2,449693,false,false,511,image-keyboard-response,18
true,5,1,1,1,true,z,false,true,0.0-2.0-0.15-0.143-3.143,0,0,0,90,false,stim,false,2,1251.800000000745,1,0,2,48534,task2,452463,false,false,514,image-keyboard-response,19
true,5,1,1,1,true,z,false,true,0.0-2.0-0.16-0.144-3.144,0,0,0,90,false,stim,false,0,708.3000000007451,1,0,1,48534,task2,454681,false,false,517,image-keyboard-response,20
true,5,1,1,1,true,z,false,true,0.0-2.0-0.16-0.145-3.145,0,0,0,90,false,stim,false,2,519.5,1,0,2,48534,task2,456719,false,false,520,image-keyboard-response,21
true,5,0,1,0,true,q,false,true,0.0-2.0-0.16-0.146-3.146,0,0,0,81,false,stim,false,2,495.70000000018626,1,0,0,48534,task2,458741,false,false,523,image-keyboard-response,22
true,5,1,1,1,true,z,false,true,0.0-2.0-0.16-0.147-3.147,0,0,0,90,false,stim,false,2,409.40000000037253,1,0,2,48534,task2,460664,false,false,526,image-keyboard-response,23
true,5,1,1,1,true,z,false,true,0.0-2.0-0.16-0.148-3.148,0,0,0,90,false,stim,false,2,667.0,1,0,2,48534,task2,462858,false,false,529,image-keyboard-response,24
true,5,0,1,0,true,q,false,true,0.0-2.0-0.16-0.149-3.149,0,0,0,81,false,stim,false,2,559.8000000007451,1,0,0,48534,task2,464936,false,false,532,image-keyboard-response,25
true,5,1,1,1,true,z,false,true,0.0-2.0-0.16-0.150-3.150,0,0,0,90,false,stim,false,0,358.3999999994412,1,0,1,48534,task2,466819,false,false,535,image-keyboard-response,26
true,5,0,1,0,true,q,false,true,0.0-2.0-0.16-0.151-3.151,0,0,0,81,false,stim,false,2,481.59999999962747,1,0,0,48534,task2,468816,false,false,538,image-keyboard-response,27
true,5,1,1,1,true,z,false,true,0.0-2.0-0.16-0.152-3.152,0,0,0,90,false,stim,false,0,446.0,1,0,1,48534,task2,470779,false,false,541,image-keyboard-response,28
true,5,0,1,0,true,q,false,true,0.0-2.0-0.17-0.153-3.153,0,0,0,81,false,stim,false,2,469.3999999994412,1,0,0,48534,task2,472771,false,false,544,image-keyboard-response,29
true,5,1,1,1,true,z,false,true,0.0-2.0-0.17-0.154-3.154,0,0,0,90,false,stim,false,0,762.1000000005588,1,0,1,48534,task2,475049,false,false,547,image-keyboard-response,30
true,5,1,1,1,true,z,false,true,0.0-2.0-0.17-0.155-3.155,0,0,0,90,false,stim,false,0,423.0,1,0,1,48534,task2,476989,false,false,550,image-keyboard-response,31
true,5,1,1,1,true,z,false,false,0.0-2.0-0.17-0.156-3.156,0,0,0,90,false,stim,false,2,518.5999999996275,1,1,2,48534,task2,479022,false,true,553,image-keyboard-response,32
true,5,0,1,0,true,q,false,true,0.0-2.0-0.17-0.157-3.157,0,0,0,81,false,stim,false,2,474.90000000037253,1,0,0,48534,task2,481028,false,false,556,image-keyboard-response,33
true,5,2,1,1,false,z,false,false,0.0-2.0-0.17-0.158-3.158,0,0,0,68,false,stim,true,2,794.7000000001863,1,1,2,48534,task2,483340,false,false,559,image-keyboard-response,34
true,5,1,1,1,true,z,false,true,0.0-2.0-0.17-0.159-3.159,0,0,0,90,false,stim,false,2,1023.8999999994412,1,1,2,48534,task2,485886,false,false,562,image-keyboard-response,35
true,6,1,2,2,false,d,false,false,0.0-2.0-0.17-0.160-3.160,0,0,1,90,true,stim,true,1,822.7999999998137,1,0,1,48534,task2,488225,false,false,565,image-keyboard-response,1
true,6,0,2,2,false,d,false,false,0.0-2.0-0.17-0.161-3.161,0,0,1,81,false,stim,true,0,517.2000000001863,1,0,0,48534,task2,490259,false,false,568,image-keyboard-response,2
true,6,1,2,2,false,d,false,false,0.0-2.0-0.18-0.162-3.162,0,0,1,90,false,stim,true,1,2693.399999999441,1,0,1,48534,task2,494478,false,false,571,image-keyboard-response,3
true,6,0,2,2,false,d,false,false,0.0-2.0-0.18-0.163-3.163,0,0,1,81,false,stim,true,0,732.4000000003725,1,0,0,48534,task2,496727,false,false,574,image-keyboard-response,4
true,6,0,2,2,false,d,true,false,0.0-2.0-0.18-0.164-3.164,0,0,1,81,false,stim,false,1,720.7000000001863,1,0,1,48534,task2,498977,false,false,577,image-keyboard-response,5
true,6,1,2,2,false,d,true,false,0.0-2.0-0.18-0.165-3.165,0,0,1,90,false,stim,false,0,1110.0999999996275,1,0,0,48534,task2,501610,false,false,580,image-keyboard-response,6
true,6,1,2,1,true,z,false,true,0.0-2.0-0.18-0.166-3.166,0,0,1,90,false,stim,false,1,1343.4000000003725,1,1,2,48534,task2,504478,false,false,583,image-keyboard-response,7
true,6,1,2,1,true,z,false,true,0.0-2.0-0.18-0.167-3.167,0,0,1,90,false,stim,false,1,796.1999999992549,1,1,2,48534,task2,506797,false,false,586,image-keyboard-response,8
true,6,1,2,1,true,z,false,true,0.0-2.0-0.18-0.168-3.168,0,0,1,90,false,stim,false,1,901.2999999998137,1,1,2,48534,task2,509222,false,false,589,image-keyboard-response,9
true,6,2,2,2,true,d,false,true,0.0-2.0-0.18-0.169-3.169,0,0,1,68,false,stim,false,1,574.0,1,0,1,48534,task2,511315,false,false,592,image-keyboard-response,10
true,6,2,2,2,true,d,false,true,0.0-2.0-0.18-0.170-3.170,0,0,1,68,false,stim,false,0,834.2999999998137,1,0,0,48534,task2,513664,false,false,595,image-keyboard-response,11
true,6,2,2,2,true,d,false,false,0.0-2.0-0.19-0.171-3.171,0,0,1,68,false,stim,false,0,594.1000000005588,1,0,0,48534,task2,515783,false,true,598,image-keyboard-response,12
true,6,2,2,1,false,z,true,false,0.0-2.0-0.19-0.172-3.172,0,0,1,68,false,stim,false,1,960.3999999994412,1,1,2,48534,task2,518273,false,false,601,image-keyboard-response,13
true,6,1,2,1,true,z,false,true,0.0-2.0-0.19-0.173-3.173,0,0,1,90,false,stim,false,1,523.2999999998137,1,1,2,48534,task2,520302,false,false,604,image-keyboard-response,14
true,6,2,2,2,true,d,false,true,0.0-2.0-0.19-0.174-3.174,0,0,1,68,false,stim,false,1,463.29999999981374,1,0,1,48534,task2,522289,false,false,607,image-keyboard-response,15
true,6,2,2,2,true,d,false,false,0.0-2.0-0.19-0.175-3.175,0,0,1,68,false,stim,false,1,533.5,1,0,1,48534,task2,524339,false,true,610,image-keyboard-response,16
true,6,0,2,2,false,d,false,false,0.0-2.0-0.19-0.176-3.176,0,0,1,81,false,stim,true,0,1592.8999999994412,1,0,0,48534,task2,527456,false,false,613,image-keyboard-response,17
true,6,1,2,2,false,d,false,false,0.0-2.0-0.19-0.177-3.177,0,0,1,90,false,stim,true,1,1118.1000000005588,1,0,1,48534,task2,530102,false,false,616,image-keyboard-response,18
true,6,2,2,2,true,d,false,true,0.0-2.0-0.19-0.178-3.178,0,0,1,68,false,stim,false,0,1288.800000000745,1,0,0,48534,task2,532906,false,false,619,image-keyboard-response,19
true,6,2,2,1,false,z,true,false,0.0-2.0-0.19-0.179-3.179,0,0,1,68,false,stim,false,1,2143.0,1,1,2,48534,task2,536572,false,false,622,image-keyboard-response,20
true,6,1,2,1,true,z,false,false,0.0-2.0-0.20-0.180-3.180,0,0,1,90,false,stim,false,1,689.2999999998137,1,1,2,48534,task2,538786,false,true,625,image-keyboard-response,21
true,6,2,2,2,true,d,false,false,0.0-2.0-0.20-0.181-3.181,0,0,1,68,false,stim,false,1,1870.5,1,0,1,48534,task2,542183,false,true,628,image-keyboard-response,22
true,6,0,2,1,false,z,true,false,0.0-2.0-0.20-0.182-3.182,0,0,1,81,false,stim,false,1,1207.7999999998137,1,1,2,48534,task2,544909,false,false,631,image-keyboard-response,23
true,6,2,2,2,true,d,false,true,0.0-2.0-0.20-0.183-3.183,0,0,1,68,false,stim,false,0,649.7000000001863,1,0,0,48534,task2,547081,false,false,634,image-keyboard-response,24
true,6,1,2,2,false,d,false,false,0.0-2.0-0.20-0.184-3.184,0,0,1,90,false,stim,true,1,586.1999999992549,1,0,1,48534,task2,549190,false,false,637,image-keyboard-response,25
true,6,2,2,2,true,d,false,true,0.0-2.0-0.20-0.185-3.185,0,0,1,68,false,stim,false,0,427.3999999994412,1,0,0,48534,task2,551136,false,false,640,image-keyboard-response,26
true,6,1,2,1,true,z,false,true,0.0-2.0-0.20-0.186-3.186,0,0,1,90,false,stim,false,1,1193.1000000005588,1,1,2,48534,task2,553857,false,false,643,image-keyboard-response,27
true,6,2,2,2,true,d,false,true,0.0-2.0-0.20-0.187-3.187,0,0,1,68,false,stim,false,0,606.3999999994412,1,0,0,48534,task2,555981,false,false,646,image-keyboard-response,28
true,6,2,2,2,true,d,false,true,0.0-2.0-0.20-0.188-3.188,0,0,1,68,false,stim,false,1,934.7999999998137,1,0,1,48534,task2,558432,false,false,649,image-keyboard-response,29
true,6,2,2,2,true,d,false,true,0.0-2.0-0.21-0.189-3.189,0,0,1,68,false,stim,false,1,544.2000000001863,1,0,1,48534,task2,560499,false,false,652,image-keyboard-response,30
true,6,2,2,2,true,d,false,true,0.0-2.0-0.21-0.190-3.190,0,0,1,68,false,stim,false,1,480.90000000037253,1,0,1,48534,task2,562507,false,false,655,image-keyboard-response,31
true,6,1,2,1,true,z,false,true,0.0-2.0-0.21-0.191-3.191,0,0,1,90,false,stim,false,1,665.5999999996275,1,0,2,48534,task2,564690,false,false,658,image-keyboard-response,32
true,6,2,2,2,true,d,false,false,0.0-2.0-0.21-0.192-3.192,0,0,1,68,false,stim,false,0,1024.2000000001863,1,0,0,48534,task2,567236,false,true,661,image-keyboard-response,33
true,6,1,2,1,true,z,false,true,0.0-2.0-0.21-0.193-3.193,0,0,1,90,false,stim,false,1,1277.6000000005588,1,0,2,48534,task2,570029,false,false,664,image-keyboard-response,34
true,7,1,1,0,false,q,false,false,0.0-2.0-0.21-0.194-3.194,0,0,0,90,true,stim,true,1,476.1000000005588,1,0,2,48534,task2,572027,false,false,667,image-keyboard-response,1
true,7,0,1,0,true,q,false,true,0.0-2.0-0.21-0.195-3.195,0,0,0,81,false,stim,false,2,918.6000000005588,1,0,0,48534,task2,574470,false,false,670,image-keyboard-response,2
true,7,2,1,1,false,z,false,false,0.0-2.0-0.21-0.196-3.196,0,0,0,68,false,stim,true,2,1575.7000000001863,1,0,1,48534,task2,577560,false,false,673,image-keyboard-response,3
true,7,0,1,0,true,q,false,true,0.0-2.0-0.21-0.197-3.197,0,0,0,81,false,stim,false,2,771.8999999994412,1,0,0,48534,task2,579844,false,false,676,image-keyboard-response,4
true,7,1,1,0,false,q,false,false,0.0-2.0-0.22-0.198-3.198,0,0,0,90,false,stim,true,1,909.4000000003725,1,0,2,48534,task2,582268,false,false,679,image-keyboard-response,5
true,7,0,1,0,true,q,false,true,0.0-2.0-0.22-0.199-3.199,0,0,0,81,false,stim,false,2,518.1999999992549,1,0,0,48534,task2,584308,false,false,682,image-keyboard-response,6
true,7,2,1,0,false,q,true,false,0.0-2.0-0.22-0.200-3.200,0,0,0,68,false,stim,false,1,929.2999999998137,1,0,2,48534,task2,586751,false,false,685,image-keyboard-response,7
true,7,0,1,0,true,q,false,true,0.0-2.0-0.22-0.201-3.201,0,0,0,81,false,stim,false,2,822.2999999998137,1,0,0,48534,task2,589090,false,false,688,image-keyboard-response,8
true,7,0,1,1,false,z,true,false,0.0-2.0-0.22-0.202-3.202,0,0,0,81,false,stim,false,2,858.7000000001863,1,0,1,48534,task2,591464,false,false,691,image-keyboard-response,9
true,7,0,1,0,true,q,false,false,0.0-2.0-0.22-0.203-3.203,0,0,0,81,false,stim,false,1,567.7999999998137,1,0,2,48534,task2,593555,false,true,694,image-keyboard-response,10
true,7,0,1,0,true,q,false,true,0.0-2.0-0.22-0.204-3.204,0,0,0,81,false,stim,false,2,504.20000000018626,1,0,0,48534,task2,595580,false,false,697,image-keyboard-response,11
true,7,1,1,1,true,z,false,true,0.0-2.0-0.22-0.205-3.205,0,0,0,90,false,stim,false,2,1105.7000000001863,1,0,1,48534,task2,598206,false,false,700,image-keyboard-response,12
true,7,1,1,1,true,z,false,true,0.0-2.0-0.22-0.206-3.206,0,0,0,90,false,stim,false,2,548.2000000001863,1,0,1,48534,task2,600280,false,false,703,image-keyboard-response,13
true,7,0,1,0,true,q,false,true,0.0-2.0-0.23-0.207-3.207,0,0,0,81,false,stim,false,2,618.7999999998137,1,0,0,48534,task2,602419,false,false,706,image-keyboard-response,14
true,7,0,1,0,true,q,false,true,0.0-2.0-0.23-0.208-3.208,0,0,0,81,false,stim,false,1,1638.699999999255,1,0,2,48534,task2,605577,false,false,709,image-keyboard-response,15
true,7,1,1,1,true,z,false,true,0.0-2.0-0.23-0.209-3.209,0,0,0,90,false,stim,false,2,697.5,1,0,1,48534,task2,607795,false,false,712,image-keyboard-response,16
true,7,0,1,0,true,q,false,true,0.0-2.0-0.23-0.210-3.210,0,0,0,81,false,stim,false,2,515.8999999994412,1,0,0,48534,task2,609822,false,false,715,image-keyboard-response,17
true,7,0,1,0,true,q,false,true,0.0-2.0-0.23-0.211-3.211,0,0,0,81,false,stim,false,2,874.5999999996275,1,0,0,48534,task2,612213,false,false,718,image-keyboard-response,18
true,7,1,1,0,false,q,false,false,0.0-2.0-0.23-0.212-3.212,0,0,0,90,false,stim,true,1,554.5999999996275,1,0,2,48534,task2,614280,false,false,721,image-keyboard-response,19
true,7,2,1,0,false,q,true,false,0.0-2.0-0.23-0.213-3.213,0,0,0,68,false,stim,false,1,716.7000000001863,1,0,2,48534,task2,616519,false,false,724,image-keyboard-response,20
true,7,0,1,1,false,z,true,false,0.0-2.0-0.23-0.214-3.214,0,0,0,81,false,stim,false,2,524.6000000005588,1,0,1,48534,task2,618569,false,false,727,image-keyboard-response,21
true,7,1,1,1,true,z,false,true,0.0-2.0-0.23-0.215-3.215,0,0,0,90,false,stim,false,2,1119.5,1,0,1,48534,task2,621204,false,false,730,image-keyboard-response,22
true,7,0,1,0,true,q,false,true,0.0-2.0-0.24-0.216-3.216,0,0,0,81,false,stim,false,2,746.5,1,0,0,48534,task2,623475,false,false,733,image-keyboard-response,23
true,7,1,1,1,true,z,false,true,0.0-2.0-0.24-0.217-3.217,0,0,0,90,false,stim,false,2,448.3999999994412,1,0,1,48534,task2,625438,false,false,736,image-keyboard-response,24
true,7,1,1,1,true,z,false,true,0.0-2.0-0.24-0.218-3.218,0,0,0,90,false,stim,false,2,724.5999999996275,1,0,1,48534,task2,627681,false,false,739,image-keyboard-response,25
true,7,0,1,0,true,q,false,true,0.0-2.0-0.24-0.219-3.219,0,0,0,81,false,stim,false,2,610.2999999998137,1,0,0,48534,task2,629815,false,false,742,image-keyboard-response,26
true,7,0,1,0,true,q,false,false,0.0-2.0-0.24-0.220-3.220,0,0,0,81,false,stim,false,1,569.4000000003725,1,0,2,48534,task2,631911,false,true,745,image-keyboard-response,27
true,7,1,1,1,true,z,false,true,0.0-2.0-0.24-0.221-3.221,0,0,0,90,false,stim,false,2,668.2000000001863,1,0,1,48534,task2,634108,false,false,748,image-keyboard-response,28
true,7,1,1,0,false,q,false,false,0.0-2.0-0.24-0.222-3.222,0,0,0,90,false,stim,true,1,1516.0,1,0,2,48534,task2,637149,false,false,751,image-keyboard-response,29
true,7,0,1,0,true,q,false,true,0.0-2.0-0.24-0.223-3.223,0,0,0,81,false,stim,false,2,585.1000000005588,1,0,0,48534,task2,639251,false,false,754,image-keyboard-response,30
true,7,1,1,0,false,q,false,false,0.0-2.0-0.24-0.224-3.224,0,0,0,90,false,stim,true,1,849.5,1,0,2,48534,task2,641623,false,false,757,image-keyboard-response,31
true,7,1,1,1,true,z,false,true,0.0-2.0-0.25-0.225-3.225,0,0,0,90,false,stim,false,2,446.8999999994412,1,1,1,48534,task2,643581,false,false,760,image-keyboard-response,32
true,7,1,1,1,true,z,false,true,0.0-2.0-0.25-0.226-3.226,0,0,0,90,false,stim,false,2,1145.0,1,1,1,48534,task2,646250,false,false,763,image-keyboard-response,33
true,7,2,1,0,false,q,true,true,0.0-2.0-0.25-0.227-3.227,0,0,0,68,false,stim,false,1,534.7999999998137,1,0,2,48534,task2,648303,false,true,766,image-keyboard-response,34
true,8,0,2,2,false,d,false,false,0.0-2.0-0.25-0.228-3.228,0,1,0,81,true,stim,true,0,422.5,1,0,0,48534,task2,650249,false,false,769,image-keyboard-response,1
true,8,2,2,1,false,z,true,false,0.0-2.0-0.25-0.229-3.229,0,1,0,68,false,stim,false,0,846.8999999994412,1,0,2,48534,task2,652612,false,false,772,image-keyboard-response,2
true,8,1,2,2,false,d,true,false,0.0-2.0-0.25-0.230-3.230,0,1,0,90,false,stim,false,0,882.7999999998137,1,0,0,48534,task2,655020,false,false,775,image-keyboard-response,3
true,8,1,2,1,true,z,false,false,0.0-2.0-0.25-0.231-3.231,0,1,0,90,false,stim,false,0,976.7000000001863,1,0,2,48534,task2,657520,false,true,778,image-keyboard-response,4
true,8,0,2,1,false,z,true,false,0.0-2.0-0.25-0.232-3.232,0,1,0,81,false,stim,false,1,1111.5,1,1,1,48534,task2,660146,false,false,781,image-keyboard-response,5
true,8,0,2,2,false,d,false,false,0.0-2.0-0.25-0.233-3.233,0,1,0,81,false,stim,true,0,1041.9000000003725,1,0,0,48534,task2,662711,false,false,784,image-keyboard-response,6
true,8,1,2,1,true,z,false,true,0.0-2.0-0.26-0.234-3.234,0,1,0,90,false,stim,false,0,1581.8999999994412,1,0,2,48534,task2,665808,false,false,787,image-keyboard-response,7
true,8,1,2,2,false,d,true,true,0.0-2.0-0.26-0.235-3.235,0,1,0,90,false,stim,false,0,983.0999999996275,1,0,0,48534,task2,668307,false,true,790,image-keyboard-response,8
true,8,1,2,2,false,d,true,false,0.0-2.0-0.26-0.236-3.236,0,1,0,90,false,stim,false,0,544.2999999998137,1,0,0,48534,task2,670366,false,false,793,image-keyboard-response,9
true,8,0,2,1,false,z,true,true,0.0-2.0-0.26-0.237-3.237,0,1,0,81,false,stim,false,1,1021.3000000007451,1,1,1,48534,task2,672902,false,true,796,image-keyboard-response,10
true,8,0,2,1,false,z,true,false,0.0-2.0-0.26-0.238-3.238,0,1,0,81,false,stim,false,1,688.7999999998137,1,1,1,48534,task2,675105,false,false,799,image-keyboard-response,11
true,8,1,2,1,true,z,false,true,0.0-2.0-0.26-0.239-3.239,0,1,0,90,false,stim,false,0,668.5999999996275,1,0,2,48534,task2,677302,false,false,802,image-keyboard-response,12
true,8,2,2,1,false,z,true,false,0.0-2.0-0.26-0.240-3.240,0,1,0,68,false,stim,false,1,1426.9000000003725,1,1,1,48534,task2,680246,false,false,805,image-keyboard-response,13
true,8,1,2,1,true,z,false,true,0.0-2.0-0.26-0.241-3.241,0,1,0,90,false,stim,false,0,653.0,1,0,2,48534,task2,682429,false,false,808,image-keyboard-response,14
true,8,1,2,2,false,d,true,false,0.0-2.0-0.26-0.242-3.242,0,1,0,90,false,stim,false,0,1028.9000000003725,1,0,0,48534,task2,684971,false,false,811,image-keyboard-response,15
true,8,2,2,2,true,d,false,true,0.0-2.0-0.27-0.243-3.243,0,1,0,68,false,stim,false,0,780.3000000007451,1,0,0,48534,task2,687266,false,false,814,image-keyboard-response,16
true,8,1,2,1,true,z,false,false,0.0-2.0-0.27-0.244-3.244,0,1,0,90,false,stim,false,0,380.0,1,0,2,48534,task2,689165,false,true,817,image-keyboard-response,17
true,8,1,2,1,true,z,false,true,0.0-2.0-0.27-0.245-3.245,0,1,0,90,false,stim,false,1,442.3999999994412,1,1,1,48534,task2,691118,false,false,820,image-keyboard-response,18
true,8,1,2,1,true,z,false,true,0.0-2.0-0.27-0.246-3.246,0,1,0,90,false,stim,false,1,797.2999999998137,1,1,1,48534,task2,693439,false,false,823,image-keyboard-response,19
true,8,0,2,1,false,z,false,false,0.0-2.0-0.27-0.247-3.247,0,1,0,81,false,stim,true,0,1079.5,1,0,2,48534,task2,696045,false,false,826,image-keyboard-response,20
true,8,1,2,1,true,z,false,false,0.0-2.0-0.27-0.248-3.248,0,1,0,90,false,stim,false,1,511.40000000037253,1,1,1,48534,task2,698084,false,true,829,image-keyboard-response,21
true,8,2,2,2,true,d,false,false,0.0-2.0-0.27-0.249-3.249,0,1,0,68,false,stim,false,0,1118.4000000003725,1,0,0,48534,task2,700720,false,true,832,image-keyboard-response,22
true,8,0,2,2,false,d,false,false,0.0-2.0-0.27-0.250-3.250,0,1,0,81,false,stim,true,0,435.1000000005588,1,0,0,48534,task2,702673,false,false,835,image-keyboard-response,23
true,8,1,2,1,true,z,false,true,0.0-2.0-0.27-0.251-3.251,0,1,0,90,false,stim,false,0,1108.2999999998137,1,0,2,48534,task2,705298,false,false,838,image-keyboard-response,24
true,8,1,2,1,true,z,false,true,0.0-2.0-0.28-0.252-3.252,0,1,0,90,false,stim,false,1,1426.199999999255,1,1,1,48534,task2,708256,false,false,841,image-keyboard-response,25
true,8,2,2,2,true,d,false,true,0.0-2.0-0.28-0.253-3.253,0,1,0,68,false,stim,false,0,697.7999999998137,1,0,0,48534,task2,710466,false,false,844,image-keyboard-response,26
true,8,1,2,1,true,z,false,true,0.0-2.0-0.28-0.254-3.254,0,1,0,90,false,stim,false,0,1017.2999999998137,1,0,2,48534,task2,713002,false,false,847,image-keyboard-response,27
true,8,1,2,1,true,z,false,true,0.0-2.0-0.28-0.255-3.255,0,1,0,90,false,stim,false,0,595.9000000003725,1,0,2,48534,task2,715121,false,false,850,image-keyboard-response,28
true,8,1,2,1,true,z,false,true,0.0-2.0-0.28-0.256-3.256,0,1,0,90,false,stim,false,0,566.5999999996275,1,0,2,48534,task2,717203,false,false,853,image-keyboard-response,29
true,8,2,2,1,false,z,true,false,0.0-2.0-0.28-0.257-3.257,0,1,0,68,false,stim,false,1,714.3000000007451,1,0,1,48534,task2,719447,false,false,856,image-keyboard-response,30
true,8,2,2,2,true,d,false,true,0.0-2.0-0.28-0.258-3.258,0,1,0,68,false,stim,false,0,802.2000000001863,1,0,0,48534,task2,721768,false,false,859,image-keyboard-response,31
true,8,0,2,1,false,z,true,false,0.0-2.0-0.28-0.259-3.259,0,1,0,81,false,stim,false,1,1283.4000000003725,1,0,1,48534,task2,724571,false,false,862,image-keyboard-response,32
true,8,2,2,2,true,d,false,true,0.0-2.0-0.28-0.260-3.260,0,1,0,68,false,stim,false,0,821.0,1,0,0,48534,task2,726909,false,false,865,image-keyboard-response,33
true,8,1,2,1,true,z,false,true,0.0-2.0-0.29-0.261-3.261,0,1,0,90,false,stim,false,1,404.79999999981374,1,0,1,48534,task2,728833,false,false,868,image-keyboard-response,34
true,9,1,1,0,false,q,false,false,0.0-2.0-0.29-0.262-3.262,0,0,0,90,true,stim,true,1,414.19999999925494,1,0,1,48534,task2,730770,false,false,871,image-keyboard-response,1
true,9,2,1,0,false,q,true,false,0.0-2.0-0.29-0.263-3.263,0,0,0,68,false,stim,false,1,775.0,1,0,1,48534,task2,733066,false,false,874,image-keyboard-response,2
true,9,2,1,0,false,q,false,false,0.0-2.0-0.29-0.264-3.264,0,0,0,68,false,stim,true,2,870.2000000001863,1,0,0,48534,task2,735451,false,false,877,image-keyboard-response,3
true,9,0,1,0,true,q,false,true,0.0-2.0-0.29-0.265-3.265,0,0,0,81,false,stim,false,2,611.5,1,0,0,48534,task2,737577,false,false,880,image-keyboard-response,4
true,9,0,1,0,true,q,false,true,0.0-2.0-0.29-0.266-3.266,0,0,0,81,false,stim,false,2,389.80000000074506,1,0,0,48534,task2,739491,false,false,883,image-keyboard-response,5
true,9,2,1,2,true,d,false,true,0.0-2.0-0.29-0.267-3.267,0,0,0,68,false,stim,false,1,1506.7999999998137,1,0,2,48534,task2,742516,false,false,886,image-keyboard-response,6
true,9,2,1,2,true,d,false,true,0.0-2.0-0.29-0.268-3.268,0,0,0,68,false,stim,false,1,510.20000000018626,1,0,2,48534,task2,744540,false,false,889,image-keyboard-response,7
true,9,2,1,2,true,d,false,true,0.0-2.0-0.29-0.269-3.269,0,0,0,68,false,stim,false,1,415.30000000074506,1,0,2,48534,task2,746472,false,false,892,image-keyboard-response,8
true,9,2,1,2,true,d,false,true,0.0-2.0-0.30-0.270-3.270,0,0,0,68,false,stim,false,1,442.0,1,0,2,48534,task2,748429,false,false,895,image-keyboard-response,9
true,9,0,1,0,true,q,false,true,0.0-2.0-0.30-0.271-3.271,0,0,0,81,false,stim,false,2,461.8999999994412,1,0,0,48534,task2,750415,false,false,898,image-keyboard-response,10
true,9,1,1,0,false,q,false,true,0.0-2.0-0.30-0.272-3.272,0,0,0,90,false,stim,true,1,1098.5999999996275,1,0,1,48534,task2,753036,false,true,901,image-keyboard-response,11
true,9,1,1,0,false,q,false,false,0.0-2.0-0.30-0.273-3.273,0,0,0,90,false,stim,true,1,467.8999999994412,1,0,1,48534,task2,755028,false,false,904,image-keyboard-response,12
true,9,2,1,2,true,d,false,true,0.0-2.0-0.30-0.274-3.274,0,0,0,68,false,stim,false,1,522.0,1,0,2,48534,task2,757074,false,false,907,image-keyboard-response,13
true,9,0,1,0,true,q,false,false,0.0-2.0-0.30-0.275-3.275,0,0,0,81,false,stim,false,1,784.7999999998137,1,0,1,48534,task2,759386,false,true,910,image-keyboard-response,14
true,9,0,1,0,true,q,false,false,0.0-2.0-0.30-0.276-3.276,0,0,0,81,false,stim,false,2,743.2999999998137,1,0,0,48534,task2,761655,false,true,913,image-keyboard-response,15
true,9,2,1,2,true,d,false,true,0.0-2.0-0.30-0.277-3.277,0,0,0,68,false,stim,false,1,886.8999999994412,1,0,2,48534,task2,764056,false,false,916,image-keyboard-response,16
true,9,1,1,0,false,q,true,false,0.0-2.0-0.30-0.278-3.278,0,0,0,90,false,stim,false,2,405.0,1,0,0,48534,task2,765986,false,false,919,image-keyboard-response,17
true,9,2,1,0,false,q,true,false,0.0-2.0-0.31-0.279-3.279,0,0,0,68,false,stim,false,1,766.5,1,0,1,48534,task2,768270,false,false,922,image-keyboard-response,18
true,9,2,1,2,true,d,false,true,0.0-2.0-0.31-0.280-3.280,0,0,0,68,false,stim,false,1,407.20000000018626,1,0,2,48534,task2,770201,false,false,925,image-keyboard-response,19
true,9,2,1,0,false,q,false,false,0.0-2.0-0.31-0.281-3.281,0,0,0,68,false,stim,true,2,890.0,1,0,0,48534,task2,772620,false,false,928,image-keyboard-response,20
true,9,2,1,0,false,q,true,false,0.0-2.0-0.31-0.282-3.282,0,0,0,68,false,stim,false,1,1382.8999999994412,1,0,1,48534,task2,775527,false,false,931,image-keyboard-response,21
true,9,0,1,0,true,q,false,true,0.0-2.0-0.31-0.283-3.283,0,0,0,81,false,stim,false,2,866.0999999996275,1,0,0,48534,task2,777912,false,false,934,image-keyboard-response,22
true,9,2,1,2,true,d,false,false,0.0-2.0-0.31-0.284-3.284,0,0,0,68,false,stim,false,1,1279.1000000005588,1,0,2,48534,task2,780710,false,true,937,image-keyboard-response,23
true,9,1,1,2,false,d,false,false,0.0-2.0-0.31-0.285-3.285,0,0,0,90,false,stim,true,1,685.2000000001863,1,0,2,48534,task2,782918,false,false,940,image-keyboard-response,24
true,9,0,1,0,true,q,false,true,0.0-2.0-0.31-0.286-3.286,0,0,0,81,false,stim,false,2,443.20000000018626,1,0,0,48534,task2,784888,false,false,943,image-keyboard-response,25
true,9,0,1,0,true,q,false,true,0.0-2.0-0.31-0.287-3.287,0,0,0,81,false,stim,false,1,612.2999999998137,1,0,1,48534,task2,787022,false,false,946,image-keyboard-response,26
true,9,0,1,0,true,q,false,true,0.0-2.0-0.32-0.288-3.288,0,0,0,81,false,stim,false,1,1459.9000000003725,1,0,1,48534,task2,790007,false,false,949,image-keyboard-response,27
true,9,0,1,0,true,q,false,false,0.0-2.0-0.32-0.289-3.289,0,0,0,81,false,stim,false,2,595.6000000005588,1,0,0,48534,task2,792128,false,true,952,image-keyboard-response,28
true,9,0,1,2,false,d,true,false,0.0-2.0-0.32-0.290-3.290,0,0,0,81,false,stim,false,1,1161.0999999996275,1,0,2,48534,task2,794817,false,false,955,image-keyboard-response,29
true,9,1,1,2,false,d,false,false,0.0-2.0-0.32-0.291-3.291,0,0,0,90,false,stim,true,1,857.1000000005588,1,0,2,48534,task2,797195,false,false,958,image-keyboard-response,30
true,9,0,1,0,true,q,false,true,0.0-2.0-0.32-0.292-3.292,0,0,0,81,false,stim,false,1,1070.0,1,0,1,48534,task2,799784,false,false,961,image-keyboard-response,31
true,9,2,1,0,false,q,false,false,0.0-2.0-0.32-0.293-3.293,0,0,0,68,false,stim,true,2,2017.3999999994412,1,0,0,48534,task2,803317,false,false,964,image-keyboard-response,32
true,9,1,1,0,false,q,true,false,0.0-2.0-0.32-0.294-3.294,0,0,0,90,false,stim,false,2,581.7999999998137,1,0,0,48534,task2,805421,false,false,967,image-keyboard-response,33
true,9,0,1,0,true,q,false,true,0.0-2.0-0.32-0.295-3.295,0,0,0,81,false,stim,false,1,614.2000000001863,1,0,1,48534,task2,807556,false,false,970,image-keyboard-response,34
true,9,2,1,2,true,d,false,true,0.0-2.0-0.32-0.296-3.296,0,0,0,68,false,stim,false,1,1092.2999999998137,1,0,2,48534,task2,810176,false,false,973,image-keyboard-response,35
true,9,0,1,0,true,q,false,true,0.0-2.0-0.33-0.297-3.297,0,0,0,81,false,stim,false,1,944.5,1,0,1,48534,task2,812645,false,false,976,image-keyboard-response,36
true,10,0,1,2,false,d,false,false,0.0-2.0-0.33-0.298-3.298,0,0,0,81,true,stim,true,0,514.7999999998137,1,0,1,48534,task2,814679,false,false,979,image-keyboard-response,1
true,10,2,1,0,false,q,false,false,0.0-2.0-0.33-0.299-3.299,0,0,0,68,false,stim,true,2,803.0999999996275,1,0,2,48534,task2,816999,false,false,982,image-keyboard-response,2
true,10,0,1,2,false,d,false,false,0.0-2.0-0.33-0.300-3.300,0,0,0,81,false,stim,true,0,722.5,1,0,0,48534,task2,819245,false,false,985,image-keyboard-response,3
true,10,1,1,2,false,d,true,false,0.0-2.0-0.33-0.301-3.301,0,0,0,90,false,stim,false,0,712.7999999998137,1,0,0,48534,task2,821480,false,false,988,image-keyboard-response,4
true,10,1,1,2,false,d,true,false,0.0-2.0-0.33-0.302-3.302,0,0,0,90,false,stim,false,0,890.5,1,0,1,48534,task2,823892,false,false,991,image-keyboard-response,5
true,10,2,1,2,true,d,false,true,0.0-2.0-0.33-0.303-3.303,0,0,0,68,false,stim,false,0,1191.4000000003725,1,0,0,48534,task2,826598,false,false,994,image-keyboard-response,6
true,10,1,1,0,false,q,true,true,0.0-2.0-0.33-0.304-3.304,0,0,0,90,false,stim,false,2,974.2999999998137,1,0,2,48534,task2,829092,false,true,997,image-keyboard-response,7
true,10,1,1,0,false,q,true,false,0.0-2.0-0.33-0.305-3.305,0,0,0,90,false,stim,false,2,539.5999999996275,1,0,2,48534,task2,831154,false,false,1000,image-keyboard-response,8
true,10,0,1,0,true,q,false,true,0.0-2.0-0.34-0.306-3.306,0,0,0,81,false,stim,false,2,1153.5,1,0,2,48534,task2,833828,false,false,1003,image-keyboard-response,9
true,10,2,1,2,true,d,false,true,0.0-2.0-0.34-0.307-3.307,0,0,0,68,false,stim,false,0,1172.6000000005588,1,0,1,48534,task2,836520,false,false,1006,image-keyboard-response,10
true,10,0,1,0,true,q,false,true,0.0-2.0-0.34-0.308-3.308,0,0,0,81,false,stim,false,2,950.7999999998137,1,0,2,48534,task2,838998,false,false,1009,image-keyboard-response,11
true,10,2,1,2,true,d,false,true,0.0-2.0-0.34-0.309-3.309,0,0,0,68,false,stim,false,0,407.20000000018626,1,0,0,48534,task2,840918,false,false,1012,image-keyboard-response,12
true,10,2,1,2,true,d,false,true,0.0-2.0-0.34-0.310-3.310,0,0,0,68,false,stim,false,0,1376.8999999994412,1,0,0,48534,task2,843816,false,false,1015,image-keyboard-response,13
true,10,2,1,2,true,d,false,true,0.0-2.0-0.34-0.311-3.311,0,0,0,68,false,stim,false,0,1659.4000000003725,1,0,1,48534,task2,846994,false,false,1018,image-keyboard-response,14
true,10,0,1,0,true,q,false,true,0.0-2.0-0.34-0.312-3.312,0,0,0,81,false,stim,false,2,735.9000000003725,1,0,2,48534,task2,849248,false,false,1021,image-keyboard-response,15
true,10,2,1,2,true,d,false,true,0.0-2.0-0.34-0.313-3.313,0,0,0,68,false,stim,false,0,555.7999999998137,1,0,1,48534,task2,851331,false,false,1024,image-keyboard-response,16
true,10,2,1,2,true,d,false,true,0.0-2.0-0.34-0.314-3.314,0,0,0,68,false,stim,false,0,501.0,1,0,0,48534,task2,853348,false,false,1027,image-keyboard-response,17
true,10,2,1,2,true,d,false,true,0.0-2.0-0.35-0.315-3.315,0,0,0,68,false,stim,false,0,1437.0999999996275,1,0,1,48534,task2,856312,false,false,1030,image-keyboard-response,18
true,10,2,1,2,true,d,false,false,0.0-2.0-0.35-0.316-3.316,0,0,0,68,false,stim,false,0,720.3000000007451,1,0,1,48534,task2,858555,false,true,1033,image-keyboard-response,19
true,10,0,1,0,true,q,false,false,0.0-2.0-0.35-0.317-3.317,0,0,0,81,false,stim,false,2,938.7000000001863,1,0,2,48534,task2,861003,false,true,1036,image-keyboard-response,20
true,10,1,1,0,false,q,true,false,0.0-2.0-0.35-0.318-3.318,0,0,0,90,false,stim,false,2,1058.8999999994412,1,0,2,48534,task2,863590,false,false,1039,image-keyboard-response,21
true,10,2,1,2,true,d,false,false,0.0-2.0-0.35-0.319-3.319,0,0,0,68,false,stim,false,0,745.7999999998137,1,0,1,48534,task2,865855,false,true,1042,image-keyboard-response,22
true,10,2,1,2,true,d,false,true,0.0-2.0-0.35-0.320-3.320,0,0,0,68,false,stim,false,0,675.6999999992549,1,0,0,48534,task2,868046,false,false,1045,image-keyboard-response,23
true,10,2,1,0,false,q,false,false,0.0-2.0-0.35-0.321-3.321,0,0,0,68,false,stim,true,2,1016.7999999998137,1,0,2,48534,task2,870586,false,false,1048,image-keyboard-response,24
true,10,2,1,2,true,d,false,true,0.0-2.0-0.35-0.322-3.322,0,0,0,68,false,stim,false,0,752.0,1,0,0,48534,task2,872860,false,false,1051,image-keyboard-response,25
true,10,2,1,2,true,d,false,true,0.0-2.0-0.35-0.323-3.323,0,0,0,68,false,stim,false,0,571.4000000003725,1,0,0,48534,task2,874954,false,false,1054,image-keyboard-response,26
true,10,2,1,2,true,d,false,true,0.0-2.0-0.36-0.324-3.324,0,0,0,68,false,stim,false,0,524.3999999994412,1,0,0,48534,task2,876999,false,false,1057,image-keyboard-response,27
true,10,2,1,2,true,d,false,true,0.0-2.0-0.36-0.325-3.325,0,0,0,68,false,stim,false,0,437.90000000037253,1,0,0,48534,task2,878959,false,false,1060,image-keyboard-response,28
true,10,2,1,2,true,d,false,true,0.0-2.0-0.36-0.326-3.326,0,0,0,68,false,stim,false,0,463.29999999981374,1,0,0,48534,task2,880951,false,false,1063,image-keyboard-response,29
true,10,1,1,2,false,d,true,false,0.0-2.0-0.36-0.327-3.327,0,0,0,90,false,stim,false,0,652.8999999994412,1,0,1,48534,task2,883120,false,false,1066,image-keyboard-response,30
true,10,2,1,2,true,d,false,true,0.0-2.0-0.36-0.328-3.328,0,0,0,68,false,stim,false,0,625.5999999996275,1,0,1,48534,task2,885269,false,false,1069,image-keyboard-response,31
true,10,2,1,2,true,d,false,true,0.0-2.0-0.36-0.329-3.329,0,0,0,68,false,stim,false,0,681.1999999992549,1,0,1,48534,task2,887464,false,false,1072,image-keyboard-response,32
true,10,0,1,0,true,q,false,true,0.0-2.0-0.36-0.330-3.330,0,0,0,81,false,stim,false,2,939.0999999996275,1,0,2,48534,task2,889922,false,false,1075,image-keyboard-response,33
true,10,0,1,0,true,q,false,false,0.0-2.0-0.36-0.331-3.331,0,0,0,81,false,stim,false,2,435.5,1,0,2,48534,task2,891883,false,true,1078,image-keyboard-response,34
true,10,1,1,0,false,q,true,false,0.0-2.0-0.36-0.332-3.332,0,0,0,90,false,stim,false,2,1161.0,1,0,2,48534,task2,894568,false,false,1081,image-keyboard-response,35
true,10,2,1,2,true,d,false,true,0.0-2.0-0.37-0.333-3.333,0,0,0,68,false,stim,false,0,878.2000000001863,1,0,1,48534,task2,896962,false,false,1084,image-keyboard-response,36
true,10,2,1,2,true,d,false,true,0.0-2.0-0.37-0.334-3.334,0,0,0,68,false,stim,false,0,453.70000000018626,1,0,1,48534,task2,898940,false,false,1087,image-keyboard-response,37
true,10,2,1,0,false,q,false,true,0.0-2.0-0.37-0.335-3.335,0,0,0,68,false,stim,true,2,1071.0,1,0,2,48534,task2,901540,false,true,1090,image-keyboard-response,38
true,11,0,1,0,true,q,false,true,0.0-2.0-0.37-0.336-3.336,0,0,0,81,true,stim,false,2,595.0,1,0,0,48534,task2,903663,false,false,1093,image-keyboard-response,1
true,11,2,1,1,false,z,true,true,0.0-2.0-0.37-0.337-3.337,0,0,0,68,false,stim,false,0,553.5,1,0,2,48534,task2,905741,false,true,1096,image-keyboard-response,2
true,11,0,1,0,true,q,false,true,0.0-2.0-0.37-0.338-3.338,0,0,0,81,false,stim,false,2,563.9000000003725,1,0,0,48534,task2,907822,false,false,1099,image-keyboard-response,3
true,11,0,1,0,true,q,false,true,0.0-2.0-0.37-0.339-3.339,0,0,0,81,false,stim,false,2,665.7999999998137,1,0,0,48534,task2,910014,false,false,1102,image-keyboard-response,4
true,11,2,1,0,false,q,false,false,0.0-2.0-0.37-0.340-3.340,0,0,0,68,false,stim,true,2,446.8999999994412,1,0,1,48534,task2,911975,false,false,1105,image-keyboard-response,5
true,11,2,1,1,false,z,true,false,0.0-2.0-0.37-0.341-3.341,0,0,0,68,false,stim,false,0,566.0999999996275,1,0,2,48534,task2,914058,false,false,1108,image-keyboard-response,6
true,11,1,1,1,true,z,false,true,0.0-2.0-0.38-0.342-3.342,0,0,0,90,false,stim,false,0,810.1000000005588,1,0,2,48534,task2,916391,false,false,1111,image-keyboard-response,7
true,11,1,1,0,false,q,true,false,0.0-2.0-0.38-0.343-3.343,0,0,0,90,false,stim,false,2,783.6999999992549,1,0,1,48534,task2,918691,false,false,1114,image-keyboard-response,8
true,11,1,1,1,true,z,false,true,0.0-2.0-0.38-0.344-3.344,0,0,0,90,false,stim,false,0,1201.5999999996275,1,0,2,48534,task2,921411,false,false,1117,image-keyboard-response,9
true,11,1,1,1,true,z,false,false,0.0-2.0-0.38-0.345-3.345,0,0,0,90,false,stim,false,0,653.3000000007451,1,0,2,48534,task2,923587,false,true,1120,image-keyboard-response,10
true,11,0,1,0,true,q,false,true,0.0-2.0-0.38-0.346-3.346,0,0,0,81,false,stim,false,2,632.0,1,0,0,48534,task2,925740,false,false,1123,image-keyboard-response,11
true,11,0,1,0,true,q,false,true,0.0-2.0-0.38-0.347-3.347,0,0,0,81,false,stim,false,2,577.4000000003725,1,0,0,48534,task2,927839,false,false,1126,image-keyboard-response,12
true,11,0,1,0,true,q,false,true,0.0-2.0-0.38-0.348-3.348,0,0,0,81,false,stim,false,2,683.5,1,0,1,48534,task2,930035,false,false,1129,image-keyboard-response,13
true,11,0,1,0,true,q,false,false,0.0-2.0-0.38-0.349-3.349,0,0,0,81,false,stim,false,2,518.0,1,0,0,48534,task2,932082,false,true,1132,image-keyboard-response,14
true,11,0,1,0,true,q,false,true,0.0-2.0-0.38-0.350-3.350,0,0,0,81,false,stim,false,2,382.0,1,0,1,48534,task2,933991,false,false,1135,image-keyboard-response,15
true,11,0,1,1,false,z,false,false,0.0-2.0-0.39-0.351-3.351,0,0,0,81,false,stim,true,0,1112.800000000745,1,0,2,48534,task2,936617,false,false,1138,image-keyboard-response,16
true,11,1,1,1,true,z,false,true,0.0-2.0-0.39-0.352-3.352,0,0,0,90,false,stim,false,0,852.7000000001863,1,0,2,48534,task2,938990,false,false,1141,image-keyboard-response,17
true,11,2,1,0,false,q,false,false,0.0-2.0-0.39-0.353-3.353,0,0,0,68,false,stim,true,2,922.7000000001863,1,0,0,48534,task2,941429,false,false,1144,image-keyboard-response,18
true,11,1,1,1,true,z,false,true,0.0-2.0-0.39-0.354-3.354,0,0,0,90,false,stim,false,0,1953.9000000003725,1,0,2,48534,task2,944911,false,false,1147,image-keyboard-response,19
true,11,0,1,0,true,q,false,true,0.0-2.0-0.39-0.355-3.355,0,0,0,81,false,stim,false,2,929.7999999998137,1,0,0,48534,task2,947372,false,false,1150,image-keyboard-response,20
true,11,0,1,0,true,q,false,true,0.0-2.0-0.39-0.356-3.356,0,0,0,81,false,stim,false,2,1246.6000000005588,1,0,1,48534,task2,950135,false,false,1153,image-keyboard-response,21
true,11,0,1,0,true,q,false,true,0.0-2.0-0.39-0.357-3.357,0,0,0,81,false,stim,false,2,493.0,1,0,1,48534,task2,952154,false,false,1156,image-keyboard-response,22
true,11,0,1,0,true,q,false,true,0.0-2.0-0.39-0.358-3.358,0,0,0,81,false,stim,false,2,482.30000000074506,1,0,1,48534,task2,954155,false,false,1159,image-keyboard-response,23
true,11,0,1,0,true,q,false,true,0.0-2.0-0.39-0.359-3.359,0,0,0,81,false,stim,false,2,584.0,1,0,0,48534,task2,956270,false,false,1162,image-keyboard-response,24
true,11,0,1,0,true,q,false,true,0.0-2.0-0.40-0.360-3.360,0,0,0,81,false,stim,false,2,599.5,1,0,1,48534,task2,958392,false,false,1165,image-keyboard-response,25
true,11,1,1,1,true,z,false,true,0.0-2.0-0.40-0.361-3.361,0,0,0,90,false,stim,false,0,550.8000000007451,1,0,2,48534,task2,960473,false,false,1168,image-keyboard-response,26
true,11,0,1,0,true,q,false,true,0.0-2.0-0.40-0.362-3.362,0,0,0,81,false,stim,false,2,667.4000000003725,1,0,1,48534,task2,962661,false,false,1171,image-keyboard-response,27
true,11,1,1,0,false,q,true,false,0.0-2.0-0.40-0.363-3.363,0,0,0,90,false,stim,false,2,1186.1000000005588,1,0,0,48534,task2,965359,false,false,1174,image-keyboard-response,28
true,11,0,1,0,true,q,false,false,0.0-2.0-0.40-0.364-3.364,0,0,0,81,false,stim,false,2,998.1000000005588,1,0,1,48534,task2,967873,false,true,1177,image-keyboard-response,29
true,11,0,1,0,true,q,false,true,0.0-2.0-0.40-0.365-3.365,0,0,0,81,false,stim,false,2,383.90000000037253,1,1,0,48534,task2,969783,false,false,1180,image-keyboard-response,30
true,11,0,1,0,true,q,false,true,0.0-2.0-0.40-0.366-3.366,0,0,0,81,false,stim,false,2,595.0,1,1,0,48534,task2,971901,false,false,1183,image-keyboard-response,31
true,11,1,1,1,true,z,false,true,0.0-2.0-0.40-0.367-3.367,0,0,0,90,false,stim,false,0,937.5999999996275,1,0,2,48534,task2,974357,false,false,1186,image-keyboard-response,32
true,11,1,1,1,true,z,false,true,0.0-2.0-0.40-0.368-3.368,0,0,0,90,false,stim,false,0,451.29999999981374,1,0,2,48534,task2,976322,false,false,1189,image-keyboard-response,33
true,11,0,1,0,true,q,false,true,0.0-2.0-0.41-0.369-3.369,0,0,0,81,false,stim,false,2,577.7999999998137,1,1,0,48534,task2,978426,false,false,1192,image-keyboard-response,34
true,12,1,2,2,false,d,false,false,0.0-2.0-0.41-0.370-3.370,1,0,0,90,true,stim,true,1,944.2999999998137,1,0,2,48534,task2,980898,false,false,1195,image-keyboard-response,1
true,12,0,2,2,false,d,true,false,0.0-2.0-0.41-0.371-3.371,1,0,0,81,false,stim,false,1,1096.5999999996275,1,0,2,48534,task2,983518,false,false,1198,image-keyboard-response,2
true,12,2,2,2,true,d,false,true,0.0-2.0-0.41-0.372-3.372,1,0,0,68,false,stim,false,0,1534.7000000001863,1,0,1,48534,task2,986564,false,false,1201,image-keyboard-response,3
true,12,0,2,0,true,q,false,true,0.0-2.0-0.41-0.373-3.373,1,0,0,81,false,stim,false,0,641.6000000005588,1,1,0,48534,task2,988730,false,false,1204,image-keyboard-response,4
true,12,2,2,2,true,d,false,true,0.0-2.0-0.41-0.374-3.374,1,0,0,68,false,stim,false,1,1151.0999999996275,1,0,2,48534,task2,991408,false,false,1207,image-keyboard-response,5
true,12,2,2,2,true,d,false,true,0.0-2.0-0.41-0.375-3.375,1,0,0,68,false,stim,false,0,762.3999999994412,1,0,1,48534,task2,993678,false,false,1210,image-keyboard-response,6
true,12,0,2,0,true,q,false,true,0.0-2.0-0.41-0.376-3.376,1,0,0,81,false,stim,false,0,530.5999999996275,1,1,0,48534,task2,995733,false,false,1213,image-keyboard-response,7
true,12,2,2,2,true,d,false,true,0.0-2.0-0.41-0.377-3.377,1,0,0,68,false,stim,false,0,386.90000000037253,1,0,1,48534,task2,997632,false,false,1216,image-keyboard-response,8
true,12,0,2,0,true,q,false,true,0.0-2.0-0.42-0.378-3.378,1,0,0,81,false,stim,false,0,517.7000000001863,1,1,0,48534,task2,999669,false,false,1219,image-keyboard-response,9
true,12,2,2,2,true,d,false,true,0.0-2.0-0.42-0.379-3.379,1,0,0,68,false,stim,false,0,513.3000000007451,1,0,1,48534,task2,1001708,false,false,1222,image-keyboard-response,10
true,12,2,2,2,true,d,false,false,0.0-2.0-0.42-0.380-3.380,1,0,0,68,false,stim,false,0,540.6000000005588,1,0,1,48534,task2,1003768,false,true,1225,image-keyboard-response,11
true,12,2,2,2,true,d,false,true,0.0-2.0-0.42-0.381-3.381,1,0,0,68,false,stim,false,1,485.5,1,0,2,48534,task2,1005772,false,false,1228,image-keyboard-response,12
true,12,1,2,2,false,d,true,false,0.0-2.0-0.42-0.382-3.382,1,0,0,90,false,stim,false,0,1919.7000000001863,1,0,1,48534,task2,1009214,false,false,1231,image-keyboard-response,13
true,12,2,2,2,true,d,false,true,0.0-2.0-0.42-0.383-3.383,1,0,0,68,false,stim,false,1,401.5,1,0,2,48534,task2,1011137,false,false,1234,image-keyboard-response,14
true,12,0,2,0,true,q,false,true,0.0-2.0-0.42-0.384-3.384,1,0,0,81,false,stim,false,0,499.0,1,1,0,48534,task2,1013150,false,false,1237,image-keyboard-response,15
true,12,0,2,0,true,q,false,true,0.0-2.0-0.42-0.385-3.385,1,0,0,81,false,stim,false,0,947.2999999998137,1,1,0,48534,task2,1015615,false,false,1240,image-keyboard-response,16
true,12,0,2,2,false,d,true,false,0.0-2.0-0.42-0.386-3.386,1,0,0,81,false,stim,false,1,1323.0,1,0,2,48534,task2,1018467,false,false,1243,image-keyboard-response,17
true,12,0,2,0,true,q,false,true,0.0-2.0-0.43-0.387-3.387,1,0,0,81,false,stim,false,0,638.0999999996275,1,1,0,48534,task2,1020631,false,false,1246,image-keyboard-response,18
true,12,0,2,0,true,q,false,true,0.0-2.0-0.43-0.388-3.388,1,0,0,81,false,stim,false,0,509.3999999994412,1,1,0,48534,task2,1022655,false,false,1249,image-keyboard-response,19
true,12,2,2,2,true,d,false,true,0.0-2.0-0.43-0.389-3.389,1,0,0,68,false,stim,false,0,588.9000000003725,1,0,1,48534,task2,1024762,false,false,1252,image-keyboard-response,20
true,12,2,2,2,true,d,false,true,0.0-2.0-0.43-0.390-3.390,1,0,0,68,false,stim,false,0,595.0,1,0,1,48534,task2,1026878,false,false,1255,image-keyboard-response,21
true,12,2,2,2,true,d,false,false,0.0-2.0-0.43-0.391-3.391,1,0,0,68,false,stim,false,0,438.29999999981374,1,0,1,48534,task2,1028834,false,true,1258,image-keyboard-response,22
true,12,2,2,2,true,d,false,true,0.0-2.0-0.43-0.392-3.392,1,0,0,68,false,stim,false,1,1115.5,1,0,2,48534,task2,1031474,false,false,1261,image-keyboard-response,23
true,12,0,2,0,true,q,false,true,0.0-2.0-0.43-0.393-3.393,1,0,0,81,false,stim,false,0,551.5,1,1,0,48534,task2,1033540,false,false,1264,image-keyboard-response,24
true,12,2,2,2,true,d,false,false,0.0-2.0-0.43-0.394-3.394,1,0,0,68,false,stim,false,1,427.6000000005588,1,0,2,48534,task2,1035492,false,true,1267,image-keyboard-response,25
true,12,1,2,2,false,d,false,false,0.0-2.0-0.43-0.395-3.395,1,0,0,90,false,stim,true,1,855.2000000001863,1,0,2,48534,task2,1037870,false,false,1270,image-keyboard-response,26
true,12,0,2,0,true,q,false,true,0.0-2.0-0.44-0.396-3.396,1,0,0,81,false,stim,false,0,593.7000000001863,1,1,0,48534,task2,1039994,false,false,1273,image-keyboard-response,27
true,12,0,2,2,false,d,true,false,0.0-2.0-0.44-0.397-3.397,1,0,0,81,false,stim,false,1,396.8999999994412,1,0,2,48534,task2,1041921,false,false,1276,image-keyboard-response,28
true,12,0,2,0,true,q,false,true,0.0-2.0-0.44-0.398-3.398,1,0,0,81,false,stim,false,0,987.0,1,1,0,48534,task2,1044429,false,false,1279,image-keyboard-response,29
true,12,2,2,2,true,d,false,true,0.0-2.0-0.44-0.399-3.399,1,0,0,68,false,stim,false,1,533.2999999998137,1,0,2,48534,task2,1046486,false,false,1282,image-keyboard-response,30
true,12,2,2,2,true,d,false,true,0.0-2.0-0.44-0.400-3.400,1,0,0,68,false,stim,false,1,605.3999999994412,1,1,2,48534,task2,1048618,false,false,1285,image-keyboard-response,31
true,12,2,2,2,true,d,false,true,0.0-2.0-0.44-0.401-3.401,1,0,0,68,false,stim,false,0,1391.8999999994412,1,0,1,48534,task2,1051532,false,false,1288,image-keyboard-response,32
true,12,0,2,0,true,q,false,false,0.0-2.0-0.44-0.402-3.402,1,0,0,81,false,stim,false,0,461.5,1,0,0,48534,task2,1053513,false,true,1291,image-keyboard-response,33
true,12,2,2,2,true,d,false,false,0.0-2.0-0.44-0.403-3.403,1,0,0,68,false,stim,false,0,521.2000000001863,1,0,1,48534,task2,1055558,false,true,1294,image-keyboard-response,34
true,12,1,2,2,false,d,true,false,0.0-2.0-0.44-0.404-3.404,1,0,0,90,false,stim,false,0,1071.1000000005588,1,0,1,48534,task2,1058157,false,false,1297,image-keyboard-response,35
true,13,1,2,2,false,d,true,false,0.0-2.0-0.45-0.405-3.405,0,0,1,90,true,stim,false,0,1283.8999999994412,1,0,0,48534,task2,1060969,false,false,1300,image-keyboard-response,1
true,13,2,2,1,false,z,false,false,0.0-2.0-0.45-0.406-3.406,0,0,1,68,false,stim,true,2,1385.5,1,0,1,48534,task2,1063882,false,false,1303,image-keyboard-response,2
true,13,2,2,2,true,d,false,true,0.0-2.0-0.45-0.407-3.407,0,0,1,68,false,stim,false,2,517.7000000001863,1,1,2,48534,task2,1065923,false,false,1306,image-keyboard-response,3
true,13,2,2,2,true,d,false,false,0.0-2.0-0.45-0.408-3.408,0,0,1,68,false,stim,false,2,502.1000000005588,1,1,2,48534,task2,1067951,false,true,1309,image-keyboard-response,4
true,13,1,2,2,false,d,true,false,0.0-2.0-0.45-0.409-3.409,0,0,1,90,false,stim,false,0,706.0,1,0,0,48534,task2,1070181,false,false,1312,image-keyboard-response,5
true,13,0,2,1,false,z,true,false,0.0-2.0-0.45-0.410-3.410,0,0,1,81,false,stim,false,2,972.7000000001863,1,0,1,48534,task2,1072681,false,false,1315,image-keyboard-response,6
true,13,1,2,1,true,z,false,false,0.0-2.0-0.45-0.411-3.411,0,0,1,90,false,stim,false,2,871.9000000003725,1,0,1,48534,task2,1075073,false,true,1318,image-keyboard-response,7
true,13,1,2,2,false,d,true,false,0.0-2.0-0.45-0.412-3.412,0,0,1,90,false,stim,false,2,1321.4000000003725,1,1,2,48534,task2,1077913,false,false,1321,image-keyboard-response,8
true,13,2,2,2,true,d,false,true,0.0-2.0-0.45-0.413-3.413,0,0,1,68,false,stim,false,0,1844.800000000745,1,0,0,48534,task2,1081277,false,false,1324,image-keyboard-response,9
true,13,2,2,2,true,d,false,true,0.0-2.0-0.46-0.414-3.414,0,0,1,68,false,stim,false,0,631.0999999996275,1,0,0,48534,task2,1083426,false,false,1327,image-keyboard-response,10
true,13,1,2,2,false,d,true,false,0.0-2.0-0.46-0.415-3.415,0,0,1,90,false,stim,false,2,796.2999999998137,1,1,2,48534,task2,1085742,false,false,1330,image-keyboard-response,11
true,13,2,2,2,true,d,false,true,0.0-2.0-0.46-0.416-3.416,0,0,1,68,false,stim,false,0,671.7999999998137,1,0,0,48534,task2,1087928,false,false,1333,image-keyboard-response,12
true,13,0,2,1,false,z,true,false,0.0-2.0-0.46-0.417-3.417,0,0,1,81,false,stim,false,2,564.2000000001863,1,0,1,48534,task2,1090020,false,false,1336,image-keyboard-response,13
true,13,2,2,2,true,d,false,true,0.0-2.0-0.46-0.418-3.418,0,0,1,68,false,stim,false,2,1336.7999999998137,1,1,2,48534,task2,1092881,false,false,1339,image-keyboard-response,14
true,13,0,2,1,false,z,true,false,0.0-2.0-0.46-0.419-3.419,0,0,1,81,false,stim,false,2,985.7999999998137,1,0,1,48534,task2,1095386,false,false,1342,image-keyboard-response,15
true,13,2,2,2,true,d,false,false,0.0-2.0-0.46-0.420-3.420,0,0,1,68,false,stim,false,2,486.59999999962747,1,1,2,48534,task2,1097398,false,true,1345,image-keyboard-response,16
true,13,2,2,1,false,z,false,false,0.0-2.0-0.46-0.421-3.421,0,0,1,68,false,stim,true,2,1185.1000000005588,1,0,1,48534,task2,1100105,false,false,1348,image-keyboard-response,17
true,13,2,2,2,true,d,false,true,0.0-2.0-0.46-0.422-3.422,0,0,1,68,false,stim,false,0,689.0999999996275,1,0,0,48534,task2,1102320,false,false,1351,image-keyboard-response,18
true,13,0,2,2,false,d,true,true,0.0-2.0-0.47-0.423-3.423,0,0,1,81,false,stim,false,2,1164.0999999996275,1,1,2,48534,task2,1105012,false,true,1354,image-keyboard-response,19
true,13,2,2,1,false,z,false,false,0.0-2.0-0.47-0.424-3.424,0,0,1,68,false,stim,true,2,1338.0999999996275,1,0,1,48534,task2,1107871,false,false,1357,image-keyboard-response,20
true,13,2,2,1,false,z,false,false,0.0-2.0-0.47-0.425-3.425,0,0,1,68,false,stim,true,2,2726.5999999996275,1,0,1,48534,task2,1112112,false,false,1360,image-keyboard-response,21
true,13,0,2,2,false,d,true,true,0.0-2.0-0.47-0.426-3.426,0,0,1,81,false,stim,false,2,799.6000000005588,1,1,2,48534,task2,1114425,false,true,1363,image-keyboard-response,22
true,13,0,2,2,false,d,true,false,0.0-2.0-0.47-0.427-3.427,0,0,1,81,false,stim,false,2,862.3999999994412,1,1,2,48534,task2,1116811,false,false,1366,image-keyboard-response,23
true,13,2,2,2,true,d,false,true,0.0-2.0-0.47-0.428-3.428,0,0,1,68,false,stim,false,0,446.30000000074506,1,0,0,48534,task2,1118781,false,false,1369,image-keyboard-response,24
true,13,2,2,2,true,d,false,true,0.0-2.0-0.47-0.429-3.429,0,0,1,68,false,stim,false,0,718.5,1,0,0,48534,task2,1121016,false,false,1372,image-keyboard-response,25
true,13,2,2,2,true,d,false,true,0.0-2.0-0.47-0.430-3.430,0,0,1,68,false,stim,false,0,402.80000000074506,1,0,0,48534,task2,1122944,false,false,1375,image-keyboard-response,26
true,13,1,2,1,true,z,false,true,0.0-2.0-0.47-0.431-3.431,0,0,1,90,false,stim,false,2,791.2999999998137,1,1,1,48534,task2,1125254,false,false,1378,image-keyboard-response,27
true,13,2,2,2,true,d,false,true,0.0-2.0-0.48-0.432-3.432,0,0,1,68,false,stim,false,0,754.6000000005588,1,0,0,48534,task2,1127524,false,false,1381,image-keyboard-response,28
true,13,1,2,1,true,z,false,true,0.0-2.0-0.48-0.433-3.433,0,0,1,90,false,stim,false,2,571.3999999994412,1,1,1,48534,task2,1129618,false,false,1384,image-keyboard-response,29
true,13,0,2,2,false,d,true,false,0.0-2.0-0.48-0.434-3.434,0,0,1,81,false,stim,false,2,996.7000000001863,1,0,2,48534,task2,1132136,false,false,1387,image-keyboard-response,30
true,13,2,2,2,true,d,false,true,0.0-2.0-0.48-0.435-3.435,0,0,1,68,false,stim,false,0,1369.8999999994412,1,0,0,48534,task2,1135015,false,false,1390,image-keyboard-response,31
true,14,1,2,1,true,z,false,true,0.0-2.0-0.48-0.436-3.436,0,1,0,90,true,stim,false,1,909.0,1,1,1,48534,task2,1137437,false,false,1393,image-keyboard-response,1
true,14,2,2,1,false,z,false,false,0.0-2.0-0.48-0.437-3.437,0,1,0,68,false,stim,true,2,662.5999999996275,1,0,0,48534,task2,1139619,false,false,1396,image-keyboard-response,2
true,14,2,2,0,false,q,false,false,0.0-2.0-0.48-0.438-3.438,0,1,0,68,false,stim,true,2,1253.5,1,0,2,48534,task2,1142395,false,false,1399,image-keyboard-response,3
true,14,1,2,1,true,z,false,true,0.0-2.0-0.48-0.439-3.439,0,1,0,90,false,stim,false,1,1106.699999999255,1,1,1,48534,task2,1145027,false,false,1402,image-keyboard-response,4
true,14,1,2,0,false,q,true,false,0.0-2.0-0.48-0.440-3.440,0,1,0,90,false,stim,false,2,500.6000000005588,1,0,2,48534,task2,1147059,false,false,1405,image-keyboard-response,5
true,14,1,2,1,true,z,false,true,0.0-2.0-0.49-0.441-3.441,0,1,0,90,false,stim,false,1,680.7000000001863,1,1,1,48534,task2,1149262,false,false,1408,image-keyboard-response,6
true,14,0,2,0,true,q,false,false,0.0-2.0-0.49-0.442-3.442,0,1,0,81,false,stim,false,2,379.79999999981374,1,0,2,48534,task2,1151160,false,true,1411,image-keyboard-response,7
true,14,0,2,1,false,z,true,false,0.0-2.0-0.49-0.443-3.443,0,1,0,81,false,stim,false,2,1028.800000000745,1,0,0,48534,task2,1153711,false,false,1414,image-keyboard-response,8
true,14,1,2,0,false,q,true,false,0.0-2.0-0.49-0.444-3.444,0,1,0,90,false,stim,false,2,1744.7999999998137,1,0,2,48534,task2,1156981,false,false,1417,image-keyboard-response,9
true,14,2,2,1,false,z,false,false,0.0-2.0-0.49-0.445-3.445,0,1,0,68,false,stim,true,2,1614.7000000001863,1,0,0,48534,task2,1160115,false,false,1420,image-keyboard-response,10
true,14,1,2,1,true,z,false,true,0.0-2.0-0.49-0.446-3.446,0,1,0,90,false,stim,false,2,440.79999999981374,1,0,0,48534,task2,1162067,false,false,1423,image-keyboard-response,11
true,14,0,2,1,false,z,true,false,0.0-2.0-0.49-0.447-3.447,0,1,0,81,false,stim,false,1,914.3999999994412,1,1,1,48534,task2,1164496,false,false,1426,image-keyboard-response,12
true,14,2,2,0,false,q,false,false,0.0-2.0-0.49-0.448-3.448,0,1,0,68,false,stim,true,2,560.5999999996275,1,0,2,48534,task2,1166573,false,false,1429,image-keyboard-response,13
true,14,1,2,1,true,z,false,true,0.0-2.0-0.49-0.449-3.449,0,1,0,90,false,stim,false,1,1051.7000000001863,1,1,1,48534,task2,1169152,false,false,1432,image-keyboard-response,14
true,14,1,2,1,true,z,false,true,0.0-2.0-0.50-0.450-3.450,0,1,0,90,false,stim,false,2,544.0999999996275,1,0,0,48534,task2,1171218,false,false,1435,image-keyboard-response,15
true,14,1,2,1,true,z,false,true,0.0-2.0-0.50-0.451-3.451,0,1,0,90,false,stim,false,2,601.8000000007451,1,0,0,48534,task2,1173336,false,false,1438,image-keyboard-response,16
true,14,1,2,1,true,z,false,false,0.0-2.0-0.50-0.452-3.452,0,1,0,90,false,stim,false,2,553.2000000001863,1,0,0,48534,task2,1175415,false,true,1441,image-keyboard-response,17
true,14,1,2,1,true,z,false,true,0.0-2.0-0.50-0.453-3.453,0,1,0,90,false,stim,false,1,471.69999999925494,1,1,1,48534,task2,1177412,false,false,1444,image-keyboard-response,18
true,14,1,2,0,false,q,true,false,0.0-2.0-0.50-0.454-3.454,0,1,0,90,false,stim,false,2,467.80000000074506,1,0,2,48534,task2,1179408,false,false,1447,image-keyboard-response,19
true,14,1,2,1,true,z,false,true,0.0-2.0-0.50-0.455-3.455,0,1,0,90,false,stim,false,1,417.20000000018626,1,1,1,48534,task2,1181353,false,false,1450,image-keyboard-response,20
true,14,2,2,0,false,q,false,false,0.0-2.0-0.50-0.456-3.456,0,1,0,68,false,stim,true,2,418.59999999962747,1,0,2,48534,task2,1183292,false,false,1453,image-keyboard-response,21
true,14,1,2,1,true,z,false,true,0.0-2.0-0.50-0.457-3.457,0,1,0,90,false,stim,false,1,558.0,1,1,1,48534,task2,1185369,false,false,1456,image-keyboard-response,22
true,14,0,2,0,true,q,false,true,0.0-2.0-0.50-0.458-3.458,0,1,0,81,false,stim,false,2,383.8999999994412,1,0,2,48534,task2,1187266,false,false,1459,image-keyboard-response,23
true,14,0,2,0,true,q,false,true,0.0-2.0-0.51-0.459-3.459,0,1,0,81,false,stim,false,2,404.59999999962747,1,0,2,48534,task2,1189192,false,false,1462,image-keyboard-response,24
true,14,2,2,1,false,z,false,false,0.0-2.0-0.51-0.460-3.460,0,1,0,68,false,stim,true,2,624.1000000005588,1,0,0,48534,task2,1191342,false,false,1465,image-keyboard-response,25
true,14,0,2,0,true,q,false,true,0.0-2.0-0.51-0.461-3.461,0,1,0,81,false,stim,false,2,612.5,1,0,2,48534,task2,1193483,false,false,1468,image-keyboard-response,26
true,14,1,2,1,true,z,false,true,0.0-2.0-0.51-0.462-3.462,0,1,0,90,false,stim,false,1,419.8999999994412,1,1,1,48534,task2,1195418,false,false,1471,image-keyboard-response,27
true,14,1,2,1,true,z,false,true,0.0-2.0-0.51-0.463-3.463,0,1,0,90,false,stim,false,1,522.9000000003725,1,1,1,48534,task2,1197456,false,false,1474,image-keyboard-response,28
true,14,1,2,1,true,z,false,true,0.0-2.0-0.51-0.464-3.464,0,1,0,90,false,stim,false,1,429.8999999994412,1,1,1,48534,task2,1199411,false,false,1477,image-keyboard-response,29
true,14,0,2,1,false,z,true,false,0.0-2.0-0.51-0.465-3.465,0,1,0,81,false,stim,false,2,806.4000000003725,1,0,0,48534,task2,1201733,false,false,1480,image-keyboard-response,30
true,14,1,2,1,true,z,false,true,0.0-2.0-0.51-0.466-3.466,0,1,0,90,false,stim,false,2,587.7999999998137,1,1,0,48534,task2,1203849,false,false,1483,image-keyboard-response,31
true,14,0,2,0,true,q,false,true,0.0-2.0-0.51-0.467-3.467,0,1,0,81,false,stim,false,2,1277.7000000001863,1,0,2,48534,task2,1206642,false,false,1486,image-keyboard-response,32
true,14,1,2,1,true,z,false,true,0.0-2.0-0.52-0.468-3.468,0,1,0,90,false,stim,false,2,553.2999999998137,1,1,0,48534,task2,1208723,false,false,1489,image-keyboard-response,33
true,14,1,2,1,true,z,false,true,0.0-2.0-0.52-0.469-3.469,0,1,0,90,false,stim,false,1,404.79999999981374,1,0,1,48534,task2,1210648,false,false,1492,image-keyboard-response,34
true,14,0,2,0,true,q,false,true,0.0-2.0-0.52-0.470-3.470,0,1,0,81,false,stim,false,2,340.40000000037253,1,0,2,48534,task2,1212506,false,false,1495,image-keyboard-response,35
true,15,1,2,1,true,z,false,false,0.0-2.0-0.52-0.471-3.471,1,0,0,90,true,stim,false,1,375.29999999981374,1,1,0,48534,task2,1214405,false,true,1498,image-keyboard-response,1
true,15,0,2,1,false,z,false,false,0.0-2.0-0.52-0.472-3.472,1,0,0,81,false,stim,true,0,619.7999999998137,1,0,2,48534,task2,1216547,false,false,1501,image-keyboard-response,2
true,15,0,2,1,false,z,false,false,0.0-2.0-0.52-0.473-3.473,1,0,0,81,false,stim,true,0,653.8000000007451,1,0,2,48534,task2,1218725,false,false,1504,image-keyboard-response,3
true,15,2,2,1,false,z,true,false,0.0-2.0-0.52-0.474-3.474,1,0,0,68,false,stim,false,1,1120.0,1,1,0,48534,task2,1221373,false,false,1507,image-keyboard-response,4
true,15,1,2,0,false,q,false,false,0.0-2.0-0.52-0.475-3.475,1,0,0,90,false,stim,true,1,488.40000000037253,1,0,1,48534,task2,1223376,false,false,1510,image-keyboard-response,5
true,15,0,2,0,true,q,false,true,0.0-2.0-0.52-0.476-3.476,1,0,0,81,false,stim,false,1,616.2999999998137,1,0,1,48534,task2,1225515,false,false,1513,image-keyboard-response,6
true,15,0,2,0,true,q,false,true,0.0-2.0-0.53-0.477-3.477,1,0,0,81,false,stim,false,1,632.6000000005588,1,0,1,48534,task2,1227668,false,false,1516,image-keyboard-response,7
true,15,1,2,1,true,z,false,true,0.0-2.0-0.53-0.478-3.478,1,0,0,90,false,stim,false,0,620.5,1,0,2,48534,task2,1229806,false,false,1519,image-keyboard-response,8
true,15,1,2,1,true,z,false,true,0.0-2.0-0.53-0.479-3.479,1,0,0,90,false,stim,false,0,487.8999999994412,1,0,2,48534,task2,1231816,false,false,1522,image-keyboard-response,9
true,15,2,2,1,false,z,true,false,0.0-2.0-0.53-0.480-3.480,1,0,0,68,false,stim,false,1,793.2000000001863,1,1,0,48534,task2,1234134,false,false,1525,image-keyboard-response,10
true,15,0,2,0,true,q,false,true,0.0-2.0-0.53-0.481-3.481,1,0,0,81,false,stim,false,1,1803.5999999996275,1,0,1,48534,task2,1237467,false,false,1528,image-keyboard-response,11
true,15,0,2,0,true,q,false,true,0.0-2.0-0.53-0.482-3.482,1,0,0,81,false,stim,false,1,520.2999999998137,1,0,1,48534,task2,1239507,false,false,1531,image-keyboard-response,12
true,15,1,2,1,true,z,false,true,0.0-2.0-0.53-0.483-3.483,1,0,0,90,false,stim,false,1,720.7000000001863,1,1,0,48534,task2,1241757,false,false,1534,image-keyboard-response,13
true,15,1,2,1,true,z,false,true,0.0-2.0-0.53-0.484-3.484,1,0,0,90,false,stim,false,0,440.19999999925494,1,0,2,48534,task2,1243722,false,false,1537,image-keyboard-response,14
true,15,1,2,1,true,z,false,true,0.0-2.0-0.53-0.485-3.485,1,0,0,90,false,stim,false,1,983.7000000001863,1,1,0,48534,task2,1246236,false,false,1540,image-keyboard-response,15
true,15,0,2,0,true,q,false,true,0.0-2.0-0.54-0.486-3.486,1,0,0,81,false,stim,false,1,610.2999999998137,1,0,1,48534,task2,1248366,false,false,1543,image-keyboard-response,16
true,15,1,2,1,true,z,false,true,0.0-2.0-0.54-0.487-3.487,1,0,0,90,false,stim,false,1,1382.6000000005588,1,1,0,48534,task2,1251277,false,false,1546,image-keyboard-response,17
true,15,0,2,1,false,z,false,false,0.0-2.0-0.54-0.488-3.488,1,0,0,81,false,stim,true,0,1392.5,1,0,2,48534,task2,1254193,false,false,1549,image-keyboard-response,18
true,15,1,2,1,true,z,false,true,0.0-2.0-0.54-0.489-3.489,1,0,0,90,false,stim,false,0,1239.0,1,0,2,48534,task2,1256956,false,false,1552,image-keyboard-response,19
true,15,1,2,1,true,z,false,true,0.0-2.0-0.54-0.490-3.490,1,0,0,90,false,stim,false,0,656.5,1,0,2,48534,task2,1259129,false,false,1555,image-keyboard-response,20
true,15,1,2,0,false,q,false,false,0.0-2.0-0.54-0.491-3.491,1,0,0,90,false,stim,true,1,1133.6000000005588,1,0,1,48534,task2,1261777,false,false,1558,image-keyboard-response,21
true,15,1,2,1,true,z,false,true,0.0-2.0-0.54-0.492-3.492,1,0,0,90,false,stim,false,1,816.0999999996275,1,1,0,48534,task2,1264110,false,false,1561,image-keyboard-response,22
true,15,1,2,1,true,z,false,true,0.0-2.0-0.54-0.493-3.493,1,0,0,90,false,stim,false,1,484.5,1,1,0,48534,task2,1266118,false,false,1564,image-keyboard-response,23
true,15,2,2,0,false,q,true,false,0.0-2.0-0.54-0.494-3.494,1,0,0,68,false,stim,false,1,760.2999999998137,1,0,1,48534,task2,1268397,false,false,1567,image-keyboard-response,24
false,15,-1,2,1,false,z,true,true,0.0-2.0-0.55-0.495-3.495,1,0,0,,false,stim,false,0,,1,0,2,48534,task2,1272905,false,true,1570,image-keyboard-response,25
true,15,0,2,1,false,z,false,false,0.0-2.0-0.55-0.496-3.496,1,0,0,81,false,stim,true,0,544.5,1,0,2,48534,task2,1274968,false,false,1573,image-keyboard-response,26
true,15,1,2,1,true,z,false,true,0.0-2.0-0.55-0.497-3.497,1,0,0,90,false,stim,false,1,447.59999999962747,1,1,0,48534,task2,1276931,false,false,1576,image-keyboard-response,27
true,15,1,2,0,false,q,false,true,0.0-2.0-0.55-0.498-3.498,1,0,0,90,false,stim,true,1,417.0,1,0,1,48534,task2,1278869,false,true,1579,image-keyboard-response,28
true,15,2,2,1,false,z,true,false,0.0-2.0-0.55-0.499-3.499,1,0,0,68,false,stim,false,0,837.5,1,0,2,48534,task2,1281225,false,false,1582,image-keyboard-response,29
true,15,1,2,1,true,z,false,true,0.0-2.0-0.55-0.500-3.500,1,0,0,90,false,stim,false,1,520.0999999996275,1,1,0,48534,task2,1283262,false,false,1585,image-keyboard-response,30
true,15,1,2,1,true,z,false,true,0.0-2.0-0.55-0.501-3.501,1,0,0,90,false,stim,false,1,512.5,1,1,0,48534,task2,1285300,false,false,1588,image-keyboard-response,31
true,15,1,2,0,false,q,false,false,0.0-2.0-0.55-0.502-3.502,1,0,0,90,false,stim,true,1,568.7999999998137,1,1,1,48534,task2,1287385,false,false,1591,image-keyboard-response,32
true,15,0,2,0,true,q,false,true,0.0-2.0-0.55-0.503-3.503,1,0,0,81,false,stim,false,1,1265.2999999998137,1,1,1,48534,task2,1290171,false,false,1594,image-keyboard-response,33
true,15,1,2,1,true,z,false,true,0.0-2.0-0.56-0.504-3.504,1,0,0,90,false,stim,false,1,389.79999999981374,1,1,0,48534,task2,1292083,false,false,1597,image-keyboard-response,34
true,16,1,0,0,false,q,true,false,0.0-2.0-0.56-0.505-3.505,1,1,1,90,true,stim,false,0,579.0,1,1,1,48534,task2,1415119,false,false,1720,image-keyboard-response,1
true,16,1,0,1,true,z,false,true,0.0-2.0-0.56-0.506-3.506,1,1,1,90,false,stim,false,1,648.2999999998137,1,1,0,48534,task2,1417297,false,false,1723,image-keyboard-response,2
true,16,0,0,0,true,q,false,true,0.0-2.0-0.56-0.507-3.507,1,1,1,81,false,stim,false,0,409.6000000005588,1,1,1,48534,task2,1419236,false,false,1726,image-keyboard-response,3
true,16,2,0,1,false,z,true,true,0.0-2.0-0.56-0.508-3.508,1,1,1,68,false,stim,false,1,500.79999999981374,1,1,2,48534,task2,1421248,false,true,1729,image-keyboard-response,4
true,16,0,0,0,true,q,false,true,0.0-2.0-0.56-0.509-3.509,1,1,1,81,false,stim,false,0,1463.2999999998137,1,1,1,48534,task2,1424242,false,false,1732,image-keyboard-response,5
true,16,2,0,1,false,z,true,false,0.0-2.0-0.56-0.510-3.510,1,1,1,68,false,stim,false,1,379.0,1,1,2,48534,task2,1426147,false,false,1735,image-keyboard-response,6
true,16,1,0,1,true,z,false,true,0.0-2.0-0.56-0.511-3.511,1,1,1,90,false,stim,false,1,669.0999999996275,1,1,2,48534,task2,1428338,false,false,1738,image-keyboard-response,7
true,16,1,0,1,true,z,false,true,0.0-2.0-0.56-0.512-3.512,1,1,1,90,false,stim,false,1,501.8999999994412,1,1,0,48534,task2,1430366,false,false,1741,image-keyboard-response,8
true,16,0,0,0,true,q,false,true,0.0-2.0-0.57-0.513-3.513,1,1,1,81,false,stim,false,0,460.1000000005588,1,0,1,48534,task2,1432360,false,false,1744,image-keyboard-response,9
true,16,1,0,1,true,z,false,false,0.0-2.0-0.57-0.514-3.514,1,1,1,90,false,stim,false,1,521.7999999998137,1,0,0,48534,task2,1434401,false,true,1747,image-keyboard-response,10
true,16,1,0,1,true,z,false,true,0.0-2.0-0.57-0.515-3.515,1,1,1,90,false,stim,false,1,539.7000000001863,1,0,2,48534,task2,1436462,false,false,1750,image-keyboard-response,11
true,16,0,0,1,false,z,true,false,0.0-2.0-0.57-0.516-3.516,1,1,1,81,false,stim,false,1,623.2000000001863,1,0,0,48534,task2,1438605,false,false,1753,image-keyboard-response,12
true,16,1,0,1,true,z,false,false,0.0-2.0-0.57-0.517-3.517,1,1,1,90,false,stim,false,1,718.1999999992549,1,0,2,48534,task2,1440837,false,true,1756,image-keyboard-response,13
true,17,0,1,1,false,z,false,false,0.0-2.0-0.57-0.518-3.518,0,0,0,81,true,stim,true,0,830.9000000003725,1,0,1,48534,task2,1443189,false,false,1759,image-keyboard-response,1
true,17,1,1,1,true,z,false,true,0.0-2.0-0.57-0.519-3.519,0,0,0,90,false,stim,false,0,813.7000000001863,1,0,1,48534,task2,1445525,false,false,1762,image-keyboard-response,2
true,17,1,1,0,false,q,false,false,0.0-2.0-0.57-0.520-3.520,0,0,0,90,false,stim,true,1,1277.0,1,0,0,48534,task2,1448327,false,false,1765,image-keyboard-response,3
true,17,2,1,2,true,d,false,true,0.0-2.0-0.57-0.521-3.521,0,0,0,68,false,stim,false,1,1490.9000000003725,1,0,2,48534,task2,1451343,false,false,1768,image-keyboard-response,4
true,17,2,1,2,true,d,false,false,0.0-2.0-0.58-0.522-3.522,0,0,0,68,false,stim,false,1,409.90000000037253,1,0,2,48534,task2,1453277,false,true,1771,image-keyboard-response,5
true,17,1,1,1,true,z,false,true,0.0-2.0-0.58-0.523-3.523,0,0,0,90,false,stim,false,0,507.29999999981374,1,0,1,48534,task2,1455298,false,false,1774,image-keyboard-response,6
true,17,0,1,0,true,q,false,true,0.0-2.0-0.58-0.524-3.524,0,0,0,81,false,stim,false,1,837.3999999994412,1,0,0,48534,task2,1457659,false,false,1777,image-keyboard-response,7
true,17,0,1,2,false,d,true,true,0.0-2.0-0.58-0.525-3.525,0,0,0,81,false,stim,false,1,1063.7000000001863,1,0,2,48534,task2,1460243,false,true,1780,image-keyboard-response,8
true,17,1,1,1,true,z,false,false,0.0-2.0-0.58-0.526-3.526,0,0,0,90,false,stim,false,0,673.6999999992549,1,0,1,48534,task2,1462438,false,true,1783,image-keyboard-response,9
true,17,0,1,0,true,q,false,true,0.0-2.0-0.58-0.527-3.527,0,0,0,81,false,stim,false,1,468.09999999962747,1,0,0,48534,task2,1464433,false,false,1786,image-keyboard-response,10
true,17,2,1,1,false,z,true,false,0.0-2.0-0.58-0.528-3.528,0,0,0,68,false,stim,false,0,745.0999999996275,1,0,1,48534,task2,1466700,false,false,1789,image-keyboard-response,11
true,17,0,1,2,false,d,true,false,0.0-2.0-0.58-0.529-3.529,0,0,0,81,false,stim,false,1,1243.5,1,0,2,48534,task2,1469466,false,false,1792,image-keyboard-response,12
true,17,0,1,0,true,q,false,true,0.0-2.0-0.58-0.530-3.530,0,0,0,81,false,stim,false,1,427.6000000005588,1,0,0,48534,task2,1471413,false,false,1795,image-keyboard-response,13
true,17,1,1,2,false,d,false,false,0.0-2.0-0.59-0.531-3.531,0,0,0,90,false,stim,true,1,592.1000000005588,1,0,2,48534,task2,1473531,false,false,1798,image-keyboard-response,14
true,17,2,1,2,true,d,false,true,0.0-2.0-0.59-0.532-3.532,0,0,0,68,false,stim,false,1,435.90000000037253,1,0,2,48534,task2,1475494,false,false,1801,image-keyboard-response,15
true,17,0,1,0,true,q,false,true,0.0-2.0-0.59-0.533-3.533,0,0,0,81,false,stim,false,1,708.5,1,0,0,48534,task2,1477729,false,false,1804,image-keyboard-response,16
true,17,1,1,1,true,z,false,true,0.0-2.0-0.59-0.534-3.534,0,0,0,90,false,stim,false,0,991.5999999996275,1,0,1,48534,task2,1480238,false,false,1807,image-keyboard-response,17
true,17,2,1,2,true,d,false,true,0.0-2.0-0.59-0.535-3.535,0,0,0,68,false,stim,false,1,363.59999999962747,1,0,2,48534,task2,1482133,false,false,1810,image-keyboard-response,18
true,17,0,1,0,true,q,false,true,0.0-2.0-0.59-0.536-3.536,0,0,0,81,false,stim,false,1,456.5,1,0,0,48534,task2,1484106,false,false,1813,image-keyboard-response,19
true,17,1,1,1,true,z,false,true,0.0-2.0-0.59-0.537-3.537,0,0,0,90,false,stim,false,0,760.7999999998137,1,0,1,48534,task2,1486393,false,false,1816,image-keyboard-response,20
true,17,1,1,1,true,z,false,true,0.0-2.0-0.59-0.538-3.538,0,0,0,90,false,stim,false,0,718.7999999998137,1,0,1,48534,task2,1488641,false,false,1819,image-keyboard-response,21
true,17,0,1,0,true,q,false,true,0.0-2.0-0.59-0.539-3.539,0,0,0,81,false,stim,false,1,581.5,1,0,0,48534,task2,1490747,false,false,1822,image-keyboard-response,22
true,17,0,1,0,true,q,false,true,0.0-2.0-0.60-0.540-3.540,0,0,0,81,false,stim,false,1,577.2999999998137,1,0,0,48534,task2,1492847,false,false,1825,image-keyboard-response,23
true,17,1,1,1,true,z,false,true,0.0-2.0-0.60-0.541-3.541,0,0,0,90,false,stim,false,0,816.7999999998137,1,0,1,48534,task2,1495195,false,false,1828,image-keyboard-response,24
true,17,1,1,1,true,z,false,true,0.0-2.0-0.60-0.542-3.542,0,0,0,90,false,stim,false,0,505.0,1,0,1,48534,task2,1497222,false,false,1831,image-keyboard-response,25
true,17,2,1,2,true,d,false,true,0.0-2.0-0.60-0.543-3.543,0,0,0,68,false,stim,false,1,512.2999999998137,1,0,2,48534,task2,1499263,false,false,1834,image-keyboard-response,26
true,17,2,1,2,true,d,false,true,0.0-2.0-0.60-0.544-3.544,0,0,0,68,false,stim,false,1,591.3999999994412,1,0,2,48534,task2,1501373,false,false,1837,image-keyboard-response,27
true,17,2,1,2,true,d,false,true,0.0-2.0-0.60-0.545-3.545,0,0,0,68,false,stim,false,1,480.0,1,0,2,48534,task2,1503383,false,false,1840,image-keyboard-response,28
true,17,0,1,0,true,q,false,true,0.0-2.0-0.60-0.546-3.546,0,0,0,81,false,stim,false,1,657.2999999998137,1,0,0,48534,task2,1505558,false,false,1843,image-keyboard-response,29
true,17,0,1,0,true,q,false,true,0.0-2.0-0.60-0.547-3.547,0,0,0,81,false,stim,false,1,448.40000000037253,1,0,0,48534,task2,1507526,false,false,1846,image-keyboard-response,30
true,17,1,1,1,true,z,false,true,0.0-2.0-0.60-0.548-3.548,0,0,0,90,false,stim,false,0,536.6000000005588,1,0,1,48534,task2,1509582,false,false,1849,image-keyboard-response,31
true,17,2,1,2,true,d,false,true,0.0-2.0-0.61-0.549-3.549,0,0,0,68,false,stim,false,1,414.5,1,1,2,48534,task2,1511517,false,false,1852,image-keyboard-response,32
true,17,1,1,1,true,z,false,false,0.0-2.0-0.61-0.550-3.550,0,0,0,90,false,stim,false,0,1234.7000000001863,1,0,1,48534,task2,1514280,false,true,1855,image-keyboard-response,33
true,17,0,1,0,true,q,false,false,0.0-2.0-0.61-0.551-3.551,0,0,0,81,false,stim,false,1,473.90000000037253,1,0,0,48534,task2,1516276,false,true,1858,image-keyboard-response,34
true,17,2,1,2,true,d,false,true,0.0-2.0-0.61-0.552-3.552,0,0,0,68,false,stim,false,1,428.8999999994412,1,1,2,48534,task2,1518221,false,false,1861,image-keyboard-response,35
true,18,1,2,2,false,d,false,false,0.0-2.0-0.61-0.553-3.553,0,0,1,90,true,stim,true,1,751.9000000003725,1,0,1,48534,task2,1520490,false,false,1864,image-keyboard-response,1
true,18,1,2,1,true,z,false,true,0.0-2.0-0.61-0.554-3.554,0,0,1,90,false,stim,false,0,1353.6000000005588,1,0,0,48534,task2,1523355,false,false,1867,image-keyboard-response,2
true,18,0,2,2,false,d,true,false,0.0-2.0-0.61-0.555-3.555,0,0,1,81,false,stim,false,1,537.4000000003725,1,0,1,48534,task2,1525416,false,false,1870,image-keyboard-response,3
true,18,1,2,1,true,z,false,true,0.0-2.0-0.61-0.556-3.556,0,0,1,90,false,stim,false,0,403.59999999962747,1,0,0,48534,task2,1527339,false,false,1873,image-keyboard-response,4
true,18,2,2,2,true,d,false,true,0.0-2.0-0.61-0.557-3.557,0,0,1,68,false,stim,false,2,404.5,1,1,2,48534,task2,1529259,false,false,1876,image-keyboard-response,5
true,18,1,2,1,true,z,false,true,0.0-2.0-0.62-0.558-3.558,0,0,1,90,false,stim,false,0,1693.2999999998137,1,0,0,48534,task2,1532472,false,false,1879,image-keyboard-response,6
true,18,2,2,2,true,d,false,true,0.0-2.0-0.62-0.559-3.559,0,0,1,68,false,stim,false,2,724.7999999998137,1,1,2,48534,task2,1534726,false,false,1882,image-keyboard-response,7
true,18,2,2,2,true,d,false,true,0.0-2.0-0.62-0.560-3.560,0,0,1,68,false,stim,false,1,612.5,1,0,1,48534,task2,1536857,false,false,1885,image-keyboard-response,8
true,18,1,2,1,true,z,false,true,0.0-2.0-0.62-0.561-3.561,0,0,1,90,false,stim,false,0,559.8999999994412,1,0,0,48534,task2,1538946,false,false,1888,image-keyboard-response,9
true,18,2,2,2,true,d,false,true,0.0-2.0-0.62-0.562-3.562,0,0,1,68,false,stim,false,1,610.2999999998137,1,0,1,48534,task2,1541084,false,false,1891,image-keyboard-response,10
true,18,2,2,2,true,d,false,true,0.0-2.0-0.62-0.563-3.563,0,0,1,68,false,stim,false,2,302.29999999981374,1,1,2,48534,task2,1542899,false,false,1894,image-keyboard-response,11
true,18,1,2,1,true,z,false,true,0.0-2.0-0.62-0.564-3.564,0,0,1,90,false,stim,false,0,379.09999999962747,1,0,0,48534,task2,1544798,false,false,1897,image-keyboard-response,12
true,18,2,2,2,true,d,false,true,0.0-2.0-0.62-0.565-3.565,0,0,1,68,false,stim,false,1,348.20000000018626,1,0,1,48534,task2,1546675,false,false,1900,image-keyboard-response,13
true,18,2,2,2,true,d,false,true,0.0-2.0-0.62-0.566-3.566,0,0,1,68,false,stim,false,2,392.5,1,1,2,48534,task2,1548597,false,false,1903,image-keyboard-response,14
true,18,2,2,2,true,d,false,true,0.0-2.0-0.63-0.567-3.567,0,0,1,68,false,stim,false,1,487.6000000005588,1,0,1,48534,task2,1550609,false,false,1906,image-keyboard-response,15
true,18,2,2,2,true,d,false,true,0.0-2.0-0.63-0.568-3.568,0,0,1,68,false,stim,false,2,322.1000000005588,1,1,2,48534,task2,1552455,false,false,1909,image-keyboard-response,16
true,18,1,2,1,true,z,false,true,0.0-2.0-0.63-0.569-3.569,0,0,1,90,false,stim,false,0,514.5,1,0,0,48534,task2,1554483,false,false,1912,image-keyboard-response,17
true,18,2,2,2,true,d,false,true,0.0-2.0-0.63-0.570-3.570,0,0,1,68,false,stim,false,2,697.6999999992549,1,1,2,48534,task2,1556708,false,false,1915,image-keyboard-response,18
true,18,2,2,2,true,d,false,true,0.0-2.0-0.63-0.571-3.571,0,0,1,68,false,stim,false,1,415.0,1,0,1,48534,task2,1558642,false,false,1918,image-keyboard-response,19
true,18,1,2,1,true,z,false,true,0.0-2.0-0.63-0.572-3.572,0,0,1,90,false,stim,false,0,372.09999999962747,1,0,0,48534,task2,1560532,false,false,1921,image-keyboard-response,20
true,18,2,2,2,true,d,false,true,0.0-2.0-0.63-0.573-3.573,0,0,1,68,false,stim,false,1,380.5,1,0,1,48534,task2,1562427,false,false,1924,image-keyboard-response,21
true,18,1,2,1,true,z,false,true,0.0-2.0-0.63-0.574-3.574,0,0,1,90,false,stim,false,0,577.7000000001863,1,0,0,48534,task2,1564529,false,false,1927,image-keyboard-response,22
true,18,2,2,2,true,d,false,true,0.0-2.0-0.63-0.575-3.575,0,0,1,68,false,stim,false,2,583.3999999994412,1,1,2,48534,task2,1566632,false,false,1930,image-keyboard-response,23
true,18,2,2,2,true,d,false,true,0.0-2.0-0.64-0.576-3.576,0,0,1,68,false,stim,false,1,411.0,1,0,1,48534,task2,1568567,false,false,1933,image-keyboard-response,24
true,18,1,2,1,true,z,false,true,0.0-2.0-0.64-0.577-3.577,0,0,1,90,false,stim,false,0,358.40000000037253,1,0,0,48534,task2,1570450,false,false,1936,image-keyboard-response,25
true,18,2,2,2,true,d,false,true,0.0-2.0-0.64-0.578-3.578,0,0,1,68,false,stim,false,2,321.09999999962747,1,1,2,48534,task2,1572286,false,false,1939,image-keyboard-response,26
true,18,2,2,2,true,d,false,true,0.0-2.0-0.64-0.579-3.579,0,0,1,68,false,stim,false,1,312.0,1,0,1,48534,task2,1574120,false,false,1942,image-keyboard-response,27
true,18,1,2,1,true,z,false,true,0.0-2.0-0.64-0.580-3.580,0,0,1,90,false,stim,false,0,316.09999999962747,1,0,0,48534,task2,1575956,false,false,1945,image-keyboard-response,28
true,18,2,2,2,true,d,false,true,0.0-2.0-0.64-0.581-3.581,0,0,1,68,false,stim,false,1,300.80000000074506,1,1,1,48534,task2,1577779,false,false,1948,image-keyboard-response,29
true,18,2,2,2,true,d,false,true,0.0-2.0-0.64-0.582-3.582,0,0,1,68,false,stim,false,2,334.20000000018626,1,0,2,48534,task2,1579638,false,false,1951,image-keyboard-response,30
true,18,2,2,2,true,d,false,true,0.0-2.0-0.64-0.583-3.583,0,0,1,68,false,stim,false,2,752.2000000001863,1,0,2,48534,task2,1581914,false,false,1954,image-keyboard-response,31
true,18,1,2,1,true,z,false,true,0.0-2.0-0.64-0.584-3.584,0,0,1,90,false,stim,false,0,496.79999999981374,1,0,0,48534,task2,1583932,false,false,1957,image-keyboard-response,32
true,19,1,2,0,false,q,false,true,0.0-2.0-0.65-0.585-3.585,0,1,0,90,true,stim,true,1,586.8000000007451,1,0,0,48534,task2,1586037,false,true,1960,image-keyboard-response,1
true,19,2,2,0,false,q,false,false,0.0-2.0-0.65-0.586-3.586,0,1,0,68,false,stim,true,2,429.79999999981374,1,0,2,48534,task2,1587985,false,false,1963,image-keyboard-response,2
true,19,1,2,0,false,q,false,false,0.0-2.0-0.65-0.587-3.587,0,1,0,90,false,stim,true,1,521.2999999998137,1,0,0,48534,task2,1590025,false,false,1966,image-keyboard-response,3
true,19,2,2,2,true,d,false,true,0.0-2.0-0.65-0.588-3.588,0,1,0,68,false,stim,false,2,367.79999999981374,1,1,1,48534,task2,1591922,false,false,1969,image-keyboard-response,4
true,19,2,2,2,true,d,false,true,0.0-2.0-0.65-0.589-3.589,0,1,0,68,false,stim,false,2,927.5,1,1,1,48534,task2,1594363,false,false,1972,image-keyboard-response,5
true,19,0,2,0,true,q,false,true,0.0-2.0-0.65-0.590-3.590,0,1,0,81,false,stim,false,2,931.0999999996275,1,0,2,48534,task2,1596815,false,false,1975,image-keyboard-response,6
