answered,blockNum,choice,condition,corResp,correct,correct_response,explo,fb,internal_node_id,isStable_1,isStable_2,isStable_3,key_press,newBlock,part,persev,persevResp,rt,sessNum,stableAS,stimulus,subject,task,time_elapsed,training,trap,trial_index,trial_type,trialsInBlock
true,1,1,0,1,true,z,false,true,0.0-2.0-0.0-0.0-3.0,0,0,0,90,true,stim,false,-1,1303.2999999523163,0,0,0,48534,task1,279873,false,false,184,image-keyboard-response,1
true,1,1,0,1,true,z,false,true,0.0-2.0-0.0-0.1-3.1,0,0,0,90,false,stim,false,-1,513.8999999761581,0,0,0,48534,task1,281912,false,false,187,image-keyboard-response,2
true,1,0,0,2,false,d,true,false,0.0-2.0-0.0-0.2-3.2,0,0,0,81,false,stim,false,-1,1133.4000000953674,0,0,1,48534,task1,284579,false,false,190,image-keyboard-response,3
true,1,2,0,2,true,d,false,true,0.0-2.0-0.0-0.3-3.3,0,0,0,68,false,stim,false,-1,1994.8999999761581,0,0,1,48534,task1,288092,false,false,193,image-keyboard-response,4
true,1,1,0,2,false,d,true,false,0.0-2.0-0.0-0.4-3.4,0,0,0,90,false,stim,false,-1,2326.899999976158,0,0,2,48534,task1,291946,false,false,196,image-keyboard-response,5
true,1,2,0,1,false,z,true,false,0.0-2.0-0.0-0.5-3.5,0,0,0,68,false,stim,false,-1,2269.0,0,0,0,48534,task1,295737,false,false,199,image-keyboard-response,6
true,1,0,0,2,false,d,true,false,0.0-2.0-0.0-0.6-3.6,0,0,0,81,false,stim,false,-1,1778.0,0,0,1,48534,task1,299039,false,false,202,image-keyboard-response,7
true,1,1,0,2,false,d,true,false,0.0-2.0-0.0-0.7-3.7,0,0,0,90,false,stim,false,-1,1708.7999999523163,0,0,2,48534,task1,302263,false,false,205,image-keyboard-response,8
true,1,0,0,2,false,d,true,false,0.0-2.0-0.0-0.8-3.8,0,0,0,81,false,stim,false,-1,1060.0,0,0,2,48534,task1,304842,false,false,208,image-keyboard-response,9
true,1,1,0,2,false,d,true,false,0.0-2.0-0.1-0.9-3.9,0,0,0,90,false,stim,false,-1,1186.3999999761581,0,0,1,48534,task1,307551,false,false,211,image-keyboard-response,10
true,1,2,0,1,false,z,true,false,0.0-2.0-0.1-0.10-3.10,0,0,0,68,false,stim,false,-1,1239.7000000476837,0,0,0,48534,task1,310320,false,false,214,image-keyboard-response,11
true,1,2,0,2,true,d,false,false,0.0-2.0-0.1-0.11-3.11,0,0,0,68,false,stim,false,-1,2818.1999999284744,0,0,2,48534,task1,314668,false,true,217,image-keyboard-response,12
true,1,0,0,2,false,d,true,false,0.0-2.0-0.1-0.12-3.12,0,0,0,81,false,stim,false,-1,1213.0999999046326,0,0,1,48534,task1,317410,false,false,220,image-keyboard-response,13
true,1,1,0,2,false,d,true,false,0.0-2.0-0.1-0.13-3.13,0,0,0,90,false,stim,false,-1,1100.5,0,0,2,48534,task1,320021,false,false,223,image-keyboard-response,14
true,1,0,0,1,false,z,true,false,0.0-2.0-0.1-0.14-3.14,0,0,0,81,false,stim,false,-1,1626.8999999761581,0,0,0,48534,task1,323173,false,false,226,image-keyboard-response,15
true,1,0,0,2,false,d,true,false,0.0-2.0-0.1-0.15-3.15,0,0,0,81,false,stim,false,-1,2642.899999976158,0,0,2,48534,task1,327329,false,false,229,image-keyboard-response,16
true,1,1,0,1,true,z,false,true,0.0-2.0-0.1-0.16-3.16,0,0,0,90,false,stim,false,-1,2528.0,0,0,0,48534,task1,331376,false,false,232,image-keyboard-response,17
true,1,1,0,2,false,d,true,false,0.0-2.0-0.1-0.17-3.17,0,0,0,90,false,stim,false,-1,1924.5999999046326,0,0,1,48534,task1,334812,false,false,235,image-keyboard-response,18
true,1,2,0,2,true,d,false,true,0.0-2.0-0.2-0.18-3.18,0,0,0,68,false,stim,false,-1,2752.0,0,0,2,48534,task1,339082,false,false,238,image-keyboard-response,19
true,1,2,0,2,true,d,false,true,0.0-2.0-0.2-0.19-3.19,0,0,0,68,false,stim,false,-1,869.0999999046326,0,0,2,48534,task1,341473,false,false,241,image-keyboard-response,20
true,1,1,0,1,true,z,false,true,0.0-2.0-0.2-0.20-3.20,0,0,0,90,false,stim,false,-1,1159.7999999523163,0,0,0,48534,task1,344164,false,false,244,image-keyboard-response,21
true,1,0,0,2,false,d,true,false,0.0-2.0-0.2-0.21-3.21,0,0,0,81,false,stim,false,-1,1160.3000000715256,0,0,1,48534,task1,346840,false,false,247,image-keyboard-response,22
true,1,1,0,2,false,d,true,false,0.0-2.0-0.2-0.22-3.22,0,0,0,90,false,stim,false,-1,953.3999999761581,0,0,1,48534,task1,349304,false,false,250,image-keyboard-response,23
true,1,1,0,1,true,z,false,true,0.0-2.0-0.2-0.23-3.23,0,0,0,90,false,stim,false,-1,1736.0,0,0,0,48534,task1,352569,false,false,253,image-keyboard-response,24
true,1,1,0,1,true,z,false,true,0.0-2.0-0.2-0.24-3.24,0,0,0,90,false,stim,false,-1,790.1999999284744,0,0,0,48534,task1,354873,false,false,256,image-keyboard-response,25
true,1,2,0,2,true,d,false,true,0.0-2.0-0.2-0.25-3.25,0,0,0,68,false,stim,false,-1,1120.3999999761581,0,0,1,48534,task1,357506,false,false,259,image-keyboard-response,26
true,2,2,1,1,false,z,false,false,0.0-2.0-0.2-0.26-3.26,0,0,0,68,true,stim,true,2,1681.3999999761581,0,0,2,48534,task1,360713,false,false,262,image-keyboard-response,1
true,2,1,1,1,true,z,false,true,0.0-2.0-0.3-0.27-3.27,0,0,0,90,false,stim,false,2,1145.5,0,0,2,48534,task1,363382,false,false,265,image-keyboard-response,2
true,2,2,1,0,false,q,false,false,0.0-2.0-0.3-0.28-3.28,0,0,0,68,false,stim,true,2,2299.9000000953674,0,0,1,48534,task1,367211,false,false,268,image-keyboard-response,3
true,2,2,1,2,true,d,false,true,0.0-2.0-0.3-0.29-3.29,0,0,0,68,false,stim,false,1,2887.0,0,0,0,48534,task1,371621,false,false,271,image-keyboard-response,4
true,2,1,1,1,true,z,false,false,0.0-2.0-0.3-0.30-3.30,0,0,0,90,false,stim,false,2,1622.8999999761581,0,0,2,48534,task1,374759,false,true,274,image-keyboard-response,5
true,2,2,1,2,true,d,false,true,0.0-2.0-0.3-0.31-3.31,0,0,0,68,false,stim,false,1,953.2999999523163,0,0,0,48534,task1,377237,false,false,277,image-keyboard-response,6
false,2,-1,1,0,false,q,true,false,0.0-2.0-0.3-0.32-3.32,0,0,0,,false,stim,false,2,,0,0,1,48534,task1,381768,false,false,280,image-keyboard-response,7
true,2,2,1,2,true,d,false,true,0.0-2.0-0.3-0.33-3.33,0,0,0,68,false,stim,false,1,1238.2000000476837,0,0,0,48534,task1,384536,false,false,283,image-keyboard-response,8
true,2,0,1,0,true,q,false,true,0.0-2.0-0.3-0.34-3.34,0,0,0,81,false,stim,false,2,1178.8999999761581,0,0,1,48534,task1,387246,false,false,286,image-keyboard-response,9
true,2,1,1,1,true,z,false,true,0.0-2.0-0.3-0.35-3.35,0,0,0,90,false,stim,false,2,1791.0999999046326,0,0,2,48534,task1,390552,false,false,289,image-keyboard-response,10
true,2,2,1,2,true,d,false,true,0.0-2.0-0.4-0.36-3.36,0,0,0,68,false,stim,false,1,951.1000000238419,0,0,0,48534,task1,393029,false,false,292,image-keyboard-response,11
true,2,1,1,1,true,z,false,true,0.0-2.0-0.4-0.37-3.37,0,0,0,90,false,stim,false,2,1134.1999999284744,0,0,2,48534,task1,395671,false,false,295,image-keyboard-response,12
true,2,1,1,1,true,z,false,true,0.0-2.0-0.4-0.38-3.38,0,0,0,90,false,stim,false,2,825.1000000238419,0,0,2,48534,task1,398012,false,false,298,image-keyboard-response,13
true,2,0,1,0,true,q,false,true,0.0-2.0-0.4-0.39-3.39,0,0,0,81,false,stim,false,2,530.3999999761581,0,0,1,48534,task1,400068,false,false,301,image-keyboard-response,14
true,2,1,1,1,true,z,false,true,0.0-2.0-0.4-0.40-3.40,0,0,0,90,false,stim,false,2,1160.3999999761581,0,0,2,48534,task1,402741,false,false,304,image-keyboard-response,15
true,2,0,1,0,true,q,false,true,0.0-2.0-0.4-0.41-3.41,0,0,0,81,false,stim,false,2,637.5,0,0,1,48534,task1,404903,false,false,307,image-keyboard-response,16
true,2,2,1,2,true,d,false,true,0.0-2.0-0.4-0.42-3.42,0,0,0,68,false,stim,false,1,474.5,0,0,0,48534,task1,406906,false,false,310,image-keyboard-response,17
true,2,2,1,2,true,d,false,true,0.0-2.0-0.4-0.43-3.43,0,0,0,68,false,stim,false,1,619.0999999046326,0,0,0,48534,task1,409046,false,false,313,image-keyboard-response,18
true,2,0,1,0,true,q,false,true,0.0-2.0-0.4-0.44-3.44,0,0,0,81,false,stim,false,2,1957.1999999284744,0,0,1,48534,task1,412518,false,false,316,image-keyboard-response,19
true,2,0,1,0,true,q,false,false,0.0-2.0-0.5-0.45-3.45,0,0,0,81,false,stim,false,2,512.3999999761581,0,0,1,48534,task1,414552,false,true,319,image-keyboard-response,20
true,2,1,1,2,false,d,false,false,0.0-2.0-0.5-0.46-3.46,0,0,0,90,false,stim,true,1,1285.0,0,0,0,48534,task1,417363,false,false,322,image-keyboard-response,21
true,2,0,1,0,true,q,false,true,0.0-2.0-0.5-0.47-3.47,0,0,0,81,false,stim,false,2,1206.0,0,0,1,48534,task1,420095,false,false,325,image-keyboard-response,22
true,2,0,1,0,true,q,false,true,0.0-2.0-0.5-0.48-3.48,0,0,0,81,false,stim,false,2,822.6000000238419,0,0,1,48534,task1,422434,false,false,328,image-keyboard-response,23
true,2,2,1,1,false,z,false,false,0.0-2.0-0.5-0.49-3.49,0,0,0,68,false,stim,true,2,1012.3999999761581,0,0,2,48534,task1,424968,false,false,331,image-keyboard-response,24
true,2,1,1,1,true,z,false,true,0.0-2.0-0.5-0.50-3.50,0,0,0,90,false,stim,false,2,717.5,0,0,2,48534,task1,427194,false,false,334,image-keyboard-response,25
true,2,1,1,1,true,z,false,true,0.0-2.0-0.5-0.51-3.51,0,0,0,90,false,stim,false,2,454.6999999284744,0,0,2,48534,task1,429169,false,false,337,image-keyboard-response,26
true,2,2,1,2,true,d,false,true,0.0-2.0-0.5-0.52-3.52,0,0,0,68,false,stim,false,1,1097.0,0,0,0,48534,task1,431792,false,false,340,image-keyboard-response,27
true,2,2,1,2,true,d,false,true,0.0-2.0-0.5-0.53-3.53,0,0,0,68,false,stim,false,1,499.0,0,0,0,48534,task1,433817,false,false,343,image-keyboard-response,28
true,2,2,1,2,true,d,false,true,0.0-2.0-0.6-0.54-3.54,0,0,0,68,false,stim,false,1,508.0,0,0,0,48534,task1,435855,false,false,346,image-keyboard-response,29
true,2,2,1,2,true,d,false,true,0.0-2.0-0.6-0.55-3.55,0,0,0,68,false,stim,false,1,553.9000000953674,0,0,0,48534,task1,437932,false,false,349,image-keyboard-response,30
true,2,0,1,0,true,q,false,true,0.0-2.0-0.6-0.56-3.56,0,0,0,81,false,stim,false,2,1244.3999999761581,0,0,1,48534,task1,440701,false,false,352,image-keyboard-response,31
true,2,1,1,1,true,z,false,true,0.0-2.0-0.6-0.57-3.57,0,0,0,90,false,stim,false,2,973.0,0,0,2,48534,task1,443203,false,false,355,image-keyboard-response,32
true,2,1,1,1,true,z,false,true,0.0-2.0-0.6-0.58-3.58,0,0,0,90,false,stim,false,2,718.1000000238419,0,0,2,48534,task1,445433,false,false,358,image-keyboard-response,33
true,2,0,1,0,true,q,false,true,0.0-2.0-0.6-0.59-3.59,0,0,0,81,false,stim,false,2,652.7999999523163,0,0,1,48534,task1,447603,false,false,361,image-keyboard-response,34
true,2,1,1,1,true,z,false,true,0.0-2.0-0.6-0.60-3.60,0,0,0,90,false,stim,false,2,1271.0,0,0,2,48534,task1,450402,false,false,364,image-keyboard-response,35
true,2,2,1,2,true,d,false,true,0.0-2.0-0.6-0.61-3.61,0,0,0,68,false,stim,false,1,500.09999990463257,0,0,0,48534,task1,452427,false,false,367,image-keyboard-response,36
true,2,0,1,0,true,q,false,true,0.0-2.0-0.6-0.62-3.62,0,0,0,81,false,stim,false,2,517.3000000715256,0,0,1,48534,task1,454451,false,false,370,image-keyboard-response,37
true,2,1,1,1,true,z,false,true,0.0-2.0-0.7-0.63-3.63,0,0,0,90,false,stim,false,2,772.8999999761581,0,0,2,48534,task1,456738,false,false,373,image-keyboard-response,38
true,2,0,1,0,true,q,false,true,0.0-2.0-0.7-0.64-3.64,0,0,0,81,false,stim,false,2,509.7999999523163,0,0,1,48534,task1,458759,false,false,376,image-keyboard-response,39
true,3,2,1,0,false,q,false,true,0.0-2.0-0.7-0.65-3.65,0,0,0,68,true,stim,true,2,550.5,0,0,0,48534,task1,460828,false,true,379,image-keyboard-response,1
true,3,1,1,0,false,q,false,false,0.0-2.0-0.7-0.66-3.66,0,0,0,90,false,stim,true,1,540.7999999523163,0,0,2,48534,task1,462887,false,false,382,image-keyboard-response,2
true,3,2,1,0,false,q,false,false,0.0-2.0-0.7-0.67-3.67,0,0,0,68,false,stim,true,2,2675.5,0,0,0,48534,task1,467079,false,false,385,image-keyboard-response,3
true,3,2,1,0,false,q,false,false,0.0-2.0-0.7-0.68-3.68,0,0,0,68,false,stim,true,2,1297.3999999761581,0,0,0,48534,task1,469909,false,false,388,image-keyboard-response,4
true,3,0,1,2,false,d,false,false,0.0-2.0-0.7-0.69-3.69,0,0,0,81,false,stim,true,0,1221.5,0,0,1,48534,task1,472654,false,false,391,image-keyboard-response,5
true,3,1,1,2,false,d,true,false,0.0-2.0-0.7-0.70-3.70,0,0,0,90,false,stim,false,0,803.1000000238419,0,0,1,48534,task1,474986,false,false,394,image-keyboard-response,6
true,3,0,1,0,true,q,false,true,0.0-2.0-0.7-0.71-3.71,0,0,0,81,false,stim,false,1,1093.1999999284744,0,0,2,48534,task1,477611,false,false,397,image-keyboard-response,7
true,3,2,1,2,true,d,false,true,0.0-2.0-0.8-0.72-3.72,0,0,0,68,false,stim,false,0,917.5,0,0,1,48534,task1,480051,false,false,400,image-keyboard-response,8
true,3,2,1,2,true,d,false,true,0.0-2.0-0.8-0.73-3.73,0,0,0,68,false,stim,false,0,1921.2000000476837,0,0,1,48534,task1,483502,false,false,403,image-keyboard-response,9
true,3,0,1,0,true,q,false,true,0.0-2.0-0.8-0.74-3.74,0,0,0,81,false,stim,false,1,524.6999999284744,0,0,2,48534,task1,485539,false,false,406,image-keyboard-response,10
true,3,1,1,0,false,q,true,false,0.0-2.0-0.8-0.75-3.75,0,0,0,90,false,stim,false,2,879.5,0,0,0,48534,task1,487943,false,false,409,image-keyboard-response,11
true,3,2,1,0,false,q,false,true,0.0-2.0-0.8-0.76-3.76,0,0,0,68,false,stim,true,2,637.7999999523163,0,0,0,48534,task1,490093,false,true,412,image-keyboard-response,12
true,3,0,1,0,true,q,false,true,0.0-2.0-0.8-0.77-3.77,0,0,0,81,false,stim,false,1,1758.8999999761581,0,0,2,48534,task1,493371,false,false,415,image-keyboard-response,13
true,3,2,1,0,false,q,false,true,0.0-2.0-0.8-0.78-3.78,0,0,0,68,false,stim,true,2,413.10000002384186,0,0,0,48534,task1,495301,false,true,418,image-keyboard-response,14
true,3,2,1,2,true,d,false,true,0.0-2.0-0.8-0.79-3.79,0,0,0,68,false,stim,false,0,319.7999999523163,0,0,1,48534,task1,497144,false,false,421,image-keyboard-response,15
true,3,0,1,0,true,q,false,true,0.0-2.0-0.8-0.80-3.80,0,0,0,81,false,stim,false,1,458.2999999523163,0,0,2,48534,task1,499120,false,false,424,image-keyboard-response,16
true,3,2,1,0,false,q,false,false,0.0-2.0-0.9-0.81-3.81,0,0,0,68,false,stim,true,2,686.6000000238419,0,0,0,48534,task1,501319,false,false,427,image-keyboard-response,17
true,3,0,1,0,true,q,false,true,0.0-2.0-0.9-0.82-3.82,0,0,0,81,false,stim,false,1,701.0,0,0,2,48534,task1,503549,false,false,430,image-keyboard-response,18
true,3,0,1,0,true,q,false,true,0.0-2.0-0.9-0.83-3.83,0,0,0,81,false,stim,false,1,1063.7000000476837,0,0,2,48534,task1,506132,false,false,433,image-keyboard-response,19
true,3,2,1,2,true,d,false,true,0.0-2.0-0.9-0.84-3.84,0,0,0,68,false,stim,false,0,700.8999999761581,0,0,1,48534,task1,508354,false,false,436,image-keyboard-response,20
true,3,1,1,0,false,q,true,false,0.0-2.0-0.9-0.85-3.85,0,0,0,90,false,stim,false,2,439.5,0,0,0,48534,task1,510317,false,false,439,image-keyboard-response,21
true,3,0,1,0,true,q,false,true,0.0-2.0-0.9-0.86-3.86,0,0,0,81,false,stim,false,2,648.2999999523163,0,0,0,48534,task1,512494,false,false,442,image-keyboard-response,22
true,3,0,1,2,false,d,false,false,0.0-2.0-0.9-0.87-3.87,0,0,0,81,false,stim,true,0,762.2000000476837,0,0,1,48534,task1,514775,false,false,445,image-keyboard-response,23
false,3,-1,1,0,false,q,true,true,0.0-2.0-0.9-0.88-3.88,0,0,0,,false,stim,false,1,,0,0,2,48534,task1,519296,false,true,448,image-keyboard-response,24
true,3,2,1,2,true,d,false,true,0.0-2.0-0.9-0.89-3.89,0,0,0,68,false,stim,false,0,2404.7999999523163,0,0,1,48534,task1,523216,false,false,451,image-keyboard-response,25
true,3,0,1,0,true,q,false,true,0.0-2.0-0.10-0.90-3.90,0,0,0,81,false,stim,false,1,754.0,0,0,2,48534,task1,525502,false,false,454,image-keyboard-response,26
true,3,0,1,0,true,q,false,true,0.0-2.0-0.10-0.91-3.91,0,0,0,81,false,stim,false,1,1908.7999999523163,0,0,2,48534,task1,528939,false,false,457,image-keyboard-response,27
true,3,2,1,2,true,d,false,true,0.0-2.0-0.10-0.92-3.92,0,0,0,68,false,stim,false,0,630.5,0,0,1,48534,task1,531096,false,false,460,image-keyboard-response,28
true,3,2,1,2,true,d,false,true,0.0-2.0-0.10-0.93-3.93,0,0,0,68,false,stim,false,0,872.5,0,0,1,48534,task1,533500,false,false,463,image-keyboard-response,29
true,3,0,1,0,true,q,false,true,0.0-2.0-0.10-0.94-3.94,0,0,0,81,false,stim,false,2,742.6000000238419,0,0,0,48534,task1,535774,false,false,466,image-keyboard-response,30
true,3,2,1,2,true,d,false,true,0.0-2.0-0.10-0.95-3.95,0,0,0,68,false,stim,false,0,968.5,0,0,1,48534,task1,538249,false,false,469,image-keyboard-response,31
true,3,0,1,0,true,q,false,true,0.0-2.0-0.10-0.96-3.96,0,0,0,81,false,stim,false,2,706.9000000953674,0,0,0,48534,task1,540474,false,false,472,image-keyboard-response,32
true,3,0,1,0,true,q,false,true,0.0-2.0-0.10-0.97-3.97,0,0,0,81,false,stim,false,2,756.1000000238419,0,0,0,48534,task1,542743,false,false,475,image-keyboard-response,33
true,3,2,1,0,false,q,true,false,0.0-2.0-0.10-0.98-3.98,0,0,0,68,false,stim,false,1,2078.0,0,0,2,48534,task1,546345,false,false,478,image-keyboard-response,34
true,3,2,1,2,true,d,false,true,0.0-2.0-0.11-0.99-3.99,0,0,0,68,false,stim,false,0,883.0,0,0,1,48534,task1,548759,false,false,481,image-keyboard-response,35
true,3,0,1,0,true,q,false,true,0.0-2.0-0.11-0.100-3.100,0,0,0,81,false,stim,false,1,432.5,0,0,2,48534,task1,550714,false,false,484,image-keyboard-response,36
true,3,0,1,0,true,q,false,true,0.0-2.0-0.11-0.101-3.101,0,0,0,81,false,stim,false,1,377.7999999523163,0,0,2,48534,task1,552624,false,false,487,image-keyboard-response,37
true,3,0,1,0,true,q,false,true,0.0-2.0-0.11-0.102-3.102,0,0,0,81,false,stim,false,2,1095.0,0,0,0,48534,task1,555238,false,false,490,image-keyboard-response,38
true,3,2,1,2,true,d,false,true,0.0-2.0-0.11-0.103-3.103,0,0,0,68,false,stim,false,0,1908.0,0,0,1,48534,task1,558674,false,false,493,image-keyboard-response,39
true,3,0,1,0,true,q,false,false,0.0-2.0-0.11-0.104-3.104,0,0,0,81,false,stim,false,2,727.6000000238419,0,0,0,48534,task1,560924,false,true,496,image-keyboard-response,40
true,3,2,1,2,true,d,false,true,0.0-2.0-0.11-0.105-3.105,0,0,0,68,false,stim,false,0,1453.2000000476837,0,0,1,48534,task1,563890,false,false,499,image-keyboard-response,41
true,3,1,1,0,false,q,true,false,0.0-2.0-0.11-0.106-3.106,0,0,0,90,false,stim,false,2,932.8999999761581,0,0,0,48534,task1,566353,false,false,502,image-keyboard-response,42
true,3,0,1,0,true,q,false,true,0.0-2.0-0.11-0.107-3.107,0,0,0,81,false,stim,false,1,1850.3000000715256,0,0,2,48534,task1,569729,false,false,505,image-keyboard-response,43
true,3,2,1,0,false,q,false,false,0.0-2.0-0.12-0.108-3.108,0,0,0,68,false,stim,true,2,1125.8999999761581,0,0,0,48534,task1,572390,false,false,508,image-keyboard-response,44
true,4,0,1,2,false,d,false,false,0.0-2.0-0.12-0.109-3.109,0,0,0,81,true,stim,true,0,1274.1999999284744,0,0,2,48534,task1,575191,false,false,511,image-keyboard-response,1
true,4,2,1,1,false,z,false,false,0.0-2.0-0.12-0.110-3.110,0,0,0,68,false,stim,true,2,793.7000000476837,0,0,1,48534,task1,577502,false,false,514,image-keyboard-response,2
true,4,0,1,2,false,d,false,false,0.0-2.0-0.12-0.111-3.111,0,0,0,81,false,stim,true,0,1222.1000000238419,0,0,0,48534,task1,580248,false,false,517,image-keyboard-response,3
true,4,1,1,2,false,d,true,false,0.0-2.0-0.12-0.112-3.112,0,0,0,90,false,stim,false,0,808.8999999761581,0,0,0,48534,task1,582579,false,false,520,image-keyboard-response,4
true,4,0,1,2,false,d,false,false,0.0-2.0-0.12-0.113-3.113,0,0,0,81,false,stim,true,0,1302.6000000238419,0,0,2,48534,task1,585401,false,false,523,image-keyboard-response,5
true,4,0,1,1,false,z,true,false,0.0-2.0-0.12-0.114-3.114,0,0,0,81,false,stim,false,2,1279.2999999523163,0,0,1,48534,task1,588204,false,false,526,image-keyboard-response,6
true,4,1,1,2,false,d,true,false,0.0-2.0-0.12-0.115-3.115,0,0,0,90,false,stim,false,0,1196.7999999523163,0,0,2,48534,task1,590923,false,false,529,image-keyboard-response,7
true,4,2,1,1,false,z,false,false,0.0-2.0-0.12-0.116-3.116,0,0,0,68,false,stim,true,2,1139.2000000476837,0,0,1,48534,task1,593576,false,false,532,image-keyboard-response,8
true,4,2,1,2,true,d,false,true,0.0-2.0-0.13-0.117-3.117,0,0,0,68,false,stim,false,0,441.2999999523163,0,0,2,48534,task1,595538,false,false,535,image-keyboard-response,9
true,4,0,1,2,false,d,false,true,0.0-2.0-0.13-0.118-3.118,0,0,0,81,false,stim,true,0,979.7000000476837,0,0,0,48534,task1,598036,false,true,538,image-keyboard-response,10
true,4,1,1,1,true,z,false,true,0.0-2.0-0.13-0.119-3.119,0,0,0,90,false,stim,false,2,956.2000000476837,0,0,1,48534,task1,600519,false,false,541,image-keyboard-response,11
true,4,2,1,2,true,d,false,true,0.0-2.0-0.13-0.120-3.120,0,0,0,68,false,stim,false,0,406.7000000476837,0,0,2,48534,task1,602452,false,false,544,image-keyboard-response,12
true,4,1,1,1,true,z,false,true,0.0-2.0-0.13-0.121-3.121,0,0,0,90,false,stim,false,2,1065.6999999284744,0,0,1,48534,task1,605036,false,false,547,image-keyboard-response,13
true,4,2,1,2,true,d,false,true,0.0-2.0-0.13-0.122-3.122,0,0,0,68,false,stim,false,0,725.1999999284744,0,0,2,48534,task1,607288,false,false,550,image-keyboard-response,14
true,4,1,1,1,true,z,false,true,0.0-2.0-0.13-0.123-3.123,0,0,0,90,false,stim,false,2,528.7999999523163,0,0,1,48534,task1,609329,false,false,553,image-keyboard-response,15
true,4,0,1,2,false,d,false,false,0.0-2.0-0.13-0.124-3.124,0,0,0,81,false,stim,true,0,526.6999999284744,0,0,0,48534,task1,611384,false,false,556,image-keyboard-response,16
true,4,1,1,2,false,d,true,true,0.0-2.0-0.13-0.125-3.125,0,0,0,90,false,stim,false,0,838.6000000238419,0,0,0,48534,task1,613753,false,true,559,image-keyboard-response,17
true,4,1,1,2,false,d,true,false,0.0-2.0-0.14-0.126-3.126,0,0,0,90,false,stim,false,0,684.5,0,0,0,48534,task1,615964,false,false,562,image-keyboard-response,18
true,4,2,1,2,true,d,false,true,0.0-2.0-0.14-0.127-3.127,0,0,0,68,false,stim,false,0,777.2999999523163,0,0,0,48534,task1,618257,false,false,565,image-keyboard-response,19
true,4,0,1,1,false,z,true,false,0.0-2.0-0.14-0.128-3.128,0,0,0,81,false,stim,false,2,1270.0,0,0,1,48534,task1,621041,false,false,568,image-keyboard-response,20
true,4,2,1,2,true,d,false,false,0.0-2.0-0.14-0.129-3.129,0,0,0,68,false,stim,false,0,1600.4000000953674,0,0,2,48534,task1,624151,false,true,571,image-keyboard-response,21
true,4,1,1,1,true,z,false,true,0.0-2.0-0.14-0.130-3.130,0,0,0,90,false,stim,false,2,1867.8999999761581,0,0,1,48534,task1,627544,false,false,574,image-keyboard-response,22
true,4,0,1,2,false,d,false,false,0.0-2.0-0.14-0.131-3.131,0,0,0,81,false,stim,true,0,1113.1000000238419,0,0,0,48534,task1,630184,false,false,577,image-keyboard-response,23
true,4,1,1,1,true,z,false,true,0.0-2.0-0.14-0.132-3.132,0,0,0,90,false,stim,false,2,769.3999999761581,0,0,1,48534,task1,632475,false,false,580,image-keyboard-response,24
true,4,2,1,2,true,d,false,true,0.0-2.0-0.14-0.133-3.133,0,0,0,68,false,stim,false,0,545.7000000476837,0,0,2,48534,task1,634550,false,false,583,image-keyboard-response,25
true,4,2,1,2,true,d,false,true,0.0-2.0-0.14-0.134-3.134,0,0,0,68,false,stim,false,0,543.5,0,0,2,48534,task1,636614,false,false,586,image-keyboard-response,26
true,4,2,1,2,true,d,false,true,0.0-2.0-0.15-0.135-3.135,0,0,0,68,false,stim,false,0,496.5,0,0,2,48534,task1,638642,false,false,589,image-keyboard-response,27
true,4,1,1,1,true,z,false,false,0.0-2.0-0.15-0.136-3.136,0,0,0,90,false,stim,false,2,486.60000002384186,0,0,1,48534,task1,640641,false,true,592,image-keyboard-response,28
true,4,2,1,1,false,z,false,false,0.0-2.0-0.15-0.137-3.137,0,0,0,68,false,stim,true,2,818.0,0,0,1,48534,task1,642980,false,false,595,image-keyboard-response,29
true,4,0,1,2,false,d,false,false,0.0-2.0-0.15-0.138-3.138,0,0,0,81,false,stim,true,0,849.6000000238419,0,0,0,48534,task1,645356,false,false,598,image-keyboard-response,30
true,4,2,1,2,true,d,false,false,0.0-2.0-0.15-0.139-3.139,0,0,0,68,false,stim,false,0,1095.3000000715256,0,0,0,48534,task1,647982,false,true,601,image-keyboard-response,31
true,4,2,1,2,true,d,false,true,0.0-2.0-0.15-0.140-3.140,0,0,0,68,false,stim,false,0,2399.2000000476837,0,0,2,48534,task1,651894,false,false,604,image-keyboard-response,32
true,4,2,1,2,true,d,false,true,0.0-2.0-0.15-0.141-3.141,0,0,0,68,false,stim,false,0,871.8999999761581,0,0,0,48534,task1,654301,false,false,607,image-keyboard-response,33
true,4,1,1,1,true,z,false,true,0.0-2.0-0.15-0.142-3.142,0,0,0,90,false,stim,false,2,894.0999999046326,0,0,1,48534,task1,656711,false,false,610,image-keyboard-response,34
true,4,2,1,2,true,d,false,true,0.0-2.0-0.15-0.143-3.143,0,0,0,68,false,stim,false,0,437.0,0,0,2,48534,task1,658684,false,false,613,image-keyboard-response,35
true,4,2,1,2,true,d,false,true,0.0-2.0-0.16-0.144-3.144,0,0,0,68,false,stim,false,0,631.2000000476837,0,0,2,48534,task1,660823,false,false,616,image-keyboard-response,36
true,4,2,1,2,true,d,false,true,0.0-2.0-0.16-0.145-3.145,0,0,0,68,false,stim,false,0,359.5,0,0,2,48534,task1,662704,false,false,619,image-keyboard-response,37
true,4,1,1,2,false,d,true,false,0.0-2.0-0.16-0.146-3.146,0,0,0,90,false,stim,false,0,1273.1000000238419,0,0,0,48534,task1,665490,false,false,622,image-keyboard-response,38
true,4,2,1,2,true,d,false,true,0.0-2.0-0.16-0.147-3.147,0,0,0,68,false,stim,false,0,421.39999997615814,0,0,2,48534,task1,667420,false,false,625,image-keyboard-response,39
true,4,1,1,1,true,z,false,true,0.0-2.0-0.16-0.148-3.148,0,0,0,90,false,stim,false,2,1217.7999999523163,0,0,1,48534,task1,670160,false,false,628,image-keyboard-response,40
true,4,1,1,1,true,z,false,false,0.0-2.0-0.16-0.149-3.149,0,0,0,90,false,stim,false,2,1106.0999999046326,0,0,1,48534,task1,672791,false,true,631,image-keyboard-response,41
true,4,2,1,1,false,z,false,false,0.0-2.0-0.16-0.150-3.150,0,0,0,68,false,stim,true,2,538.8999999761581,0,0,1,48534,task1,674853,false,false,634,image-keyboard-response,42
true,4,2,1,2,true,d,false,true,0.0-2.0-0.16-0.151-3.151,0,0,0,68,false,stim,false,0,843.9000000953674,0,0,0,48534,task1,677219,false,false,637,image-keyboard-response,43
true,4,2,1,2,true,d,false,true,0.0-2.0-0.16-0.152-3.152,0,0,0,68,false,stim,false,0,502.39999997615814,0,0,0,48534,task1,679245,false,false,640,image-keyboard-response,44
true,4,0,1,1,false,z,true,false,0.0-2.0-0.17-0.153-3.153,0,0,0,81,false,stim,false,2,726.6000000238419,0,0,1,48534,task1,681490,false,false,643,image-keyboard-response,45
true,5,2,1,1,false,z,false,false,0.0-2.0-0.17-0.154-3.154,0,0,0,68,true,stim,true,2,603.3000000715256,0,0,2,48534,task1,683605,false,false,646,image-keyboard-response,1
true,5,1,1,0,false,q,false,false,0.0-2.0-0.17-0.155-3.155,0,0,0,90,false,stim,true,1,492.59999990463257,0,0,1,48534,task1,685617,false,false,649,image-keyboard-response,2
true,5,2,1,1,false,z,false,false,0.0-2.0-0.17-0.156-3.156,0,0,0,68,false,stim,true,2,1647.1000000238419,0,0,2,48534,task1,688777,false,false,652,image-keyboard-response,3
true,5,2,1,0,false,q,false,false,0.0-2.0-0.17-0.157-3.157,0,0,0,68,false,stim,true,2,1479.3999999761581,0,0,0,48534,task1,691789,false,false,655,image-keyboard-response,4
true,5,0,1,1,false,z,true,false,0.0-2.0-0.17-0.158-3.158,0,0,0,81,false,stim,false,2,1443.2000000476837,0,0,2,48534,task1,694745,false,false,658,image-keyboard-response,5
true,5,1,1,0,false,q,true,false,0.0-2.0-0.17-0.159-3.159,0,0,0,90,false,stim,false,2,1255.0,0,0,0,48534,task1,697531,false,false,661,image-keyboard-response,6
true,5,0,1,0,true,q,false,true,0.0-2.0-0.17-0.160-3.160,0,0,0,81,false,stim,false,2,1468.6000000238419,0,0,0,48534,task1,700526,false,false,664,image-keyboard-response,7
true,5,1,1,0,false,q,false,false,0.0-2.0-0.17-0.161-3.161,0,0,0,90,false,stim,true,1,1316.2000000476837,0,0,1,48534,task1,703368,false,false,667,image-keyboard-response,8
true,5,0,1,0,true,q,false,true,0.0-2.0-0.18-0.162-3.162,0,0,0,81,false,stim,false,2,873.1999999284744,0,0,0,48534,task1,705767,false,false,670,image-keyboard-response,9
true,5,2,1,1,false,z,false,false,0.0-2.0-0.18-0.163-3.163,0,0,0,68,false,stim,true,2,891.5999999046326,0,0,2,48534,task1,708184,false,false,673,image-keyboard-response,10
true,5,1,1,0,false,q,false,false,0.0-2.0-0.18-0.164-3.164,0,0,0,90,false,stim,true,1,1252.1000000238419,0,0,1,48534,task1,710950,false,false,676,image-keyboard-response,11
true,5,0,1,0,true,q,false,true,0.0-2.0-0.18-0.165-3.165,0,0,0,81,false,stim,false,2,696.0,0,0,0,48534,task1,713174,false,false,679,image-keyboard-response,12
true,5,2,1,0,false,q,true,false,0.0-2.0-0.18-0.166-3.166,0,0,0,68,false,stim,false,1,1629.8999999761581,0,0,1,48534,task1,716322,false,false,682,image-keyboard-response,13
true,5,0,1,0,true,q,false,true,0.0-2.0-0.18-0.167-3.167,0,0,0,81,false,stim,false,1,1308.5,0,0,1,48534,task1,719146,false,false,685,image-keyboard-response,14
true,5,1,1,1,true,z,false,true,0.0-2.0-0.18-0.168-3.168,0,0,0,90,false,stim,false,2,1499.9000000953674,0,0,2,48534,task1,722161,false,false,688,image-keyboard-response,15
true,5,0,1,0,true,q,false,true,0.0-2.0-0.18-0.169-3.169,0,0,0,81,false,stim,false,2,423.10000002384186,0,0,0,48534,task1,724101,false,false,691,image-keyboard-response,16
true,5,1,1,1,true,z,false,true,0.0-2.0-0.18-0.170-3.170,0,0,0,90,false,stim,false,2,1032.6000000238419,0,0,2,48534,task1,726656,false,false,694,image-keyboard-response,17
true,5,0,1,0,true,q,false,true,0.0-2.0-0.19-0.171-3.171,0,0,0,81,false,stim,false,2,550.3999999761581,0,0,0,48534,task1,728730,false,false,697,image-keyboard-response,18
true,5,1,1,0,false,q,false,false,0.0-2.0-0.19-0.172-3.172,0,0,0,90,false,stim,true,1,1163.8999999761581,0,0,1,48534,task1,731409,false,false,700,image-keyboard-response,19
true,5,1,1,1,true,z,false,true,0.0-2.0-0.19-0.173-3.173,0,0,0,90,false,stim,false,2,689.2000000476837,0,0,2,48534,task1,733631,false,false,703,image-keyboard-response,20
true,5,0,1,0,true,q,false,true,0.0-2.0-0.19-0.174-3.174,0,0,0,81,false,stim,false,2,374.8000000715256,0,0,0,48534,task1,735532,false,false,706,image-keyboard-response,21
true,5,0,1,0,true,q,false,true,0.0-2.0-0.19-0.175-3.175,0,0,0,81,false,stim,false,2,684.5,0,0,0,48534,task1,737741,false,false,709,image-keyboard-response,22
true,5,1,1,0,false,q,false,true,0.0-2.0-0.19-0.176-3.176,0,0,0,90,false,stim,true,1,756.5,0,0,1,48534,task1,740032,false,true,712,image-keyboard-response,23
true,5,1,1,0,false,q,false,false,0.0-2.0-0.19-0.177-3.177,0,0,0,90,false,stim,true,1,512.8999999761581,0,0,1,48534,task1,742059,false,false,715,image-keyboard-response,24
true,5,1,1,1,true,z,false,true,0.0-2.0-0.19-0.178-3.178,0,0,0,90,false,stim,false,2,1595.0,0,0,2,48534,task1,745175,false,false,718,image-keyboard-response,25
true,5,1,1,1,true,z,false,true,0.0-2.0-0.19-0.179-3.179,0,0,0,90,false,stim,false,2,532.1000000238419,0,0,2,48534,task1,747235,false,false,721,image-keyboard-response,26
true,5,0,1,0,true,q,false,true,0.0-2.0-0.20-0.180-3.180,0,0,0,81,false,stim,false,2,723.5,0,0,0,48534,task1,749473,false,false,724,image-keyboard-response,27
true,5,2,1,0,false,q,true,false,0.0-2.0-0.20-0.181-3.181,0,0,0,68,false,stim,false,1,708.6999999284744,0,0,1,48534,task1,751700,false,false,727,image-keyboard-response,28
true,5,0,1,0,true,q,false,true,0.0-2.0-0.20-0.182-3.182,0,0,0,81,false,stim,false,1,682.4000000953674,0,0,1,48534,task1,753891,false,false,730,image-keyboard-response,29
true,5,1,1,1,true,z,false,true,0.0-2.0-0.20-0.183-3.183,0,0,0,90,false,stim,false,2,574.1000000238419,0,0,2,48534,task1,755987,false,false,733,image-keyboard-response,30
true,5,0,1,0,true,q,false,true,0.0-2.0-0.20-0.184-3.184,0,0,0,81,false,stim,false,1,1175.5,0,0,1,48534,task1,758686,false,false,736,image-keyboard-response,31
true,5,1,1,1,true,z,false,true,0.0-2.0-0.20-0.185-3.185,0,0,0,90,false,stim,false,2,641.1000000238419,0,0,2,48534,task1,760844,false,false,739,image-keyboard-response,32
true,5,1,1,1,true,z,false,true,0.0-2.0-0.20-0.186-3.186,0,0,0,90,false,stim,false,2,561.1000000238419,0,0,2,48534,task1,762920,false,false,742,image-keyboard-response,33
true,5,0,1,0,true,q,false,true,0.0-2.0-0.20-0.187-3.187,0,0,0,81,false,stim,false,2,678.8000000715256,0,0,0,48534,task1,765108,false,false,745,image-keyboard-response,34
true,5,0,1,0,true,q,false,false,0.0-2.0-0.20-0.188-3.188,0,0,0,81,false,stim,false,2,479.10000002384186,0,0,0,48534,task1,767106,false,true,748,image-keyboard-response,35
true,5,1,1,0,false,q,true,false,0.0-2.0-0.21-0.189-3.189,0,0,0,90,false,stim,false,2,607.7000000476837,0,0,0,48534,task1,769243,false,false,751,image-keyboard-response,36
true,5,0,1,0,true,q,false,true,0.0-2.0-0.21-0.190-3.190,0,0,0,81,false,stim,false,1,1837.0,0,0,1,48534,task1,772612,false,false,754,image-keyboard-response,37
true,5,1,1,1,true,z,false,true,0.0-2.0-0.21-0.191-3.191,0,0,0,90,false,stim,false,2,812.0,0,0,2,48534,task1,774950,false,false,757,image-keyboard-response,38
true,5,0,1,0,true,q,false,true,0.0-2.0-0.21-0.192-3.192,0,0,0,81,false,stim,false,1,1769.8999999761581,0,0,1,48534,task1,778240,false,false,760,image-keyboard-response,39
true,5,2,1,0,false,q,false,false,0.0-2.0-0.21-0.193-3.193,0,0,0,68,false,stim,true,2,488.6999999284744,0,0,0,48534,task1,780244,false,false,763,image-keyboard-response,40
true,5,1,1,1,true,z,false,true,0.0-2.0-0.21-0.194-3.194,0,0,0,90,false,stim,false,2,1053.8999999761581,0,0,2,48534,task1,782826,false,false,766,image-keyboard-response,41
true,5,0,1,0,true,q,false,true,0.0-2.0-0.21-0.195-3.195,0,0,0,81,false,stim,false,2,546.7999999523163,0,0,0,48534,task1,784899,false,false,769,image-keyboard-response,42
true,6,1,1,0,false,q,false,false,0.0-2.0-0.21-0.196-3.196,0,0,0,90,true,stim,true,1,1121.5999999046326,0,0,2,48534,task1,787532,false,false,772,image-keyboard-response,1
true,6,1,1,2,false,d,true,false,0.0-2.0-0.21-0.197-3.197,0,0,0,90,false,stim,false,0,692.1000000238419,0,0,1,48534,task1,789738,false,false,775,image-keyboard-response,2
true,6,0,1,2,false,d,false,true,0.0-2.0-0.22-0.198-3.198,0,0,0,81,false,stim,true,0,561.3000000715256,0,0,1,48534,task1,791824,false,true,778,image-keyboard-response,3
true,6,0,1,2,false,d,false,false,0.0-2.0-0.22-0.199-3.199,0,0,0,81,false,stim,true,0,707.5,0,0,0,48534,task1,794064,false,false,781,image-keyboard-response,4
true,6,1,1,0,false,q,false,false,0.0-2.0-0.22-0.200-3.200,0,0,0,90,false,stim,true,1,2583.5,0,0,2,48534,task1,798168,false,false,784,image-keyboard-response,5
true,6,0,1,0,true,q,false,true,0.0-2.0-0.22-0.201-3.201,0,0,0,81,false,stim,false,1,1398.4000000953674,0,0,2,48534,task1,801089,false,false,787,image-keyboard-response,6
true,6,0,1,2,false,d,false,false,0.0-2.0-0.22-0.202-3.202,0,0,0,81,false,stim,true,0,1512.3999999761581,0,0,0,48534,task1,804125,false,false,790,image-keyboard-response,7
true,6,0,1,0,true,q,false,false,0.0-2.0-0.22-0.203-3.203,0,0,0,81,false,stim,false,1,385.6999999284744,0,0,2,48534,task1,806030,false,true,793,image-keyboard-response,8
true,6,1,1,2,false,d,true,false,0.0-2.0-0.22-0.204-3.204,0,0,0,90,false,stim,false,0,802.1000000238419,0,0,1,48534,task1,808357,false,false,796,image-keyboard-response,9
true,6,1,1,2,false,d,true,false,0.0-2.0-0.22-0.205-3.205,0,0,0,90,false,stim,false,0,1087.5999999046326,0,0,0,48534,task1,810968,false,false,799,image-keyboard-response,10
true,6,0,1,2,false,d,false,true,0.0-2.0-0.22-0.206-3.206,0,0,0,81,false,stim,true,0,1213.0,0,0,1,48534,task1,813703,false,true,802,image-keyboard-response,11
true,6,0,1,2,false,d,false,false,0.0-2.0-0.23-0.207-3.207,0,0,0,81,false,stim,true,0,594.0,0,0,1,48534,task1,815806,false,false,805,image-keyboard-response,12
true,6,1,1,0,false,q,false,false,0.0-2.0-0.23-0.208-3.208,0,0,0,90,false,stim,true,1,1994.0,0,0,2,48534,task1,819320,false,false,808,image-keyboard-response,13
true,6,2,1,2,true,d,false,true,0.0-2.0-0.23-0.209-3.209,0,0,0,68,false,stim,false,0,640.3999999761581,0,0,0,48534,task1,821488,false,false,811,image-keyboard-response,14
true,6,2,1,0,false,q,true,false,0.0-2.0-0.23-0.210-3.210,0,0,0,68,false,stim,false,1,917.0,0,0,2,48534,task1,823925,false,false,814,image-keyboard-response,15
true,6,0,1,2,false,d,false,false,0.0-2.0-0.23-0.211-3.211,0,0,0,81,false,stim,true,0,548.7999999523163,0,0,0,48534,task1,825992,false,false,817,image-keyboard-response,16
true,6,0,1,0,true,q,false,true,0.0-2.0-0.23-0.212-3.212,0,0,0,81,false,stim,false,1,1361.1000000238419,0,0,2,48534,task1,828888,false,false,820,image-keyboard-response,17
true,6,1,1,2,false,d,true,false,0.0-2.0-0.23-0.213-3.213,0,0,0,90,false,stim,false,0,1155.6000000238419,0,0,1,48534,task1,831563,false,false,823,image-keyboard-response,18
true,6,0,1,2,false,d,false,false,0.0-2.0-0.23-0.214-3.214,0,0,0,81,false,stim,true,0,1015.6000000238419,0,0,0,48534,task1,834092,false,false,826,image-keyboard-response,19
true,6,0,1,2,false,d,false,false,0.0-2.0-0.23-0.215-3.215,0,0,0,81,false,stim,true,0,696.7999999523163,0,0,1,48534,task1,836317,false,false,829,image-keyboard-response,20
true,6,0,1,2,false,d,false,false,0.0-2.0-0.24-0.216-3.216,0,0,0,81,false,stim,true,0,506.39999997615814,0,0,1,48534,task1,838344,false,false,832,image-keyboard-response,21
true,6,0,1,0,true,q,false,true,0.0-2.0-0.24-0.217-3.217,0,0,0,81,false,stim,false,1,640.9000000953674,0,0,2,48534,task1,840507,false,false,835,image-keyboard-response,22
true,6,1,1,2,false,d,true,true,0.0-2.0-0.24-0.218-3.218,0,0,0,90,false,stim,false,0,1026.7000000476837,0,0,0,48534,task1,843047,false,true,838,image-keyboard-response,23
true,6,0,1,0,true,q,false,false,0.0-2.0-0.24-0.219-3.219,0,0,0,81,false,stim,false,1,690.0,0,0,2,48534,task1,845251,false,true,841,image-keyboard-response,24
true,6,2,1,2,true,d,false,true,0.0-2.0-0.24-0.220-3.220,0,0,0,68,false,stim,false,0,677.8999999761581,0,0,0,48534,task1,847441,false,false,844,image-keyboard-response,25
true,6,2,1,0,false,q,true,false,0.0-2.0-0.24-0.221-3.221,0,0,0,68,false,stim,false,1,877.3000000715256,0,0,2,48534,task1,849837,false,false,847,image-keyboard-response,26
true,6,0,1,2,false,d,false,false,0.0-2.0-0.24-0.222-3.222,0,0,0,81,false,stim,true,0,686.3000000715256,0,0,0,48534,task1,852042,false,false,850,image-keyboard-response,27
false,6,-1,1,2,false,d,true,false,0.0-2.0-0.24-0.223-3.223,0,0,0,,false,stim,false,0,,0,0,1,48534,task1,856576,false,false,853,image-keyboard-response,28
true,6,0,1,2,false,d,false,false,0.0-2.0-0.24-0.224-3.224,0,0,0,81,false,stim,true,0,2466.0,0,0,1,48534,task1,860569,false,false,856,image-keyboard-response,29
true,6,1,1,0,false,q,false,false,0.0-2.0-0.25-0.225-3.225,0,0,0,90,false,stim,true,1,1562.8999999761581,0,0,2,48534,task1,863648,false,false,859,image-keyboard-response,30
true,6,2,1,2,true,d,false,true,0.0-2.0-0.25-0.226-3.226,0,0,0,68,false,stim,false,0,1455.6000000238419,0,0,0,48534,task1,866631,false,false,862,image-keyboard-response,31
true,6,0,1,0,true,q,false,true,0.0-2.0-0.25-0.227-3.227,0,0,0,81,false,stim,false,1,1925.1000000238419,0,0,2,48534,task1,870087,false,false,865,image-keyboard-response,32
true,6,0,1,0,true,q,false,true,0.0-2.0-0.25-0.228-3.228,0,0,0,81,false,stim,false,1,646.2000000476837,0,0,2,48534,task1,872259,false,false,868,image-keyboard-response,33
true,6,1,1,2,false,d,true,true,0.0-2.0-0.25-0.229-3.229,0,0,0,90,false,stim,false,0,528.0999999046326,0,0,1,48534,task1,874320,false,true,871,image-keyboard-response,34
true,6,1,1,2,false,d,true,false,0.0-2.0-0.25-0.230-3.230,0,0,0,90,false,stim,false,0,677.0,0,0,1,48534,task1,876517,false,false,874,image-keyboard-response,35
true,6,2,1,2,true,d,false,true,0.0-2.0-0.25-0.231-3.231,0,0,0,68,false,stim,false,0,631.1000000238419,0,0,0,48534,task1,878666,false,false,877,image-keyboard-response,36
true,6,0,1,2,false,d,false,false,0.0-2.0-0.25-0.232-3.232,0,0,0,81,false,stim,true,0,1470.6000000238419,0,0,1,48534,task1,881662,false,false,880,image-keyboard-response,37
true,6,2,1,2,true,d,false,true,0.0-2.0-0.25-0.233-3.233,0,0,0,68,false,stim,false,0,1384.9000000953674,0,0,0,48534,task1,884563,false,false,883,image-keyboard-response,38
true,6,0,1,0,true,q,false,false,0.0-2.0-0.26-0.234-3.234,0,0,0,81,false,stim,false,1,625.1000000238419,0,0,2,48534,task1,886714,false,true,886,image-keyboard-response,39
true,6,1,1,0,false,q,false,true,0.0-2.0-0.26-0.235-3.235,0,0,0,90,false,stim,true,1,753.0,0,0,2,48534,task1,888980,false,true,889,image-keyboard-response,40
true,6,1,1,0,false,q,false,false,0.0-2.0-0.26-0.236-3.236,0,0,0,90,false,stim,true,1,481.3000000715256,0,0,2,48534,task1,890985,false,false,892,image-keyboard-response,41
true,7,2,2,0,false,q,false,false,0.0-2.0-0.26-0.237-3.237,0,0,0,68,true,stim,true,2,609.5,0,0,0,48534,task1,893109,false,false,895,image-keyboard-response,1
true,7,0,2,0,true,q,false,true,0.0-2.0-0.26-0.238-3.238,0,0,0,81,false,stim,false,2,867.3000000715256,0,0,0,48534,task1,895497,false,false,898,image-keyboard-response,2
true,7,1,2,0,false,q,true,true,0.0-2.0-0.26-0.239-3.239,0,0,0,90,false,stim,false,2,1361.6000000238419,0,0,1,48534,task1,898388,false,true,901,image-keyboard-response,3
true,7,1,2,0,false,q,true,false,0.0-2.0-0.26-0.240-3.240,0,0,0,90,false,stim,false,2,1115.6000000238419,0,0,1,48534,task1,901030,false,false,904,image-keyboard-response,4
true,7,1,2,0,false,q,true,false,0.0-2.0-0.26-0.241-3.241,0,0,0,90,false,stim,false,2,869.6000000238419,0,0,1,48534,task1,903421,false,false,907,image-keyboard-response,5
true,7,0,2,0,true,q,false,true,0.0-2.0-0.26-0.242-3.242,0,0,0,81,false,stim,false,2,550.4000000953674,0,0,0,48534,task1,905497,false,false,910,image-keyboard-response,6
true,7,2,2,1,false,z,true,false,0.0-2.0-0.27-0.243-3.243,0,0,0,68,false,stim,false,0,590.8000000715256,0,0,2,48534,task1,907616,false,false,913,image-keyboard-response,7
true,7,0,2,1,false,z,false,false,0.0-2.0-0.27-0.244-3.244,0,0,0,81,false,stim,true,0,663.8000000715256,0,0,2,48534,task1,909802,false,false,916,image-keyboard-response,8
true,7,0,2,0,true,q,false,true,0.0-2.0-0.27-0.245-3.245,0,0,0,81,false,stim,false,2,1354.7000000476837,0,0,0,48534,task1,912667,false,false,919,image-keyboard-response,9
true,7,1,2,0,false,q,true,false,0.0-2.0-0.27-0.246-3.246,0,0,0,90,false,stim,false,2,1891.7000000476837,0,0,1,48534,task1,916082,false,false,922,image-keyboard-response,10
true,7,0,2,1,false,z,false,false,0.0-2.0-0.27-0.247-3.247,0,0,0,81,false,stim,true,0,1709.7999999523163,0,0,2,48534,task1,919315,false,false,925,image-keyboard-response,11
true,7,0,2,0,true,q,false,false,0.0-2.0-0.27-0.248-3.248,0,0,0,81,false,stim,false,2,1644.6000000238419,0,0,0,48534,task1,922486,false,true,928,image-keyboard-response,12
true,7,0,2,0,true,q,false,true,0.0-2.0-0.27-0.249-3.249,0,0,0,81,false,stim,false,2,1108.0,0,0,0,48534,task1,925106,false,false,931,image-keyboard-response,13
true,7,2,2,0,false,q,false,false,0.0-2.0-0.27-0.250-3.250,0,0,0,68,false,stim,true,2,2666.7000000476837,0,0,1,48534,task1,929287,false,false,934,image-keyboard-response,14
true,7,0,2,0,true,q,false,true,0.0-2.0-0.27-0.251-3.251,0,0,0,81,false,stim,false,2,1384.3999999761581,0,0,1,48534,task1,932193,false,false,937,image-keyboard-response,15
true,7,0,2,0,true,q,false,true,0.0-2.0-0.28-0.252-3.252,0,0,0,81,false,stim,false,2,568.0,0,0,0,48534,task1,934289,false,false,940,image-keyboard-response,16
true,7,0,2,0,true,q,false,false,0.0-2.0-0.28-0.253-3.253,0,0,0,81,false,stim,false,2,410.5,0,0,1,48534,task1,936217,false,true,943,image-keyboard-response,17
true,7,0,2,1,false,z,false,false,0.0-2.0-0.28-0.254-3.254,0,0,0,81,false,stim,true,0,2466.5,0,0,2,48534,task1,940208,false,false,946,image-keyboard-response,18
true,7,1,2,1,true,z,false,true,0.0-2.0-0.28-0.255-3.255,0,0,0,90,false,stim,false,0,1006.8999999761581,0,0,2,48534,task1,942741,false,false,949,image-keyboard-response,19
true,7,1,2,0,false,q,true,false,0.0-2.0-0.28-0.256-3.256,0,0,0,90,false,stim,false,2,1526.3999999761581,0,0,1,48534,task1,945788,false,false,952,image-keyboard-response,20
true,7,0,2,0,true,q,false,true,0.0-2.0-0.28-0.257-3.257,0,0,0,81,false,stim,false,2,716.1000000238419,0,0,0,48534,task1,948024,false,false,955,image-keyboard-response,21
true,7,2,2,1,false,z,true,false,0.0-2.0-0.28-0.258-3.258,0,0,0,68,false,stim,false,0,2064.600000023842,0,0,2,48534,task1,951622,false,false,958,image-keyboard-response,22
true,7,0,2,0,true,q,false,true,0.0-2.0-0.28-0.259-3.259,0,0,0,81,false,stim,false,2,1528.1000000238419,0,0,1,48534,task1,954665,false,false,961,image-keyboard-response,23
true,7,0,2,0,true,q,false,true,0.0-2.0-0.28-0.260-3.260,0,0,0,81,false,stim,false,2,571.6000000238419,0,0,0,48534,task1,956761,false,false,964,image-keyboard-response,24
true,7,0,2,0,true,q,false,true,0.0-2.0-0.29-0.261-3.261,0,0,0,81,false,stim,false,2,628.7000000476837,0,0,1,48534,task1,958919,false,false,967,image-keyboard-response,25
true,7,0,2,1,false,z,false,true,0.0-2.0-0.29-0.262-3.262,0,0,0,81,false,stim,true,0,1046.5999999046326,0,0,2,48534,task1,961481,false,true,970,image-keyboard-response,26
true,7,0,2,0,true,q,false,true,0.0-2.0-0.29-0.263-3.263,0,0,0,81,false,stim,false,2,453.0,0,0,0,48534,task1,963452,false,false,973,image-keyboard-response,27
true,7,0,2,1,false,z,false,false,0.0-2.0-0.29-0.264-3.264,0,0,0,81,false,stim,true,0,543.3999999761581,0,0,2,48534,task1,965529,false,false,976,image-keyboard-response,28
true,7,0,2,0,true,q,false,true,0.0-2.0-0.29-0.265-3.265,0,0,0,81,false,stim,false,2,651.2000000476837,0,0,0,48534,task1,967712,false,false,979,image-keyboard-response,29
true,7,0,2,1,false,z,false,true,0.0-2.0-0.29-0.266-3.266,0,0,0,81,false,stim,true,0,561.2000000476837,0,0,2,48534,task1,969797,false,true,982,image-keyboard-response,30
true,7,0,2,0,true,q,false,true,0.0-2.0-0.29-0.267-3.267,0,0,0,81,false,stim,false,2,1052.3000000715256,0,0,1,48534,task1,972373,false,false,985,image-keyboard-response,31
true,7,1,2,0,false,q,true,false,0.0-2.0-0.29-0.268-3.268,0,0,0,90,false,stim,false,2,1320.6000000238419,0,0,1,48534,task1,975213,false,false,988,image-keyboard-response,32
true,7,0,2,0,true,q,false,true,0.0-2.0-0.29-0.269-3.269,0,0,0,81,false,stim,false,2,541.1000000238419,0,0,0,48534,task1,977278,false,false,991,image-keyboard-response,33
true,7,0,2,0,true,q,false,true,0.0-2.0-0.30-0.270-3.270,0,0,0,81,false,stim,false,2,1045.6000000238419,0,0,1,48534,task1,979851,false,false,994,image-keyboard-response,34
true,7,0,2,0,true,q,false,false,0.0-2.0-0.30-0.271-3.271,0,0,0,81,false,stim,false,2,642.1000000238419,0,0,0,48534,task1,982011,false,true,997,image-keyboard-response,35
true,7,0,2,1,false,z,false,false,0.0-2.0-0.30-0.272-3.272,0,0,0,81,false,stim,true,0,2139.0,0,0,2,48534,task1,985663,false,false,1000,image-keyboard-response,36
true,7,1,2,1,true,z,false,true,0.0-2.0-0.30-0.273-3.273,0,0,0,90,false,stim,false,0,841.2999999523163,0,0,2,48534,task1,988034,false,false,1003,image-keyboard-response,37
true,7,0,2,0,true,q,false,false,0.0-2.0-0.30-0.274-3.274,0,0,0,81,false,stim,false,2,949.2999999523163,0,0,0,48534,task1,990505,false,true,1006,image-keyboard-response,38
true,7,0,2,1,false,z,false,false,0.0-2.0-0.30-0.275-3.275,0,0,0,81,false,stim,true,0,638.3999999761581,0,0,2,48534,task1,992672,false,false,1009,image-keyboard-response,39
true,7,1,2,0,false,q,true,false,0.0-2.0-0.30-0.276-3.276,0,0,0,90,false,stim,false,2,1077.7999999523163,0,0,0,48534,task1,995271,false,false,1012,image-keyboard-response,40
true,7,0,2,0,true,q,false,false,0.0-2.0-0.30-0.277-3.277,0,0,0,81,false,stim,false,2,2056.5999999046326,0,0,1,48534,task1,998859,false,true,1015,image-keyboard-response,41
true,7,1,2,0,false,q,true,false,0.0-2.0-0.30-0.278-3.278,0,0,0,90,false,stim,false,2,1479.3000000715256,0,0,1,48534,task1,1001857,false,false,1018,image-keyboard-response,42
true,7,0,2,1,false,z,false,false,0.0-2.0-0.31-0.279-3.279,0,0,0,81,false,stim,true,0,953.1000000238419,0,0,2,48534,task1,1004336,false,false,1021,image-keyboard-response,43
true,8,2,2,2,true,d,false,false,0.0-2.0-0.31-0.280-3.280,0,0,0,68,true,stim,false,0,609.1000000238419,0,0,0,48534,task1,1006465,false,true,1024,image-keyboard-response,1
true,8,0,2,1,false,z,false,false,0.0-2.0-0.31-0.281-3.281,0,0,0,81,false,stim,true,0,2664.399999976158,0,0,1,48534,task1,1010652,false,false,1027,image-keyboard-response,2
true,8,0,2,2,false,d,false,false,0.0-2.0-0.31-0.282-3.282,0,0,0,81,false,stim,true,0,857.5999999046326,0,0,0,48534,task1,1013031,false,false,1030,image-keyboard-response,3
true,8,1,2,2,false,d,false,false,0.0-2.0-0.31-0.283-3.283,0,0,0,90,false,stim,true,1,1004.5,0,0,2,48534,task1,1015559,false,false,1033,image-keyboard-response,4
true,8,2,2,2,true,d,false,true,0.0-2.0-0.31-0.284-3.284,0,0,0,68,false,stim,false,1,655.6999999284744,0,0,2,48534,task1,1017732,false,false,1036,image-keyboard-response,5
true,8,0,2,1,false,z,false,true,0.0-2.0-0.31-0.285-3.285,0,0,0,81,false,stim,true,0,2001.2999999523163,0,0,1,48534,task1,1021256,false,true,1039,image-keyboard-response,6
true,8,1,2,2,false,d,true,false,0.0-2.0-0.31-0.286-3.286,0,0,0,90,false,stim,false,0,2003.1000000238419,0,0,0,48534,task1,1024786,false,false,1042,image-keyboard-response,7
true,8,2,2,1,false,z,true,false,0.0-2.0-0.31-0.287-3.287,0,0,0,68,false,stim,false,0,622.2999999523163,0,0,1,48534,task1,1026934,false,false,1045,image-keyboard-response,8
true,8,0,2,2,false,d,true,false,0.0-2.0-0.32-0.288-3.288,0,0,0,81,false,stim,false,1,1003.2000000476837,0,0,2,48534,task1,1029457,false,false,1048,image-keyboard-response,9
true,8,0,2,1,false,z,false,false,0.0-2.0-0.32-0.289-3.289,0,0,0,81,false,stim,true,0,1188.8999999761581,0,0,1,48534,task1,1032176,false,false,1051,image-keyboard-response,10
true,8,1,2,1,true,z,false,true,0.0-2.0-0.32-0.290-3.290,0,0,0,90,false,stim,false,0,1738.3999999761581,0,0,1,48534,task1,1035443,false,false,1054,image-keyboard-response,11
true,8,0,2,2,false,d,true,false,0.0-2.0-0.32-0.291-3.291,0,0,0,81,false,stim,false,1,790.6999999284744,0,0,2,48534,task1,1037762,false,false,1057,image-keyboard-response,12
true,8,1,2,1,true,z,false,true,0.0-2.0-0.32-0.292-3.292,0,0,0,90,false,stim,false,0,1616.1999999284744,0,0,1,48534,task1,1040903,false,false,1060,image-keyboard-response,13
true,8,0,2,2,false,d,false,false,0.0-2.0-0.32-0.293-3.293,0,0,0,81,false,stim,true,0,851.6000000238419,0,0,0,48534,task1,1043280,false,false,1063,image-keyboard-response,14
true,8,0,2,2,false,d,true,false,0.0-2.0-0.32-0.294-3.294,0,0,0,81,false,stim,false,1,1496.5,0,0,2,48534,task1,1046307,false,false,1066,image-keyboard-response,15
true,8,1,2,2,false,d,true,false,0.0-2.0-0.32-0.295-3.295,0,0,0,90,false,stim,false,0,1219.7999999523163,0,0,0,48534,task1,1049057,false,false,1069,image-keyboard-response,16
true,8,0,2,2,false,d,false,true,0.0-2.0-0.32-0.296-3.296,0,0,0,81,false,stim,true,0,468.7999999523163,0,0,0,48534,task1,1051049,false,true,1072,image-keyboard-response,17
true,8,0,2,2,false,d,false,false,0.0-2.0-0.33-0.297-3.297,0,0,0,81,false,stim,true,0,416.2999999523163,0,0,0,48534,task1,1052990,false,false,1075,image-keyboard-response,18
true,8,0,2,2,false,d,false,false,0.0-2.0-0.33-0.298-3.298,0,0,0,81,false,stim,true,0,959.8999999761581,0,0,0,48534,task1,1055485,false,false,1078,image-keyboard-response,19
true,8,1,2,1,true,z,false,true,0.0-2.0-0.33-0.299-3.299,0,0,0,90,false,stim,false,0,1073.3999999761581,0,0,1,48534,task1,1058082,false,false,1081,image-keyboard-response,20
true,8,1,2,1,true,z,false,true,0.0-2.0-0.33-0.300-3.300,0,0,0,90,false,stim,false,0,529.3999999761581,0,0,1,48534,task1,1060125,false,false,1084,image-keyboard-response,21
true,8,1,2,2,false,d,true,false,0.0-2.0-0.33-0.301-3.301,0,0,0,90,false,stim,false,0,974.0,0,0,0,48534,task1,1062620,false,false,1087,image-keyboard-response,22
true,8,0,2,2,false,d,true,true,0.0-2.0-0.33-0.302-3.302,0,0,0,81,false,stim,false,1,1664.0,0,0,2,48534,task1,1065806,false,true,1090,image-keyboard-response,23
true,8,2,2,1,false,z,true,false,0.0-2.0-0.33-0.303-3.303,0,0,0,68,false,stim,false,0,1878.1999999284744,0,0,1,48534,task1,1069214,false,false,1093,image-keyboard-response,24
true,8,0,2,2,false,d,true,false,0.0-2.0-0.33-0.304-3.304,0,0,0,81,false,stim,false,1,1170.5,0,0,2,48534,task1,1071908,false,false,1096,image-keyboard-response,25
true,8,1,2,2,false,d,false,false,0.0-2.0-0.33-0.305-3.305,0,0,0,90,false,stim,true,1,1456.2999999523163,0,0,2,48534,task1,1074887,false,false,1099,image-keyboard-response,26
true,8,2,2,2,true,d,false,true,0.0-2.0-0.34-0.306-3.306,0,0,0,68,false,stim,false,1,981.7000000476837,0,0,2,48534,task1,1077394,false,false,1102,image-keyboard-response,27
true,8,2,2,2,true,d,false,true,0.0-2.0-0.34-0.307-3.307,0,0,0,68,false,stim,false,1,699.8000000715256,0,0,2,48534,task1,1079618,false,false,1105,image-keyboard-response,28
true,8,0,2,2,false,d,false,false,0.0-2.0-0.34-0.308-3.308,0,0,0,81,false,stim,true,0,947.0999999046326,0,0,0,48534,task1,1082081,false,false,1108,image-keyboard-response,29
true,8,2,2,2,true,d,false,true,0.0-2.0-0.34-0.309-3.309,0,0,0,68,false,stim,false,1,692.8000000715256,0,0,2,48534,task1,1084296,false,false,1111,image-keyboard-response,30
true,8,1,2,2,false,d,true,true,0.0-2.0-0.34-0.310-3.310,0,0,0,90,false,stim,false,0,1028.0999999046326,0,0,0,48534,task1,1086840,false,true,1114,image-keyboard-response,31
true,8,1,2,2,false,d,true,false,0.0-2.0-0.34-0.311-3.311,0,0,0,90,false,stim,false,0,624.1999999284744,0,0,0,48534,task1,1088987,false,false,1117,image-keyboard-response,32
true,8,2,2,1,false,z,true,false,0.0-2.0-0.34-0.312-3.312,0,0,0,68,false,stim,false,0,678.5,0,0,1,48534,task1,1091189,false,false,1120,image-keyboard-response,33
true,8,0,2,1,false,z,false,false,0.0-2.0-0.34-0.313-3.313,0,0,0,81,false,stim,true,0,627.3000000715256,0,0,1,48534,task1,1093344,false,false,1123,image-keyboard-response,34
true,8,1,2,1,true,z,false,true,0.0-2.0-0.34-0.314-3.314,0,0,0,90,false,stim,false,0,1030.0999999046326,0,0,1,48534,task1,1095888,false,false,1126,image-keyboard-response,35
true,8,0,2,2,false,d,false,false,0.0-2.0-0.35-0.315-3.315,0,0,0,81,false,stim,true,0,2047.8000000715256,0,0,0,48534,task1,1099447,false,false,1129,image-keyboard-response,36
true,8,1,2,2,false,d,false,false,0.0-2.0-0.35-0.316-3.316,0,0,0,90,false,stim,true,1,1831.6000000238419,0,0,2,48534,task1,1102803,false,false,1132,image-keyboard-response,37
true,8,2,2,2,true,d,false,true,0.0-2.0-0.35-0.317-3.317,0,0,0,68,false,stim,false,1,836.3999999761581,0,0,2,48534,task1,1105165,false,false,1135,image-keyboard-response,38
true,8,0,2,1,false,z,false,false,0.0-2.0-0.35-0.318-3.318,0,0,0,81,false,stim,true,0,1220.6999999284744,0,0,1,48534,task1,1107904,false,false,1138,image-keyboard-response,39
true,8,0,2,2,false,d,false,false,0.0-2.0-0.35-0.319-3.319,0,0,0,81,false,stim,true,0,1302.3000000715256,0,0,0,48534,task1,1110740,false,false,1141,image-keyboard-response,40
true,8,2,2,1,false,z,true,false,0.0-2.0-0.35-0.320-3.320,0,0,0,68,false,stim,false,0,1358.3999999761581,0,0,1,48534,task1,1113616,false,false,1144,image-keyboard-response,41
true,8,1,2,1,true,z,false,true,0.0-2.0-0.35-0.321-3.321,0,0,0,90,false,stim,false,0,1254.6999999284744,0,0,1,48534,task1,1116378,false,false,1147,image-keyboard-response,42
true,8,2,2,2,true,d,false,true,0.0-2.0-0.35-0.322-3.322,0,0,0,68,false,stim,false,0,885.2000000476837,0,0,0,48534,task1,1118778,false,false,1150,image-keyboard-response,43
true,9,1,2,1,true,z,false,true,0.0-2.0-0.35-0.323-3.323,0,0,0,90,true,stim,false,2,1358.5,0,0,2,48534,task1,1121662,false,false,1153,image-keyboard-response,1
true,9,2,2,0,false,q,true,false,0.0-2.0-0.36-0.324-3.324,0,0,0,68,false,stim,false,1,1449.7999999523163,0,0,1,48534,task1,1124640,false,false,1156,image-keyboard-response,2
true,9,1,2,0,false,q,true,false,0.0-2.0-0.36-0.325-3.325,0,0,0,90,false,stim,false,2,1408.8999999761581,0,0,0,48534,task1,1127578,false,false,1159,image-keyboard-response,3
true,9,0,2,0,true,q,false,true,0.0-2.0-0.36-0.326-3.326,0,0,0,81,false,stim,false,1,858.6000000238419,0,0,1,48534,task1,1129954,false,false,1162,image-keyboard-response,4
true,9,2,2,0,false,q,false,false,0.0-2.0-0.36-0.327-3.327,0,0,0,68,false,stim,true,2,1501.3999999761581,0,0,0,48534,task1,1132989,false,false,1165,image-keyboard-response,5
true,9,0,2,0,true,q,false,true,0.0-2.0-0.36-0.328-3.328,0,0,0,81,false,stim,false,1,1430.7000000476837,0,0,1,48534,task1,1135938,false,false,1168,image-keyboard-response,6
true,9,1,2,0,false,q,true,false,0.0-2.0-0.36-0.329-3.329,0,0,0,90,false,stim,false,2,997.7999999523163,0,0,0,48534,task1,1138459,false,false,1171,image-keyboard-response,7
true,9,2,2,1,false,z,false,false,0.0-2.0-0.36-0.330-3.330,0,0,0,68,false,stim,true,2,2914.9000000953674,0,0,2,48534,task1,1142893,false,false,1174,image-keyboard-response,8
true,9,0,2,1,false,z,true,false,0.0-2.0-0.36-0.331-3.331,0,0,0,81,false,stim,false,2,451.0,0,0,2,48534,task1,1144866,false,false,1177,image-keyboard-response,9
true,9,1,2,1,true,z,false,true,0.0-2.0-0.36-0.332-3.332,0,0,0,90,false,stim,false,2,704.3999999761581,0,0,2,48534,task1,1147104,false,false,1180,image-keyboard-response,10
true,9,0,2,0,true,q,false,true,0.0-2.0-0.37-0.333-3.333,0,0,0,81,false,stim,false,1,1017.1999999284744,0,0,1,48534,task1,1149645,false,false,1183,image-keyboard-response,11
true,9,0,2,0,true,q,false,true,0.0-2.0-0.37-0.334-3.334,0,0,0,81,false,stim,false,1,554.1000000238419,0,0,1,48534,task1,1151727,false,false,1186,image-keyboard-response,12
true,9,1,2,1,true,z,false,true,0.0-2.0-0.37-0.335-3.335,0,0,0,90,false,stim,false,2,462.10000002384186,0,0,2,48534,task1,1153717,false,false,1189,image-keyboard-response,13
true,9,1,2,1,true,z,false,true,0.0-2.0-0.37-0.336-3.336,0,0,0,90,false,stim,false,2,528.5999999046326,0,0,2,48534,task1,1155765,false,false,1192,image-keyboard-response,14
true,9,0,2,0,true,q,false,true,0.0-2.0-0.37-0.337-3.337,0,0,0,81,false,stim,false,1,462.2000000476837,0,0,1,48534,task1,1157750,false,false,1195,image-keyboard-response,15
true,9,1,2,1,true,z,false,true,0.0-2.0-0.37-0.338-3.338,0,0,0,90,false,stim,false,2,448.0,0,0,2,48534,task1,1159718,false,false,1198,image-keyboard-response,16
true,9,2,2,0,false,q,false,false,0.0-2.0-0.37-0.339-3.339,0,0,0,68,false,stim,true,2,907.1999999284744,0,0,0,48534,task1,1162173,false,false,1201,image-keyboard-response,17
true,9,0,2,0,true,q,false,true,0.0-2.0-0.37-0.340-3.340,0,0,0,81,false,stim,false,2,899.7000000476837,0,0,0,48534,task1,1164588,false,false,1204,image-keyboard-response,18
true,9,0,2,0,true,q,false,true,0.0-2.0-0.37-0.341-3.341,0,0,0,81,false,stim,false,2,568.2999999523163,0,0,0,48534,task1,1166674,false,false,1207,image-keyboard-response,19
true,9,1,2,1,true,z,false,false,0.0-2.0-0.38-0.342-3.342,0,0,0,90,false,stim,false,2,697.2999999523163,0,0,2,48534,task1,1168898,false,true,1210,image-keyboard-response,20
true,9,0,2,0,true,q,false,true,0.0-2.0-0.38-0.343-3.343,0,0,0,81,false,stim,false,2,478.3000000715256,0,0,0,48534,task1,1170888,false,false,1213,image-keyboard-response,21
true,9,0,2,0,true,q,false,true,0.0-2.0-0.38-0.344-3.344,0,0,0,81,false,stim,false,2,502.2000000476837,0,0,0,48534,task1,1172917,false,false,1216,image-keyboard-response,22
true,9,0,2,1,false,z,true,false,0.0-2.0-0.38-0.345-3.345,0,0,0,81,false,stim,false,2,390.5,0,0,2,48534,task1,1174836,false,false,1219,image-keyboard-response,23
true,9,1,2,0,false,q,false,false,0.0-2.0-0.38-0.346-3.346,0,0,0,90,false,stim,true,1,1312.3999999761581,0,0,1,48534,task1,1177661,false,false,1222,image-keyboard-response,24
true,9,2,2,0,false,q,true,false,0.0-2.0-0.38-0.347-3.347,0,0,0,68,false,stim,false,1,619.8000000715256,0,0,1,48534,task1,1179791,false,false,1225,image-keyboard-response,25
true,9,0,2,0,true,q,false,true,0.0-2.0-0.38-0.348-3.348,0,0,0,81,false,stim,false,2,657.3000000715256,0,0,0,48534,task1,1181969,false,false,1228,image-keyboard-response,26
true,9,0,2,1,false,z,true,false,0.0-2.0-0.38-0.349-3.349,0,0,0,81,false,stim,false,2,1727.6000000238419,0,0,2,48534,task1,1185212,false,false,1231,image-keyboard-response,27
true,9,0,2,0,true,q,false,false,0.0-2.0-0.38-0.350-3.350,0,0,0,81,false,stim,false,1,549.5,0,0,1,48534,task1,1187285,false,true,1234,image-keyboard-response,28
true,9,0,2,0,true,q,false,true,0.0-2.0-0.39-0.351-3.351,0,0,0,81,false,stim,false,2,408.0,0,0,0,48534,task1,1189225,false,false,1237,image-keyboard-response,29
true,9,0,2,0,true,q,false,true,0.0-2.0-0.39-0.352-3.352,0,0,0,81,false,stim,false,2,568.8999999761581,0,0,0,48534,task1,1191314,false,false,1240,image-keyboard-response,30
true,9,1,2,0,false,q,false,false,0.0-2.0-0.39-0.353-3.353,0,0,0,90,false,stim,true,1,592.0,0,0,1,48534,task1,1193429,false,false,1243,image-keyboard-response,31
true,9,2,2,0,false,q,true,false,0.0-2.0-0.39-0.354-3.354,0,0,0,68,false,stim,false,1,844.8000000715256,0,0,1,48534,task1,1195798,false,false,1246,image-keyboard-response,32
true,9,0,2,1,false,z,true,false,0.0-2.0-0.39-0.355-3.355,0,0,0,81,false,stim,false,2,1063.0,0,0,2,48534,task1,1198384,false,false,1249,image-keyboard-response,33
true,9,1,2,1,true,z,false,true,0.0-2.0-0.39-0.356-3.356,0,0,0,90,false,stim,false,2,576.7999999523163,0,0,2,48534,task1,1200488,false,false,1252,image-keyboard-response,34
true,9,0,2,0,true,q,false,true,0.0-2.0-0.39-0.357-3.357,0,0,0,81,false,stim,false,1,1582.6999999284744,0,0,1,48534,task1,1203598,false,false,1255,image-keyboard-response,35
true,9,1,2,1,true,z,false,true,0.0-2.0-0.39-0.358-3.358,0,0,0,90,false,stim,false,2,429.7000000476837,0,0,2,48534,task1,1205541,false,false,1258,image-keyboard-response,36
true,9,0,2,0,true,q,false,false,0.0-2.0-0.39-0.359-3.359,0,0,0,81,false,stim,false,2,571.6999999284744,0,0,0,48534,task1,1207640,false,true,1261,image-keyboard-response,37
true,9,1,2,1,true,z,false,true,0.0-2.0-0.40-0.360-3.360,0,0,0,90,false,stim,false,2,2149.0,0,0,2,48534,task1,1211315,false,false,1264,image-keyboard-response,38
true,9,2,2,0,false,q,false,false,0.0-2.0-0.40-0.361-3.361,0,0,0,68,false,stim,true,2,959.0,0,0,0,48534,task1,1213811,false,false,1267,image-keyboard-response,39
true,10,0,2,1,false,z,false,false,0.0-2.0-0.40-0.362-3.362,0,0,0,81,true,stim,true,0,1427.1000000238419,0,0,1,48534,task1,1216763,false,false,1270,image-keyboard-response,1
true,10,0,2,2,false,d,true,false,0.0-2.0-0.40-0.363-3.363,0,0,0,81,false,stim,false,1,739.5,0,0,2,48534,task1,1219028,false,false,1273,image-keyboard-response,2
true,10,1,2,2,false,d,false,false,0.0-2.0-0.40-0.364-3.364,0,0,0,90,false,stim,true,1,631.5,0,0,2,48534,task1,1221198,false,false,1276,image-keyboard-response,3
true,10,1,2,1,true,z,false,true,0.0-2.0-0.40-0.365-3.365,0,0,0,90,false,stim,false,0,1424.5,0,0,1,48534,task1,1224155,false,false,1279,image-keyboard-response,4
true,10,1,2,1,true,z,false,false,0.0-2.0-0.40-0.366-3.366,0,0,0,90,false,stim,false,0,624.3000000715256,0,0,1,48534,task1,1226304,false,true,1282,image-keyboard-response,5
true,10,1,2,2,false,d,true,true,0.0-2.0-0.40-0.367-3.367,0,0,0,90,false,stim,false,0,2099.2999999523163,0,0,0,48534,task1,1229921,false,true,1285,image-keyboard-response,6
true,10,1,2,2,false,d,true,true,0.0-2.0-0.40-0.368-3.368,0,0,0,90,false,stim,false,0,584.8999999761581,0,0,0,48534,task1,1232031,false,true,1288,image-keyboard-response,7
true,10,1,2,2,false,d,true,true,0.0-2.0-0.41-0.369-3.369,0,0,0,90,false,stim,false,0,510.2999999523163,0,0,0,48534,task1,1234063,false,true,1291,image-keyboard-response,8
true,10,1,2,2,false,d,true,false,0.0-2.0-0.41-0.370-3.370,0,0,0,90,false,stim,false,0,579.6000000238419,0,0,0,48534,task1,1236166,false,false,1294,image-keyboard-response,9
true,10,2,2,1,false,z,true,false,0.0-2.0-0.41-0.371-3.371,0,0,0,68,false,stim,false,0,957.7999999523163,0,0,1,48534,task1,1238647,false,false,1297,image-keyboard-response,10
true,10,0,2,1,false,z,false,false,0.0-2.0-0.41-0.372-3.372,0,0,0,81,false,stim,true,0,1490.2000000476837,0,0,1,48534,task1,1241663,false,false,1300,image-keyboard-response,11
true,10,1,2,2,false,d,false,true,0.0-2.0-0.41-0.373-3.373,0,0,0,90,false,stim,true,1,2276.899999976158,0,0,2,48534,task1,1245470,false,true,1303,image-keyboard-response,12
true,10,1,2,2,false,d,false,false,0.0-2.0-0.41-0.374-3.374,0,0,0,90,false,stim,true,1,501.09999990463257,0,0,2,48534,task1,1247502,false,false,1306,image-keyboard-response,13
true,10,0,2,2,false,d,false,false,0.0-2.0-0.41-0.375-3.375,0,0,0,81,false,stim,true,0,1253.1999999284744,0,0,0,48534,task1,1250273,false,false,1309,image-keyboard-response,14
true,10,1,2,1,true,z,false,true,0.0-2.0-0.41-0.376-3.376,0,0,0,90,false,stim,false,0,1225.7000000476837,0,0,1,48534,task1,1253030,false,false,1312,image-keyboard-response,15
true,10,0,2,2,false,d,true,false,0.0-2.0-0.41-0.377-3.377,0,0,0,81,false,stim,false,1,1311.3000000715256,0,0,2,48534,task1,1255867,false,false,1315,image-keyboard-response,16
true,10,2,2,2,true,d,false,true,0.0-2.0-0.42-0.378-3.378,0,0,0,68,false,stim,false,1,525.0,0,0,2,48534,task1,1257907,false,false,1318,image-keyboard-response,17
true,10,2,2,2,true,d,false,true,0.0-2.0-0.42-0.379-3.379,0,0,0,68,false,stim,false,1,475.39999997615814,0,0,2,48534,task1,1259913,false,false,1321,image-keyboard-response,18
true,10,1,2,1,true,z,false,true,0.0-2.0-0.42-0.380-3.380,0,0,0,90,false,stim,false,0,2292.5,0,0,1,48534,task1,1263740,false,false,1324,image-keyboard-response,19
true,10,1,2,1,true,z,false,true,0.0-2.0-0.42-0.381-3.381,0,0,0,90,false,stim,false,0,586.6000000238419,0,0,1,48534,task1,1265841,false,false,1327,image-keyboard-response,20
true,10,0,2,2,false,d,false,true,0.0-2.0-0.42-0.382-3.382,0,0,0,81,false,stim,true,0,1136.8999999761581,0,0,0,48534,task1,1268505,false,true,1330,image-keyboard-response,21
true,10,0,2,2,false,d,false,false,0.0-2.0-0.42-0.383-3.383,0,0,0,81,false,stim,true,0,556.2000000476837,0,0,0,48534,task1,1270591,false,false,1333,image-keyboard-response,22
true,10,1,2,2,false,d,true,false,0.0-2.0-0.42-0.384-3.384,0,0,0,90,false,stim,false,0,803.0,0,0,0,48534,task1,1272906,false,false,1336,image-keyboard-response,23
true,10,1,2,1,true,z,false,true,0.0-2.0-0.42-0.385-3.385,0,0,0,90,false,stim,false,0,1002.3999999761581,0,0,1,48534,task1,1275434,false,false,1339,image-keyboard-response,24
true,10,2,2,2,true,d,false,true,0.0-2.0-0.42-0.386-3.386,0,0,0,68,false,stim,false,1,706.3000000715256,0,0,2,48534,task1,1277667,false,false,1342,image-keyboard-response,25
true,10,1,2,1,true,z,false,false,0.0-2.0-0.43-0.387-3.387,0,0,0,90,false,stim,false,0,883.1000000238419,0,0,1,48534,task1,1280088,false,true,1345,image-keyboard-response,26
true,10,2,2,2,true,d,false,true,0.0-2.0-0.43-0.388-3.388,0,0,0,68,false,stim,false,0,1163.7999999523163,0,0,0,48534,task1,1282767,false,false,1348,image-keyboard-response,27
true,10,2,2,2,true,d,false,true,0.0-2.0-0.43-0.389-3.389,0,0,0,68,false,stim,false,0,468.7999999523163,0,0,0,48534,task1,1284765,false,false,1351,image-keyboard-response,28
true,10,1,2,2,false,d,false,false,0.0-2.0-0.43-0.390-3.390,0,0,0,90,false,stim,true,1,1332.8999999761581,0,0,2,48534,task1,1287616,false,false,1354,image-keyboard-response,29
true,10,2,2,2,true,d,false,true,0.0-2.0-0.43-0.391-3.391,0,0,0,68,false,stim,false,1,788.3999999761581,0,0,2,48534,task1,1289915,false,false,1357,image-keyboard-response,30
true,10,2,2,2,true,d,false,true,0.0-2.0-0.43-0.392-3.392,0,0,0,68,false,stim,false,1,486.6999999284744,0,0,2,48534,task1,1291918,false,false,1360,image-keyboard-response,31
true,10,0,2,2,false,d,false,false,0.0-2.0-0.43-0.393-3.393,0,0,0,81,false,stim,true,0,969.2000000476837,0,0,0,48534,task1,1294412,false,false,1363,image-keyboard-response,32
true,10,2,2,1,false,z,true,false,0.0-2.0-0.43-0.394-3.394,0,0,0,68,false,stim,false,0,1221.7999999523163,0,0,1,48534,task1,1297158,false,false,1366,image-keyboard-response,33
true,10,1,2,1,true,z,false,true,0.0-2.0-0.43-0.395-3.395,0,0,0,90,false,stim,false,0,666.3999999761581,0,0,1,48534,task1,1299346,false,false,1369,image-keyboard-response,34
true,10,1,2,1,true,z,false,true,0.0-2.0-0.44-0.396-3.396,0,0,0,90,false,stim,false,0,368.2999999523163,0,0,1,48534,task1,1301224,false,false,1372,image-keyboard-response,35
true,10,2,2,2,true,d,false,true,0.0-2.0-0.44-0.397-3.397,0,0,0,68,false,stim,false,1,1581.8999999761581,0,0,2,48534,task1,1304331,false,false,1375,image-keyboard-response,36
true,10,1,2,1,true,z,false,true,0.0-2.0-0.44-0.398-3.398,0,0,0,90,false,stim,false,0,710.1000000238419,0,0,1,48534,task1,1306557,false,false,1378,image-keyboard-response,37
true,10,0,2,2,false,d,false,false,0.0-2.0-0.44-0.399-3.399,0,0,0,81,false,stim,true,0,961.7000000476837,0,0,0,48534,task1,1309043,false,false,1381,image-keyboard-response,38
true,10,1,2,2,false,d,false,false,0.0-2.0-0.44-0.400-3.400,0,0,0,90,false,stim,true,1,495.60000002384186,0,0,2,48534,task1,1311066,false,false,1384,image-keyboard-response,39
true,10,1,2,1,true,z,false,true,0.0-2.0-0.44-0.401-3.401,0,0,0,90,false,stim,false,0,417.5,0,0,1,48534,task1,1313003,false,false,1387,image-keyboard-response,40
true,10,2,2,2,true,d,false,true,0.0-2.0-0.44-0.402-3.402,0,0,0,68,false,stim,false,1,628.6000000238419,0,0,2,48534,task1,1315165,false,false,1390,image-keyboard-response,41
true,10,0,2,2,false,d,false,true,0.0-2.0-0.44-0.403-3.403,0,0,0,81,false,stim,true,0,1169.8999999761581,0,0,0,48534,task1,1317868,false,true,1393,image-keyboard-response,42
true,10,0,2,2,false,d,false,false,0.0-2.0-0.44-0.404-3.404,0,0,0,81,false,stim,true,0,621.6000000238419,0,0,0,48534,task1,1320006,false,false,1396,image-keyboard-response,43
true,10,2,2,2,true,d,false,false,0.0-2.0-0.45-0.405-3.405,0,0,0,68,false,stim,false,1,1173.7999999523163,0,0,2,48534,task1,1322695,false,true,1399,image-keyboard-response,44
true,11,1,1,1,true,z,false,true,0.0-2.0-0.45-0.406-3.406,0,0,0,90,true,stim,false,2,1492.2000000476837,0,0,0,48534,task1,1325712,false,false,1402,image-keyboard-response,1
true,11,1,1,2,false,d,false,false,0.0-2.0-0.45-0.407-3.407,0,0,0,90,false,stim,true,1,1850.1999999284744,0,0,1,48534,task1,1329088,false,false,1405,image-keyboard-response,2
true,11,0,1,0,true,q,false,true,0.0-2.0-0.45-0.408-3.408,0,0,0,81,false,stim,false,2,1280.6000000238419,0,0,2,48534,task1,1331901,false,false,1408,image-keyboard-response,3
true,11,0,1,0,true,q,false,true,0.0-2.0-0.45-0.409-3.409,0,0,0,81,false,stim,false,2,1200.7000000476837,0,0,2,48534,task1,1334634,false,false,1411,image-keyboard-response,4
true,11,1,1,2,false,d,false,false,0.0-2.0-0.45-0.410-3.410,0,0,0,90,false,stim,true,1,1018.6999999284744,0,0,1,48534,task1,1337187,false,false,1414,image-keyboard-response,5
true,11,2,1,1,false,z,false,false,0.0-2.0-0.45-0.411-3.411,0,0,0,68,false,stim,true,2,1100.3999999761581,0,0,0,48534,task1,1339801,false,false,1417,image-keyboard-response,6
true,11,0,1,1,false,z,true,false,0.0-2.0-0.45-0.412-3.412,0,0,0,81,false,stim,false,2,405.7999999523163,0,0,0,48534,task1,1341740,false,false,1420,image-keyboard-response,7
true,11,1,1,2,false,d,false,true,0.0-2.0-0.45-0.413-3.413,0,0,0,90,false,stim,true,1,1804.3999999761581,0,0,1,48534,task1,1345072,false,true,1423,image-keyboard-response,8
true,11,2,1,0,false,q,false,false,0.0-2.0-0.46-0.414-3.414,0,0,0,68,false,stim,true,2,935.7000000476837,0,0,2,48534,task1,1347535,false,false,1426,image-keyboard-response,9
true,11,1,1,2,false,d,false,false,0.0-2.0-0.46-0.415-3.415,0,0,0,90,false,stim,true,1,1494.3999999761581,0,0,1,48534,task1,1350562,false,false,1429,image-keyboard-response,10
true,11,0,1,1,false,z,true,false,0.0-2.0-0.46-0.416-3.416,0,0,0,81,false,stim,false,2,732.7999999523163,0,0,0,48534,task1,1352832,false,false,1432,image-keyboard-response,11
true,11,1,1,1,true,z,false,true,0.0-2.0-0.46-0.417-3.417,0,0,0,90,false,stim,false,2,764.2999999523163,0,0,0,48534,task1,1355119,false,false,1435,image-keyboard-response,12
true,11,2,1,2,true,d,false,true,0.0-2.0-0.46-0.418-3.418,0,0,0,68,false,stim,false,1,1680.1000000238419,0,0,1,48534,task1,1358315,false,false,1438,image-keyboard-response,13
true,11,1,1,0,false,q,true,false,0.0-2.0-0.46-0.419-3.419,0,0,0,90,false,stim,false,2,1031.0,0,0,2,48534,task1,1360861,false,false,1441,image-keyboard-response,14
true,11,2,1,2,true,d,false,false,0.0-2.0-0.46-0.420-3.420,0,0,0,68,false,stim,false,1,654.8000000715256,0,0,1,48534,task1,1363036,false,true,1444,image-keyboard-response,15
true,11,1,1,1,true,z,false,true,0.0-2.0-0.46-0.421-3.421,0,0,0,90,false,stim,false,2,898.2000000476837,0,0,0,48534,task1,1365459,false,false,1447,image-keyboard-response,16
true,11,0,1,0,true,q,false,true,0.0-2.0-0.46-0.422-3.422,0,0,0,81,false,stim,false,2,1788.7000000476837,0,0,2,48534,task1,1368775,false,false,1450,image-keyboard-response,17
true,11,0,1,0,true,q,false,true,0.0-2.0-0.47-0.423-3.423,0,0,0,81,false,stim,false,2,676.1000000238419,0,0,2,48534,task1,1370970,false,false,1453,image-keyboard-response,18
true,11,2,1,1,false,z,false,false,0.0-2.0-0.47-0.424-3.424,0,0,0,68,false,stim,true,2,1339.0,0,0,0,48534,task1,1373837,false,false,1456,image-keyboard-response,19
true,11,1,1,1,true,z,false,true,0.0-2.0-0.47-0.425-3.425,0,0,0,90,false,stim,false,2,543.2999999523163,0,0,0,48534,task1,1375905,false,false,1459,image-keyboard-response,20
true,11,0,1,0,true,q,false,true,0.0-2.0-0.47-0.426-3.426,0,0,0,81,false,stim,false,2,745.5,0,0,2,48534,task1,1378166,false,false,1462,image-keyboard-response,21
true,11,2,1,2,true,d,false,true,0.0-2.0-0.47-0.427-3.427,0,0,0,68,false,stim,false,1,1552.6000000238419,0,0,1,48534,task1,1381253,false,false,1465,image-keyboard-response,22
true,11,2,1,2,true,d,false,true,0.0-2.0-0.47-0.428-3.428,0,0,0,68,false,stim,false,1,583.8999999761581,0,0,1,48534,task1,1383356,false,false,1468,image-keyboard-response,23
true,11,0,1,0,true,q,false,true,0.0-2.0-0.47-0.429-3.429,0,0,0,81,false,stim,false,2,582.8999999761581,0,0,2,48534,task1,1385465,false,false,1471,image-keyboard-response,24
true,11,1,1,1,true,z,false,true,0.0-2.0-0.47-0.430-3.430,0,0,0,90,false,stim,false,2,670.1000000238419,0,0,0,48534,task1,1387651,false,false,1474,image-keyboard-response,25
true,11,2,1,2,true,d,false,true,0.0-2.0-0.47-0.431-3.431,0,0,0,68,false,stim,false,1,1983.7000000476837,0,0,1,48534,task1,1391161,false,false,1477,image-keyboard-response,26
true,11,1,1,1,true,z,false,true,0.0-2.0-0.48-0.432-3.432,0,0,0,90,false,stim,false,2,821.0,0,0,0,48534,task1,1393502,false,false,1480,image-keyboard-response,27
true,11,1,1,1,true,z,false,true,0.0-2.0-0.48-0.433-3.433,0,0,0,90,false,stim,false,2,1731.5,0,0,0,48534,task1,1396762,false,false,1483,image-keyboard-response,28
true,11,2,1,2,true,d,false,true,0.0-2.0-0.48-0.434-3.434,0,0,0,68,false,stim,false,1,565.7000000476837,0,0,1,48534,task1,1398851,false,false,1486,image-keyboard-response,29
true,11,0,1,0,true,q,false,true,0.0-2.0-0.48-0.435-3.435,0,0,0,81,false,stim,false,2,672.6999999284744,0,0,2,48534,task1,1401047,false,false,1489,image-keyboard-response,30
true,11,2,1,2,true,d,false,true,0.0-2.0-0.48-0.436-3.436,0,0,0,68,false,stim,false,1,805.4000000953674,0,0,1,48534,task1,1403388,false,false,1492,image-keyboard-response,31
true,11,0,1,0,true,q,false,true,0.0-2.0-0.48-0.437-3.437,0,0,0,81,false,stim,false,2,459.2999999523163,0,0,2,48534,task1,1405369,false,false,1495,image-keyboard-response,32
true,11,2,1,2,true,d,false,true,0.0-2.0-0.48-0.438-3.438,0,0,0,68,false,stim,false,1,1150.3999999761581,0,0,1,48534,task1,1408049,false,false,1498,image-keyboard-response,33
true,11,1,1,1,true,z,false,true,0.0-2.0-0.48-0.439-3.439,0,0,0,90,false,stim,false,2,701.2999999523163,0,0,0,48534,task1,1410288,false,false,1501,image-keyboard-response,34
true,11,0,1,0,true,q,false,true,0.0-2.0-0.48-0.440-3.440,0,0,0,81,false,stim,false,2,1451.6000000238419,0,0,2,48534,task1,1413262,false,false,1504,image-keyboard-response,35
true,11,0,1,0,true,q,false,true,0.0-2.0-0.49-0.441-3.441,0,0,0,81,false,stim,false,2,697.1999999284744,0,0,2,48534,task1,1415487,false,false,1507,image-keyboard-response,36
true,11,0,1,0,true,q,false,true,0.0-2.0-0.49-0.442-3.442,0,0,0,81,false,stim,false,2,1005.8000000715256,0,0,2,48534,task1,1418015,false,false,1510,image-keyboard-response,37
true,11,0,1,0,true,q,false,true,0.0-2.0-0.49-0.443-3.443,0,0,0,81,false,stim,false,2,813.8000000715256,0,0,2,48534,task1,1420354,false,false,1513,image-keyboard-response,38
true,11,1,1,1,true,z,false,true,0.0-2.0-0.49-0.444-3.444,0,0,0,90,false,stim,false,2,712.5,0,0,0,48534,task1,1422583,false,false,1516,image-keyboard-response,39
true,11,2,1,2,true,d,false,true,0.0-2.0-0.49-0.445-3.445,0,0,0,68,false,stim,false,1,416.10000002384186,0,0,1,48534,task1,1424517,false,false,1519,image-keyboard-response,40
true,11,1,1,1,true,z,false,true,0.0-2.0-0.49-0.446-3.446,0,0,0,90,false,stim,false,2,936.2000000476837,0,0,0,48534,task1,1426971,false,false,1522,image-keyboard-response,41
true,12,2,2,0,false,q,false,false,0.0-2.0-0.49-0.447-3.447,0,0,0,68,true,stim,true,2,560.3000000715256,0,0,1,48534,task1,1429055,false,false,1525,image-keyboard-response,1
true,12,1,2,0,false,q,false,true,0.0-2.0-0.49-0.448-3.448,0,0,0,90,false,stim,true,1,948.3999999761581,0,0,0,48534,task1,1431511,false,true,1528,image-keyboard-response,2
true,12,0,2,0,true,q,false,false,0.0-2.0-0.49-0.449-3.449,0,0,0,81,false,stim,false,2,753.8999999761581,0,0,1,48534,task1,1433788,false,true,1531,image-keyboard-response,3
true,12,0,2,1,false,z,false,false,0.0-2.0-0.50-0.450-3.450,0,0,0,81,false,stim,true,0,877.1999999284744,0,0,2,48534,task1,1436193,false,false,1534,image-keyboard-response,4
true,12,1,2,0,false,q,false,false,0.0-2.0-0.50-0.451-3.451,0,0,0,90,false,stim,true,1,384.7999999523163,0,0,0,48534,task1,1438102,false,false,1537,image-keyboard-response,5
true,12,0,2,0,true,q,false,true,0.0-2.0-0.50-0.452-3.452,0,0,0,81,false,stim,false,2,1301.3999999761581,0,0,1,48534,task1,1440926,false,false,1540,image-keyboard-response,6
true,12,2,2,1,false,z,true,false,0.0-2.0-0.50-0.453-3.453,0,0,0,68,false,stim,false,0,808.6000000238419,0,0,2,48534,task1,1443260,false,false,1543,image-keyboard-response,7
true,12,1,2,1,true,z,false,true,0.0-2.0-0.50-0.454-3.454,0,0,0,90,false,stim,false,0,705.6000000238419,0,0,2,48534,task1,1445477,false,false,1546,image-keyboard-response,8
true,12,2,2,0,false,q,true,false,0.0-2.0-0.50-0.455-3.455,0,0,0,68,false,stim,false,1,412.3000000715256,0,0,0,48534,task1,1447413,false,false,1549,image-keyboard-response,9
true,12,0,2,0,true,q,false,false,0.0-2.0-0.50-0.456-3.456,0,0,0,81,false,stim,false,2,1205.3000000715256,0,0,1,48534,task1,1450146,false,true,1552,image-keyboard-response,10
true,12,1,2,0,false,q,true,false,0.0-2.0-0.50-0.457-3.457,0,0,0,90,false,stim,false,2,917.0,0,0,1,48534,task1,1452578,false,false,1555,image-keyboard-response,11
true,12,0,2,0,true,q,false,true,0.0-2.0-0.50-0.458-3.458,0,0,0,81,false,stim,false,1,929.3999999761581,0,0,0,48534,task1,1455029,false,false,1558,image-keyboard-response,12
true,12,0,2,1,false,z,false,false,0.0-2.0-0.51-0.459-3.459,0,0,0,81,false,stim,true,0,813.2000000476837,0,0,2,48534,task1,1457366,false,false,1561,image-keyboard-response,13
true,12,0,2,0,true,q,false,true,0.0-2.0-0.51-0.460-3.460,0,0,0,81,false,stim,false,1,944.7000000476837,0,0,0,48534,task1,1459830,false,false,1564,image-keyboard-response,14
true,12,0,2,0,true,q,false,true,0.0-2.0-0.51-0.461-3.461,0,0,0,81,false,stim,false,2,1087.7000000476837,0,0,1,48534,task1,1462456,false,false,1567,image-keyboard-response,15
true,12,1,2,1,true,z,false,true,0.0-2.0-0.51-0.462-3.462,0,0,0,90,false,stim,false,0,801.3000000715256,0,0,2,48534,task1,1464784,false,false,1570,image-keyboard-response,16
true,12,0,2,0,true,q,false,true,0.0-2.0-0.51-0.463-3.463,0,0,0,81,false,stim,false,1,542.3000000715256,0,0,0,48534,task1,1466847,false,false,1573,image-keyboard-response,17
true,12,0,2,0,true,q,false,true,0.0-2.0-0.51-0.464-3.464,0,0,0,81,false,stim,false,1,605.7000000476837,0,0,0,48534,task1,1468976,false,false,1576,image-keyboard-response,18
true,12,1,2,1,true,z,false,true,0.0-2.0-0.51-0.465-3.465,0,0,0,90,false,stim,false,0,631.7000000476837,0,0,2,48534,task1,1471125,false,false,1579,image-keyboard-response,19
true,12,0,2,0,true,q,false,true,0.0-2.0-0.51-0.466-3.466,0,0,0,81,false,stim,false,2,683.8999999761581,0,0,1,48534,task1,1473334,false,false,1582,image-keyboard-response,20
true,12,0,2,0,true,q,false,true,0.0-2.0-0.51-0.467-3.467,0,0,0,81,false,stim,false,2,1319.1999999284744,0,0,1,48534,task1,1476184,false,false,1585,image-keyboard-response,21
true,12,0,2,0,true,q,false,true,0.0-2.0-0.52-0.468-3.468,0,0,0,81,false,stim,false,1,795.7000000476837,0,0,0,48534,task1,1478490,false,false,1588,image-keyboard-response,22
true,12,1,2,1,true,z,false,true,0.0-2.0-0.52-0.469-3.469,0,0,0,90,false,stim,false,0,440.59999990463257,0,0,2,48534,task1,1480457,false,false,1591,image-keyboard-response,23
true,12,0,2,0,true,q,false,true,0.0-2.0-0.52-0.470-3.470,0,0,0,81,false,stim,false,2,472.89999997615814,0,0,1,48534,task1,1482451,false,false,1594,image-keyboard-response,24
true,12,1,2,1,true,z,false,true,0.0-2.0-0.52-0.471-3.471,0,0,0,90,false,stim,false,0,875.1000000238419,0,0,2,48534,task1,1484838,false,false,1597,image-keyboard-response,25
true,12,0,2,0,true,q,false,true,0.0-2.0-0.52-0.472-3.472,0,0,0,81,false,stim,false,2,515.8999999761581,0,0,1,48534,task1,1486876,false,false,1600,image-keyboard-response,26
true,12,0,2,0,true,q,false,true,0.0-2.0-0.52-0.473-3.473,0,0,0,81,false,stim,false,1,369.89999997615814,0,0,0,48534,task1,1488782,false,false,1603,image-keyboard-response,27
true,12,0,2,0,true,q,false,true,0.0-2.0-0.52-0.474-3.474,0,0,0,81,false,stim,false,2,509.90000009536743,0,0,1,48534,task1,1490827,false,false,1606,image-keyboard-response,28
true,12,1,2,1,true,z,false,true,0.0-2.0-0.52-0.475-3.475,0,0,0,90,false,stim,false,0,316.1999999284744,0,0,2,48534,task1,1492659,false,false,1609,image-keyboard-response,29
true,12,0,2,0,true,q,false,true,0.0-2.0-0.52-0.476-3.476,0,0,0,81,false,stim,false,1,373.6999999284744,0,0,0,48534,task1,1494548,false,false,1612,image-keyboard-response,30
true,12,1,2,1,true,z,false,false,0.0-2.0-0.53-0.477-3.477,0,0,0,90,false,stim,false,0,1001.6000000238419,0,0,2,48534,task1,1497077,false,true,1615,image-keyboard-response,31
true,12,0,2,1,false,z,false,false,0.0-2.0-0.53-0.478-3.478,0,0,0,81,false,stim,true,0,892.3999999761581,0,0,2,48534,task1,1499493,false,false,1618,image-keyboard-response,32
true,12,0,2,0,true,q,false,true,0.0-2.0-0.53-0.479-3.479,0,0,0,81,false,stim,false,2,905.0,0,0,1,48534,task1,1501909,false,false,1621,image-keyboard-response,33
true,12,0,2,0,true,q,false,true,0.0-2.0-0.53-0.480-3.480,0,0,0,81,false,stim,false,2,739.7000000476837,0,0,1,48534,task1,1504162,false,false,1624,image-keyboard-response,34
true,12,0,2,0,true,q,false,true,0.0-2.0-0.53-0.481-3.481,0,0,0,81,false,stim,false,2,569.6999999284744,0,0,1,48534,task1,1506243,false,false,1627,image-keyboard-response,35
true,12,0,2,0,true,q,false,true,0.0-2.0-0.53-0.482-3.482,0,0,0,81,false,stim,false,1,498.2000000476837,0,0,0,48534,task1,1508266,false,false,1630,image-keyboard-response,36
true,12,0,2,0,true,q,false,true,0.0-2.0-0.53-0.483-3.483,0,0,0,81,false,stim,false,1,658.1999999284744,0,0,0,48534,task1,1510460,false,false,1633,image-keyboard-response,37
true,12,0,2,0,true,q,false,true,0.0-2.0-0.53-0.484-3.484,0,0,0,81,false,stim,false,1,773.9000000953674,0,0,0,48534,task1,1512757,false,false,1636,image-keyboard-response,38
true,12,2,2,1,false,z,true,true,0.0-2.0-0.53-0.485-3.485,0,0,0,68,false,stim,false,0,568.1000000238419,0,0,2,48534,task1,1514853,false,true,1639,image-keyboard-response,39
true,12,0,2,0,true,q,false,true,0.0-2.0-0.54-0.486-3.486,0,0,0,81,false,stim,false,1,731.6000000238419,0,0,0,48534,task1,1517108,false,false,1642,image-keyboard-response,40
true,12,0,2,0,true,q,false,true,0.0-2.0-0.54-0.487-3.487,0,0,0,81,false,stim,false,1,543.2000000476837,0,0,0,48534,task1,1519172,false,false,1645,image-keyboard-response,41
true,12,2,2,1,false,z,true,false,0.0-2.0-0.54-0.488-3.488,0,0,0,68,false,stim,false,0,686.8999999761581,0,0,2,48534,task1,1521386,false,false,1648,image-keyboard-response,42
true,13,0,2,2,false,d,true,false,0.0-2.0-0.54-0.489-3.489,0,0,0,81,true,stim,false,1,677.3999999761581,0,0,2,48534,task1,1523576,false,false,1651,image-keyboard-response,1
true,13,0,2,2,false,d,false,false,0.0-2.0-0.54-0.490-3.490,0,0,0,81,false,stim,true,0,557.8999999761581,0,0,0,48534,task1,1525652,false,false,1654,image-keyboard-response,2
true,13,0,2,1,false,z,false,false,0.0-2.0-0.54-0.491-3.491,0,0,0,81,false,stim,true,0,1003.7999999523163,0,0,1,48534,task1,1528185,false,false,1657,image-keyboard-response,3
true,13,1,2,2,false,d,false,true,0.0-2.0-0.54-0.492-3.492,0,0,0,90,false,stim,true,1,1385.0,0,0,2,48534,task1,1531086,false,true,1660,image-keyboard-response,4
true,13,2,2,1,false,z,true,false,0.0-2.0-0.54-0.493-3.493,0,0,0,68,false,stim,false,0,1506.5,0,0,1,48534,task1,1534120,false,false,1663,image-keyboard-response,5
true,13,1,2,1,true,z,false,true,0.0-2.0-0.54-0.494-3.494,0,0,0,90,false,stim,false,0,1231.8999999761581,0,0,1,48534,task1,1536882,false,false,1666,image-keyboard-response,6
true,13,2,2,2,true,d,false,true,0.0-2.0-0.55-0.495-3.495,0,0,0,68,false,stim,false,0,1154.1999999284744,0,0,0,48534,task1,1539568,false,false,1669,image-keyboard-response,7
true,13,2,2,2,true,d,false,true,0.0-2.0-0.55-0.496-3.496,0,0,0,68,false,stim,false,0,587.6000000238419,0,0,0,48534,task1,1541675,false,false,1672,image-keyboard-response,8
true,13,1,2,2,false,d,false,false,0.0-2.0-0.55-0.497-3.497,0,0,0,90,false,stim,true,1,856.5,0,0,2,48534,task1,1544069,false,false,1675,image-keyboard-response,9
true,13,2,2,2,true,d,false,true,0.0-2.0-0.55-0.498-3.498,0,0,0,68,false,stim,false,0,689.1000000238419,0,0,0,48534,task1,1546289,false,false,1678,image-keyboard-response,10
true,13,1,2,1,true,z,false,false,0.0-2.0-0.55-0.499-3.499,0,0,0,90,false,stim,false,0,1086.3999999761581,0,0,1,48534,task1,1548900,false,true,1681,image-keyboard-response,11
true,13,0,2,2,false,d,true,false,0.0-2.0-0.55-0.500-3.500,0,0,0,81,false,stim,false,1,712.1000000238419,0,0,2,48534,task1,1551133,false,false,1684,image-keyboard-response,12
true,13,1,2,1,true,z,false,true,0.0-2.0-0.55-0.501-3.501,0,0,0,90,false,stim,false,0,1300.0,0,0,1,48534,task1,1553968,false,false,1687,image-keyboard-response,13
true,13,1,2,2,false,d,false,false,0.0-2.0-0.55-0.502-3.502,0,0,0,90,false,stim,true,1,654.2000000476837,0,0,2,48534,task1,1556152,false,false,1690,image-keyboard-response,14
true,13,1,2,1,true,z,false,true,0.0-2.0-0.55-0.503-3.503,0,0,0,90,false,stim,false,0,1581.6000000238419,0,0,1,48534,task1,1559245,false,false,1693,image-keyboard-response,15
true,13,2,2,2,true,d,false,false,0.0-2.0-0.56-0.504-3.504,0,0,0,68,false,stim,false,0,538.6000000238419,0,0,0,48534,task1,1561320,false,true,1696,image-keyboard-response,16
true,13,2,2,2,true,d,false,true,0.0-2.0-0.56-0.505-3.505,0,0,0,68,false,stim,false,1,1027.0,0,0,2,48534,task1,1563875,false,false,1699,image-keyboard-response,17
true,13,1,2,1,true,z,false,true,0.0-2.0-0.56-0.506-3.506,0,0,0,90,false,stim,false,0,813.3000000715256,0,0,1,48534,task1,1566226,false,false,1702,image-keyboard-response,18
true,13,2,2,2,true,d,false,true,0.0-2.0-0.56-0.507-3.507,0,0,0,68,false,stim,false,1,469.8000000715256,0,0,2,48534,task1,1568218,false,false,1705,image-keyboard-response,19
true,13,0,2,2,false,d,false,false,0.0-2.0-0.56-0.508-3.508,0,0,0,81,false,stim,true,0,632.8999999761581,0,0,0,48534,task1,1570366,false,false,1708,image-keyboard-response,20
true,13,1,2,1,true,z,false,true,0.0-2.0-0.56-0.509-3.509,0,0,0,90,false,stim,false,0,602.4000000953674,0,0,1,48534,task1,1572491,false,false,1711,image-keyboard-response,21
true,13,1,2,2,false,d,true,true,0.0-2.0-0.56-0.510-3.510,0,0,0,90,false,stim,false,0,535.8999999761581,0,0,0,48534,task1,1574548,false,true,1714,image-keyboard-response,22
true,13,2,2,2,true,d,false,true,0.0-2.0-0.56-0.511-3.511,0,0,0,68,false,stim,false,1,833.2000000476837,0,0,2,48534,task1,1576909,false,false,1717,image-keyboard-response,23
true,13,1,2,1,true,z,false,true,0.0-2.0-0.56-0.512-3.512,0,0,0,90,false,stim,false,0,417.2999999523163,0,0,1,48534,task1,1578852,false,false,1720,image-keyboard-response,24
true,13,2,2,2,true,d,false,true,0.0-2.0-0.57-0.513-3.513,0,0,0,68,false,stim,false,1,559.5999999046326,0,0,2,48534,task1,1580946,false,false,1723,image-keyboard-response,25
true,13,1,2,2,false,d,true,false,0.0-2.0-0.57-0.514-3.514,0,0,0,90,false,stim,false,0,419.7000000476837,0,0,0,48534,task1,1582902,false,false,1726,image-keyboard-response,26
true,13,0,2,2,false,d,false,false,0.0-2.0-0.57-0.515-3.515,0,0,0,81,false,stim,true,0,667.8999999761581,0,0,0,48534,task1,1585103,false,false,1729,image-keyboard-response,27
true,13,2,2,2,true,d,false,true,0.0-2.0-0.57-0.516-3.516,0,0,0,68,false,stim,false,1,1133.7999999523163,0,0,2,48534,task1,1587753,false,false,1732,image-keyboard-response,28
true,13,1,2,1,true,z,false,true,0.0-2.0-0.57-0.517-3.517,0,0,0,90,false,stim,false,0,621.0999999046326,0,0,1,48534,task1,1589889,false,false,1735,image-keyboard-response,29
true,13,2,2,2,true,d,false,false,0.0-2.0-0.57-0.518-3.518,0,0,0,68,false,stim,false,0,807.9000000953674,0,0,0,48534,task1,1592224,false,true,1738,image-keyboard-response,30
true,13,1,2,1,true,z,false,true,0.0-2.0-0.57-0.519-3.519,0,0,0,90,false,stim,false,0,751.1999999284744,0,0,1,48534,task1,1594502,false,false,1741,image-keyboard-response,31
true,13,1,2,1,true,z,false,true,0.0-2.0-0.57-0.520-3.520,0,0,0,90,false,stim,false,0,944.2000000476837,0,0,1,48534,task1,1596970,false,false,1744,image-keyboard-response,32
true,13,2,2,2,true,d,false,true,0.0-2.0-0.57-0.521-3.521,0,0,0,68,false,stim,false,1,735.8999999761581,0,0,2,48534,task1,1599231,false,false,1747,image-keyboard-response,33
true,13,0,2,2,false,d,false,false,0.0-2.0-0.58-0.522-3.522,0,0,0,81,false,stim,true,0,985.6000000238419,0,0,0,48534,task1,1601752,false,false,1750,image-keyboard-response,34
true,13,1,2,2,false,d,true,false,0.0-2.0-0.58-0.523-3.523,0,0,0,90,false,stim,false,0,601.5,0,0,0,48534,task1,1603880,false,false,1753,image-keyboard-response,35
true,13,1,2,1,true,z,false,true,0.0-2.0-0.58-0.524-3.524,0,0,0,90,false,stim,false,0,712.7999999523163,0,0,1,48534,task1,1606106,false,false,1756,image-keyboard-response,36
true,13,2,2,2,true,d,false,true,0.0-2.0-0.58-0.525-3.525,0,0,0,68,false,stim,false,1,301.7000000476837,0,0,2,48534,task1,1607933,false,false,1759,image-keyboard-response,37
true,13,2,2,2,true,d,false,true,0.0-2.0-0.58-0.526-3.526,0,0,0,68,false,stim,false,0,390.0,0,0,0,48534,task1,1609852,false,false,1762,image-keyboard-response,38
true,13,2,2,2,true,d,false,true,0.0-2.0-0.58-0.527-3.527,0,0,0,68,false,stim,false,1,1369.5,0,0,2,48534,task1,1612751,false,false,1765,image-keyboard-response,39
true,13,1,2,1,true,z,false,true,0.0-2.0-0.58-0.528-3.528,0,0,0,90,false,stim,false,0,664.3000000715256,0,0,1,48534,task1,1614940,false,false,1768,image-keyboard-response,40
true,13,1,2,1,true,z,false,true,0.0-2.0-0.58-0.529-3.529,0,0,0,90,false,stim,false,0,697.4000000953674,0,1,1,48534,task1,1617157,false,false,1771,image-keyboard-response,41
true,13,2,2,2,true,d,false,true,0.0-2.0-0.58-0.530-3.530,0,0,0,68,false,stim,false,1,989.4000000953674,0,1,2,48534,task1,1619666,false,false,1774,image-keyboard-response,42
true,13,2,2,2,true,d,false,true,0.0-2.0-0.59-0.531-3.531,0,0,0,68,false,stim,false,0,1495.7999999523163,0,1,0,48534,task1,1622679,false,false,1777,image-keyboard-response,43
true,13,2,2,2,true,d,false,true,0.0-2.0-0.59-0.532-3.532,0,0,0,68,false,stim,false,1,768.8000000715256,0,1,2,48534,task1,1624964,false,false,1780,image-keyboard-response,44
true,13,2,2,2,true,d,false,true,0.0-2.0-0.59-0.533-3.533,0,0,0,68,false,stim,false,1,564.3000000715256,0,1,2,48534,task1,1627057,false,false,1783,image-keyboard-response,45
true,14,0,0,1,false,z,true,false,0.0-2.0-0.59-0.534-3.534,1,1,1,81,true,stim,false,1,2856.600000023842,0,1,1,48534,task1,1752715,false,false,1906,image-keyboard-response,1
true,14,0,0,1,false,z,true,false,0.0-2.0-0.59-0.535-3.535,1,1,1,81,false,stim,false,1,1591.8000000715256,0,1,1,48534,task1,1755819,false,false,1909,image-keyboard-response,2
true,14,0,0,2,false,d,true,false,0.0-2.0-0.59-0.536-3.536,1,1,1,81,false,stim,false,2,1493.2000000476837,0,1,0,48534,task1,1758825,false,false,1912,image-keyboard-response,3
true,14,1,0,2,false,d,true,true,0.0-2.0-0.59-0.537-3.537,1,1,1,90,false,stim,false,2,572.5,0,1,0,48534,task1,1760922,false,true,1915,image-keyboard-response,4
true,14,1,0,1,true,z,false,true,0.0-2.0-0.59-0.538-3.538,1,1,1,90,false,stim,false,1,1036.2999999523163,0,1,1,48534,task1,1763476,false,false,1918,image-keyboard-response,5
true,14,2,0,2,true,d,false,true,0.0-2.0-0.59-0.539-3.539,1,1,1,68,false,stim,false,2,461.5,0,1,2,48534,task1,1765458,false,false,1921,image-keyboard-response,6
true,14,1,0,2,false,d,true,false,0.0-2.0-0.60-0.540-3.540,1,1,1,90,false,stim,false,2,675.3000000715256,0,1,0,48534,task1,1767661,false,false,1924,image-keyboard-response,7
true,14,1,0,1,true,z,false,true,0.0-2.0-0.60-0.541-3.541,1,1,1,90,false,stim,false,1,1835.7000000476837,0,1,1,48534,task1,1771032,false,false,1927,image-keyboard-response,8
true,14,2,0,2,true,d,false,true,0.0-2.0-0.60-0.542-3.542,1,1,1,68,false,stim,false,2,825.4000000953674,0,0,0,48534,task1,1773383,false,false,1930,image-keyboard-response,9
true,14,2,0,2,true,d,false,true,0.0-2.0-0.60-0.543-3.543,1,1,1,68,false,stim,false,2,474.0,0,0,0,48534,task1,1775381,false,false,1933,image-keyboard-response,10
true,14,0,0,2,false,d,true,false,0.0-2.0-0.60-0.544-3.544,1,1,1,81,false,stim,false,2,939.0,0,0,2,48534,task1,1777843,false,false,1936,image-keyboard-response,11
true,14,2,0,2,true,d,false,true,0.0-2.0-0.60-0.545-3.545,1,1,1,68,false,stim,false,2,508.2999999523163,0,0,2,48534,task1,1779869,false,false,1939,image-keyboard-response,12
true,14,2,0,2,true,d,false,true,0.0-2.0-0.60-0.546-3.546,1,1,1,68,false,stim,false,2,465.59999990463257,0,0,2,48534,task1,1781854,false,false,1942,image-keyboard-response,13
true,15,1,1,2,false,d,false,true,0.0-2.0-0.60-0.547-3.547,0,0,0,90,true,stim,true,1,392.1999999284744,0,0,1,48534,task1,1783778,false,true,1945,image-keyboard-response,1
true,15,1,1,2,false,d,false,false,0.0-2.0-0.60-0.548-3.548,0,0,0,90,false,stim,true,1,530.5,0,0,1,48534,task1,1785833,false,false,1948,image-keyboard-response,2
true,15,1,1,2,false,d,false,false,0.0-2.0-0.61-0.549-3.549,0,0,0,90,false,stim,true,1,1263.3000000715256,0,0,1,48534,task1,1788617,false,false,1951,image-keyboard-response,3
true,15,2,1,1,false,z,false,false,0.0-2.0-0.61-0.550-3.550,0,0,0,68,false,stim,true,2,920.7000000476837,0,0,0,48534,task1,1791061,false,false,1954,image-keyboard-response,4
true,15,0,1,2,false,d,true,false,0.0-2.0-0.61-0.551-3.551,0,0,0,81,false,stim,false,1,313.7999999523163,0,0,1,48534,task1,1792905,false,false,1957,image-keyboard-response,5
true,15,1,1,1,true,z,false,true,0.0-2.0-0.61-0.552-3.552,0,0,0,90,false,stim,false,2,1442.6999999284744,0,0,2,48534,task1,1795868,false,false,1960,image-keyboard-response,6
true,15,2,1,1,false,z,false,false,0.0-2.0-0.61-0.553-3.553,0,0,0,68,false,stim,true,2,1518.8000000715256,0,0,0,48534,task1,1798914,false,false,1963,image-keyboard-response,7
true,15,1,1,1,true,z,false,true,0.0-2.0-0.61-0.554-3.554,0,0,0,90,false,stim,false,2,812.6999999284744,0,0,2,48534,task1,1801260,false,false,1966,image-keyboard-response,8
true,15,0,1,2,false,d,true,true,0.0-2.0-0.61-0.555-3.555,0,0,0,81,false,stim,false,1,925.5,0,0,1,48534,task1,1803713,false,true,1969,image-keyboard-response,9
true,15,1,1,1,true,z,false,true,0.0-2.0-0.61-0.556-3.556,0,0,0,90,false,stim,false,2,949.8000000715256,0,0,2,48534,task1,1806177,false,false,1972,image-keyboard-response,10
true,15,1,1,1,true,z,false,true,0.0-2.0-0.61-0.557-3.557,0,0,0,90,false,stim,false,2,1301.4000000953674,0,0,0,48534,task1,1809009,false,false,1975,image-keyboard-response,11
true,15,0,1,2,false,d,true,false,0.0-2.0-0.62-0.558-3.558,0,0,0,81,false,stim,false,1,647.7999999523163,0,0,1,48534,task1,1811180,false,false,1978,image-keyboard-response,12
true,15,0,1,1,false,z,true,false,0.0-2.0-0.62-0.559-3.559,0,0,0,81,false,stim,false,2,453.2999999523163,0,0,2,48534,task1,1813161,false,false,1981,image-keyboard-response,13
true,15,1,1,1,true,z,false,true,0.0-2.0-0.62-0.560-3.560,0,0,0,90,false,stim,false,2,770.1000000238419,0,0,2,48534,task1,1815454,false,false,1984,image-keyboard-response,14
true,15,1,1,2,false,d,false,false,0.0-2.0-0.62-0.561-3.561,0,0,0,90,false,stim,true,1,1679.5,0,0,1,48534,task1,1818670,false,false,1987,image-keyboard-response,15
true,15,2,1,2,true,d,false,true,0.0-2.0-0.62-0.562-3.562,0,0,0,68,false,stim,false,1,877.4000000953674,0,0,1,48534,task1,1821070,false,false,1990,image-keyboard-response,16
true,15,1,1,1,true,z,false,false,0.0-2.0-0.62-0.563-3.563,0,0,0,90,false,stim,false,2,1350.0,0,0,0,48534,task1,1823956,false,true,1993,image-keyboard-response,17
true,15,2,1,1,false,z,false,false,0.0-2.0-0.62-0.564-3.564,0,0,0,68,false,stim,true,2,700.5,0,0,0,48534,task1,1826180,false,false,1996,image-keyboard-response,18
true,15,0,1,1,false,z,true,false,0.0-2.0-0.62-0.565-3.565,0,0,0,81,false,stim,false,2,1023.6000000238419,0,0,0,48534,task1,1828724,false,false,1999,image-keyboard-response,19
true,15,1,1,1,true,z,false,true,0.0-2.0-0.62-0.566-3.566,0,0,0,90,false,stim,false,2,886.6000000238419,0,0,2,48534,task1,1831138,false,false,2002,image-keyboard-response,20
true,15,1,1,2,false,d,false,false,0.0-2.0-0.63-0.567-3.567,0,0,0,90,false,stim,true,1,1390.5999999046326,0,0,1,48534,task1,1834054,false,false,2005,image-keyboard-response,21
true,15,1,1,1,true,z,false,true,0.0-2.0-0.63-0.568-3.568,0,0,0,90,false,stim,false,2,770.6000000238419,0,0,2,48534,task1,1836355,false,false,2008,image-keyboard-response,22
true,15,2,1,2,true,d,false,true,0.0-2.0-0.63-0.569-3.569,0,0,0,68,false,stim,false,1,672.2000000476837,0,0,1,48534,task1,1838551,false,false,2011,image-keyboard-response,23
true,15,1,1,1,true,z,false,true,0.0-2.0-0.63-0.570-3.570,0,0,0,90,false,stim,false,2,609.3999999761581,0,0,2,48534,task1,1840673,false,false,2014,image-keyboard-response,24
true,15,1,1,1,true,z,false,true,0.0-2.0-0.63-0.571-3.571,0,0,0,90,false,stim,false,2,960.5999999046326,0,0,0,48534,task1,1843158,false,false,2017,image-keyboard-response,25
true,15,2,1,2,true,d,false,true,0.0-2.0-0.63-0.572-3.572,0,0,0,68,false,stim,false,1,938.2000000476837,0,0,1,48534,task1,1845616,false,false,2020,image-keyboard-response,26
true,15,1,1,1,true,z,false,true,0.0-2.0-0.63-0.573-3.573,0,0,0,90,false,stim,false,2,431.89999997615814,0,0,2,48534,task1,1847567,false,false,2023,image-keyboard-response,27
true,15,1,1,1,true,z,false,true,0.0-2.0-0.63-0.574-3.574,0,0,0,90,false,stim,false,2,351.39999997615814,0,0,0,48534,task1,1849437,false,false,2026,image-keyboard-response,28
true,15,1,1,1,true,z,false,false,0.0-2.0-0.63-0.575-3.575,0,0,0,90,false,stim,false,2,707.6000000238419,0,0,0,48534,task1,1851669,false,true,2029,image-keyboard-response,29
true,15,2,1,2,true,d,false,true,0.0-2.0-0.64-0.576-3.576,0,0,0,68,false,stim,false,1,1126.2999999523163,0,0,1,48534,task1,1854322,false,false,2032,image-keyboard-response,30
true,15,2,1,2,true,d,false,true,0.0-2.0-0.64-0.577-3.577,0,0,0,68,false,stim,false,1,769.2000000476837,0,0,1,48534,task1,1856607,false,false,2035,image-keyboard-response,31
true,15,2,1,2,true,d,false,true,0.0-2.0-0.64-0.578-3.578,0,0,0,68,false,stim,false,1,599.0,0,0,1,48534,task1,1858740,false,false,2038,image-keyboard-response,32
true,15,2,1,1,false,z,false,false,0.0-2.0-0.64-0.579-3.579,0,0,0,68,false,stim,true,2,1359.3999999761581,0,0,0,48534,task1,1861617,false,false,2041,image-keyboard-response,33
true,15,0,1,1,false,z,true,false,0.0-2.0-0.64-0.580-3.580,0,0,0,81,false,stim,false,2,853.7000000476837,0,0,0,48534,task1,1863999,false,false,2044,image-keyboard-response,34
true,15,1,1,1,true,z,false,true,0.0-2.0-0.64-0.581-3.581,0,0,0,90,false,stim,false,2,1174.5,0,0,2,48534,task1,1866702,false,false,2047,image-keyboard-response,35
true,15,1,1,1,true,z,false,false,0.0-2.0-0.64-0.582-3.582,0,0,0,90,false,stim,false,2,731.3000000715256,0,0,2,48534,task1,1868958,false,true,2050,image-keyboard-response,36
true,15,1,1,1,true,z,false,true,0.0-2.0-0.64-0.583-3.583,0,0,0,90,false,stim,false,2,1082.1000000238419,0,0,2,48534,task1,1871578,false,false,2053,image-keyboard-response,37
true,15,1,1,1,true,z,false,true,0.0-2.0-0.64-0.584-3.584,0,0,0,90,false,stim,false,2,662.2999999523163,0,0,0,48534,task1,1873764,false,false,2056,image-keyboard-response,38
true,15,1,1,1,true,z,false,true,0.0-2.0-0.65-0.585-3.585,0,0,0,90,false,stim,false,2,1608.3999999761581,0,0,0,48534,task1,1876899,false,false,2059,image-keyboard-response,39
true,15,1,1,1,true,z,false,true,0.0-2.0-0.65-0.586-3.586,0,0,0,90,false,stim,false,2,873.1999999284744,0,0,2,48534,task1,1879286,false,false,2062,image-keyboard-response,40
true,16,2,2,2,true,d,false,true,0.0-2.0-0.65-0.587-3.587,0,0,0,68,true,stim,false,1,1392.1999999284744,0,0,0,48534,task1,1882210,false,false,2065,image-keyboard-response,1
true,16,1,2,2,false,d,false,false,0.0-2.0-0.65-0.588-3.588,0,0,0,90,false,stim,true,1,1314.8000000715256,0,0,2,48534,task1,1885051,false,false,2068,image-keyboard-response,2
true,16,2,2,1,false,z,false,false,0.0-2.0-0.65-0.589-3.589,0,0,0,68,false,stim,true,2,1188.0,0,0,1,48534,task1,1887762,false,false,2071,image-keyboard-response,3
