answered,blockNum,choice,condition,corResp,correct,correct_response,explo,fb,internal_node_id,isStable_1,isStable_2,isStable_3,key_press,newBlock,part,persev,persevResp,rt,sessNum,stableAS,stimulus,subject,task,time_elapsed,training,trap,trial_index,trial_type,trialsInBlock
true,1,1,0,0,false,q,true,false,0.0-2.0-0.0-0.0-3.0,0,0,0,90,true,stim,false,-1,938,2,0,2,51283,task2,110195,false,false,139,image-keyboard-response,1
true,1,1,0,0,false,q,true,false,0.0-2.0-0.0-0.1-3.1,0,0,0,90,false,stim,false,-1,957,2,0,0,51283,task2,112693,false,false,142,image-keyboard-response,2
true,1,1,0,2,false,d,true,false,0.0-2.0-0.0-0.2-3.2,0,0,0,90,false,stim,false,-1,656,2,0,1,51283,task2,114873,false,false,145,image-keyboard-response,3
true,1,0,0,0,true,q,false,true,0.0-2.0-0.0-0.3-3.3,0,0,0,81,false,stim,false,-1,622,2,0,0,51283,task2,117018,false,false,148,image-keyboard-response,4
true,1,0,0,0,true,q,false,true,0.0-2.0-0.0-0.4-3.4,0,0,0,81,false,stim,false,-1,1248,2,0,2,51283,task2,119795,false,false,151,image-keyboard-response,5
true,1,2,0,2,true,d,false,true,0.0-2.0-0.0-0.5-3.5,0,0,0,68,false,stim,false,-1,509,2,0,1,51283,task2,121836,false,false,154,image-keyboard-response,6
true,1,0,0,0,true,q,false,true,0.0-2.0-0.0-0.6-3.6,0,0,0,81,false,stim,false,-1,617,2,0,2,51283,task2,123996,false,false,157,image-keyboard-response,7
true,1,0,0,0,true,q,false,true,0.0-2.0-0.0-0.7-3.7,0,0,0,81,false,stim,false,-1,476,2,0,0,51283,task2,126014,false,false,160,image-keyboard-response,8
true,1,2,0,2,true,d,false,true,0.0-2.0-0.0-0.8-3.8,0,0,0,68,false,stim,false,-1,390,2,0,1,51283,task2,127927,false,false,163,image-keyboard-response,9
true,1,2,0,2,true,d,false,true,0.0-2.0-0.1-0.9-3.9,0,0,0,68,false,stim,false,-1,398,2,0,1,51283,task2,129864,false,false,166,image-keyboard-response,10
true,1,0,0,0,true,q,false,true,0.0-2.0-0.1-0.10-3.10,0,0,0,81,false,stim,false,-1,527,2,0,2,51283,task2,131936,false,false,169,image-keyboard-response,11
true,1,0,0,0,true,q,false,true,0.0-2.0-0.1-0.11-3.11,0,0,0,81,false,stim,false,-1,586,2,0,2,51283,task2,134052,false,false,172,image-keyboard-response,12
true,1,2,0,2,true,d,false,true,0.0-2.0-0.1-0.12-3.12,0,0,0,68,false,stim,false,-1,532,2,0,1,51283,task2,136120,false,false,175,image-keyboard-response,13
true,1,0,0,0,true,q,false,true,0.0-2.0-0.1-0.13-3.13,0,0,0,81,false,stim,false,-1,560,2,0,0,51283,task2,138197,false,false,178,image-keyboard-response,14
true,1,0,0,0,true,q,false,true,0.0-2.0-0.1-0.14-3.14,0,0,0,81,false,stim,false,-1,499,2,0,0,51283,task2,140238,false,false,181,image-keyboard-response,15
true,1,0,0,0,true,q,false,true,0.0-2.0-0.1-0.15-3.15,0,0,0,81,false,stim,false,-1,572,2,0,0,51283,task2,142338,false,false,184,image-keyboard-response,16
true,1,2,0,2,true,d,false,false,0.0-2.0-0.1-0.16-3.16,0,0,0,68,false,stim,false,-1,626,2,0,1,51283,task2,144499,false,true,187,image-keyboard-response,17
true,1,0,0,0,true,q,false,true,0.0-2.0-0.1-0.17-3.17,0,0,0,81,false,stim,false,-1,689,2,0,2,51283,task2,146716,false,false,190,image-keyboard-response,18
true,1,2,0,2,true,d,false,true,0.0-2.0-0.2-0.18-3.18,0,0,0,68,false,stim,false,-1,533,2,0,1,51283,task2,148779,false,false,193,image-keyboard-response,19
true,1,2,0,2,true,d,false,true,0.0-2.0-0.2-0.19-3.19,0,0,0,68,false,stim,false,-1,532,2,0,1,51283,task2,150839,false,false,196,image-keyboard-response,20
true,1,2,0,2,true,d,false,true,0.0-2.0-0.2-0.20-3.20,0,0,0,68,false,stim,false,-1,550,2,0,1,51283,task2,152918,false,false,199,image-keyboard-response,21
true,1,0,0,0,true,q,false,true,0.0-2.0-0.2-0.21-3.21,0,0,0,81,false,stim,false,-1,582,2,0,0,51283,task2,155030,false,false,202,image-keyboard-response,22
true,1,0,0,0,true,q,false,true,0.0-2.0-0.2-0.22-3.22,0,0,0,81,false,stim,false,-1,550,2,0,2,51283,task2,157107,false,false,205,image-keyboard-response,23
true,1,0,0,0,true,q,false,true,0.0-2.0-0.2-0.23-3.23,0,0,0,81,false,stim,false,-1,553,2,0,2,51283,task2,159190,false,false,208,image-keyboard-response,24
true,1,0,0,0,true,q,false,true,0.0-2.0-0.2-0.24-3.24,0,0,0,81,false,stim,false,-1,1385,2,0,0,51283,task2,162102,false,false,211,image-keyboard-response,25
true,1,0,0,0,true,q,false,true,0.0-2.0-0.2-0.25-3.25,0,0,0,81,false,stim,false,-1,414,2,0,0,51283,task2,164040,false,false,214,image-keyboard-response,26
true,2,0,1,2,false,d,false,false,0.0-2.0-0.2-0.26-3.26,0,0,0,81,true,stim,true,0,634,2,0,2,51283,task2,166202,false,false,217,image-keyboard-response,1
true,2,0,1,1,false,z,false,false,0.0-2.0-0.3-0.27-3.27,0,0,0,81,false,stim,true,0,392,2,0,0,51283,task2,168120,false,false,220,image-keyboard-response,2
true,2,1,1,2,false,d,true,false,0.0-2.0-0.3-0.28-3.28,0,0,0,90,false,stim,false,0,1770,2,0,2,51283,task2,171418,false,false,223,image-keyboard-response,3
true,2,2,1,1,false,z,false,false,0.0-2.0-0.3-0.29-3.29,0,0,0,68,false,stim,true,2,646,2,0,1,51283,task2,173603,false,false,226,image-keyboard-response,4
true,2,0,1,1,false,z,true,false,0.0-2.0-0.3-0.30-3.30,0,0,0,81,false,stim,false,2,1141,2,0,1,51283,task2,176278,false,false,229,image-keyboard-response,5
true,2,1,1,2,false,d,true,false,0.0-2.0-0.3-0.31-3.31,0,0,0,90,false,stim,false,0,1243,2,0,2,51283,task2,179050,false,false,232,image-keyboard-response,6
true,2,2,1,1,false,z,true,false,0.0-2.0-0.3-0.32-3.32,0,0,0,68,false,stim,false,0,744,2,0,0,51283,task2,181332,false,false,235,image-keyboard-response,7
true,2,0,1,1,false,z,false,false,0.0-2.0-0.3-0.33-3.33,0,0,0,81,false,stim,true,0,448,2,0,0,51283,task2,183304,false,false,238,image-keyboard-response,8
true,2,0,1,1,false,z,true,true,0.0-2.0-0.3-0.34-3.34,0,0,0,81,false,stim,false,2,1903,2,0,1,51283,task2,186739,false,true,241,image-keyboard-response,9
true,2,1,1,2,false,d,true,false,0.0-2.0-0.3-0.35-3.35,0,0,0,90,false,stim,false,0,1057,2,0,2,51283,task2,189323,false,false,244,image-keyboard-response,10
true,2,2,1,2,true,d,false,true,0.0-2.0-0.4-0.36-3.36,0,0,0,68,false,stim,false,0,603,2,0,2,51283,task2,191436,false,false,247,image-keyboard-response,11
true,2,0,1,1,false,z,true,false,0.0-2.0-0.4-0.37-3.37,0,0,0,81,false,stim,false,2,694,2,0,1,51283,task2,193662,false,false,250,image-keyboard-response,12
true,2,1,1,1,true,z,false,true,0.0-2.0-0.4-0.38-3.38,0,0,0,90,false,stim,false,0,1062,2,0,0,51283,task2,196249,false,false,253,image-keyboard-response,13
true,2,1,1,1,true,z,false,false,0.0-2.0-0.4-0.39-3.39,0,0,0,90,false,stim,false,0,446,2,0,0,51283,task2,198233,false,true,256,image-keyboard-response,14
true,2,1,1,1,true,z,false,true,0.0-2.0-0.4-0.40-3.40,0,0,0,90,false,stim,false,0,454,2,0,0,51283,task2,200219,false,false,259,image-keyboard-response,15
true,2,2,1,2,true,d,false,true,0.0-2.0-0.4-0.41-3.41,0,0,0,68,false,stim,false,0,583,2,0,2,51283,task2,202329,false,false,262,image-keyboard-response,16
true,2,0,1,1,false,z,true,false,0.0-2.0-0.4-0.42-3.42,0,0,0,81,false,stim,false,2,653,2,0,1,51283,task2,204520,false,false,265,image-keyboard-response,17
true,2,2,1,2,true,d,false,true,0.0-2.0-0.4-0.43-3.43,0,0,0,68,false,stim,false,0,454,2,0,2,51283,task2,206501,false,false,268,image-keyboard-response,18
true,2,1,1,1,true,z,false,true,0.0-2.0-0.4-0.44-3.44,0,0,0,90,false,stim,false,2,448,2,0,1,51283,task2,208475,false,false,271,image-keyboard-response,19
true,2,1,1,1,true,z,false,true,0.0-2.0-0.5-0.45-3.45,0,0,0,90,false,stim,false,0,680,2,0,0,51283,task2,210688,false,false,274,image-keyboard-response,20
true,2,1,1,1,true,z,false,true,0.0-2.0-0.5-0.46-3.46,0,0,0,90,false,stim,false,2,585,2,0,1,51283,task2,212811,false,false,277,image-keyboard-response,21
true,2,1,1,1,true,z,false,false,0.0-2.0-0.5-0.47-3.47,0,0,0,90,false,stim,false,0,662,2,0,0,51283,task2,215008,false,true,280,image-keyboard-response,22
true,2,1,1,1,true,z,false,true,0.0-2.0-0.5-0.48-3.48,0,0,0,90,false,stim,false,0,441,2,0,0,51283,task2,216989,false,false,283,image-keyboard-response,23
true,2,2,1,2,true,d,false,true,0.0-2.0-0.5-0.49-3.49,0,0,0,68,false,stim,false,0,658,2,0,2,51283,task2,219175,false,false,286,image-keyboard-response,24
true,2,1,1,1,true,z,false,true,0.0-2.0-0.5-0.50-3.50,0,0,0,90,false,stim,false,2,486,2,0,1,51283,task2,221194,false,false,289,image-keyboard-response,25
true,2,2,1,2,true,d,false,true,0.0-2.0-0.5-0.51-3.51,0,0,0,68,false,stim,false,0,606,2,0,2,51283,task2,223334,false,false,292,image-keyboard-response,26
true,2,2,1,2,true,d,false,true,0.0-2.0-0.5-0.52-3.52,0,0,0,68,false,stim,false,0,480,2,0,2,51283,task2,225347,false,false,295,image-keyboard-response,27
true,2,1,1,1,true,z,false,true,0.0-2.0-0.5-0.53-3.53,0,0,0,90,false,stim,false,2,498,2,0,1,51283,task2,227374,false,false,298,image-keyboard-response,28
true,2,2,1,2,true,d,false,true,0.0-2.0-0.6-0.54-3.54,0,0,0,68,false,stim,false,0,464,2,0,2,51283,task2,229388,false,false,301,image-keyboard-response,29
true,2,1,1,1,true,z,false,true,0.0-2.0-0.6-0.55-3.55,0,0,0,90,false,stim,false,2,489,2,0,1,51283,task2,231405,false,false,304,image-keyboard-response,30
true,2,1,1,1,true,z,false,true,0.0-2.0-0.6-0.56-3.56,0,0,0,90,false,stim,false,0,684,2,0,0,51283,task2,233613,false,false,307,image-keyboard-response,31
true,2,1,1,1,true,z,false,true,0.0-2.0-0.6-0.57-3.57,0,0,0,90,false,stim,false,2,619,2,0,1,51283,task2,235767,false,false,310,image-keyboard-response,32
true,2,1,1,1,true,z,false,true,0.0-2.0-0.6-0.58-3.58,0,0,0,90,false,stim,false,0,471,2,0,0,51283,task2,237778,false,false,313,image-keyboard-response,33
true,2,2,1,2,true,d,false,true,0.0-2.0-0.6-0.59-3.59,0,0,0,68,false,stim,false,0,404,2,1,2,51283,task2,239709,false,false,316,image-keyboard-response,34
true,2,2,1,2,true,d,false,true,0.0-2.0-0.6-0.60-3.60,0,0,0,68,false,stim,false,0,524,2,1,2,51283,task2,241772,false,false,319,image-keyboard-response,35
true,3,1,2,0,false,q,false,false,0.0-2.0-0.6-0.61-3.61,0,0,1,90,true,stim,true,1,497,2,0,1,51283,task2,243793,false,false,322,image-keyboard-response,1
true,3,1,2,2,false,d,false,false,0.0-2.0-0.6-0.62-3.62,0,0,1,90,false,stim,true,1,376,2,0,0,51283,task2,245713,false,false,325,image-keyboard-response,2
true,3,2,2,0,false,q,true,false,0.0-2.0-0.7-0.63-3.63,0,0,1,68,false,stim,false,1,687,2,0,1,51283,task2,247924,false,false,328,image-keyboard-response,3
true,3,0,2,2,false,d,true,false,0.0-2.0-0.7-0.64-3.64,0,0,1,81,false,stim,false,1,403,2,0,0,51283,task2,249850,false,false,331,image-keyboard-response,4
true,3,1,2,2,false,d,true,false,0.0-2.0-0.7-0.65-3.65,0,0,1,90,false,stim,false,2,817,2,1,2,51283,task2,252203,false,false,334,image-keyboard-response,5
true,3,2,2,2,true,d,false,true,0.0-2.0-0.7-0.66-3.66,0,0,1,68,false,stim,false,2,1105,2,1,2,51283,task2,254833,false,false,337,image-keyboard-response,6
true,3,2,2,2,true,d,false,false,0.0-2.0-0.7-0.67-3.67,0,0,1,68,false,stim,false,2,600,2,1,2,51283,task2,256968,false,true,340,image-keyboard-response,7
true,3,2,2,0,false,q,true,false,0.0-2.0-0.7-0.68-3.68,0,0,1,68,false,stim,false,1,1482,2,0,1,51283,task2,259989,false,false,343,image-keyboard-response,8
true,3,1,2,0,false,q,false,false,0.0-2.0-0.7-0.69-3.69,0,0,1,90,false,stim,true,1,468,2,0,1,51283,task2,261995,false,false,346,image-keyboard-response,9
true,3,0,2,2,false,d,true,true,0.0-2.0-0.7-0.70-3.70,0,0,1,81,false,stim,false,1,894,2,0,0,51283,task2,264420,false,true,349,image-keyboard-response,10
true,3,0,2,2,false,d,true,false,0.0-2.0-0.7-0.71-3.71,0,0,1,81,false,stim,false,1,464,2,0,0,51283,task2,266410,false,false,352,image-keyboard-response,11
true,3,0,2,0,true,q,false,true,0.0-2.0-0.8-0.72-3.72,0,0,1,81,false,stim,false,1,552,2,0,1,51283,task2,268488,false,false,355,image-keyboard-response,12
true,3,0,2,2,false,d,true,false,0.0-2.0-0.8-0.73-3.73,0,0,1,81,false,stim,false,1,412,2,0,0,51283,task2,270429,false,false,358,image-keyboard-response,13
true,3,1,2,2,false,d,true,false,0.0-2.0-0.8-0.74-3.74,0,0,1,90,false,stim,false,2,957,2,1,2,51283,task2,272914,false,false,361,image-keyboard-response,14
true,3,2,2,2,true,d,false,true,0.0-2.0-0.8-0.75-3.75,0,0,1,68,false,stim,false,2,419,2,1,2,51283,task2,274857,false,false,364,image-keyboard-response,15
true,3,1,2,2,false,d,true,false,0.0-2.0-0.8-0.76-3.76,0,0,1,90,false,stim,false,2,485,2,1,2,51283,task2,276882,false,false,367,image-keyboard-response,16
true,3,1,2,0,false,q,false,false,0.0-2.0-0.8-0.77-3.77,0,0,1,90,false,stim,true,1,776,2,0,1,51283,task2,279193,false,false,370,image-keyboard-response,17
true,3,0,2,0,true,q,false,true,0.0-2.0-0.8-0.78-3.78,0,0,1,81,false,stim,false,1,540,2,0,1,51283,task2,281257,false,false,373,image-keyboard-response,18
true,3,1,2,2,false,d,false,false,0.0-2.0-0.8-0.79-3.79,0,0,1,90,false,stim,true,1,613,2,0,0,51283,task2,283410,false,false,376,image-keyboard-response,19
true,3,2,2,2,true,d,false,true,0.0-2.0-0.8-0.80-3.80,0,0,1,68,false,stim,false,1,455,2,0,0,51283,task2,285393,false,false,379,image-keyboard-response,20
true,3,2,2,2,true,d,false,true,0.0-2.0-0.9-0.81-3.81,0,0,1,68,false,stim,false,2,456,2,1,2,51283,task2,287374,false,false,382,image-keyboard-response,21
true,3,0,2,0,true,q,false,true,0.0-2.0-0.9-0.82-3.82,0,0,1,81,false,stim,false,1,670,2,0,1,51283,task2,289577,false,false,385,image-keyboard-response,22
true,3,0,2,0,true,q,false,true,0.0-2.0-0.9-0.83-3.83,0,0,1,81,false,stim,false,1,601,2,0,1,51283,task2,291708,false,false,388,image-keyboard-response,23
true,3,2,2,2,true,d,false,true,0.0-2.0-0.9-0.84-3.84,0,0,1,68,false,stim,false,1,632,2,0,0,51283,task2,293881,false,false,391,image-keyboard-response,24
true,3,0,2,0,true,q,false,true,0.0-2.0-0.9-0.85-3.85,0,0,1,81,false,stim,false,1,622,2,0,1,51283,task2,296018,false,false,394,image-keyboard-response,25
true,3,2,2,2,true,d,false,true,0.0-2.0-0.9-0.86-3.86,0,0,1,68,false,stim,false,1,422,2,0,0,51283,task2,297980,false,false,397,image-keyboard-response,26
true,3,2,2,2,true,d,false,false,0.0-2.0-0.9-0.87-3.87,0,0,1,68,false,stim,false,1,422,2,0,0,51283,task2,299939,false,true,400,image-keyboard-response,27
true,3,2,2,2,true,d,false,true,0.0-2.0-0.9-0.88-3.88,0,0,1,68,false,stim,false,2,506,2,1,2,51283,task2,301983,false,false,403,image-keyboard-response,28
true,3,2,2,2,true,d,false,true,0.0-2.0-0.9-0.89-3.89,0,0,1,68,false,stim,false,2,412,2,1,2,51283,task2,303918,false,false,406,image-keyboard-response,29
true,3,2,2,2,true,d,false,true,0.0-2.0-0.10-0.90-3.90,0,0,1,68,false,stim,false,1,402,2,0,0,51283,task2,305849,false,false,409,image-keyboard-response,30
true,3,2,2,2,true,d,false,true,0.0-2.0-0.10-0.91-3.91,0,0,1,68,false,stim,false,1,364,2,0,0,51283,task2,307752,false,false,412,image-keyboard-response,31
true,3,0,2,0,true,q,false,true,0.0-2.0-0.10-0.92-3.92,0,0,1,81,false,stim,false,1,606,2,0,1,51283,task2,309894,false,false,415,image-keyboard-response,32
true,3,2,2,2,true,d,false,true,0.0-2.0-0.10-0.93-3.93,0,0,1,68,false,stim,false,1,492,2,0,0,51283,task2,311919,false,false,418,image-keyboard-response,33
true,3,2,2,2,true,d,false,true,0.0-2.0-0.10-0.94-3.94,0,0,1,68,false,stim,false,2,425,2,0,2,51283,task2,313871,false,false,421,image-keyboard-response,34
true,3,2,2,2,true,d,false,true,0.0-2.0-0.10-0.95-3.95,0,0,1,68,false,stim,false,2,380,2,0,2,51283,task2,315788,false,false,424,image-keyboard-response,35
true,4,0,1,1,false,z,false,false,0.0-2.0-0.10-0.96-3.96,0,0,0,81,true,stim,true,0,641,2,0,1,51283,task2,317968,false,false,427,image-keyboard-response,1
true,4,2,1,0,false,q,false,false,0.0-2.0-0.10-0.97-3.97,0,0,0,68,false,stim,true,2,488,2,0,2,51283,task2,319985,false,false,430,image-keyboard-response,2
true,4,2,1,1,false,z,true,false,0.0-2.0-0.10-0.98-3.98,0,0,0,68,false,stim,false,0,395,2,0,1,51283,task2,321913,false,false,433,image-keyboard-response,3
true,4,1,1,1,true,z,false,true,0.0-2.0-0.11-0.99-3.99,0,0,0,90,false,stim,false,0,457,2,0,1,51283,task2,323894,false,false,436,image-keyboard-response,4
true,4,0,1,0,true,q,false,true,0.0-2.0-0.11-0.100-3.100,0,0,0,81,false,stim,false,2,1227,2,0,2,51283,task2,326664,false,false,439,image-keyboard-response,5
true,4,0,1,0,true,q,false,true,0.0-2.0-0.11-0.101-3.101,0,0,0,81,false,stim,false,2,518,2,0,2,51283,task2,328715,false,false,442,image-keyboard-response,6
true,4,1,1,1,true,z,false,true,0.0-2.0-0.11-0.102-3.102,0,0,0,90,false,stim,false,0,566,2,0,1,51283,task2,330813,false,false,445,image-keyboard-response,7
true,4,2,1,1,false,z,false,false,0.0-2.0-0.11-0.103-3.103,0,0,0,68,false,stim,true,2,1012,2,0,0,51283,task2,333358,false,false,448,image-keyboard-response,8
true,4,0,1,1,false,z,false,false,0.0-2.0-0.11-0.104-3.104,0,0,0,81,false,stim,true,0,600,2,0,1,51283,task2,335497,false,false,451,image-keyboard-response,9
true,4,0,1,0,true,q,false,true,0.0-2.0-0.11-0.105-3.105,0,0,0,81,false,stim,false,2,347,2,0,2,51283,task2,337384,false,false,454,image-keyboard-response,10
true,4,1,1,1,true,z,false,true,0.0-2.0-0.11-0.106-3.106,0,0,0,90,false,stim,false,2,558,2,0,0,51283,task2,339475,false,false,457,image-keyboard-response,11
true,4,1,1,1,true,z,false,true,0.0-2.0-0.11-0.107-3.107,0,0,0,90,false,stim,false,2,436,2,0,0,51283,task2,341444,false,false,460,image-keyboard-response,12
true,4,0,1,0,true,q,false,true,0.0-2.0-0.12-0.108-3.108,0,0,0,81,false,stim,false,2,674,2,0,2,51283,task2,343641,false,false,463,image-keyboard-response,13
true,4,1,1,1,true,z,false,true,0.0-2.0-0.12-0.109-3.109,0,0,0,90,false,stim,false,2,658,2,0,0,51283,task2,345826,false,false,466,image-keyboard-response,14
true,4,1,1,1,true,z,false,true,0.0-2.0-0.12-0.110-3.110,0,0,0,90,false,stim,false,0,585,2,0,1,51283,task2,347944,false,false,469,image-keyboard-response,15
true,4,1,1,1,true,z,false,false,0.0-2.0-0.12-0.111-3.111,0,0,0,90,false,stim,false,0,437,2,0,1,51283,task2,349915,false,true,472,image-keyboard-response,16
true,4,1,1,1,true,z,false,true,0.0-2.0-0.12-0.112-3.112,0,0,0,90,false,stim,false,0,446,2,0,1,51283,task2,351903,false,false,475,image-keyboard-response,17
true,4,0,1,0,true,q,false,true,0.0-2.0-0.12-0.113-3.113,0,0,0,81,false,stim,false,2,533,2,0,2,51283,task2,353969,false,false,478,image-keyboard-response,18
true,4,1,1,1,true,z,false,true,0.0-2.0-0.12-0.114-3.114,0,0,0,90,false,stim,false,2,436,2,0,0,51283,task2,355944,false,false,481,image-keyboard-response,19
true,4,1,1,1,true,z,false,true,0.0-2.0-0.12-0.115-3.115,0,0,0,90,false,stim,false,2,381,2,0,0,51283,task2,357869,false,false,484,image-keyboard-response,20
true,4,0,1,0,true,q,false,true,0.0-2.0-0.12-0.116-3.116,0,0,0,81,false,stim,false,2,463,2,0,2,51283,task2,359871,false,false,487,image-keyboard-response,21
true,4,1,1,1,true,z,false,true,0.0-2.0-0.13-0.117-3.117,0,0,0,90,false,stim,false,2,547,2,0,0,51283,task2,361954,false,false,490,image-keyboard-response,22
true,4,1,1,1,true,z,false,true,0.0-2.0-0.13-0.118-3.118,0,0,0,90,false,stim,false,0,691,2,0,1,51283,task2,364169,false,false,493,image-keyboard-response,23
true,4,0,1,0,true,q,false,true,0.0-2.0-0.13-0.119-3.119,0,0,0,81,false,stim,false,2,566,2,0,2,51283,task2,366263,false,false,496,image-keyboard-response,24
true,4,1,1,1,true,z,false,true,0.0-2.0-0.13-0.120-3.120,0,0,0,90,false,stim,false,2,615,2,0,0,51283,task2,368408,false,false,499,image-keyboard-response,25
true,4,0,1,0,true,q,false,true,0.0-2.0-0.13-0.121-3.121,0,0,0,81,false,stim,false,2,863,2,0,2,51283,task2,370800,false,false,502,image-keyboard-response,26
true,4,1,1,1,true,z,false,true,0.0-2.0-0.13-0.122-3.122,0,0,0,90,false,stim,false,2,1030,2,0,0,51283,task2,373367,false,false,505,image-keyboard-response,27
true,4,0,1,0,true,q,false,true,0.0-2.0-0.13-0.123-3.123,0,0,0,81,false,stim,false,2,595,2,0,2,51283,task2,375492,false,false,508,image-keyboard-response,28
true,4,1,1,1,true,z,false,true,0.0-2.0-0.13-0.124-3.124,0,0,0,90,false,stim,false,0,1033,2,0,1,51283,task2,378036,false,false,511,image-keyboard-response,29
true,4,1,1,1,true,z,false,true,0.0-2.0-0.13-0.125-3.125,0,0,0,90,false,stim,false,0,464,2,0,1,51283,task2,380042,false,false,514,image-keyboard-response,30
true,4,0,1,0,true,q,false,true,0.0-2.0-0.14-0.126-3.126,0,0,0,81,false,stim,false,2,610,2,0,2,51283,task2,382187,false,false,517,image-keyboard-response,31
true,4,0,1,0,true,q,false,true,0.0-2.0-0.14-0.127-3.127,0,0,0,81,false,stim,false,2,662,2,0,2,51283,task2,384391,false,false,520,image-keyboard-response,32
true,4,1,1,1,true,z,false,true,0.0-2.0-0.14-0.128-3.128,0,0,0,90,false,stim,false,0,636,2,0,1,51283,task2,386565,false,false,523,image-keyboard-response,33
true,4,0,1,0,true,q,false,true,0.0-2.0-0.14-0.129-3.129,0,0,0,81,false,stim,false,2,979,2,0,2,51283,task2,389076,false,false,526,image-keyboard-response,34
true,4,1,1,1,true,z,false,true,0.0-2.0-0.14-0.130-3.130,0,0,0,90,false,stim,false,2,694,2,0,0,51283,task2,391312,false,false,529,image-keyboard-response,35
true,4,1,1,1,true,z,false,true,0.0-2.0-0.14-0.131-3.131,0,0,0,90,false,stim,false,2,431,2,0,0,51283,task2,393269,false,false,532,image-keyboard-response,36
true,5,1,1,2,false,d,false,false,0.0-2.0-0.14-0.132-3.132,0,0,0,90,true,stim,true,1,1102,2,0,1,51283,task2,395899,false,false,535,image-keyboard-response,1
true,5,1,1,0,false,q,false,false,0.0-2.0-0.14-0.133-3.133,0,0,0,90,false,stim,true,1,523,2,0,0,51283,task2,397950,false,false,538,image-keyboard-response,2
true,5,2,1,2,true,d,false,true,0.0-2.0-0.14-0.134-3.134,0,0,0,68,false,stim,false,1,1916,2,0,1,51283,task2,401402,false,false,541,image-keyboard-response,3
true,5,2,1,0,false,q,true,false,0.0-2.0-0.15-0.135-3.135,0,0,0,68,false,stim,false,1,1561,2,0,0,51283,task2,404498,false,false,544,image-keyboard-response,4
true,5,1,1,1,true,z,false,true,0.0-2.0-0.15-0.136-3.136,0,0,0,90,false,stim,false,0,1467,2,0,2,51283,task2,407494,false,false,547,image-keyboard-response,5
true,5,1,1,0,false,q,false,false,0.0-2.0-0.15-0.137-3.137,0,0,0,90,false,stim,true,1,396,2,0,0,51283,task2,409423,false,false,550,image-keyboard-response,6
true,5,1,1,1,true,z,false,true,0.0-2.0-0.15-0.138-3.138,0,0,0,90,false,stim,false,0,562,2,0,2,51283,task2,411509,false,false,553,image-keyboard-response,7
true,5,2,1,2,true,d,false,true,0.0-2.0-0.15-0.139-3.139,0,0,0,68,false,stim,false,1,712,2,0,1,51283,task2,413747,false,false,556,image-keyboard-response,8
true,5,2,1,2,true,d,false,true,0.0-2.0-0.15-0.140-3.140,0,0,0,68,false,stim,false,1,547,2,0,1,51283,task2,415824,false,false,559,image-keyboard-response,9
true,5,0,1,0,true,q,false,true,0.0-2.0-0.15-0.141-3.141,0,0,0,81,false,stim,false,1,430,2,0,0,51283,task2,417786,false,false,562,image-keyboard-response,10
true,5,2,1,2,true,d,false,true,0.0-2.0-0.15-0.142-3.142,0,0,0,68,false,stim,false,1,760,2,0,1,51283,task2,420057,false,false,565,image-keyboard-response,11
true,5,1,1,1,true,z,false,true,0.0-2.0-0.15-0.143-3.143,0,0,0,90,false,stim,false,0,598,2,0,2,51283,task2,422185,false,false,568,image-keyboard-response,12
true,5,0,1,0,true,q,false,true,0.0-2.0-0.16-0.144-3.144,0,0,0,81,false,stim,false,1,702,2,0,0,51283,task2,424430,false,false,571,image-keyboard-response,13
true,5,0,1,0,true,q,false,true,0.0-2.0-0.16-0.145-3.145,0,0,0,81,false,stim,false,1,436,2,0,0,51283,task2,426405,false,false,574,image-keyboard-response,14
true,5,0,1,0,true,q,false,true,0.0-2.0-0.16-0.146-3.146,0,0,0,81,false,stim,false,1,461,2,0,0,51283,task2,428399,false,false,577,image-keyboard-response,15
true,5,2,1,1,false,z,true,false,0.0-2.0-0.16-0.147-3.147,0,0,0,68,false,stim,false,0,661,2,0,2,51283,task2,430599,false,false,580,image-keyboard-response,16
true,5,2,1,2,true,d,false,true,0.0-2.0-0.16-0.148-3.148,0,0,0,68,false,stim,false,1,781,2,0,1,51283,task2,432900,false,false,583,image-keyboard-response,17
true,5,2,1,2,true,d,false,true,0.0-2.0-0.16-0.149-3.149,0,0,0,68,false,stim,false,1,484,2,0,1,51283,task2,434911,false,false,586,image-keyboard-response,18
true,5,1,1,1,true,z,false,false,0.0-2.0-0.16-0.150-3.150,0,0,0,90,false,stim,false,0,499,2,0,2,51283,task2,436946,false,true,589,image-keyboard-response,19
true,5,1,1,1,true,z,false,true,0.0-2.0-0.16-0.151-3.151,0,0,0,90,false,stim,false,0,391,2,0,2,51283,task2,438868,false,false,592,image-keyboard-response,20
true,5,2,1,2,true,d,false,true,0.0-2.0-0.16-0.152-3.152,0,0,0,68,false,stim,false,1,646,2,0,1,51283,task2,441043,false,false,595,image-keyboard-response,21
true,5,0,1,0,true,q,false,true,0.0-2.0-0.17-0.153-3.153,0,0,0,81,false,stim,false,1,576,2,0,0,51283,task2,443154,false,false,598,image-keyboard-response,22
true,5,0,1,0,true,q,false,true,0.0-2.0-0.17-0.154-3.154,0,0,0,81,false,stim,false,1,505,2,0,0,51283,task2,445193,false,false,601,image-keyboard-response,23
true,5,2,1,1,false,z,true,false,0.0-2.0-0.17-0.155-3.155,0,0,0,68,false,stim,false,0,1400,2,0,2,51283,task2,448128,false,false,604,image-keyboard-response,24
true,5,2,1,2,true,d,false,true,0.0-2.0-0.17-0.156-3.156,0,0,0,68,false,stim,false,1,635,2,0,1,51283,task2,450302,false,false,607,image-keyboard-response,25
true,5,0,1,0,true,q,false,false,0.0-2.0-0.17-0.157-3.157,0,0,0,81,false,stim,false,1,689,2,0,0,51283,task2,452517,false,true,610,image-keyboard-response,26
true,5,1,1,2,false,d,false,false,0.0-2.0-0.17-0.158-3.158,0,0,0,90,false,stim,true,1,744,2,0,1,51283,task2,454790,false,false,613,image-keyboard-response,27
true,5,2,1,2,true,d,false,true,0.0-2.0-0.17-0.159-3.159,0,0,0,68,false,stim,false,1,552,2,0,1,51283,task2,456889,false,false,616,image-keyboard-response,28
true,5,1,1,1,true,z,false,true,0.0-2.0-0.17-0.160-3.160,0,0,0,90,false,stim,false,0,549,2,0,2,51283,task2,458967,false,false,619,image-keyboard-response,29
true,5,1,1,1,true,z,false,true,0.0-2.0-0.17-0.161-3.161,0,0,0,90,false,stim,false,0,465,2,0,2,51283,task2,460962,false,false,622,image-keyboard-response,30
true,5,0,1,0,true,q,false,true,0.0-2.0-0.18-0.162-3.162,0,0,0,81,false,stim,false,1,605,2,0,0,51283,task2,463102,false,false,625,image-keyboard-response,31
true,5,1,1,1,true,z,false,true,0.0-2.0-0.18-0.163-3.163,0,0,0,90,false,stim,false,0,1365,2,0,2,51283,task2,465997,false,false,628,image-keyboard-response,32
true,5,1,1,1,true,z,false,true,0.0-2.0-0.18-0.164-3.164,0,0,0,90,false,stim,false,0,461,2,0,2,51283,task2,467997,false,false,631,image-keyboard-response,33
true,5,2,1,2,true,d,false,true,0.0-2.0-0.18-0.165-3.165,0,0,0,68,false,stim,false,1,464,2,0,1,51283,task2,470001,false,false,634,image-keyboard-response,34
true,6,2,1,0,false,q,false,false,0.0-2.0-0.18-0.166-3.166,0,0,0,68,true,stim,true,2,374,2,0,1,51283,task2,471912,false,false,637,image-keyboard-response,1
true,6,0,1,2,false,d,false,false,0.0-2.0-0.18-0.167-3.167,0,0,0,81,false,stim,true,0,578,2,0,0,51283,task2,474017,false,false,640,image-keyboard-response,2
true,6,2,1,0,false,q,false,false,0.0-2.0-0.18-0.168-3.168,0,0,0,68,false,stim,true,2,1697,2,0,1,51283,task2,477246,false,false,643,image-keyboard-response,3
true,6,0,1,0,true,q,false,true,0.0-2.0-0.18-0.169-3.169,0,0,0,81,false,stim,false,1,1598,2,0,2,51283,task2,480386,false,false,646,image-keyboard-response,4
true,6,2,1,2,true,d,false,false,0.0-2.0-0.18-0.170-3.170,0,0,0,68,false,stim,false,0,872,2,0,0,51283,task2,482789,false,true,649,image-keyboard-response,5
true,6,0,1,0,true,q,false,true,0.0-2.0-0.19-0.171-3.171,0,0,0,81,false,stim,false,2,1009,2,0,1,51283,task2,485337,false,false,652,image-keyboard-response,6
true,6,0,1,0,true,q,false,true,0.0-2.0-0.19-0.172-3.172,0,0,0,81,false,stim,false,1,770,2,0,2,51283,task2,487648,false,false,655,image-keyboard-response,7
true,6,1,1,2,false,d,true,false,0.0-2.0-0.19-0.173-3.173,0,0,0,90,false,stim,false,0,1204,2,0,0,51283,task2,490381,false,false,658,image-keyboard-response,8
true,6,0,1,0,true,q,false,true,0.0-2.0-0.19-0.174-3.174,0,0,0,81,false,stim,false,2,400,2,0,1,51283,task2,492308,false,false,661,image-keyboard-response,9
true,6,0,1,0,true,q,false,true,0.0-2.0-0.19-0.175-3.175,0,0,0,81,false,stim,false,2,417,2,0,1,51283,task2,494264,false,false,664,image-keyboard-response,10
true,6,2,1,2,true,d,false,true,0.0-2.0-0.19-0.176-3.176,0,0,0,68,false,stim,false,0,567,2,0,0,51283,task2,496373,false,false,667,image-keyboard-response,11
true,6,2,1,2,true,d,false,true,0.0-2.0-0.19-0.177-3.177,0,0,0,68,false,stim,false,0,482,2,0,0,51283,task2,498365,false,false,670,image-keyboard-response,12
true,6,0,1,0,true,q,false,true,0.0-2.0-0.19-0.178-3.178,0,0,0,81,false,stim,false,1,491,2,0,2,51283,task2,500388,false,false,673,image-keyboard-response,13
true,6,0,1,0,true,q,false,true,0.0-2.0-0.19-0.179-3.179,0,0,0,81,false,stim,false,1,341,2,0,2,51283,task2,502258,false,false,676,image-keyboard-response,14
true,6,2,1,2,true,d,false,true,0.0-2.0-0.20-0.180-3.180,0,0,0,68,false,stim,false,0,599,2,0,0,51283,task2,504387,false,false,679,image-keyboard-response,15
true,6,0,1,0,true,q,false,true,0.0-2.0-0.20-0.181-3.181,0,0,0,81,false,stim,false,1,469,2,0,2,51283,task2,506396,false,false,682,image-keyboard-response,16
true,6,0,1,0,true,q,false,true,0.0-2.0-0.20-0.182-3.182,0,0,0,81,false,stim,false,2,728,2,0,1,51283,task2,508656,false,false,685,image-keyboard-response,17
true,6,0,1,0,true,q,false,true,0.0-2.0-0.20-0.183-3.183,0,0,0,81,false,stim,false,1,454,2,0,2,51283,task2,510626,false,false,688,image-keyboard-response,18
true,6,0,1,0,true,q,false,true,0.0-2.0-0.20-0.184-3.184,0,0,0,81,false,stim,false,2,702,2,0,1,51283,task2,512869,false,false,691,image-keyboard-response,19
true,6,0,1,0,true,q,false,true,0.0-2.0-0.20-0.185-3.185,0,0,0,81,false,stim,false,1,678,2,0,2,51283,task2,515086,false,false,694,image-keyboard-response,20
true,6,0,1,0,true,q,false,true,0.0-2.0-0.20-0.186-3.186,0,0,0,81,false,stim,false,2,681,2,0,1,51283,task2,517293,false,false,697,image-keyboard-response,21
true,6,2,1,2,true,d,false,true,0.0-2.0-0.20-0.187-3.187,0,0,0,68,false,stim,false,0,501,2,0,0,51283,task2,519328,false,false,700,image-keyboard-response,22
true,6,2,1,2,true,d,false,true,0.0-2.0-0.20-0.188-3.188,0,0,0,68,false,stim,false,0,492,2,0,0,51283,task2,521369,false,false,703,image-keyboard-response,23
true,6,0,1,0,true,q,false,true,0.0-2.0-0.21-0.189-3.189,0,0,0,81,false,stim,false,2,492,2,0,1,51283,task2,523389,false,false,706,image-keyboard-response,24
true,6,0,1,0,true,q,false,true,0.0-2.0-0.21-0.190-3.190,0,0,0,81,false,stim,false,2,394,2,0,1,51283,task2,525318,false,false,709,image-keyboard-response,25
true,6,2,1,2,true,d,false,true,0.0-2.0-0.21-0.191-3.191,0,0,0,68,false,stim,false,0,699,2,0,0,51283,task2,527545,false,false,712,image-keyboard-response,26
true,6,0,1,0,true,q,false,true,0.0-2.0-0.21-0.192-3.192,0,0,0,81,false,stim,false,2,439,2,0,1,51283,task2,529527,false,false,715,image-keyboard-response,27
true,6,0,1,0,true,q,false,true,0.0-2.0-0.21-0.193-3.193,0,0,0,81,false,stim,false,1,465,2,0,2,51283,task2,531533,false,false,718,image-keyboard-response,28
true,6,2,1,2,true,d,false,true,0.0-2.0-0.21-0.194-3.194,0,0,0,68,false,stim,false,0,1228,2,0,0,51283,task2,534287,false,false,721,image-keyboard-response,29
true,6,2,1,2,true,d,false,false,0.0-2.0-0.21-0.195-3.195,0,0,0,68,false,stim,false,0,409,2,0,0,51283,task2,536226,false,true,724,image-keyboard-response,30
true,6,0,1,0,true,q,false,true,0.0-2.0-0.21-0.196-3.196,0,0,0,81,false,stim,false,1,435,2,0,2,51283,task2,538180,false,false,727,image-keyboard-response,31
true,6,0,1,0,true,q,false,true,0.0-2.0-0.21-0.197-3.197,0,0,0,81,false,stim,false,1,566,2,0,2,51283,task2,540272,false,false,730,image-keyboard-response,32
true,6,0,1,0,true,q,false,true,0.0-2.0-0.22-0.198-3.198,0,0,0,81,false,stim,false,2,443,2,0,1,51283,task2,542250,false,false,733,image-keyboard-response,33
true,6,0,1,0,true,q,false,true,0.0-2.0-0.22-0.199-3.199,0,0,0,81,false,stim,false,1,635,2,0,2,51283,task2,544423,false,false,736,image-keyboard-response,34
true,6,0,1,0,true,q,false,true,0.0-2.0-0.22-0.200-3.200,0,0,0,81,false,stim,false,1,440,2,0,2,51283,task2,546388,false,false,739,image-keyboard-response,35
true,6,2,1,2,true,d,false,false,0.0-2.0-0.22-0.201-3.201,0,0,0,68,false,stim,false,0,459,2,1,0,51283,task2,548385,false,true,742,image-keyboard-response,36
true,7,0,2,2,false,d,false,false,0.0-2.0-0.22-0.202-3.202,1,0,0,81,true,stim,true,0,667,2,0,1,51283,task2,550563,false,false,745,image-keyboard-response,1
true,7,1,2,2,false,d,true,false,0.0-2.0-0.22-0.203-3.203,1,0,0,90,false,stim,false,2,873,2,1,0,51283,task2,552970,false,false,748,image-keyboard-response,2
true,7,0,2,2,false,d,true,false,0.0-2.0-0.22-0.204-3.204,1,0,0,81,false,stim,false,2,478,2,1,0,51283,task2,554976,false,false,751,image-keyboard-response,3
true,7,1,2,2,false,d,true,false,0.0-2.0-0.22-0.205-3.205,1,0,0,90,false,stim,false,0,756,2,0,1,51283,task2,557273,false,false,754,image-keyboard-response,4
true,7,0,2,1,false,z,false,false,0.0-2.0-0.22-0.206-3.206,1,0,0,81,false,stim,true,0,977,2,0,2,51283,task2,559770,false,false,757,image-keyboard-response,5
true,7,2,2,2,true,d,false,false,0.0-2.0-0.23-0.207-3.207,1,0,0,68,false,stim,false,0,735,2,0,1,51283,task2,562032,false,true,760,image-keyboard-response,6
true,7,2,2,2,true,d,false,true,0.0-2.0-0.23-0.208-3.208,1,0,0,68,false,stim,false,2,628,2,1,0,51283,task2,564186,false,false,763,image-keyboard-response,7
true,7,2,2,2,true,d,false,true,0.0-2.0-0.23-0.209-3.209,1,0,0,68,false,stim,false,2,530,2,1,0,51283,task2,566247,false,false,766,image-keyboard-response,8
true,7,1,2,1,true,z,false,true,0.0-2.0-0.23-0.210-3.210,1,0,0,90,false,stim,false,0,701,2,0,2,51283,task2,568489,false,false,769,image-keyboard-response,9
true,7,0,2,2,false,d,false,true,0.0-2.0-0.23-0.211-3.211,1,0,0,81,false,stim,true,0,558,2,0,1,51283,task2,570574,false,true,772,image-keyboard-response,10
true,7,0,2,2,false,d,false,false,0.0-2.0-0.23-0.212-3.212,1,0,0,81,false,stim,true,0,689,2,0,1,51283,task2,572807,false,false,775,image-keyboard-response,11
true,7,1,2,1,true,z,false,true,0.0-2.0-0.23-0.213-3.213,1,0,0,90,false,stim,false,0,624,2,0,2,51283,task2,574962,false,false,778,image-keyboard-response,12
true,7,2,2,2,true,d,false,true,0.0-2.0-0.23-0.214-3.214,1,0,0,68,false,stim,false,2,610,2,1,0,51283,task2,577098,false,false,781,image-keyboard-response,13
true,7,1,2,1,true,z,false,false,0.0-2.0-0.23-0.215-3.215,1,0,0,90,false,stim,false,0,691,2,0,2,51283,task2,579318,false,true,784,image-keyboard-response,14
true,7,2,2,2,true,d,false,true,0.0-2.0-0.24-0.216-3.216,1,0,0,68,false,stim,false,2,604,2,1,0,51283,task2,581450,false,false,787,image-keyboard-response,15
true,7,0,2,1,false,z,false,false,0.0-2.0-0.24-0.217-3.217,1,0,0,81,false,stim,true,0,512,2,0,2,51283,task2,583499,false,false,790,image-keyboard-response,16
true,7,1,2,1,true,z,false,true,0.0-2.0-0.24-0.218-3.218,1,0,0,90,false,stim,false,0,563,2,0,2,51283,task2,585584,false,false,793,image-keyboard-response,17
true,7,0,2,2,false,d,false,false,0.0-2.0-0.24-0.219-3.219,1,0,0,81,false,stim,true,0,1085,2,0,1,51283,task2,588201,false,false,796,image-keyboard-response,18
true,7,1,2,2,false,d,true,false,0.0-2.0-0.24-0.220-3.220,1,0,0,90,false,stim,false,0,426,2,0,1,51283,task2,590164,false,false,799,image-keyboard-response,19
true,7,2,2,2,true,d,false,true,0.0-2.0-0.24-0.221-3.221,1,0,0,68,false,stim,false,2,841,2,1,0,51283,task2,592539,false,false,802,image-keyboard-response,20
true,7,2,2,2,true,d,false,true,0.0-2.0-0.24-0.222-3.222,1,0,0,68,false,stim,false,0,840,2,0,1,51283,task2,594907,false,false,805,image-keyboard-response,21
true,7,2,2,2,true,d,false,true,0.0-2.0-0.24-0.223-3.223,1,0,0,68,false,stim,false,2,850,2,1,0,51283,task2,597299,false,false,808,image-keyboard-response,22
true,7,1,2,1,true,z,false,false,0.0-2.0-0.24-0.224-3.224,1,0,0,90,false,stim,false,0,502,2,0,2,51283,task2,599329,false,true,811,image-keyboard-response,23
true,7,1,2,1,true,z,false,true,0.0-2.0-0.25-0.225-3.225,1,0,0,90,false,stim,false,0,795,2,0,2,51283,task2,601653,false,false,814,image-keyboard-response,24
true,7,2,2,2,true,d,false,true,0.0-2.0-0.25-0.226-3.226,1,0,0,68,false,stim,false,0,860,2,0,1,51283,task2,604037,false,false,817,image-keyboard-response,25
true,7,2,2,2,true,d,false,true,0.0-2.0-0.25-0.227-3.227,1,0,0,68,false,stim,false,2,424,2,1,0,51283,task2,606001,false,false,820,image-keyboard-response,26
true,7,2,2,2,true,d,false,false,0.0-2.0-0.25-0.228-3.228,1,0,0,68,false,stim,false,2,526,2,0,0,51283,task2,608053,false,true,823,image-keyboard-response,27
true,7,1,2,1,true,z,false,false,0.0-2.0-0.25-0.229-3.229,1,0,0,90,false,stim,false,0,656,2,0,2,51283,task2,610243,false,true,826,image-keyboard-response,28
true,7,2,2,2,true,d,false,true,0.0-2.0-0.25-0.230-3.230,1,0,0,68,false,stim,false,2,583,2,0,0,51283,task2,612350,false,false,829,image-keyboard-response,29
true,7,2,2,2,true,d,false,false,0.0-2.0-0.25-0.231-3.231,1,0,0,68,false,stim,false,0,743,2,1,1,51283,task2,614629,false,true,832,image-keyboard-response,30
true,7,1,2,1,true,z,false,true,0.0-2.0-0.25-0.232-3.232,1,0,0,90,false,stim,false,0,682,2,0,2,51283,task2,616846,false,false,835,image-keyboard-response,31
true,8,2,2,2,true,d,false,true,0.0-2.0-0.25-0.233-3.233,0,1,0,68,true,stim,false,2,855,2,1,1,51283,task2,619233,false,false,838,image-keyboard-response,1
true,8,2,2,1,false,z,false,true,0.0-2.0-0.26-0.234-3.234,0,1,0,68,false,stim,true,2,440,2,0,0,51283,task2,621197,false,true,841,image-keyboard-response,2
true,8,2,2,2,true,d,false,true,0.0-2.0-0.26-0.235-3.235,0,1,0,68,false,stim,false,2,521,2,1,1,51283,task2,623248,false,false,844,image-keyboard-response,3
true,8,1,2,0,false,q,false,false,0.0-2.0-0.26-0.236-3.236,0,1,0,90,false,stim,true,1,682,2,0,2,51283,task2,625469,false,false,847,image-keyboard-response,4
true,8,2,2,2,true,d,false,false,0.0-2.0-0.26-0.237-3.237,0,1,0,68,false,stim,false,2,453,2,1,1,51283,task2,627460,false,true,850,image-keyboard-response,5
true,8,1,2,0,false,q,false,false,0.0-2.0-0.26-0.238-3.238,0,1,0,90,false,stim,true,1,699,2,0,2,51283,task2,629697,false,false,853,image-keyboard-response,6
true,8,2,2,2,true,d,false,true,0.0-2.0-0.26-0.239-3.239,0,1,0,68,false,stim,false,2,560,2,1,1,51283,task2,631778,false,false,856,image-keyboard-response,7
true,8,2,2,1,false,z,false,false,0.0-2.0-0.26-0.240-3.240,0,1,0,68,false,stim,true,2,534,2,0,0,51283,task2,633851,false,false,859,image-keyboard-response,8
true,8,0,2,0,true,q,false,true,0.0-2.0-0.26-0.241-3.241,0,1,0,81,false,stim,false,1,1175,2,0,2,51283,task2,636552,false,false,862,image-keyboard-response,9
true,8,2,2,1,false,z,false,false,0.0-2.0-0.26-0.242-3.242,0,1,0,68,false,stim,true,2,1153,2,0,0,51283,task2,639230,false,false,865,image-keyboard-response,10
true,8,2,2,2,true,d,false,false,0.0-2.0-0.27-0.243-3.243,0,1,0,68,false,stim,false,2,571,2,1,1,51283,task2,641329,false,true,868,image-keyboard-response,11
true,8,0,2,0,true,q,false,true,0.0-2.0-0.27-0.244-3.244,0,1,0,81,false,stim,false,1,705,2,0,2,51283,task2,643562,false,false,871,image-keyboard-response,12
true,8,0,2,0,true,q,false,true,0.0-2.0-0.27-0.245-3.245,0,1,0,81,false,stim,false,1,467,2,0,2,51283,task2,645564,false,false,874,image-keyboard-response,13
true,8,1,2,2,false,d,true,false,0.0-2.0-0.27-0.246-3.246,0,1,0,90,false,stim,false,2,530,2,1,1,51283,task2,647627,false,false,877,image-keyboard-response,14
true,8,1,2,1,true,z,false,true,0.0-2.0-0.27-0.247-3.247,0,1,0,90,false,stim,false,2,573,2,0,0,51283,task2,649730,false,false,880,image-keyboard-response,15
true,8,1,2,1,true,z,false,true,0.0-2.0-0.27-0.248-3.248,0,1,0,90,false,stim,false,2,582,2,0,0,51283,task2,651849,false,false,883,image-keyboard-response,16
true,8,0,2,0,true,q,false,true,0.0-2.0-0.27-0.249-3.249,0,1,0,81,false,stim,false,1,484,2,0,2,51283,task2,653861,false,false,886,image-keyboard-response,17
true,8,1,2,1,true,z,false,true,0.0-2.0-0.27-0.250-3.250,0,1,0,90,false,stim,false,2,727,2,0,0,51283,task2,656125,false,false,889,image-keyboard-response,18
true,8,0,2,2,false,d,true,false,0.0-2.0-0.27-0.251-3.251,0,1,0,81,false,stim,false,2,427,2,1,1,51283,task2,658083,false,false,892,image-keyboard-response,19
true,8,1,2,1,true,z,false,true,0.0-2.0-0.28-0.252-3.252,0,1,0,90,false,stim,false,2,868,2,0,0,51283,task2,660487,false,false,895,image-keyboard-response,20
true,8,2,2,2,true,d,false,true,0.0-2.0-0.28-0.253-3.253,0,1,0,68,false,stim,false,2,786,2,1,1,51283,task2,662803,false,false,898,image-keyboard-response,21
true,8,0,2,0,true,q,false,true,0.0-2.0-0.28-0.254-3.254,0,1,0,81,false,stim,false,1,835,2,0,2,51283,task2,665186,false,false,901,image-keyboard-response,22
true,8,1,2,1,true,z,false,true,0.0-2.0-0.28-0.255-3.255,0,1,0,90,false,stim,false,2,349,2,0,0,51283,task2,667067,false,false,904,image-keyboard-response,23
true,8,1,2,1,true,z,false,true,0.0-2.0-0.28-0.256-3.256,0,1,0,90,false,stim,false,2,477,2,0,0,51283,task2,669074,false,false,907,image-keyboard-response,24
true,8,2,2,2,true,d,false,false,0.0-2.0-0.28-0.257-3.257,0,1,0,68,false,stim,false,2,520,2,1,1,51283,task2,671137,false,true,910,image-keyboard-response,25
true,8,0,2,0,true,q,false,true,0.0-2.0-0.28-0.258-3.258,0,1,0,81,false,stim,false,1,946,2,0,2,51283,task2,673623,false,false,913,image-keyboard-response,26
true,8,2,2,2,true,d,false,true,0.0-2.0-0.28-0.259-3.259,0,1,0,68,false,stim,false,2,580,2,1,1,51283,task2,675737,false,false,916,image-keyboard-response,27
true,8,0,2,0,true,q,false,true,0.0-2.0-0.28-0.260-3.260,0,1,0,81,false,stim,false,1,601,2,0,2,51283,task2,677878,false,false,919,image-keyboard-response,28
true,8,0,2,0,true,q,false,true,0.0-2.0-0.29-0.261-3.261,0,1,0,81,false,stim,false,1,538,2,0,2,51283,task2,679944,false,false,922,image-keyboard-response,29
true,8,2,2,2,true,d,false,true,0.0-2.0-0.29-0.262-3.262,0,1,0,68,false,stim,false,2,952,2,0,1,51283,task2,682419,false,false,925,image-keyboard-response,30
true,8,1,2,1,true,z,false,true,0.0-2.0-0.29-0.263-3.263,0,1,0,90,false,stim,false,2,388,2,0,0,51283,task2,684336,false,false,928,image-keyboard-response,31
true,8,0,2,0,true,q,false,true,0.0-2.0-0.29-0.264-3.264,0,1,0,81,false,stim,false,1,592,2,0,2,51283,task2,686459,false,false,931,image-keyboard-response,32
true,8,1,2,1,true,z,false,true,0.0-2.0-0.29-0.265-3.265,0,1,0,90,false,stim,false,2,938,2,0,0,51283,task2,688916,false,false,934,image-keyboard-response,33
true,8,2,2,2,true,d,false,true,0.0-2.0-0.29-0.266-3.266,0,1,0,68,false,stim,false,2,841,2,0,1,51283,task2,691299,false,false,937,image-keyboard-response,34
true,9,1,1,0,false,q,false,false,0.0-2.0-0.29-0.267-3.267,0,0,0,90,true,stim,true,1,1141,2,0,0,51283,task2,693970,false,false,940,image-keyboard-response,1
true,9,2,1,0,false,q,false,false,0.0-2.0-0.29-0.268-3.268,0,0,0,68,false,stim,true,2,903,2,0,1,51283,task2,696409,false,false,943,image-keyboard-response,2
true,9,0,1,1,false,z,false,false,0.0-2.0-0.29-0.269-3.269,0,0,0,81,false,stim,true,0,696,2,0,2,51283,task2,698643,false,false,946,image-keyboard-response,3
true,9,0,1,1,false,z,false,false,0.0-2.0-0.30-0.270-3.270,0,0,0,81,false,stim,true,0,809,2,0,2,51283,task2,700986,false,false,949,image-keyboard-response,4
true,9,1,1,0,false,q,true,false,0.0-2.0-0.30-0.271-3.271,0,0,0,90,false,stim,false,2,1062,2,0,1,51283,task2,703579,false,false,952,image-keyboard-response,5
true,9,0,1,0,true,q,false,true,0.0-2.0-0.30-0.272-3.272,0,0,0,81,false,stim,false,2,425,2,0,1,51283,task2,705534,false,false,955,image-keyboard-response,6
true,9,2,1,0,false,q,true,false,0.0-2.0-0.30-0.273-3.273,0,0,0,68,false,stim,false,1,787,2,0,0,51283,task2,707854,false,false,958,image-keyboard-response,7
true,9,1,1,0,false,q,false,false,0.0-2.0-0.30-0.274-3.274,0,0,0,90,false,stim,true,1,461,2,0,0,51283,task2,709848,false,false,961,image-keyboard-response,8
true,9,2,1,1,false,z,true,false,0.0-2.0-0.30-0.275-3.275,0,0,0,68,false,stim,false,0,707,2,0,2,51283,task2,712095,false,false,964,image-keyboard-response,9
true,9,1,1,1,true,z,false,true,0.0-2.0-0.30-0.276-3.276,0,0,0,90,false,stim,false,0,529,2,0,2,51283,task2,714158,false,false,967,image-keyboard-response,10
true,9,0,1,0,true,q,false,false,0.0-2.0-0.30-0.277-3.277,0,0,0,81,false,stim,false,2,739,2,0,1,51283,task2,716437,false,true,970,image-keyboard-response,11
true,9,0,1,0,true,q,false,true,0.0-2.0-0.30-0.278-3.278,0,0,0,81,false,stim,false,1,634,2,0,0,51283,task2,718611,false,false,973,image-keyboard-response,12
true,9,1,1,1,true,z,false,true,0.0-2.0-0.31-0.279-3.279,0,0,0,90,false,stim,false,0,831,2,0,2,51283,task2,720958,false,false,976,image-keyboard-response,13
true,9,1,1,1,true,z,false,false,0.0-2.0-0.31-0.280-3.280,0,0,0,90,false,stim,false,0,505,2,0,2,51283,task2,722992,false,true,979,image-keyboard-response,14
true,9,0,1,0,true,q,false,true,0.0-2.0-0.31-0.281-3.281,0,0,0,81,false,stim,false,1,626,2,0,0,51283,task2,725154,false,false,982,image-keyboard-response,15
true,9,0,1,0,true,q,false,false,0.0-2.0-0.31-0.282-3.282,0,0,0,81,false,stim,false,2,583,2,0,1,51283,task2,727271,false,true,985,image-keyboard-response,16
true,9,0,1,0,true,q,false,true,0.0-2.0-0.31-0.283-3.283,0,0,0,81,false,stim,false,1,577,2,0,0,51283,task2,729370,false,false,988,image-keyboard-response,17
true,9,2,1,0,false,q,false,false,0.0-2.0-0.31-0.284-3.284,0,0,0,68,false,stim,true,2,539,2,0,1,51283,task2,731425,false,false,991,image-keyboard-response,18
true,9,0,1,0,true,q,false,true,0.0-2.0-0.31-0.285-3.285,0,0,0,81,false,stim,false,1,750,2,0,0,51283,task2,733718,false,false,994,image-keyboard-response,19
true,9,1,1,1,true,z,false,true,0.0-2.0-0.31-0.286-3.286,0,0,0,90,false,stim,false,0,523,2,0,2,51283,task2,735782,false,false,997,image-keyboard-response,20
true,9,1,1,0,false,q,true,false,0.0-2.0-0.31-0.287-3.287,0,0,0,90,false,stim,false,2,422,2,0,1,51283,task2,737739,false,false,1000,image-keyboard-response,21
true,9,1,1,1,true,z,false,true,0.0-2.0-0.32-0.288-3.288,0,0,0,90,false,stim,false,0,384,2,0,2,51283,task2,739681,false,false,1003,image-keyboard-response,22
true,9,0,1,0,true,q,false,true,0.0-2.0-0.32-0.289-3.289,0,0,0,81,false,stim,false,1,567,2,0,0,51283,task2,741775,false,false,1006,image-keyboard-response,23
true,9,0,1,0,true,q,false,true,0.0-2.0-0.32-0.290-3.290,0,0,0,81,false,stim,false,1,511,2,0,0,51283,task2,743818,false,false,1009,image-keyboard-response,24
true,9,1,1,0,false,q,true,false,0.0-2.0-0.32-0.291-3.291,0,0,0,90,false,stim,false,2,491,2,0,1,51283,task2,745837,false,false,1012,image-keyboard-response,25
true,9,1,1,1,true,z,false,true,0.0-2.0-0.32-0.292-3.292,0,0,0,90,false,stim,false,0,546,2,0,2,51283,task2,747915,false,false,1015,image-keyboard-response,26
true,9,0,1,0,true,q,false,true,0.0-2.0-0.32-0.293-3.293,0,0,0,81,false,stim,false,2,452,2,0,1,51283,task2,749899,false,false,1018,image-keyboard-response,27
true,9,1,1,1,true,z,false,true,0.0-2.0-0.32-0.294-3.294,0,0,0,90,false,stim,false,0,864,2,0,2,51283,task2,752289,false,false,1021,image-keyboard-response,28
true,9,0,1,0,true,q,false,true,0.0-2.0-0.32-0.295-3.295,0,0,0,81,false,stim,false,1,424,2,0,0,51283,task2,754243,false,false,1024,image-keyboard-response,29
true,9,0,1,0,true,q,false,true,0.0-2.0-0.32-0.296-3.296,0,0,0,81,false,stim,false,2,529,2,0,1,51283,task2,756308,false,false,1027,image-keyboard-response,30
true,9,1,1,1,true,z,false,true,0.0-2.0-0.33-0.297-3.297,0,0,0,90,false,stim,false,0,561,2,0,2,51283,task2,758409,false,false,1030,image-keyboard-response,31
true,9,0,1,0,true,q,false,true,0.0-2.0-0.33-0.298-3.298,0,0,0,81,false,stim,false,2,518,2,0,1,51283,task2,760466,false,false,1033,image-keyboard-response,32
true,9,0,1,0,true,q,false,false,0.0-2.0-0.33-0.299-3.299,0,0,0,81,false,stim,false,2,412,2,0,1,51283,task2,762420,false,true,1036,image-keyboard-response,33
true,9,0,1,0,true,q,false,true,0.0-2.0-0.33-0.300-3.300,0,0,0,81,false,stim,false,2,567,2,0,1,51283,task2,764513,false,false,1039,image-keyboard-response,34
true,10,0,1,2,false,d,false,false,0.0-2.0-0.33-0.301-3.301,0,0,0,81,true,stim,true,0,405,2,0,0,51283,task2,766451,false,false,1042,image-keyboard-response,1
true,10,1,1,2,false,d,false,false,0.0-2.0-0.33-0.302-3.302,0,0,0,90,false,stim,true,1,689,2,0,2,51283,task2,768677,false,false,1045,image-keyboard-response,2
true,10,1,1,2,false,d,false,false,0.0-2.0-0.33-0.303-3.303,0,0,0,90,false,stim,true,1,431,2,0,2,51283,task2,770639,false,false,1048,image-keyboard-response,3
true,10,0,1,2,false,d,false,true,0.0-2.0-0.33-0.304-3.304,0,0,0,81,false,stim,true,0,454,2,0,0,51283,task2,772621,false,true,1051,image-keyboard-response,4
true,10,0,1,2,false,d,false,false,0.0-2.0-0.33-0.305-3.305,0,0,0,81,false,stim,true,0,416,2,0,0,51283,task2,774574,false,false,1054,image-keyboard-response,5
true,10,0,1,2,false,d,true,false,0.0-2.0-0.34-0.306-3.306,0,0,0,81,false,stim,false,1,397,2,0,2,51283,task2,776515,false,false,1057,image-keyboard-response,6
true,10,0,1,2,false,d,false,false,0.0-2.0-0.34-0.307-3.307,0,0,0,81,false,stim,true,0,897,2,0,0,51283,task2,778955,false,false,1060,image-keyboard-response,7
true,10,0,1,1,false,z,false,false,0.0-2.0-0.34-0.308-3.308,0,0,0,81,false,stim,true,0,857,2,0,1,51283,task2,781345,false,false,1063,image-keyboard-response,8
true,10,1,1,2,false,d,true,false,0.0-2.0-0.34-0.309-3.309,0,0,0,90,false,stim,false,0,746,2,0,0,51283,task2,783633,false,false,1066,image-keyboard-response,9
true,10,2,1,2,true,d,false,false,0.0-2.0-0.34-0.310-3.310,0,0,0,68,false,stim,false,0,540,2,0,0,51283,task2,785709,false,true,1069,image-keyboard-response,10
true,10,2,1,1,false,z,true,false,0.0-2.0-0.34-0.311-3.311,0,0,0,68,false,stim,false,0,781,2,0,1,51283,task2,788029,false,false,1072,image-keyboard-response,11
true,10,1,1,2,false,d,false,false,0.0-2.0-0.34-0.312-3.312,0,0,0,90,false,stim,true,1,454,2,0,2,51283,task2,790021,false,false,1075,image-keyboard-response,12
true,10,0,1,1,false,z,false,false,0.0-2.0-0.34-0.313-3.313,0,0,0,81,false,stim,true,0,528,2,0,1,51283,task2,792085,false,false,1078,image-keyboard-response,13
true,10,0,1,2,false,d,true,false,0.0-2.0-0.34-0.314-3.314,0,0,0,81,false,stim,false,1,484,2,0,2,51283,task2,794100,false,false,1081,image-keyboard-response,14
true,10,1,1,2,false,d,false,false,0.0-2.0-0.35-0.315-3.315,0,0,0,90,false,stim,true,1,403,2,0,2,51283,task2,796041,false,false,1084,image-keyboard-response,15
true,10,1,1,2,false,d,false,false,0.0-2.0-0.35-0.316-3.316,0,0,0,90,false,stim,true,1,410,2,0,2,51283,task2,797979,false,false,1087,image-keyboard-response,16
true,10,0,1,1,false,z,false,false,0.0-2.0-0.35-0.317-3.317,0,0,0,81,false,stim,true,0,583,2,0,1,51283,task2,800091,false,false,1090,image-keyboard-response,17
true,10,2,1,2,true,d,false,true,0.0-2.0-0.35-0.318-3.318,0,0,0,68,false,stim,false,1,686,2,0,2,51283,task2,802303,false,false,1093,image-keyboard-response,18
true,10,2,1,2,true,d,false,true,0.0-2.0-0.35-0.319-3.319,0,0,0,68,false,stim,false,0,977,2,0,0,51283,task2,804815,false,false,1096,image-keyboard-response,19
true,10,1,1,1,true,z,false,true,0.0-2.0-0.35-0.320-3.320,0,0,0,90,false,stim,false,0,541,2,0,1,51283,task2,806899,false,false,1099,image-keyboard-response,20
true,10,2,1,2,true,d,false,true,0.0-2.0-0.35-0.321-3.321,0,0,0,68,false,stim,false,0,463,2,0,0,51283,task2,808909,false,false,1102,image-keyboard-response,21
true,10,1,1,1,true,z,false,false,0.0-2.0-0.35-0.322-3.322,0,0,0,90,false,stim,false,0,515,2,0,1,51283,task2,810965,false,true,1105,image-keyboard-response,22
true,10,2,1,2,true,d,false,true,0.0-2.0-0.35-0.323-3.323,0,0,0,68,false,stim,false,0,497,2,0,0,51283,task2,812996,false,false,1108,image-keyboard-response,23
true,10,2,1,2,true,d,false,true,0.0-2.0-0.36-0.324-3.324,0,0,0,68,false,stim,false,0,430,2,0,0,51283,task2,814968,false,false,1111,image-keyboard-response,24
true,10,2,1,2,true,d,false,true,0.0-2.0-0.36-0.325-3.325,0,0,0,68,false,stim,false,0,485,2,0,0,51283,task2,816982,false,false,1114,image-keyboard-response,25
true,10,2,1,2,true,d,false,false,0.0-2.0-0.36-0.326-3.326,0,0,0,68,false,stim,false,1,840,2,0,2,51283,task2,819357,false,true,1117,image-keyboard-response,26
true,10,2,1,2,true,d,false,true,0.0-2.0-0.36-0.327-3.327,0,0,0,68,false,stim,false,0,546,2,0,0,51283,task2,821434,false,false,1120,image-keyboard-response,27
true,10,2,1,2,true,d,false,true,0.0-2.0-0.36-0.328-3.328,0,0,0,68,false,stim,false,1,349,2,0,2,51283,task2,823317,false,false,1123,image-keyboard-response,28
true,10,1,1,1,true,z,false,true,0.0-2.0-0.36-0.329-3.329,0,0,0,90,false,stim,false,0,512,2,0,1,51283,task2,825359,false,false,1126,image-keyboard-response,29
true,10,2,1,2,true,d,false,true,0.0-2.0-0.36-0.330-3.330,0,0,0,68,false,stim,false,1,380,2,0,2,51283,task2,827259,false,false,1129,image-keyboard-response,30
true,10,1,1,1,true,z,false,true,0.0-2.0-0.36-0.331-3.331,0,0,0,90,false,stim,false,0,744,2,0,1,51283,task2,829542,false,false,1132,image-keyboard-response,31
true,10,1,1,1,true,z,false,true,0.0-2.0-0.36-0.332-3.332,0,0,0,90,false,stim,false,0,508,2,0,1,51283,task2,831586,false,false,1135,image-keyboard-response,32
true,10,1,1,1,true,z,false,true,0.0-2.0-0.37-0.333-3.333,0,0,0,90,false,stim,false,0,368,2,0,1,51283,task2,833486,false,false,1138,image-keyboard-response,33
true,10,2,1,2,true,d,false,true,0.0-2.0-0.37-0.334-3.334,0,0,0,68,false,stim,false,1,497,2,1,2,51283,task2,835524,false,false,1141,image-keyboard-response,34
true,10,1,1,1,true,z,false,true,0.0-2.0-0.37-0.335-3.335,0,0,0,90,false,stim,false,0,641,2,0,1,51283,task2,837699,false,false,1144,image-keyboard-response,35
true,10,2,1,2,true,d,false,true,0.0-2.0-0.37-0.336-3.336,0,0,0,68,false,stim,false,0,795,2,0,0,51283,task2,840024,false,false,1147,image-keyboard-response,36
true,10,2,1,2,true,d,false,true,0.0-2.0-0.37-0.337-3.337,0,0,0,68,false,stim,false,0,403,2,0,0,51283,task2,841959,false,false,1150,image-keyboard-response,37
true,10,2,1,2,true,d,false,true,0.0-2.0-0.37-0.338-3.338,0,0,0,68,false,stim,false,0,407,2,0,0,51283,task2,843895,false,false,1153,image-keyboard-response,38
true,11,2,2,2,true,d,false,true,0.0-2.0-0.37-0.339-3.339,0,0,1,68,true,stim,false,2,1145,2,1,2,51283,task2,846572,false,false,1156,image-keyboard-response,1
true,11,1,2,0,false,q,false,false,0.0-2.0-0.37-0.340-3.340,0,0,1,90,false,stim,true,1,561,2,0,1,51283,task2,848659,false,false,1159,image-keyboard-response,2
true,11,2,2,2,true,d,false,true,0.0-2.0-0.37-0.341-3.341,0,0,1,68,false,stim,false,2,467,2,1,2,51283,task2,850664,false,false,1162,image-keyboard-response,3
true,11,2,2,2,true,d,false,false,0.0-2.0-0.38-0.342-3.342,0,0,1,68,false,stim,false,2,374,2,1,2,51283,task2,852573,false,true,1165,image-keyboard-response,4
true,11,1,2,0,false,q,false,false,0.0-2.0-0.38-0.343-3.343,0,0,1,90,false,stim,true,1,446,2,0,1,51283,task2,854538,false,false,1168,image-keyboard-response,5
true,11,2,2,1,false,z,false,true,0.0-2.0-0.38-0.344-3.344,0,0,1,68,false,stim,true,2,724,2,0,0,51283,task2,856792,false,true,1171,image-keyboard-response,6
true,11,2,2,1,false,z,false,false,0.0-2.0-0.38-0.345-3.345,0,0,1,68,false,stim,true,2,637,2,0,0,51283,task2,858944,false,false,1174,image-keyboard-response,7
true,11,2,2,1,false,z,false,false,0.0-2.0-0.38-0.346-3.346,0,0,1,68,false,stim,true,2,503,2,0,0,51283,task2,860991,false,false,1177,image-keyboard-response,8
true,11,2,2,0,false,q,true,false,0.0-2.0-0.38-0.347-3.347,0,0,1,68,false,stim,false,1,1556,2,0,1,51283,task2,864083,false,false,1180,image-keyboard-response,9
true,11,2,2,2,true,d,false,true,0.0-2.0-0.38-0.348-3.348,0,0,1,68,false,stim,false,2,1320,2,1,2,51283,task2,866927,false,false,1183,image-keyboard-response,10
true,11,2,2,2,true,d,false,true,0.0-2.0-0.38-0.349-3.349,0,0,1,68,false,stim,false,2,408,2,1,2,51283,task2,868877,false,false,1186,image-keyboard-response,11
true,11,0,2,0,true,q,false,true,0.0-2.0-0.38-0.350-3.350,0,0,1,81,false,stim,false,1,552,2,0,1,51283,task2,870959,false,false,1189,image-keyboard-response,12
true,11,1,2,1,true,z,false,true,0.0-2.0-0.39-0.351-3.351,0,0,1,90,false,stim,false,2,462,2,0,0,51283,task2,872948,false,false,1192,image-keyboard-response,13
true,11,1,2,1,true,z,false,true,0.0-2.0-0.39-0.352-3.352,0,0,1,90,false,stim,false,2,473,2,0,0,51283,task2,874960,false,false,1195,image-keyboard-response,14
true,11,2,2,2,true,d,false,false,0.0-2.0-0.39-0.353-3.353,0,0,1,68,false,stim,false,2,516,2,1,2,51283,task2,877004,false,true,1198,image-keyboard-response,15
true,11,2,2,2,true,d,false,true,0.0-2.0-0.39-0.354-3.354,0,0,1,68,false,stim,false,2,657,2,1,2,51283,task2,879206,false,false,1201,image-keyboard-response,16
true,11,0,2,0,true,q,false,true,0.0-2.0-0.39-0.355-3.355,0,0,1,81,false,stim,false,1,902,2,0,1,51283,task2,881649,false,false,1204,image-keyboard-response,17
true,11,2,2,2,true,d,false,true,0.0-2.0-0.39-0.356-3.356,0,0,1,68,false,stim,false,2,707,2,1,2,51283,task2,883894,false,false,1207,image-keyboard-response,18
true,11,0,2,0,true,q,false,true,0.0-2.0-0.39-0.357-3.357,0,0,1,81,false,stim,false,1,765,2,0,1,51283,task2,886192,false,false,1210,image-keyboard-response,19
true,11,0,2,0,true,q,false,true,0.0-2.0-0.39-0.358-3.358,0,0,1,81,false,stim,false,1,508,2,0,1,51283,task2,888236,false,false,1213,image-keyboard-response,20
true,11,1,2,1,true,z,false,true,0.0-2.0-0.39-0.359-3.359,0,0,1,90,false,stim,false,2,643,2,0,0,51283,task2,890410,false,false,1216,image-keyboard-response,21
true,11,2,2,2,true,d,false,true,0.0-2.0-0.40-0.360-3.360,0,0,1,68,false,stim,false,2,590,2,1,2,51283,task2,892528,false,false,1219,image-keyboard-response,22
true,11,1,2,1,true,z,false,true,0.0-2.0-0.40-0.361-3.361,0,0,1,90,false,stim,false,2,910,2,0,0,51283,task2,894967,false,false,1222,image-keyboard-response,23
true,11,1,2,1,true,z,false,false,0.0-2.0-0.40-0.362-3.362,0,0,1,90,false,stim,false,2,461,2,0,0,51283,task2,896959,false,true,1225,image-keyboard-response,24
true,11,2,2,2,true,d,false,true,0.0-2.0-0.40-0.363-3.363,0,0,1,68,false,stim,false,2,712,2,1,2,51283,task2,899200,false,false,1228,image-keyboard-response,25
true,11,0,2,0,true,q,false,true,0.0-2.0-0.40-0.364-3.364,0,0,1,81,false,stim,false,1,513,2,0,1,51283,task2,901241,false,false,1231,image-keyboard-response,26
true,11,1,2,1,true,z,false,true,0.0-2.0-0.40-0.365-3.365,0,0,1,90,false,stim,false,2,526,2,0,0,51283,task2,903294,false,false,1234,image-keyboard-response,27
true,11,0,2,0,true,q,false,true,0.0-2.0-0.40-0.366-3.366,0,0,1,81,false,stim,false,1,654,2,1,1,51283,task2,905491,false,false,1237,image-keyboard-response,28
true,11,0,2,0,true,q,false,true,0.0-2.0-0.40-0.367-3.367,0,0,1,81,false,stim,false,1,407,2,1,1,51283,task2,907424,false,false,1240,image-keyboard-response,29
true,11,2,2,2,true,d,false,true,0.0-2.0-0.40-0.368-3.368,0,0,1,68,false,stim,false,2,431,2,0,2,51283,task2,909390,false,false,1243,image-keyboard-response,30
true,11,1,2,1,true,z,false,false,0.0-2.0-0.41-0.369-3.369,0,0,1,90,false,stim,false,2,546,2,0,0,51283,task2,911474,false,true,1246,image-keyboard-response,31
true,12,2,2,1,false,z,false,false,0.0-2.0-0.41-0.370-3.370,0,1,0,68,true,stim,true,2,632,2,0,2,51283,task2,913641,false,false,1249,image-keyboard-response,1
true,12,2,2,1,false,z,false,false,0.0-2.0-0.41-0.371-3.371,0,1,0,68,false,stim,true,2,513,2,0,2,51283,task2,915681,false,false,1252,image-keyboard-response,2
true,12,2,2,0,false,q,true,false,0.0-2.0-0.41-0.372-3.372,0,1,0,68,false,stim,false,0,1051,2,1,1,51283,task2,918260,false,false,1255,image-keyboard-response,3
true,12,1,2,1,true,z,false,true,0.0-2.0-0.41-0.373-3.373,0,1,0,90,false,stim,false,2,893,2,0,2,51283,task2,920691,false,false,1258,image-keyboard-response,4
true,12,0,2,2,false,d,true,false,0.0-2.0-0.41-0.374-3.374,0,1,0,81,false,stim,false,1,1050,2,0,0,51283,task2,923267,false,false,1261,image-keyboard-response,5
true,12,1,2,0,false,q,true,true,0.0-2.0-0.41-0.375-3.375,0,1,0,90,false,stim,false,0,660,2,1,1,51283,task2,925456,false,true,1264,image-keyboard-response,6
true,12,2,2,2,true,d,false,true,0.0-2.0-0.41-0.376-3.376,0,1,0,68,false,stim,false,1,428,2,0,0,51283,task2,927426,false,false,1267,image-keyboard-response,7
true,12,1,2,0,false,q,true,false,0.0-2.0-0.41-0.377-3.377,0,1,0,90,false,stim,false,0,709,2,1,1,51283,task2,929666,false,false,1270,image-keyboard-response,8
true,12,1,2,1,true,z,false,true,0.0-2.0-0.42-0.378-3.378,0,1,0,90,false,stim,false,2,533,2,0,2,51283,task2,931730,false,false,1273,image-keyboard-response,9
true,12,2,2,2,true,d,false,true,0.0-2.0-0.42-0.379-3.379,0,1,0,68,false,stim,false,1,583,2,0,0,51283,task2,933841,false,false,1276,image-keyboard-response,10
true,12,1,2,0,false,q,true,false,0.0-2.0-0.42-0.380-3.380,0,1,0,90,false,stim,false,0,765,2,1,1,51283,task2,936142,false,false,1279,image-keyboard-response,11
true,12,1,2,0,false,q,true,true,0.0-2.0-0.42-0.381-3.381,0,1,0,90,false,stim,false,0,411,2,1,1,51283,task2,938079,false,true,1282,image-keyboard-response,12
true,12,1,2,1,true,z,false,true,0.0-2.0-0.42-0.382-3.382,0,1,0,90,false,stim,false,2,472,2,0,2,51283,task2,940081,false,false,1285,image-keyboard-response,13
true,12,1,2,1,true,z,false,true,0.0-2.0-0.42-0.383-3.383,0,1,0,90,false,stim,false,2,478,2,0,2,51283,task2,942086,false,false,1288,image-keyboard-response,14
true,12,2,2,2,true,d,false,true,0.0-2.0-0.42-0.384-3.384,0,1,0,68,false,stim,false,1,705,2,0,0,51283,task2,944333,false,false,1291,image-keyboard-response,15
true,12,2,2,2,true,d,false,true,0.0-2.0-0.42-0.385-3.385,0,1,0,68,false,stim,false,1,412,2,0,0,51283,task2,946280,false,false,1294,image-keyboard-response,16
true,12,1,2,0,false,q,true,false,0.0-2.0-0.42-0.386-3.386,0,1,0,90,false,stim,false,0,615,2,1,1,51283,task2,948424,false,false,1297,image-keyboard-response,17
true,12,1,2,1,true,z,false,true,0.0-2.0-0.43-0.387-3.387,0,1,0,90,false,stim,false,2,899,2,0,2,51283,task2,950848,false,false,1300,image-keyboard-response,18
true,12,1,2,0,false,q,true,false,0.0-2.0-0.43-0.388-3.388,0,1,0,90,false,stim,false,0,525,2,1,1,51283,task2,952923,false,false,1303,image-keyboard-response,19
true,12,0,2,0,true,q,false,true,0.0-2.0-0.43-0.389-3.389,0,1,0,81,false,stim,false,0,442,2,1,1,51283,task2,954889,false,false,1306,image-keyboard-response,20
true,12,2,2,2,true,d,false,true,0.0-2.0-0.43-0.390-3.390,0,1,0,68,false,stim,false,1,828,2,0,0,51283,task2,957246,false,false,1309,image-keyboard-response,21
true,12,2,2,2,true,d,false,true,0.0-2.0-0.43-0.391-3.391,0,1,0,68,false,stim,false,1,659,2,0,0,51283,task2,959437,false,false,1312,image-keyboard-response,22
true,12,1,2,1,true,z,false,true,0.0-2.0-0.43-0.392-3.392,0,1,0,90,false,stim,false,2,524,2,0,2,51283,task2,961491,false,false,1315,image-keyboard-response,23
true,12,1,2,1,true,z,false,true,0.0-2.0-0.43-0.393-3.393,0,1,0,90,false,stim,false,2,387,2,0,2,51283,task2,963416,false,false,1318,image-keyboard-response,24
true,12,0,2,2,false,d,true,false,0.0-2.0-0.43-0.394-3.394,0,1,0,81,false,stim,false,1,795,2,0,0,51283,task2,965742,false,false,1321,image-keyboard-response,25
true,12,0,2,0,true,q,false,true,0.0-2.0-0.43-0.395-3.395,0,1,0,81,false,stim,false,0,767,2,1,1,51283,task2,968025,false,false,1324,image-keyboard-response,26
true,12,2,2,2,true,d,false,true,0.0-2.0-0.44-0.396-3.396,0,1,0,68,false,stim,false,1,541,2,0,0,51283,task2,970099,false,false,1327,image-keyboard-response,27
true,12,0,2,0,true,q,false,true,0.0-2.0-0.44-0.397-3.397,0,1,0,81,false,stim,false,0,634,2,1,1,51283,task2,972264,false,false,1330,image-keyboard-response,28
true,12,0,2,0,true,q,false,true,0.0-2.0-0.44-0.398-3.398,0,1,0,81,false,stim,false,0,1396,2,1,1,51283,task2,975185,false,false,1333,image-keyboard-response,29
true,12,0,2,0,true,q,false,true,0.0-2.0-0.44-0.399-3.399,0,1,0,81,false,stim,false,0,517,2,0,1,51283,task2,977245,false,false,1336,image-keyboard-response,30
true,12,1,2,1,true,z,false,true,0.0-2.0-0.44-0.400-3.400,0,1,0,90,false,stim,false,2,753,2,0,2,51283,task2,979541,false,false,1339,image-keyboard-response,31
true,12,1,2,1,true,z,false,true,0.0-2.0-0.44-0.401-3.401,0,1,0,90,false,stim,false,2,813,2,0,2,51283,task2,981879,false,false,1342,image-keyboard-response,32
true,12,2,2,2,true,d,false,true,0.0-2.0-0.44-0.402-3.402,0,1,0,68,false,stim,false,1,1083,2,1,0,51283,task2,984502,false,false,1345,image-keyboard-response,33
true,12,0,2,1,false,z,true,false,0.0-2.0-0.44-0.403-3.403,0,1,0,81,false,stim,false,2,890,2,0,2,51283,task2,986929,false,false,1348,image-keyboard-response,34
true,13,2,2,2,true,d,false,false,0.0-2.0-0.44-0.404-3.404,1,0,0,68,true,stim,false,2,1120,2,1,0,51283,task2,989568,false,true,1351,image-keyboard-response,1
true,13,2,2,2,true,d,false,false,0.0-2.0-0.45-0.405-3.405,1,0,0,68,false,stim,false,2,510,2,1,0,51283,task2,991618,false,true,1354,image-keyboard-response,2
true,13,2,2,0,false,q,true,false,0.0-2.0-0.45-0.406-3.406,1,0,0,68,false,stim,false,1,2549,2,0,2,51283,task2,995696,false,false,1357,image-keyboard-response,3
true,13,0,2,1,false,z,false,false,0.0-2.0-0.45-0.407-3.407,1,0,0,81,false,stim,true,0,850,2,0,1,51283,task2,998075,false,false,1360,image-keyboard-response,4
true,13,1,2,0,false,q,false,false,0.0-2.0-0.45-0.408-3.408,1,0,0,90,false,stim,true,1,841,2,0,2,51283,task2,1000448,false,false,1363,image-keyboard-response,5
true,13,2,2,1,false,z,true,true,0.0-2.0-0.45-0.409-3.409,1,0,0,68,false,stim,false,0,646,2,0,1,51283,task2,1002632,false,true,1366,image-keyboard-response,6
true,13,1,2,2,false,d,true,false,0.0-2.0-0.45-0.410-3.410,1,0,0,90,false,stim,false,2,717,2,1,0,51283,task2,1004885,false,false,1369,image-keyboard-response,7
true,13,0,2,2,false,d,true,false,0.0-2.0-0.45-0.411-3.411,1,0,0,81,false,stim,false,2,604,2,1,0,51283,task2,1007032,false,false,1372,image-keyboard-response,8
true,13,2,2,0,false,q,true,false,0.0-2.0-0.45-0.412-3.412,1,0,0,68,false,stim,false,1,691,2,0,2,51283,task2,1009259,false,false,1375,image-keyboard-response,9
true,13,1,2,1,true,z,false,false,0.0-2.0-0.45-0.413-3.413,1,0,0,90,false,stim,false,0,700,2,0,1,51283,task2,1011498,false,true,1378,image-keyboard-response,10
true,13,0,2,0,true,q,false,true,0.0-2.0-0.46-0.414-3.414,1,0,0,81,false,stim,false,1,1361,2,0,2,51283,task2,1014398,false,false,1381,image-keyboard-response,11
true,13,0,2,2,false,d,true,false,0.0-2.0-0.46-0.415-3.415,1,0,0,81,false,stim,false,2,503,2,1,0,51283,task2,1016441,false,false,1384,image-keyboard-response,12
true,13,0,2,1,false,z,false,false,0.0-2.0-0.46-0.416-3.416,1,0,0,81,false,stim,true,0,551,2,0,1,51283,task2,1018530,false,false,1387,image-keyboard-response,13
true,13,1,2,2,false,d,true,false,0.0-2.0-0.46-0.417-3.417,1,0,0,90,false,stim,false,2,802,2,1,0,51283,task2,1020850,false,false,1390,image-keyboard-response,14
true,13,0,2,0,true,q,false,true,0.0-2.0-0.46-0.418-3.418,1,0,0,81,false,stim,false,1,799,2,0,2,51283,task2,1023187,false,false,1393,image-keyboard-response,15
true,13,2,2,1,false,z,true,false,0.0-2.0-0.46-0.419-3.419,1,0,0,68,false,stim,false,0,495,2,0,1,51283,task2,1025215,false,false,1396,image-keyboard-response,16
true,13,2,2,2,true,d,false,true,0.0-2.0-0.46-0.420-3.420,1,0,0,68,false,stim,false,2,695,2,1,0,51283,task2,1027454,false,false,1399,image-keyboard-response,17
true,13,1,2,1,true,z,false,true,0.0-2.0-0.46-0.421-3.421,1,0,0,90,false,stim,false,0,852,2,0,1,51283,task2,1029869,false,false,1402,image-keyboard-response,18
true,13,0,2,0,true,q,false,true,0.0-2.0-0.46-0.422-3.422,1,0,0,81,false,stim,false,1,602,2,0,2,51283,task2,1032000,false,false,1405,image-keyboard-response,19
true,13,0,2,0,true,q,false,false,0.0-2.0-0.47-0.423-3.423,1,0,0,81,false,stim,false,1,662,2,0,2,51283,task2,1034190,false,true,1408,image-keyboard-response,20
true,13,2,2,2,true,d,false,false,0.0-2.0-0.47-0.424-3.424,1,0,0,68,false,stim,false,2,1168,2,1,0,51283,task2,1036896,false,true,1411,image-keyboard-response,21
true,13,2,2,2,true,d,false,false,0.0-2.0-0.47-0.425-3.425,1,0,0,68,false,stim,false,2,746,2,1,0,51283,task2,1039168,false,true,1414,image-keyboard-response,22
true,13,0,2,0,true,q,false,true,0.0-2.0-0.47-0.426-3.426,1,0,0,81,false,stim,false,1,729,2,0,2,51283,task2,1041436,false,false,1417,image-keyboard-response,23
true,13,2,2,1,false,z,true,false,0.0-2.0-0.47-0.427-3.427,1,0,0,68,false,stim,false,0,409,2,0,1,51283,task2,1043378,false,false,1420,image-keyboard-response,24
true,13,1,2,1,true,z,false,true,0.0-2.0-0.47-0.428-3.428,1,0,0,90,false,stim,false,0,314,2,0,1,51283,task2,1045223,false,false,1423,image-keyboard-response,25
true,13,2,2,2,true,d,false,true,0.0-2.0-0.47-0.429-3.429,1,0,0,68,false,stim,false,2,1143,2,1,0,51283,task2,1047891,false,false,1426,image-keyboard-response,26
true,13,1,2,1,true,z,false,true,0.0-2.0-0.47-0.430-3.430,1,0,0,90,false,stim,false,0,515,2,0,1,51283,task2,1049931,false,false,1429,image-keyboard-response,27
true,13,0,2,0,true,q,false,true,0.0-2.0-0.47-0.431-3.431,1,0,0,81,false,stim,false,1,462,2,1,2,51283,task2,1051921,false,false,1432,image-keyboard-response,28
true,13,1,2,1,true,z,false,true,0.0-2.0-0.48-0.432-3.432,1,0,0,90,false,stim,false,0,932,2,0,1,51283,task2,1054389,false,false,1435,image-keyboard-response,29
true,13,2,2,2,true,d,false,true,0.0-2.0-0.48-0.433-3.433,1,0,0,68,false,stim,false,2,1059,2,0,0,51283,task2,1056978,false,false,1438,image-keyboard-response,30
true,13,0,2,0,true,q,false,true,0.0-2.0-0.48-0.434-3.434,1,0,0,81,false,stim,false,1,601,2,1,2,51283,task2,1059119,false,false,1441,image-keyboard-response,31
true,14,0,2,0,true,q,false,true,0.0-2.0-0.48-0.435-3.435,0,0,1,81,true,stim,false,0,495,2,1,2,51283,task2,1061152,false,false,1444,image-keyboard-response,1
true,14,1,2,0,false,q,false,false,0.0-2.0-0.48-0.436-3.436,0,0,1,90,false,stim,true,1,984,2,0,1,51283,task2,1063662,false,false,1447,image-keyboard-response,2
true,14,2,2,1,false,z,false,true,0.0-2.0-0.48-0.437-3.437,0,0,1,68,false,stim,true,2,1225,2,0,0,51283,task2,1066423,false,true,1450,image-keyboard-response,3
true,14,1,2,0,false,q,false,false,0.0-2.0-0.48-0.438-3.438,0,0,1,90,false,stim,true,1,495,2,0,1,51283,task2,1068454,false,false,1453,image-keyboard-response,4
true,14,2,2,1,false,z,false,false,0.0-2.0-0.48-0.439-3.439,0,0,1,68,false,stim,true,2,625,2,0,0,51283,task2,1070604,false,false,1456,image-keyboard-response,5
true,14,0,2,0,true,q,false,true,0.0-2.0-0.48-0.440-3.440,0,0,1,81,false,stim,false,0,670,2,1,2,51283,task2,1072807,false,false,1459,image-keyboard-response,6
true,14,2,2,0,false,q,true,false,0.0-2.0-0.49-0.441-3.441,0,0,1,68,false,stim,false,1,541,2,0,1,51283,task2,1074879,false,false,1462,image-keyboard-response,7
true,14,0,2,0,true,q,false,false,0.0-2.0-0.49-0.442-3.442,0,0,1,81,false,stim,false,0,993,2,1,2,51283,task2,1077411,false,true,1465,image-keyboard-response,8
true,14,1,2,0,false,q,false,false,0.0-2.0-0.49-0.443-3.443,0,0,1,90,false,stim,true,1,898,2,0,1,51283,task2,1079836,false,false,1468,image-keyboard-response,9
true,14,0,2,0,true,q,false,false,0.0-2.0-0.49-0.444-3.444,0,0,1,81,false,stim,false,1,421,2,0,1,51283,task2,1081799,false,true,1471,image-keyboard-response,10
true,14,2,2,0,false,q,true,false,0.0-2.0-0.49-0.445-3.445,0,0,1,68,false,stim,false,0,971,2,1,2,51283,task2,1084308,false,false,1474,image-keyboard-response,11
true,14,2,2,1,false,z,false,false,0.0-2.0-0.49-0.446-3.446,0,0,1,68,false,stim,true,2,672,2,0,0,51283,task2,1086510,false,false,1477,image-keyboard-response,12
true,14,1,2,0,false,q,true,false,0.0-2.0-0.49-0.447-3.447,0,0,1,90,false,stim,false,0,433,2,1,2,51283,task2,1088472,false,false,1480,image-keyboard-response,13
true,14,1,2,1,true,z,false,true,0.0-2.0-0.49-0.448-3.448,0,0,1,90,false,stim,false,2,603,2,0,0,51283,task2,1090612,false,false,1483,image-keyboard-response,14
true,14,1,2,1,true,z,false,true,0.0-2.0-0.49-0.449-3.449,0,0,1,90,false,stim,false,2,442,2,0,0,51283,task2,1092589,false,false,1486,image-keyboard-response,15
true,14,1,2,1,true,z,false,false,0.0-2.0-0.50-0.450-3.450,0,0,1,90,false,stim,false,2,347,2,0,0,51283,task2,1094475,false,true,1489,image-keyboard-response,16
true,14,0,2,0,true,q,false,true,0.0-2.0-0.50-0.451-3.451,0,0,1,81,false,stim,false,0,654,2,1,2,51283,task2,1096662,false,false,1492,image-keyboard-response,17
true,14,1,2,1,true,z,false,true,0.0-2.0-0.50-0.452-3.452,0,0,1,90,false,stim,false,2,426,2,0,0,51283,task2,1098622,false,false,1495,image-keyboard-response,18
true,14,2,2,0,false,q,true,false,0.0-2.0-0.50-0.453-3.453,0,0,1,68,false,stim,false,1,1585,2,0,1,51283,task2,1101733,false,false,1498,image-keyboard-response,19
true,14,1,2,0,false,q,false,false,0.0-2.0-0.50-0.454-3.454,0,0,1,90,false,stim,true,1,311,2,0,1,51283,task2,1103602,false,false,1501,image-keyboard-response,20
true,14,0,2,0,true,q,false,true,0.0-2.0-0.50-0.455-3.455,0,0,1,81,false,stim,false,1,430,2,0,1,51283,task2,1105559,false,false,1504,image-keyboard-response,21
true,14,0,2,0,true,q,false,true,0.0-2.0-0.50-0.456-3.456,0,0,1,81,false,stim,false,0,444,2,1,2,51283,task2,1107520,false,false,1507,image-keyboard-response,22
true,14,1,2,1,true,z,false,true,0.0-2.0-0.50-0.457-3.457,0,0,1,90,false,stim,false,2,412,2,0,0,51283,task2,1109470,false,false,1510,image-keyboard-response,23
true,14,0,2,0,true,q,false,true,0.0-2.0-0.50-0.458-3.458,0,0,1,81,false,stim,false,0,649,2,1,2,51283,task2,1111647,false,false,1513,image-keyboard-response,24
true,14,0,2,0,true,q,false,true,0.0-2.0-0.51-0.459-3.459,0,0,1,81,false,stim,false,1,455,2,0,1,51283,task2,1113634,false,false,1516,image-keyboard-response,25
true,14,0,2,0,true,q,false,true,0.0-2.0-0.51-0.460-3.460,0,0,1,81,false,stim,false,1,372,2,0,1,51283,task2,1115549,false,false,1519,image-keyboard-response,26
true,14,0,2,0,true,q,false,true,0.0-2.0-0.51-0.461-3.461,0,0,1,81,false,stim,false,1,435,2,0,1,51283,task2,1117501,false,false,1522,image-keyboard-response,27
true,14,1,2,1,true,z,false,true,0.0-2.0-0.51-0.462-3.462,0,0,1,90,false,stim,false,2,413,2,1,0,51283,task2,1119441,false,false,1525,image-keyboard-response,28
true,14,0,2,0,true,q,false,true,0.0-2.0-0.51-0.463-3.463,0,0,1,81,false,stim,false,0,801,2,0,2,51283,task2,1121769,false,false,1528,image-keyboard-response,29
true,14,0,2,0,true,q,false,true,0.0-2.0-0.51-0.464-3.464,0,0,1,81,false,stim,false,0,462,2,0,2,51283,task2,1123772,false,false,1531,image-keyboard-response,30
true,14,1,2,1,true,z,false,true,0.0-2.0-0.51-0.465-3.465,0,0,1,90,false,stim,false,2,1142,2,1,0,51283,task2,1126439,false,false,1534,image-keyboard-response,31
true,14,1,2,1,true,z,false,false,0.0-2.0-0.51-0.466-3.466,0,0,1,90,false,stim,false,2,372,2,1,0,51283,task2,1128350,false,true,1537,image-keyboard-response,32
true,15,0,2,2,false,d,false,true,0.0-2.0-0.51-0.467-3.467,1,0,0,81,true,stim,true,0,520,2,0,2,51283,task2,1130408,false,true,1540,image-keyboard-response,1
true,15,1,2,1,true,z,false,true,0.0-2.0-0.52-0.468-3.468,1,0,0,90,false,stim,false,1,462,2,1,0,51283,task2,1132410,false,false,1543,image-keyboard-response,2
true,15,1,2,1,true,z,false,true,0.0-2.0-0.52-0.469-3.469,1,0,0,90,false,stim,false,1,420,2,1,0,51283,task2,1134368,false,false,1546,image-keyboard-response,3
true,15,0,2,2,false,d,false,false,0.0-2.0-0.52-0.470-3.470,1,0,0,81,false,stim,true,0,966,2,0,1,51283,task2,1136872,false,false,1549,image-keyboard-response,4
true,15,1,2,2,false,d,true,false,0.0-2.0-0.52-0.471-3.471,1,0,0,90,false,stim,false,0,518,2,0,2,51283,task2,1138924,false,false,1552,image-keyboard-response,5
true,15,1,2,2,false,d,true,false,0.0-2.0-0.52-0.472-3.472,1,0,0,90,false,stim,false,0,489,2,0,1,51283,task2,1140956,false,false,1555,image-keyboard-response,6
true,15,0,2,2,false,d,false,false,0.0-2.0-0.52-0.473-3.473,1,0,0,81,false,stim,true,0,696,2,0,1,51283,task2,1143184,false,false,1558,image-keyboard-response,7
true,15,2,2,1,false,z,true,false,0.0-2.0-0.52-0.474-3.474,1,0,0,68,false,stim,false,1,800,2,1,0,51283,task2,1145517,false,false,1561,image-keyboard-response,8
true,15,2,2,2,true,d,false,true,0.0-2.0-0.52-0.475-3.475,1,0,0,68,false,stim,false,0,1281,2,0,2,51283,task2,1148338,false,false,1564,image-keyboard-response,9
true,15,2,2,2,true,d,false,true,0.0-2.0-0.52-0.476-3.476,1,0,0,68,false,stim,false,0,391,2,0,2,51283,task2,1150270,false,false,1567,image-keyboard-response,10
true,15,2,2,1,false,z,true,false,0.0-2.0-0.53-0.477-3.477,1,0,0,68,false,stim,false,1,883,2,1,0,51283,task2,1152677,false,false,1570,image-keyboard-response,11
true,15,2,2,2,true,d,false,true,0.0-2.0-0.53-0.478-3.478,1,0,0,68,false,stim,false,0,416,2,0,1,51283,task2,1154635,false,false,1573,image-keyboard-response,12
true,15,2,2,2,true,d,false,true,0.0-2.0-0.53-0.479-3.479,1,0,0,68,false,stim,false,0,461,2,0,2,51283,task2,1156630,false,false,1576,image-keyboard-response,13
true,15,0,2,1,false,z,true,false,0.0-2.0-0.53-0.480-3.480,1,0,0,81,false,stim,false,1,716,2,1,0,51283,task2,1158885,false,false,1579,image-keyboard-response,14
true,15,2,2,2,true,d,false,true,0.0-2.0-0.53-0.481-3.481,1,0,0,68,false,stim,false,0,538,2,0,1,51283,task2,1160971,false,false,1582,image-keyboard-response,15
true,15,2,2,2,true,d,false,false,0.0-2.0-0.53-0.482-3.482,1,0,0,68,false,stim,false,0,350,2,0,2,51283,task2,1162858,false,true,1585,image-keyboard-response,16
true,15,2,2,2,true,d,false,false,0.0-2.0-0.53-0.483-3.483,1,0,0,68,false,stim,false,0,519,2,0,2,51283,task2,1164907,false,true,1588,image-keyboard-response,17
true,15,2,2,2,true,d,false,true,0.0-2.0-0.53-0.484-3.484,1,0,0,68,false,stim,false,0,614,2,0,1,51283,task2,1167052,false,false,1591,image-keyboard-response,18
true,15,1,2,1,true,z,false,true,0.0-2.0-0.53-0.485-3.485,1,0,0,90,false,stim,false,1,1019,2,1,0,51283,task2,1169597,false,false,1594,image-keyboard-response,19
true,15,0,2,2,false,d,false,false,0.0-2.0-0.54-0.486-3.486,1,0,0,81,false,stim,true,0,545,2,0,2,51283,task2,1171683,false,false,1597,image-keyboard-response,20
true,15,1,2,1,true,z,false,true,0.0-2.0-0.54-0.487-3.487,1,0,0,90,false,stim,false,1,451,2,1,0,51283,task2,1173679,false,false,1600,image-keyboard-response,21
true,15,1,2,2,false,d,true,false,0.0-2.0-0.54-0.488-3.488,1,0,0,90,false,stim,false,0,304,2,0,2,51283,task2,1175552,false,false,1603,image-keyboard-response,22
true,15,1,2,1,true,z,false,true,0.0-2.0-0.54-0.489-3.489,1,0,0,90,false,stim,false,1,772,2,1,0,51283,task2,1177862,false,false,1606,image-keyboard-response,23
true,15,1,2,2,false,d,true,false,0.0-2.0-0.54-0.490-3.490,1,0,0,90,false,stim,false,0,918,2,0,2,51283,task2,1180307,false,false,1609,image-keyboard-response,24
true,15,1,2,1,true,z,false,true,0.0-2.0-0.54-0.491-3.491,1,0,0,90,false,stim,false,1,524,2,1,0,51283,task2,1182361,false,false,1612,image-keyboard-response,25
true,15,2,2,2,true,d,false,true,0.0-2.0-0.54-0.492-3.492,1,0,0,68,false,stim,false,0,534,2,0,1,51283,task2,1184421,false,false,1615,image-keyboard-response,26
true,15,2,2,2,true,d,false,true,0.0-2.0-0.54-0.493-3.493,1,0,0,68,false,stim,false,0,466,2,0,1,51283,task2,1186403,false,false,1618,image-keyboard-response,27
true,15,2,2,2,true,d,false,true,0.0-2.0-0.54-0.494-3.494,1,0,0,68,false,stim,false,0,498,2,1,1,51283,task2,1188426,false,false,1621,image-keyboard-response,28
true,15,2,2,2,true,d,false,true,0.0-2.0-0.55-0.495-3.495,1,0,0,68,false,stim,false,0,352,2,1,2,51283,task2,1190321,false,false,1624,image-keyboard-response,29
true,15,1,2,1,true,z,false,true,0.0-2.0-0.55-0.496-3.496,1,0,0,90,false,stim,false,1,568,2,1,0,51283,task2,1192418,false,false,1627,image-keyboard-response,30
true,15,2,2,2,true,d,false,true,0.0-2.0-0.55-0.497-3.497,1,0,0,68,false,stim,false,0,531,2,1,2,51283,task2,1194489,false,false,1630,image-keyboard-response,31
true,15,1,2,1,true,z,false,true,0.0-2.0-0.55-0.498-3.498,1,0,0,90,false,stim,false,1,531,2,1,0,51283,task2,1196549,false,false,1633,image-keyboard-response,32
true,16,1,0,2,false,d,true,false,0.0-2.0-0.55-0.499-3.499,1,1,1,90,true,stim,false,2,2076,2,1,2,51283,task2,1322344,false,false,1756,image-keyboard-response,1
true,16,2,0,2,true,d,false,false,0.0-2.0-0.55-0.500-3.500,1,1,1,68,false,stim,false,2,1669,2,1,1,51283,task2,1325557,false,true,1759,image-keyboard-response,2
true,16,0,0,2,false,d,true,false,0.0-2.0-0.55-0.501-3.501,1,1,1,81,false,stim,false,2,2218,2,1,1,51283,task2,1329318,false,false,1762,image-keyboard-response,3
true,16,2,0,2,true,d,false,true,0.0-2.0-0.55-0.502-3.502,1,1,1,68,false,stim,false,2,641,2,1,1,51283,task2,1331490,false,false,1765,image-keyboard-response,4
true,16,1,0,1,true,z,false,true,0.0-2.0-0.55-0.503-3.503,1,1,1,90,false,stim,false,1,859,2,1,0,51283,task2,1333887,false,false,1768,image-keyboard-response,5
true,16,0,0,2,false,d,true,false,0.0-2.0-0.56-0.504-3.504,1,1,1,81,false,stim,false,2,480,2,1,2,51283,task2,1335908,false,false,1771,image-keyboard-response,6
true,16,2,0,2,true,d,false,true,0.0-2.0-0.56-0.505-3.505,1,1,1,68,false,stim,false,2,840,2,1,1,51283,task2,1338279,false,false,1774,image-keyboard-response,7
true,16,2,0,2,true,d,false,true,0.0-2.0-0.56-0.506-3.506,1,1,1,68,false,stim,false,2,554,2,1,2,51283,task2,1340352,false,false,1777,image-keyboard-response,8
true,16,2,0,2,true,d,false,true,0.0-2.0-0.56-0.507-3.507,1,1,1,68,false,stim,false,2,393,2,0,2,51283,task2,1342272,false,false,1780,image-keyboard-response,9
true,16,1,0,1,true,z,false,true,0.0-2.0-0.56-0.508-3.508,1,1,1,90,false,stim,false,1,426,2,0,0,51283,task2,1344226,false,false,1783,image-keyboard-response,10
true,16,1,0,1,true,z,false,true,0.0-2.0-0.56-0.509-3.509,1,1,1,90,false,stim,false,1,519,2,0,0,51283,task2,1346268,false,false,1786,image-keyboard-response,11
true,16,2,0,2,true,d,false,true,0.0-2.0-0.56-0.510-3.510,1,1,1,68,false,stim,false,2,473,2,0,1,51283,task2,1348276,false,false,1789,image-keyboard-response,12
true,16,2,0,2,true,d,false,true,0.0-2.0-0.56-0.511-3.511,1,1,1,68,false,stim,false,2,353,2,0,1,51283,task2,1350173,false,false,1792,image-keyboard-response,13
true,17,1,1,0,false,q,false,false,0.0-2.0-0.56-0.512-3.512,0,0,0,90,true,stim,true,1,513,2,0,0,51283,task2,1352213,false,false,1795,image-keyboard-response,1
true,17,2,1,1,false,z,false,false,0.0-2.0-0.57-0.513-3.513,0,0,0,68,false,stim,true,2,395,2,0,1,51283,task2,1354133,false,false,1798,image-keyboard-response,2
true,17,2,1,1,false,z,false,false,0.0-2.0-0.57-0.514-3.514,0,0,0,68,false,stim,true,2,525,2,0,1,51283,task2,1356209,false,false,1801,image-keyboard-response,3
true,17,2,1,0,false,q,true,false,0.0-2.0-0.57-0.515-3.515,0,0,0,68,false,stim,false,1,1249,2,0,0,51283,task2,1358982,false,false,1804,image-keyboard-response,4
true,17,1,1,1,true,z,false,true,0.0-2.0-0.57-0.516-3.516,0,0,0,90,false,stim,false,2,984,2,0,1,51283,task2,1361492,false,false,1807,image-keyboard-response,5
true,17,1,1,1,true,z,false,true,0.0-2.0-0.57-0.517-3.517,0,0,0,90,false,stim,false,2,898,2,0,2,51283,task2,1363927,false,false,1810,image-keyboard-response,6
true,17,0,1,0,true,q,false,false,0.0-2.0-0.57-0.518-3.518,0,0,0,81,false,stim,false,1,436,2,0,0,51283,task2,1365905,false,true,1813,image-keyboard-response,7
true,17,1,1,0,false,q,false,false,0.0-2.0-0.57-0.519-3.519,0,0,0,90,false,stim,true,1,431,2,0,0,51283,task2,1367879,false,false,1816,image-keyboard-response,8
true,17,1,1,1,true,z,false,true,0.0-2.0-0.57-0.520-3.520,0,0,0,90,false,stim,false,2,476,2,0,2,51283,task2,1369884,false,false,1819,image-keyboard-response,9
true,17,1,1,1,true,z,false,true,0.0-2.0-0.57-0.521-3.521,0,0,0,90,false,stim,false,2,377,2,0,2,51283,task2,1371806,false,false,1822,image-keyboard-response,10
true,17,1,1,1,true,z,false,true,0.0-2.0-0.58-0.522-3.522,0,0,0,90,false,stim,false,2,399,2,0,2,51283,task2,1373747,false,false,1825,image-keyboard-response,11
true,17,1,1,1,true,z,false,true,0.0-2.0-0.58-0.523-3.523,0,0,0,90,false,stim,false,2,383,2,0,2,51283,task2,1375671,false,false,1828,image-keyboard-response,12
true,17,2,1,0,false,q,true,false,0.0-2.0-0.58-0.524-3.524,0,0,0,68,false,stim,false,1,424,2,0,0,51283,task2,1377613,false,false,1831,image-keyboard-response,13
true,17,1,1,1,true,z,false,true,0.0-2.0-0.58-0.525-3.525,0,0,0,90,false,stim,false,2,649,2,0,1,51283,task2,1379786,false,false,1834,image-keyboard-response,14
true,17,1,1,1,true,z,false,true,0.0-2.0-0.58-0.526-3.526,0,0,0,90,false,stim,false,2,277,2,0,1,51283,task2,1381585,false,false,1837,image-keyboard-response,15
true,17,2,1,0,false,q,true,true,0.0-2.0-0.58-0.527-3.527,0,0,0,68,false,stim,false,1,784,2,0,0,51283,task2,1383913,false,true,1840,image-keyboard-response,16
true,17,1,1,1,true,z,false,true,0.0-2.0-0.58-0.528-3.528,0,0,0,90,false,stim,false,2,671,2,0,2,51283,task2,1386115,false,false,1843,image-keyboard-response,17
true,17,1,1,1,true,z,false,true,0.0-2.0-0.58-0.529-3.529,0,0,0,90,false,stim,false,2,393,2,0,1,51283,task2,1388025,false,false,1846,image-keyboard-response,18
true,17,2,1,0,false,q,true,false,0.0-2.0-0.58-0.530-3.530,0,0,0,68,false,stim,false,1,599,2,0,0,51283,task2,1390152,false,false,1849,image-keyboard-response,19
true,17,1,1,1,true,z,false,true,0.0-2.0-0.59-0.531-3.531,0,0,0,90,false,stim,false,2,658,2,0,1,51283,task2,1392328,false,false,1852,image-keyboard-response,20
true,17,0,1,0,true,q,false,true,0.0-2.0-0.59-0.532-3.532,0,0,0,81,false,stim,false,1,738,2,0,0,51283,task2,1394596,false,false,1855,image-keyboard-response,21
true,17,0,1,0,true,q,false,true,0.0-2.0-0.59-0.533-3.533,0,0,0,81,false,stim,false,1,535,2,0,0,51283,task2,1396673,false,false,1858,image-keyboard-response,22
true,17,1,1,1,true,z,false,true,0.0-2.0-0.59-0.534-3.534,0,0,0,90,false,stim,false,2,444,2,0,2,51283,task2,1398642,false,false,1861,image-keyboard-response,23
true,17,0,1,0,true,q,false,true,0.0-2.0-0.59-0.535-3.535,0,0,0,81,false,stim,false,1,661,2,0,0,51283,task2,1400839,false,false,1864,image-keyboard-response,24
true,17,1,1,1,true,z,false,false,0.0-2.0-0.59-0.536-3.536,0,0,0,90,false,stim,false,2,331,2,0,2,51283,task2,1402709,false,true,1867,image-keyboard-response,25
true,17,1,1,1,true,z,false,true,0.0-2.0-0.59-0.537-3.537,0,0,0,90,false,stim,false,2,457,2,0,1,51283,task2,1404696,false,false,1870,image-keyboard-response,26
true,17,1,1,1,true,z,false,true,0.0-2.0-0.59-0.538-3.538,0,0,0,90,false,stim,false,2,428,2,0,1,51283,task2,1406657,false,false,1873,image-keyboard-response,27
true,17,1,1,1,true,z,false,true,0.0-2.0-0.59-0.539-3.539,0,0,0,90,false,stim,false,2,468,2,0,2,51283,task2,1408667,false,false,1876,image-keyboard-response,28
true,17,1,1,1,true,z,false,true,0.0-2.0-0.60-0.540-3.540,0,0,0,90,false,stim,false,2,445,2,0,1,51283,task2,1410641,false,false,1879,image-keyboard-response,29
true,17,1,1,1,true,z,false,false,0.0-2.0-0.60-0.541-3.541,0,0,0,90,false,stim,false,2,534,2,0,2,51283,task2,1412713,false,true,1882,image-keyboard-response,30
true,17,1,1,0,false,q,false,false,0.0-2.0-0.60-0.542-3.542,0,0,0,90,false,stim,true,1,523,2,0,0,51283,task2,1414761,false,false,1885,image-keyboard-response,31
true,17,0,1,0,true,q,false,true,0.0-2.0-0.60-0.543-3.543,0,0,0,81,false,stim,false,1,395,2,0,0,51283,task2,1416682,false,false,1888,image-keyboard-response,32
true,17,1,1,1,true,z,false,true,0.0-2.0-0.60-0.544-3.544,0,0,0,90,false,stim,false,2,593,2,0,1,51283,task2,1418800,false,false,1891,image-keyboard-response,33
true,17,1,1,1,true,z,false,true,0.0-2.0-0.60-0.545-3.545,0,0,0,90,false,stim,false,2,425,2,0,1,51283,task2,1420751,false,false,1894,image-keyboard-response,34
true,17,2,1,1,false,z,false,false,0.0-2.0-0.60-0.546-3.546,0,0,0,68,false,stim,true,2,413,2,0,2,51283,task2,1422692,false,false,1897,image-keyboard-response,35
true,17,0,1,0,true,q,false,true,0.0-2.0-0.60-0.547-3.547,0,0,0,81,false,stim,false,1,629,2,0,0,51283,task2,1424844,false,false,1900,image-keyboard-response,36
true,18,1,1,0,false,q,false,false,0.0-2.0-0.60-0.548-3.548,0,0,0,90,true,stim,true,1,425,2,0,2,51283,task2,1426821,false,false,1903,image-keyboard-response,1
true,18,0,1,0,true,q,false,true,0.0-2.0-0.61-0.549-3.549,0,0,0,81,false,stim,false,1,363,2,0,2,51283,task2,1428721,false,false,1906,image-keyboard-response,2
true,18,1,1,2,false,d,false,false,0.0-2.0-0.61-0.550-3.550,0,0,0,90,false,stim,true,1,615,2,0,1,51283,task2,1430874,false,false,1909,image-keyboard-response,3
true,18,0,1,0,true,q,false,true,0.0-2.0-0.61-0.551-3.551,0,0,0,81,false,stim,false,1,1253,2,0,2,51283,task2,1433652,false,false,1912,image-keyboard-response,4
true,18,1,1,0,false,q,false,false,0.0-2.0-0.61-0.552-3.552,0,0,0,90,false,stim,true,1,523,2,0,2,51283,task2,1435711,false,false,1915,image-keyboard-response,5
true,18,0,1,2,false,d,false,false,0.0-2.0-0.61-0.553-3.553,0,0,0,81,false,stim,true,0,357,2,0,0,51283,task2,1437604,false,false,1918,image-keyboard-response,6
true,18,0,1,2,false,d,false,false,0.0-2.0-0.61-0.554-3.554,0,0,0,81,false,stim,true,0,427,2,0,0,51283,task2,1439575,false,false,1921,image-keyboard-response,7
true,18,2,1,2,true,d,false,true,0.0-2.0-0.61-0.555-3.555,0,0,0,68,false,stim,false,1,640,2,0,1,51283,task2,1441750,false,false,1924,image-keyboard-response,8
true,18,2,1,2,true,d,false,true,0.0-2.0-0.61-0.556-3.556,0,0,0,68,false,stim,false,1,406,2,0,1,51283,task2,1443696,false,false,1927,image-keyboard-response,9
true,18,2,1,2,true,d,false,true,0.0-2.0-0.61-0.557-3.557,0,0,0,68,false,stim,false,0,830,2,0,0,51283,task2,1446053,false,false,1930,image-keyboard-response,10
true,18,0,1,0,true,q,false,true,0.0-2.0-0.62-0.558-3.558,0,0,0,81,false,stim,false,1,839,2,0,2,51283,task2,1448438,false,false,1933,image-keyboard-response,11
true,18,2,1,2,true,d,false,true,0.0-2.0-0.62-0.559-3.559,0,0,0,68,false,stim,false,0,470,2,0,0,51283,task2,1450458,false,false,1936,image-keyboard-response,12
true,18,0,1,0,true,q,false,true,0.0-2.0-0.62-0.560-3.560,0,0,0,81,false,stim,false,1,573,2,0,2,51283,task2,1452559,false,false,1939,image-keyboard-response,13
true,18,2,1,2,true,d,false,true,0.0-2.0-0.62-0.561-3.561,0,0,0,68,false,stim,false,1,642,2,0,1,51283,task2,1454728,false,false,1942,image-keyboard-response,14
true,18,2,1,2,true,d,false,true,0.0-2.0-0.62-0.562-3.562,0,0,0,68,false,stim,false,1,430,2,0,1,51283,task2,1456687,false,false,1945,image-keyboard-response,15
true,18,2,1,2,true,d,false,true,0.0-2.0-0.62-0.563-3.563,0,0,0,68,false,stim,false,0,784,2,0,0,51283,task2,1459002,false,false,1948,image-keyboard-response,16
true,18,2,1,2,true,d,false,true,0.0-2.0-0.62-0.564-3.564,0,0,0,68,false,stim,false,0,587,2,0,0,51283,task2,1461126,false,false,1951,image-keyboard-response,17
true,18,2,1,2,true,d,false,true,0.0-2.0-0.62-0.565-3.565,0,0,0,68,false,stim,false,1,533,2,0,1,51283,task2,1463177,false,false,1954,image-keyboard-response,18
true,18,0,1,0,true,q,false,true,0.0-2.0-0.62-0.566-3.566,0,0,0,81,false,stim,false,1,561,2,0,2,51283,task2,1465267,false,false,1957,image-keyboard-response,19
true,18,2,1,2,true,d,false,true,0.0-2.0-0.63-0.567-3.567,0,0,0,68,false,stim,false,1,334,2,0,1,51283,task2,1467132,false,false,1960,image-keyboard-response,20
true,18,2,1,2,true,d,false,false,0.0-2.0-0.63-0.568-3.568,0,0,0,68,false,stim,false,1,398,2,0,1,51283,task2,1469057,false,true,1963,image-keyboard-response,21
true,18,2,1,0,false,q,true,false,0.0-2.0-0.63-0.569-3.569,0,0,0,68,false,stim,false,1,1126,2,0,2,51283,task2,1471726,false,false,1966,image-keyboard-response,22
true,18,0,1,2,false,d,false,false,0.0-2.0-0.63-0.570-3.570,0,0,0,81,false,stim,true,0,706,2,0,0,51283,task2,1473962,false,false,1969,image-keyboard-response,23
true,18,2,1,2,true,d,false,true,0.0-2.0-0.63-0.571-3.571,0,0,0,68,false,stim,false,0,734,2,0,0,51283,task2,1476223,false,false,1972,image-keyboard-response,24
true,18,0,1,0,true,q,false,true,0.0-2.0-0.63-0.572-3.572,0,0,0,81,false,stim,false,1,520,2,0,2,51283,task2,1478270,false,false,1975,image-keyboard-response,25
true,18,2,1,2,true,d,false,true,0.0-2.0-0.63-0.573-3.573,0,0,0,68,false,stim,false,0,685,2,0,0,51283,task2,1480479,false,false,1978,image-keyboard-response,26
true,18,0,1,0,true,q,false,true,0.0-2.0-0.63-0.574-3.574,0,0,0,81,false,stim,false,1,654,2,0,2,51283,task2,1482674,false,false,1981,image-keyboard-response,27
true,18,2,1,2,true,d,false,true,0.0-2.0-0.63-0.575-3.575,0,0,0,68,false,stim,false,1,580,2,0,1,51283,task2,1484797,false,false,1984,image-keyboard-response,28
true,18,2,1,2,true,d,false,true,0.0-2.0-0.64-0.576-3.576,0,0,0,68,false,stim,false,1,438,2,0,1,51283,task2,1486767,false,false,1987,image-keyboard-response,29
true,18,0,1,2,false,d,false,true,0.0-2.0-0.64-0.577-3.577,0,0,0,81,false,stim,true,0,492,2,0,0,51283,task2,1488789,false,true,1990,image-keyboard-response,30
true,18,2,1,2,true,d,false,true,0.0-2.0-0.64-0.578-3.578,0,0,0,68,false,stim,false,1,540,2,0,1,51283,task2,1490859,false,false,1993,image-keyboard-response,31
true,18,2,1,0,false,q,true,false,0.0-2.0-0.64-0.579-3.579,0,0,0,68,false,stim,false,1,632,2,0,2,51283,task2,1493020,false,false,1996,image-keyboard-response,32
true,18,2,1,0,false,q,true,false,0.0-2.0-0.64-0.580-3.580,0,0,0,68,false,stim,false,1,549,2,0,2,51283,task2,1495098,false,false,1999,image-keyboard-response,33
true,18,2,1,2,true,d,false,true,0.0-2.0-0.64-0.581-3.581,0,0,0,68,false,stim,false,0,612,2,0,0,51283,task2,1497249,false,false,2002,image-keyboard-response,34
true,18,2,1,2,true,d,false,false,0.0-2.0-0.64-0.582-3.582,0,0,0,68,false,stim,false,0,400,2,0,0,51283,task2,1499171,false,true,2005,image-keyboard-response,35
true,19,1,1,2,false,d,true,false,0.0-2.0-0.64-0.583-3.583,0,0,0,90,true,stim,false,0,1278,2,0,2,51283,task2,1501976,false,false,2008,image-keyboard-response,1
true,19,0,1,1,false,z,true,false,0.0-2.0-0.64-0.584-3.584,0,0,0,81,false,stim,false,2,814,2,0,1,51283,task2,1504330,false,false,2011,image-keyboard-response,2
true,19,0,1,0,true,q,false,true,0.0-2.0-0.65-0.585-3.585,0,0,0,81,false,stim,false,2,1306,2,0,0,51283,task2,1507165,false,false,2014,image-keyboard-response,3
true,19,0,1,2,false,d,false,false,0.0-2.0-0.65-0.586-3.586,0,0,0,81,false,stim,true,0,868,2,0,2,51283,task2,1509576,false,false,2017,image-keyboard-response,4
true,19,0,1,1,false,z,true,false,0.0-2.0-0.65-0.587-3.587,0,0,0,81,false,stim,false,2,717,2,0,1,51283,task2,1511824,false,false,2020,image-keyboard-response,5
true,19,2,1,2,true,d,false,true,0.0-2.0-0.65-0.588-3.588,0,0,0,68,false,stim,false,0,447,2,0,2,51283,task2,1513797,false,false,2023,image-keyboard-response,6
true,19,0,1,0,true,q,false,true,0.0-2.0-0.65-0.589-3.589,0,0,0,81,false,stim,false,2,534,2,0,0,51283,task2,1515853,false,false,2026,image-keyboard-response,7
true,19,0,1,0,true,q,false,true,0.0-2.0-0.65-0.590-3.590,0,0,0,81,false,stim,false,2,452,2,0,0,51283,task2,1517840,false,false,2029,image-keyboard-response,8
true,19,2,1,2,true,d,false,true,0.0-2.0-0.65-0.591-3.591,0,0,0,68,false,stim,false,0,653,2,0,2,51283,task2,1520010,false,false,2032,image-keyboard-response,9
true,19,1,1,1,true,z,false,true,0.0-2.0-0.65-0.592-3.592,0,0,0,90,false,stim,false,2,436,2,0,1,51283,task2,1521987,false,false,2035,image-keyboard-response,10
true,19,1,1,1,true,z,false,true,0.0-2.0-0.65-0.593-3.593,0,0,0,90,false,stim,false,2,458,2,0,1,51283,task2,1523975,false,false,2038,image-keyboard-response,11
true,19,2,1,2,true,d,false,true,0.0-2.0-0.66-0.594-3.594,0,0,0,68,false,stim,false,0,586,2,0,2,51283,task2,1526102,false,false,2041,image-keyboard-response,12
true,19,0,1,0,true,q,false,true,0.0-2.0-0.66-0.595-3.595,0,0,0,81,false,stim,false,2,499,2,0,0,51283,task2,1528132,false,false,2044,image-keyboard-response,13
true,19,2,1,2,true,d,false,true,0.0-2.0-0.66-0.596-3.596,0,0,0,68,false,stim,false,0,1142,2,0,2,51283,task2,1530800,false,false,2047,image-keyboard-response,14
true,19,1,1,1,true,z,false,true,0.0-2.0-0.66-0.597-3.597,0,0,0,90,false,stim,false,2,918,2,0,1,51283,task2,1533248,false,false,2050,image-keyboard-response,15
true,19,1,1,1,true,z,false,true,0.0-2.0-0.66-0.598-3.598,0,0,0,90,false,stim,false,2,429,2,0,1,51283,task2,1535219,false,false,2053,image-keyboard-response,16
true,19,0,1,0,true,q,false,true,0.0-2.0-0.66-0.599-3.599,0,0,0,81,false,stim,false,2,461,2,0,0,51283,task2,1537205,false,false,2056,image-keyboard-response,17
true,19,0,1,0,true,q,false,true,0.0-2.0-0.66-0.600-3.600,0,0,0,81,false,stim,false,2,491,2,0,0,51283,task2,1539229,false,false,2059,image-keyboard-response,18
true,19,1,1,1,true,z,false,true,0.0-2.0-0.66-0.601-3.601,0,0,0,90,false,stim,false,2,951,2,0,1,51283,task2,1541717,false,false,2062,image-keyboard-response,19
true,19,2,1,2,true,d,false,true,0.0-2.0-0.66-0.602-3.602,0,0,0,68,false,stim,false,0,583,2,0,2,51283,task2,1543831,false,false,2065,image-keyboard-response,20
true,19,1,1,1,true,z,false,false,0.0-2.0-0.67-0.603-3.603,0,0,0,90,false,stim,false,2,621,2,0,1,51283,task2,1545989,false,true,2068,image-keyboard-response,21
true,19,0,1,0,true,q,false,true,0.0-2.0-0.67-0.604-3.604,0,0,0,81,false,stim,false,2,526,2,0,0,51283,task2,1548044,false,false,2071,image-keyboard-response,22
true,19,1,1,1,true,z,false,true,0.0-2.0-0.67-0.605-3.605,0,0,0,90,false,stim,false,2,531,2,0,1,51283,task2,1550108,false,false,2074,image-keyboard-response,23
true,19,2,1,2,true,d,false,true,0.0-2.0-0.67-0.606-3.606,0,0,0,68,false,stim,false,0,493,2,0,2,51283,task2,1552131,false,false,2077,image-keyboard-response,24
true,19,0,1,0,true,q,false,true,0.0-2.0-0.67-0.607-3.607,0,0,0,81,false,stim,false,2,551,2,0,0,51283,task2,1554210,false,false,2080,image-keyboard-response,25
true,19,2,1,2,true,d,false,true,0.0-2.0-0.67-0.608-3.608,0,0,0,68,false,stim,false,0,713,2,0,2,51283,task2,1556452,false,false,2083,image-keyboard-response,26
true,19,0,1,0,true,q,false,true,0.0-2.0-0.67-0.609-3.609,0,0,0,81,false,stim,false,2,572,2,0,0,51283,task2,1558552,false,false,2086,image-keyboard-response,27
true,19,2,1,2,true,d,false,true,0.0-2.0-0.67-0.610-3.610,0,0,0,68,false,stim,false,0,520,2,0,2,51283,task2,1560609,false,false,2089,image-keyboard-response,28
true,19,1,1,1,true,z,false,false,0.0-2.0-0.67-0.611-3.611,0,0,0,90,false,stim,false,2,441,2,0,1,51283,task2,1562589,false,true,2092,image-keyboard-response,29
true,19,1,1,1,true,z,false,true,0.0-2.0-0.68-0.612-3.612,0,0,0,90,false,stim,false,2,361,2,0,1,51283,task2,1564490,false,false,2095,image-keyboard-response,30
true,19,2,1,2,true,d,false,false,0.0-2.0-0.68-0.613-3.613,0,0,0,68,false,stim,false,0,529,2,0,2,51283,task2,1566538,false,true,2098,image-keyboard-response,31
true,19,2,1,2,true,d,false,true,0.0-2.0-0.68-0.614-3.614,0,0,0,68,false,stim,false,0,368,2,0,2,51283,task2,1568478,false,false,2101,image-keyboard-response,32
true,19,1,1,1,true,z,false,true,0.0-2.0-0.68-0.615-3.615,0,0,0,90,false,stim,false,2,645,2,1,1,51283,task2,1570662,false,false,2104,image-keyboard-response,33
true,19,0,1,0,true,q,false,true,0.0-2.0-0.68-0.616-3.616,0,0,0,81,false,stim,false,2,445,2,0,0,51283,task2,1572643,false,false,2107,image-keyboard-response,34
true,19,0,1,0,true,q,false,true,0.0-2.0-0.68-0.617-3.617,0,0,0,81,false,stim,false,2,326,2,0,0,51283,task2,1574504,false,false,2110,image-keyboard-response,35
true,20,1,2,1,true,z,false,true,0.0-2.0-0.68-0.618-3.618,0,1,0,90,true,stim,false,1,457,2,1,1,51283,task2,1576486,false,false,2113,image-keyboard-response,1
true,20,0,2,2,false,d,false,false,0.0-2.0-0.68-0.619-3.619,0,1,0,81,false,stim,true,0,577,2,0,0,51283,task2,1578606,false,false,2116,image-keyboard-response,2
true,20,2,2,1,false,z,false,false,0.0-2.0-0.68-0.620-3.620,0,1,0,68,false,stim,true,2,480,2,0,2,51283,task2,1580629,false,false,2119,image-keyboard-response,3
true,20,1,2,1,true,z,false,true,0.0-2.0-0.69-0.621-3.621,0,1,0,90,false,stim,false,1,908,2,1,1,51283,task2,1583077,false,false,2122,image-keyboard-response,4
true,20,1,2,1,true,z,false,true,0.0-2.0-0.69-0.622-3.622,0,1,0,90,false,stim,false,1,406,2,1,1,51283,task2,1585025,false,false,2125,image-keyboard-response,5
true,20,2,2,1,false,z,false,false,0.0-2.0-0.69-0.623-3.623,0,1,0,68,false,stim,true,2,1460,2,0,2,51283,task2,1588018,false,false,2128,image-keyboard-response,6
true,20,1,2,1,true,z,false,true,0.0-2.0-0.69-0.624-3.624,0,1,0,90,false,stim,false,1,567,2,1,1,51283,task2,1590116,false,false,2131,image-keyboard-response,7
true,20,2,2,2,true,d,false,false,0.0-2.0-0.69-0.625-3.625,0,1,0,68,false,stim,false,0,362,2,0,0,51283,task2,1592020,false,true,2134,image-keyboard-response,8
true,20,1,2,1,true,z,false,true,0.0-2.0-0.69-0.626-3.626,0,1,0,90,false,stim,false,2,625,2,0,2,51283,task2,1594182,false,false,2137,image-keyboard-response,9
true,20,0,2,2,false,d,false,false,0.0-2.0-0.69-0.627-3.627,0,1,0,81,false,stim,true,0,958,2,0,0,51283,task2,1596667,false,false,2140,image-keyboard-response,10
true,20,1,2,1,true,z,false,true,0.0-2.0-0.69-0.628-3.628,0,1,0,90,false,stim,false,2,751,2,0,2,51283,task2,1598960,false,false,2143,image-keyboard-response,11
true,20,2,2,2,true,d,false,true,0.0-2.0-0.69-0.629-3.629,0,1,0,68,false,stim,false,0,1346,2,0,0,51283,task2,1601833,false,false,2146,image-keyboard-response,12
true,20,2,2,2,true,d,false,true,0.0-2.0-0.70-0.630-3.630,0,1,0,68,false,stim,false,0,433,2,0,0,51283,task2,1603802,false,false,2149,image-keyboard-response,13
true,20,1,2,1,true,z,false,true,0.0-2.0-0.70-0.631-3.631,0,1,0,90,false,stim,false,2,513,2,0,2,51283,task2,1605850,false,false,2152,image-keyboard-response,14
true,20,2,2,2,true,d,false,true,0.0-2.0-0.70-0.632-3.632,0,1,0,68,false,stim,false,0,658,2,0,0,51283,task2,1608036,false,false,2155,image-keyboard-response,15
true,20,1,2,1,true,z,false,true,0.0-2.0-0.70-0.633-3.633,0,1,0,90,false,stim,false,2,701,2,0,2,51283,task2,1610283,false,false,2158,image-keyboard-response,16
true,20,1,2,1,true,z,false,true,0.0-2.0-0.70-0.634-3.634,0,1,0,90,false,stim,false,1,473,2,1,1,51283,task2,1612292,false,false,2161,image-keyboard-response,17
