answered,blockNum,choice,condition,corResp,correct,correct_response,explo,fb,internal_node_id,isStable_1,isStable_2,isStable_3,key_press,newBlock,part,persev,persevResp,rt,sessNum,stableAS,stimulus,subject,task,time_elapsed,training,trap,trial_index,trial_type,trialsInBlock
true,1,1,0,2,false,d,true,false,0.0-2.0-0.0-0.0-3.0,0,0,0,90,true,stim,false,-1,1200.0,1,0,2,51283,task3,313681,false,false,88,image-keyboard-response,1
true,1,0,0,0,true,q,false,false,0.0-2.0-0.0-0.1-3.1,0,0,0,81,false,stim,false,-1,1057.5999999999767,1,0,0,51283,task3,316249,false,true,91,image-keyboard-response,2
true,1,2,0,2,true,d,false,true,0.0-2.0-0.0-0.2-3.2,0,0,0,68,false,stim,false,-1,1223.0,1,0,1,51283,task3,319001,false,false,94,image-keyboard-response,3
true,1,2,0,2,true,d,false,true,0.0-2.0-0.0-0.3-3.3,0,0,0,68,false,stim,false,-1,809.0999999999767,1,0,2,51283,task3,321323,false,false,97,image-keyboard-response,4
true,1,2,0,2,true,d,false,true,0.0-2.0-0.0-0.4-3.4,0,0,0,68,false,stim,false,-1,597.9000000000233,1,0,1,51283,task3,323437,false,false,100,image-keyboard-response,5
true,1,1,0,0,false,q,true,false,0.0-2.0-0.0-0.5-3.5,0,0,0,90,false,stim,false,-1,1134.2999999999302,1,0,0,51283,task3,326093,false,false,103,image-keyboard-response,6
true,1,2,0,2,true,d,false,true,0.0-2.0-0.0-0.6-3.6,0,0,0,68,false,stim,false,-1,559.4000000000233,1,0,1,51283,task3,328177,false,false,106,image-keyboard-response,7
true,1,2,0,2,true,d,false,true,0.0-2.0-0.0-0.7-3.7,0,0,0,68,false,stim,false,-1,363.69999999995343,1,0,2,51283,task3,330071,false,false,109,image-keyboard-response,8
true,1,2,0,0,false,q,true,false,0.0-2.0-0.0-0.8-3.8,0,0,0,68,false,stim,false,-1,328.0999999999767,1,0,0,51283,task3,331926,false,false,112,image-keyboard-response,9
true,1,0,0,0,true,q,false,true,0.0-2.0-0.1-0.9-3.9,0,0,0,81,false,stim,false,-1,778.7999999999302,1,0,0,51283,task3,334228,false,false,115,image-keyboard-response,10
true,1,2,0,2,true,d,false,true,0.0-2.0-0.1-0.10-3.10,0,0,0,68,false,stim,false,-1,548.4000000000233,1,0,2,51283,task3,336295,false,false,118,image-keyboard-response,11
true,1,2,0,2,true,d,false,true,0.0-2.0-0.1-0.11-3.11,0,0,0,68,false,stim,false,-1,669.4000000000233,1,0,1,51283,task3,338483,false,false,121,image-keyboard-response,12
true,1,0,0,0,true,q,false,true,0.0-2.0-0.1-0.12-3.12,0,0,0,81,false,stim,false,-1,540.5999999999767,1,0,0,51283,task3,340549,false,false,124,image-keyboard-response,13
true,1,2,0,2,true,d,false,true,0.0-2.0-0.1-0.13-3.13,0,0,0,68,false,stim,false,-1,614.9000000000233,1,0,1,51283,task3,342687,false,false,127,image-keyboard-response,14
true,1,2,0,2,true,d,false,false,0.0-2.0-0.1-0.14-3.14,0,0,0,68,false,stim,false,-1,603.6999999999534,1,0,1,51283,task3,344805,false,true,130,image-keyboard-response,15
true,1,0,0,0,true,q,false,true,0.0-2.0-0.1-0.15-3.15,0,0,0,81,false,stim,false,-1,633.5999999999767,1,0,0,51283,task3,346963,false,false,133,image-keyboard-response,16
true,1,2,0,2,true,d,false,true,0.0-2.0-0.1-0.16-3.16,0,0,0,68,false,stim,false,-1,766.8000000000466,1,0,2,51283,task3,349249,false,false,136,image-keyboard-response,17
true,1,2,0,2,true,d,false,true,0.0-2.0-0.1-0.17-3.17,0,0,0,68,false,stim,false,-1,511.80000000004657,1,0,2,51283,task3,351285,false,false,139,image-keyboard-response,18
true,1,0,0,0,true,q,false,true,0.0-2.0-0.2-0.18-3.18,0,0,0,81,false,stim,false,-1,626.8999999999069,1,0,0,51283,task3,353434,false,false,142,image-keyboard-response,19
true,1,1,0,2,false,d,true,false,0.0-2.0-0.2-0.19-3.19,0,0,0,90,false,stim,false,-1,723.0999999999767,1,0,1,51283,task3,355672,false,false,145,image-keyboard-response,20
true,1,0,0,0,true,q,false,true,0.0-2.0-0.2-0.20-3.20,0,0,0,81,false,stim,false,-1,597.9000000000233,1,0,0,51283,task3,357789,false,false,148,image-keyboard-response,21
true,1,0,0,0,true,q,false,true,0.0-2.0-0.2-0.21-3.21,0,0,0,81,false,stim,false,-1,396.80000000004657,1,0,0,51283,task3,359706,false,false,151,image-keyboard-response,22
true,1,0,0,2,false,d,true,false,0.0-2.0-0.2-0.22-3.22,0,0,0,81,false,stim,false,-1,1127.3999999999069,1,1,1,51283,task3,362357,false,false,154,image-keyboard-response,23
true,1,2,0,2,true,d,false,true,0.0-2.0-0.2-0.23-3.23,0,0,0,68,false,stim,false,-1,647.8000000000466,1,1,2,51283,task3,364518,false,false,157,image-keyboard-response,24
true,1,2,0,2,true,d,false,true,0.0-2.0-0.2-0.24-3.24,0,0,0,68,false,stim,false,-1,735.5,1,1,2,51283,task3,366768,false,false,160,image-keyboard-response,25
true,1,1,0,2,false,d,true,false,0.0-2.0-0.2-0.25-3.25,0,0,0,90,false,stim,false,-1,843.9000000000233,1,1,1,51283,task3,369130,false,false,163,image-keyboard-response,26
true,2,2,2,2,true,d,false,true,0.0-2.0-0.2-0.26-3.26,0,1,1,68,true,stim,false,2,581.5,1,1,2,51283,task3,371230,false,false,166,image-keyboard-response,1
true,2,2,2,2,true,d,false,true,0.0-2.0-0.3-0.27-3.27,0,1,1,68,false,stim,false,2,548.5999999999767,1,1,1,51283,task3,373297,false,false,169,image-keyboard-response,2
true,2,2,2,2,true,d,false,true,0.0-2.0-0.3-0.28-3.28,0,1,1,68,false,stim,false,2,421.5999999999767,1,1,2,51283,task3,375238,false,false,172,image-keyboard-response,3
true,2,2,2,2,true,d,false,true,0.0-2.0-0.3-0.29-3.29,0,1,1,68,false,stim,false,2,509.5,1,1,1,51283,task3,377274,false,false,175,image-keyboard-response,4
true,2,2,2,2,true,d,false,true,0.0-2.0-0.3-0.30-3.30,0,1,1,68,false,stim,false,2,355.19999999995343,1,1,1,51283,task3,379146,false,false,178,image-keyboard-response,5
true,2,0,2,1,false,z,false,false,0.0-2.0-0.3-0.31-3.31,0,1,1,81,false,stim,true,0,648.1999999999534,1,0,0,51283,task3,381308,false,false,181,image-keyboard-response,6
true,2,2,2,2,true,d,false,false,0.0-2.0-0.3-0.32-3.32,0,1,1,68,false,stim,false,2,534.0,1,1,2,51283,task3,383359,false,true,184,image-keyboard-response,7
true,2,0,2,2,false,d,true,false,0.0-2.0-0.3-0.33-3.33,0,1,1,81,false,stim,false,2,1489.6999999999534,1,0,2,51283,task3,386367,false,false,187,image-keyboard-response,8
true,2,2,2,1,false,z,true,true,0.0-2.0-0.3-0.34-3.34,0,1,1,68,false,stim,false,0,799.0,1,1,0,51283,task3,388692,false,true,190,image-keyboard-response,9
true,2,2,2,1,false,z,true,false,0.0-2.0-0.3-0.35-3.35,0,1,1,68,false,stim,false,0,577.6999999999534,1,1,0,51283,task3,390794,false,false,193,image-keyboard-response,10
true,2,0,2,1,false,z,false,true,0.0-2.0-0.4-0.36-3.36,0,1,1,81,false,stim,true,0,694.4000000000233,1,1,0,51283,task3,393016,false,true,196,image-keyboard-response,11
true,2,0,2,1,false,z,false,false,0.0-2.0-0.4-0.37-3.37,0,1,1,81,false,stim,true,0,450.9000000000233,1,1,0,51283,task3,394994,false,false,199,image-keyboard-response,12
true,3,2,2,2,true,d,false,true,0.0-2.0-0.4-0.38-3.38,1,1,0,68,true,stim,false,2,888.6999999999534,1,1,1,51283,task3,397405,false,false,202,image-keyboard-response,1
true,3,1,2,0,false,q,true,false,0.0-2.0-0.4-0.39-3.39,1,1,0,90,false,stim,false,2,924.9000000000233,1,0,2,51283,task3,399848,false,false,205,image-keyboard-response,2
true,3,2,2,0,false,q,false,false,0.0-2.0-0.4-0.40-3.40,1,1,0,68,false,stim,true,2,569.7000000000698,1,0,2,51283,task3,401934,false,false,208,image-keyboard-response,3
true,3,2,2,1,false,z,true,false,0.0-2.0-0.4-0.41-3.41,1,1,0,68,false,stim,false,1,829.5,1,1,0,51283,task3,404294,false,false,211,image-keyboard-response,4
true,3,2,2,2,true,d,false,true,0.0-2.0-0.4-0.42-3.42,1,1,0,68,false,stim,false,2,687.4000000000233,1,1,1,51283,task3,406500,false,false,214,image-keyboard-response,5
true,3,0,2,0,true,q,false,false,0.0-2.0-0.4-0.43-3.43,1,1,0,81,false,stim,false,2,870.5999999999767,1,0,2,51283,task3,408896,false,true,217,image-keyboard-response,6
true,3,2,2,2,true,d,false,true,0.0-2.0-0.4-0.44-3.44,1,1,0,68,false,stim,false,2,843.8000000000466,1,1,1,51283,task3,411256,false,false,220,image-keyboard-response,7
true,3,1,2,0,false,q,true,false,0.0-2.0-0.5-0.45-3.45,1,1,0,90,false,stim,false,2,677.3000000000466,1,0,2,51283,task3,413455,false,false,223,image-keyboard-response,8
true,3,2,2,2,true,d,false,false,0.0-2.0-0.5-0.46-3.46,1,1,0,68,false,stim,false,2,556.0,1,1,1,51283,task3,415530,false,true,226,image-keyboard-response,9
true,3,2,2,2,true,d,false,true,0.0-2.0-0.5-0.47-3.47,1,1,0,68,false,stim,false,2,1030.3000000000466,1,1,1,51283,task3,418084,false,false,229,image-keyboard-response,10
true,3,2,2,0,false,q,false,false,0.0-2.0-0.5-0.48-3.48,1,1,0,68,false,stim,true,2,887.4000000000233,1,0,2,51283,task3,420494,false,false,232,image-keyboard-response,11
true,3,2,2,1,false,z,true,false,0.0-2.0-0.5-0.49-3.49,1,1,0,68,false,stim,false,1,764.2999999999302,1,1,0,51283,task3,422778,false,false,235,image-keyboard-response,12
true,3,1,2,1,true,z,false,true,0.0-2.0-0.5-0.50-3.50,1,1,0,90,false,stim,false,1,564.6999999999534,1,1,0,51283,task3,424855,false,false,238,image-keyboard-response,13
true,3,1,2,1,true,z,false,true,0.0-2.0-0.5-0.51-3.51,1,1,0,90,false,stim,false,1,458.89999999990687,1,1,0,51283,task3,426834,false,false,241,image-keyboard-response,14
true,3,1,2,0,false,q,true,false,0.0-2.0-0.5-0.52-3.52,1,1,0,90,false,stim,false,2,1141.3000000000466,1,0,2,51283,task3,429491,false,false,244,image-keyboard-response,15
true,3,2,2,2,true,d,false,true,0.0-2.0-0.5-0.53-3.53,1,1,0,68,false,stim,false,2,734.0,1,1,1,51283,task3,431741,false,false,247,image-keyboard-response,16
true,3,2,2,2,true,d,false,true,0.0-2.0-0.6-0.54-3.54,1,1,0,68,false,stim,false,2,374.30000000004657,1,1,1,51283,task3,433637,false,false,250,image-keyboard-response,17
true,3,0,2,1,false,z,true,false,0.0-2.0-0.6-0.55-3.55,1,1,0,81,false,stim,false,1,714.3000000000466,1,1,0,51283,task3,435876,false,false,253,image-keyboard-response,18
true,3,2,2,1,false,z,true,false,0.0-2.0-0.6-0.56-3.56,1,1,0,68,false,stim,false,1,560.2000000000698,1,1,0,51283,task3,437950,false,false,256,image-keyboard-response,19
true,3,2,2,2,true,d,false,true,0.0-2.0-0.6-0.57-3.57,1,1,0,68,false,stim,false,2,606.8000000000466,1,0,1,51283,task3,440080,false,false,259,image-keyboard-response,20
true,3,2,2,2,true,d,false,true,0.0-2.0-0.6-0.58-3.58,1,1,0,68,false,stim,false,2,344.0999999999767,1,0,1,51283,task3,441945,false,false,262,image-keyboard-response,21
true,3,1,2,0,false,q,true,false,0.0-2.0-0.6-0.59-3.59,1,1,0,90,false,stim,false,2,1171.3000000000466,1,0,2,51283,task3,444641,false,false,265,image-keyboard-response,22
true,3,2,2,0,false,q,false,true,0.0-2.0-0.6-0.60-3.60,1,1,0,68,false,stim,true,2,373.9000000000233,1,0,2,51283,task3,446543,false,true,268,image-keyboard-response,23
true,3,2,2,1,false,z,true,false,0.0-2.0-0.6-0.61-3.61,1,1,0,68,false,stim,false,1,2470.5,1,1,0,51283,task3,450538,false,false,271,image-keyboard-response,24
true,4,2,1,2,true,d,false,true,0.0-2.0-0.6-0.62-3.62,1,0,0,68,true,stim,false,0,447.10000000009313,1,0,2,51283,task3,452505,false,false,274,image-keyboard-response,1
true,4,2,1,1,false,z,false,false,0.0-2.0-0.7-0.63-3.63,1,0,0,68,false,stim,true,2,345.30000000004657,1,0,1,51283,task3,454362,false,false,277,image-keyboard-response,2
true,4,2,1,2,true,d,false,true,0.0-2.0-0.7-0.64-3.64,1,0,0,68,false,stim,false,0,505.69999999995343,1,0,2,51283,task3,456380,false,false,280,image-keyboard-response,3
true,4,1,1,1,true,z,false,true,0.0-2.0-0.7-0.65-3.65,1,0,0,90,false,stim,false,2,848.8000000000466,1,0,1,51283,task3,458750,false,false,283,image-keyboard-response,4
true,4,1,1,1,true,z,false,true,0.0-2.0-0.7-0.66-3.66,1,0,0,90,false,stim,false,1,471.5,1,1,0,51283,task3,460734,false,false,286,image-keyboard-response,5
true,4,1,1,1,true,z,false,true,0.0-2.0-0.7-0.67-3.67,1,0,0,90,false,stim,false,2,368.9000000000233,1,0,1,51283,task3,462625,false,false,289,image-keyboard-response,6
true,4,1,1,2,false,d,true,false,0.0-2.0-0.7-0.68-3.68,1,0,0,90,false,stim,false,0,374.5999999999767,1,0,2,51283,task3,464515,false,false,292,image-keyboard-response,7
true,4,1,1,1,true,z,false,true,0.0-2.0-0.7-0.69-3.69,1,0,0,90,false,stim,false,1,645.6999999999534,1,1,0,51283,task3,466687,false,false,295,image-keyboard-response,8
true,4,1,1,1,true,z,false,true,0.0-2.0-0.7-0.70-3.70,1,0,0,90,false,stim,false,1,396.0,1,1,0,51283,task3,468605,false,false,298,image-keyboard-response,9
true,4,2,1,2,true,d,false,false,0.0-2.0-0.7-0.71-3.71,1,0,0,68,false,stim,false,0,837.5999999999767,1,0,2,51283,task3,470969,false,true,301,image-keyboard-response,10
true,4,1,1,1,true,z,false,true,0.0-2.0-0.8-0.72-3.72,1,0,0,90,false,stim,false,1,515.1999999999534,1,1,0,51283,task3,473012,false,false,304,image-keyboard-response,11
true,4,1,1,1,true,z,false,true,0.0-2.0-0.8-0.73-3.73,1,0,0,90,false,stim,false,2,376.69999999995343,1,0,1,51283,task3,474919,false,false,307,image-keyboard-response,12
true,4,0,1,2,false,d,false,false,0.0-2.0-0.8-0.74-3.74,1,0,0,81,false,stim,true,0,1245.8000000000466,1,0,2,51283,task3,477696,false,false,310,image-keyboard-response,13
true,4,1,1,1,true,z,false,true,0.0-2.0-0.8-0.75-3.75,1,0,0,90,false,stim,false,2,500.9000000000233,1,0,1,51283,task3,479714,false,false,313,image-keyboard-response,14
true,4,1,1,1,true,z,false,true,0.0-2.0-0.8-0.76-3.76,1,0,0,90,false,stim,false,2,349.9000000000233,1,0,1,51283,task3,481587,false,false,316,image-keyboard-response,15
true,4,2,1,2,true,d,false,true,0.0-2.0-0.8-0.77-3.77,1,0,0,68,false,stim,false,0,439.20000000006985,1,0,2,51283,task3,483545,false,false,319,image-keyboard-response,16
true,4,1,1,1,true,z,false,true,0.0-2.0-0.8-0.78-3.78,1,0,0,90,false,stim,false,1,765.5,1,1,0,51283,task3,485823,false,false,322,image-keyboard-response,17
true,4,1,1,2,false,d,true,false,0.0-2.0-0.8-0.79-3.79,1,0,0,90,false,stim,false,0,1748.0,1,0,2,51283,task3,489090,false,false,325,image-keyboard-response,18
true,4,1,1,1,true,z,false,true,0.0-2.0-0.8-0.80-3.80,1,0,0,90,false,stim,false,1,457.20000000006985,1,1,0,51283,task3,491076,false,false,328,image-keyboard-response,19
true,4,0,1,2,false,d,false,false,0.0-2.0-0.9-0.81-3.81,1,0,0,81,false,stim,true,0,761.6000000000931,1,0,2,51283,task3,493355,false,false,331,image-keyboard-response,20
true,4,1,1,1,true,z,false,true,0.0-2.0-0.9-0.82-3.82,1,0,0,90,false,stim,false,1,385.5,1,1,0,51283,task3,495254,false,false,334,image-keyboard-response,21
true,4,1,1,1,true,z,false,true,0.0-2.0-0.9-0.83-3.83,1,0,0,90,false,stim,false,2,368.69999999995343,1,1,1,51283,task3,497142,false,false,337,image-keyboard-response,22
true,4,2,1,2,true,d,false,true,0.0-2.0-0.9-0.84-3.84,1,0,0,68,false,stim,false,0,593.0999999999767,1,0,2,51283,task3,499250,false,false,340,image-keyboard-response,23
true,4,2,1,2,true,d,false,true,0.0-2.0-0.9-0.85-3.85,1,0,0,68,false,stim,false,0,427.80000000004657,1,0,2,51283,task3,501200,false,false,343,image-keyboard-response,24
true,4,1,1,1,true,z,false,true,0.0-2.0-0.9-0.86-3.86,1,0,0,90,false,stim,false,1,552.4000000000233,1,1,0,51283,task3,503268,false,false,346,image-keyboard-response,25
true,5,1,2,1,true,z,false,true,0.0-2.0-0.9-0.87-3.87,1,1,0,90,true,stim,false,1,502.9000000000233,1,1,0,51283,task3,505290,false,false,349,image-keyboard-response,1
true,5,1,2,1,true,z,false,true,0.0-2.0-0.9-0.88-3.88,1,1,0,90,false,stim,false,1,442.5999999999767,1,1,1,51283,task3,507251,false,false,352,image-keyboard-response,2
true,5,1,2,1,true,z,false,true,0.0-2.0-0.9-0.89-3.89,1,1,0,90,false,stim,false,1,369.70000000006985,1,1,1,51283,task3,509138,false,false,355,image-keyboard-response,3
true,5,2,2,0,false,q,false,false,0.0-2.0-0.10-0.90-3.90,1,1,0,68,false,stim,true,2,442.9000000000233,1,0,2,51283,task3,511108,false,false,358,image-keyboard-response,4
true,5,2,2,0,false,q,false,false,0.0-2.0-0.10-0.91-3.91,1,1,0,68,false,stim,true,2,1006.3000000000466,1,0,2,51283,task3,513630,false,false,361,image-keyboard-response,5
true,5,1,2,1,true,z,false,true,0.0-2.0-0.10-0.92-3.92,1,1,0,90,false,stim,false,1,605.5999999999767,1,1,1,51283,task3,515762,false,false,364,image-keyboard-response,6
true,5,1,2,1,true,z,false,true,0.0-2.0-0.10-0.93-3.93,1,1,0,90,false,stim,false,1,593.9000000000233,1,1,0,51283,task3,517884,false,false,367,image-keyboard-response,7
true,5,1,2,1,true,z,false,true,0.0-2.0-0.10-0.94-3.94,1,1,0,90,false,stim,false,1,530.1999999999534,1,1,1,51283,task3,519934,false,false,370,image-keyboard-response,8
true,5,1,2,1,true,z,false,true,0.0-2.0-0.10-0.95-3.95,1,1,0,90,false,stim,false,1,929.1999999999534,1,0,0,51283,task3,522379,false,false,373,image-keyboard-response,9
true,5,1,2,1,true,z,false,true,0.0-2.0-0.10-0.96-3.96,1,1,0,90,false,stim,false,1,575.8000000000466,1,1,1,51283,task3,524468,false,false,376,image-keyboard-response,10
true,5,0,2,0,true,q,false,true,0.0-2.0-0.10-0.97-3.97,1,1,0,81,false,stim,false,2,1478.5,1,1,2,51283,task3,527456,false,false,379,image-keyboard-response,11
true,5,1,2,1,true,z,false,true,0.0-2.0-0.10-0.98-3.98,1,1,0,90,false,stim,false,1,529.2999999998137,1,0,0,51283,task3,529500,false,false,382,image-keyboard-response,12
true,6,1,2,1,true,z,false,true,0.0-2.0-0.11-0.99-3.99,0,1,1,90,true,stim,false,1,833.1999999999534,1,1,1,51283,task3,531860,false,false,385,image-keyboard-response,1
true,6,1,2,0,false,q,false,false,0.0-2.0-0.11-0.100-3.100,0,1,1,90,false,stim,true,1,690.0,1,0,0,51283,task3,534078,false,false,388,image-keyboard-response,2
true,6,0,2,0,true,q,false,false,0.0-2.0-0.11-0.101-3.101,0,1,1,81,false,stim,false,0,918.1999999999534,1,1,2,51283,task3,536514,false,true,391,image-keyboard-response,3
true,6,1,2,1,true,z,false,false,0.0-2.0-0.11-0.102-3.102,0,1,1,90,false,stim,false,1,964.3000000000466,1,1,1,51283,task3,539000,false,true,394,image-keyboard-response,4
true,6,2,2,0,false,q,true,false,0.0-2.0-0.11-0.103-3.103,0,1,1,68,false,stim,false,0,712.6000000000931,1,1,2,51283,task3,541238,false,false,397,image-keyboard-response,5
true,6,2,2,0,false,q,true,false,0.0-2.0-0.11-0.104-3.104,0,1,1,68,false,stim,false,0,547.0,1,1,2,51283,task3,543308,false,false,400,image-keyboard-response,6
true,6,1,2,0,false,q,false,false,0.0-2.0-0.11-0.105-3.105,0,1,1,90,false,stim,true,1,1131.5,1,0,0,51283,task3,545964,false,false,403,image-keyboard-response,7
true,6,0,2,0,true,q,false,true,0.0-2.0-0.11-0.106-3.106,0,1,1,81,false,stim,false,1,525.6000000000931,1,0,0,51283,task3,548018,false,false,406,image-keyboard-response,8
true,6,0,2,1,false,z,true,false,0.0-2.0-0.11-0.107-3.107,0,1,1,81,false,stim,false,1,1429.1000000000931,1,1,1,51283,task3,550973,false,false,409,image-keyboard-response,9
true,6,0,2,0,true,q,false,true,0.0-2.0-0.12-0.108-3.108,0,1,1,81,false,stim,false,0,742.0,1,1,2,51283,task3,553240,false,false,412,image-keyboard-response,10
true,6,0,2,1,false,z,true,false,0.0-2.0-0.12-0.109-3.109,0,1,1,81,false,stim,false,1,453.39999999990687,1,1,1,51283,task3,555208,false,false,415,image-keyboard-response,11
true,6,0,2,0,true,q,false,true,0.0-2.0-0.12-0.110-3.110,0,1,1,81,false,stim,false,1,450.30000000004657,1,0,0,51283,task3,557182,false,false,418,image-keyboard-response,12
true,6,0,2,1,false,z,true,false,0.0-2.0-0.12-0.111-3.111,0,1,1,81,false,stim,false,1,409.0,1,1,1,51283,task3,559117,false,false,421,image-keyboard-response,13
true,6,0,2,0,true,q,false,true,0.0-2.0-0.12-0.112-3.112,0,1,1,81,false,stim,false,1,524.0,1,0,0,51283,task3,561165,false,false,424,image-keyboard-response,14
true,6,0,2,0,true,q,false,true,0.0-2.0-0.12-0.113-3.113,0,1,1,81,false,stim,false,0,660.6999999999534,1,1,2,51283,task3,563351,false,false,427,image-keyboard-response,15
true,6,0,2,0,true,q,false,false,0.0-2.0-0.12-0.114-3.114,0,1,1,81,false,stim,false,0,526.3999999999069,1,1,2,51283,task3,565393,false,true,430,image-keyboard-response,16
true,6,1,2,1,true,z,false,true,0.0-2.0-0.12-0.115-3.115,0,1,1,90,false,stim,false,1,2050.0,1,1,1,51283,task3,568960,false,false,433,image-keyboard-response,17
true,6,0,2,0,true,q,false,true,0.0-2.0-0.12-0.116-3.116,0,1,1,81,false,stim,false,1,570.1999999999534,1,0,0,51283,task3,571051,false,false,436,image-keyboard-response,18
true,6,0,2,0,true,q,false,true,0.0-2.0-0.13-0.117-3.117,0,1,1,81,false,stim,false,1,680.0,1,0,0,51283,task3,573249,false,false,439,image-keyboard-response,19
true,6,2,2,0,false,q,true,false,0.0-2.0-0.13-0.118-3.118,0,1,1,68,false,stim,false,0,1223.1000000000931,1,1,2,51283,task3,575987,false,false,442,image-keyboard-response,20
true,6,0,2,0,true,q,false,true,0.0-2.0-0.13-0.119-3.119,0,1,1,81,false,stim,false,1,828.1999999999534,1,0,0,51283,task3,578329,false,false,445,image-keyboard-response,21
true,6,1,2,1,true,z,false,true,0.0-2.0-0.13-0.120-3.120,0,1,1,90,false,stim,false,1,1541.5,1,1,1,51283,task3,581388,false,false,448,image-keyboard-response,22
true,6,1,2,0,false,q,true,false,0.0-2.0-0.13-0.121-3.121,0,1,1,90,false,stim,false,0,1028.8999999999069,1,1,2,51283,task3,583936,false,false,451,image-keyboard-response,23
true,6,0,2,1,false,z,true,true,0.0-2.0-0.13-0.122-3.122,0,1,1,81,false,stim,false,1,958.3999999999069,1,0,1,51283,task3,586414,false,true,454,image-keyboard-response,24
true,6,2,2,0,false,q,true,false,0.0-2.0-0.13-0.123-3.123,0,1,1,68,false,stim,false,0,1070.5999999998603,1,1,2,51283,task3,589000,false,false,457,image-keyboard-response,25
true,6,0,2,1,false,z,true,false,0.0-2.0-0.13-0.124-3.124,0,1,1,81,false,stim,false,1,927.8000000000466,1,0,1,51283,task3,591452,false,false,460,image-keyboard-response,26
true,6,0,2,0,true,q,false,true,0.0-2.0-0.13-0.125-3.125,0,1,1,81,false,stim,false,1,676.1999999999534,1,0,0,51283,task3,593646,false,false,463,image-keyboard-response,27
true,6,1,2,0,false,q,true,false,0.0-2.0-0.14-0.126-3.126,0,1,1,90,false,stim,false,0,1229.5,1,1,2,51283,task3,596401,false,false,466,image-keyboard-response,28
true,7,0,1,2,false,d,true,false,0.0-2.0-0.14-0.127-3.127,0,0,1,81,true,stim,false,1,946.1999999999534,1,0,1,51283,task3,598861,false,false,469,image-keyboard-response,1
true,7,2,1,2,true,d,false,true,0.0-2.0-0.14-0.128-3.128,0,0,1,68,false,stim,false,1,822.0999999998603,1,0,1,51283,task3,601209,false,false,472,image-keyboard-response,2
true,7,0,1,2,false,d,false,false,0.0-2.0-0.14-0.129-3.129,0,0,1,81,false,stim,true,0,828.6000000000931,1,0,0,51283,task3,603567,false,false,475,image-keyboard-response,3
true,7,1,1,0,false,q,true,false,0.0-2.0-0.14-0.130-3.130,0,0,1,90,false,stim,false,0,1205.3000000000466,1,1,2,51283,task3,606289,false,false,478,image-keyboard-response,4
true,7,2,1,2,true,d,false,true,0.0-2.0-0.14-0.131-3.131,0,0,1,68,false,stim,false,0,916.3000000000466,1,0,0,51283,task3,608720,false,false,481,image-keyboard-response,5
true,7,2,1,2,true,d,false,false,0.0-2.0-0.14-0.132-3.132,0,0,1,68,false,stim,false,1,342.4000000001397,1,0,1,51283,task3,610589,false,true,484,image-keyboard-response,6
true,7,2,1,2,true,d,false,true,0.0-2.0-0.14-0.133-3.133,0,0,1,68,false,stim,false,0,367.30000000004657,1,0,0,51283,task3,612473,false,false,487,image-keyboard-response,7
true,7,2,1,0,false,q,true,false,0.0-2.0-0.14-0.134-3.134,0,0,1,68,false,stim,false,0,921.8999999999069,1,1,2,51283,task3,614912,false,false,490,image-keyboard-response,8
true,7,2,1,2,true,d,false,true,0.0-2.0-0.15-0.135-3.135,0,0,1,68,false,stim,false,0,666.1999999999534,1,0,0,51283,task3,617099,false,false,493,image-keyboard-response,9
true,7,2,1,2,true,d,false,true,0.0-2.0-0.15-0.136-3.136,0,0,1,68,false,stim,false,0,426.69999999995343,1,0,0,51283,task3,619038,false,false,496,image-keyboard-response,10
true,7,2,1,2,true,d,false,true,0.0-2.0-0.15-0.137-3.137,0,0,1,68,false,stim,false,1,574.6999999999534,1,0,1,51283,task3,621131,false,false,499,image-keyboard-response,11
true,7,2,1,2,true,d,false,true,0.0-2.0-0.15-0.138-3.138,0,0,1,68,false,stim,false,0,694.3999999999069,1,0,0,51283,task3,623342,false,false,502,image-keyboard-response,12
true,7,0,1,0,true,q,false,true,0.0-2.0-0.15-0.139-3.139,0,0,1,81,false,stim,false,0,622.7999999998137,1,1,2,51283,task3,625491,false,false,505,image-keyboard-response,13
true,7,2,1,2,true,d,false,true,0.0-2.0-0.15-0.140-3.140,0,0,1,68,false,stim,false,1,502.5,1,0,1,51283,task3,627519,false,false,508,image-keyboard-response,14
true,7,0,1,0,true,q,false,true,0.0-2.0-0.15-0.141-3.141,0,0,1,81,false,stim,false,0,574.7000000001863,1,1,2,51283,task3,629616,false,false,511,image-keyboard-response,15
true,7,0,1,0,true,q,false,true,0.0-2.0-0.15-0.142-3.142,0,0,1,81,false,stim,false,0,551.1999999999534,1,1,2,51283,task3,631695,false,false,514,image-keyboard-response,16
true,7,2,1,2,true,d,false,true,0.0-2.0-0.15-0.143-3.143,0,0,1,68,false,stim,false,1,507.80000000004657,1,0,1,51283,task3,633721,false,false,517,image-keyboard-response,17
true,7,2,1,2,true,d,false,true,0.0-2.0-0.16-0.144-3.144,0,0,1,68,false,stim,false,0,529.3999999999069,1,0,0,51283,task3,635767,false,false,520,image-keyboard-response,18
true,7,2,1,2,true,d,false,true,0.0-2.0-0.16-0.145-3.145,0,0,1,68,false,stim,false,0,434.5999999998603,1,0,0,51283,task3,637725,false,false,523,image-keyboard-response,19
true,7,2,1,2,true,d,false,true,0.0-2.0-0.16-0.146-3.146,0,0,1,68,false,stim,false,0,382.5,1,0,0,51283,task3,639632,false,false,526,image-keyboard-response,20
true,7,2,1,2,true,d,false,true,0.0-2.0-0.16-0.147-3.147,0,0,1,68,false,stim,false,1,490.5999999998603,1,0,1,51283,task3,641641,false,false,529,image-keyboard-response,21
true,7,0,1,0,true,q,false,true,0.0-2.0-0.16-0.148-3.148,0,0,1,81,false,stim,false,0,1207.8999999999069,1,1,2,51283,task3,644368,false,false,532,image-keyboard-response,22
true,7,0,1,0,true,q,false,true,0.0-2.0-0.16-0.149-3.149,0,0,1,81,false,stim,false,0,491.80000000004657,1,1,2,51283,task3,646374,false,false,535,image-keyboard-response,23
true,8,2,1,0,false,q,false,false,0.0-2.0-0.16-0.150-3.150,0,0,1,68,true,stim,true,2,836.3000000000466,1,0,1,51283,task3,648727,false,false,538,image-keyboard-response,1
true,8,0,1,0,true,q,false,true,0.0-2.0-0.16-0.151-3.151,0,0,1,81,false,stim,false,0,813.5,1,1,2,51283,task3,651057,false,false,541,image-keyboard-response,2
true,8,2,1,0,false,q,false,false,0.0-2.0-0.16-0.152-3.152,0,0,1,68,false,stim,true,2,514.8000000000466,1,0,1,51283,task3,653095,false,false,544,image-keyboard-response,3
true,8,1,1,0,false,q,true,false,0.0-2.0-0.17-0.153-3.153,0,0,1,90,false,stim,false,2,696.6000000000931,1,0,1,51283,task3,655319,false,false,547,image-keyboard-response,4
true,8,0,1,0,true,q,false,true,0.0-2.0-0.17-0.154-3.154,0,0,1,81,false,stim,false,2,559.3999999999069,1,0,1,51283,task3,657408,false,false,550,image-keyboard-response,5
true,8,0,1,0,true,q,false,true,0.0-2.0-0.17-0.155-3.155,0,0,1,81,false,stim,false,0,602.4000000001397,1,1,2,51283,task3,659535,false,false,553,image-keyboard-response,6
true,8,0,1,0,true,q,false,true,0.0-2.0-0.17-0.156-3.156,0,0,1,81,false,stim,false,2,397.30000000004657,1,0,1,51283,task3,661462,false,false,556,image-keyboard-response,7
true,8,0,1,0,true,q,false,true,0.0-2.0-0.17-0.157-3.157,0,0,1,81,false,stim,false,0,366.29999999981374,1,1,2,51283,task3,663350,false,false,559,image-keyboard-response,8
true,8,0,1,0,true,q,false,false,0.0-2.0-0.17-0.158-3.158,0,0,1,81,false,stim,false,0,422.0,1,1,2,51283,task3,665287,false,true,562,image-keyboard-response,9
true,8,2,1,1,false,z,false,false,0.0-2.0-0.17-0.159-3.159,0,0,1,68,false,stim,true,2,1341.9000000001397,1,0,0,51283,task3,668155,false,false,565,image-keyboard-response,10
true,8,1,1,1,true,z,false,true,0.0-2.0-0.17-0.160-3.160,0,0,1,90,false,stim,false,2,709.0,1,0,0,51283,task3,670380,false,false,568,image-keyboard-response,11
true,8,1,1,1,true,z,false,true,0.0-2.0-0.17-0.161-3.161,0,0,1,90,false,stim,false,2,402.80000000004657,1,0,0,51283,task3,672297,false,false,571,image-keyboard-response,12
true,8,0,1,0,true,q,false,true,0.0-2.0-0.18-0.162-3.162,0,0,1,81,false,stim,false,2,936.1999999999534,1,0,1,51283,task3,674761,false,false,574,image-keyboard-response,13
true,8,1,1,1,true,z,false,true,0.0-2.0-0.18-0.163-3.163,0,0,1,90,false,stim,false,2,560.9000000001397,1,0,0,51283,task3,676839,false,false,577,image-keyboard-response,14
true,8,0,1,0,true,q,false,false,0.0-2.0-0.18-0.164-3.164,0,0,1,81,false,stim,false,2,862.1999999999534,1,0,1,51283,task3,679213,false,true,580,image-keyboard-response,15
true,8,0,1,0,true,q,false,true,0.0-2.0-0.18-0.165-3.165,0,0,1,81,false,stim,false,0,1256.6999999999534,1,1,2,51283,task3,681991,false,false,583,image-keyboard-response,16
true,8,1,1,1,true,z,false,true,0.0-2.0-0.18-0.166-3.166,0,0,1,90,false,stim,false,2,733.1999999999534,1,0,0,51283,task3,684248,false,false,586,image-keyboard-response,17
true,8,0,1,0,true,q,false,false,0.0-2.0-0.18-0.167-3.167,0,0,1,81,false,stim,false,0,816.0,1,1,2,51283,task3,686581,false,true,589,image-keyboard-response,18
true,8,1,1,1,true,z,false,true,0.0-2.0-0.18-0.168-3.168,0,0,1,90,false,stim,false,2,488.0,1,0,0,51283,task3,688586,false,false,592,image-keyboard-response,19
true,8,2,1,0,false,q,false,false,0.0-2.0-0.18-0.169-3.169,0,0,1,68,false,stim,true,2,1809.7000000001863,1,1,1,51283,task3,691923,false,false,595,image-keyboard-response,20
true,8,0,1,0,true,q,false,true,0.0-2.0-0.18-0.170-3.170,0,0,1,81,false,stim,false,0,887.5,1,1,2,51283,task3,694333,false,false,598,image-keyboard-response,21
true,8,1,1,1,true,z,false,true,0.0-2.0-0.19-0.171-3.171,0,0,1,90,false,stim,false,2,381.0,1,0,0,51283,task3,696233,false,false,601,image-keyboard-response,22
true,8,1,1,1,true,z,false,true,0.0-2.0-0.19-0.172-3.172,0,0,1,90,false,stim,false,2,610.0999999998603,1,0,0,51283,task3,698363,false,false,604,image-keyboard-response,23
true,8,0,1,0,true,q,false,true,0.0-2.0-0.19-0.173-3.173,0,0,1,81,false,stim,false,2,1107.8999999999069,1,1,1,51283,task3,700988,false,false,607,image-keyboard-response,24
true,9,0,2,0,true,q,false,false,0.0-2.0-0.19-0.174-3.174,0,1,1,81,true,stim,false,0,815.3999999999069,1,1,2,51283,task3,703323,false,true,610,image-keyboard-response,1
true,9,0,2,0,true,q,false,true,0.0-2.0-0.19-0.175-3.175,0,1,1,81,false,stim,false,0,1166.1999999999534,1,1,2,51283,task3,706011,false,false,613,image-keyboard-response,2
true,9,0,2,0,true,q,false,true,0.0-2.0-0.19-0.176-3.176,0,1,1,81,false,stim,false,0,549.0,1,1,1,51283,task3,708078,false,false,616,image-keyboard-response,3
true,9,0,2,0,true,q,false,true,0.0-2.0-0.19-0.177-3.177,0,1,1,81,false,stim,false,0,399.9000000001397,1,1,2,51283,task3,710002,false,false,619,image-keyboard-response,4
true,9,0,2,0,true,q,false,true,0.0-2.0-0.19-0.178-3.178,0,1,1,81,false,stim,false,0,470.69999999995343,1,1,1,51283,task3,711986,false,false,622,image-keyboard-response,5
true,9,1,2,2,false,d,false,false,0.0-2.0-0.19-0.179-3.179,0,1,1,90,false,stim,true,1,598.0,1,0,0,51283,task3,714106,false,false,625,image-keyboard-response,6
true,9,0,2,0,true,q,false,true,0.0-2.0-0.20-0.180-3.180,0,1,1,81,false,stim,false,0,647.5,1,1,2,51283,task3,716272,false,false,628,image-keyboard-response,7
true,9,0,2,0,true,q,false,true,0.0-2.0-0.20-0.181-3.181,0,1,1,81,false,stim,false,0,490.5,1,0,1,51283,task3,718292,false,false,631,image-keyboard-response,8
true,9,1,2,2,false,d,false,false,0.0-2.0-0.20-0.182-3.182,0,1,1,90,false,stim,true,1,435.9000000001397,1,1,0,51283,task3,720246,false,false,634,image-keyboard-response,9
true,9,0,2,0,true,q,false,true,0.0-2.0-0.20-0.183-3.183,0,1,1,81,false,stim,false,0,392.30000000004657,1,1,2,51283,task3,722166,false,false,637,image-keyboard-response,10
true,9,2,2,2,true,d,false,false,0.0-2.0-0.20-0.184-3.184,0,1,1,68,false,stim,false,1,994.6000000000931,1,1,0,51283,task3,724686,false,true,640,image-keyboard-response,11
true,10,0,2,1,false,z,false,false,0.0-2.0-0.20-0.185-3.185,1,0,1,81,true,stim,true,0,722.2000000001863,1,0,1,51283,task3,726928,false,false,643,image-keyboard-response,1
true,10,1,2,1,true,z,false,true,0.0-2.0-0.20-0.186-3.186,1,0,1,90,false,stim,false,0,1109.6000000000931,1,0,1,51283,task3,729556,false,false,646,image-keyboard-response,2
true,10,0,2,0,true,q,false,true,0.0-2.0-0.20-0.187-3.187,1,0,1,81,false,stim,false,0,816.5,1,1,2,51283,task3,731904,false,false,649,image-keyboard-response,3
true,10,0,2,2,false,d,true,false,0.0-2.0-0.20-0.188-3.188,1,0,1,81,false,stim,false,2,690.4000000001397,1,1,0,51283,task3,734108,false,false,652,image-keyboard-response,4
true,10,1,2,1,true,z,false,true,0.0-2.0-0.21-0.189-3.189,1,0,1,90,false,stim,false,0,778.8999999999069,1,0,1,51283,task3,736406,false,false,655,image-keyboard-response,5
true,10,1,2,1,true,z,false,true,0.0-2.0-0.21-0.190-3.190,1,0,1,90,false,stim,false,0,672.5,1,0,1,51283,task3,738599,false,false,658,image-keyboard-response,6
true,10,2,2,2,true,d,false,true,0.0-2.0-0.21-0.191-3.191,1,0,1,68,false,stim,false,2,927.6999999999534,1,1,0,51283,task3,741048,false,false,661,image-keyboard-response,7
true,10,1,2,1,true,z,false,true,0.0-2.0-0.21-0.192-3.192,1,0,1,90,false,stim,false,0,832.4000000001397,1,0,1,51283,task3,743405,false,false,664,image-keyboard-response,8
true,10,0,2,0,true,q,false,true,0.0-2.0-0.21-0.193-3.193,1,0,1,81,false,stim,false,0,653.5,1,1,2,51283,task3,745584,false,false,667,image-keyboard-response,9
true,10,2,2,2,true,d,false,true,0.0-2.0-0.21-0.194-3.194,1,0,1,68,false,stim,false,2,585.6999999999534,1,0,0,51283,task3,747694,false,false,670,image-keyboard-response,10
true,10,0,2,0,true,q,false,true,0.0-2.0-0.21-0.195-3.195,1,0,1,81,false,stim,false,0,736.8999999999069,1,0,2,51283,task3,749959,false,false,673,image-keyboard-response,11
true,10,0,2,0,true,q,false,true,0.0-2.0-0.21-0.196-3.196,1,0,1,81,false,stim,false,0,665.0,1,0,2,51283,task3,752142,false,false,676,image-keyboard-response,12
true,10,2,2,2,true,d,false,true,0.0-2.0-0.21-0.197-3.197,1,0,1,68,false,stim,false,2,797.4000000001397,1,0,0,51283,task3,754466,false,false,679,image-keyboard-response,13
true,10,1,2,1,true,z,false,true,0.0-2.0-0.22-0.198-3.198,1,0,1,90,false,stim,false,0,594.5,1,1,1,51283,task3,756577,false,false,682,image-keyboard-response,14
true,11,0,1,2,false,d,false,false,0.0-2.0-0.22-0.199-3.199,0,1,0,81,true,stim,true,0,597.6999999999534,1,0,2,51283,task3,758700,false,false,685,image-keyboard-response,1
true,11,2,1,0,false,q,false,false,0.0-2.0-0.22-0.200-3.200,0,1,0,68,false,stim,true,2,723.3999999999069,1,0,0,51283,task3,760945,false,false,688,image-keyboard-response,2
true,11,1,1,0,false,q,true,false,0.0-2.0-0.22-0.201-3.201,0,1,0,90,false,stim,false,2,590.0999999998603,1,0,0,51283,task3,763064,false,false,691,image-keyboard-response,3
true,11,0,1,2,false,d,false,false,0.0-2.0-0.22-0.202-3.202,0,1,0,81,false,stim,true,0,745.1999999999534,1,0,2,51283,task3,765337,false,false,694,image-keyboard-response,4
true,11,1,1,1,true,z,false,true,0.0-2.0-0.22-0.203-3.203,0,1,0,90,false,stim,false,1,1122.7999999998137,1,1,1,51283,task3,767986,false,false,697,image-keyboard-response,5
true,11,0,1,0,true,q,false,false,0.0-2.0-0.22-0.204-3.204,0,1,0,81,false,stim,false,2,858.5,1,0,0,51283,task3,770365,false,true,700,image-keyboard-response,6
true,11,2,1,2,true,d,false,true,0.0-2.0-0.22-0.205-3.205,0,1,0,68,false,stim,false,0,914.6999999999534,1,0,2,51283,task3,772801,false,false,703,image-keyboard-response,7
true,11,1,1,1,true,z,false,true,0.0-2.0-0.22-0.206-3.206,0,1,0,90,false,stim,false,1,849.3000000000466,1,1,1,51283,task3,775174,false,false,706,image-keyboard-response,8
true,11,2,1,2,true,d,false,true,0.0-2.0-0.23-0.207-3.207,0,1,0,68,false,stim,false,0,714.6999999999534,1,0,2,51283,task3,777401,false,false,709,image-keyboard-response,9
true,11,2,1,2,true,d,false,true,0.0-2.0-0.23-0.208-3.208,0,1,0,68,false,stim,false,0,612.9000000001397,1,0,2,51283,task3,779538,false,false,712,image-keyboard-response,10
true,11,1,1,0,false,q,true,true,0.0-2.0-0.23-0.209-3.209,0,1,0,90,false,stim,false,2,1595.3000000000466,1,0,0,51283,task3,782652,false,true,715,image-keyboard-response,11
true,11,2,1,2,true,d,false,true,0.0-2.0-0.23-0.210-3.210,0,1,0,68,false,stim,false,0,588.3000000000466,1,0,2,51283,task3,784755,false,false,718,image-keyboard-response,12
true,11,1,1,1,true,z,false,true,0.0-2.0-0.23-0.211-3.211,0,1,0,90,false,stim,false,1,569.1000000000931,1,1,1,51283,task3,786848,false,false,721,image-keyboard-response,13
true,11,1,1,0,false,q,true,false,0.0-2.0-0.23-0.212-3.212,0,1,0,90,false,stim,false,2,644.1000000000931,1,0,0,51283,task3,789010,false,false,724,image-keyboard-response,14
true,11,1,1,1,true,z,false,false,0.0-2.0-0.23-0.213-3.213,0,1,0,90,false,stim,false,1,418.5,1,1,1,51283,task3,790947,false,true,727,image-keyboard-response,15
true,11,0,1,0,true,q,false,true,0.0-2.0-0.23-0.214-3.214,0,1,0,81,false,stim,false,2,522.5,1,0,0,51283,task3,792988,false,false,730,image-keyboard-response,16
true,11,0,1,1,false,z,true,false,0.0-2.0-0.23-0.215-3.215,0,1,0,81,false,stim,false,1,418.69999999995343,1,1,1,51283,task3,794920,false,false,733,image-keyboard-response,17
true,11,1,1,1,true,z,false,true,0.0-2.0-0.24-0.216-3.216,0,1,0,90,false,stim,false,1,635.8999999999069,1,1,1,51283,task3,797082,false,false,736,image-keyboard-response,18
true,11,0,1,0,true,q,false,true,0.0-2.0-0.24-0.217-3.217,0,1,0,81,false,stim,false,2,560.5,1,0,0,51283,task3,799169,false,false,739,image-keyboard-response,19
true,11,2,1,2,true,d,false,true,0.0-2.0-0.24-0.218-3.218,0,1,0,68,false,stim,false,0,595.0,1,0,2,51283,task3,801289,false,false,742,image-keyboard-response,20
true,11,2,1,2,true,d,false,false,0.0-2.0-0.24-0.219-3.219,0,1,0,68,false,stim,false,0,522.0,1,0,2,51283,task3,803341,false,true,745,image-keyboard-response,21
true,11,1,1,1,true,z,false,true,0.0-2.0-0.24-0.220-3.220,0,1,0,90,false,stim,false,1,870.1000000000931,1,1,1,51283,task3,805731,false,false,748,image-keyboard-response,22
true,11,1,1,2,false,d,true,false,0.0-2.0-0.24-0.221-3.221,0,1,0,90,false,stim,false,0,823.8000000000466,1,0,2,51283,task3,808079,false,false,751,image-keyboard-response,23
true,11,0,1,0,true,q,false,true,0.0-2.0-0.24-0.222-3.222,0,1,0,81,false,stim,false,2,585.5999999998603,1,0,0,51283,task3,810189,false,false,754,image-keyboard-response,24
true,11,1,1,1,true,z,false,true,0.0-2.0-0.24-0.223-3.223,0,1,0,90,false,stim,false,1,1915.6000000000931,1,1,1,51283,task3,813628,false,false,757,image-keyboard-response,25
true,11,0,1,0,true,q,false,true,0.0-2.0-0.24-0.224-3.224,0,1,0,81,false,stim,false,2,750.2999999998137,1,1,0,51283,task3,815897,false,false,760,image-keyboard-response,26
true,11,0,1,1,false,z,true,false,0.0-2.0-0.25-0.225-3.225,0,1,0,81,false,stim,false,1,520.8000000000466,1,1,1,51283,task3,817941,false,false,763,image-keyboard-response,27
true,11,1,1,1,true,z,false,true,0.0-2.0-0.25-0.226-3.226,0,1,0,90,false,stim,false,1,537.3999999999069,1,1,1,51283,task3,819995,false,false,766,image-keyboard-response,28
true,11,0,1,2,false,d,false,false,0.0-2.0-0.25-0.227-3.227,0,1,0,81,false,stim,true,0,710.1999999999534,1,0,2,51283,task3,822222,false,false,769,image-keyboard-response,29
true,12,1,2,1,true,z,false,true,0.0-2.0-0.25-0.228-3.228,1,1,0,90,true,stim,false,1,806.5,1,1,1,51283,task3,824543,false,false,772,image-keyboard-response,1
true,12,2,2,1,false,z,false,false,0.0-2.0-0.25-0.229-3.229,1,1,0,68,false,stim,true,2,947.4000000001397,1,0,2,51283,task3,827013,false,false,775,image-keyboard-response,2
true,12,0,2,0,true,q,false,true,0.0-2.0-0.25-0.230-3.230,1,1,0,81,false,stim,false,0,676.5999999998603,1,1,0,51283,task3,829212,false,false,778,image-keyboard-response,3
true,12,1,2,1,true,z,false,true,0.0-2.0-0.25-0.231-3.231,1,1,0,90,false,stim,false,2,618.3000000000466,1,0,2,51283,task3,831351,false,false,781,image-keyboard-response,4
true,12,0,2,0,true,q,false,true,0.0-2.0-0.25-0.232-3.232,1,1,0,81,false,stim,false,0,730.3000000000466,1,1,0,51283,task3,833595,false,false,784,image-keyboard-response,5
true,12,0,2,0,true,q,false,true,0.0-2.0-0.25-0.233-3.233,1,1,0,81,false,stim,false,0,488.0,1,1,0,51283,task3,835613,false,false,787,image-keyboard-response,6
true,12,0,2,0,true,q,false,true,0.0-2.0-0.26-0.234-3.234,1,1,0,81,false,stim,false,0,560.2000000001863,1,1,0,51283,task3,837687,false,false,790,image-keyboard-response,7
true,12,0,2,0,true,q,false,true,0.0-2.0-0.26-0.235-3.235,1,1,0,81,false,stim,false,0,503.0,1,1,0,51283,task3,839712,false,false,793,image-keyboard-response,8
true,12,1,2,1,true,z,false,true,0.0-2.0-0.26-0.236-3.236,1,1,0,90,false,stim,false,1,837.1999999999534,1,1,1,51283,task3,842069,false,false,796,image-keyboard-response,9
true,12,1,2,1,true,z,false,false,0.0-2.0-0.26-0.237-3.237,1,1,0,90,false,stim,false,2,819.4000000001397,1,0,2,51283,task3,844414,false,true,799,image-keyboard-response,10
true,12,2,2,1,false,z,false,false,0.0-2.0-0.26-0.238-3.238,1,1,0,68,false,stim,true,2,632.4000000001397,1,0,2,51283,task3,846588,false,false,802,image-keyboard-response,11
true,12,1,2,1,true,z,false,true,0.0-2.0-0.26-0.239-3.239,1,1,0,90,false,stim,false,1,970.6000000000931,1,1,1,51283,task3,849074,false,false,805,image-keyboard-response,12
true,12,0,2,0,true,q,false,true,0.0-2.0-0.26-0.240-3.240,1,1,0,81,false,stim,false,0,571.5,1,1,0,51283,task3,851160,false,false,808,image-keyboard-response,13
true,12,0,2,1,false,z,true,false,0.0-2.0-0.26-0.241-3.241,1,1,0,81,false,stim,false,1,613.0999999998603,1,1,1,51283,task3,853303,false,false,811,image-keyboard-response,14
true,12,0,2,1,false,z,true,false,0.0-2.0-0.26-0.242-3.242,1,1,0,81,false,stim,false,2,516.8000000000466,1,0,2,51283,task3,855344,false,false,814,image-keyboard-response,15
true,12,1,2,1,true,z,false,true,0.0-2.0-0.27-0.243-3.243,1,1,0,90,false,stim,false,1,446.10000000009313,1,1,1,51283,task3,857307,false,false,817,image-keyboard-response,16
true,12,1,2,1,true,z,false,true,0.0-2.0-0.27-0.244-3.244,1,1,0,90,false,stim,false,1,422.80000000004657,1,1,1,51283,task3,859244,false,false,820,image-keyboard-response,17
true,12,0,2,1,false,z,true,false,0.0-2.0-0.27-0.245-3.245,1,1,0,81,false,stim,false,2,719.8999999999069,1,0,2,51283,task3,861481,false,false,823,image-keyboard-response,18
true,12,0,2,0,true,q,false,true,0.0-2.0-0.27-0.246-3.246,1,1,0,81,false,stim,false,0,769.3999999999069,1,1,0,51283,task3,863775,false,false,826,image-keyboard-response,19
true,12,1,2,1,true,z,false,true,0.0-2.0-0.27-0.247-3.247,1,1,0,90,false,stim,false,2,843.1000000000931,1,0,2,51283,task3,866133,false,false,829,image-keyboard-response,20
true,12,0,2,0,true,q,false,true,0.0-2.0-0.27-0.248-3.248,1,1,0,81,false,stim,false,0,534.6999999999534,1,1,0,51283,task3,868195,false,false,832,image-keyboard-response,21
true,12,1,2,1,true,z,false,true,0.0-2.0-0.27-0.249-3.249,1,1,0,90,false,stim,false,2,538.0,1,0,2,51283,task3,870251,false,false,835,image-keyboard-response,22
true,12,1,2,1,true,z,false,true,0.0-2.0-0.27-0.250-3.250,1,1,0,90,false,stim,false,1,575.6999999999534,1,1,1,51283,task3,872350,false,false,838,image-keyboard-response,23
true,12,0,2,0,true,q,false,false,0.0-2.0-0.27-0.251-3.251,1,1,0,81,false,stim,false,0,554.3999999999069,1,0,0,51283,task3,874420,false,true,841,image-keyboard-response,24
true,12,1,2,1,true,z,false,false,0.0-2.0-0.28-0.252-3.252,1,1,0,90,false,stim,false,1,373.4000000001397,1,1,1,51283,task3,876315,false,true,844,image-keyboard-response,25
true,12,2,2,1,false,z,true,true,0.0-2.0-0.28-0.253-3.253,1,1,0,68,false,stim,false,1,1780.6999999999534,1,1,1,51283,task3,879622,false,true,847,image-keyboard-response,26
true,12,0,2,1,false,z,true,false,0.0-2.0-0.28-0.254-3.254,1,1,0,81,false,stim,false,2,1844.4000000001397,1,0,2,51283,task3,882983,false,false,850,image-keyboard-response,27
true,13,0,1,2,false,d,false,false,0.0-2.0-0.28-0.255-3.255,0,1,0,81,true,stim,true,0,644.6000000000931,1,0,0,51283,task3,885153,false,false,853,image-keyboard-response,1
true,13,1,1,2,false,d,true,false,0.0-2.0-0.28-0.256-3.256,0,1,0,90,false,stim,false,0,512.8999999999069,1,0,0,51283,task3,887183,false,false,856,image-keyboard-response,2
true,13,2,1,2,true,d,false,true,0.0-2.0-0.28-0.257-3.257,0,1,0,68,false,stim,false,1,703.1999999999534,1,0,2,51283,task3,889406,false,false,859,image-keyboard-response,3
true,13,2,1,2,true,d,false,true,0.0-2.0-0.28-0.258-3.258,0,1,0,68,false,stim,false,0,507.79999999981374,1,0,0,51283,task3,891430,false,false,862,image-keyboard-response,4
true,13,2,1,1,false,z,true,false,0.0-2.0-0.28-0.259-3.259,0,1,0,68,false,stim,false,1,546.8000000000466,1,1,1,51283,task3,893505,false,false,865,image-keyboard-response,5
true,13,2,1,2,true,d,false,true,0.0-2.0-0.28-0.260-3.260,0,1,0,68,false,stim,false,1,525.1000000000931,1,0,2,51283,task3,895547,false,false,868,image-keyboard-response,6
true,13,2,1,2,true,d,false,true,0.0-2.0-0.29-0.261-3.261,0,1,0,68,false,stim,false,1,447.5,1,0,2,51283,task3,897509,false,false,871,image-keyboard-response,7
true,13,2,1,2,true,d,false,true,0.0-2.0-0.29-0.262-3.262,0,1,0,68,false,stim,false,1,504.0,1,0,2,51283,task3,899531,false,false,874,image-keyboard-response,8
true,13,2,1,2,true,d,false,true,0.0-2.0-0.29-0.263-3.263,0,1,0,68,false,stim,false,0,527.8000000000466,1,0,0,51283,task3,901580,false,false,877,image-keyboard-response,9
true,13,2,1,1,false,z,true,false,0.0-2.0-0.29-0.264-3.264,0,1,0,68,false,stim,false,1,689.1000000000931,1,1,1,51283,task3,903793,false,false,880,image-keyboard-response,10
true,13,1,1,1,true,z,false,true,0.0-2.0-0.29-0.265-3.265,0,1,0,90,false,stim,false,1,709.0,1,1,1,51283,task3,906022,false,false,883,image-keyboard-response,11
true,13,2,1,2,true,d,false,true,0.0-2.0-0.29-0.266-3.266,0,1,0,68,false,stim,false,0,560.5,1,0,0,51283,task3,908097,false,false,886,image-keyboard-response,12
true,13,2,1,2,true,d,false,true,0.0-2.0-0.29-0.267-3.267,0,1,0,68,false,stim,false,1,627.3000000000466,1,0,2,51283,task3,910249,false,false,889,image-keyboard-response,13
true,13,1,1,2,false,d,true,false,0.0-2.0-0.29-0.268-3.268,0,1,0,90,false,stim,false,0,436.30000000004657,1,0,0,51283,task3,912201,false,false,892,image-keyboard-response,14
true,13,1,1,1,true,z,false,true,0.0-2.0-0.29-0.269-3.269,0,1,0,90,false,stim,false,1,689.3000000000466,1,1,1,51283,task3,914406,false,false,895,image-keyboard-response,15
true,13,2,1,2,true,d,false,true,0.0-2.0-0.30-0.270-3.270,0,1,0,68,false,stim,false,1,579.6999999999534,1,0,2,51283,task3,916507,false,false,898,image-keyboard-response,16
true,13,1,1,1,true,z,false,false,0.0-2.0-0.30-0.271-3.271,0,1,0,90,false,stim,false,1,665.6000000000931,1,1,1,51283,task3,918696,false,true,901,image-keyboard-response,17
true,13,1,1,2,false,d,true,false,0.0-2.0-0.30-0.272-3.272,0,1,0,90,false,stim,false,0,1174.6999999999534,1,0,0,51283,task3,921385,false,false,904,image-keyboard-response,18
true,13,2,1,2,true,d,false,true,0.0-2.0-0.30-0.273-3.273,0,1,0,68,false,stim,false,0,547.0,1,0,0,51283,task3,923457,false,false,907,image-keyboard-response,19
true,13,2,1,2,true,d,false,true,0.0-2.0-0.30-0.274-3.274,0,1,0,68,false,stim,false,1,723.1000000000931,1,0,2,51283,task3,925697,false,false,910,image-keyboard-response,20
true,13,2,1,2,true,d,false,true,0.0-2.0-0.30-0.275-3.275,0,1,0,68,false,stim,false,0,696.6000000000931,1,0,0,51283,task3,927906,false,false,913,image-keyboard-response,21
true,13,0,1,1,false,z,true,false,0.0-2.0-0.30-0.276-3.276,0,1,0,81,false,stim,false,1,558.3000000000466,1,1,1,51283,task3,929990,false,false,916,image-keyboard-response,22
true,13,2,1,2,true,d,false,true,0.0-2.0-0.30-0.277-3.277,0,1,0,68,false,stim,false,1,397.60000000009313,1,0,2,51283,task3,931904,false,false,919,image-keyboard-response,23
true,13,2,1,1,false,z,true,false,0.0-2.0-0.30-0.278-3.278,0,1,0,68,false,stim,false,1,569.6000000000931,1,1,1,51283,task3,933992,false,false,922,image-keyboard-response,24
true,13,2,1,2,true,d,false,false,0.0-2.0-0.31-0.279-3.279,0,1,0,68,false,stim,false,0,627.7999999998137,1,1,0,51283,task3,936152,false,true,925,image-keyboard-response,25
true,13,2,1,2,true,d,false,true,0.0-2.0-0.31-0.280-3.280,0,1,0,68,false,stim,false,1,707.0,1,0,2,51283,task3,938377,false,false,928,image-keyboard-response,26
true,13,1,1,1,true,z,false,false,0.0-2.0-0.31-0.281-3.281,0,1,0,90,false,stim,false,1,1048.3000000000466,1,1,1,51283,task3,940940,false,true,931,image-keyboard-response,27
true,13,2,1,2,true,d,false,true,0.0-2.0-0.31-0.282-3.282,0,1,0,68,false,stim,false,1,570.5,1,0,2,51283,task3,943026,false,false,934,image-keyboard-response,28
true,14,2,2,1,false,z,true,true,0.0-2.0-0.31-0.283-3.283,1,1,0,68,true,stim,false,1,377.19999999995343,1,1,1,51283,task3,944930,false,true,937,image-keyboard-response,1
true,14,2,2,1,false,z,true,false,0.0-2.0-0.31-0.284-3.284,1,1,0,68,false,stim,false,1,395.80000000004657,1,1,1,51283,task3,946846,false,false,940,image-keyboard-response,2
true,14,0,2,2,false,d,true,false,0.0-2.0-0.31-0.285-3.285,1,1,0,81,false,stim,false,2,1541.3999999999069,1,1,0,51283,task3,949914,false,false,943,image-keyboard-response,3
true,14,2,2,2,true,d,false,false,0.0-2.0-0.31-0.286-3.286,1,1,0,68,false,stim,false,2,714.4000000001397,1,1,0,51283,task3,952154,false,true,946,image-keyboard-response,4
true,14,2,2,1,false,z,false,true,0.0-2.0-0.31-0.287-3.287,1,1,0,68,false,stim,true,2,475.80000000004657,1,0,2,51283,task3,954154,false,true,949,image-keyboard-response,5
true,14,2,2,1,false,z,true,false,0.0-2.0-0.32-0.288-3.288,1,1,0,68,false,stim,false,1,946.1000000000931,1,1,1,51283,task3,956618,false,false,952,image-keyboard-response,6
true,14,2,2,2,true,d,false,true,0.0-2.0-0.32-0.289-3.289,1,1,0,68,false,stim,false,2,1193.3999999999069,1,1,0,51283,task3,959335,false,false,955,image-keyboard-response,7
true,14,2,2,2,true,d,false,false,0.0-2.0-0.32-0.290-3.290,1,1,0,68,false,stim,false,2,458.5,1,1,0,51283,task3,961315,false,true,958,image-keyboard-response,8
true,14,2,2,2,true,d,false,true,0.0-2.0-0.32-0.291-3.291,1,1,0,68,false,stim,false,2,383.60000000009313,1,1,0,51283,task3,963220,false,false,961,image-keyboard-response,9
true,14,2,2,1,false,z,false,false,0.0-2.0-0.32-0.292-3.292,1,1,0,68,false,stim,true,2,813.3999999999069,1,1,2,51283,task3,965546,false,false,964,image-keyboard-response,10
true,14,1,2,1,true,z,false,true,0.0-2.0-0.32-0.293-3.293,1,1,0,90,false,stim,false,1,674.5,1,0,1,51283,task3,967742,false,false,967,image-keyboard-response,11
true,14,1,2,1,true,z,false,false,0.0-2.0-0.32-0.294-3.294,1,1,0,90,false,stim,false,1,412.19999999995343,1,0,1,51283,task3,969684,false,true,970,image-keyboard-response,12
true,14,1,2,1,true,z,false,true,0.0-2.0-0.32-0.295-3.295,1,1,0,90,false,stim,false,2,953.1000000000931,1,1,2,51283,task3,972153,false,false,973,image-keyboard-response,13
true,14,1,2,1,true,z,false,true,0.0-2.0-0.32-0.296-3.296,1,1,0,90,false,stim,false,2,378.0,1,1,2,51283,task3,974053,false,false,976,image-keyboard-response,14
true,15,1,2,2,false,d,true,false,0.0-2.0-0.33-0.297-3.297,1,0,1,90,true,stim,false,2,1322.0,1,1,0,51283,task3,976895,false,false,979,image-keyboard-response,1
true,15,1,2,1,true,z,false,true,0.0-2.0-0.33-0.298-3.298,1,0,1,90,false,stim,false,1,582.6999999999534,1,1,2,51283,task3,978999,false,false,982,image-keyboard-response,2
true,15,2,2,2,true,d,false,true,0.0-2.0-0.33-0.299-3.299,1,0,1,68,false,stim,false,2,736.8999999999069,1,1,0,51283,task3,981250,false,false,985,image-keyboard-response,3
true,15,1,2,2,false,d,false,false,0.0-2.0-0.33-0.300-3.300,1,0,1,90,false,stim,true,1,769.6999999999534,1,0,1,51283,task3,983535,false,false,988,image-keyboard-response,4
true,15,0,2,2,false,d,true,false,0.0-2.0-0.33-0.301-3.301,1,0,1,81,false,stim,false,1,581.6000000000931,1,0,1,51283,task3,985635,false,false,991,image-keyboard-response,5
true,15,2,2,2,true,d,false,true,0.0-2.0-0.33-0.302-3.302,1,0,1,68,false,stim,false,1,408.30000000004657,1,0,1,51283,task3,987561,false,false,994,image-keyboard-response,6
true,15,2,2,1,false,z,true,false,0.0-2.0-0.33-0.303-3.303,1,0,1,68,false,stim,false,1,810.2000000001863,1,1,2,51283,task3,989893,false,false,997,image-keyboard-response,7
true,15,2,2,2,true,d,false,true,0.0-2.0-0.33-0.304-3.304,1,0,1,68,false,stim,false,2,396.29999999981374,1,1,0,51283,task3,991808,false,false,1000,image-keyboard-response,8
true,15,1,2,1,true,z,false,true,0.0-2.0-0.33-0.305-3.305,1,0,1,90,false,stim,false,1,630.6000000000931,1,1,2,51283,task3,993957,false,false,1003,image-keyboard-response,9
true,15,1,2,1,true,z,false,false,0.0-2.0-0.34-0.306-3.306,1,0,1,90,false,stim,false,1,424.70000000018626,1,1,2,51283,task3,995895,false,true,1006,image-keyboard-response,10
true,15,2,2,2,true,d,false,false,0.0-2.0-0.34-0.307-3.307,1,0,1,68,false,stim,false,1,505.80000000004657,1,1,1,51283,task3,997917,false,true,1009,image-keyboard-response,11
true,15,2,2,2,true,d,false,false,0.0-2.0-0.34-0.308-3.308,1,0,1,68,false,stim,false,1,625.1000000000931,1,1,1,51283,task3,1000055,false,true,1012,image-keyboard-response,12
true,15,1,2,2,false,d,false,false,0.0-2.0-0.34-0.309-3.309,1,0,1,90,false,stim,true,1,613.9000000001397,1,1,1,51283,task3,1002196,false,false,1015,image-keyboard-response,13
true,15,2,2,2,true,d,false,true,0.0-2.0-0.34-0.310-3.310,1,0,1,68,false,stim,false,2,635.6000000000931,1,0,0,51283,task3,1004346,false,false,1018,image-keyboard-response,14
true,15,1,2,1,true,z,false,true,0.0-2.0-0.34-0.311-3.311,1,0,1,90,false,stim,false,1,1129.0,1,0,2,51283,task3,1006987,false,false,1021,image-keyboard-response,15
true,16,2,1,0,false,q,false,true,0.0-2.0-0.34-0.312-3.312,0,1,0,68,true,stim,true,2,1157.2999999998137,1,0,0,51283,task3,1009669,false,true,1024,image-keyboard-response,1
true,16,1,1,0,false,q,false,false,0.0-2.0-0.34-0.313-3.313,0,1,0,90,false,stim,true,1,409.0999999998603,1,0,2,51283,task3,1011605,false,false,1027,image-keyboard-response,2
true,16,2,1,0,false,q,false,false,0.0-2.0-0.34-0.314-3.314,0,1,0,68,false,stim,true,2,580.0,1,0,0,51283,task3,1013708,false,false,1030,image-keyboard-response,3
true,16,0,1,2,false,d,true,true,0.0-2.0-0.35-0.315-3.315,0,1,0,81,false,stim,false,2,700.8000000000466,1,1,1,51283,task3,1015933,false,true,1033,image-keyboard-response,4
true,16,1,1,0,false,q,false,false,0.0-2.0-0.35-0.316-3.316,0,1,0,90,false,stim,true,1,1537.6999999999534,1,0,2,51283,task3,1018999,false,false,1036,image-keyboard-response,5
true,16,2,1,0,false,q,false,false,0.0-2.0-0.35-0.317-3.317,0,1,0,68,false,stim,true,2,476.80000000004657,1,0,0,51283,task3,1020997,false,false,1039,image-keyboard-response,6
true,16,2,1,0,false,q,true,false,0.0-2.0-0.35-0.318-3.318,0,1,0,68,false,stim,false,1,781.2000000001863,1,0,2,51283,task3,1023303,false,false,1042,image-keyboard-response,7
true,16,1,1,0,false,q,true,false,0.0-2.0-0.35-0.319-3.319,0,1,0,90,false,stim,false,2,1347.6000000000931,1,0,0,51283,task3,1026167,false,false,1045,image-keyboard-response,8
true,16,0,1,0,true,q,false,true,0.0-2.0-0.35-0.320-3.320,0,1,0,81,false,stim,false,2,467.30000000004657,1,0,0,51283,task3,1028158,false,false,1048,image-keyboard-response,9
true,16,0,1,2,false,d,true,false,0.0-2.0-0.35-0.321-3.321,0,1,0,81,false,stim,false,2,739.9000000001397,1,1,1,51283,task3,1030422,false,false,1051,image-keyboard-response,10
true,16,0,1,2,false,d,true,true,0.0-2.0-0.35-0.322-3.322,0,1,0,81,false,stim,false,2,991.1000000000931,1,1,1,51283,task3,1032928,false,true,1054,image-keyboard-response,11
true,16,0,1,0,true,q,false,true,0.0-2.0-0.35-0.323-3.323,0,1,0,81,false,stim,false,1,851.8000000000466,1,0,2,51283,task3,1035307,false,false,1057,image-keyboard-response,12
true,16,0,1,2,false,d,true,false,0.0-2.0-0.36-0.324-3.324,0,1,0,81,false,stim,false,2,392.19999999995343,1,1,1,51283,task3,1037223,false,false,1060,image-keyboard-response,13
true,16,0,1,0,true,q,false,false,0.0-2.0-0.36-0.325-3.325,0,1,0,81,false,stim,false,1,373.5999999998603,1,0,2,51283,task3,1039115,false,true,1063,image-keyboard-response,14
true,16,0,1,2,false,d,true,false,0.0-2.0-0.36-0.326-3.326,0,1,0,81,false,stim,false,2,707.8000000000466,1,1,1,51283,task3,1041344,false,false,1066,image-keyboard-response,15
true,16,0,1,0,true,q,false,true,0.0-2.0-0.36-0.327-3.327,0,1,0,81,false,stim,false,2,588.8999999999069,1,0,0,51283,task3,1043449,false,false,1069,image-keyboard-response,16
true,16,0,1,0,true,q,false,true,0.0-2.0-0.36-0.328-3.328,0,1,0,81,false,stim,false,2,449.89999999990687,1,0,0,51283,task3,1045423,false,false,1072,image-keyboard-response,17
true,16,1,1,2,false,d,true,false,0.0-2.0-0.36-0.329-3.329,0,1,0,90,false,stim,false,2,890.0,1,1,1,51283,task3,1047837,false,false,1075,image-keyboard-response,18
true,16,2,1,0,false,q,true,false,0.0-2.0-0.36-0.330-3.330,0,1,0,68,false,stim,false,1,810.6999999999534,1,0,2,51283,task3,1050167,false,false,1078,image-keyboard-response,19
true,16,1,1,0,false,q,false,false,0.0-2.0-0.36-0.331-3.331,0,1,0,90,false,stim,true,1,484.10000000009313,1,0,2,51283,task3,1052169,false,false,1081,image-keyboard-response,20
true,16,0,1,0,true,q,false,true,0.0-2.0-0.36-0.332-3.332,0,1,0,81,false,stim,false,2,616.8000000000466,1,0,0,51283,task3,1054310,false,false,1084,image-keyboard-response,21
true,16,1,1,2,false,d,true,false,0.0-2.0-0.37-0.333-3.333,0,1,0,90,false,stim,false,2,1078.6999999999534,1,1,1,51283,task3,1056917,false,false,1087,image-keyboard-response,22
true,16,2,1,2,true,d,false,true,0.0-2.0-0.37-0.334-3.334,0,1,0,68,false,stim,false,2,650.6999999999534,1,1,1,51283,task3,1059083,false,false,1090,image-keyboard-response,23
true,16,2,1,0,false,q,true,false,0.0-2.0-0.37-0.335-3.335,0,1,0,68,false,stim,false,1,1190.8999999999069,1,0,2,51283,task3,1061799,false,false,1093,image-keyboard-response,24
true,16,0,1,0,true,q,false,true,0.0-2.0-0.37-0.336-3.336,0,1,0,81,false,stim,false,1,864.2000000001863,1,0,2,51283,task3,1064189,false,false,1096,image-keyboard-response,25
true,16,0,1,0,true,q,false,true,0.0-2.0-0.37-0.337-3.337,0,1,0,81,false,stim,false,1,537.1999999999534,1,0,2,51283,task3,1066245,false,false,1099,image-keyboard-response,26
true,16,0,1,0,true,q,false,true,0.0-2.0-0.37-0.338-3.338,0,1,0,81,false,stim,false,2,544.5,1,1,0,51283,task3,1068311,false,false,1102,image-keyboard-response,27
true,16,0,1,0,true,q,false,true,0.0-2.0-0.37-0.339-3.339,0,1,0,81,false,stim,false,2,608.3000000000466,1,1,0,51283,task3,1070447,false,false,1105,image-keyboard-response,28
true,16,0,1,0,true,q,false,false,0.0-2.0-0.37-0.340-3.340,0,1,0,81,false,stim,false,2,458.39999999990687,1,1,0,51283,task3,1072429,false,true,1108,image-keyboard-response,29
true,17,2,1,0,false,q,false,false,0.0-2.0-0.37-0.341-3.341,1,0,0,68,true,stim,true,2,958.1000000000931,1,0,1,51283,task3,1074901,false,false,1111,image-keyboard-response,1
true,17,0,1,0,true,q,false,true,0.0-2.0-0.38-0.342-3.342,1,0,0,81,false,stim,false,0,658.3000000000466,1,1,0,51283,task3,1077085,false,false,1114,image-keyboard-response,2
true,17,2,1,1,false,z,true,false,0.0-2.0-0.38-0.343-3.343,1,0,0,68,false,stim,false,0,808.8000000000466,1,0,2,51283,task3,1079412,false,false,1117,image-keyboard-response,3
true,17,0,1,0,true,q,false,true,0.0-2.0-0.38-0.344-3.344,1,0,0,81,false,stim,false,0,400.5,1,1,0,51283,task3,1081320,false,false,1120,image-keyboard-response,4
true,17,0,1,0,true,q,false,true,0.0-2.0-0.38-0.345-3.345,1,0,0,81,false,stim,false,2,1017.5,1,0,1,51283,task3,1083855,false,false,1123,image-keyboard-response,5
true,17,0,1,0,true,q,false,true,0.0-2.0-0.38-0.346-3.346,1,0,0,81,false,stim,false,2,507.0,1,0,1,51283,task3,1085879,false,false,1126,image-keyboard-response,6
true,17,0,1,1,false,z,false,false,0.0-2.0-0.38-0.347-3.347,1,0,0,81,false,stim,true,0,1105.5,1,1,2,51283,task3,1088503,false,false,1129,image-keyboard-response,7
true,17,0,1,0,true,q,false,true,0.0-2.0-0.38-0.348-3.348,1,0,0,81,false,stim,false,2,644.2000000001863,1,1,1,51283,task3,1090666,false,false,1132,image-keyboard-response,8
true,17,0,1,0,true,q,false,true,0.0-2.0-0.38-0.349-3.349,1,0,0,81,false,stim,false,0,501.69999999995343,1,0,0,51283,task3,1092687,false,false,1135,image-keyboard-response,9
true,17,1,1,1,true,z,false,true,0.0-2.0-0.38-0.350-3.350,1,0,0,90,false,stim,false,0,1008.3000000000466,1,1,2,51283,task3,1095215,false,false,1138,image-keyboard-response,10
true,17,0,1,0,true,q,false,true,0.0-2.0-0.39-0.351-3.351,1,0,0,81,false,stim,false,2,585.2999999998137,1,1,1,51283,task3,1097326,false,false,1141,image-keyboard-response,11
true,18,1,2,1,true,z,false,true,0.0-2.0-0.39-0.352-3.352,0,1,1,90,true,stim,false,1,809.6000000000931,1,1,2,51283,task3,1099661,false,false,1144,image-keyboard-response,1
true,18,0,2,1,false,z,false,false,0.0-2.0-0.39-0.353-3.353,0,1,1,81,false,stim,true,0,525.5,1,0,0,51283,task3,1101705,false,false,1147,image-keyboard-response,2
true,18,1,2,0,false,q,true,false,0.0-2.0-0.39-0.354-3.354,0,1,1,90,false,stim,false,0,624.6999999999534,1,1,1,51283,task3,1103841,false,false,1150,image-keyboard-response,3
true,18,0,2,1,false,z,true,false,0.0-2.0-0.39-0.355-3.355,0,1,1,81,false,stim,false,1,443.5,1,1,2,51283,task3,1105801,false,false,1153,image-keyboard-response,4
true,18,0,2,1,false,z,false,false,0.0-2.0-0.39-0.356-3.356,0,1,1,81,false,stim,true,0,717.6000000000931,1,0,0,51283,task3,1108039,false,false,1156,image-keyboard-response,5
true,18,1,2,0,false,q,true,false,0.0-2.0-0.39-0.357-3.357,0,1,1,90,false,stim,false,0,523.1000000000931,1,1,1,51283,task3,1110081,false,false,1159,image-keyboard-response,6
true,18,2,2,1,false,z,true,true,0.0-2.0-0.39-0.358-3.358,0,1,1,68,false,stim,false,1,652.5,1,1,2,51283,task3,1112261,false,true,1162,image-keyboard-response,7
true,18,2,2,1,false,z,true,false,0.0-2.0-0.39-0.359-3.359,0,1,1,68,false,stim,false,0,511.4000000001397,1,0,0,51283,task3,1114301,false,false,1165,image-keyboard-response,8
true,18,2,2,0,false,q,true,false,0.0-2.0-0.40-0.360-3.360,0,1,1,68,false,stim,false,0,492.80000000004657,1,1,1,51283,task3,1116316,false,false,1168,image-keyboard-response,9
true,18,2,2,1,false,z,true,false,0.0-2.0-0.40-0.361-3.361,0,1,1,68,false,stim,false,1,460.80000000004657,1,1,2,51283,task3,1118290,false,false,1171,image-keyboard-response,10
true,18,2,2,1,false,z,true,false,0.0-2.0-0.40-0.362-3.362,0,1,1,68,false,stim,false,1,488.60000000009313,1,1,2,51283,task3,1120295,false,false,1174,image-keyboard-response,11
true,18,1,2,1,true,z,false,true,0.0-2.0-0.40-0.363-3.363,0,1,1,90,false,stim,false,0,697.6000000000931,1,0,0,51283,task3,1122521,false,false,1177,image-keyboard-response,12
true,18,1,2,1,true,z,false,true,0.0-2.0-0.40-0.364-3.364,0,1,1,90,false,stim,false,0,334.89999999990687,1,0,0,51283,task3,1124380,false,false,1180,image-keyboard-response,13
true,18,0,2,0,true,q,false,true,0.0-2.0-0.40-0.365-3.365,0,1,1,81,false,stim,false,0,1162.6999999999534,1,1,1,51283,task3,1127061,false,false,1183,image-keyboard-response,14
true,18,0,2,0,true,q,false,true,0.0-2.0-0.40-0.366-3.366,0,1,1,81,false,stim,false,0,485.60000000009313,1,1,1,51283,task3,1129075,false,false,1186,image-keyboard-response,15
true,18,1,2,1,true,z,false,true,0.0-2.0-0.40-0.367-3.367,0,1,1,90,false,stim,false,0,491.0,1,0,0,51283,task3,1131085,false,false,1189,image-keyboard-response,16
true,18,1,2,1,true,z,false,true,0.0-2.0-0.40-0.368-3.368,0,1,1,90,false,stim,false,1,597.9000000001397,1,1,2,51283,task3,1133201,false,false,1192,image-keyboard-response,17
true,18,1,2,1,true,z,false,true,0.0-2.0-0.41-0.369-3.369,0,1,1,90,false,stim,false,1,509.9000000001397,1,1,2,51283,task3,1135229,false,false,1195,image-keyboard-response,18
true,18,1,2,1,true,z,false,true,0.0-2.0-0.41-0.370-3.370,0,1,1,90,false,stim,false,1,383.4000000001397,1,1,2,51283,task3,1137139,false,false,1198,image-keyboard-response,19
true,18,1,2,1,true,z,false,true,0.0-2.0-0.41-0.371-3.371,0,1,1,90,false,stim,false,1,410.79999999981374,1,0,2,51283,task3,1139088,false,false,1201,image-keyboard-response,20
true,18,0,2,0,true,q,false,true,0.0-2.0-0.41-0.372-3.372,0,1,1,81,false,stim,false,0,1076.0,1,1,1,51283,task3,1141678,false,false,1204,image-keyboard-response,21
true,18,1,2,1,true,z,false,false,0.0-2.0-0.41-0.373-3.373,0,1,1,90,false,stim,false,0,2350.899999999907,1,0,0,51283,task3,1145548,false,true,1207,image-keyboard-response,22
true,18,0,2,0,true,q,false,true,0.0-2.0-0.41-0.374-3.374,0,1,1,81,false,stim,false,0,1991.6999999999534,1,1,1,51283,task3,1149054,false,false,1210,image-keyboard-response,23
true,18,0,2,1,false,z,false,false,0.0-2.0-0.41-0.375-3.375,0,1,1,81,false,stim,true,0,715.8000000000466,1,0,0,51283,task3,1151293,false,false,1213,image-keyboard-response,24
true,19,1,1,2,false,d,false,false,0.0-2.0-0.41-0.376-3.376,0,1,0,90,true,stim,true,1,1523.1999999999534,1,0,0,51283,task3,1154334,false,false,1216,image-keyboard-response,1
true,19,0,1,0,true,q,false,true,0.0-2.0-0.41-0.377-3.377,0,1,0,81,false,stim,false,0,896.1000000000931,1,1,1,51283,task3,1156752,false,false,1219,image-keyboard-response,2
true,19,0,1,2,false,d,true,false,0.0-2.0-0.42-0.378-3.378,0,1,0,81,false,stim,false,1,787.0,1,0,2,51283,task3,1159051,false,false,1222,image-keyboard-response,3
true,19,2,1,2,true,d,false,true,0.0-2.0-0.42-0.379-3.379,0,1,0,68,false,stim,false,1,1153.6000000000931,1,0,0,51283,task3,1161721,false,false,1225,image-keyboard-response,4
true,19,2,1,2,true,d,false,true,0.0-2.0-0.42-0.380-3.380,0,1,0,68,false,stim,false,1,422.0,1,0,0,51283,task3,1163661,false,false,1228,image-keyboard-response,5
true,19,1,1,2,false,d,false,false,0.0-2.0-0.42-0.381-3.381,0,1,0,90,false,stim,true,1,1098.1999999999534,1,0,2,51283,task3,1166283,false,false,1231,image-keyboard-response,6
true,19,0,1,2,false,d,true,false,0.0-2.0-0.42-0.382-3.382,0,1,0,81,false,stim,false,1,1058.1999999999534,1,0,2,51283,task3,1168868,false,false,1234,image-keyboard-response,7
true,19,2,1,0,false,q,true,false,0.0-2.0-0.42-0.383-3.383,0,1,0,68,false,stim,false,0,704.1000000000931,1,1,1,51283,task3,1171095,false,false,1237,image-keyboard-response,8
true,19,1,1,2,false,d,false,false,0.0-2.0-0.42-0.384-3.384,0,1,0,90,false,stim,true,1,687.3000000000466,1,0,0,51283,task3,1173303,false,false,1240,image-keyboard-response,9
true,19,0,1,0,true,q,false,true,0.0-2.0-0.42-0.385-3.385,0,1,0,81,false,stim,false,0,439.19999999995343,1,1,1,51283,task3,1175265,false,false,1243,image-keyboard-response,10
true,19,0,1,0,true,q,false,true,0.0-2.0-0.42-0.386-3.386,0,1,0,81,false,stim,false,0,557.3000000000466,1,1,1,51283,task3,1177340,false,false,1246,image-keyboard-response,11
true,19,2,1,2,true,d,false,true,0.0-2.0-0.43-0.387-3.387,0,1,0,68,false,stim,false,1,708.0,1,0,2,51283,task3,1179562,false,false,1249,image-keyboard-response,12
true,19,0,1,0,true,q,false,true,0.0-2.0-0.43-0.388-3.388,0,1,0,81,false,stim,false,0,629.5,1,1,1,51283,task3,1181705,false,false,1252,image-keyboard-response,13
true,19,0,1,0,true,q,false,true,0.0-2.0-0.43-0.389-3.389,0,1,0,81,false,stim,false,0,431.5,1,1,1,51283,task3,1183655,false,false,1255,image-keyboard-response,14
true,19,1,1,2,false,d,false,true,0.0-2.0-0.43-0.390-3.390,0,1,0,90,false,stim,true,1,702.0999999998603,1,0,0,51283,task3,1185869,false,true,1258,image-keyboard-response,15
true,19,1,1,2,false,d,false,false,0.0-2.0-0.43-0.391-3.391,0,1,0,90,false,stim,true,1,515.8000000000466,1,0,0,51283,task3,1187909,false,false,1261,image-keyboard-response,16
true,19,0,1,0,true,q,false,true,0.0-2.0-0.43-0.392-3.392,0,1,0,81,false,stim,false,0,639.8000000000466,1,1,1,51283,task3,1190069,false,false,1264,image-keyboard-response,17
true,19,2,1,2,true,d,false,true,0.0-2.0-0.43-0.393-3.393,0,1,0,68,false,stim,false,1,675.8999999999069,1,0,2,51283,task3,1192265,false,false,1267,image-keyboard-response,18
true,19,2,1,2,true,d,false,true,0.0-2.0-0.43-0.394-3.394,0,1,0,68,false,stim,false,1,401.60000000009313,1,0,2,51283,task3,1194195,false,false,1270,image-keyboard-response,19
true,19,0,1,2,false,d,true,false,0.0-2.0-0.43-0.395-3.395,0,1,0,81,false,stim,false,1,1366.5999999998603,1,1,0,51283,task3,1197083,false,false,1273,image-keyboard-response,20
true,19,1,1,0,false,q,true,false,0.0-2.0-0.44-0.396-3.396,0,1,0,90,false,stim,false,0,742.5,1,1,1,51283,task3,1199348,false,false,1276,image-keyboard-response,21
true,19,0,1,2,false,d,true,false,0.0-2.0-0.44-0.397-3.397,0,1,0,81,false,stim,false,1,720.5999999998603,1,1,0,51283,task3,1201598,false,false,1279,image-keyboard-response,22
true,19,2,1,2,true,d,false,true,0.0-2.0-0.44-0.398-3.398,0,1,0,68,false,stim,false,1,724.8000000000466,1,0,2,51283,task3,1203843,false,false,1282,image-keyboard-response,23
true,19,1,1,2,false,d,false,false,0.0-2.0-0.44-0.399-3.399,0,1,0,90,false,stim,true,1,635.1000000000931,1,1,0,51283,task3,1205993,false,false,1285,image-keyboard-response,24
true,20,2,2,2,true,d,false,true,0.0-2.0-0.44-0.400-3.400,1,1,0,68,true,stim,false,2,392.89999999990687,1,1,0,51283,task3,1207903,false,false,1288,image-keyboard-response,1
true,20,0,2,0,true,q,false,true,0.0-2.0-0.44-0.401-3.401,1,1,0,81,false,stim,false,0,792.3000000000466,1,1,1,51283,task3,1210219,false,false,1291,image-keyboard-response,2
true,20,2,2,1,false,z,false,true,0.0-2.0-0.44-0.402-3.402,1,1,0,68,false,stim,true,2,458.80000000004657,1,0,2,51283,task3,1212199,false,true,1294,image-keyboard-response,3
true,20,0,2,0,true,q,false,true,0.0-2.0-0.44-0.403-3.403,1,1,0,81,false,stim,false,0,869.0999999998603,1,1,1,51283,task3,1214591,false,false,1297,image-keyboard-response,4
true,20,2,2,1,false,z,false,false,0.0-2.0-0.44-0.404-3.404,1,1,0,68,false,stim,true,2,984.0999999998603,1,0,2,51283,task3,1217102,false,false,1300,image-keyboard-response,5
true,20,1,2,2,false,d,true,false,0.0-2.0-0.45-0.405-3.405,1,1,0,90,false,stim,false,2,712.9000000001397,1,1,0,51283,task3,1219335,false,false,1303,image-keyboard-response,6
true,20,0,2,0,true,q,false,true,0.0-2.0-0.45-0.406-3.406,1,1,0,81,false,stim,false,0,507.69999999995343,1,1,1,51283,task3,1221369,false,false,1306,image-keyboard-response,7
true,20,0,2,0,true,q,false,true,0.0-2.0-0.45-0.407-3.407,1,1,0,81,false,stim,false,0,420.9000000001397,1,1,1,51283,task3,1223302,false,false,1309,image-keyboard-response,8
true,20,2,2,1,false,z,false,true,0.0-2.0-0.45-0.408-3.408,1,1,0,68,false,stim,true,2,600.3000000000466,1,0,2,51283,task3,1225426,false,true,1312,image-keyboard-response,9
true,20,2,2,1,false,z,false,false,0.0-2.0-0.45-0.409-3.409,1,1,0,68,false,stim,true,2,450.5,1,0,2,51283,task3,1227393,false,false,1315,image-keyboard-response,10
true,20,2,2,2,true,d,false,true,0.0-2.0-0.45-0.410-3.410,1,1,0,68,false,stim,false,2,433.79999999981374,1,0,0,51283,task3,1229341,false,false,1318,image-keyboard-response,11
true,20,2,2,2,true,d,false,true,0.0-2.0-0.45-0.411-3.411,1,1,0,68,false,stim,false,2,384.0999999998603,1,0,0,51283,task3,1231250,false,false,1321,image-keyboard-response,12
true,20,2,2,1,false,z,false,false,0.0-2.0-0.45-0.412-3.412,1,1,0,68,false,stim,true,2,810.8000000000466,1,1,2,51283,task3,1233588,false,false,1324,image-keyboard-response,13
true,20,0,2,0,true,q,false,true,0.0-2.0-0.45-0.413-3.413,1,1,0,81,false,stim,false,0,555.1000000000931,1,0,1,51283,task3,1235659,false,false,1327,image-keyboard-response,14
true,20,0,2,0,true,q,false,true,0.0-2.0-0.46-0.414-3.414,1,1,0,81,false,stim,false,0,420.80000000004657,1,0,1,51283,task3,1237596,false,false,1330,image-keyboard-response,15
true,21,0,1,2,false,d,false,false,0.0-2.0-0.46-0.415-3.415,0,0,1,81,true,stim,true,0,355.0,1,0,1,51283,task3,1239476,false,false,1333,image-keyboard-response,1
true,21,1,1,1,true,z,false,true,0.0-2.0-0.46-0.416-3.416,0,0,1,90,false,stim,false,2,1368.1000000000931,1,0,0,51283,task3,1242363,false,false,1336,image-keyboard-response,2
true,21,2,1,1,false,z,true,false,0.0-2.0-0.46-0.417-3.417,0,0,1,68,false,stim,false,1,515.4000000001397,1,1,2,51283,task3,1244397,false,false,1339,image-keyboard-response,3
true,21,1,1,1,true,z,false,true,0.0-2.0-0.46-0.418-3.418,0,0,1,90,false,stim,false,1,792.6999999999534,1,1,2,51283,task3,1246708,false,false,1342,image-keyboard-response,4
true,21,1,1,1,true,z,false,true,0.0-2.0-0.46-0.419-3.419,0,0,1,90,false,stim,false,2,567.8999999999069,1,0,0,51283,task3,1248790,false,false,1345,image-keyboard-response,5
true,21,2,1,2,true,d,false,false,0.0-2.0-0.46-0.420-3.420,0,0,1,68,false,stim,false,0,470.19999999995343,1,0,1,51283,task3,1250777,false,true,1348,image-keyboard-response,6
true,21,1,1,1,true,z,false,true,0.0-2.0-0.46-0.421-3.421,0,0,1,90,false,stim,false,2,349.5,1,0,0,51283,task3,1252643,false,false,1351,image-keyboard-response,7
true,21,1,1,1,true,z,false,true,0.0-2.0-0.46-0.422-3.422,0,0,1,90,false,stim,false,1,659.3000000000466,1,1,2,51283,task3,1254816,false,false,1354,image-keyboard-response,8
true,21,0,1,2,false,d,false,false,0.0-2.0-0.47-0.423-3.423,0,0,1,81,false,stim,true,0,770.3000000000466,1,0,1,51283,task3,1257105,false,false,1357,image-keyboard-response,9
true,21,1,1,1,true,z,false,false,0.0-2.0-0.47-0.424-3.424,0,0,1,90,false,stim,false,1,371.89999999990687,1,1,2,51283,task3,1258989,false,true,1360,image-keyboard-response,10
true,21,1,1,1,true,z,false,true,0.0-2.0-0.47-0.425-3.425,0,0,1,90,false,stim,false,2,515.0,1,0,0,51283,task3,1261029,false,false,1363,image-keyboard-response,11
true,21,1,1,1,true,z,false,false,0.0-2.0-0.47-0.426-3.426,0,0,1,90,false,stim,false,1,728.0999999998603,1,1,2,51283,task3,1263279,false,true,1366,image-keyboard-response,12
true,21,1,1,1,true,z,false,true,0.0-2.0-0.47-0.427-3.427,0,0,1,90,false,stim,false,2,478.5,1,0,0,51283,task3,1265285,false,false,1369,image-keyboard-response,13
true,21,1,1,2,false,d,true,false,0.0-2.0-0.47-0.428-3.428,0,0,1,90,false,stim,false,0,850.4000000001397,1,0,1,51283,task3,1267665,false,false,1372,image-keyboard-response,14
true,21,1,1,1,true,z,false,true,0.0-2.0-0.47-0.429-3.429,0,0,1,90,false,stim,false,2,486.0999999998603,1,0,0,51283,task3,1269665,false,false,1375,image-keyboard-response,15
true,21,2,1,2,true,d,false,false,0.0-2.0-0.47-0.430-3.430,0,0,1,68,false,stim,false,0,674.3000000000466,1,0,1,51283,task3,1271853,false,true,1378,image-keyboard-response,16
true,21,1,1,1,true,z,false,true,0.0-2.0-0.47-0.431-3.431,0,0,1,90,false,stim,false,1,532.8000000000466,1,1,2,51283,task3,1273907,false,false,1381,image-keyboard-response,17
true,21,1,1,1,true,z,false,true,0.0-2.0-0.48-0.432-3.432,0,0,1,90,false,stim,false,1,444.10000000009313,1,1,2,51283,task3,1275871,false,false,1384,image-keyboard-response,18
true,21,2,1,2,true,d,false,true,0.0-2.0-0.48-0.433-3.433,0,0,1,68,false,stim,false,0,1444.6000000000931,1,0,1,51283,task3,1278835,false,false,1387,image-keyboard-response,19
true,21,1,1,1,true,z,false,true,0.0-2.0-0.48-0.434-3.434,0,0,1,90,false,stim,false,1,550.0999999998603,1,0,2,51283,task3,1280897,false,false,1390,image-keyboard-response,20
true,21,2,1,2,true,d,false,true,0.0-2.0-0.48-0.435-3.435,0,0,1,68,false,stim,false,0,471.80000000004657,1,0,1,51283,task3,1282891,false,false,1393,image-keyboard-response,21
true,21,1,1,1,true,z,false,true,0.0-2.0-0.48-0.436-3.436,0,0,1,90,false,stim,false,2,542.4000000001397,1,1,0,51283,task3,1284955,false,false,1396,image-keyboard-response,22
true,21,2,1,2,true,d,false,true,0.0-2.0-0.48-0.437-3.437,0,0,1,68,false,stim,false,0,788.4000000001397,1,0,1,51283,task3,1287274,false,false,1399,image-keyboard-response,23
true,21,1,1,1,true,z,false,false,0.0-2.0-0.48-0.438-3.438,0,0,1,90,false,stim,false,2,506.20000000018626,1,1,0,51283,task3,1289299,false,true,1402,image-keyboard-response,24
true,22,1,1,1,true,z,false,true,0.0-2.0-0.48-0.439-3.439,1,0,0,90,true,stim,false,1,1000.9000000001397,1,1,0,51283,task3,1291816,false,false,1405,image-keyboard-response,1
true,22,1,1,2,false,d,false,false,0.0-2.0-0.48-0.440-3.440,1,0,0,90,false,stim,true,1,1191.1000000000931,1,0,2,51283,task3,1294524,false,false,1408,image-keyboard-response,2
true,22,1,1,1,true,z,false,true,0.0-2.0-0.49-0.441-3.441,1,0,0,90,false,stim,false,1,610.4000000001397,1,1,0,51283,task3,1296657,false,false,1411,image-keyboard-response,3
true,22,0,1,2,false,d,true,false,0.0-2.0-0.49-0.442-3.442,1,0,0,81,false,stim,false,1,984.9000000001397,1,0,2,51283,task3,1299171,false,false,1414,image-keyboard-response,4
true,22,2,1,0,false,q,false,false,0.0-2.0-0.49-0.443-3.443,1,0,0,68,false,stim,true,2,637.1000000000931,1,0,1,51283,task3,1301334,false,false,1417,image-keyboard-response,5
true,22,2,1,2,true,d,false,true,0.0-2.0-0.49-0.444-3.444,1,0,0,68,false,stim,false,1,774.0999999998603,1,0,2,51283,task3,1303631,false,false,1420,image-keyboard-response,6
true,22,1,1,1,true,z,false,true,0.0-2.0-0.49-0.445-3.445,1,0,0,90,false,stim,false,1,509.10000000009313,1,1,0,51283,task3,1305666,false,false,1423,image-keyboard-response,7
true,22,2,1,2,true,d,false,false,0.0-2.0-0.49-0.446-3.446,1,0,0,68,false,stim,false,1,481.79999999981374,1,0,2,51283,task3,1307665,false,true,1426,image-keyboard-response,8
true,22,1,1,0,false,q,true,false,0.0-2.0-0.49-0.447-3.447,1,0,0,90,false,stim,false,2,394.0,1,0,1,51283,task3,1309585,false,false,1429,image-keyboard-response,9
true,22,2,1,0,false,q,false,false,0.0-2.0-0.49-0.448-3.448,1,0,0,68,false,stim,true,2,552.8000000000466,1,0,1,51283,task3,1311659,false,false,1432,image-keyboard-response,10
true,22,1,1,1,true,z,false,false,0.0-2.0-0.49-0.449-3.449,1,0,0,90,false,stim,false,1,770.5,1,1,0,51283,task3,1313947,false,true,1435,image-keyboard-response,11
true,22,0,1,1,false,z,true,false,0.0-2.0-0.50-0.450-3.450,1,0,0,81,false,stim,false,1,537.8000000000466,1,1,0,51283,task3,1316013,false,false,1438,image-keyboard-response,12
true,22,0,1,2,false,d,true,false,0.0-2.0-0.50-0.451-3.451,1,0,0,81,false,stim,false,1,739.5,1,0,2,51283,task3,1318268,false,false,1441,image-keyboard-response,13
true,22,2,1,1,false,z,true,false,0.0-2.0-0.50-0.452-3.452,1,0,0,68,false,stim,false,1,646.8000000000466,1,1,0,51283,task3,1320438,false,false,1444,image-keyboard-response,14
true,22,0,1,0,true,q,false,true,0.0-2.0-0.50-0.453-3.453,1,0,0,81,false,stim,false,2,942.1999999999534,1,0,1,51283,task3,1322909,false,false,1447,image-keyboard-response,15
true,22,0,1,0,true,q,false,true,0.0-2.0-0.50-0.454-3.454,1,0,0,81,false,stim,false,2,528.1000000000931,1,0,1,51283,task3,1324953,false,false,1450,image-keyboard-response,16
true,22,2,1,1,false,z,true,true,0.0-2.0-0.50-0.455-3.455,1,0,0,68,false,stim,false,1,1000.3999999999069,1,1,0,51283,task3,1327481,false,true,1453,image-keyboard-response,17
true,22,0,1,0,true,q,false,true,0.0-2.0-0.50-0.456-3.456,1,0,0,81,false,stim,false,2,518.0,1,0,1,51283,task3,1329521,false,false,1456,image-keyboard-response,18
true,22,1,1,2,false,d,false,false,0.0-2.0-0.50-0.457-3.457,1,0,0,90,false,stim,true,1,701.4000000001397,1,0,2,51283,task3,1331745,false,false,1459,image-keyboard-response,19
true,22,2,1,2,true,d,false,true,0.0-2.0-0.50-0.458-3.458,1,0,0,68,false,stim,false,1,499.80000000004657,1,0,2,51283,task3,1333773,false,false,1462,image-keyboard-response,20
true,22,2,1,2,true,d,false,true,0.0-2.0-0.51-0.459-3.459,1,0,0,68,false,stim,false,1,456.19999999995343,1,0,2,51283,task3,1335751,false,false,1465,image-keyboard-response,21
true,22,2,1,2,true,d,false,true,0.0-2.0-0.51-0.460-3.460,1,0,0,68,false,stim,false,1,420.60000000009313,1,0,2,51283,task3,1337685,false,false,1468,image-keyboard-response,22
true,22,2,1,2,true,d,false,true,0.0-2.0-0.51-0.461-3.461,1,0,0,68,false,stim,false,1,335.60000000009313,1,0,2,51283,task3,1339545,false,false,1471,image-keyboard-response,23
true,22,2,1,1,false,z,true,false,0.0-2.0-0.51-0.462-3.462,1,0,0,68,false,stim,false,1,483.5999999998603,1,1,0,51283,task3,1341545,false,false,1474,image-keyboard-response,24
true,22,0,1,0,true,q,false,true,0.0-2.0-0.51-0.463-3.463,1,0,0,81,false,stim,false,2,622.2000000001863,1,0,1,51283,task3,1343686,false,false,1477,image-keyboard-response,25
true,22,1,1,1,true,z,false,true,0.0-2.0-0.51-0.464-3.464,1,0,0,90,false,stim,false,1,475.0,1,0,0,51283,task3,1345684,false,false,1480,image-keyboard-response,26
true,22,0,1,0,true,q,false,true,0.0-2.0-0.51-0.465-3.465,1,0,0,81,false,stim,false,2,659.6000000000931,1,0,1,51283,task3,1347863,false,false,1483,image-keyboard-response,27
true,22,0,1,0,true,q,false,true,0.0-2.0-0.51-0.466-3.466,1,0,0,81,false,stim,false,2,463.80000000004657,1,0,1,51283,task3,1349851,false,false,1486,image-keyboard-response,28
true,22,1,1,1,true,z,false,true,0.0-2.0-0.51-0.467-3.467,1,0,0,90,false,stim,false,1,467.60000000009313,1,0,0,51283,task3,1351840,false,false,1489,image-keyboard-response,29
true,23,1,1,0,false,q,false,false,0.0-2.0-0.52-0.468-3.468,0,0,1,90,true,stim,true,1,422.9000000001397,1,0,0,51283,task3,1353785,false,false,1492,image-keyboard-response,1
true,23,0,1,2,false,d,false,false,0.0-2.0-0.52-0.469-3.469,0,0,1,81,false,stim,true,0,543.0,1,0,1,51283,task3,1355855,false,false,1495,image-keyboard-response,2
true,23,2,1,2,true,d,false,true,0.0-2.0-0.52-0.470-3.470,0,0,1,68,false,stim,false,2,465.4000000001397,1,1,2,51283,task3,1357845,false,false,1498,image-keyboard-response,3
true,23,1,1,2,false,d,true,false,0.0-2.0-0.52-0.471-3.471,0,0,1,90,false,stim,false,0,784.0999999998603,1,0,1,51283,task3,1360159,false,false,1501,image-keyboard-response,4
true,23,2,1,2,true,d,false,true,0.0-2.0-0.52-0.472-3.472,0,0,1,68,false,stim,false,2,511.0999999998603,1,1,2,51283,task3,1362188,false,false,1504,image-keyboard-response,5
true,23,0,1,0,true,q,false,true,0.0-2.0-0.52-0.473-3.473,0,0,1,81,false,stim,false,1,682.8999999999069,1,0,0,51283,task3,1364397,false,false,1507,image-keyboard-response,6
true,23,2,1,2,true,d,false,false,0.0-2.0-0.52-0.474-3.474,0,0,1,68,false,stim,false,0,418.0999999998603,1,0,1,51283,task3,1366329,false,true,1510,image-keyboard-response,7
true,23,0,1,0,true,q,false,true,0.0-2.0-0.52-0.475-3.475,0,0,1,81,false,stim,false,1,500.10000000009313,1,0,0,51283,task3,1368355,false,false,1513,image-keyboard-response,8
true,23,2,1,2,true,d,false,true,0.0-2.0-0.52-0.476-3.476,0,0,1,68,false,stim,false,2,657.8000000000466,1,1,2,51283,task3,1370534,false,false,1516,image-keyboard-response,9
true,23,0,1,2,false,d,false,false,0.0-2.0-0.53-0.477-3.477,0,0,1,81,false,stim,true,0,367.4000000001397,1,0,1,51283,task3,1372419,false,false,1519,image-keyboard-response,10
true,23,1,1,2,false,d,true,false,0.0-2.0-0.53-0.478-3.478,0,0,1,90,false,stim,false,0,497.5,1,0,1,51283,task3,1374430,false,false,1522,image-keyboard-response,11
true,23,2,1,2,true,d,false,true,0.0-2.0-0.53-0.479-3.479,0,0,1,68,false,stim,false,2,473.30000000004657,1,1,2,51283,task3,1376432,false,false,1525,image-keyboard-response,12
true,23,2,1,2,true,d,false,true,0.0-2.0-0.53-0.480-3.480,0,0,1,68,false,stim,false,2,439.5,1,1,2,51283,task3,1378391,false,false,1528,image-keyboard-response,13
true,23,0,1,0,true,q,false,true,0.0-2.0-0.53-0.481-3.481,0,0,1,81,false,stim,false,1,618.6999999999534,1,0,0,51283,task3,1380532,false,false,1531,image-keyboard-response,14
true,23,2,1,2,true,d,false,true,0.0-2.0-0.53-0.482-3.482,0,0,1,68,false,stim,false,2,567.0,1,1,2,51283,task3,1382624,false,false,1534,image-keyboard-response,15
true,23,0,1,0,true,q,false,true,0.0-2.0-0.53-0.483-3.483,0,0,1,81,false,stim,false,1,661.5,1,0,0,51283,task3,1384804,false,false,1537,image-keyboard-response,16
true,23,2,1,2,true,d,false,true,0.0-2.0-0.53-0.484-3.484,0,0,1,68,false,stim,false,0,546.1999999999534,1,0,1,51283,task3,1386866,false,false,1540,image-keyboard-response,17
true,23,0,1,0,true,q,false,true,0.0-2.0-0.53-0.485-3.485,0,0,1,81,false,stim,false,1,574.0999999998603,1,0,0,51283,task3,1388952,false,false,1543,image-keyboard-response,18
true,23,0,1,0,true,q,false,true,0.0-2.0-0.54-0.486-3.486,0,0,1,81,false,stim,false,1,580.8000000000466,1,0,0,51283,task3,1391058,false,false,1546,image-keyboard-response,19
true,23,2,1,2,true,d,false,true,0.0-2.0-0.54-0.487-3.487,0,0,1,68,false,stim,false,0,399.89999999990687,1,0,1,51283,task3,1392976,false,false,1549,image-keyboard-response,20
true,23,0,1,0,true,q,false,true,0.0-2.0-0.54-0.488-3.488,0,0,1,81,false,stim,false,1,688.1999999999534,1,0,0,51283,task3,1395194,false,false,1552,image-keyboard-response,21
true,23,2,1,2,true,d,false,true,0.0-2.0-0.54-0.489-3.489,0,0,1,68,false,stim,false,2,540.9000000001397,1,1,2,51283,task3,1397252,false,false,1555,image-keyboard-response,22
true,23,0,1,0,true,q,false,true,0.0-2.0-0.54-0.490-3.490,0,0,1,81,false,stim,false,1,545.0,1,0,0,51283,task3,1399325,false,false,1558,image-keyboard-response,23
true,23,2,1,2,true,d,false,true,0.0-2.0-0.54-0.491-3.491,0,0,1,68,false,stim,false,0,502.5,1,0,1,51283,task3,1401343,false,false,1561,image-keyboard-response,24
true,23,2,1,2,true,d,false,true,0.0-2.0-0.54-0.492-3.492,0,0,1,68,false,stim,false,2,662.0,1,1,2,51283,task3,1403530,false,false,1564,image-keyboard-response,25
true,23,2,1,2,true,d,false,true,0.0-2.0-0.54-0.493-3.493,0,0,1,68,false,stim,false,2,402.4000000001397,1,1,2,51283,task3,1405449,false,false,1567,image-keyboard-response,26
true,23,2,1,2,true,d,false,true,0.0-2.0-0.54-0.494-3.494,0,0,1,68,false,stim,false,0,950.9000000001397,1,0,1,51283,task3,1407918,false,false,1570,image-keyboard-response,27
true,23,0,1,0,true,q,false,true,0.0-2.0-0.55-0.495-3.495,0,0,1,81,false,stim,false,1,424.69999999995343,1,1,0,51283,task3,1409866,false,false,1573,image-keyboard-response,28
true,24,2,2,0,false,q,false,false,0.0-2.0-0.55-0.496-3.496,1,0,1,68,true,stim,true,2,524.2999999998137,1,0,1,51283,task3,1411911,false,false,1576,image-keyboard-response,1
true,24,2,2,0,false,q,false,false,0.0-2.0-0.55-0.497-3.497,1,0,1,68,false,stim,true,2,1707.0,1,0,1,51283,task3,1415134,false,false,1579,image-keyboard-response,2
true,24,0,2,0,true,q,false,true,0.0-2.0-0.55-0.498-3.498,1,0,1,81,false,stim,false,2,987.1000000000931,1,0,1,51283,task3,1417638,false,false,1582,image-keyboard-response,3
true,24,0,2,0,true,q,false,true,0.0-2.0-0.55-0.499-3.499,1,0,1,81,false,stim,false,0,569.3000000000466,1,1,0,51283,task3,1419724,false,false,1585,image-keyboard-response,4
true,24,0,2,0,true,q,false,true,0.0-2.0-0.55-0.500-3.500,1,0,1,81,false,stim,false,0,479.39999999990687,1,1,0,51283,task3,1421720,false,false,1588,image-keyboard-response,5
true,24,2,2,2,true,d,false,true,0.0-2.0-0.55-0.501-3.501,1,0,1,68,false,stim,false,2,708.0,1,1,2,51283,task3,1423946,false,false,1591,image-keyboard-response,6
true,24,2,2,2,true,d,false,true,0.0-2.0-0.55-0.502-3.502,1,0,1,68,false,stim,false,2,482.80000000004657,1,1,2,51283,task3,1425958,false,false,1594,image-keyboard-response,7
true,24,2,2,2,true,d,false,true,0.0-2.0-0.55-0.503-3.503,1,0,1,68,false,stim,false,2,392.9000000001397,1,1,2,51283,task3,1427876,false,false,1597,image-keyboard-response,8
true,24,2,2,2,true,d,false,true,0.0-2.0-0.56-0.504-3.504,1,0,1,68,false,stim,false,2,420.69999999995343,1,1,2,51283,task3,1429818,false,false,1600,image-keyboard-response,9
true,24,2,2,2,true,d,false,true,0.0-2.0-0.56-0.505-3.505,1,0,1,68,false,stim,false,2,391.5,1,1,2,51283,task3,1431732,false,false,1603,image-keyboard-response,10
true,24,0,2,0,true,q,false,true,0.0-2.0-0.56-0.506-3.506,1,0,1,81,false,stim,false,2,568.6999999999534,1,0,1,51283,task3,1433826,false,false,1606,image-keyboard-response,11
true,24,0,2,0,true,q,false,true,0.0-2.0-0.56-0.507-3.507,1,0,1,81,false,stim,false,2,343.39999999990687,1,0,1,51283,task3,1435687,false,false,1609,image-keyboard-response,12
true,24,2,2,2,true,d,false,true,0.0-2.0-0.56-0.508-3.508,1,0,1,68,false,stim,false,2,1103.0999999998603,1,1,2,51283,task3,1438319,false,false,1612,image-keyboard-response,13
true,24,0,2,0,true,q,false,false,0.0-2.0-0.56-0.509-3.509,1,0,1,81,false,stim,false,0,617.3000000000466,1,1,0,51283,task3,1440456,false,true,1615,image-keyboard-response,14
true,24,2,2,0,false,q,true,false,0.0-2.0-0.56-0.510-3.510,1,0,1,68,false,stim,false,0,1351.3000000000466,1,1,0,51283,task3,1443335,false,false,1618,image-keyboard-response,15
true,24,1,2,0,false,q,true,false,0.0-2.0-0.56-0.511-3.511,1,0,1,90,false,stim,false,0,504.60000000009313,1,1,0,51283,task3,1445355,false,false,1621,image-keyboard-response,16
true,24,0,2,0,true,q,false,true,0.0-2.0-0.56-0.512-3.512,1,0,1,81,false,stim,false,2,465.0,1,0,1,51283,task3,1447335,false,false,1624,image-keyboard-response,17
true,24,0,2,0,true,q,false,true,0.0-2.0-0.57-0.513-3.513,1,0,1,81,false,stim,false,0,407.0999999998603,1,1,0,51283,task3,1449256,false,false,1627,image-keyboard-response,18
true,24,0,2,0,true,q,false,true,0.0-2.0-0.57-0.514-3.514,1,0,1,81,false,stim,false,0,476.0,1,1,0,51283,task3,1451253,false,false,1630,image-keyboard-response,19
true,24,0,2,0,true,q,false,true,0.0-2.0-0.57-0.515-3.515,1,0,1,81,false,stim,false,2,744.5,1,0,1,51283,task3,1453520,false,false,1633,image-keyboard-response,20
true,24,0,2,0,true,q,false,true,0.0-2.0-0.57-0.516-3.516,1,0,1,81,false,stim,false,2,352.60000000009313,1,0,1,51283,task3,1455399,false,false,1636,image-keyboard-response,21
true,24,0,2,0,true,q,false,true,0.0-2.0-0.57-0.517-3.517,1,0,1,81,false,stim,false,0,517.8000000000466,1,1,0,51283,task3,1457433,false,false,1639,image-keyboard-response,22
true,24,2,2,2,true,d,false,true,0.0-2.0-0.57-0.518-3.518,1,0,1,68,false,stim,false,2,705.2999999998137,1,0,2,51283,task3,1459658,false,false,1642,image-keyboard-response,23
true,24,2,2,2,true,d,false,true,0.0-2.0-0.57-0.519-3.519,1,0,1,68,false,stim,false,2,396.10000000009313,1,0,2,51283,task3,1461576,false,false,1645,image-keyboard-response,24
true,25,0,1,2,false,d,false,false,0.0-2.0-0.57-0.520-3.520,1,0,0,81,true,stim,true,0,771.5,1,0,1,51283,task3,1463866,false,false,1648,image-keyboard-response,1
true,25,2,1,1,false,z,false,false,0.0-2.0-0.57-0.521-3.521,1,0,0,68,false,stim,true,2,493.80000000004657,1,0,2,51283,task3,1465874,false,false,1651,image-keyboard-response,2
true,25,0,1,0,true,q,false,true,0.0-2.0-0.58-0.522-3.522,1,0,0,81,false,stim,false,0,780.1999999999534,1,1,0,51283,task3,1468184,false,false,1654,image-keyboard-response,3
true,25,2,1,2,true,d,false,true,0.0-2.0-0.58-0.523-3.523,1,0,0,68,false,stim,false,0,989.3000000000466,1,0,1,51283,task3,1470697,false,false,1657,image-keyboard-response,4
true,25,0,1,0,true,q,false,true,0.0-2.0-0.58-0.524-3.524,1,0,0,81,false,stim,false,0,499.5,1,1,0,51283,task3,1472711,false,false,1660,image-keyboard-response,5
true,25,0,1,1,false,z,true,true,0.0-2.0-0.58-0.525-3.525,1,0,0,81,false,stim,false,2,635.5999999998603,1,0,2,51283,task3,1474869,false,true,1663,image-keyboard-response,6
true,25,2,1,2,true,d,false,true,0.0-2.0-0.58-0.526-3.526,1,0,0,68,false,stim,false,0,733.8000000000466,1,0,1,51283,task3,1477123,false,false,1666,image-keyboard-response,7
true,25,2,1,2,true,d,false,true,0.0-2.0-0.58-0.527-3.527,1,0,0,68,false,stim,false,0,463.30000000004657,1,0,1,51283,task3,1479107,false,false,1669,image-keyboard-response,8
true,25,0,1,1,false,z,true,false,0.0-2.0-0.58-0.528-3.528,1,0,0,81,false,stim,false,2,578.3999999999069,1,0,2,51283,task3,1481213,false,false,1672,image-keyboard-response,9
true,25,0,1,0,true,q,false,true,0.0-2.0-0.58-0.529-3.529,1,0,0,81,false,stim,false,0,640.6999999999534,1,1,0,51283,task3,1483376,false,false,1675,image-keyboard-response,10
true,25,2,1,1,false,z,false,false,0.0-2.0-0.58-0.530-3.530,1,0,0,68,false,stim,true,2,419.20000000018626,1,1,2,51283,task3,1485311,false,false,1678,image-keyboard-response,11
true,25,1,1,1,true,z,false,false,0.0-2.0-0.59-0.531-3.531,1,0,0,90,false,stim,false,2,498.19999999995343,1,1,2,51283,task3,1487330,false,true,1681,image-keyboard-response,12
true,25,0,1,2,false,d,false,false,0.0-2.0-0.59-0.532-3.532,1,0,0,81,false,stim,true,0,902.5,1,1,1,51283,task3,1489761,false,false,1684,image-keyboard-response,13
true,25,0,1,0,true,q,false,true,0.0-2.0-0.59-0.533-3.533,1,0,0,81,false,stim,false,0,636.6000000000931,1,1,0,51283,task3,1491927,false,false,1687,image-keyboard-response,14
false,26,-1,0,1,false,z,true,false,0.0-2.0-0.59-0.534-3.534,1,1,1,,true,stim,false,1,,1,1,2,51283,task3,1617295,false,false,1810,image-keyboard-response,1
false,26,-1,0,0,false,q,true,false,0.0-2.0-0.59-0.535-3.535,1,1,1,,false,stim,false,0,,1,1,0,51283,task3,1621817,false,false,1813,image-keyboard-response,2
true,26,0,0,2,false,d,true,false,0.0-2.0-0.59-0.536-3.536,1,1,1,81,false,stim,false,2,1842.7000000001863,1,1,1,51283,task3,1625172,false,false,1816,image-keyboard-response,3
true,26,2,0,1,false,z,true,false,0.0-2.0-0.59-0.537-3.537,1,1,1,68,false,stim,false,1,1561.4000000003725,1,1,2,51283,task3,1628254,false,false,1819,image-keyboard-response,4
true,26,1,0,0,false,q,true,false,0.0-2.0-0.59-0.538-3.538,1,1,1,90,false,stim,false,0,1524.3999999999069,1,1,0,51283,task3,1631303,false,false,1822,image-keyboard-response,5
true,26,2,0,2,true,d,false,true,0.0-2.0-0.59-0.539-3.539,1,1,1,68,false,stim,false,2,1657.8000000002794,1,1,1,51283,task3,1634484,false,false,1825,image-keyboard-response,6
true,26,2,0,0,false,q,true,false,0.0-2.0-0.60-0.540-3.540,1,1,1,68,false,stim,false,0,1162.1000000000931,1,0,0,51283,task3,1637166,false,false,1828,image-keyboard-response,7
true,26,2,0,1,false,z,true,false,0.0-2.0-0.60-0.541-3.541,1,1,1,68,false,stim,false,1,441.39999999990687,1,0,2,51283,task3,1639123,false,false,1831,image-keyboard-response,8
true,26,0,0,2,false,d,true,false,0.0-2.0-0.60-0.542-3.542,1,1,1,81,false,stim,false,2,1049.4000000003725,1,1,1,51283,task3,1641695,false,false,1834,image-keyboard-response,9
true,26,1,0,1,true,z,false,true,0.0-2.0-0.60-0.543-3.543,1,1,1,90,false,stim,false,1,1266.3000000002794,1,0,2,51283,task3,1644486,false,false,1837,image-keyboard-response,10
true,26,1,0,0,false,q,true,false,0.0-2.0-0.60-0.544-3.544,1,1,1,90,false,stim,false,0,638.3999999999069,1,0,0,51283,task3,1646647,false,false,1840,image-keyboard-response,11
true,27,2,1,2,true,d,false,true,0.0-2.0-0.60-0.545-3.545,0,1,0,68,true,stim,false,2,899.8999999999069,1,1,1,51283,task3,1649077,false,false,1843,image-keyboard-response,1
true,27,0,1,0,true,q,false,true,0.0-2.0-0.60-0.546-3.546,0,1,0,81,false,stim,false,1,944.8999999999069,1,0,2,51283,task3,1651551,false,false,1846,image-keyboard-response,2
true,27,1,1,1,true,z,false,true,0.0-2.0-0.60-0.547-3.547,0,1,0,90,false,stim,false,0,623.6000000000931,1,0,0,51283,task3,1653693,false,false,1849,image-keyboard-response,3
true,27,2,1,2,true,d,false,true,0.0-2.0-0.60-0.548-3.548,0,1,0,68,false,stim,false,2,531.5999999996275,1,1,1,51283,task3,1655744,false,false,1852,image-keyboard-response,4
true,27,0,1,0,true,q,false,true,0.0-2.0-0.61-0.549-3.549,0,1,0,81,false,stim,false,1,836.6000000000931,1,0,2,51283,task3,1658109,false,false,1855,image-keyboard-response,5
true,27,1,1,1,true,z,false,true,0.0-2.0-0.61-0.550-3.550,0,1,0,90,false,stim,false,0,364.89999999990687,1,0,0,51283,task3,1659985,false,false,1858,image-keyboard-response,6
true,27,1,1,0,false,q,false,false,0.0-2.0-0.61-0.551-3.551,0,1,0,90,false,stim,true,1,1756.2000000001863,1,0,2,51283,task3,1663261,false,false,1861,image-keyboard-response,7
true,27,1,1,1,true,z,false,true,0.0-2.0-0.61-0.552-3.552,0,1,0,90,false,stim,false,0,716.6000000000931,1,0,0,51283,task3,1665495,false,false,1864,image-keyboard-response,8
true,27,2,1,2,true,d,false,true,0.0-2.0-0.61-0.553-3.553,0,1,0,68,false,stim,false,2,537.8999999999069,1,1,1,51283,task3,1667559,false,false,1867,image-keyboard-response,9
true,27,1,1,1,true,z,false,true,0.0-2.0-0.61-0.554-3.554,0,1,0,90,false,stim,false,0,529.8000000002794,1,0,0,51283,task3,1669603,false,false,1870,image-keyboard-response,10
true,27,0,1,0,true,q,false,true,0.0-2.0-0.61-0.555-3.555,0,1,0,81,false,stim,false,1,409.5,1,0,2,51283,task3,1671539,false,false,1873,image-keyboard-response,11
true,27,2,1,2,true,d,false,true,0.0-2.0-0.61-0.556-3.556,0,1,0,68,false,stim,false,2,1390.6999999997206,1,1,1,51283,task3,1674449,false,false,1876,image-keyboard-response,12
true,27,2,1,2,true,d,false,true,0.0-2.0-0.61-0.557-3.557,0,1,0,68,false,stim,false,2,546.0,1,1,1,51283,task3,1676511,false,false,1879,image-keyboard-response,13
true,27,2,1,2,true,d,false,true,0.0-2.0-0.62-0.558-3.558,0,1,0,68,false,stim,false,2,372.60000000009313,1,1,1,51283,task3,1678402,false,false,1882,image-keyboard-response,14
true,27,0,1,0,true,q,false,true,0.0-2.0-0.62-0.559-3.559,0,1,0,81,false,stim,false,1,1179.5,1,0,2,51283,task3,1681107,false,false,1885,image-keyboard-response,15
true,27,0,1,0,true,q,false,true,0.0-2.0-0.62-0.560-3.560,0,1,0,81,false,stim,false,1,474.39999999990687,1,0,2,51283,task3,1683107,false,false,1888,image-keyboard-response,16
true,27,2,1,2,true,d,false,true,0.0-2.0-0.62-0.561-3.561,0,1,0,68,false,stim,false,2,700.8999999999069,1,1,1,51283,task3,1685324,false,false,1891,image-keyboard-response,17
true,27,2,1,2,true,d,false,true,0.0-2.0-0.62-0.562-3.562,0,1,0,68,false,stim,false,2,415.5,1,1,1,51283,task3,1687263,false,false,1894,image-keyboard-response,18
true,27,0,1,0,true,q,false,true,0.0-2.0-0.62-0.563-3.563,0,1,0,81,false,stim,false,1,572.0999999996275,1,0,2,51283,task3,1689358,false,false,1897,image-keyboard-response,19
true,27,1,1,1,true,z,false,true,0.0-2.0-0.62-0.564-3.564,0,1,0,90,false,stim,false,0,517.5,1,0,0,51283,task3,1691404,false,false,1900,image-keyboard-response,20
true,27,1,1,1,true,z,false,true,0.0-2.0-0.62-0.565-3.565,0,1,0,90,false,stim,false,0,368.1999999997206,1,0,0,51283,task3,1693297,false,false,1903,image-keyboard-response,21
true,27,1,1,1,true,z,false,false,0.0-2.0-0.62-0.566-3.566,0,1,0,90,false,stim,false,0,474.89999999990687,1,0,0,51283,task3,1695291,false,true,1906,image-keyboard-response,22
true,27,2,1,1,false,z,true,false,0.0-2.0-0.63-0.567-3.567,0,1,0,68,false,stim,false,0,1382.0,1,0,0,51283,task3,1698187,false,false,1909,image-keyboard-response,23
true,27,0,1,0,true,q,false,true,0.0-2.0-0.63-0.568-3.568,0,1,0,81,false,stim,false,1,731.7999999998137,1,0,2,51283,task3,1700446,false,false,1912,image-keyboard-response,24
true,27,2,1,2,true,d,false,true,0.0-2.0-0.63-0.569-3.569,0,1,0,68,false,stim,false,2,678.3999999999069,1,0,1,51283,task3,1702649,false,false,1915,image-keyboard-response,25
true,27,0,1,0,true,q,false,true,0.0-2.0-0.63-0.570-3.570,0,1,0,81,false,stim,false,1,676.7999999998137,1,0,2,51283,task3,1704849,false,false,1918,image-keyboard-response,26
true,27,2,1,2,true,d,false,true,0.0-2.0-0.63-0.571-3.571,0,1,0,68,false,stim,false,2,665.8999999999069,1,0,1,51283,task3,1707028,false,false,1921,image-keyboard-response,27
true,27,0,1,1,false,z,false,false,0.0-2.0-0.63-0.572-3.572,0,1,0,81,false,stim,true,0,594.6000000000931,1,1,0,51283,task3,1709148,false,false,1924,image-keyboard-response,28
true,27,1,1,1,true,z,false,true,0.0-2.0-0.63-0.573-3.573,0,1,0,90,false,stim,false,0,570.6000000000931,1,1,0,51283,task3,1711236,false,false,1927,image-keyboard-response,29
true,28,2,1,1,false,z,false,false,0.0-2.0-0.63-0.574-3.574,1,0,0,68,true,stim,true,2,679.6000000000931,1,0,1,51283,task3,1713430,false,false,1930,image-keyboard-response,1
true,28,0,1,2,false,d,false,false,0.0-2.0-0.63-0.575-3.575,1,0,0,81,false,stim,true,0,428.6999999997206,1,0,2,51283,task3,1715388,false,false,1933,image-keyboard-response,2
true,28,0,1,1,false,z,true,false,0.0-2.0-0.64-0.576-3.576,1,0,0,81,false,stim,false,2,500.70000000018626,1,0,1,51283,task3,1717407,false,false,1936,image-keyboard-response,3
true,28,2,1,1,false,z,false,false,0.0-2.0-0.64-0.577-3.577,1,0,0,68,false,stim,true,2,638.5,1,0,1,51283,task3,1719572,false,false,1939,image-keyboard-response,4
true,28,1,1,1,true,z,false,true,0.0-2.0-0.64-0.578-3.578,1,0,0,90,false,stim,false,1,636.7000000001863,1,1,0,51283,task3,1721734,false,false,1942,image-keyboard-response,5
true,28,2,1,2,true,d,false,false,0.0-2.0-0.64-0.579-3.579,1,0,0,68,false,stim,false,0,1460.2999999998137,1,0,2,51283,task3,1724717,false,true,1945,image-keyboard-response,6
true,28,1,1,1,true,z,false,true,0.0-2.0-0.64-0.580-3.580,1,0,0,90,false,stim,false,1,569.7000000001863,1,1,0,51283,task3,1726811,false,false,1948,image-keyboard-response,7
true,28,1,1,1,true,z,false,true,0.0-2.0-0.64-0.581-3.581,1,0,0,90,false,stim,false,1,424.39999999990687,1,1,0,51283,task3,1728750,false,false,1951,image-keyboard-response,8
true,28,0,1,2,false,d,false,false,0.0-2.0-0.64-0.582-3.582,1,0,0,81,false,stim,true,0,1095.9000000003725,1,0,2,51283,task3,1731373,false,false,1954,image-keyboard-response,9
true,28,0,1,1,false,z,true,false,0.0-2.0-0.64-0.583-3.583,1,0,0,81,false,stim,false,2,1054.3999999999069,1,0,1,51283,task3,1733942,false,false,1957,image-keyboard-response,10
true,28,1,1,2,false,d,true,false,0.0-2.0-0.64-0.584-3.584,1,0,0,90,false,stim,false,0,370.10000000009313,1,0,2,51283,task3,1735830,false,false,1960,image-keyboard-response,11
true,28,1,1,1,true,z,false,true,0.0-2.0-0.65-0.585-3.585,1,0,0,90,false,stim,false,1,534.8000000002794,1,1,0,51283,task3,1737883,false,false,1963,image-keyboard-response,12
true,28,1,1,1,true,z,false,true,0.0-2.0-0.65-0.586-3.586,1,0,0,90,false,stim,false,2,890.6000000000931,1,0,1,51283,task3,1740296,false,false,1966,image-keyboard-response,13
true,28,1,1,1,true,z,false,true,0.0-2.0-0.65-0.587-3.587,1,0,0,90,false,stim,false,1,506.5,1,1,0,51283,task3,1742323,false,false,1969,image-keyboard-response,14
true,28,1,1,1,true,z,false,true,0.0-2.0-0.65-0.588-3.588,1,0,0,90,false,stim,false,1,467.89999999990687,1,1,0,51283,task3,1744306,false,false,1972,image-keyboard-response,15
true,28,1,1,1,true,z,false,false,0.0-2.0-0.65-0.589-3.589,1,0,0,90,false,stim,false,2,573.7000000001863,1,0,1,51283,task3,1746405,false,true,1975,image-keyboard-response,16
