answered,blockNum,choice,condition,corResp,correct,correct_response,explo,fb,internal_node_id,isStable_1,isStable_2,isStable_3,key_press,newBlock,part,persev,persevResp,rt,sessNum,stableAS,stimulus,subject,task,time_elapsed,training,trap,trial_index,trial_type,trialsInBlock
true,1,1,0,2,false,d,true,false,0.0-2.0-0.0-0.0-3.0,0,0,0,90,true,stim,false,-1,852,2,0,1,52028,task3,399556,false,false,262,image-keyboard-response,1
true,1,1,0,0,false,q,true,false,0.0-2.0-0.0-0.1-3.1,0,0,0,90,false,stim,false,-1,678,2,0,0,52028,task3,401760,false,false,265,image-keyboard-response,2
true,1,0,0,0,true,q,false,true,0.0-2.0-0.0-0.2-3.2,0,0,0,81,false,stim,false,-1,785,2,0,0,52028,task3,404071,false,false,268,image-keyboard-response,3
true,1,2,0,2,true,d,false,true,0.0-2.0-0.0-0.3-3.3,0,0,0,68,false,stim,false,-1,757,2,0,2,52028,task3,406351,false,false,271,image-keyboard-response,4
true,1,2,0,2,true,d,false,false,0.0-2.0-0.0-0.4-3.4,0,0,0,68,false,stim,false,-1,564,2,0,2,52028,task3,408430,false,true,274,image-keyboard-response,5
true,1,0,0,0,true,q,false,true,0.0-2.0-0.0-0.5-3.5,0,0,0,81,false,stim,false,-1,403,2,0,0,52028,task3,410350,false,false,277,image-keyboard-response,6
true,1,1,0,2,false,d,true,false,0.0-2.0-0.0-0.6-3.6,0,0,0,90,false,stim,false,-1,512,2,0,1,52028,task3,412384,false,false,280,image-keyboard-response,7
true,1,2,0,2,true,d,false,true,0.0-2.0-0.0-0.7-3.7,0,0,0,68,false,stim,false,-1,695,2,0,2,52028,task3,414584,false,false,283,image-keyboard-response,8
true,1,2,0,2,true,d,false,true,0.0-2.0-0.0-0.8-3.8,0,0,0,68,false,stim,false,-1,422,2,0,1,52028,task3,416529,false,false,286,image-keyboard-response,9
true,1,0,0,0,true,q,false,true,0.0-2.0-0.1-0.9-3.9,0,0,0,81,false,stim,false,-1,469,2,0,0,52028,task3,418506,false,false,289,image-keyboard-response,10
true,1,2,0,2,true,d,false,true,0.0-2.0-0.1-0.10-3.10,0,0,0,68,false,stim,false,-1,554,2,0,2,52028,task3,420593,false,false,292,image-keyboard-response,11
true,1,2,0,2,true,d,false,true,0.0-2.0-0.1-0.11-3.11,0,0,0,68,false,stim,false,-1,837,2,0,1,52028,task3,422948,false,false,295,image-keyboard-response,12
true,1,0,0,0,true,q,false,false,0.0-2.0-0.1-0.12-3.12,0,0,0,81,false,stim,false,-1,443,2,0,0,52028,task3,424914,false,true,298,image-keyboard-response,13
true,1,0,0,0,true,q,false,true,0.0-2.0-0.1-0.13-3.13,0,0,0,81,false,stim,false,-1,408,2,0,0,52028,task3,426855,false,false,301,image-keyboard-response,14
true,1,2,0,2,true,d,false,true,0.0-2.0-0.1-0.14-3.14,0,0,0,68,false,stim,false,-1,606,2,0,1,52028,task3,428980,false,false,304,image-keyboard-response,15
true,1,2,0,2,true,d,false,true,0.0-2.0-0.1-0.15-3.15,0,0,0,68,false,stim,false,-1,381,2,0,2,52028,task3,430873,false,false,307,image-keyboard-response,16
true,1,2,0,2,true,d,false,true,0.0-2.0-0.1-0.16-3.16,0,0,0,68,false,stim,false,-1,1714,2,0,1,52028,task3,434102,false,false,310,image-keyboard-response,17
true,1,2,0,2,true,d,false,true,0.0-2.0-0.1-0.17-3.17,0,0,0,68,false,stim,false,-1,460,2,0,2,52028,task3,436071,false,false,313,image-keyboard-response,18
true,1,2,0,2,true,d,false,true,0.0-2.0-0.2-0.18-3.18,0,0,0,68,false,stim,false,-1,668,2,0,1,52028,task3,438258,false,false,316,image-keyboard-response,19
true,1,0,0,0,true,q,false,true,0.0-2.0-0.2-0.19-3.19,0,0,0,81,false,stim,false,-1,374,2,0,0,52028,task3,440158,false,false,319,image-keyboard-response,20
true,1,0,0,0,true,q,false,true,0.0-2.0-0.2-0.20-3.20,0,0,0,81,false,stim,false,-1,608,2,1,0,52028,task3,442275,false,false,322,image-keyboard-response,21
true,1,2,0,2,true,d,false,true,0.0-2.0-0.2-0.21-3.21,0,0,0,68,false,stim,false,-1,569,2,1,2,52028,task3,444366,false,false,325,image-keyboard-response,22
true,1,0,0,0,true,q,false,true,0.0-2.0-0.2-0.22-3.22,0,0,0,81,false,stim,false,-1,635,2,1,0,52028,task3,446529,false,false,328,image-keyboard-response,23
true,1,2,0,2,true,d,false,true,0.0-2.0-0.2-0.23-3.23,0,0,0,68,false,stim,false,-1,759,2,0,1,52028,task3,448800,false,false,331,image-keyboard-response,24
true,1,2,0,2,true,d,false,true,0.0-2.0-0.2-0.24-3.24,0,0,0,68,false,stim,false,-1,360,2,0,1,52028,task3,450674,false,false,334,image-keyboard-response,25
true,2,2,2,2,true,d,false,true,0.0-2.0-0.2-0.25-3.25,1,0,1,68,true,stim,false,2,576,2,1,2,52028,task3,452773,false,false,337,image-keyboard-response,1
true,2,2,2,2,true,d,false,true,0.0-2.0-0.2-0.26-3.26,1,0,1,68,false,stim,false,2,360,2,1,2,52028,task3,454648,false,false,340,image-keyboard-response,2
true,2,2,2,2,true,d,false,true,0.0-2.0-0.3-0.27-3.27,1,0,1,68,false,stim,false,2,379,2,1,2,52028,task3,456537,false,false,343,image-keyboard-response,3
true,2,0,2,0,true,q,false,true,0.0-2.0-0.3-0.28-3.28,1,0,1,81,false,stim,false,0,1350,2,1,0,52028,task3,459414,false,false,346,image-keyboard-response,4
true,2,2,2,2,true,d,false,true,0.0-2.0-0.3-0.29-3.29,1,0,1,68,false,stim,false,2,479,2,1,2,52028,task3,461402,false,false,349,image-keyboard-response,5
true,2,2,2,0,false,q,false,false,0.0-2.0-0.3-0.30-3.30,1,0,1,68,false,stim,true,2,697,2,0,1,52028,task3,463619,false,false,352,image-keyboard-response,6
true,2,0,2,0,true,q,false,true,0.0-2.0-0.3-0.31-3.31,1,0,1,81,false,stim,false,0,548,2,1,0,52028,task3,465686,false,false,355,image-keyboard-response,7
true,2,2,2,2,true,d,false,true,0.0-2.0-0.3-0.32-3.32,1,0,1,68,false,stim,false,2,538,2,1,2,52028,task3,467747,false,false,358,image-keyboard-response,8
true,2,2,2,0,false,q,false,true,0.0-2.0-0.3-0.33-3.33,1,0,1,68,false,stim,true,2,482,2,0,1,52028,task3,469743,false,true,361,image-keyboard-response,9
true,2,0,2,0,true,q,false,true,0.0-2.0-0.3-0.34-3.34,1,0,1,81,false,stim,false,0,617,2,1,0,52028,task3,471880,false,false,364,image-keyboard-response,10
true,2,2,2,0,false,q,false,false,0.0-2.0-0.3-0.35-3.35,1,0,1,68,false,stim,true,2,561,2,0,1,52028,task3,473963,false,false,367,image-keyboard-response,11
true,2,2,2,0,false,q,false,false,0.0-2.0-0.4-0.36-3.36,1,0,1,68,false,stim,true,2,398,2,0,1,52028,task3,475886,false,false,370,image-keyboard-response,12
true,2,2,2,2,true,d,false,true,0.0-2.0-0.4-0.37-3.37,1,0,1,68,false,stim,false,2,561,2,1,2,52028,task3,477971,false,false,373,image-keyboard-response,13
true,2,2,2,2,true,d,false,true,0.0-2.0-0.4-0.38-3.38,1,0,1,68,false,stim,false,2,539,2,1,2,52028,task3,480017,false,false,376,image-keyboard-response,14
true,2,1,2,0,false,q,true,false,0.0-2.0-0.4-0.39-3.39,1,0,1,90,false,stim,false,2,386,2,0,1,52028,task3,481925,false,false,379,image-keyboard-response,15
true,2,0,2,0,true,q,false,true,0.0-2.0-0.4-0.40-3.40,1,0,1,81,false,stim,false,0,597,2,1,0,52028,task3,484041,false,false,382,image-keyboard-response,16
true,2,0,2,0,true,q,false,true,0.0-2.0-0.4-0.41-3.41,1,0,1,81,false,stim,false,0,569,2,1,0,52028,task3,486132,false,false,385,image-keyboard-response,17
true,2,0,2,0,true,q,false,true,0.0-2.0-0.4-0.42-3.42,1,0,1,81,false,stim,false,2,392,2,0,1,52028,task3,488045,false,false,388,image-keyboard-response,18
true,2,2,2,2,true,d,false,true,0.0-2.0-0.4-0.43-3.43,1,0,1,68,false,stim,false,2,549,2,1,2,52028,task3,490106,false,false,391,image-keyboard-response,19
true,2,0,2,0,true,q,false,true,0.0-2.0-0.4-0.44-3.44,1,0,1,81,false,stim,false,0,457,2,1,0,52028,task3,492085,false,false,394,image-keyboard-response,20
true,2,0,2,0,true,q,false,true,0.0-2.0-0.5-0.45-3.45,1,0,1,81,false,stim,false,2,467,2,0,1,52028,task3,494072,false,false,397,image-keyboard-response,21
true,2,2,2,2,true,d,false,true,0.0-2.0-0.5-0.46-3.46,1,0,1,68,false,stim,false,2,348,2,1,2,52028,task3,495939,false,false,400,image-keyboard-response,22
true,2,0,2,0,true,q,false,true,0.0-2.0-0.5-0.47-3.47,1,0,1,81,false,stim,false,0,563,2,1,0,52028,task3,498040,false,false,403,image-keyboard-response,23
true,2,0,2,0,true,q,false,true,0.0-2.0-0.5-0.48-3.48,1,0,1,81,false,stim,false,2,313,2,0,1,52028,task3,499876,false,false,406,image-keyboard-response,24
true,2,0,2,0,true,q,false,true,0.0-2.0-0.5-0.49-3.49,1,0,1,81,false,stim,false,0,301,2,1,0,52028,task3,501685,false,false,409,image-keyboard-response,25
true,2,0,2,0,true,q,false,true,0.0-2.0-0.5-0.50-3.50,1,0,1,81,false,stim,false,2,386,2,0,1,52028,task3,503587,false,false,412,image-keyboard-response,26
true,2,2,2,2,true,d,false,true,0.0-2.0-0.5-0.51-3.51,1,0,1,68,false,stim,false,2,483,2,1,2,52028,task3,505591,false,false,415,image-keyboard-response,27
true,2,0,2,0,true,q,false,true,0.0-2.0-0.5-0.52-3.52,1,0,1,81,false,stim,false,0,225,2,1,0,52028,task3,507337,false,false,418,image-keyboard-response,28
true,2,2,2,2,true,d,false,true,0.0-2.0-0.5-0.53-3.53,1,0,1,68,false,stim,false,2,605,2,1,2,52028,task3,509468,false,false,421,image-keyboard-response,29
true,3,0,2,0,true,q,false,true,0.0-2.0-0.6-0.54-3.54,1,0,1,81,true,stim,false,0,337,2,1,0,52028,task3,511323,false,false,424,image-keyboard-response,1
true,3,0,2,0,true,q,false,true,0.0-2.0-0.6-0.55-3.55,1,0,1,81,false,stim,false,0,310,2,1,0,52028,task3,513160,false,false,427,image-keyboard-response,2
true,3,0,2,1,false,z,false,false,0.0-2.0-0.6-0.56-3.56,1,0,1,81,false,stim,true,0,791,2,0,1,52028,task3,515466,false,false,430,image-keyboard-response,3
true,3,2,2,2,true,d,false,true,0.0-2.0-0.6-0.57-3.57,1,0,1,68,false,stim,false,2,643,2,1,2,52028,task3,517632,false,false,433,image-keyboard-response,4
true,3,2,2,2,true,d,false,true,0.0-2.0-0.6-0.58-3.58,1,0,1,68,false,stim,false,2,432,2,1,2,52028,task3,519581,false,false,436,image-keyboard-response,5
true,3,0,2,1,false,z,false,false,0.0-2.0-0.6-0.59-3.59,1,0,1,81,false,stim,true,0,614,2,0,1,52028,task3,521708,false,false,439,image-keyboard-response,6
true,3,1,2,1,true,z,false,true,0.0-2.0-0.6-0.60-3.60,1,0,1,90,false,stim,false,0,462,2,0,1,52028,task3,523686,false,false,442,image-keyboard-response,7
true,3,0,2,0,true,q,false,true,0.0-2.0-0.6-0.61-3.61,1,0,1,81,false,stim,false,0,552,2,1,0,52028,task3,525766,false,false,445,image-keyboard-response,8
true,3,2,2,2,true,d,false,false,0.0-2.0-0.6-0.62-3.62,1,0,1,68,false,stim,false,2,709,2,0,2,52028,task3,527982,false,true,448,image-keyboard-response,9
true,3,0,2,0,true,q,false,true,0.0-2.0-0.7-0.63-3.63,1,0,1,81,false,stim,false,0,811,2,1,0,52028,task3,530309,false,false,451,image-keyboard-response,10
true,3,2,2,2,true,d,false,false,0.0-2.0-0.7-0.64-3.64,1,0,1,68,false,stim,false,2,934,2,0,2,52028,task3,532758,false,true,454,image-keyboard-response,11
true,3,1,2,1,true,z,false,true,0.0-2.0-0.7-0.65-3.65,1,0,1,90,false,stim,false,0,382,2,1,1,52028,task3,534657,false,false,457,image-keyboard-response,12
true,3,0,2,0,true,q,false,true,0.0-2.0-0.7-0.66-3.66,1,0,1,81,false,stim,false,0,561,2,1,0,52028,task3,536745,false,false,460,image-keyboard-response,13
true,4,1,2,1,true,z,false,true,0.0-2.0-0.7-0.67-3.67,1,1,0,90,true,stim,false,2,559,2,0,2,52028,task3,538824,false,false,463,image-keyboard-response,1
true,4,1,2,1,true,z,false,true,0.0-2.0-0.7-0.68-3.68,1,1,0,90,false,stim,false,2,554,2,0,2,52028,task3,540895,false,false,466,image-keyboard-response,2
true,4,0,2,1,false,z,true,false,0.0-2.0-0.7-0.69-3.69,1,1,0,81,false,stim,false,1,527,2,1,1,52028,task3,542938,false,false,469,image-keyboard-response,3
true,4,1,2,1,true,z,false,true,0.0-2.0-0.7-0.70-3.70,1,1,0,90,false,stim,false,1,563,2,1,1,52028,task3,545016,false,false,472,image-keyboard-response,4
true,4,0,2,0,true,q,false,true,0.0-2.0-0.7-0.71-3.71,1,1,0,81,false,stim,false,0,433,2,1,0,52028,task3,546964,false,false,475,image-keyboard-response,5
true,4,1,2,1,true,z,false,true,0.0-2.0-0.8-0.72-3.72,1,1,0,90,false,stim,false,1,408,2,1,1,52028,task3,548896,false,false,478,image-keyboard-response,6
true,4,0,2,0,true,q,false,false,0.0-2.0-0.8-0.73-3.73,1,1,0,81,false,stim,false,0,564,2,0,0,52028,task3,550973,false,true,481,image-keyboard-response,7
true,4,1,2,1,true,z,false,true,0.0-2.0-0.8-0.74-3.74,1,1,0,90,false,stim,false,2,599,2,1,2,52028,task3,553089,false,false,484,image-keyboard-response,8
true,4,1,2,1,true,z,false,false,0.0-2.0-0.8-0.75-3.75,1,1,0,90,false,stim,false,2,442,2,1,2,52028,task3,555045,false,true,487,image-keyboard-response,9
true,4,1,2,1,true,z,false,true,0.0-2.0-0.8-0.76-3.76,1,1,0,90,false,stim,false,2,330,2,1,2,52028,task3,556892,false,false,490,image-keyboard-response,10
true,4,1,2,1,true,z,false,true,0.0-2.0-0.8-0.77-3.77,1,1,0,90,false,stim,false,1,661,2,0,1,52028,task3,559075,false,false,493,image-keyboard-response,11
true,5,0,1,1,false,z,false,false,0.0-2.0-0.8-0.78-3.78,0,0,1,81,true,stim,true,0,722,2,0,0,52028,task3,561324,false,false,496,image-keyboard-response,1
true,5,2,1,1,false,z,true,false,0.0-2.0-0.8-0.79-3.79,0,0,1,68,false,stim,false,0,521,2,0,0,52028,task3,563366,false,false,499,image-keyboard-response,2
true,5,1,1,2,false,d,false,false,0.0-2.0-0.8-0.80-3.80,0,0,1,90,false,stim,true,1,1105,2,0,1,52028,task3,565994,false,false,502,image-keyboard-response,3
true,5,1,1,2,false,d,false,false,0.0-2.0-0.9-0.81-3.81,0,0,1,90,false,stim,true,1,553,2,0,1,52028,task3,568074,false,false,505,image-keyboard-response,4
true,5,1,1,1,true,z,false,true,0.0-2.0-0.9-0.82-3.82,0,0,1,90,false,stim,false,0,731,2,0,0,52028,task3,570321,false,false,508,image-keyboard-response,5
true,5,1,1,1,true,z,false,true,0.0-2.0-0.9-0.83-3.83,0,0,1,90,false,stim,false,1,533,2,1,2,52028,task3,572376,false,false,511,image-keyboard-response,6
true,5,1,1,1,true,z,false,true,0.0-2.0-0.9-0.84-3.84,0,0,1,90,false,stim,false,0,339,2,0,0,52028,task3,574229,false,false,514,image-keyboard-response,7
true,5,1,1,1,true,z,false,true,0.0-2.0-0.9-0.85-3.85,0,0,1,90,false,stim,false,1,384,2,1,2,52028,task3,576125,false,false,517,image-keyboard-response,8
true,5,2,1,2,true,d,false,true,0.0-2.0-0.9-0.86-3.86,0,0,1,68,false,stim,false,1,537,2,0,1,52028,task3,578185,false,false,520,image-keyboard-response,9
true,5,2,1,2,true,d,false,true,0.0-2.0-0.9-0.87-3.87,0,0,1,68,false,stim,false,1,398,2,0,1,52028,task3,580106,false,false,523,image-keyboard-response,10
true,5,1,1,1,true,z,false,true,0.0-2.0-0.9-0.88-3.88,0,0,1,90,false,stim,false,0,449,2,0,0,52028,task3,582086,false,false,526,image-keyboard-response,11
true,5,1,1,1,true,z,false,true,0.0-2.0-0.9-0.89-3.89,0,0,1,90,false,stim,false,1,419,2,1,2,52028,task3,584029,false,false,529,image-keyboard-response,12
true,5,2,1,1,false,z,true,false,0.0-2.0-0.10-0.90-3.90,0,0,1,68,false,stim,false,0,669,2,0,0,52028,task3,586224,false,false,532,image-keyboard-response,13
true,5,1,1,1,true,z,false,true,0.0-2.0-0.10-0.91-3.91,0,0,1,90,false,stim,false,0,351,2,0,0,52028,task3,588091,false,false,535,image-keyboard-response,14
true,5,2,1,2,true,d,false,true,0.0-2.0-0.10-0.92-3.92,0,0,1,68,false,stim,false,1,598,2,0,1,52028,task3,590209,false,false,538,image-keyboard-response,15
true,5,2,1,2,true,d,false,true,0.0-2.0-0.10-0.93-3.93,0,0,1,68,false,stim,false,1,473,2,0,1,52028,task3,592199,false,false,541,image-keyboard-response,16
true,5,2,1,2,true,d,false,true,0.0-2.0-0.10-0.94-3.94,0,0,1,68,false,stim,false,1,354,2,0,1,52028,task3,594069,false,false,544,image-keyboard-response,17
true,5,1,1,1,true,z,false,true,0.0-2.0-0.10-0.95-3.95,0,0,1,90,false,stim,false,1,1020,2,1,2,52028,task3,596601,false,false,547,image-keyboard-response,18
true,5,1,1,1,true,z,false,true,0.0-2.0-0.10-0.96-3.96,0,0,1,90,false,stim,false,1,355,2,1,2,52028,task3,598476,false,false,550,image-keyboard-response,19
true,5,1,1,1,true,z,false,true,0.0-2.0-0.10-0.97-3.97,0,0,1,90,false,stim,false,1,340,2,1,2,52028,task3,600336,false,false,553,image-keyboard-response,20
true,5,2,1,1,false,z,true,false,0.0-2.0-0.10-0.98-3.98,0,0,1,68,false,stim,false,0,705,2,0,0,52028,task3,602559,false,false,556,image-keyboard-response,21
true,5,2,1,2,true,d,false,true,0.0-2.0-0.11-0.99-3.99,0,0,1,68,false,stim,false,1,533,2,0,1,52028,task3,604614,false,false,559,image-keyboard-response,22
true,5,1,1,1,true,z,false,true,0.0-2.0-0.11-0.100-3.100,0,0,1,90,false,stim,false,1,495,2,1,2,52028,task3,606624,false,false,562,image-keyboard-response,23
true,5,1,1,1,true,z,false,true,0.0-2.0-0.11-0.101-3.101,0,0,1,90,false,stim,false,1,330,2,1,2,52028,task3,608484,false,false,565,image-keyboard-response,24
true,5,1,1,1,true,z,false,true,0.0-2.0-0.11-0.102-3.102,0,0,1,90,false,stim,false,0,334,2,1,0,52028,task3,610337,false,false,568,image-keyboard-response,25
true,5,1,1,1,true,z,false,true,0.0-2.0-0.11-0.103-3.103,0,0,1,90,false,stim,false,0,282,2,1,0,52028,task3,612148,false,false,571,image-keyboard-response,26
true,5,1,1,1,true,z,false,true,0.0-2.0-0.11-0.104-3.104,0,0,1,90,false,stim,false,1,685,2,1,2,52028,task3,614356,false,false,574,image-keyboard-response,27
true,6,1,2,1,true,z,false,true,0.0-2.0-0.11-0.105-3.105,1,0,1,90,true,stim,false,1,322,2,1,0,52028,task3,616198,false,false,577,image-keyboard-response,1
true,6,2,2,0,false,q,false,false,0.0-2.0-0.11-0.106-3.106,1,0,1,68,false,stim,true,2,579,2,0,1,52028,task3,618311,false,false,580,image-keyboard-response,2
true,6,2,2,0,false,q,false,false,0.0-2.0-0.11-0.107-3.107,1,0,1,68,false,stim,true,2,401,2,0,1,52028,task3,620242,false,false,583,image-keyboard-response,3
true,6,1,2,1,true,z,false,true,0.0-2.0-0.12-0.108-3.108,1,0,1,90,false,stim,false,1,546,2,1,0,52028,task3,622304,false,false,586,image-keyboard-response,4
true,6,1,2,1,true,z,false,true,0.0-2.0-0.12-0.109-3.109,1,0,1,90,false,stim,false,1,436,2,1,2,52028,task3,624263,false,false,589,image-keyboard-response,5
true,6,1,2,1,true,z,false,true,0.0-2.0-0.12-0.110-3.110,1,0,1,90,false,stim,false,1,489,2,1,2,52028,task3,626272,false,false,592,image-keyboard-response,6
true,6,0,2,0,true,q,false,true,0.0-2.0-0.12-0.111-3.111,1,0,1,81,false,stim,false,2,402,2,0,1,52028,task3,628194,false,false,595,image-keyboard-response,7
true,6,1,2,1,true,z,false,true,0.0-2.0-0.12-0.112-3.112,1,0,1,90,false,stim,false,1,909,2,1,0,52028,task3,630625,false,false,598,image-keyboard-response,8
true,6,1,2,1,true,z,false,true,0.0-2.0-0.12-0.113-3.113,1,0,1,90,false,stim,false,1,626,2,1,2,52028,task3,632781,false,false,601,image-keyboard-response,9
true,6,0,2,0,true,q,false,true,0.0-2.0-0.12-0.114-3.114,1,0,1,81,false,stim,false,2,976,2,0,1,52028,task3,635281,false,false,604,image-keyboard-response,10
true,6,0,2,0,true,q,false,true,0.0-2.0-0.12-0.115-3.115,1,0,1,81,false,stim,false,2,396,2,0,1,52028,task3,637196,false,false,607,image-keyboard-response,11
true,6,1,2,1,true,z,false,true,0.0-2.0-0.12-0.116-3.116,1,0,1,90,false,stim,false,1,652,2,1,0,52028,task3,639361,false,false,610,image-keyboard-response,12
true,6,1,2,1,true,z,false,true,0.0-2.0-0.13-0.117-3.117,1,0,1,90,false,stim,false,1,721,2,1,2,52028,task3,641601,false,false,613,image-keyboard-response,13
true,6,0,2,0,true,q,false,true,0.0-2.0-0.13-0.118-3.118,1,0,1,81,false,stim,false,2,393,2,0,1,52028,task3,643516,false,false,616,image-keyboard-response,14
true,6,1,2,1,true,z,false,true,0.0-2.0-0.13-0.119-3.119,1,0,1,90,false,stim,false,1,643,2,1,0,52028,task3,645676,false,false,619,image-keyboard-response,15
true,6,1,2,1,true,z,false,true,0.0-2.0-0.13-0.120-3.120,1,0,1,90,false,stim,false,1,321,2,1,0,52028,task3,647507,false,false,622,image-keyboard-response,16
true,6,1,2,1,true,z,false,true,0.0-2.0-0.13-0.121-3.121,1,0,1,90,false,stim,false,1,955,2,1,2,52028,task3,649988,false,false,625,image-keyboard-response,17
true,6,1,2,0,false,q,true,false,0.0-2.0-0.13-0.122-3.122,1,0,1,90,false,stim,false,2,649,2,0,1,52028,task3,652161,false,false,628,image-keyboard-response,18
true,6,1,2,1,true,z,false,true,0.0-2.0-0.13-0.123-3.123,1,0,1,90,false,stim,false,1,522,2,1,2,52028,task3,654200,false,false,631,image-keyboard-response,19
true,6,1,2,1,true,z,false,true,0.0-2.0-0.13-0.124-3.124,1,0,1,90,false,stim,false,1,388,2,1,0,52028,task3,656110,false,false,634,image-keyboard-response,20
true,6,0,2,0,true,q,false,true,0.0-2.0-0.13-0.125-3.125,1,0,1,81,false,stim,false,2,370,2,0,1,52028,task3,657995,false,false,637,image-keyboard-response,21
true,6,1,2,1,true,z,false,true,0.0-2.0-0.14-0.126-3.126,1,0,1,90,false,stim,false,1,414,2,1,2,52028,task3,659916,false,false,640,image-keyboard-response,22
true,6,0,2,0,true,q,false,true,0.0-2.0-0.14-0.127-3.127,1,0,1,81,false,stim,false,2,293,2,0,1,52028,task3,661717,false,false,643,image-keyboard-response,23
true,6,0,2,0,true,q,false,true,0.0-2.0-0.14-0.128-3.128,1,0,1,81,false,stim,false,2,398,2,0,1,52028,task3,663630,false,false,646,image-keyboard-response,24
true,6,0,2,0,true,q,false,true,0.0-2.0-0.14-0.129-3.129,1,0,1,81,false,stim,false,2,411,2,0,1,52028,task3,665545,false,false,649,image-keyboard-response,25
true,6,1,2,1,true,z,false,true,0.0-2.0-0.14-0.130-3.130,1,0,1,90,false,stim,false,1,453,2,0,2,52028,task3,667523,false,false,652,image-keyboard-response,26
true,6,1,2,1,true,z,false,true,0.0-2.0-0.14-0.131-3.131,1,0,1,90,false,stim,false,1,869,2,1,0,52028,task3,669920,false,false,655,image-keyboard-response,27
true,6,1,2,1,true,z,false,true,0.0-2.0-0.14-0.132-3.132,1,0,1,90,false,stim,false,1,352,2,1,0,52028,task3,671784,false,false,658,image-keyboard-response,28
true,7,1,1,0,false,q,false,false,0.0-2.0-0.14-0.133-3.133,1,0,0,90,true,stim,true,1,523,2,0,2,52028,task3,673816,false,false,661,image-keyboard-response,1
true,7,1,1,1,true,z,false,true,0.0-2.0-0.14-0.134-3.134,1,0,0,90,false,stim,false,1,596,2,1,0,52028,task3,675929,false,false,664,image-keyboard-response,2
true,7,1,1,1,true,z,false,true,0.0-2.0-0.15-0.135-3.135,1,0,0,90,false,stim,false,1,482,2,1,0,52028,task3,677927,false,false,667,image-keyboard-response,3
true,7,0,1,1,false,z,false,false,0.0-2.0-0.15-0.136-3.136,1,0,0,81,false,stim,true,0,595,2,0,1,52028,task3,680038,false,false,670,image-keyboard-response,4
true,7,1,1,1,true,z,false,true,0.0-2.0-0.15-0.137-3.137,1,0,0,90,false,stim,false,1,810,2,1,0,52028,task3,682364,false,false,673,image-keyboard-response,5
true,7,0,1,1,false,z,false,false,0.0-2.0-0.15-0.138-3.138,1,0,0,81,false,stim,true,0,439,2,0,1,52028,task3,684327,false,false,676,image-keyboard-response,6
true,7,1,1,0,false,q,false,false,0.0-2.0-0.15-0.139-3.139,1,0,0,90,false,stim,true,1,791,2,0,2,52028,task3,686632,false,false,679,image-keyboard-response,7
true,7,2,1,1,false,z,true,false,0.0-2.0-0.15-0.140-3.140,1,0,0,68,false,stim,false,0,966,2,0,1,52028,task3,689116,false,false,682,image-keyboard-response,8
true,7,0,1,0,true,q,false,false,0.0-2.0-0.15-0.141-3.141,1,0,0,81,false,stim,false,1,1430,2,0,2,52028,task3,692060,false,true,685,image-keyboard-response,9
true,7,2,1,0,false,q,true,true,0.0-2.0-0.15-0.142-3.142,1,0,0,68,false,stim,false,1,639,2,0,2,52028,task3,694216,false,true,688,image-keyboard-response,10
true,7,1,1,1,true,z,false,true,0.0-2.0-0.15-0.143-3.143,1,0,0,90,false,stim,false,1,722,2,1,0,52028,task3,696454,false,false,691,image-keyboard-response,11
true,7,1,1,1,true,z,false,true,0.0-2.0-0.16-0.144-3.144,1,0,0,90,false,stim,false,0,337,2,0,1,52028,task3,698318,false,false,694,image-keyboard-response,12
true,7,1,1,1,true,z,false,true,0.0-2.0-0.16-0.145-3.145,1,0,0,90,false,stim,false,1,438,2,1,0,52028,task3,700277,false,false,697,image-keyboard-response,13
true,7,2,1,0,false,q,true,false,0.0-2.0-0.16-0.146-3.146,1,0,0,68,false,stim,false,1,461,2,0,2,52028,task3,702257,false,false,700,image-keyboard-response,14
true,7,2,1,0,false,q,true,false,0.0-2.0-0.16-0.147-3.147,1,0,0,68,false,stim,false,1,444,2,0,2,52028,task3,704217,false,false,703,image-keyboard-response,15
true,7,1,1,1,true,z,false,true,0.0-2.0-0.16-0.148-3.148,1,0,0,90,false,stim,false,0,779,2,0,1,52028,task3,706510,false,false,706,image-keyboard-response,16
true,7,0,1,0,true,q,false,true,0.0-2.0-0.16-0.149-3.149,1,0,0,81,false,stim,false,1,485,2,0,2,52028,task3,708511,false,false,709,image-keyboard-response,17
true,7,1,1,1,true,z,false,true,0.0-2.0-0.16-0.150-3.150,1,0,0,90,false,stim,false,1,528,2,1,0,52028,task3,710562,false,false,712,image-keyboard-response,18
true,7,1,1,1,true,z,false,false,0.0-2.0-0.16-0.151-3.151,1,0,0,90,false,stim,false,1,377,2,1,0,52028,task3,712465,false,true,715,image-keyboard-response,19
true,7,1,1,1,true,z,false,true,0.0-2.0-0.16-0.152-3.152,1,0,0,90,false,stim,false,0,1296,2,0,1,52028,task3,715280,false,false,718,image-keyboard-response,20
true,7,0,1,0,true,q,false,true,0.0-2.0-0.17-0.153-3.153,1,0,0,81,false,stim,false,1,409,2,0,2,52028,task3,717214,false,false,721,image-keyboard-response,21
true,7,1,1,1,true,z,false,true,0.0-2.0-0.17-0.154-3.154,1,0,0,90,false,stim,false,0,500,2,0,1,52028,task3,719234,false,false,724,image-keyboard-response,22
true,7,1,1,1,true,z,false,true,0.0-2.0-0.17-0.155-3.155,1,0,0,90,false,stim,false,1,462,2,1,0,52028,task3,721207,false,false,727,image-keyboard-response,23
true,7,0,1,0,true,q,false,true,0.0-2.0-0.17-0.156-3.156,1,0,0,81,false,stim,false,1,458,2,0,2,52028,task3,723184,false,false,730,image-keyboard-response,24
true,7,1,1,1,true,z,false,true,0.0-2.0-0.17-0.157-3.157,1,0,0,90,false,stim,false,1,1102,2,1,0,52028,task3,725804,false,false,733,image-keyboard-response,25
true,7,1,1,1,true,z,false,true,0.0-2.0-0.17-0.158-3.158,1,0,0,90,false,stim,false,0,545,2,1,1,52028,task3,727857,false,false,736,image-keyboard-response,26
true,7,0,1,0,true,q,false,true,0.0-2.0-0.17-0.159-3.159,1,0,0,81,false,stim,false,1,462,2,0,2,52028,task3,729833,false,false,739,image-keyboard-response,27
true,7,1,1,1,true,z,false,true,0.0-2.0-0.17-0.160-3.160,1,0,0,90,false,stim,false,1,531,2,1,0,52028,task3,731878,false,false,742,image-keyboard-response,28
true,7,1,1,1,true,z,false,true,0.0-2.0-0.17-0.161-3.161,1,0,0,90,false,stim,false,0,579,2,1,1,52028,task3,733978,false,false,745,image-keyboard-response,29
true,8,1,2,1,true,z,false,true,0.0-2.0-0.18-0.162-3.162,1,1,0,90,true,stim,false,1,364,2,1,1,52028,task3,735863,false,false,748,image-keyboard-response,1
true,8,1,2,1,true,z,false,true,0.0-2.0-0.18-0.163-3.163,1,1,0,90,false,stim,false,1,424,2,1,0,52028,task3,737795,false,false,751,image-keyboard-response,2
true,8,0,2,2,false,d,false,false,0.0-2.0-0.18-0.164-3.164,1,1,0,81,false,stim,true,0,481,2,0,2,52028,task3,739787,false,false,754,image-keyboard-response,3
true,8,0,2,2,false,d,false,false,0.0-2.0-0.18-0.165-3.165,1,1,0,81,false,stim,true,0,698,2,0,2,52028,task3,742001,false,false,757,image-keyboard-response,4
true,8,2,2,2,true,d,false,true,0.0-2.0-0.18-0.166-3.166,1,1,0,68,false,stim,false,0,515,2,0,2,52028,task3,744034,false,false,760,image-keyboard-response,5
true,8,1,2,1,true,z,false,true,0.0-2.0-0.18-0.167-3.167,1,1,0,90,false,stim,false,1,524,2,1,1,52028,task3,746078,false,false,763,image-keyboard-response,6
true,8,1,2,1,true,z,false,true,0.0-2.0-0.18-0.168-3.168,1,1,0,90,false,stim,false,1,397,2,1,1,52028,task3,747994,false,false,766,image-keyboard-response,7
true,8,1,2,1,true,z,false,false,0.0-2.0-0.18-0.169-3.169,1,1,0,90,false,stim,false,1,431,2,0,0,52028,task3,749949,false,true,769,image-keyboard-response,8
true,8,1,2,1,true,z,false,true,0.0-2.0-0.18-0.170-3.170,1,1,0,90,false,stim,false,1,375,2,0,0,52028,task3,751844,false,false,772,image-keyboard-response,9
true,8,1,2,1,true,z,false,true,0.0-2.0-0.19-0.171-3.171,1,1,0,90,false,stim,false,1,304,2,0,0,52028,task3,753669,false,false,775,image-keyboard-response,10
true,8,1,2,1,true,z,false,true,0.0-2.0-0.19-0.172-3.172,1,1,0,90,false,stim,false,1,355,2,0,0,52028,task3,755538,false,false,778,image-keyboard-response,11
true,9,2,2,2,true,d,false,true,0.0-2.0-0.19-0.173-3.173,0,1,1,68,true,stim,false,2,498,2,1,2,52028,task3,757541,false,false,781,image-keyboard-response,1
true,9,1,2,2,false,d,true,false,0.0-2.0-0.19-0.174-3.174,0,1,1,90,false,stim,false,2,291,2,1,2,52028,task3,759341,false,false,784,image-keyboard-response,2
true,9,1,2,2,false,d,false,false,0.0-2.0-0.19-0.175-3.175,0,1,1,90,false,stim,true,1,416,2,0,0,52028,task3,761280,false,false,787,image-keyboard-response,3
true,9,1,2,1,true,z,false,true,0.0-2.0-0.19-0.176-3.176,0,1,1,90,false,stim,false,1,574,2,1,1,52028,task3,763370,false,false,790,image-keyboard-response,4
true,9,2,2,2,true,d,false,true,0.0-2.0-0.19-0.177-3.177,0,1,1,68,false,stim,false,2,647,2,1,2,52028,task3,765540,false,false,793,image-keyboard-response,5
true,9,1,2,1,true,z,false,true,0.0-2.0-0.19-0.178-3.178,0,1,1,90,false,stim,false,1,645,2,1,1,52028,task3,767718,false,false,796,image-keyboard-response,6
true,9,1,2,1,true,z,false,true,0.0-2.0-0.19-0.179-3.179,0,1,1,90,false,stim,false,1,456,2,1,1,52028,task3,769684,false,false,799,image-keyboard-response,7
true,9,1,2,2,false,d,false,false,0.0-2.0-0.20-0.180-3.180,0,1,1,90,false,stim,true,1,648,2,1,0,52028,task3,771846,false,false,802,image-keyboard-response,8
true,9,1,2,1,true,z,false,true,0.0-2.0-0.20-0.181-3.181,0,1,1,90,false,stim,false,1,609,2,1,1,52028,task3,773980,false,false,805,image-keyboard-response,9
true,9,2,2,2,true,d,false,true,0.0-2.0-0.20-0.182-3.182,0,1,1,68,false,stim,false,2,592,2,0,2,52028,task3,776090,false,false,808,image-keyboard-response,10
true,9,1,2,1,true,z,false,true,0.0-2.0-0.20-0.183-3.183,0,1,1,90,false,stim,false,1,726,2,1,1,52028,task3,778328,false,false,811,image-keyboard-response,11
true,9,2,2,2,true,d,false,true,0.0-2.0-0.20-0.184-3.184,0,1,1,68,false,stim,false,1,713,2,1,0,52028,task3,780561,false,false,814,image-keyboard-response,12
true,10,2,2,1,false,z,false,false,0.0-2.0-0.20-0.185-3.185,1,1,0,68,true,stim,true,2,517,2,0,2,52028,task3,782601,false,false,817,image-keyboard-response,1
true,10,1,2,1,true,z,false,true,0.0-2.0-0.20-0.186-3.186,1,1,0,90,false,stim,false,1,545,2,1,1,52028,task3,784669,false,false,820,image-keyboard-response,2
true,10,2,2,2,true,d,false,true,0.0-2.0-0.20-0.187-3.187,1,1,0,68,false,stim,false,2,351,2,1,0,52028,task3,786537,false,false,823,image-keyboard-response,3
true,10,2,2,1,false,z,false,false,0.0-2.0-0.20-0.188-3.188,1,1,0,68,false,stim,true,2,384,2,0,2,52028,task3,788432,false,false,826,image-keyboard-response,4
true,10,1,2,1,true,z,false,true,0.0-2.0-0.21-0.189-3.189,1,1,0,90,false,stim,false,1,770,2,1,1,52028,task3,790729,false,false,829,image-keyboard-response,5
true,10,1,2,1,true,z,false,true,0.0-2.0-0.21-0.190-3.190,1,1,0,90,false,stim,false,2,446,2,0,2,52028,task3,792685,false,false,832,image-keyboard-response,6
true,10,1,2,1,true,z,false,true,0.0-2.0-0.21-0.191-3.191,1,1,0,90,false,stim,false,2,365,2,0,2,52028,task3,794566,false,false,835,image-keyboard-response,7
true,10,2,2,2,true,d,false,true,0.0-2.0-0.21-0.192-3.192,1,1,0,68,false,stim,false,2,379,2,1,0,52028,task3,796454,false,false,838,image-keyboard-response,8
true,10,1,2,1,true,z,false,true,0.0-2.0-0.21-0.193-3.193,1,1,0,90,false,stim,false,2,337,2,1,2,52028,task3,798312,false,false,841,image-keyboard-response,9
true,10,1,2,1,true,z,false,true,0.0-2.0-0.21-0.194-3.194,1,1,0,90,false,stim,false,1,469,2,0,1,52028,task3,800301,false,false,844,image-keyboard-response,10
true,10,2,2,2,true,d,false,false,0.0-2.0-0.21-0.195-3.195,1,1,0,68,false,stim,false,2,702,2,0,0,52028,task3,802516,false,true,847,image-keyboard-response,11
true,10,1,2,1,true,z,false,false,0.0-2.0-0.21-0.196-3.196,1,1,0,90,false,stim,false,1,322,2,0,1,52028,task3,804360,false,true,850,image-keyboard-response,12
true,10,2,2,2,true,d,false,true,0.0-2.0-0.21-0.197-3.197,1,1,0,68,false,stim,false,2,518,2,0,0,52028,task3,806391,false,false,853,image-keyboard-response,13
true,11,1,1,2,false,d,false,false,0.0-2.0-0.22-0.198-3.198,0,0,1,90,true,stim,true,1,420,2,0,1,52028,task3,808321,false,false,856,image-keyboard-response,1
true,11,1,1,1,true,z,false,true,0.0-2.0-0.22-0.199-3.199,0,0,1,90,false,stim,false,1,588,2,1,2,52028,task3,810432,false,false,859,image-keyboard-response,2
true,11,1,1,1,true,z,false,true,0.0-2.0-0.22-0.200-3.200,0,0,1,90,false,stim,false,1,407,2,1,2,52028,task3,812363,false,false,862,image-keyboard-response,3
true,11,2,1,2,true,d,false,true,0.0-2.0-0.22-0.201-3.201,0,0,1,68,false,stim,false,1,404,2,0,1,52028,task3,814292,false,false,865,image-keyboard-response,4
true,11,2,1,0,false,q,false,true,0.0-2.0-0.22-0.202-3.202,0,0,1,68,false,stim,true,2,565,2,0,0,52028,task3,816388,false,true,868,image-keyboard-response,5
true,11,2,1,2,true,d,false,true,0.0-2.0-0.22-0.203-3.203,0,0,1,68,false,stim,false,1,709,2,0,1,52028,task3,818620,false,false,871,image-keyboard-response,6
true,11,1,1,1,true,z,false,true,0.0-2.0-0.22-0.204-3.204,0,0,1,90,false,stim,false,1,784,2,1,2,52028,task3,820918,false,false,874,image-keyboard-response,7
true,11,2,1,0,false,q,false,false,0.0-2.0-0.22-0.205-3.205,0,0,1,68,false,stim,true,2,495,2,0,0,52028,task3,822927,false,false,877,image-keyboard-response,8
true,11,2,1,0,false,q,false,false,0.0-2.0-0.22-0.206-3.206,0,0,1,68,false,stim,true,2,339,2,0,0,52028,task3,824785,false,false,880,image-keyboard-response,9
true,11,1,1,1,true,z,false,true,0.0-2.0-0.23-0.207-3.207,0,0,1,90,false,stim,false,1,869,2,1,2,52028,task3,827168,false,false,883,image-keyboard-response,10
true,11,2,1,2,true,d,false,false,0.0-2.0-0.23-0.208-3.208,0,0,1,68,false,stim,false,1,529,2,0,1,52028,task3,829210,false,true,886,image-keyboard-response,11
true,11,1,1,1,true,z,false,true,0.0-2.0-0.23-0.209-3.209,0,0,1,90,false,stim,false,1,608,2,1,2,52028,task3,831341,false,false,889,image-keyboard-response,12
true,11,1,1,0,false,q,true,false,0.0-2.0-0.23-0.210-3.210,0,0,1,90,false,stim,false,2,403,2,0,0,52028,task3,833255,false,false,892,image-keyboard-response,13
true,11,2,1,2,true,d,false,true,0.0-2.0-0.23-0.211-3.211,0,0,1,68,false,stim,false,1,638,2,0,1,52028,task3,835421,false,false,895,image-keyboard-response,14
true,11,0,1,0,true,q,false,false,0.0-2.0-0.23-0.212-3.212,0,0,1,81,false,stim,false,2,374,2,0,0,52028,task3,837306,false,true,898,image-keyboard-response,15
true,11,1,1,1,true,z,false,true,0.0-2.0-0.23-0.213-3.213,0,0,1,90,false,stim,false,1,744,2,1,2,52028,task3,839577,false,false,901,image-keyboard-response,16
true,11,0,1,0,true,q,false,true,0.0-2.0-0.23-0.214-3.214,0,0,1,81,false,stim,false,2,366,2,0,0,52028,task3,841469,false,false,904,image-keyboard-response,17
true,11,2,1,2,true,d,false,true,0.0-2.0-0.23-0.215-3.215,0,0,1,68,false,stim,false,1,818,2,0,1,52028,task3,843805,false,false,907,image-keyboard-response,18
true,11,1,1,1,true,z,false,true,0.0-2.0-0.24-0.216-3.216,0,0,1,90,false,stim,false,1,625,2,1,2,52028,task3,845955,false,false,910,image-keyboard-response,19
true,11,0,1,0,true,q,false,true,0.0-2.0-0.24-0.217-3.217,0,0,1,81,false,stim,false,2,307,2,1,0,52028,task3,847781,false,false,913,image-keyboard-response,20
true,11,1,1,1,true,z,false,true,0.0-2.0-0.24-0.218-3.218,0,0,1,90,false,stim,false,1,516,2,1,2,52028,task3,849823,false,false,916,image-keyboard-response,21
true,11,1,1,1,true,z,false,true,0.0-2.0-0.24-0.219-3.219,0,0,1,90,false,stim,false,1,425,2,1,2,52028,task3,851769,false,false,919,image-keyboard-response,22
true,11,0,1,0,true,q,false,true,0.0-2.0-0.24-0.220-3.220,0,0,1,81,false,stim,false,2,485,2,1,0,52028,task3,853774,false,false,922,image-keyboard-response,23
true,11,2,1,2,true,d,false,true,0.0-2.0-0.24-0.221-3.221,0,0,1,68,false,stim,false,1,589,2,0,1,52028,task3,855890,false,false,925,image-keyboard-response,24
true,12,0,2,0,true,q,false,true,0.0-2.0-0.24-0.222-3.222,1,0,1,81,true,stim,false,0,705,2,1,0,52028,task3,858108,false,false,928,image-keyboard-response,1
true,12,2,2,0,false,q,false,true,0.0-2.0-0.24-0.223-3.223,1,0,1,68,false,stim,true,2,563,2,0,1,52028,task3,860178,false,true,931,image-keyboard-response,2
true,12,2,2,0,false,q,false,true,0.0-2.0-0.24-0.224-3.224,1,0,1,68,false,stim,true,2,502,2,0,1,52028,task3,862199,false,true,934,image-keyboard-response,3
true,12,0,2,0,true,q,false,true,0.0-2.0-0.25-0.225-3.225,1,0,1,81,false,stim,false,0,735,2,1,0,52028,task3,864457,false,false,937,image-keyboard-response,4
true,12,2,2,0,false,q,false,false,0.0-2.0-0.25-0.226-3.226,1,0,1,68,false,stim,true,2,574,2,0,1,52028,task3,866559,false,false,940,image-keyboard-response,5
true,12,2,2,0,false,q,false,false,0.0-2.0-0.25-0.227-3.227,1,0,1,68,false,stim,true,2,581,2,0,1,52028,task3,868665,false,false,943,image-keyboard-response,6
true,12,1,2,1,true,z,false,true,0.0-2.0-0.25-0.228-3.228,1,0,1,90,false,stim,false,1,733,2,1,2,52028,task3,870917,false,false,946,image-keyboard-response,7
true,12,1,2,0,false,q,true,false,0.0-2.0-0.25-0.229-3.229,1,0,1,90,false,stim,false,2,427,2,0,1,52028,task3,872864,false,false,949,image-keyboard-response,8
true,12,1,2,1,true,z,false,true,0.0-2.0-0.25-0.230-3.230,1,0,1,90,false,stim,false,1,573,2,1,2,52028,task3,874955,false,false,952,image-keyboard-response,9
true,12,1,2,1,true,z,false,false,0.0-2.0-0.25-0.231-3.231,1,0,1,90,false,stim,false,1,1022,2,1,2,52028,task3,877506,false,true,955,image-keyboard-response,10
true,12,0,2,0,true,q,false,true,0.0-2.0-0.25-0.232-3.232,1,0,1,81,false,stim,false,0,578,2,0,0,52028,task3,879605,false,false,958,image-keyboard-response,11
true,12,0,2,0,true,q,false,true,0.0-2.0-0.25-0.233-3.233,1,0,1,81,false,stim,false,0,791,2,0,0,52028,task3,881912,false,false,961,image-keyboard-response,12
true,12,0,2,0,true,q,false,true,0.0-2.0-0.26-0.234-3.234,1,0,1,81,false,stim,false,2,352,2,1,1,52028,task3,883785,false,false,964,image-keyboard-response,13
true,12,0,2,0,true,q,false,true,0.0-2.0-0.26-0.235-3.235,1,0,1,81,false,stim,false,0,507,2,0,0,52028,task3,885818,false,false,967,image-keyboard-response,14
true,12,1,2,1,true,z,false,true,0.0-2.0-0.26-0.236-3.236,1,0,1,90,false,stim,false,1,481,2,0,2,52028,task3,887817,false,false,970,image-keyboard-response,15
true,13,1,1,2,false,d,false,true,0.0-2.0-0.26-0.237-3.237,0,1,0,90,true,stim,true,1,458,2,0,2,52028,task3,889792,false,true,973,image-keyboard-response,1
true,13,0,1,0,true,q,false,true,0.0-2.0-0.26-0.238-3.238,0,1,0,81,false,stim,false,0,512,2,1,1,52028,task3,891824,false,false,976,image-keyboard-response,2
true,13,1,1,2,false,d,false,false,0.0-2.0-0.26-0.239-3.239,0,1,0,90,false,stim,true,1,552,2,0,2,52028,task3,893904,false,false,979,image-keyboard-response,3
true,13,0,1,0,true,q,false,true,0.0-2.0-0.26-0.240-3.240,0,1,0,81,false,stim,false,0,425,2,1,1,52028,task3,895856,false,false,982,image-keyboard-response,4
true,13,0,1,2,false,d,false,false,0.0-2.0-0.26-0.241-3.241,0,1,0,81,false,stim,true,0,460,2,0,0,52028,task3,897845,false,false,985,image-keyboard-response,5
true,13,0,1,2,false,d,false,false,0.0-2.0-0.26-0.242-3.242,0,1,0,81,false,stim,true,0,369,2,0,0,52028,task3,899745,false,false,988,image-keyboard-response,6
true,13,1,1,2,false,d,false,false,0.0-2.0-0.27-0.243-3.243,0,1,0,90,false,stim,true,1,578,2,0,2,52028,task3,901847,false,false,991,image-keyboard-response,7
true,13,1,1,2,false,d,true,false,0.0-2.0-0.27-0.244-3.244,0,1,0,90,false,stim,false,0,724,2,0,0,52028,task3,904090,false,false,994,image-keyboard-response,8
true,13,0,1,0,true,q,false,false,0.0-2.0-0.27-0.245-3.245,0,1,0,81,false,stim,false,0,755,2,1,1,52028,task3,906366,false,true,997,image-keyboard-response,9
true,13,2,1,2,true,d,false,true,0.0-2.0-0.27-0.246-3.246,0,1,0,68,false,stim,false,1,847,2,0,2,52028,task3,908732,false,false,1000,image-keyboard-response,10
true,13,2,1,2,true,d,false,true,0.0-2.0-0.27-0.247-3.247,0,1,0,68,false,stim,false,1,557,2,0,2,52028,task3,910813,false,false,1003,image-keyboard-response,11
true,13,1,1,0,false,q,true,true,0.0-2.0-0.27-0.248-3.248,0,1,0,90,false,stim,false,0,1583,2,1,1,52028,task3,913929,false,true,1006,image-keyboard-response,12
true,13,2,1,2,true,d,false,false,0.0-2.0-0.27-0.249-3.249,0,1,0,68,false,stim,false,0,480,2,0,0,52028,task3,915927,false,true,1009,image-keyboard-response,13
true,13,2,1,2,true,d,false,true,0.0-2.0-0.27-0.250-3.250,0,1,0,68,false,stim,false,0,563,2,0,0,52028,task3,918011,false,false,1012,image-keyboard-response,14
true,13,1,1,0,false,q,true,false,0.0-2.0-0.27-0.251-3.251,0,1,0,90,false,stim,false,0,818,2,1,1,52028,task3,920360,false,false,1015,image-keyboard-response,15
true,13,2,1,2,true,d,false,true,0.0-2.0-0.28-0.252-3.252,0,1,0,68,false,stim,false,0,623,2,0,0,52028,task3,922507,false,false,1018,image-keyboard-response,16
true,13,2,1,2,true,d,false,true,0.0-2.0-0.28-0.253-3.253,0,1,0,68,false,stim,false,1,372,2,0,2,52028,task3,924411,false,false,1021,image-keyboard-response,17
true,13,2,1,2,true,d,false,true,0.0-2.0-0.28-0.254-3.254,0,1,0,68,false,stim,false,1,355,2,0,2,52028,task3,926288,false,false,1024,image-keyboard-response,18
true,13,2,1,2,true,d,false,true,0.0-2.0-0.28-0.255-3.255,0,1,0,68,false,stim,false,0,648,2,0,0,52028,task3,928459,false,false,1027,image-keyboard-response,19
true,13,2,1,2,true,d,false,false,0.0-2.0-0.28-0.256-3.256,0,1,0,68,false,stim,false,1,483,2,0,2,52028,task3,930462,false,true,1030,image-keyboard-response,20
true,13,1,1,0,false,q,true,false,0.0-2.0-0.28-0.257-3.257,0,1,0,90,false,stim,false,0,477,2,1,1,52028,task3,932469,false,false,1033,image-keyboard-response,21
true,13,2,1,2,true,d,false,true,0.0-2.0-0.28-0.258-3.258,0,1,0,68,false,stim,false,0,488,2,0,0,52028,task3,934481,false,false,1036,image-keyboard-response,22
true,13,1,1,0,false,q,true,false,0.0-2.0-0.28-0.259-3.259,0,1,0,90,false,stim,false,0,360,2,1,1,52028,task3,936359,false,false,1039,image-keyboard-response,23
true,13,0,1,0,true,q,false,true,0.0-2.0-0.28-0.260-3.260,0,1,0,81,false,stim,false,0,401,2,1,1,52028,task3,938279,false,false,1042,image-keyboard-response,24
true,13,2,1,2,true,d,false,true,0.0-2.0-0.29-0.261-3.261,0,1,0,68,false,stim,false,0,537,2,1,0,52028,task3,940339,false,false,1045,image-keyboard-response,25
true,13,2,1,2,true,d,false,true,0.0-2.0-0.29-0.262-3.262,0,1,0,68,false,stim,false,1,1026,2,0,2,52028,task3,942891,false,false,1048,image-keyboard-response,26
true,13,2,1,2,true,d,false,true,0.0-2.0-0.29-0.263-3.263,0,1,0,68,false,stim,false,1,401,2,0,2,52028,task3,944803,false,false,1051,image-keyboard-response,27
true,13,2,1,2,true,d,false,true,0.0-2.0-0.29-0.264-3.264,0,1,0,68,false,stim,false,0,1496,2,1,0,52028,task3,947820,false,false,1054,image-keyboard-response,28
true,13,2,1,2,true,d,false,true,0.0-2.0-0.29-0.265-3.265,0,1,0,68,false,stim,false,0,365,2,1,0,52028,task3,949715,false,false,1057,image-keyboard-response,29
true,14,0,1,2,false,d,false,false,0.0-2.0-0.29-0.266-3.266,1,0,0,81,true,stim,true,0,673,2,0,1,52028,task3,951913,false,false,1060,image-keyboard-response,1
true,14,0,1,2,false,d,false,false,0.0-2.0-0.29-0.267-3.267,1,0,0,81,false,stim,true,0,406,2,0,1,52028,task3,953839,false,false,1063,image-keyboard-response,2
true,14,1,1,2,false,d,true,false,0.0-2.0-0.29-0.268-3.268,1,0,0,90,false,stim,false,0,599,2,0,1,52028,task3,955949,false,false,1066,image-keyboard-response,3
true,14,2,1,0,false,q,false,false,0.0-2.0-0.29-0.269-3.269,1,0,0,68,false,stim,true,2,800,2,0,2,52028,task3,958272,false,false,1069,image-keyboard-response,4
true,14,2,1,2,true,d,false,true,0.0-2.0-0.30-0.270-3.270,1,0,0,68,false,stim,false,2,715,2,1,0,52028,task3,960493,false,false,1072,image-keyboard-response,5
true,14,2,1,0,false,q,false,false,0.0-2.0-0.30-0.271-3.271,1,0,0,68,false,stim,true,2,537,2,0,2,52028,task3,962554,false,false,1075,image-keyboard-response,6
true,14,1,1,0,false,q,true,false,0.0-2.0-0.30-0.272-3.272,1,0,0,90,false,stim,false,2,622,2,0,2,52028,task3,964693,false,false,1078,image-keyboard-response,7
true,14,2,1,2,true,d,false,true,0.0-2.0-0.30-0.273-3.273,1,0,0,68,false,stim,false,2,663,2,1,0,52028,task3,966885,false,false,1081,image-keyboard-response,8
true,14,2,1,2,true,d,false,true,0.0-2.0-0.30-0.274-3.274,1,0,0,68,false,stim,false,2,580,2,1,0,52028,task3,968989,false,false,1084,image-keyboard-response,9
true,14,2,1,2,true,d,false,true,0.0-2.0-0.30-0.275-3.275,1,0,0,68,false,stim,false,0,422,2,0,1,52028,task3,970937,false,false,1087,image-keyboard-response,10
true,14,2,1,2,true,d,false,true,0.0-2.0-0.30-0.276-3.276,1,0,0,68,false,stim,false,0,465,2,0,1,52028,task3,972922,false,false,1090,image-keyboard-response,11
true,14,2,1,2,true,d,false,true,0.0-2.0-0.30-0.277-3.277,1,0,0,68,false,stim,false,0,413,2,0,1,52028,task3,974851,false,false,1093,image-keyboard-response,12
true,14,0,1,0,true,q,false,false,0.0-2.0-0.30-0.278-3.278,1,0,0,81,false,stim,false,2,360,2,0,2,52028,task3,976725,false,true,1096,image-keyboard-response,13
true,14,2,1,2,true,d,false,true,0.0-2.0-0.31-0.279-3.279,1,0,0,68,false,stim,false,2,1358,2,1,0,52028,task3,979597,false,false,1099,image-keyboard-response,14
true,14,2,1,2,true,d,false,true,0.0-2.0-0.31-0.280-3.280,1,0,0,68,false,stim,false,2,391,2,1,0,52028,task3,981520,false,false,1102,image-keyboard-response,15
true,14,2,1,2,true,d,false,true,0.0-2.0-0.31-0.281-3.281,1,0,0,68,false,stim,false,0,527,2,0,1,52028,task3,983566,false,false,1105,image-keyboard-response,16
true,14,0,1,0,true,q,false,true,0.0-2.0-0.31-0.282-3.282,1,0,0,81,false,stim,false,2,381,2,0,2,52028,task3,985471,false,false,1108,image-keyboard-response,17
true,14,0,1,0,true,q,false,true,0.0-2.0-0.31-0.283-3.283,1,0,0,81,false,stim,false,2,529,2,0,2,52028,task3,987512,false,false,1111,image-keyboard-response,18
true,14,0,1,0,true,q,false,true,0.0-2.0-0.31-0.284-3.284,1,0,0,81,false,stim,false,2,721,2,0,2,52028,task3,989753,false,false,1114,image-keyboard-response,19
true,14,2,1,2,true,d,false,true,0.0-2.0-0.31-0.285-3.285,1,0,0,68,false,stim,false,2,402,2,1,0,52028,task3,991676,false,false,1117,image-keyboard-response,20
true,14,2,1,2,true,d,false,true,0.0-2.0-0.31-0.286-3.286,1,0,0,68,false,stim,false,0,608,2,0,1,52028,task3,993798,false,false,1120,image-keyboard-response,21
true,14,2,1,2,true,d,false,false,0.0-2.0-0.31-0.287-3.287,1,0,0,68,false,stim,false,0,310,2,0,1,52028,task3,995620,false,true,1123,image-keyboard-response,22
true,14,2,1,2,true,d,false,true,0.0-2.0-0.32-0.288-3.288,1,0,0,68,false,stim,false,2,515,2,1,0,52028,task3,997663,false,false,1126,image-keyboard-response,23
true,14,2,1,2,true,d,false,true,0.0-2.0-0.32-0.289-3.289,1,0,0,68,false,stim,false,0,419,2,0,1,52028,task3,999609,false,false,1129,image-keyboard-response,24
true,14,0,1,0,true,q,false,true,0.0-2.0-0.32-0.290-3.290,1,0,0,81,false,stim,false,2,403,2,1,2,52028,task3,1001528,false,false,1132,image-keyboard-response,25
true,14,0,1,0,true,q,false,true,0.0-2.0-0.32-0.291-3.291,1,0,0,81,false,stim,false,2,1584,2,1,2,52028,task3,1004626,false,false,1135,image-keyboard-response,26
true,14,2,1,2,true,d,false,true,0.0-2.0-0.32-0.292-3.292,1,0,0,68,false,stim,false,2,594,2,0,0,52028,task3,1006736,false,false,1138,image-keyboard-response,27
true,14,0,1,0,true,q,false,false,0.0-2.0-0.32-0.293-3.293,1,0,0,81,false,stim,false,2,617,2,1,2,52028,task3,1008879,false,true,1141,image-keyboard-response,28
true,14,2,1,2,true,d,false,true,0.0-2.0-0.32-0.294-3.294,1,0,0,68,false,stim,false,2,366,2,0,0,52028,task3,1010764,false,false,1144,image-keyboard-response,29
true,15,2,1,1,false,z,false,false,0.0-2.0-0.32-0.295-3.295,0,0,1,68,true,stim,true,2,908,2,0,1,52028,task3,1013187,false,false,1147,image-keyboard-response,1
true,15,2,1,1,false,z,false,false,0.0-2.0-0.32-0.296-3.296,0,0,1,68,false,stim,true,2,360,2,0,1,52028,task3,1015072,false,false,1150,image-keyboard-response,2
true,15,0,1,0,true,q,false,true,0.0-2.0-0.33-0.297-3.297,0,0,1,81,false,stim,false,0,802,2,1,2,52028,task3,1017402,false,false,1153,image-keyboard-response,3
true,15,2,1,0,false,q,false,false,0.0-2.0-0.33-0.298-3.298,0,0,1,68,false,stim,true,2,881,2,0,0,52028,task3,1019801,false,false,1156,image-keyboard-response,4
true,15,0,1,0,true,q,false,true,0.0-2.0-0.33-0.299-3.299,0,0,1,81,false,stim,false,0,674,2,1,2,52028,task3,1021999,false,false,1159,image-keyboard-response,5
true,15,0,1,1,false,z,true,false,0.0-2.0-0.33-0.300-3.300,0,0,1,81,false,stim,false,2,725,2,0,1,52028,task3,1024246,false,false,1162,image-keyboard-response,6
true,15,0,1,0,true,q,false,true,0.0-2.0-0.33-0.301-3.301,0,0,1,81,false,stim,false,0,618,2,1,2,52028,task3,1026392,false,false,1165,image-keyboard-response,7
true,15,1,1,1,true,z,false,false,0.0-2.0-0.33-0.302-3.302,0,0,1,90,false,stim,false,2,435,2,0,1,52028,task3,1028353,false,true,1168,image-keyboard-response,8
true,15,1,1,0,false,q,true,false,0.0-2.0-0.33-0.303-3.303,0,0,1,90,false,stim,false,2,773,2,0,0,52028,task3,1030646,false,false,1171,image-keyboard-response,9
true,15,1,1,0,false,q,true,false,0.0-2.0-0.33-0.304-3.304,0,0,1,90,false,stim,false,2,357,2,0,0,52028,task3,1032535,false,false,1174,image-keyboard-response,10
true,15,1,1,1,true,z,false,false,0.0-2.0-0.33-0.305-3.305,0,0,1,90,false,stim,false,2,709,2,0,1,52028,task3,1034763,false,true,1177,image-keyboard-response,11
true,15,0,1,1,false,z,true,false,0.0-2.0-0.34-0.306-3.306,0,0,1,81,false,stim,false,2,903,2,0,1,52028,task3,1037188,false,false,1180,image-keyboard-response,12
true,15,0,1,0,true,q,false,true,0.0-2.0-0.34-0.307-3.307,0,0,1,81,false,stim,false,0,617,2,1,2,52028,task3,1039334,false,false,1183,image-keyboard-response,13
true,15,0,1,0,true,q,false,true,0.0-2.0-0.34-0.308-3.308,0,0,1,81,false,stim,false,0,717,2,1,2,52028,task3,1041574,false,false,1186,image-keyboard-response,14
true,15,0,1,0,true,q,false,true,0.0-2.0-0.34-0.309-3.309,0,0,1,81,false,stim,false,0,537,2,1,2,52028,task3,1043632,false,false,1189,image-keyboard-response,15
true,15,0,1,1,false,z,true,false,0.0-2.0-0.34-0.310-3.310,0,0,1,81,false,stim,false,2,372,2,0,1,52028,task3,1045512,false,false,1192,image-keyboard-response,16
true,15,0,1,0,true,q,false,true,0.0-2.0-0.34-0.311-3.311,0,0,1,81,false,stim,false,2,394,2,0,0,52028,task3,1047413,false,false,1195,image-keyboard-response,17
true,15,2,1,1,false,z,false,false,0.0-2.0-0.34-0.312-3.312,0,0,1,68,false,stim,true,2,379,2,0,1,52028,task3,1049308,false,false,1198,image-keyboard-response,18
true,15,0,1,0,true,q,false,true,0.0-2.0-0.34-0.313-3.313,0,0,1,81,false,stim,false,2,570,2,1,0,52028,task3,1051403,false,false,1201,image-keyboard-response,19
true,15,0,1,0,true,q,false,true,0.0-2.0-0.34-0.314-3.314,0,0,1,81,false,stim,false,2,547,2,1,0,52028,task3,1053465,false,false,1204,image-keyboard-response,20
true,15,0,1,0,true,q,false,true,0.0-2.0-0.35-0.315-3.315,0,0,1,81,false,stim,false,0,580,2,1,2,52028,task3,1055573,false,false,1207,image-keyboard-response,21
true,15,0,1,0,true,q,false,true,0.0-2.0-0.35-0.316-3.316,0,0,1,81,false,stim,false,2,390,2,1,0,52028,task3,1057491,false,false,1210,image-keyboard-response,22
true,15,2,1,1,false,z,false,false,0.0-2.0-0.35-0.317-3.317,0,0,1,68,false,stim,true,2,665,2,0,1,52028,task3,1059674,false,false,1213,image-keyboard-response,23
true,16,1,2,2,false,d,false,false,0.0-2.0-0.35-0.318-3.318,1,0,1,90,true,stim,true,1,561,2,0,1,52028,task3,1061754,false,false,1216,image-keyboard-response,1
true,16,0,2,0,true,q,false,true,0.0-2.0-0.35-0.319-3.319,1,0,1,81,false,stim,false,0,748,2,1,2,52028,task3,1064011,false,false,1219,image-keyboard-response,2
true,16,0,2,0,true,q,false,true,0.0-2.0-0.35-0.320-3.320,1,0,1,81,false,stim,false,0,506,2,1,0,52028,task3,1066035,false,false,1222,image-keyboard-response,3
true,16,1,2,2,false,d,false,false,0.0-2.0-0.35-0.321-3.321,1,0,1,90,false,stim,true,1,450,2,0,1,52028,task3,1067996,false,false,1225,image-keyboard-response,4
true,16,0,2,0,true,q,false,true,0.0-2.0-0.35-0.322-3.322,1,0,1,81,false,stim,false,0,587,2,1,2,52028,task3,1070099,false,false,1228,image-keyboard-response,5
true,16,0,2,0,true,q,false,true,0.0-2.0-0.35-0.323-3.323,1,0,1,81,false,stim,false,0,536,2,1,0,52028,task3,1072154,false,false,1231,image-keyboard-response,6
true,16,0,2,0,true,q,false,true,0.0-2.0-0.36-0.324-3.324,1,0,1,81,false,stim,false,0,483,2,1,0,52028,task3,1074165,false,false,1234,image-keyboard-response,7
true,16,0,2,0,true,q,false,true,0.0-2.0-0.36-0.325-3.325,1,0,1,81,false,stim,false,0,528,2,0,2,52028,task3,1076223,false,false,1237,image-keyboard-response,8
true,16,0,2,0,true,q,false,true,0.0-2.0-0.36-0.326-3.326,1,0,1,81,false,stim,false,0,418,2,0,0,52028,task3,1078157,false,false,1240,image-keyboard-response,9
true,16,0,2,2,false,d,true,false,0.0-2.0-0.36-0.327-3.327,1,0,1,81,false,stim,false,1,356,2,1,1,52028,task3,1080022,false,false,1243,image-keyboard-response,10
true,16,0,2,0,true,q,false,true,0.0-2.0-0.36-0.328-3.328,1,0,1,81,false,stim,false,0,497,2,0,0,52028,task3,1082036,false,false,1246,image-keyboard-response,11
true,16,2,2,2,true,d,false,true,0.0-2.0-0.36-0.329-3.329,1,0,1,68,false,stim,false,1,637,2,1,1,52028,task3,1084191,false,false,1249,image-keyboard-response,12
true,17,2,1,2,true,d,false,true,0.0-2.0-0.36-0.330-3.330,0,1,0,68,true,stim,false,2,321,2,1,1,52028,task3,1086043,false,false,1252,image-keyboard-response,1
true,17,0,1,1,false,z,false,false,0.0-2.0-0.36-0.331-3.331,0,1,0,81,false,stim,true,0,482,2,0,2,52028,task3,1088051,false,false,1255,image-keyboard-response,2
true,17,0,1,1,false,z,false,false,0.0-2.0-0.36-0.332-3.332,0,1,0,81,false,stim,true,0,553,2,0,2,52028,task3,1090120,false,false,1258,image-keyboard-response,3
true,17,2,1,2,true,d,false,true,0.0-2.0-0.37-0.333-3.333,0,1,0,68,false,stim,false,2,840,2,1,1,52028,task3,1092472,false,false,1261,image-keyboard-response,4
true,17,2,1,1,false,z,true,true,0.0-2.0-0.37-0.334-3.334,0,1,0,68,false,stim,false,0,434,2,0,2,52028,task3,1094437,false,true,1264,image-keyboard-response,5
true,17,0,1,2,false,d,false,false,0.0-2.0-0.37-0.335-3.335,0,1,0,81,false,stim,true,0,450,2,0,0,52028,task3,1096410,false,false,1267,image-keyboard-response,6
true,17,2,1,1,false,z,true,false,0.0-2.0-0.37-0.336-3.336,0,1,0,68,false,stim,false,0,567,2,0,2,52028,task3,1098506,false,false,1270,image-keyboard-response,7
true,17,2,1,2,true,d,false,true,0.0-2.0-0.37-0.337-3.337,0,1,0,68,false,stim,false,2,626,2,1,1,52028,task3,1100655,false,false,1273,image-keyboard-response,8
true,17,2,1,2,true,d,false,true,0.0-2.0-0.37-0.338-3.338,0,1,0,68,false,stim,false,2,429,2,1,1,52028,task3,1102601,false,false,1276,image-keyboard-response,9
true,17,1,1,2,false,d,true,false,0.0-2.0-0.37-0.339-3.339,0,1,0,90,false,stim,false,0,923,2,0,0,52028,task3,1105044,false,false,1279,image-keyboard-response,10
true,17,1,1,2,false,d,true,true,0.0-2.0-0.37-0.340-3.340,0,1,0,90,false,stim,false,0,443,2,0,0,52028,task3,1107005,false,true,1282,image-keyboard-response,11
true,17,2,1,1,false,z,true,false,0.0-2.0-0.37-0.341-3.341,0,1,0,68,false,stim,false,0,475,2,0,2,52028,task3,1109001,false,false,1285,image-keyboard-response,12
true,17,1,1,2,false,d,true,false,0.0-2.0-0.38-0.342-3.342,0,1,0,90,false,stim,false,0,922,2,0,0,52028,task3,1111439,false,false,1288,image-keyboard-response,13
true,17,2,1,1,false,z,true,false,0.0-2.0-0.38-0.343-3.343,0,1,0,68,false,stim,false,0,505,2,0,2,52028,task3,1113454,false,false,1291,image-keyboard-response,14
true,17,1,1,2,false,d,true,false,0.0-2.0-0.38-0.344-3.344,0,1,0,90,false,stim,false,0,673,2,0,0,52028,task3,1115646,false,false,1294,image-keyboard-response,15
true,17,1,1,2,false,d,true,false,0.0-2.0-0.38-0.345-3.345,0,1,0,90,false,stim,false,0,397,2,0,0,52028,task3,1117562,false,false,1297,image-keyboard-response,16
true,17,2,1,2,true,d,false,true,0.0-2.0-0.38-0.346-3.346,0,1,0,68,false,stim,false,2,974,2,1,1,52028,task3,1120058,false,false,1300,image-keyboard-response,17
true,17,2,1,2,true,d,false,true,0.0-2.0-0.38-0.347-3.347,0,1,0,68,false,stim,false,2,806,2,1,1,52028,task3,1122392,false,false,1303,image-keyboard-response,18
true,17,0,1,1,false,z,false,false,0.0-2.0-0.38-0.348-3.348,0,1,0,81,false,stim,true,0,519,2,0,2,52028,task3,1124431,false,false,1306,image-keyboard-response,19
true,17,0,1,1,false,z,false,true,0.0-2.0-0.38-0.349-3.349,0,1,0,81,false,stim,true,0,393,2,0,2,52028,task3,1126346,false,true,1309,image-keyboard-response,20
true,17,2,1,2,true,d,false,true,0.0-2.0-0.38-0.350-3.350,0,1,0,68,false,stim,false,2,754,2,1,1,52028,task3,1128618,false,false,1312,image-keyboard-response,21
true,17,2,1,2,true,d,false,true,0.0-2.0-0.39-0.351-3.351,0,1,0,68,false,stim,false,2,681,2,1,1,52028,task3,1130825,false,false,1315,image-keyboard-response,22
true,17,0,1,2,false,d,false,false,0.0-2.0-0.39-0.352-3.352,0,1,0,81,false,stim,true,0,369,2,0,0,52028,task3,1132712,false,false,1318,image-keyboard-response,23
true,17,0,1,1,false,z,false,false,0.0-2.0-0.39-0.353-3.353,0,1,0,81,false,stim,true,0,754,2,0,2,52028,task3,1134989,false,false,1321,image-keyboard-response,24
true,17,2,1,2,true,d,false,true,0.0-2.0-0.39-0.354-3.354,0,1,0,68,false,stim,false,2,475,2,1,1,52028,task3,1136978,false,false,1324,image-keyboard-response,25
true,17,2,1,2,true,d,false,true,0.0-2.0-0.39-0.355-3.355,0,1,0,68,false,stim,false,2,444,2,1,1,52028,task3,1138939,false,false,1327,image-keyboard-response,26
true,17,0,1,2,false,d,false,false,0.0-2.0-0.39-0.356-3.356,0,1,0,81,false,stim,true,0,450,2,0,0,52028,task3,1140918,false,false,1330,image-keyboard-response,27
true,17,0,1,1,false,z,false,false,0.0-2.0-0.39-0.357-3.357,0,1,0,81,false,stim,true,0,965,2,0,2,52028,task3,1143403,false,false,1333,image-keyboard-response,28
true,17,2,1,2,true,d,false,false,0.0-2.0-0.39-0.358-3.358,0,1,0,68,false,stim,false,0,790,2,0,0,52028,task3,1145716,false,true,1336,image-keyboard-response,29
true,17,2,1,1,false,z,true,false,0.0-2.0-0.39-0.359-3.359,0,1,0,68,false,stim,false,0,1036,2,0,2,52028,task3,1148271,false,false,1339,image-keyboard-response,30
true,18,2,1,1,false,z,false,false,0.0-2.0-0.40-0.360-3.360,0,1,0,68,true,stim,true,2,765,2,0,0,52028,task3,1150561,false,false,1342,image-keyboard-response,1
true,18,2,1,2,true,d,false,false,0.0-2.0-0.40-0.361-3.361,0,1,0,68,false,stim,false,2,1072,2,1,1,52028,task3,1153146,false,true,1345,image-keyboard-response,2
true,18,1,1,0,false,q,false,false,0.0-2.0-0.40-0.362-3.362,0,1,0,90,false,stim,true,1,818,2,0,2,52028,task3,1155482,false,false,1348,image-keyboard-response,3
true,18,1,1,0,false,q,false,false,0.0-2.0-0.40-0.363-3.363,0,1,0,90,false,stim,true,1,421,2,0,2,52028,task3,1157423,false,false,1351,image-keyboard-response,4
true,18,1,1,1,true,z,false,true,0.0-2.0-0.40-0.364-3.364,0,1,0,90,false,stim,false,2,1186,2,0,0,52028,task3,1160139,false,false,1354,image-keyboard-response,5
true,18,1,1,1,true,z,false,true,0.0-2.0-0.40-0.365-3.365,0,1,0,90,false,stim,false,2,414,2,0,0,52028,task3,1162069,false,false,1357,image-keyboard-response,6
true,18,2,1,2,true,d,false,true,0.0-2.0-0.40-0.366-3.366,0,1,0,68,false,stim,false,2,392,2,1,1,52028,task3,1163977,false,false,1360,image-keyboard-response,7
true,18,0,1,0,true,q,false,true,0.0-2.0-0.40-0.367-3.367,0,1,0,81,false,stim,false,1,918,2,0,2,52028,task3,1166420,false,false,1363,image-keyboard-response,8
true,18,2,1,2,true,d,false,true,0.0-2.0-0.40-0.368-3.368,0,1,0,68,false,stim,false,2,943,2,1,1,52028,task3,1168879,false,false,1366,image-keyboard-response,9
true,18,1,1,1,true,z,false,true,0.0-2.0-0.41-0.369-3.369,0,1,0,90,false,stim,false,2,882,2,0,0,52028,task3,1171286,false,false,1369,image-keyboard-response,10
true,18,0,1,0,true,q,false,true,0.0-2.0-0.41-0.370-3.370,0,1,0,81,false,stim,false,1,400,2,0,2,52028,task3,1173221,false,false,1372,image-keyboard-response,11
true,18,1,1,1,true,z,false,true,0.0-2.0-0.41-0.371-3.371,0,1,0,90,false,stim,false,2,665,2,0,0,52028,task3,1175413,false,false,1375,image-keyboard-response,12
true,18,2,1,2,true,d,false,true,0.0-2.0-0.41-0.372-3.372,0,1,0,68,false,stim,false,2,422,2,1,1,52028,task3,1177369,false,false,1378,image-keyboard-response,13
true,18,1,1,1,true,z,false,true,0.0-2.0-0.41-0.373-3.373,0,1,0,90,false,stim,false,2,534,2,0,0,52028,task3,1179424,false,false,1381,image-keyboard-response,14
true,18,2,1,2,true,d,false,true,0.0-2.0-0.41-0.374-3.374,0,1,0,68,false,stim,false,2,511,2,1,1,52028,task3,1181452,false,false,1384,image-keyboard-response,15
true,18,0,1,0,true,q,false,true,0.0-2.0-0.41-0.375-3.375,0,1,0,81,false,stim,false,1,543,2,0,2,52028,task3,1183518,false,false,1387,image-keyboard-response,16
true,18,2,1,2,true,d,false,true,0.0-2.0-0.41-0.376-3.376,0,1,0,68,false,stim,false,2,449,2,1,1,52028,task3,1185483,false,false,1390,image-keyboard-response,17
true,18,0,1,0,true,q,false,true,0.0-2.0-0.41-0.377-3.377,0,1,0,81,false,stim,false,1,584,2,0,2,52028,task3,1187589,false,false,1393,image-keyboard-response,18
true,18,2,1,2,true,d,false,true,0.0-2.0-0.42-0.378-3.378,0,1,0,68,false,stim,false,2,750,2,1,1,52028,task3,1189854,false,false,1396,image-keyboard-response,19
true,18,1,1,1,true,z,false,true,0.0-2.0-0.42-0.379-3.379,0,1,0,90,false,stim,false,2,371,2,0,0,52028,task3,1191754,false,false,1399,image-keyboard-response,20
true,18,0,1,0,true,q,false,true,0.0-2.0-0.42-0.380-3.380,0,1,0,81,false,stim,false,1,463,2,0,2,52028,task3,1193759,false,false,1402,image-keyboard-response,21
true,18,0,1,0,true,q,false,true,0.0-2.0-0.42-0.381-3.381,0,1,0,81,false,stim,false,1,483,2,0,2,52028,task3,1195764,false,false,1405,image-keyboard-response,22
true,18,2,1,2,true,d,false,true,0.0-2.0-0.42-0.382-3.382,0,1,0,68,false,stim,false,2,541,2,0,1,52028,task3,1197823,false,false,1408,image-keyboard-response,23
true,18,2,1,2,true,d,false,true,0.0-2.0-0.42-0.383-3.383,0,1,0,68,false,stim,false,2,967,2,0,1,52028,task3,1200310,false,false,1411,image-keyboard-response,24
true,18,0,1,0,true,q,false,true,0.0-2.0-0.42-0.384-3.384,0,1,0,81,false,stim,false,1,721,2,1,2,52028,task3,1202555,false,false,1414,image-keyboard-response,25
true,18,1,1,1,true,z,false,true,0.0-2.0-0.42-0.385-3.385,0,1,0,90,false,stim,false,2,586,2,0,0,52028,task3,1204665,false,false,1417,image-keyboard-response,26
true,18,1,1,1,true,z,false,true,0.0-2.0-0.42-0.386-3.386,0,1,0,90,false,stim,false,2,345,2,0,0,52028,task3,1206528,false,false,1420,image-keyboard-response,27
true,19,0,1,0,true,q,false,false,0.0-2.0-0.43-0.387-3.387,0,0,1,81,true,stim,false,0,457,2,1,2,52028,task3,1208505,false,true,1423,image-keyboard-response,1
true,19,1,1,2,false,d,false,false,0.0-2.0-0.43-0.388-3.388,0,0,1,90,false,stim,true,1,695,2,0,0,52028,task3,1210718,false,false,1426,image-keyboard-response,2
true,19,0,1,0,true,q,false,true,0.0-2.0-0.43-0.389-3.389,0,0,1,81,false,stim,false,0,855,2,1,2,52028,task3,1213084,false,false,1429,image-keyboard-response,3
true,19,2,1,1,false,z,false,false,0.0-2.0-0.43-0.390-3.390,0,0,1,68,false,stim,true,2,601,2,0,1,52028,task3,1215215,false,false,1432,image-keyboard-response,4
true,19,2,1,1,false,z,false,false,0.0-2.0-0.43-0.391-3.391,0,0,1,68,false,stim,true,2,505,2,0,1,52028,task3,1217239,false,false,1435,image-keyboard-response,5
true,19,1,1,2,false,d,false,false,0.0-2.0-0.43-0.392-3.392,0,0,1,90,false,stim,true,1,687,2,0,0,52028,task3,1219440,false,false,1438,image-keyboard-response,6
true,19,0,1,0,true,q,false,true,0.0-2.0-0.43-0.393-3.393,0,0,1,81,false,stim,false,0,845,2,1,2,52028,task3,1221798,false,false,1441,image-keyboard-response,7
true,19,0,1,2,false,d,true,false,0.0-2.0-0.43-0.394-3.394,0,0,1,81,false,stim,false,1,438,2,0,0,52028,task3,1223756,false,false,1444,image-keyboard-response,8
true,19,0,1,1,false,z,true,false,0.0-2.0-0.43-0.395-3.395,0,0,1,81,false,stim,false,2,971,2,0,1,52028,task3,1226242,false,false,1447,image-keyboard-response,9
true,19,0,1,0,true,q,false,true,0.0-2.0-0.44-0.396-3.396,0,0,1,81,false,stim,false,0,595,2,1,2,52028,task3,1228363,false,false,1450,image-keyboard-response,10
true,19,0,1,1,false,z,true,false,0.0-2.0-0.44-0.397-3.397,0,0,1,81,false,stim,false,2,530,2,0,1,52028,task3,1230411,false,false,1453,image-keyboard-response,11
true,19,1,1,1,true,z,false,true,0.0-2.0-0.44-0.398-3.398,0,0,1,90,false,stim,false,2,369,2,0,1,52028,task3,1232299,false,false,1456,image-keyboard-response,12
true,19,1,1,2,false,d,false,true,0.0-2.0-0.44-0.399-3.399,0,0,1,90,false,stim,true,1,1409,2,0,0,52028,task3,1235230,false,true,1459,image-keyboard-response,13
true,19,0,1,0,true,q,false,true,0.0-2.0-0.44-0.400-3.400,0,0,1,81,false,stim,false,0,599,2,1,2,52028,task3,1237343,false,false,1462,image-keyboard-response,14
true,19,1,1,1,true,z,false,true,0.0-2.0-0.44-0.401-3.401,0,0,1,90,false,stim,false,2,341,2,0,1,52028,task3,1239215,false,false,1465,image-keyboard-response,15
true,19,1,1,2,false,d,false,false,0.0-2.0-0.44-0.402-3.402,0,0,1,90,false,stim,true,1,724,2,0,0,52028,task3,1241459,false,false,1468,image-keyboard-response,16
true,19,1,1,2,false,d,false,false,0.0-2.0-0.44-0.403-3.403,0,0,1,90,false,stim,true,1,397,2,0,0,52028,task3,1243380,false,false,1471,image-keyboard-response,17
true,19,0,1,0,true,q,false,true,0.0-2.0-0.44-0.404-3.404,0,0,1,81,false,stim,false,0,597,2,1,2,52028,task3,1245492,false,false,1474,image-keyboard-response,18
true,19,1,1,1,true,z,false,true,0.0-2.0-0.45-0.405-3.405,0,0,1,90,false,stim,false,2,587,2,0,1,52028,task3,1247600,false,false,1477,image-keyboard-response,19
true,19,2,1,2,true,d,false,true,0.0-2.0-0.45-0.406-3.406,0,0,1,68,false,stim,false,1,347,2,0,0,52028,task3,1249465,false,false,1480,image-keyboard-response,20
true,19,0,1,0,true,q,false,true,0.0-2.0-0.45-0.407-3.407,0,0,1,81,false,stim,false,0,769,2,1,2,52028,task3,1251756,false,false,1483,image-keyboard-response,21
true,19,2,1,2,true,d,false,true,0.0-2.0-0.45-0.408-3.408,0,0,1,68,false,stim,false,1,653,2,0,0,52028,task3,1253923,false,false,1486,image-keyboard-response,22
true,19,0,1,0,true,q,false,true,0.0-2.0-0.45-0.409-3.409,0,0,1,81,false,stim,false,0,645,2,1,2,52028,task3,1256090,false,false,1489,image-keyboard-response,23
true,19,0,1,0,true,q,false,true,0.0-2.0-0.45-0.410-3.410,0,0,1,81,false,stim,false,0,530,2,1,2,52028,task3,1258133,false,false,1492,image-keyboard-response,24
true,19,1,1,1,true,z,false,true,0.0-2.0-0.45-0.411-3.411,0,0,1,90,false,stim,false,2,948,2,0,1,52028,task3,1260606,false,false,1495,image-keyboard-response,25
true,19,2,1,2,true,d,false,true,0.0-2.0-0.45-0.412-3.412,0,0,1,68,false,stim,false,1,670,2,0,0,52028,task3,1262805,false,false,1498,image-keyboard-response,26
true,19,1,1,1,true,z,false,true,0.0-2.0-0.45-0.413-3.413,0,0,1,90,false,stim,false,2,651,2,0,1,52028,task3,1264993,false,false,1501,image-keyboard-response,27
true,19,0,1,0,true,q,false,true,0.0-2.0-0.46-0.414-3.414,0,0,1,81,false,stim,false,0,358,2,1,2,52028,task3,1266880,false,false,1504,image-keyboard-response,28
true,20,1,1,0,false,q,false,false,0.0-2.0-0.46-0.415-3.415,0,0,1,90,true,stim,true,1,442,2,0,1,52028,task3,1268851,false,false,1507,image-keyboard-response,1
true,20,0,1,0,true,q,false,true,0.0-2.0-0.46-0.416-3.416,0,0,1,81,false,stim,false,0,655,2,1,2,52028,task3,1271028,false,false,1510,image-keyboard-response,2
true,20,0,1,0,true,q,false,true,0.0-2.0-0.46-0.417-3.417,0,0,1,81,false,stim,false,0,453,2,1,2,52028,task3,1273002,false,false,1513,image-keyboard-response,3
true,20,2,1,1,false,z,false,false,0.0-2.0-0.46-0.418-3.418,0,0,1,68,false,stim,true,2,676,2,0,0,52028,task3,1275190,false,false,1516,image-keyboard-response,4
true,20,2,1,1,false,z,false,false,0.0-2.0-0.46-0.419-3.419,0,0,1,68,false,stim,true,2,449,2,0,0,52028,task3,1277171,false,false,1519,image-keyboard-response,5
true,20,1,1,0,false,q,false,false,0.0-2.0-0.46-0.420-3.420,0,0,1,90,false,stim,true,1,690,2,0,1,52028,task3,1279374,false,false,1522,image-keyboard-response,6
true,20,0,1,1,false,z,true,false,0.0-2.0-0.46-0.421-3.421,0,0,1,81,false,stim,false,2,618,2,0,0,52028,task3,1281511,false,false,1525,image-keyboard-response,7
true,20,0,1,0,true,q,false,true,0.0-2.0-0.46-0.422-3.422,0,0,1,81,false,stim,false,1,863,2,0,1,52028,task3,1283902,false,false,1528,image-keyboard-response,8
true,20,0,1,0,true,q,false,true,0.0-2.0-0.47-0.423-3.423,0,0,1,81,false,stim,false,1,395,2,0,1,52028,task3,1285815,false,false,1531,image-keyboard-response,9
true,20,0,1,0,true,q,false,true,0.0-2.0-0.47-0.424-3.424,0,0,1,81,false,stim,false,1,344,2,0,1,52028,task3,1287678,false,false,1534,image-keyboard-response,10
true,20,1,1,1,true,z,false,true,0.0-2.0-0.47-0.425-3.425,0,0,1,90,false,stim,false,2,520,2,0,0,52028,task3,1289715,false,false,1537,image-keyboard-response,11
true,20,0,1,0,true,q,false,true,0.0-2.0-0.47-0.426-3.426,0,0,1,81,false,stim,false,0,1012,2,1,2,52028,task3,1292245,false,false,1540,image-keyboard-response,12
true,20,1,1,1,true,z,false,true,0.0-2.0-0.47-0.427-3.427,0,0,1,90,false,stim,false,2,1555,2,0,0,52028,task3,1295327,false,false,1543,image-keyboard-response,13
true,20,1,1,1,true,z,false,true,0.0-2.0-0.47-0.428-3.428,0,0,1,90,false,stim,false,2,316,2,0,0,52028,task3,1297165,false,false,1546,image-keyboard-response,14
true,20,0,1,0,true,q,false,true,0.0-2.0-0.47-0.429-3.429,0,0,1,81,false,stim,false,0,514,2,1,2,52028,task3,1299202,false,false,1549,image-keyboard-response,15
true,20,0,1,0,true,q,false,true,0.0-2.0-0.47-0.430-3.430,0,0,1,81,false,stim,false,0,565,2,1,2,52028,task3,1301287,false,false,1552,image-keyboard-response,16
true,20,0,1,0,true,q,false,true,0.0-2.0-0.47-0.431-3.431,0,0,1,81,false,stim,false,1,511,2,0,1,52028,task3,1303311,false,false,1555,image-keyboard-response,17
true,20,0,1,0,true,q,false,true,0.0-2.0-0.48-0.432-3.432,0,0,1,81,false,stim,false,1,361,2,0,1,52028,task3,1305188,false,false,1558,image-keyboard-response,18
true,20,0,1,0,true,q,false,true,0.0-2.0-0.48-0.433-3.433,0,0,1,81,false,stim,false,1,377,2,0,1,52028,task3,1307095,false,false,1561,image-keyboard-response,19
true,20,0,1,0,true,q,false,true,0.0-2.0-0.48-0.434-3.434,0,0,1,81,false,stim,false,0,640,2,1,2,52028,task3,1309259,false,false,1564,image-keyboard-response,20
true,20,1,1,1,true,z,false,true,0.0-2.0-0.48-0.435-3.435,0,0,1,90,false,stim,false,2,877,2,0,0,52028,task3,1311661,false,false,1567,image-keyboard-response,21
true,20,1,1,1,true,z,false,true,0.0-2.0-0.48-0.436-3.436,0,0,1,90,false,stim,false,2,330,2,0,0,52028,task3,1313506,false,false,1570,image-keyboard-response,22
true,20,0,1,0,true,q,false,true,0.0-2.0-0.48-0.437-3.437,0,0,1,81,false,stim,false,1,582,2,1,1,52028,task3,1315614,false,false,1573,image-keyboard-response,23
true,20,1,1,1,true,z,false,true,0.0-2.0-0.48-0.438-3.438,0,0,1,90,false,stim,false,2,729,2,0,0,52028,task3,1317874,false,false,1576,image-keyboard-response,24
true,21,0,2,0,true,q,false,true,0.0-2.0-0.48-0.439-3.439,0,1,1,81,true,stim,false,0,435,2,1,2,52028,task3,1319834,false,false,1579,image-keyboard-response,1
true,21,0,2,0,true,q,false,true,0.0-2.0-0.48-0.440-3.440,0,1,1,81,false,stim,false,0,362,2,1,2,52028,task3,1321717,false,false,1582,image-keyboard-response,2
true,21,0,2,0,true,q,false,true,0.0-2.0-0.49-0.441-3.441,0,1,1,81,false,stim,false,0,326,2,1,2,52028,task3,1323566,false,false,1585,image-keyboard-response,3
true,21,0,2,0,true,q,false,true,0.0-2.0-0.49-0.442-3.442,0,1,1,81,false,stim,false,0,337,2,1,2,52028,task3,1325422,false,false,1588,image-keyboard-response,4
true,21,1,2,2,false,d,false,false,0.0-2.0-0.49-0.443-3.443,0,1,1,90,false,stim,true,1,1122,2,0,0,52028,task3,1328077,false,false,1591,image-keyboard-response,5
true,21,1,2,2,false,d,false,false,0.0-2.0-0.49-0.444-3.444,0,1,1,90,false,stim,true,1,344,2,0,0,52028,task3,1329942,false,false,1594,image-keyboard-response,6
true,21,0,2,0,true,q,false,true,0.0-2.0-0.49-0.445-3.445,0,1,1,81,false,stim,false,0,856,2,1,1,52028,task3,1332325,false,false,1597,image-keyboard-response,7
true,21,0,2,0,true,q,false,true,0.0-2.0-0.49-0.446-3.446,0,1,1,81,false,stim,false,0,625,2,1,2,52028,task3,1334474,false,false,1600,image-keyboard-response,8
true,21,0,2,0,true,q,false,true,0.0-2.0-0.49-0.447-3.447,0,1,1,81,false,stim,false,0,777,2,1,1,52028,task3,1336776,false,false,1603,image-keyboard-response,9
true,21,0,2,0,true,q,false,true,0.0-2.0-0.49-0.448-3.448,0,1,1,81,false,stim,false,0,408,2,1,1,52028,task3,1338716,false,false,1606,image-keyboard-response,10
true,21,2,2,2,true,d,false,true,0.0-2.0-0.49-0.449-3.449,0,1,1,68,false,stim,false,1,497,2,0,0,52028,task3,1340736,false,false,1609,image-keyboard-response,11
true,21,0,2,0,true,q,false,true,0.0-2.0-0.50-0.450-3.450,0,1,1,81,false,stim,false,0,502,2,1,2,52028,task3,1342764,false,false,1612,image-keyboard-response,12
true,21,0,2,0,true,q,false,true,0.0-2.0-0.50-0.451-3.451,0,1,1,81,false,stim,false,0,414,2,1,1,52028,task3,1344692,false,false,1615,image-keyboard-response,13
true,21,2,2,2,true,d,false,true,0.0-2.0-0.50-0.452-3.452,0,1,1,68,false,stim,false,1,521,2,0,0,52028,task3,1346740,false,false,1618,image-keyboard-response,14
true,21,2,2,2,true,d,false,true,0.0-2.0-0.50-0.453-3.453,0,1,1,68,false,stim,false,1,507,2,0,0,52028,task3,1348775,false,false,1621,image-keyboard-response,15
true,21,2,2,0,false,q,true,false,0.0-2.0-0.50-0.454-3.454,0,1,1,68,false,stim,false,0,1156,2,1,1,52028,task3,1351465,false,false,1624,image-keyboard-response,16
true,21,0,2,0,true,q,false,true,0.0-2.0-0.50-0.455-3.455,0,1,1,81,false,stim,false,0,611,2,1,2,52028,task3,1353597,false,false,1627,image-keyboard-response,17
true,21,0,2,2,false,d,true,false,0.0-2.0-0.50-0.456-3.456,0,1,1,81,false,stim,false,1,413,2,0,0,52028,task3,1355530,false,false,1630,image-keyboard-response,18
true,21,0,2,0,true,q,false,true,0.0-2.0-0.50-0.457-3.457,0,1,1,81,false,stim,false,0,834,2,1,2,52028,task3,1357880,false,false,1633,image-keyboard-response,19
true,21,0,2,0,true,q,false,true,0.0-2.0-0.50-0.458-3.458,0,1,1,81,false,stim,false,0,1608,2,1,1,52028,task3,1361013,false,false,1636,image-keyboard-response,20
true,21,0,2,0,true,q,false,true,0.0-2.0-0.51-0.459-3.459,0,1,1,81,false,stim,false,0,410,2,1,1,52028,task3,1362942,false,false,1639,image-keyboard-response,21
true,21,0,2,0,true,q,false,true,0.0-2.0-0.51-0.460-3.460,0,1,1,81,false,stim,false,0,495,2,1,2,52028,task3,1364952,false,false,1642,image-keyboard-response,22
true,21,2,2,2,true,d,false,true,0.0-2.0-0.51-0.461-3.461,0,1,1,68,false,stim,false,1,679,2,0,0,52028,task3,1367157,false,false,1645,image-keyboard-response,23
true,21,0,2,0,true,q,false,true,0.0-2.0-0.51-0.462-3.462,0,1,1,81,false,stim,false,0,625,2,0,2,52028,task3,1369296,false,false,1648,image-keyboard-response,24
true,21,2,2,2,true,d,false,true,0.0-2.0-0.51-0.463-3.463,0,1,1,68,false,stim,false,1,610,2,0,0,52028,task3,1371420,false,false,1651,image-keyboard-response,25
true,21,2,2,2,true,d,false,true,0.0-2.0-0.51-0.464-3.464,0,1,1,68,false,stim,false,1,563,2,0,0,52028,task3,1373512,false,false,1654,image-keyboard-response,26
true,21,0,2,0,true,q,false,true,0.0-2.0-0.51-0.465-3.465,0,1,1,81,false,stim,false,0,613,2,1,1,52028,task3,1375655,false,false,1657,image-keyboard-response,27
true,22,0,1,0,true,q,false,true,0.0-2.0-0.51-0.466-3.466,0,1,0,81,true,stim,false,0,351,2,1,1,52028,task3,1377532,false,false,1660,image-keyboard-response,1
true,22,0,1,2,false,d,false,false,0.0-2.0-0.51-0.467-3.467,0,1,0,81,false,stim,true,0,657,2,0,2,52028,task3,1379703,false,false,1663,image-keyboard-response,2
true,22,2,1,1,false,z,false,false,0.0-2.0-0.52-0.468-3.468,0,1,0,68,false,stim,true,2,556,2,0,0,52028,task3,1381771,false,false,1666,image-keyboard-response,3
true,22,0,1,0,true,q,false,true,0.0-2.0-0.52-0.469-3.469,0,1,0,81,false,stim,false,0,711,2,1,1,52028,task3,1383996,false,false,1669,image-keyboard-response,4
true,22,2,1,1,false,z,false,false,0.0-2.0-0.52-0.470-3.470,0,1,0,68,false,stim,true,2,692,2,0,0,52028,task3,1386205,false,false,1672,image-keyboard-response,5
true,22,0,1,2,false,d,false,false,0.0-2.0-0.52-0.471-3.471,0,1,0,81,false,stim,true,0,573,2,0,2,52028,task3,1388308,false,false,1675,image-keyboard-response,6
true,22,1,1,2,false,d,true,false,0.0-2.0-0.52-0.472-3.472,0,1,0,90,false,stim,false,0,381,2,0,2,52028,task3,1390216,false,false,1678,image-keyboard-response,7
true,22,1,1,1,true,z,false,true,0.0-2.0-0.52-0.473-3.473,0,1,0,90,false,stim,false,2,819,2,0,0,52028,task3,1392553,false,false,1681,image-keyboard-response,8
true,22,0,1,0,true,q,false,false,0.0-2.0-0.52-0.474-3.474,0,1,0,81,false,stim,false,0,730,2,1,1,52028,task3,1394809,false,true,1684,image-keyboard-response,9
true,22,2,1,2,true,d,false,true,0.0-2.0-0.52-0.475-3.475,0,1,0,68,false,stim,false,0,988,2,0,2,52028,task3,1397325,false,false,1687,image-keyboard-response,10
true,22,0,1,0,true,q,false,true,0.0-2.0-0.52-0.476-3.476,0,1,0,81,false,stim,false,0,867,2,0,1,52028,task3,1399715,false,false,1690,image-keyboard-response,11
true,22,0,1,0,true,q,false,true,0.0-2.0-0.53-0.477-3.477,0,1,0,81,false,stim,false,0,814,2,0,1,52028,task3,1402048,false,false,1693,image-keyboard-response,12
true,22,0,1,0,true,q,false,true,0.0-2.0-0.53-0.478-3.478,0,1,0,81,false,stim,false,0,466,2,0,1,52028,task3,1404028,false,false,1696,image-keyboard-response,13
true,22,1,1,1,true,z,false,true,0.0-2.0-0.53-0.479-3.479,0,1,0,90,false,stim,false,2,952,2,1,0,52028,task3,1406498,false,false,1699,image-keyboard-response,14
true,22,2,1,2,true,d,false,true,0.0-2.0-0.53-0.480-3.480,0,1,0,68,false,stim,false,0,516,2,1,2,52028,task3,1408559,false,false,1702,image-keyboard-response,15
true,23,1,2,1,true,z,false,true,0.0-2.0-0.53-0.481-3.481,1,0,1,90,true,stim,false,1,571,2,1,0,52028,task3,1410648,false,false,1705,image-keyboard-response,1
true,23,1,2,1,true,z,false,true,0.0-2.0-0.53-0.482-3.482,1,0,1,90,false,stim,false,1,398,2,1,0,52028,task3,1412568,false,false,1708,image-keyboard-response,2
true,23,2,2,2,true,d,false,true,0.0-2.0-0.53-0.483-3.483,1,0,1,68,false,stim,false,2,485,2,1,2,52028,task3,1414582,false,false,1711,image-keyboard-response,3
true,23,0,2,2,false,d,false,false,0.0-2.0-0.53-0.484-3.484,1,0,1,81,false,stim,true,0,870,2,0,1,52028,task3,1416983,false,false,1714,image-keyboard-response,4
true,23,2,2,2,true,d,false,true,0.0-2.0-0.53-0.485-3.485,1,0,1,68,false,stim,false,2,597,2,1,2,52028,task3,1419095,false,false,1717,image-keyboard-response,5
true,23,1,2,1,true,z,false,true,0.0-2.0-0.54-0.486-3.486,1,0,1,90,false,stim,false,1,1078,2,1,0,52028,task3,1421698,false,false,1720,image-keyboard-response,6
true,23,2,2,2,true,d,false,true,0.0-2.0-0.54-0.487-3.487,1,0,1,68,false,stim,false,2,672,2,1,2,52028,task3,1423888,false,false,1723,image-keyboard-response,7
true,23,0,2,2,false,d,false,false,0.0-2.0-0.54-0.488-3.488,1,0,1,81,false,stim,true,0,607,2,1,1,52028,task3,1426020,false,false,1726,image-keyboard-response,8
true,23,2,2,2,true,d,false,true,0.0-2.0-0.54-0.489-3.489,1,0,1,68,false,stim,false,2,822,2,1,2,52028,task3,1428365,false,false,1729,image-keyboard-response,9
true,23,0,2,2,false,d,false,false,0.0-2.0-0.54-0.490-3.490,1,0,1,81,false,stim,true,0,763,2,1,1,52028,task3,1430659,false,false,1732,image-keyboard-response,10
true,23,1,2,1,true,z,false,false,0.0-2.0-0.54-0.491-3.491,1,0,1,90,false,stim,false,1,595,2,0,0,52028,task3,1432777,false,true,1735,image-keyboard-response,11
true,23,2,2,2,true,d,false,true,0.0-2.0-0.54-0.492-3.492,1,0,1,68,false,stim,false,2,577,2,1,2,52028,task3,1434872,false,false,1738,image-keyboard-response,12
true,24,1,2,2,false,d,true,false,0.0-2.0-0.54-0.493-3.493,0,1,1,90,true,stim,false,2,405,2,1,1,52028,task3,1436800,false,false,1741,image-keyboard-response,1
true,24,1,2,0,false,q,false,false,0.0-2.0-0.54-0.494-3.494,0,1,1,90,false,stim,true,1,597,2,0,0,52028,task3,1438916,false,false,1744,image-keyboard-response,2
true,24,0,2,0,true,q,false,true,0.0-2.0-0.55-0.495-3.495,0,1,1,81,false,stim,false,1,438,2,0,0,52028,task3,1440868,false,false,1747,image-keyboard-response,3
true,24,2,2,2,true,d,false,true,0.0-2.0-0.55-0.496-3.496,0,1,1,68,false,stim,false,2,577,2,1,1,52028,task3,1442967,false,false,1750,image-keyboard-response,4
true,24,2,2,2,true,d,false,true,0.0-2.0-0.55-0.497-3.497,0,1,1,68,false,stim,false,2,541,2,1,2,52028,task3,1445026,false,false,1753,image-keyboard-response,5
true,24,2,2,2,true,d,false,true,0.0-2.0-0.55-0.498-3.498,0,1,1,68,false,stim,false,2,400,2,1,1,52028,task3,1446938,false,false,1756,image-keyboard-response,6
true,24,0,2,0,true,q,false,true,0.0-2.0-0.55-0.499-3.499,0,1,1,81,false,stim,false,1,406,2,0,0,52028,task3,1448869,false,false,1759,image-keyboard-response,7
true,24,2,2,2,true,d,false,true,0.0-2.0-0.55-0.500-3.500,0,1,1,68,false,stim,false,2,440,2,1,2,52028,task3,1450823,false,false,1762,image-keyboard-response,8
true,24,2,2,2,true,d,false,false,0.0-2.0-0.55-0.501-3.501,0,1,1,68,false,stim,false,2,284,2,1,2,52028,task3,1452629,false,true,1765,image-keyboard-response,9
true,24,0,2,0,true,q,false,true,0.0-2.0-0.55-0.502-3.502,0,1,1,81,false,stim,false,1,636,2,0,0,52028,task3,1454793,false,false,1768,image-keyboard-response,10
true,24,2,2,2,true,d,false,true,0.0-2.0-0.55-0.503-3.503,0,1,1,68,false,stim,false,2,380,2,0,1,52028,task3,1456704,false,false,1771,image-keyboard-response,11
true,24,2,2,2,true,d,false,false,0.0-2.0-0.56-0.504-3.504,0,1,1,68,false,stim,false,2,335,2,0,2,52028,task3,1458559,false,true,1774,image-keyboard-response,12
true,24,1,2,2,false,d,true,false,0.0-2.0-0.56-0.505-3.505,0,1,1,90,false,stim,false,2,536,2,0,2,52028,task3,1460620,false,false,1777,image-keyboard-response,13
true,24,0,2,0,true,q,false,true,0.0-2.0-0.56-0.506-3.506,0,1,1,81,false,stim,false,1,662,2,1,0,52028,task3,1462799,false,false,1780,image-keyboard-response,14
true,24,0,2,0,true,q,false,true,0.0-2.0-0.56-0.507-3.507,0,1,1,81,false,stim,false,1,559,2,1,0,52028,task3,1464878,false,false,1783,image-keyboard-response,15
true,25,2,1,1,false,z,false,false,0.0-2.0-0.56-0.508-3.508,1,0,0,68,true,stim,true,2,654,2,0,1,52028,task3,1467058,false,false,1786,image-keyboard-response,1
true,25,0,1,1,false,z,true,false,0.0-2.0-0.56-0.509-3.509,1,0,0,81,false,stim,false,2,969,2,0,2,52028,task3,1469554,false,false,1789,image-keyboard-response,2
true,25,0,1,0,true,q,false,true,0.0-2.0-0.56-0.510-3.510,1,0,0,81,false,stim,false,0,646,2,1,0,52028,task3,1471725,false,false,1792,image-keyboard-response,3
true,25,2,1,1,false,z,false,false,0.0-2.0-0.56-0.511-3.511,1,0,0,68,false,stim,true,2,698,2,0,1,52028,task3,1473943,false,false,1795,image-keyboard-response,4
true,25,2,1,1,false,z,false,false,0.0-2.0-0.56-0.512-3.512,1,0,0,68,false,stim,true,2,2239,2,0,1,52028,task3,1477705,false,false,1798,image-keyboard-response,5
true,25,0,1,1,false,z,true,false,0.0-2.0-0.57-0.513-3.513,1,0,0,81,false,stim,false,2,983,2,0,2,52028,task3,1480229,false,false,1801,image-keyboard-response,6
true,25,0,1,0,true,q,false,true,0.0-2.0-0.57-0.514-3.514,1,0,0,81,false,stim,false,0,776,2,1,0,52028,task3,1482527,false,false,1804,image-keyboard-response,7
true,25,1,1,1,true,z,false,true,0.0-2.0-0.57-0.515-3.515,1,0,0,90,false,stim,false,2,453,2,1,2,52028,task3,1484500,false,false,1807,image-keyboard-response,8
true,25,1,1,1,true,z,false,true,0.0-2.0-0.57-0.516-3.516,1,0,0,90,false,stim,false,2,413,2,1,2,52028,task3,1486443,false,false,1810,image-keyboard-response,9
true,25,1,1,1,true,z,false,true,0.0-2.0-0.57-0.517-3.517,1,0,0,90,false,stim,false,2,477,2,1,1,52028,task3,1488434,false,false,1813,image-keyboard-response,10
true,25,0,1,0,true,q,false,true,0.0-2.0-0.57-0.518-3.518,1,0,0,81,false,stim,false,0,447,2,1,0,52028,task3,1490398,false,false,1816,image-keyboard-response,11
false,26,-1,0,1,false,z,true,false,0.0-2.0-0.57-0.519-3.519,1,1,1,,true,stim,false,1,,2,1,1,52028,task3,1615899,false,false,1939,image-keyboard-response,1
true,26,0,0,1,false,z,true,false,0.0-2.0-0.57-0.520-3.520,1,1,1,81,false,stim,false,1,1057,2,1,1,52028,task3,1618490,false,false,1942,image-keyboard-response,2
true,26,2,0,0,false,q,true,true,0.0-2.0-0.57-0.521-3.521,1,1,1,68,false,stim,false,0,504,2,1,0,52028,task3,1620515,false,true,1945,image-keyboard-response,3
true,26,1,0,1,true,z,false,true,0.0-2.0-0.58-0.522-3.522,1,1,1,90,false,stim,false,1,627,2,1,1,52028,task3,1622679,false,false,1948,image-keyboard-response,4
true,26,2,0,0,false,q,true,false,0.0-2.0-0.58-0.523-3.523,1,1,1,68,false,stim,false,0,543,2,1,0,52028,task3,1624742,false,false,1951,image-keyboard-response,5
true,26,1,0,1,true,z,false,true,0.0-2.0-0.58-0.524-3.524,1,1,1,90,false,stim,false,1,953,2,1,2,52028,task3,1627219,false,false,1954,image-keyboard-response,6
true,26,1,0,1,true,z,false,true,0.0-2.0-0.58-0.525-3.525,1,1,1,90,false,stim,false,1,588,2,1,1,52028,task3,1629328,false,false,1957,image-keyboard-response,7
true,26,1,0,1,true,z,false,true,0.0-2.0-0.58-0.526-3.526,1,1,1,90,false,stim,false,1,355,2,0,1,52028,task3,1631200,false,false,1960,image-keyboard-response,8
true,26,2,0,0,false,q,true,false,0.0-2.0-0.58-0.527-3.527,1,1,1,68,false,stim,false,0,525,2,0,0,52028,task3,1633241,false,false,1963,image-keyboard-response,9
true,26,1,0,1,true,z,false,true,0.0-2.0-0.58-0.528-3.528,1,1,1,90,false,stim,false,1,551,2,1,2,52028,task3,1635316,false,false,1966,image-keyboard-response,10
true,26,1,0,1,true,z,false,true,0.0-2.0-0.58-0.529-3.529,1,1,1,90,false,stim,false,1,420,2,1,2,52028,task3,1637255,false,false,1969,image-keyboard-response,11
true,26,0,0,0,true,q,false,true,0.0-2.0-0.58-0.530-3.530,1,1,1,81,false,stim,false,0,638,2,0,0,52028,task3,1639419,false,false,1972,image-keyboard-response,12
true,27,1,1,1,true,z,false,true,0.0-2.0-0.59-0.531-3.531,0,0,1,90,true,stim,false,1,418,2,1,2,52028,task3,1641367,false,false,1975,image-keyboard-response,1
true,27,1,1,2,false,d,false,false,0.0-2.0-0.59-0.532-3.532,0,0,1,90,false,stim,true,1,461,2,0,1,52028,task3,1643348,false,false,1978,image-keyboard-response,2
true,27,1,1,1,true,z,false,true,0.0-2.0-0.59-0.533-3.533,0,0,1,90,false,stim,false,1,497,2,1,2,52028,task3,1645373,false,false,1981,image-keyboard-response,3
true,27,1,1,1,true,z,false,true,0.0-2.0-0.59-0.534-3.534,0,0,1,90,false,stim,false,1,526,2,1,2,52028,task3,1647429,false,false,1984,image-keyboard-response,4
true,27,1,1,2,false,d,false,false,0.0-2.0-0.59-0.535-3.535,0,0,1,90,false,stim,true,1,601,2,0,1,52028,task3,1649547,false,false,1987,image-keyboard-response,5
true,27,0,1,1,false,z,false,false,0.0-2.0-0.59-0.536-3.536,0,0,1,81,false,stim,true,0,506,2,0,0,52028,task3,1651568,false,false,1990,image-keyboard-response,6
true,27,0,1,1,false,z,false,false,0.0-2.0-0.59-0.537-3.537,0,0,1,81,false,stim,true,0,479,2,0,0,52028,task3,1653563,false,false,1993,image-keyboard-response,7
true,27,0,1,2,false,d,true,false,0.0-2.0-0.59-0.538-3.538,0,0,1,81,false,stim,false,1,458,2,0,1,52028,task3,1655556,false,false,1996,image-keyboard-response,8
true,27,1,1,1,true,z,false,true,0.0-2.0-0.59-0.539-3.539,0,0,1,90,false,stim,false,0,833,2,0,0,52028,task3,1657907,false,false,1999,image-keyboard-response,9
true,27,1,1,1,true,z,false,true,0.0-2.0-0.60-0.540-3.540,0,0,1,90,false,stim,false,1,559,2,1,2,52028,task3,1660020,false,false,2002,image-keyboard-response,10
true,27,1,1,1,true,z,false,true,0.0-2.0-0.60-0.541-3.541,0,0,1,90,false,stim,false,1,614,2,1,2,52028,task3,1662174,false,false,2005,image-keyboard-response,11
true,27,1,1,1,true,z,false,true,0.0-2.0-0.60-0.542-3.542,0,0,1,90,false,stim,false,1,407,2,1,2,52028,task3,1664107,false,false,2008,image-keyboard-response,12
true,27,1,1,1,true,z,false,true,0.0-2.0-0.60-0.543-3.543,0,0,1,90,false,stim,false,0,548,2,0,0,52028,task3,1666181,false,false,2011,image-keyboard-response,13
true,27,2,1,2,true,d,false,true,0.0-2.0-0.60-0.544-3.544,0,0,1,68,false,stim,false,1,458,2,0,1,52028,task3,1668158,false,false,2014,image-keyboard-response,14
true,27,1,1,1,true,z,false,true,0.0-2.0-0.60-0.545-3.545,0,0,1,90,false,stim,false,0,499,2,0,0,52028,task3,1670191,false,false,2017,image-keyboard-response,15
true,27,2,1,2,true,d,false,true,0.0-2.0-0.60-0.546-3.546,0,0,1,68,false,stim,false,1,358,2,0,1,52028,task3,1672070,false,false,2020,image-keyboard-response,16
true,27,2,1,2,true,d,false,true,0.0-2.0-0.60-0.547-3.547,0,0,1,68,false,stim,false,1,469,2,0,1,52028,task3,1674071,false,false,2023,image-keyboard-response,17
true,27,1,1,1,true,z,false,true,0.0-2.0-0.60-0.548-3.548,0,0,1,90,false,stim,false,0,838,2,0,0,52028,task3,1676428,false,false,2026,image-keyboard-response,18
true,27,1,1,1,true,z,false,true,0.0-2.0-0.61-0.549-3.549,0,0,1,90,false,stim,false,0,359,2,0,0,52028,task3,1678307,false,false,2029,image-keyboard-response,19
true,27,2,1,2,true,d,false,true,0.0-2.0-0.61-0.550-3.550,0,0,1,68,false,stim,false,1,834,2,0,1,52028,task3,1680660,false,false,2032,image-keyboard-response,20
true,27,1,1,1,true,z,false,true,0.0-2.0-0.61-0.551-3.551,0,0,1,90,false,stim,false,0,375,2,1,0,52028,task3,1682562,false,false,2035,image-keyboard-response,21
true,27,2,1,2,true,d,false,true,0.0-2.0-0.61-0.552-3.552,0,0,1,68,false,stim,false,1,706,2,0,1,52028,task3,1684796,false,false,2038,image-keyboard-response,22
true,27,1,1,1,true,z,false,true,0.0-2.0-0.61-0.553-3.553,0,0,1,90,false,stim,false,1,599,2,1,2,52028,task3,1686922,false,false,2041,image-keyboard-response,23
true,27,1,1,1,true,z,false,true,0.0-2.0-0.61-0.554-3.554,0,0,1,90,false,stim,false,1,634,2,1,2,52028,task3,1689082,false,false,2044,image-keyboard-response,24
true,28,2,2,1,false,z,true,false,0.0-2.0-0.61-0.555-3.555,1,0,1,68,true,stim,false,1,726,2,1,0,52028,task3,1691329,false,false,2047,image-keyboard-response,1
true,28,1,2,1,true,z,false,true,0.0-2.0-0.61-0.556-3.556,1,0,1,90,false,stim,false,1,629,2,1,2,52028,task3,1693478,false,false,2050,image-keyboard-response,2
true,28,2,2,0,false,q,false,false,0.0-2.0-0.61-0.557-3.557,1,0,1,68,false,stim,true,2,548,2,0,1,52028,task3,1695553,false,false,2053,image-keyboard-response,3
true,28,1,2,1,true,z,false,true,0.0-2.0-0.62-0.558-3.558,1,0,1,90,false,stim,false,1,728,2,1,2,52028,task3,1697803,false,false,2056,image-keyboard-response,4
true,28,0,2,0,true,q,false,true,0.0-2.0-0.62-0.559-3.559,1,0,1,81,false,stim,false,2,832,2,0,1,52028,task3,1700161,false,false,2059,image-keyboard-response,5
true,28,1,2,1,true,z,false,true,0.0-2.0-0.62-0.560-3.560,1,0,1,90,false,stim,false,1,422,2,1,0,52028,task3,1702104,false,false,2062,image-keyboard-response,6
true,28,0,2,0,true,q,false,true,0.0-2.0-0.62-0.561-3.561,1,0,1,81,false,stim,false,2,533,2,0,1,52028,task3,1704163,false,false,2065,image-keyboard-response,7
true,28,1,2,1,true,z,false,true,0.0-2.0-0.62-0.562-3.562,1,0,1,90,false,stim,false,1,437,2,1,2,52028,task3,1706121,false,false,2068,image-keyboard-response,8
true,28,1,2,1,true,z,false,true,0.0-2.0-0.62-0.563-3.563,1,0,1,90,false,stim,false,1,413,2,1,2,52028,task3,1708053,false,false,2071,image-keyboard-response,9
true,28,1,2,1,true,z,false,true,0.0-2.0-0.62-0.564-3.564,1,0,1,90,false,stim,false,1,635,2,0,0,52028,task3,1710215,false,false,2074,image-keyboard-response,10
true,28,1,2,1,true,z,false,true,0.0-2.0-0.62-0.565-3.565,1,0,1,90,false,stim,false,1,352,2,0,0,52028,task3,1712087,false,false,2077,image-keyboard-response,11
true,28,0,2,0,true,q,false,true,0.0-2.0-0.62-0.566-3.566,1,0,1,81,false,stim,false,2,657,2,1,1,52028,task3,1714268,false,false,2080,image-keyboard-response,12
true,28,1,2,1,true,z,false,true,0.0-2.0-0.63-0.567-3.567,1,0,1,90,false,stim,false,1,462,2,0,0,52028,task3,1716255,false,false,2083,image-keyboard-response,13
true,28,1,2,1,true,z,false,true,0.0-2.0-0.63-0.568-3.568,1,0,1,90,false,stim,false,1,508,2,0,0,52028,task3,1718293,false,false,2086,image-keyboard-response,14
true,29,0,2,0,true,q,false,true,0.0-2.0-0.63-0.569-3.569,0,1,1,81,true,stim,false,0,737,2,1,1,52028,task3,1720558,false,false,2089,image-keyboard-response,1
true,29,0,2,0,true,q,false,true,0.0-2.0-0.63-0.570-3.570,0,1,1,81,false,stim,false,0,451,2,1,1,52028,task3,1722524,false,false,2092,image-keyboard-response,2
true,29,1,2,2,false,d,false,false,0.0-2.0-0.63-0.571-3.571,0,1,1,90,false,stim,true,1,529,2,0,0,52028,task3,1724580,false,false,2095,image-keyboard-response,3
true,29,0,2,0,true,q,false,true,0.0-2.0-0.63-0.572-3.572,0,1,1,81,false,stim,false,0,486,2,1,1,52028,task3,1726590,false,false,2098,image-keyboard-response,4
true,29,1,2,1,true,z,false,true,0.0-2.0-0.63-0.573-3.573,0,1,1,90,false,stim,false,1,519,2,1,2,52028,task3,1728666,false,false,2101,image-keyboard-response,5
true,29,1,2,1,true,z,false,false,0.0-2.0-0.63-0.574-3.574,0,1,1,90,false,stim,false,1,573,2,1,2,52028,task3,1730765,false,true,2104,image-keyboard-response,6
true,29,1,2,1,true,z,false,true,0.0-2.0-0.63-0.575-3.575,0,1,1,90,false,stim,false,1,417,2,1,2,52028,task3,1732699,false,false,2107,image-keyboard-response,7
true,29,0,2,0,true,q,false,true,0.0-2.0-0.64-0.576-3.576,0,1,1,81,false,stim,false,0,706,2,1,1,52028,task3,1734916,false,false,2110,image-keyboard-response,8
true,29,1,2,2,false,d,false,false,0.0-2.0-0.64-0.577-3.577,0,1,1,90,false,stim,true,1,482,2,0,0,52028,task3,1736914,false,false,2113,image-keyboard-response,9
true,29,1,2,1,true,z,false,true,0.0-2.0-0.64-0.578-3.578,0,1,1,90,false,stim,false,1,643,2,1,2,52028,task3,1739085,false,false,2116,image-keyboard-response,10
true,29,1,2,1,true,z,false,true,0.0-2.0-0.64-0.579-3.579,0,1,1,90,false,stim,false,1,931,2,1,2,52028,task3,1741541,false,false,2119,image-keyboard-response,11
true,29,0,2,0,true,q,false,true,0.0-2.0-0.64-0.580-3.580,0,1,1,81,false,stim,false,0,443,2,1,1,52028,task3,1743501,false,false,2122,image-keyboard-response,12
true,29,0,2,0,true,q,false,true,0.0-2.0-0.64-0.581-3.581,0,1,1,81,false,stim,false,0,476,2,1,1,52028,task3,1745496,false,false,2125,image-keyboard-response,13
true,29,1,2,1,true,z,false,true,0.0-2.0-0.64-0.582-3.582,0,1,1,90,false,stim,false,1,703,2,1,2,52028,task3,1747735,false,false,2128,image-keyboard-response,14
true,29,2,2,2,true,d,false,true,0.0-2.0-0.64-0.583-3.583,0,1,1,68,false,stim,false,1,452,2,0,0,52028,task3,1749714,false,false,2131,image-keyboard-response,15
true,29,2,2,2,true,d,false,true,0.0-2.0-0.64-0.584-3.584,0,1,1,68,false,stim,false,1,342,2,0,0,52028,task3,1751586,false,false,2134,image-keyboard-response,16
true,29,0,2,0,true,q,false,true,0.0-2.0-0.65-0.585-3.585,0,1,1,81,false,stim,false,0,891,2,1,1,52028,task3,1754008,false,false,2137,image-keyboard-response,17
true,29,2,2,2,true,d,false,true,0.0-2.0-0.65-0.586-3.586,0,1,1,68,false,stim,false,1,652,2,0,0,52028,task3,1756193,false,false,2140,image-keyboard-response,18
true,29,1,2,1,true,z,false,true,0.0-2.0-0.65-0.587-3.587,0,1,1,90,false,stim,false,1,666,2,1,2,52028,task3,1758382,false,false,2143,image-keyboard-response,19
true,29,0,2,2,false,d,true,false,0.0-2.0-0.65-0.588-3.588,0,1,1,81,false,stim,false,1,2561,2,0,0,52028,task3,1762469,false,false,2146,image-keyboard-response,20
true,29,1,2,1,true,z,false,false,0.0-2.0-0.65-0.589-3.589,0,1,1,90,false,stim,false,1,919,2,1,2,52028,task3,1764922,false,true,2149,image-keyboard-response,21
true,29,0,2,0,true,q,false,true,0.0-2.0-0.65-0.590-3.590,0,1,1,81,false,stim,false,0,724,2,1,1,52028,task3,1767166,false,false,2152,image-keyboard-response,22
true,29,2,2,2,true,d,false,true,0.0-2.0-0.65-0.591-3.591,0,1,1,68,false,stim,false,1,385,2,0,0,52028,task3,1769083,false,false,2155,image-keyboard-response,23
true,29,1,2,1,true,z,false,true,0.0-2.0-0.65-0.592-3.592,0,1,1,90,false,stim,false,1,535,2,0,2,52028,task3,1771144,false,false,2158,image-keyboard-response,24
true,29,0,2,0,true,q,false,true,0.0-2.0-0.65-0.593-3.593,0,1,1,81,false,stim,false,0,549,2,1,1,52028,task3,1773218,false,false,2161,image-keyboard-response,25
true,29,2,2,2,true,d,false,true,0.0-2.0-0.66-0.594-3.594,0,1,1,68,false,stim,false,1,464,2,0,0,52028,task3,1775204,false,false,2164,image-keyboard-response,26
true,29,1,2,1,true,z,false,true,0.0-2.0-0.66-0.595-3.595,0,1,1,90,false,stim,false,1,719,2,0,2,52028,task3,1777440,false,false,2167,image-keyboard-response,27
true,29,2,2,2,true,d,false,true,0.0-2.0-0.66-0.596-3.596,0,1,1,68,false,stim,false,1,752,2,0,0,52028,task3,1779724,false,false,2170,image-keyboard-response,28
true,30,0,1,0,true,q,false,true,0.0-2.0-0.66-0.597-3.597,0,1,0,81,true,stim,false,0,531,2,1,1,52028,task3,1781775,false,false,2173,image-keyboard-response,1
true,30,0,1,0,true,q,false,false,0.0-2.0-0.66-0.598-3.598,0,1,0,81,false,stim,false,0,389,2,1,1,52028,task3,1783686,false,true,2176,image-keyboard-response,2
true,30,1,1,2,false,d,false,false,0.0-2.0-0.66-0.599-3.599,0,1,0,90,false,stim,true,1,619,2,0,2,52028,task3,1785829,false,false,2179,image-keyboard-response,3
true,30,2,1,0,false,q,false,true,0.0-2.0-0.66-0.600-3.600,0,1,0,68,false,stim,true,2,507,2,0,0,52028,task3,1787859,false,true,2182,image-keyboard-response,4
true,30,0,1,0,true,q,false,true,0.0-2.0-0.66-0.601-3.601,0,1,0,81,false,stim,false,0,761,2,1,1,52028,task3,1790135,false,false,2185,image-keyboard-response,5
true,30,1,1,2,false,d,false,false,0.0-2.0-0.66-0.602-3.602,0,1,0,90,false,stim,true,1,538,2,0,2,52028,task3,1792189,false,false,2188,image-keyboard-response,6
true,30,2,1,0,false,q,false,false,0.0-2.0-0.67-0.603-3.603,0,1,0,68,false,stim,true,2,646,2,0,0,52028,task3,1794362,false,false,2191,image-keyboard-response,7
true,30,2,1,0,false,q,false,false,0.0-2.0-0.67-0.604-3.604,0,1,0,68,false,stim,true,2,432,2,0,0,52028,task3,1796311,false,false,2194,image-keyboard-response,8
true,30,2,1,2,true,d,false,true,0.0-2.0-0.67-0.605-3.605,0,1,0,68,false,stim,false,1,1203,2,0,2,52028,task3,1799031,false,false,2197,image-keyboard-response,9
true,30,0,1,0,true,q,false,true,0.0-2.0-0.67-0.606-3.606,0,1,0,81,false,stim,false,0,775,2,1,1,52028,task3,1801332,false,false,2200,image-keyboard-response,10
true,30,2,1,2,true,d,false,true,0.0-2.0-0.67-0.607-3.607,0,1,0,68,false,stim,false,1,800,2,0,2,52028,task3,1803671,false,false,2203,image-keyboard-response,11
true,30,0,1,0,true,q,false,true,0.0-2.0-0.67-0.608-3.608,0,1,0,81,false,stim,false,0,382,2,1,1,52028,task3,1805579,false,false,2206,image-keyboard-response,12
true,30,0,1,0,true,q,false,true,0.0-2.0-0.67-0.609-3.609,0,1,0,81,false,stim,false,0,738,2,1,1,52028,task3,1807846,false,false,2209,image-keyboard-response,13
true,30,2,1,2,true,d,false,true,0.0-2.0-0.67-0.610-3.610,0,1,0,68,false,stim,false,1,443,2,0,2,52028,task3,1809809,false,false,2212,image-keyboard-response,14
true,30,1,1,0,false,q,true,false,0.0-2.0-0.67-0.611-3.611,0,1,0,90,false,stim,false,2,431,2,0,0,52028,task3,1811754,false,false,2215,image-keyboard-response,15
true,30,1,1,0,false,q,true,false,0.0-2.0-0.68-0.612-3.612,0,1,0,90,false,stim,false,2,402,2,0,0,52028,task3,1813681,false,false,2218,image-keyboard-response,16
true,30,2,1,2,true,d,false,true,0.0-2.0-0.68-0.613-3.613,0,1,0,68,false,stim,false,1,513,2,0,2,52028,task3,1815720,false,false,2221,image-keyboard-response,17
true,30,0,1,0,true,q,false,true,0.0-2.0-0.68-0.614-3.614,0,1,0,81,false,stim,false,0,564,2,1,1,52028,task3,1817802,false,false,2224,image-keyboard-response,18
true,30,2,1,2,true,d,false,true,0.0-2.0-0.68-0.615-3.615,0,1,0,68,false,stim,false,1,558,2,0,2,52028,task3,1819885,false,false,2227,image-keyboard-response,19
true,30,0,1,0,true,q,false,true,0.0-2.0-0.68-0.616-3.616,0,1,0,81,false,stim,false,0,684,2,1,1,52028,task3,1822093,false,false,2230,image-keyboard-response,20
true,30,0,1,0,true,q,false,true,0.0-2.0-0.68-0.617-3.617,0,1,0,81,false,stim,false,2,392,2,0,0,52028,task3,1824005,false,false,2233,image-keyboard-response,21
true,30,2,1,2,true,d,false,true,0.0-2.0-0.68-0.618-3.618,0,1,0,68,false,stim,false,1,529,2,1,2,52028,task3,1826064,false,false,2236,image-keyboard-response,22
true,30,0,1,0,true,q,false,true,0.0-2.0-0.68-0.619-3.619,0,1,0,81,false,stim,false,0,478,2,0,1,52028,task3,1828063,false,false,2239,image-keyboard-response,23
true,30,0,1,0,true,q,false,true,0.0-2.0-0.68-0.620-3.620,0,1,0,81,false,stim,false,2,461,2,0,0,52028,task3,1830048,false,false,2242,image-keyboard-response,24
true,30,0,1,0,true,q,false,true,0.0-2.0-0.69-0.621-3.621,0,1,0,81,false,stim,false,2,421,2,0,0,52028,task3,1831993,false,false,2245,image-keyboard-response,25
true,31,2,1,2,true,d,false,true,0.0-2.0-0.69-0.622-3.622,0,0,1,68,true,stim,false,2,487,2,1,2,52028,task3,1834001,false,false,2248,image-keyboard-response,1
true,31,0,1,2,false,d,false,false,0.0-2.0-0.69-0.623-3.623,0,0,1,81,false,stim,true,0,527,2,0,0,52028,task3,1836058,false,false,2251,image-keyboard-response,2
true,31,2,1,2,true,d,false,true,0.0-2.0-0.69-0.624-3.624,0,0,1,68,false,stim,false,2,496,2,1,2,52028,task3,1838078,false,false,2254,image-keyboard-response,3
true,31,2,1,2,true,d,false,true,0.0-2.0-0.69-0.625-3.625,0,0,1,68,false,stim,false,2,377,2,1,2,52028,task3,1839974,false,false,2257,image-keyboard-response,4
true,31,0,1,1,false,z,false,false,0.0-2.0-0.69-0.626-3.626,0,0,1,81,false,stim,true,0,453,2,0,1,52028,task3,1841948,false,false,2260,image-keyboard-response,5
true,31,0,1,2,false,d,false,false,0.0-2.0-0.69-0.627-3.627,0,0,1,81,false,stim,true,0,598,2,0,0,52028,task3,1844063,false,false,2263,image-keyboard-response,6
true,31,1,1,1,true,z,false,true,0.0-2.0-0.69-0.628-3.628,0,0,1,90,false,stim,false,0,578,2,0,1,52028,task3,1846164,false,false,2266,image-keyboard-response,7
true,31,1,1,1,true,z,false,true,0.0-2.0-0.69-0.629-3.629,0,0,1,90,false,stim,false,0,459,2,0,1,52028,task3,1848147,false,false,2269,image-keyboard-response,8
true,31,2,1,2,true,d,false,true,0.0-2.0-0.70-0.630-3.630,0,0,1,68,false,stim,false,2,341,2,1,2,52028,task3,1850015,false,false,2272,image-keyboard-response,9
true,31,1,1,2,false,d,true,false,0.0-2.0-0.70-0.631-3.631,0,0,1,90,false,stim,false,0,1221,2,0,0,52028,task3,1852756,false,false,2275,image-keyboard-response,10
true,31,2,1,2,true,d,false,true,0.0-2.0-0.70-0.632-3.632,0,0,1,68,false,stim,false,0,535,2,0,0,52028,task3,1854821,false,false,2278,image-keyboard-response,11
true,31,2,1,2,true,d,false,true,0.0-2.0-0.70-0.633-3.633,0,0,1,68,false,stim,false,0,361,2,0,0,52028,task3,1856702,false,false,2281,image-keyboard-response,12
