answered,blockNum,choice,condition,corResp,correct,correct_response,explo,fb,internal_node_id,isStable_1,isStable_2,isStable_3,key_press,newBlock,part,persev,persevResp,rt,sessNum,stableAS,stimulus,subject,task,time_elapsed,training,trap,trial_index,trial_type,trialsInBlock
true,1,2,0,2,true,d,false,true,0.0-2.0-0.0-0.0-3.0,0,0,0,68,true,stim,false,-1,796.8999999985099,1,0,1,52054,task1,117086,false,false,118,image-keyboard-response,1
true,1,1,0,1,true,z,false,false,0.0-2.0-0.0-0.1-3.1,0,0,0,90,false,stim,false,-1,517.7999999970198,1,0,2,52054,task1,119114,false,true,121,image-keyboard-response,2
true,1,0,0,1,false,z,true,false,0.0-2.0-0.0-0.2-3.2,0,0,0,81,false,stim,false,-1,631.8999999985099,1,0,2,52054,task1,121257,false,false,124,image-keyboard-response,3
true,1,1,0,2,false,d,true,false,0.0-2.0-0.0-0.3-3.3,0,0,0,90,false,stim,false,-1,1394.300000000745,1,0,0,52054,task1,124160,false,false,127,image-keyboard-response,4
true,1,0,0,2,false,d,true,false,0.0-2.0-0.0-0.4-3.4,0,0,0,81,false,stim,false,-1,707.8000000007451,1,0,0,52054,task1,126377,false,false,130,image-keyboard-response,5
true,1,2,0,2,true,d,false,true,0.0-2.0-0.0-0.5-3.5,0,0,0,68,false,stim,false,-1,674.8000000007451,1,0,1,52054,task1,128565,false,false,133,image-keyboard-response,6
true,1,2,0,2,true,d,false,true,0.0-2.0-0.0-0.6-3.6,0,0,0,68,false,stim,false,-1,604.4000000022352,1,0,0,52054,task1,130678,false,false,136,image-keyboard-response,7
true,1,2,0,1,false,z,true,false,0.0-2.0-0.0-0.7-3.7,0,0,0,68,false,stim,false,-1,1744.0999999977648,1,0,2,52054,task1,133931,false,false,139,image-keyboard-response,8
true,1,2,0,2,true,d,false,true,0.0-2.0-0.0-0.8-3.8,0,0,0,68,false,stim,false,-1,589.2999999970198,1,0,1,52054,task1,136029,false,false,142,image-keyboard-response,9
true,1,2,0,1,false,z,true,false,0.0-2.0-0.1-0.9-3.9,0,0,0,68,false,stim,false,-1,618.4000000022352,1,0,2,52054,task1,138161,false,false,145,image-keyboard-response,10
true,1,2,0,1,false,z,true,false,0.0-2.0-0.1-0.10-3.10,0,0,0,68,false,stim,false,-1,539.1000000014901,1,0,2,52054,task1,140214,false,false,148,image-keyboard-response,11
true,1,2,0,2,true,d,false,true,0.0-2.0-0.1-0.11-3.11,0,0,0,68,false,stim,false,-1,866.8000000007451,1,0,0,52054,task1,142591,false,false,151,image-keyboard-response,12
true,1,0,0,1,false,z,true,false,0.0-2.0-0.1-0.12-3.12,0,0,0,81,false,stim,false,-1,562.0,1,0,2,52054,task1,144663,false,false,154,image-keyboard-response,13
true,1,2,0,2,true,d,false,false,0.0-2.0-0.1-0.13-3.13,0,0,0,68,false,stim,false,-1,788.3000000007451,1,0,1,52054,task1,146956,false,true,157,image-keyboard-response,14
true,1,1,0,2,false,d,true,false,0.0-2.0-0.1-0.14-3.14,0,0,0,90,false,stim,false,-1,784.5,1,0,0,52054,task1,149250,false,false,160,image-keyboard-response,15
true,1,2,0,2,true,d,false,true,0.0-2.0-0.1-0.15-3.15,0,0,0,68,false,stim,false,-1,734.5,1,0,1,52054,task1,151492,false,false,163,image-keyboard-response,16
true,1,2,0,2,true,d,false,true,0.0-2.0-0.1-0.16-3.16,0,0,0,68,false,stim,false,-1,640.5,1,0,1,52054,task1,153643,false,false,166,image-keyboard-response,17
true,1,2,0,2,true,d,false,true,0.0-2.0-0.1-0.17-3.17,0,0,0,68,false,stim,false,-1,987.6999999992549,1,0,0,52054,task1,156137,false,false,169,image-keyboard-response,18
true,1,1,0,1,true,z,false,true,0.0-2.0-0.2-0.18-3.18,0,0,0,90,false,stim,false,-1,1226.300000000745,1,0,2,52054,task1,158873,false,false,172,image-keyboard-response,19
true,1,2,0,2,true,d,false,true,0.0-2.0-0.2-0.19-3.19,0,0,0,68,false,stim,false,-1,705.2000000029802,1,0,1,52054,task1,161082,false,false,175,image-keyboard-response,20
true,1,2,0,2,true,d,false,true,0.0-2.0-0.2-0.20-3.20,0,0,0,68,false,stim,false,-1,707.3000000007451,1,0,1,52054,task1,163297,false,false,178,image-keyboard-response,21
true,1,2,0,2,true,d,false,true,0.0-2.0-0.2-0.21-3.21,0,0,0,68,false,stim,false,-1,486.5999999977648,1,0,1,52054,task1,165295,false,false,181,image-keyboard-response,22
true,1,1,0,2,false,d,true,false,0.0-2.0-0.2-0.22-3.22,0,0,0,90,false,stim,false,-1,566.0,1,0,0,52054,task1,167374,false,false,184,image-keyboard-response,23
true,1,0,0,1,false,z,true,false,0.0-2.0-0.2-0.23-3.23,0,0,0,81,false,stim,false,-1,981.8000000007451,1,0,2,52054,task1,169865,false,false,187,image-keyboard-response,24
true,1,1,0,1,true,z,false,true,0.0-2.0-0.2-0.24-3.24,0,0,0,90,false,stim,false,-1,575.4000000022352,1,0,2,52054,task1,171952,false,false,190,image-keyboard-response,25
true,1,2,0,2,true,d,false,false,0.0-2.0-0.2-0.25-3.25,0,0,0,68,false,stim,false,-1,978.5,1,0,0,52054,task1,174443,false,true,193,image-keyboard-response,26
true,2,2,1,0,false,q,false,false,0.0-2.0-0.2-0.26-3.26,0,0,0,68,true,stim,true,2,865.9000000022352,1,0,0,52054,task1,176823,false,false,196,image-keyboard-response,1
true,2,1,1,2,false,d,false,false,0.0-2.0-0.3-0.27-3.27,0,0,0,90,false,stim,true,1,775.3999999985099,1,0,2,52054,task1,179108,false,false,199,image-keyboard-response,2
true,2,0,1,0,true,q,false,true,0.0-2.0-0.3-0.28-3.28,0,0,0,81,false,stim,false,2,749.3999999985099,1,0,0,52054,task1,181363,false,false,202,image-keyboard-response,3
true,2,1,1,2,false,d,false,true,0.0-2.0-0.3-0.29-3.29,0,0,0,90,false,stim,true,1,835.5,1,0,2,52054,task1,183707,false,true,205,image-keyboard-response,4
true,2,0,1,0,true,q,false,true,0.0-2.0-0.3-0.30-3.30,0,0,0,81,false,stim,false,2,482.0,1,0,0,52054,task1,185696,false,false,208,image-keyboard-response,5
true,2,2,1,0,false,q,false,false,0.0-2.0-0.3-0.31-3.31,0,0,0,68,false,stim,true,2,928.2000000029802,1,0,1,52054,task1,188133,false,false,211,image-keyboard-response,6
true,2,2,1,0,false,q,false,true,0.0-2.0-0.3-0.32-3.32,0,0,0,68,false,stim,true,2,687.1000000014901,1,0,1,52054,task1,190329,false,true,214,image-keyboard-response,7
true,2,1,1,2,false,d,false,false,0.0-2.0-0.3-0.33-3.33,0,0,0,90,false,stim,true,1,740.7000000029802,1,0,2,52054,task1,192578,false,false,217,image-keyboard-response,8
true,2,0,1,0,true,q,false,true,0.0-2.0-0.3-0.34-3.34,0,0,0,81,false,stim,false,2,656.9000000022352,1,0,1,52054,task1,194748,false,false,220,image-keyboard-response,9
true,2,1,1,0,false,q,true,false,0.0-2.0-0.3-0.35-3.35,0,0,0,90,false,stim,false,2,962.8000000007451,1,0,0,52054,task1,197224,false,false,223,image-keyboard-response,10
true,2,1,1,2,false,d,false,false,0.0-2.0-0.4-0.36-3.36,0,0,0,90,false,stim,true,1,1025.199999999255,1,0,2,52054,task1,199759,false,false,226,image-keyboard-response,11
true,2,0,1,0,true,q,false,true,0.0-2.0-0.4-0.37-3.37,0,0,0,81,false,stim,false,2,765.0,1,0,0,52054,task1,202036,false,false,229,image-keyboard-response,12
true,2,2,1,0,false,q,false,false,0.0-2.0-0.4-0.38-3.38,0,0,0,68,false,stim,true,2,734.1999999992549,1,0,1,52054,task1,204280,false,false,232,image-keyboard-response,13
true,2,1,1,2,false,d,false,false,0.0-2.0-0.4-0.39-3.39,0,0,0,90,false,stim,true,1,1229.5999999977648,1,0,2,52054,task1,207015,false,false,235,image-keyboard-response,14
true,2,0,1,0,true,q,false,true,0.0-2.0-0.4-0.40-3.40,0,0,0,81,false,stim,false,2,725.1000000014901,1,0,1,52054,task1,209252,false,false,238,image-keyboard-response,15
true,2,0,1,0,true,q,false,true,0.0-2.0-0.4-0.41-3.41,0,0,0,81,false,stim,false,2,804.5999999977648,1,0,0,52054,task1,211561,false,false,241,image-keyboard-response,16
true,2,0,1,0,true,q,false,true,0.0-2.0-0.4-0.42-3.42,0,0,0,81,false,stim,false,2,749.3000000007451,1,0,1,52054,task1,213821,false,false,244,image-keyboard-response,17
true,2,0,1,0,true,q,false,true,0.0-2.0-0.4-0.43-3.43,0,0,0,81,false,stim,false,2,450.0999999977648,1,0,0,52054,task1,215784,false,false,247,image-keyboard-response,18
true,2,2,1,2,true,d,false,false,0.0-2.0-0.4-0.44-3.44,0,0,0,68,false,stim,false,1,968.5,1,0,2,52054,task1,218262,false,true,250,image-keyboard-response,19
true,2,0,1,0,true,q,false,true,0.0-2.0-0.5-0.45-3.45,0,0,0,81,false,stim,false,2,581.1999999992549,1,0,1,52054,task1,220351,false,false,253,image-keyboard-response,20
true,2,0,1,2,false,d,true,false,0.0-2.0-0.5-0.46-3.46,0,0,0,81,false,stim,false,1,428.4000000022352,1,0,2,52054,task1,222294,false,false,256,image-keyboard-response,21
true,2,0,1,0,true,q,false,true,0.0-2.0-0.5-0.47-3.47,0,0,0,81,false,stim,false,2,387.5999999977648,1,0,0,52054,task1,224191,false,false,259,image-keyboard-response,22
true,2,0,1,0,true,q,false,true,0.0-2.0-0.5-0.48-3.48,0,0,0,81,false,stim,false,2,421.80000000074506,1,0,0,52054,task1,226125,false,false,262,image-keyboard-response,23
true,2,0,1,0,true,q,false,true,0.0-2.0-0.5-0.49-3.49,0,0,0,81,false,stim,false,2,399.3999999985099,1,0,0,52054,task1,228033,false,false,265,image-keyboard-response,24
true,2,1,1,2,false,d,false,false,0.0-2.0-0.5-0.50-3.50,0,0,0,90,false,stim,true,1,884.4000000022352,1,0,2,52054,task1,230428,false,false,268,image-keyboard-response,25
true,2,0,1,0,true,q,false,true,0.0-2.0-0.5-0.51-3.51,0,0,0,81,false,stim,false,2,801.5999999977648,1,0,1,52054,task1,232734,false,false,271,image-keyboard-response,26
true,2,0,1,2,false,d,true,false,0.0-2.0-0.5-0.52-3.52,0,0,0,81,false,stim,false,1,684.1000000014901,1,0,2,52054,task1,234926,false,false,274,image-keyboard-response,27
true,2,0,1,0,true,q,false,false,0.0-2.0-0.5-0.53-3.53,0,0,0,81,false,stim,false,2,1032.199999999255,1,0,1,52054,task1,237467,false,true,277,image-keyboard-response,28
true,2,0,1,0,true,q,false,false,0.0-2.0-0.6-0.54-3.54,0,0,0,81,false,stim,false,2,362.9000000022352,1,0,1,52054,task1,239344,false,true,280,image-keyboard-response,29
true,2,0,1,0,true,q,false,true,0.0-2.0-0.6-0.55-3.55,0,0,0,81,false,stim,false,2,1400.4000000022352,1,0,0,52054,task1,242255,false,false,283,image-keyboard-response,30
true,2,1,1,2,false,d,false,false,0.0-2.0-0.6-0.56-3.56,0,0,0,90,false,stim,true,1,1116.0999999977648,1,0,2,52054,task1,244876,false,false,286,image-keyboard-response,31
true,2,1,1,2,false,d,false,false,0.0-2.0-0.6-0.57-3.57,0,0,0,90,false,stim,true,1,763.1999999992549,1,0,2,52054,task1,247153,false,false,289,image-keyboard-response,32
true,2,0,1,0,true,q,false,true,0.0-2.0-0.6-0.58-3.58,0,0,0,81,false,stim,false,2,681.5999999977648,1,0,0,52054,task1,249344,false,false,292,image-keyboard-response,33
true,2,0,1,0,true,q,false,true,0.0-2.0-0.6-0.59-3.59,0,0,0,81,false,stim,false,2,950.2000000029802,1,0,0,52054,task1,251802,false,false,295,image-keyboard-response,34
true,2,2,1,2,true,d,false,true,0.0-2.0-0.6-0.60-3.60,0,0,0,68,false,stim,false,1,667.5,1,0,2,52054,task1,253980,false,false,298,image-keyboard-response,35
true,2,1,1,0,false,q,true,true,0.0-2.0-0.6-0.61-3.61,0,0,0,90,false,stim,false,2,1903.0,1,0,1,52054,task1,257394,false,true,301,image-keyboard-response,36
true,2,1,1,0,false,q,true,false,0.0-2.0-0.6-0.62-3.62,0,0,0,90,false,stim,false,2,432.69999999925494,1,0,1,52054,task1,259337,false,false,304,image-keyboard-response,37
true,2,1,1,0,false,q,true,false,0.0-2.0-0.7-0.63-3.63,0,0,0,90,false,stim,false,2,1351.4000000022352,1,0,1,52054,task1,262197,false,false,307,image-keyboard-response,38
true,2,2,1,0,false,q,false,false,0.0-2.0-0.7-0.64-3.64,0,0,0,68,false,stim,true,2,798.3000000007451,1,0,1,52054,task1,264509,false,false,310,image-keyboard-response,39
true,2,0,1,0,true,q,false,true,0.0-2.0-0.7-0.65-3.65,0,0,0,81,false,stim,false,2,1077.2999999970198,1,0,0,52054,task1,267096,false,false,313,image-keyboard-response,40
true,2,2,1,2,true,d,false,true,0.0-2.0-0.7-0.66-3.66,0,0,0,68,false,stim,false,1,1175.3999999985099,1,0,2,52054,task1,269785,false,false,316,image-keyboard-response,41
true,2,2,1,2,true,d,false,true,0.0-2.0-0.7-0.67-3.67,0,0,0,68,false,stim,false,1,621.3999999985099,1,0,2,52054,task1,271916,false,false,319,image-keyboard-response,42
true,3,0,1,1,false,z,false,false,0.0-2.0-0.7-0.68-3.68,0,0,0,81,true,stim,true,0,655.4000000022352,1,0,0,52054,task1,274083,false,false,322,image-keyboard-response,1
true,3,0,1,2,false,d,false,false,0.0-2.0-0.7-0.69-3.69,0,0,0,81,false,stim,true,0,1596.199999999255,1,0,1,52054,task1,277185,false,false,325,image-keyboard-response,2
true,3,0,1,1,false,z,false,false,0.0-2.0-0.7-0.70-3.70,0,0,0,81,false,stim,true,0,1754.0,1,0,0,52054,task1,280445,false,false,328,image-keyboard-response,3
true,3,2,1,0,false,q,false,false,0.0-2.0-0.7-0.71-3.71,0,0,0,68,false,stim,true,2,1184.6000000014901,1,0,2,52054,task1,283135,false,false,331,image-keyboard-response,4
true,3,1,1,1,true,z,false,true,0.0-2.0-0.8-0.72-3.72,0,0,0,90,false,stim,false,0,765.5,1,0,0,52054,task1,285415,false,false,334,image-keyboard-response,5
true,3,1,1,1,true,z,false,true,0.0-2.0-0.8-0.73-3.73,0,0,0,90,false,stim,false,0,481.9000000022352,1,0,0,52054,task1,287405,false,false,337,image-keyboard-response,6
true,3,0,1,0,true,q,false,true,0.0-2.0-0.8-0.74-3.74,0,0,0,81,false,stim,false,2,1319.3999999985099,1,0,2,52054,task1,290237,false,false,340,image-keyboard-response,7
true,3,1,1,1,true,z,false,true,0.0-2.0-0.8-0.75-3.75,0,0,0,90,false,stim,false,0,636.7999999970198,1,0,0,52054,task1,292378,false,false,343,image-keyboard-response,8
true,3,1,1,2,false,d,true,false,0.0-2.0-0.8-0.76-3.76,0,0,0,90,false,stim,false,0,679.8000000007451,1,0,1,52054,task1,294570,false,false,346,image-keyboard-response,9
true,3,0,1,0,true,q,false,true,0.0-2.0-0.8-0.77-3.77,0,0,0,81,false,stim,false,2,443.6000000014901,1,0,2,52054,task1,296526,false,false,349,image-keyboard-response,10
true,3,0,1,0,true,q,false,true,0.0-2.0-0.8-0.78-3.78,0,0,0,81,false,stim,false,2,475.80000000074506,1,0,2,52054,task1,298512,false,false,352,image-keyboard-response,11
true,3,2,1,2,true,d,false,false,0.0-2.0-0.8-0.79-3.79,0,0,0,68,false,stim,false,0,1132.5,1,0,1,52054,task1,301154,false,true,355,image-keyboard-response,12
true,3,1,1,2,false,d,true,false,0.0-2.0-0.8-0.80-3.80,0,0,0,90,false,stim,false,0,407.6000000014901,1,0,1,52054,task1,303068,false,false,358,image-keyboard-response,13
true,3,0,1,0,true,q,false,true,0.0-2.0-0.9-0.81-3.81,0,0,0,81,false,stim,false,2,550.7000000029802,1,0,2,52054,task1,305131,false,false,361,image-keyboard-response,14
true,3,1,1,1,true,z,false,true,0.0-2.0-0.9-0.82-3.82,0,0,0,90,false,stim,false,0,1208.699999999255,1,0,0,52054,task1,307849,false,false,364,image-keyboard-response,15
true,3,1,1,1,true,z,false,true,0.0-2.0-0.9-0.83-3.83,0,0,0,90,false,stim,false,0,466.0999999977648,1,0,0,52054,task1,309821,false,false,367,image-keyboard-response,16
true,3,1,1,1,true,z,false,true,0.0-2.0-0.9-0.84-3.84,0,0,0,90,false,stim,false,0,376.8999999985099,1,0,0,52054,task1,311708,false,false,370,image-keyboard-response,17
true,3,0,1,0,true,q,false,true,0.0-2.0-0.9-0.85-3.85,0,0,0,81,false,stim,false,2,743.6999999992549,1,0,2,52054,task1,313962,false,false,373,image-keyboard-response,18
true,3,0,1,2,false,d,false,false,0.0-2.0-0.9-0.86-3.86,0,0,0,81,false,stim,true,0,933.2000000029802,1,0,1,52054,task1,316402,false,false,376,image-keyboard-response,19
true,3,1,1,2,false,d,true,false,0.0-2.0-0.9-0.87-3.87,0,0,0,90,false,stim,false,0,449.30000000074506,1,0,1,52054,task1,318364,false,false,379,image-keyboard-response,20
true,3,2,1,2,true,d,false,true,0.0-2.0-0.9-0.88-3.88,0,0,0,68,false,stim,false,0,549.0,1,0,1,52054,task1,320428,false,false,382,image-keyboard-response,21
true,3,0,1,0,true,q,false,true,0.0-2.0-0.9-0.89-3.89,0,0,0,81,false,stim,false,2,695.8999999985099,1,0,2,52054,task1,322633,false,false,385,image-keyboard-response,22
true,3,0,1,0,true,q,false,true,0.0-2.0-0.10-0.90-3.90,0,0,0,81,false,stim,false,2,544.3000000007451,1,0,2,52054,task1,324684,false,false,388,image-keyboard-response,23
true,3,0,1,2,false,d,false,false,0.0-2.0-0.10-0.91-3.91,0,0,0,81,false,stim,true,0,582.5999999977648,1,0,1,52054,task1,326777,false,false,391,image-keyboard-response,24
true,3,0,1,0,true,q,false,true,0.0-2.0-0.10-0.92-3.92,0,0,0,81,false,stim,false,2,1498.1000000014901,1,0,2,52054,task1,329784,false,false,394,image-keyboard-response,25
true,3,1,1,1,true,z,false,true,0.0-2.0-0.10-0.93-3.93,0,0,0,90,false,stim,false,0,827.3000000007451,1,0,0,52054,task1,332117,false,false,397,image-keyboard-response,26
true,3,0,1,0,true,q,false,true,0.0-2.0-0.10-0.94-3.94,0,0,0,81,false,stim,false,2,1325.0,1,0,2,52054,task1,334950,false,false,400,image-keyboard-response,27
true,3,2,1,2,true,d,false,false,0.0-2.0-0.10-0.95-3.95,0,0,0,68,false,stim,false,0,1334.1000000014901,1,0,1,52054,task1,337794,false,true,403,image-keyboard-response,28
true,3,0,1,1,false,z,false,false,0.0-2.0-0.10-0.96-3.96,0,0,0,81,false,stim,true,0,706.1000000014901,1,0,0,52054,task1,340012,false,false,406,image-keyboard-response,29
true,3,1,1,1,true,z,false,true,0.0-2.0-0.10-0.97-3.97,0,0,0,90,false,stim,false,0,1062.8999999985099,1,0,0,52054,task1,342587,false,false,409,image-keyboard-response,30
true,3,1,1,2,false,d,true,false,0.0-2.0-0.10-0.98-3.98,0,0,0,90,false,stim,false,0,478.30000000074506,1,0,1,52054,task1,344574,false,false,412,image-keyboard-response,31
true,3,0,1,2,false,d,false,false,0.0-2.0-0.11-0.99-3.99,0,0,0,81,false,stim,true,0,610.8999999985099,1,0,1,52054,task1,346693,false,false,415,image-keyboard-response,32
true,3,2,1,0,false,q,false,false,0.0-2.0-0.11-0.100-3.100,0,0,0,68,false,stim,true,2,415.0999999977648,1,0,2,52054,task1,348615,false,false,418,image-keyboard-response,33
true,3,1,1,1,true,z,false,true,0.0-2.0-0.11-0.101-3.101,0,0,0,90,false,stim,false,0,871.1999999992549,1,0,0,52054,task1,350995,false,false,421,image-keyboard-response,34
true,3,0,1,2,false,d,false,false,0.0-2.0-0.11-0.102-3.102,0,0,0,81,false,stim,true,0,786.6999999992549,1,0,1,52054,task1,353293,false,false,424,image-keyboard-response,35
true,3,2,1,0,false,q,false,false,0.0-2.0-0.11-0.103-3.103,0,0,0,68,false,stim,true,2,1116.199999999255,1,0,2,52054,task1,355921,false,false,427,image-keyboard-response,36
true,3,1,1,2,false,d,true,false,0.0-2.0-0.11-0.104-3.104,0,0,0,90,false,stim,false,0,1161.1000000014901,1,0,1,52054,task1,358593,false,false,430,image-keyboard-response,37
true,3,2,1,0,false,q,false,false,0.0-2.0-0.11-0.105-3.105,0,0,0,68,false,stim,true,2,1361.0,1,0,2,52054,task1,361466,false,false,433,image-keyboard-response,38
true,3,1,1,1,true,z,false,true,0.0-2.0-0.11-0.106-3.106,0,0,0,90,false,stim,false,0,814.3000000007451,1,0,0,52054,task1,363791,false,false,436,image-keyboard-response,39
true,3,1,1,1,true,z,false,true,0.0-2.0-0.11-0.107-3.107,0,0,0,90,false,stim,false,0,534.6999999992549,1,0,0,52054,task1,365831,false,false,439,image-keyboard-response,40
true,3,1,1,1,true,z,false,true,0.0-2.0-0.12-0.108-3.108,0,0,0,90,false,stim,false,0,412.6000000014901,1,0,0,52054,task1,367753,false,false,442,image-keyboard-response,41
true,3,1,1,2,false,d,true,false,0.0-2.0-0.12-0.109-3.109,0,0,0,90,false,stim,false,0,616.0,1,0,1,52054,task1,369877,false,false,445,image-keyboard-response,42
true,3,0,1,2,false,d,false,false,0.0-2.0-0.12-0.110-3.110,0,0,0,81,false,stim,true,0,733.0999999977648,1,0,1,52054,task1,372120,false,false,448,image-keyboard-response,43
true,3,2,1,0,false,q,false,false,0.0-2.0-0.12-0.111-3.111,0,0,0,68,false,stim,true,2,1567.6000000014901,1,0,2,52054,task1,375196,false,false,451,image-keyboard-response,44
true,4,1,1,2,false,d,false,false,0.0-2.0-0.12-0.112-3.112,0,0,0,90,true,stim,true,1,1489.5,1,0,0,52054,task1,378193,false,false,454,image-keyboard-response,1
true,4,1,1,1,true,z,false,true,0.0-2.0-0.12-0.113-3.113,0,0,0,90,false,stim,false,2,980.3999999985099,1,0,1,52054,task1,380686,false,false,457,image-keyboard-response,2
true,4,2,1,2,true,d,false,true,0.0-2.0-0.12-0.114-3.114,0,0,0,68,false,stim,false,1,1153.0,1,0,0,52054,task1,383353,false,false,460,image-keyboard-response,3
true,4,0,1,1,false,z,false,false,0.0-2.0-0.12-0.115-3.115,0,0,0,81,false,stim,true,0,1080.6000000014901,1,0,2,52054,task1,385943,false,false,463,image-keyboard-response,4
true,4,2,1,1,false,z,true,false,0.0-2.0-0.12-0.116-3.116,0,0,0,68,false,stim,false,0,1281.0,1,0,2,52054,task1,388730,false,false,466,image-keyboard-response,5
true,4,1,1,1,true,z,false,true,0.0-2.0-0.13-0.117-3.117,0,0,0,90,false,stim,false,0,759.8000000007451,1,0,2,52054,task1,390999,false,false,469,image-keyboard-response,6
true,4,1,1,2,false,d,false,false,0.0-2.0-0.13-0.118-3.118,0,0,0,90,false,stim,true,1,509.5999999977648,1,0,0,52054,task1,393020,false,false,472,image-keyboard-response,7
true,4,0,1,2,false,d,true,false,0.0-2.0-0.13-0.119-3.119,0,0,0,81,false,stim,false,1,524.5,1,0,0,52054,task1,395055,false,false,475,image-keyboard-response,8
true,4,2,1,1,false,z,false,false,0.0-2.0-0.13-0.120-3.120,0,0,0,68,false,stim,true,2,1513.0,1,0,1,52054,task1,398080,false,false,478,image-keyboard-response,9
true,4,1,1,1,true,z,false,true,0.0-2.0-0.13-0.121-3.121,0,0,0,90,false,stim,false,2,582.5,1,0,1,52054,task1,400173,false,false,481,image-keyboard-response,10
true,4,1,1,1,true,z,false,true,0.0-2.0-0.13-0.122-3.122,0,0,0,90,false,stim,false,2,375.69999999925494,1,0,1,52054,task1,402061,false,false,484,image-keyboard-response,11
true,4,0,1,1,false,z,false,false,0.0-2.0-0.13-0.123-3.123,0,0,0,81,false,stim,true,0,1961.1000000014901,1,0,2,52054,task1,405529,false,false,487,image-keyboard-response,12
true,4,1,1,1,true,z,false,true,0.0-2.0-0.13-0.124-3.124,0,0,0,90,false,stim,false,0,358.0,1,0,2,52054,task1,407401,false,false,490,image-keyboard-response,13
true,4,0,1,2,false,d,true,false,0.0-2.0-0.13-0.125-3.125,0,0,0,81,false,stim,false,1,1057.1000000014901,1,0,0,52054,task1,409965,false,false,493,image-keyboard-response,14
true,4,1,1,2,false,d,false,false,0.0-2.0-0.14-0.126-3.126,0,0,0,90,false,stim,true,1,434.5,1,0,0,52054,task1,411908,false,false,496,image-keyboard-response,15
true,4,1,1,1,true,z,false,true,0.0-2.0-0.14-0.127-3.127,0,0,0,90,false,stim,false,0,842.6999999992549,1,0,2,52054,task1,414262,false,false,499,image-keyboard-response,16
true,4,2,1,2,true,d,false,true,0.0-2.0-0.14-0.128-3.128,0,0,0,68,false,stim,false,1,719.6999999992549,1,0,0,52054,task1,416491,false,false,502,image-keyboard-response,17
true,4,1,1,1,true,z,false,true,0.0-2.0-0.14-0.129-3.129,0,0,0,90,false,stim,false,0,837.3000000007451,1,0,2,52054,task1,418836,false,false,505,image-keyboard-response,18
true,4,1,1,1,true,z,false,false,0.0-2.0-0.14-0.130-3.130,0,0,0,90,false,stim,false,0,389.9000000022352,1,0,2,52054,task1,420737,false,true,508,image-keyboard-response,19
true,4,1,1,2,false,d,false,false,0.0-2.0-0.14-0.131-3.131,0,0,0,90,false,stim,true,1,629.1000000014901,1,0,0,52054,task1,422879,false,false,511,image-keyboard-response,20
true,4,1,1,1,true,z,false,false,0.0-2.0-0.14-0.132-3.132,0,0,0,90,false,stim,false,2,580.3999999985099,1,0,1,52054,task1,424969,false,true,514,image-keyboard-response,21
true,4,1,1,1,true,z,false,true,0.0-2.0-0.14-0.133-3.133,0,0,0,90,false,stim,false,2,638.1000000014901,1,0,1,52054,task1,427112,false,false,517,image-keyboard-response,22
true,4,1,1,1,true,z,false,true,0.0-2.0-0.14-0.134-3.134,0,0,0,90,false,stim,false,2,387.69999999925494,1,0,1,52054,task1,429006,false,false,520,image-keyboard-response,23
true,4,2,1,2,true,d,false,true,0.0-2.0-0.15-0.135-3.135,0,0,0,68,false,stim,false,1,959.0,1,0,0,52054,task1,431477,false,false,523,image-keyboard-response,24
true,4,1,1,1,true,z,false,true,0.0-2.0-0.15-0.136-3.136,0,0,0,90,false,stim,false,2,969.6999999992549,1,0,1,52054,task1,433959,false,false,526,image-keyboard-response,25
true,4,1,1,1,true,z,false,true,0.0-2.0-0.15-0.137-3.137,0,0,0,90,false,stim,false,2,686.3000000007451,1,0,1,52054,task1,436155,false,false,529,image-keyboard-response,26
true,4,1,1,2,false,d,false,false,0.0-2.0-0.15-0.138-3.138,0,0,0,90,false,stim,true,1,733.1000000014901,1,0,0,52054,task1,438396,false,false,532,image-keyboard-response,27
true,4,1,1,1,true,z,false,true,0.0-2.0-0.15-0.139-3.139,0,0,0,90,false,stim,false,0,666.0,1,0,2,52054,task1,440568,false,false,535,image-keyboard-response,28
true,4,1,1,1,true,z,false,true,0.0-2.0-0.15-0.140-3.140,0,0,0,90,false,stim,false,2,2616.89999999851,1,0,1,52054,task1,444695,false,false,538,image-keyboard-response,29
true,4,1,1,1,true,z,false,true,0.0-2.0-0.15-0.141-3.141,0,0,0,90,false,stim,false,0,1847.0999999977648,1,0,2,52054,task1,448047,false,false,541,image-keyboard-response,30
true,4,1,1,1,true,z,false,true,0.0-2.0-0.15-0.142-3.142,0,0,0,90,false,stim,false,0,457.70000000298023,1,0,2,52054,task1,450017,false,false,544,image-keyboard-response,31
true,4,2,1,2,true,d,false,true,0.0-2.0-0.15-0.143-3.143,0,0,0,68,false,stim,false,1,847.7999999970198,1,0,0,52054,task1,452372,false,false,547,image-keyboard-response,32
true,4,2,1,2,true,d,false,true,0.0-2.0-0.16-0.144-3.144,0,0,0,68,false,stim,false,1,465.80000000074506,1,0,0,52054,task1,454347,false,false,550,image-keyboard-response,33
true,4,1,1,1,true,z,false,true,0.0-2.0-0.16-0.145-3.145,0,0,0,90,false,stim,false,0,809.4000000022352,1,0,2,52054,task1,456668,false,false,553,image-keyboard-response,34
true,4,2,1,1,false,z,false,false,0.0-2.0-0.16-0.146-3.146,0,0,0,68,false,stim,true,2,670.8999999985099,1,0,1,52054,task1,458848,false,false,556,image-keyboard-response,35
true,4,1,1,1,true,z,false,true,0.0-2.0-0.16-0.147-3.147,0,0,0,90,false,stim,false,2,362.19999999925494,1,0,1,52054,task1,460720,false,false,559,image-keyboard-response,36
true,4,1,1,1,true,z,false,true,0.0-2.0-0.16-0.148-3.148,0,0,0,90,false,stim,false,0,391.19999999925494,1,0,2,52054,task1,462622,false,false,562,image-keyboard-response,37
true,4,2,1,2,true,d,false,true,0.0-2.0-0.16-0.149-3.149,0,0,0,68,false,stim,false,1,569.6000000014901,1,0,0,52054,task1,464700,false,false,565,image-keyboard-response,38
true,4,1,1,1,true,z,false,true,0.0-2.0-0.16-0.150-3.150,0,0,0,90,false,stim,false,0,438.0,1,0,2,52054,task1,466650,false,false,568,image-keyboard-response,39
true,5,2,1,0,false,q,false,false,0.0-2.0-0.16-0.151-3.151,0,0,0,68,true,stim,true,2,913.3999999985099,1,0,0,52054,task1,469073,false,false,571,image-keyboard-response,1
true,5,1,1,2,false,d,false,true,0.0-2.0-0.16-0.152-3.152,0,0,0,90,false,stim,true,1,826.6999999992549,1,0,1,52054,task1,471410,false,true,574,image-keyboard-response,2
true,5,1,1,2,false,d,false,false,0.0-2.0-0.17-0.153-3.153,0,0,0,90,false,stim,true,1,464.30000000074506,1,0,1,52054,task1,473383,false,false,577,image-keyboard-response,3
true,5,1,1,0,false,q,false,true,0.0-2.0-0.17-0.154-3.154,0,0,0,90,false,stim,true,1,1270.0,1,0,2,52054,task1,476164,false,true,580,image-keyboard-response,4
true,5,2,1,0,false,q,false,false,0.0-2.0-0.17-0.155-3.155,0,0,0,68,false,stim,true,2,523.1999999992549,1,0,0,52054,task1,478196,false,false,583,image-keyboard-response,5
true,5,0,1,0,true,q,false,true,0.0-2.0-0.17-0.156-3.156,0,0,0,81,false,stim,false,2,492.5999999977648,1,0,0,52054,task1,480199,false,false,586,image-keyboard-response,6
true,5,1,1,2,false,d,false,false,0.0-2.0-0.17-0.157-3.157,0,0,0,90,false,stim,true,1,505.30000000074506,1,0,1,52054,task1,482210,false,false,589,image-keyboard-response,7
true,5,2,1,2,true,d,false,true,0.0-2.0-0.17-0.158-3.158,0,0,0,68,false,stim,false,1,647.1000000014901,1,0,1,52054,task1,484365,false,false,592,image-keyboard-response,8
true,5,0,1,0,true,q,false,true,0.0-2.0-0.17-0.159-3.159,0,0,0,81,false,stim,false,1,1144.5,1,0,2,52054,task1,487019,false,false,595,image-keyboard-response,9
true,5,2,1,0,false,q,false,false,0.0-2.0-0.17-0.160-3.160,0,0,0,68,false,stim,true,2,477.3999999985099,1,0,0,52054,task1,489009,false,false,598,image-keyboard-response,10
true,5,2,1,0,false,q,true,false,0.0-2.0-0.17-0.161-3.161,0,0,0,68,false,stim,false,1,1272.5999999977648,1,0,2,52054,task1,491794,false,false,601,image-keyboard-response,11
true,5,0,1,0,true,q,false,true,0.0-2.0-0.18-0.162-3.162,0,0,0,81,false,stim,false,1,615.2000000029802,1,0,2,52054,task1,493917,false,false,604,image-keyboard-response,12
true,5,0,1,0,true,q,false,true,0.0-2.0-0.18-0.163-3.163,0,0,0,81,false,stim,false,2,802.8000000007451,1,0,0,52054,task1,496229,false,false,607,image-keyboard-response,13
true,5,0,1,0,true,q,false,true,0.0-2.0-0.18-0.164-3.164,0,0,0,81,false,stim,false,2,544.6000000014901,1,0,0,52054,task1,498277,false,false,610,image-keyboard-response,14
true,5,0,1,0,true,q,false,true,0.0-2.0-0.18-0.165-3.165,0,0,0,81,false,stim,false,1,639.0,1,0,2,52054,task1,500424,false,false,613,image-keyboard-response,15
true,5,1,1,2,false,d,false,false,0.0-2.0-0.18-0.166-3.166,0,0,0,90,false,stim,true,1,956.3000000007451,1,0,1,52054,task1,502890,false,false,616,image-keyboard-response,16
true,5,0,1,2,false,d,true,false,0.0-2.0-0.18-0.167-3.167,0,0,0,81,false,stim,false,1,442.6000000014901,1,0,1,52054,task1,504841,false,false,619,image-keyboard-response,17
true,5,2,1,2,true,d,false,true,0.0-2.0-0.18-0.168-3.168,0,0,0,68,false,stim,false,1,462.19999999925494,1,0,1,52054,task1,506810,false,false,622,image-keyboard-response,18
true,5,0,1,0,true,q,false,true,0.0-2.0-0.18-0.169-3.169,0,0,0,81,false,stim,false,2,444.4000000022352,1,0,0,52054,task1,508764,false,false,625,image-keyboard-response,19
true,5,0,1,0,true,q,false,true,0.0-2.0-0.18-0.170-3.170,0,0,0,81,false,stim,false,1,381.5,1,0,2,52054,task1,510656,false,false,628,image-keyboard-response,20
true,5,2,1,2,true,d,false,true,0.0-2.0-0.19-0.171-3.171,0,0,0,68,false,stim,false,1,458.69999999925494,1,0,1,52054,task1,512623,false,false,631,image-keyboard-response,21
true,5,0,1,0,true,q,false,true,0.0-2.0-0.19-0.172-3.172,0,0,0,81,false,stim,false,2,517.8999999985099,1,0,0,52054,task1,514652,false,false,634,image-keyboard-response,22
true,5,0,1,0,true,q,false,true,0.0-2.0-0.19-0.173-3.173,0,0,0,81,false,stim,false,1,1192.5,1,0,2,52054,task1,517355,false,false,637,image-keyboard-response,23
true,5,0,1,0,true,q,false,false,0.0-2.0-0.19-0.174-3.174,0,0,0,81,false,stim,false,1,504.5,1,0,2,52054,task1,519371,false,true,640,image-keyboard-response,24
true,5,2,1,0,false,q,true,false,0.0-2.0-0.19-0.175-3.175,0,0,0,68,false,stim,false,1,627.5,1,0,2,52054,task1,521509,false,false,643,image-keyboard-response,25
true,5,0,1,0,true,q,false,true,0.0-2.0-0.19-0.176-3.176,0,0,0,81,false,stim,false,2,650.3000000007451,1,0,0,52054,task1,523673,false,false,646,image-keyboard-response,26
true,5,0,1,0,true,q,false,true,0.0-2.0-0.19-0.177-3.177,0,0,0,81,false,stim,false,2,590.8000000007451,1,0,0,52054,task1,525778,false,false,649,image-keyboard-response,27
true,5,0,1,2,false,d,true,false,0.0-2.0-0.19-0.178-3.178,0,0,0,81,false,stim,false,1,2485.699999999255,1,0,1,52054,task1,529773,false,false,652,image-keyboard-response,28
true,5,1,1,2,false,d,false,false,0.0-2.0-0.19-0.179-3.179,0,0,0,90,false,stim,true,1,658.5,1,0,1,52054,task1,531943,false,false,655,image-keyboard-response,29
true,5,2,1,0,false,q,true,false,0.0-2.0-0.20-0.180-3.180,0,0,0,68,false,stim,false,1,560.0,1,0,2,52054,task1,534011,false,false,658,image-keyboard-response,30
true,5,0,1,2,false,d,true,false,0.0-2.0-0.20-0.181-3.181,0,0,0,81,false,stim,false,1,343.19999999925494,1,0,1,52054,task1,535865,false,false,661,image-keyboard-response,31
true,5,0,1,0,true,q,false,true,0.0-2.0-0.20-0.182-3.182,0,0,0,81,false,stim,false,2,778.5999999977648,1,0,0,52054,task1,538153,false,false,664,image-keyboard-response,32
true,5,0,1,0,true,q,false,true,0.0-2.0-0.20-0.183-3.183,0,0,0,81,false,stim,false,2,444.0999999977648,1,0,0,52054,task1,540103,false,false,667,image-keyboard-response,33
true,5,2,1,0,false,q,true,false,0.0-2.0-0.20-0.184-3.184,0,0,0,68,false,stim,false,1,680.3999999985099,1,0,2,52054,task1,542298,false,false,670,image-keyboard-response,34
true,5,0,1,0,true,q,false,true,0.0-2.0-0.20-0.185-3.185,0,0,0,81,false,stim,false,2,447.0999999977648,1,0,0,52054,task1,544259,false,false,673,image-keyboard-response,35
true,5,0,1,2,false,d,true,false,0.0-2.0-0.20-0.186-3.186,0,0,0,81,false,stim,false,1,626.1000000014901,1,0,1,52054,task1,546390,false,false,676,image-keyboard-response,36
true,5,1,1,0,false,q,false,false,0.0-2.0-0.20-0.187-3.187,0,0,0,90,false,stim,true,1,1186.8999999985099,1,0,2,52054,task1,549088,false,false,679,image-keyboard-response,37
true,5,2,1,2,true,d,false,true,0.0-2.0-0.20-0.188-3.188,0,0,0,68,false,stim,false,1,1058.8999999985099,1,0,1,52054,task1,551657,false,false,682,image-keyboard-response,38
true,5,0,1,0,true,q,false,true,0.0-2.0-0.21-0.189-3.189,0,0,0,81,false,stim,false,2,564.3000000007451,1,0,0,52054,task1,553732,false,false,685,image-keyboard-response,39
true,5,1,1,0,false,q,false,false,0.0-2.0-0.21-0.190-3.190,0,0,0,90,false,stim,true,1,814.9000000022352,1,0,2,52054,task1,556061,false,false,688,image-keyboard-response,40
true,5,0,1,0,true,q,false,false,0.0-2.0-0.21-0.191-3.191,0,0,0,81,false,stim,false,1,651.2999999970198,1,0,2,52054,task1,558220,false,true,691,image-keyboard-response,41
true,5,2,1,0,false,q,true,false,0.0-2.0-0.21-0.192-3.192,0,0,0,68,false,stim,false,1,470.0999999977648,1,0,2,52054,task1,560194,false,false,694,image-keyboard-response,42
true,5,0,1,2,false,d,true,false,0.0-2.0-0.21-0.193-3.193,0,0,0,81,false,stim,false,1,973.9000000022352,1,0,1,52054,task1,562677,false,false,697,image-keyboard-response,43
true,5,2,1,2,true,d,false,true,0.0-2.0-0.21-0.194-3.194,0,0,0,68,false,stim,false,1,516.8000000007451,1,0,1,52054,task1,564703,false,false,700,image-keyboard-response,44
true,6,0,2,2,false,d,false,false,0.0-2.0-0.21-0.195-3.195,0,0,0,81,true,stim,true,0,782.0999999977648,1,0,0,52054,task1,567002,false,false,703,image-keyboard-response,1
true,6,1,2,2,false,d,true,false,0.0-2.0-0.21-0.196-3.196,0,0,0,90,false,stim,false,0,385.69999999925494,1,0,0,52054,task1,568899,false,false,706,image-keyboard-response,2
true,6,2,2,1,false,z,false,false,0.0-2.0-0.21-0.197-3.197,0,0,0,68,false,stim,true,2,592.4000000022352,1,0,1,52054,task1,571003,false,false,709,image-keyboard-response,3
true,6,2,2,1,false,z,false,true,0.0-2.0-0.22-0.198-3.198,0,0,0,68,false,stim,true,2,379.0,1,0,1,52054,task1,572893,false,true,712,image-keyboard-response,4
true,6,0,2,2,false,d,false,false,0.0-2.0-0.22-0.199-3.199,0,0,0,81,false,stim,true,0,582.6000000014901,1,0,0,52054,task1,574981,false,false,715,image-keyboard-response,5
true,6,1,2,2,false,d,true,false,0.0-2.0-0.22-0.200-3.200,0,0,0,90,false,stim,false,0,716.0,1,0,0,52054,task1,577211,false,false,718,image-keyboard-response,6
true,6,2,2,1,false,z,false,false,0.0-2.0-0.22-0.201-3.201,0,0,0,68,false,stim,true,2,813.6000000014901,1,0,1,52054,task1,579539,false,false,721,image-keyboard-response,7
true,6,2,2,1,false,z,true,false,0.0-2.0-0.22-0.202-3.202,0,0,0,68,false,stim,false,0,570.0,1,0,2,52054,task1,581620,false,false,724,image-keyboard-response,8
true,6,0,2,1,false,z,false,false,0.0-2.0-0.22-0.203-3.203,0,0,0,81,false,stim,true,0,1109.199999999255,1,0,2,52054,task1,584237,false,false,727,image-keyboard-response,9
true,6,2,2,2,true,d,false,false,0.0-2.0-0.22-0.204-3.204,0,0,0,68,false,stim,false,0,867.0,1,0,0,52054,task1,586612,false,true,730,image-keyboard-response,10
true,6,2,2,1,false,z,true,false,0.0-2.0-0.22-0.205-3.205,0,0,0,68,false,stim,false,0,942.4000000022352,1,0,2,52054,task1,589060,false,false,733,image-keyboard-response,11
true,6,1,2,1,true,z,false,true,0.0-2.0-0.22-0.206-3.206,0,0,0,90,false,stim,false,2,470.30000000074506,1,0,1,52054,task1,591041,false,false,736,image-keyboard-response,12
true,6,1,2,2,false,d,true,false,0.0-2.0-0.23-0.207-3.207,0,0,0,90,false,stim,false,0,481.8999999985099,1,0,0,52054,task1,593037,false,false,739,image-keyboard-response,13
true,6,1,2,1,true,z,false,true,0.0-2.0-0.23-0.208-3.208,0,0,0,90,false,stim,false,0,765.8000000007451,1,0,2,52054,task1,595316,false,false,742,image-keyboard-response,14
true,6,1,2,1,true,z,false,true,0.0-2.0-0.23-0.209-3.209,0,0,0,90,false,stim,false,2,881.6000000014901,1,0,1,52054,task1,597707,false,false,745,image-keyboard-response,15
true,6,0,2,2,false,d,false,false,0.0-2.0-0.23-0.210-3.210,0,0,0,81,false,stim,true,0,926.8999999985099,1,0,0,52054,task1,600143,false,false,748,image-keyboard-response,16
true,6,1,2,1,true,z,false,true,0.0-2.0-0.23-0.211-3.211,0,0,0,90,false,stim,false,2,453.79999999701977,1,0,1,52054,task1,602106,false,false,751,image-keyboard-response,17
true,6,1,2,1,true,z,false,true,0.0-2.0-0.23-0.212-3.212,0,0,0,90,false,stim,false,2,446.1000000014901,1,0,1,52054,task1,604063,false,false,754,image-keyboard-response,18
true,6,1,2,1,true,z,false,true,0.0-2.0-0.23-0.213-3.213,0,0,0,90,false,stim,false,0,331.5,1,0,2,52054,task1,605906,false,false,757,image-keyboard-response,19
true,6,2,2,2,true,d,false,true,0.0-2.0-0.23-0.214-3.214,0,0,0,68,false,stim,false,0,542.5999999977648,1,0,0,52054,task1,607959,false,false,760,image-keyboard-response,20
true,6,1,2,1,true,z,false,true,0.0-2.0-0.23-0.215-3.215,0,0,0,90,false,stim,false,0,696.3000000007451,1,0,2,52054,task1,610167,false,false,763,image-keyboard-response,21
true,6,1,2,1,true,z,false,false,0.0-2.0-0.24-0.216-3.216,0,0,0,90,false,stim,false,2,477.5999999977648,1,0,1,52054,task1,612155,false,true,766,image-keyboard-response,22
true,6,2,2,2,true,d,false,false,0.0-2.0-0.24-0.217-3.217,0,0,0,68,false,stim,false,0,476.69999999925494,1,0,0,52054,task1,614146,false,true,769,image-keyboard-response,23
true,6,2,2,2,true,d,false,true,0.0-2.0-0.24-0.218-3.218,0,0,0,68,false,stim,false,0,744.1999999992549,1,0,0,52054,task1,616401,false,false,772,image-keyboard-response,24
true,6,1,2,1,true,z,false,true,0.0-2.0-0.24-0.219-3.219,0,0,0,90,false,stim,false,0,525.8000000007451,1,0,2,52054,task1,618432,false,false,775,image-keyboard-response,25
true,6,1,2,1,true,z,false,true,0.0-2.0-0.24-0.220-3.220,0,0,0,90,false,stim,false,2,515.3000000007451,1,0,1,52054,task1,620458,false,false,778,image-keyboard-response,26
true,6,1,2,1,true,z,false,true,0.0-2.0-0.24-0.221-3.221,0,0,0,90,false,stim,false,2,477.80000000074506,1,0,1,52054,task1,622444,false,false,781,image-keyboard-response,27
true,6,2,2,1,false,z,true,false,0.0-2.0-0.24-0.222-3.222,0,0,0,68,false,stim,false,0,1319.800000000745,1,0,2,52054,task1,625272,false,false,784,image-keyboard-response,28
true,6,1,2,1,true,z,false,true,0.0-2.0-0.24-0.223-3.223,0,0,0,90,false,stim,false,0,547.8000000007451,1,0,2,52054,task1,627325,false,false,787,image-keyboard-response,29
true,6,2,2,2,true,d,false,true,0.0-2.0-0.24-0.224-3.224,0,0,0,68,false,stim,false,0,1139.699999999255,1,0,0,52054,task1,629975,false,false,790,image-keyboard-response,30
true,6,2,2,2,true,d,false,true,0.0-2.0-0.25-0.225-3.225,0,0,0,68,false,stim,false,0,741.2999999970198,1,0,0,52054,task1,632230,false,false,793,image-keyboard-response,31
true,6,1,2,1,true,z,false,false,0.0-2.0-0.25-0.226-3.226,0,0,0,90,false,stim,false,0,1441.800000000745,1,0,2,52054,task1,635181,false,true,796,image-keyboard-response,32
true,6,2,2,2,true,d,false,true,0.0-2.0-0.25-0.227-3.227,0,0,0,68,false,stim,false,0,553.7999999970198,1,0,0,52054,task1,637246,false,false,799,image-keyboard-response,33
true,6,1,2,1,true,z,false,true,0.0-2.0-0.25-0.228-3.228,0,0,0,90,false,stim,false,0,695.3999999985099,1,0,2,52054,task1,639460,false,false,802,image-keyboard-response,34
true,6,2,2,1,false,z,false,false,0.0-2.0-0.25-0.229-3.229,0,0,0,68,false,stim,true,2,861.8999999985099,1,0,1,52054,task1,641828,false,false,805,image-keyboard-response,35
true,6,1,2,1,true,z,false,true,0.0-2.0-0.25-0.230-3.230,0,0,0,90,false,stim,false,0,414.4000000022352,1,0,2,52054,task1,643753,false,false,808,image-keyboard-response,36
true,6,2,2,2,true,d,false,false,0.0-2.0-0.25-0.231-3.231,0,0,0,68,false,stim,false,0,1074.4000000022352,1,0,0,52054,task1,646337,false,true,811,image-keyboard-response,37
true,6,1,2,1,true,z,false,true,0.0-2.0-0.25-0.232-3.232,0,0,0,90,false,stim,false,2,376.4000000022352,1,0,1,52054,task1,648229,false,false,814,image-keyboard-response,38
true,6,1,2,1,true,z,false,true,0.0-2.0-0.25-0.233-3.233,0,0,0,90,false,stim,false,2,444.79999999701977,1,0,1,52054,task1,650180,false,false,817,image-keyboard-response,39
true,6,1,2,2,false,d,true,false,0.0-2.0-0.26-0.234-3.234,0,0,0,90,false,stim,false,0,1922.199999999255,1,0,0,52054,task1,653613,false,false,820,image-keyboard-response,40
true,6,1,2,1,true,z,false,true,0.0-2.0-0.26-0.235-3.235,0,0,0,90,false,stim,false,0,601.3999999985099,1,0,2,52054,task1,655723,false,false,823,image-keyboard-response,41
true,7,2,2,0,false,q,false,false,0.0-2.0-0.26-0.236-3.236,0,0,0,68,true,stim,true,2,482.80000000074506,1,0,0,52054,task1,657712,false,false,826,image-keyboard-response,1
true,7,0,2,0,true,q,false,true,0.0-2.0-0.26-0.237-3.237,0,0,0,81,false,stim,false,2,758.2999999970198,1,0,0,52054,task1,659975,false,false,829,image-keyboard-response,2
true,7,1,2,2,false,d,false,false,0.0-2.0-0.26-0.238-3.238,0,0,0,90,false,stim,true,1,556.2000000029802,1,0,1,52054,task1,662044,false,false,832,image-keyboard-response,3
true,7,1,2,2,false,d,false,false,0.0-2.0-0.26-0.239-3.239,0,0,0,90,false,stim,true,1,1163.300000000745,1,0,1,52054,task1,664712,false,false,835,image-keyboard-response,4
true,7,2,2,2,true,d,false,true,0.0-2.0-0.26-0.240-3.240,0,0,0,68,false,stim,false,1,512.1999999992549,1,0,1,52054,task1,666731,false,false,838,image-keyboard-response,5
true,7,1,2,0,false,q,false,false,0.0-2.0-0.26-0.241-3.241,0,0,0,90,false,stim,true,1,932.1999999992549,1,0,2,52054,task1,669173,false,false,841,image-keyboard-response,6
true,7,2,2,0,false,q,true,false,0.0-2.0-0.26-0.242-3.242,0,0,0,68,false,stim,false,1,555.8000000007451,1,0,2,52054,task1,671238,false,false,844,image-keyboard-response,7
true,7,0,2,0,true,q,false,true,0.0-2.0-0.27-0.243-3.243,0,0,0,81,false,stim,false,2,469.3999999985099,1,0,0,52054,task1,673220,false,false,847,image-keyboard-response,8
true,7,0,2,0,true,q,false,true,0.0-2.0-0.27-0.244-3.244,0,0,0,81,false,stim,false,1,377.8999999985099,1,0,2,52054,task1,675108,false,false,850,image-keyboard-response,9
true,7,2,2,2,true,d,false,true,0.0-2.0-0.27-0.245-3.245,0,0,0,68,false,stim,false,1,407.1000000014901,1,0,1,52054,task1,677021,false,false,853,image-keyboard-response,10
true,7,0,2,0,true,q,false,true,0.0-2.0-0.27-0.246-3.246,0,0,0,81,false,stim,false,2,851.4000000022352,1,0,0,52054,task1,679387,false,false,856,image-keyboard-response,11
true,7,0,2,0,true,q,false,true,0.0-2.0-0.27-0.247-3.247,0,0,0,81,false,stim,false,2,452.0999999977648,1,0,0,52054,task1,681349,false,false,859,image-keyboard-response,12
true,7,0,2,2,false,d,true,false,0.0-2.0-0.27-0.248-3.248,0,0,0,81,false,stim,false,1,480.20000000298023,1,0,1,52054,task1,683342,false,false,862,image-keyboard-response,13
true,7,0,2,0,true,q,false,true,0.0-2.0-0.27-0.249-3.249,0,0,0,81,false,stim,false,1,646.0,1,0,2,52054,task1,685493,false,false,865,image-keyboard-response,14
true,7,2,2,2,true,d,false,true,0.0-2.0-0.27-0.250-3.250,0,0,0,68,false,stim,false,1,601.1999999992549,1,0,1,52054,task1,687605,false,false,868,image-keyboard-response,15
true,7,0,2,0,true,q,false,true,0.0-2.0-0.27-0.251-3.251,0,0,0,81,false,stim,false,1,429.3999999985099,1,0,2,52054,task1,689546,false,false,871,image-keyboard-response,16
true,7,0,2,2,false,d,true,false,0.0-2.0-0.28-0.252-3.252,0,0,0,81,false,stim,false,1,892.6000000014901,1,0,1,52054,task1,691948,false,false,874,image-keyboard-response,17
true,7,0,2,0,true,q,false,true,0.0-2.0-0.28-0.253-3.253,0,0,0,81,false,stim,false,1,713.2999999970198,1,0,2,52054,task1,694170,false,false,877,image-keyboard-response,18
true,7,2,2,0,false,q,true,false,0.0-2.0-0.28-0.254-3.254,0,0,0,68,false,stim,false,1,837.3999999985099,1,0,2,52054,task1,696521,false,false,880,image-keyboard-response,19
true,7,2,2,0,false,q,false,false,0.0-2.0-0.28-0.255-3.255,0,0,0,68,false,stim,true,2,1413.8999999985099,1,0,0,52054,task1,699442,false,false,883,image-keyboard-response,20
true,7,0,2,2,false,d,true,false,0.0-2.0-0.28-0.256-3.256,0,0,0,81,false,stim,false,1,506.9000000022352,1,0,1,52054,task1,701465,false,false,886,image-keyboard-response,21
true,7,0,2,0,true,q,false,true,0.0-2.0-0.28-0.257-3.257,0,0,0,81,false,stim,false,2,381.9000000022352,1,0,0,52054,task1,703352,false,false,889,image-keyboard-response,22
true,7,2,2,2,true,d,false,true,0.0-2.0-0.28-0.258-3.258,0,0,0,68,false,stim,false,1,516.2000000029802,1,0,1,52054,task1,705373,false,false,892,image-keyboard-response,23
true,7,0,2,0,true,q,false,true,0.0-2.0-0.28-0.259-3.259,0,0,0,81,false,stim,false,1,590.6000000014901,1,0,2,52054,task1,707472,false,false,895,image-keyboard-response,24
true,7,0,2,0,true,q,false,true,0.0-2.0-0.28-0.260-3.260,0,0,0,81,false,stim,false,2,501.1000000014901,1,0,0,52054,task1,709483,false,false,898,image-keyboard-response,25
true,7,0,2,0,true,q,false,true,0.0-2.0-0.29-0.261-3.261,0,0,0,81,false,stim,false,2,627.3999999985099,1,0,0,52054,task1,711622,false,false,901,image-keyboard-response,26
true,7,0,2,0,true,q,false,true,0.0-2.0-0.29-0.262-3.262,0,0,0,81,false,stim,false,1,481.69999999925494,1,0,2,52054,task1,713617,false,false,904,image-keyboard-response,27
true,7,2,2,2,true,d,false,true,0.0-2.0-0.29-0.263-3.263,0,0,0,68,false,stim,false,1,453.4000000022352,1,0,1,52054,task1,715583,false,false,907,image-keyboard-response,28
true,7,0,2,0,true,q,false,true,0.0-2.0-0.29-0.264-3.264,0,0,0,81,false,stim,false,2,493.79999999701977,1,0,0,52054,task1,717589,false,false,910,image-keyboard-response,29
true,7,0,2,0,true,q,false,true,0.0-2.0-0.29-0.265-3.265,0,0,0,81,false,stim,false,1,596.4000000022352,1,0,2,52054,task1,719692,false,false,913,image-keyboard-response,30
true,7,0,2,0,true,q,false,true,0.0-2.0-0.29-0.266-3.266,0,0,0,81,false,stim,false,2,441.0999999977648,1,0,0,52054,task1,721644,false,false,916,image-keyboard-response,31
true,7,0,2,0,true,q,false,true,0.0-2.0-0.29-0.267-3.267,0,0,0,81,false,stim,false,1,912.4000000022352,1,0,2,52054,task1,724066,false,false,919,image-keyboard-response,32
true,7,0,2,2,false,d,true,false,0.0-2.0-0.29-0.268-3.268,0,0,0,81,false,stim,false,1,437.3999999985099,1,0,1,52054,task1,726017,false,false,922,image-keyboard-response,33
true,7,2,2,2,true,d,false,true,0.0-2.0-0.29-0.269-3.269,0,0,0,68,false,stim,false,1,544.4000000022352,1,0,1,52054,task1,728072,false,false,925,image-keyboard-response,34
true,7,0,2,0,true,q,false,true,0.0-2.0-0.30-0.270-3.270,0,0,0,81,false,stim,false,1,563.6999999992549,1,0,2,52054,task1,730144,false,false,928,image-keyboard-response,35
true,7,0,2,2,false,d,true,false,0.0-2.0-0.30-0.271-3.271,0,0,0,81,false,stim,false,1,553.5999999977648,1,0,1,52054,task1,732209,false,false,931,image-keyboard-response,36
true,7,2,2,2,true,d,false,true,0.0-2.0-0.30-0.272-3.272,0,0,0,68,false,stim,false,1,541.5999999977648,1,0,1,52054,task1,734260,false,false,934,image-keyboard-response,37
true,7,0,2,0,true,q,false,true,0.0-2.0-0.30-0.273-3.273,0,0,0,81,false,stim,false,2,980.6999999992549,1,0,0,52054,task1,736748,false,false,937,image-keyboard-response,38
true,7,0,2,0,true,q,false,true,0.0-2.0-0.30-0.274-3.274,0,0,0,81,false,stim,false,2,609.3000000007451,1,0,0,52054,task1,738869,false,false,940,image-keyboard-response,39
true,7,0,2,0,true,q,false,false,0.0-2.0-0.30-0.275-3.275,0,0,0,81,false,stim,false,1,928.0,1,0,2,52054,task1,741305,false,true,943,image-keyboard-response,40
true,7,2,2,2,true,d,false,false,0.0-2.0-0.30-0.276-3.276,0,0,0,68,false,stim,false,1,1161.5,1,0,1,52054,task1,743974,false,true,946,image-keyboard-response,41
true,7,0,2,0,true,q,false,true,0.0-2.0-0.30-0.277-3.277,0,0,0,81,false,stim,false,2,740.5999999977648,1,0,0,52054,task1,746223,false,false,949,image-keyboard-response,42
true,7,1,2,0,false,q,false,false,0.0-2.0-0.30-0.278-3.278,0,0,0,90,false,stim,true,1,1130.800000000745,1,0,2,52054,task1,748862,false,false,952,image-keyboard-response,43
true,8,0,2,2,false,d,false,false,0.0-2.0-0.31-0.279-3.279,0,0,0,81,true,stim,true,0,964.3999999985099,1,0,0,52054,task1,751335,false,false,955,image-keyboard-response,1
true,8,2,2,1,false,z,false,false,0.0-2.0-0.31-0.280-3.280,0,0,0,68,false,stim,true,2,1727.199999999255,1,0,1,52054,task1,754577,false,false,958,image-keyboard-response,2
true,8,1,2,2,false,d,true,false,0.0-2.0-0.31-0.281-3.281,0,0,0,90,false,stim,false,0,1414.5,1,0,0,52054,task1,757502,false,false,961,image-keyboard-response,3
true,8,1,2,1,true,z,false,true,0.0-2.0-0.31-0.282-3.282,0,0,0,90,false,stim,false,2,1263.4000000022352,1,0,1,52054,task1,760276,false,false,964,image-keyboard-response,4
true,8,2,2,2,true,d,false,true,0.0-2.0-0.31-0.283-3.283,0,0,0,68,false,stim,false,0,659.3999999985099,1,0,0,52054,task1,762446,false,false,967,image-keyboard-response,5
true,8,1,2,1,true,z,false,true,0.0-2.0-0.31-0.284-3.284,0,0,0,90,false,stim,false,0,871.3000000007451,1,0,2,52054,task1,764826,false,false,970,image-keyboard-response,6
true,8,1,2,1,true,z,false,true,0.0-2.0-0.31-0.285-3.285,0,0,0,90,false,stim,false,0,395.5,1,0,2,52054,task1,766735,false,false,973,image-keyboard-response,7
true,8,1,2,1,true,z,false,true,0.0-2.0-0.31-0.286-3.286,0,0,0,90,false,stim,false,2,516.2000000029802,1,0,1,52054,task1,768761,false,false,976,image-keyboard-response,8
true,8,2,2,1,false,z,true,false,0.0-2.0-0.31-0.287-3.287,0,0,0,68,false,stim,false,0,678.1000000014901,1,0,2,52054,task1,770948,false,false,979,image-keyboard-response,9
true,8,0,2,1,false,z,false,false,0.0-2.0-0.32-0.288-3.288,0,0,0,81,false,stim,true,0,506.6000000014901,1,0,2,52054,task1,772964,false,false,982,image-keyboard-response,10
true,8,2,2,2,true,d,false,true,0.0-2.0-0.32-0.289-3.289,0,0,0,68,false,stim,false,0,1156.5,1,0,0,52054,task1,775629,false,false,985,image-keyboard-response,11
true,8,1,2,1,true,z,false,true,0.0-2.0-0.32-0.290-3.290,0,0,0,90,false,stim,false,0,578.0999999977648,1,0,2,52054,task1,777722,false,false,988,image-keyboard-response,12
true,8,1,2,1,true,z,false,true,0.0-2.0-0.32-0.291-3.291,0,0,0,90,false,stim,false,0,834.1999999992549,1,0,2,52054,task1,780066,false,false,991,image-keyboard-response,13
true,8,1,2,1,true,z,false,true,0.0-2.0-0.32-0.292-3.292,0,0,0,90,false,stim,false,2,453.3999999985099,1,0,1,52054,task1,782027,false,false,994,image-keyboard-response,14
true,8,1,2,1,true,z,false,true,0.0-2.0-0.32-0.293-3.293,0,0,0,90,false,stim,false,2,434.19999999925494,1,0,1,52054,task1,783977,false,false,997,image-keyboard-response,15
true,8,2,2,2,true,d,false,true,0.0-2.0-0.32-0.294-3.294,0,0,0,68,false,stim,false,0,690.1999999992549,1,0,0,52054,task1,786177,false,false,1000,image-keyboard-response,16
true,8,1,2,1,true,z,false,true,0.0-2.0-0.32-0.295-3.295,0,0,0,90,false,stim,false,2,493.19999999925494,1,0,1,52054,task1,788186,false,false,1003,image-keyboard-response,17
true,8,1,2,2,false,d,true,false,0.0-2.0-0.32-0.296-3.296,0,0,0,90,false,stim,false,0,482.4000000022352,1,0,0,52054,task1,790183,false,false,1006,image-keyboard-response,18
true,8,2,2,1,false,z,false,false,0.0-2.0-0.33-0.297-3.297,0,0,0,68,false,stim,true,2,627.1999999992549,1,0,1,52054,task1,792324,false,false,1009,image-keyboard-response,19
true,8,1,2,2,false,d,true,false,0.0-2.0-0.33-0.298-3.298,0,0,0,90,false,stim,false,0,369.6000000014901,1,0,0,52054,task1,794206,false,false,1012,image-keyboard-response,20
true,8,1,2,1,true,z,false,false,0.0-2.0-0.33-0.299-3.299,0,0,0,90,false,stim,false,2,1032.199999999255,1,0,1,52054,task1,796748,false,true,1015,image-keyboard-response,21
true,8,0,2,1,false,z,false,false,0.0-2.0-0.33-0.300-3.300,0,0,0,81,false,stim,true,0,686.0,1,0,2,52054,task1,798945,false,false,1018,image-keyboard-response,22
true,8,1,2,1,true,z,false,false,0.0-2.0-0.33-0.301-3.301,0,0,0,90,false,stim,false,0,733.6000000014901,1,0,2,52054,task1,801188,false,true,1021,image-keyboard-response,23
true,8,2,2,1,false,z,false,false,0.0-2.0-0.33-0.302-3.302,0,0,0,68,false,stim,true,2,775.4000000022352,1,0,1,52054,task1,803476,false,false,1024,image-keyboard-response,24
true,8,2,2,1,false,z,true,false,0.0-2.0-0.33-0.303-3.303,0,0,0,68,false,stim,false,0,1017.1999999992549,1,0,2,52054,task1,806006,false,false,1027,image-keyboard-response,25
true,8,2,2,2,true,d,false,true,0.0-2.0-0.33-0.304-3.304,0,0,0,68,false,stim,false,0,1257.3999999985099,1,0,0,52054,task1,808772,false,false,1030,image-keyboard-response,26
true,8,2,2,2,true,d,false,true,0.0-2.0-0.33-0.305-3.305,0,0,0,68,false,stim,false,0,546.9000000022352,1,0,0,52054,task1,810830,false,false,1033,image-keyboard-response,27
true,8,2,2,1,false,z,false,false,0.0-2.0-0.34-0.306-3.306,0,0,0,68,false,stim,true,2,496.19999999925494,1,0,1,52054,task1,812840,false,false,1036,image-keyboard-response,28
true,8,0,2,1,false,z,false,false,0.0-2.0-0.34-0.307-3.307,0,0,0,81,false,stim,true,0,2907.60000000149,1,0,2,52054,task1,817261,false,false,1039,image-keyboard-response,29
true,8,1,2,1,true,z,false,true,0.0-2.0-0.34-0.308-3.308,0,0,0,90,false,stim,false,2,565.6999999992549,1,0,1,52054,task1,819334,false,false,1042,image-keyboard-response,30
true,8,1,2,1,true,z,false,true,0.0-2.0-0.34-0.309-3.309,0,0,0,90,false,stim,false,0,1346.699999999255,1,0,2,52054,task1,822194,false,false,1045,image-keyboard-response,31
true,8,2,2,2,true,d,false,false,0.0-2.0-0.34-0.310-3.310,0,0,0,68,false,stim,false,0,2270.199999999255,1,0,0,52054,task1,825976,false,true,1048,image-keyboard-response,32
true,8,1,2,1,true,z,false,false,0.0-2.0-0.34-0.311-3.311,0,0,0,90,false,stim,false,2,413.80000000074506,1,0,1,52054,task1,827901,false,true,1051,image-keyboard-response,33
true,8,1,2,2,false,d,true,false,0.0-2.0-0.34-0.312-3.312,0,0,0,90,false,stim,false,0,765.5999999977648,1,0,0,52054,task1,830172,false,false,1054,image-keyboard-response,34
true,8,2,2,1,false,z,true,false,0.0-2.0-0.34-0.313-3.313,0,0,0,68,false,stim,false,0,910.3000000007451,1,0,2,52054,task1,832593,false,false,1057,image-keyboard-response,35
true,8,2,2,2,true,d,false,false,0.0-2.0-0.34-0.314-3.314,0,0,0,68,false,stim,false,0,577.1000000014901,1,0,0,52054,task1,834678,false,true,1060,image-keyboard-response,36
true,8,1,2,1,true,z,false,false,0.0-2.0-0.35-0.315-3.315,0,0,0,90,false,stim,false,0,796.2000000029802,1,0,2,52054,task1,836985,false,true,1063,image-keyboard-response,37
true,8,0,2,1,false,z,false,false,0.0-2.0-0.35-0.316-3.316,0,0,0,81,false,stim,true,0,442.4000000022352,1,0,2,52054,task1,838937,false,false,1066,image-keyboard-response,38
true,8,1,2,2,false,d,true,false,0.0-2.0-0.35-0.317-3.317,0,0,0,90,false,stim,false,0,2469.800000000745,1,0,0,52054,task1,842921,false,false,1069,image-keyboard-response,39
true,8,1,2,1,true,z,false,true,0.0-2.0-0.35-0.318-3.318,0,0,0,90,false,stim,false,2,1104.1000000014901,1,0,1,52054,task1,845539,false,false,1072,image-keyboard-response,40
true,8,1,2,1,true,z,false,true,0.0-2.0-0.35-0.319-3.319,0,0,0,90,false,stim,false,2,399.4000000022352,1,0,1,52054,task1,847448,false,false,1075,image-keyboard-response,41
true,9,2,2,0,false,q,false,false,0.0-2.0-0.35-0.320-3.320,0,0,0,68,true,stim,true,2,1183.5,1,0,0,52054,task1,850139,false,false,1078,image-keyboard-response,1
true,9,1,2,0,false,q,false,false,0.0-2.0-0.35-0.321-3.321,0,0,0,90,false,stim,true,1,754.0,1,0,2,52054,task1,852404,false,false,1081,image-keyboard-response,2
true,9,1,2,0,false,q,true,false,0.0-2.0-0.35-0.322-3.322,0,0,0,90,false,stim,false,2,555.8000000007451,1,0,0,52054,task1,854468,false,false,1084,image-keyboard-response,3
true,9,1,2,2,false,d,false,false,0.0-2.0-0.35-0.323-3.323,0,0,0,90,false,stim,true,1,703.1000000014901,1,0,1,52054,task1,856680,false,false,1087,image-keyboard-response,4
true,9,0,2,0,true,q,false,true,0.0-2.0-0.36-0.324-3.324,0,0,0,81,false,stim,false,2,909.9000000022352,1,0,0,52054,task1,859101,false,false,1090,image-keyboard-response,5
true,9,0,2,0,true,q,false,true,0.0-2.0-0.36-0.325-3.325,0,0,0,81,false,stim,false,1,606.4000000022352,1,0,2,52054,task1,861218,false,false,1093,image-keyboard-response,6
true,9,1,2,2,false,d,false,false,0.0-2.0-0.36-0.326-3.326,0,0,0,90,false,stim,true,1,1301.5,1,0,1,52054,task1,864025,false,false,1096,image-keyboard-response,7
true,9,2,2,2,true,d,false,true,0.0-2.0-0.36-0.327-3.327,0,0,0,68,false,stim,false,1,790.1999999992549,1,0,1,52054,task1,866331,false,false,1099,image-keyboard-response,8
true,9,0,2,0,true,q,false,true,0.0-2.0-0.36-0.328-3.328,0,0,0,81,false,stim,false,2,610.1999999992549,1,0,0,52054,task1,868456,false,false,1102,image-keyboard-response,9
true,9,0,2,2,false,d,true,true,0.0-2.0-0.36-0.329-3.329,0,0,0,81,false,stim,false,1,419.0,1,0,1,52054,task1,870382,false,true,1105,image-keyboard-response,10
true,9,2,2,0,false,q,true,false,0.0-2.0-0.36-0.330-3.330,0,0,0,68,false,stim,false,1,721.8999999985099,1,0,2,52054,task1,872609,false,false,1108,image-keyboard-response,11
true,9,0,2,0,true,q,false,false,0.0-2.0-0.36-0.331-3.331,0,0,0,81,false,stim,false,2,438.1000000014901,1,0,0,52054,task1,874555,false,true,1111,image-keyboard-response,12
true,9,0,2,0,true,q,false,true,0.0-2.0-0.36-0.332-3.332,0,0,0,81,false,stim,false,1,267.0999999977648,1,0,2,52054,task1,876328,false,false,1114,image-keyboard-response,13
true,9,2,2,0,false,q,false,false,0.0-2.0-0.37-0.333-3.333,0,0,0,68,false,stim,true,2,583.1999999992549,1,0,0,52054,task1,878420,false,false,1117,image-keyboard-response,14
true,9,0,2,2,false,d,true,true,0.0-2.0-0.37-0.334-3.334,0,0,0,81,false,stim,false,1,572.6999999992549,1,0,1,52054,task1,880503,false,true,1120,image-keyboard-response,15
true,9,1,2,0,false,q,false,false,0.0-2.0-0.37-0.335-3.335,0,0,0,90,false,stim,true,1,1052.8999999985099,1,0,2,52054,task1,883067,false,false,1123,image-keyboard-response,16
true,9,0,2,2,false,d,true,false,0.0-2.0-0.37-0.336-3.336,0,0,0,81,false,stim,false,1,750.8000000007451,1,0,1,52054,task1,885330,false,false,1126,image-keyboard-response,17
true,9,0,2,0,true,q,false,true,0.0-2.0-0.37-0.337-3.337,0,0,0,81,false,stim,false,1,798.2000000029802,1,0,2,52054,task1,887644,false,false,1129,image-keyboard-response,18
true,9,0,2,2,false,d,true,false,0.0-2.0-0.37-0.338-3.338,0,0,0,81,false,stim,false,1,852.3999999985099,1,0,1,52054,task1,890005,false,false,1132,image-keyboard-response,19
true,9,1,2,0,false,q,false,false,0.0-2.0-0.37-0.339-3.339,0,0,0,90,false,stim,true,1,443.0,1,0,2,52054,task1,891959,false,false,1135,image-keyboard-response,20
true,9,2,2,0,false,q,false,false,0.0-2.0-0.37-0.340-3.340,0,0,0,68,false,stim,true,2,620.0,1,0,0,52054,task1,894084,false,false,1138,image-keyboard-response,21
true,9,0,2,0,true,q,false,true,0.0-2.0-0.37-0.341-3.341,0,0,0,81,false,stim,false,2,1051.4000000022352,1,0,0,52054,task1,896649,false,false,1141,image-keyboard-response,22
true,9,0,2,2,false,d,true,false,0.0-2.0-0.38-0.342-3.342,0,0,0,81,false,stim,false,1,652.2999999970198,1,0,1,52054,task1,898814,false,false,1144,image-keyboard-response,23
true,9,0,2,0,true,q,false,true,0.0-2.0-0.38-0.343-3.343,0,0,0,81,false,stim,false,1,1198.800000000745,1,0,2,52054,task1,901527,false,false,1147,image-keyboard-response,24
true,9,0,2,0,true,q,false,true,0.0-2.0-0.38-0.344-3.344,0,0,0,81,false,stim,false,2,418.30000000074506,1,0,0,52054,task1,903459,false,false,1150,image-keyboard-response,25
true,9,0,2,0,true,q,false,true,0.0-2.0-0.38-0.345-3.345,0,0,0,81,false,stim,false,1,478.80000000074506,1,0,2,52054,task1,905444,false,false,1153,image-keyboard-response,26
true,9,0,2,2,false,d,true,false,0.0-2.0-0.38-0.346-3.346,0,0,0,81,false,stim,false,1,603.2999999970198,1,0,1,52054,task1,907557,false,false,1156,image-keyboard-response,27
true,9,0,2,0,true,q,false,true,0.0-2.0-0.38-0.347-3.347,0,0,0,81,false,stim,false,2,1052.1000000014901,1,0,0,52054,task1,910116,false,false,1159,image-keyboard-response,28
true,9,0,2,0,true,q,false,false,0.0-2.0-0.38-0.348-3.348,0,0,0,81,false,stim,false,1,377.80000000074506,1,0,2,52054,task1,912005,false,true,1162,image-keyboard-response,29
true,9,1,2,0,false,q,true,false,0.0-2.0-0.38-0.349-3.349,0,0,0,90,false,stim,false,2,532.0,1,0,0,52054,task1,914052,false,false,1165,image-keyboard-response,30
true,9,0,2,2,false,d,true,false,0.0-2.0-0.38-0.350-3.350,0,0,0,81,false,stim,false,1,1119.9000000022352,1,0,1,52054,task1,916682,false,false,1168,image-keyboard-response,31
true,9,1,2,2,false,d,false,false,0.0-2.0-0.39-0.351-3.351,0,0,0,90,false,stim,true,1,945.3000000007451,1,0,1,52054,task1,919133,false,false,1171,image-keyboard-response,32
true,9,2,2,2,true,d,false,true,0.0-2.0-0.39-0.352-3.352,0,0,0,68,false,stim,false,1,431.30000000074506,1,0,1,52054,task1,921071,false,false,1174,image-keyboard-response,33
true,9,0,2,0,true,q,false,true,0.0-2.0-0.39-0.353-3.353,0,0,0,81,false,stim,false,2,523.8000000007451,1,0,0,52054,task1,923103,false,false,1177,image-keyboard-response,34
true,9,0,2,0,true,q,false,true,0.0-2.0-0.39-0.354-3.354,0,0,0,81,false,stim,false,1,560.6000000014901,1,0,2,52054,task1,925174,false,false,1180,image-keyboard-response,35
true,9,0,2,0,true,q,false,true,0.0-2.0-0.39-0.355-3.355,0,0,0,81,false,stim,false,1,381.0,1,0,2,52054,task1,927064,false,false,1183,image-keyboard-response,36
true,9,2,2,2,true,d,false,true,0.0-2.0-0.39-0.356-3.356,0,0,0,68,false,stim,false,1,458.19999999925494,1,0,1,52054,task1,929034,false,false,1186,image-keyboard-response,37
true,9,0,2,0,true,q,false,true,0.0-2.0-0.39-0.357-3.357,0,0,0,81,false,stim,false,2,339.3999999985099,1,0,0,52054,task1,930884,false,false,1189,image-keyboard-response,38
true,9,0,2,0,true,q,false,true,0.0-2.0-0.39-0.358-3.358,0,0,0,81,false,stim,false,1,875.2999999970198,1,0,2,52054,task1,933266,false,false,1192,image-keyboard-response,39
true,9,0,2,0,true,q,false,false,0.0-2.0-0.39-0.359-3.359,0,0,0,81,false,stim,false,2,956.0999999977648,1,0,0,52054,task1,935729,false,true,1195,image-keyboard-response,40
true,9,2,2,2,true,d,false,true,0.0-2.0-0.40-0.360-3.360,0,0,0,68,false,stim,false,1,828.3999999985099,1,0,1,52054,task1,938067,false,false,1198,image-keyboard-response,41
true,9,2,2,2,true,d,false,true,0.0-2.0-0.40-0.361-3.361,0,0,0,68,false,stim,false,1,659.3000000007451,1,0,1,52054,task1,940243,false,false,1201,image-keyboard-response,42
true,9,2,2,2,true,d,false,true,0.0-2.0-0.40-0.362-3.362,0,0,0,68,false,stim,false,1,383.4000000022352,1,0,1,52054,task1,942139,false,false,1204,image-keyboard-response,43
true,9,0,2,0,true,q,false,true,0.0-2.0-0.40-0.363-3.363,0,0,0,81,false,stim,false,1,654.3999999985099,1,0,2,52054,task1,944304,false,false,1207,image-keyboard-response,44
true,9,0,2,0,true,q,false,true,0.0-2.0-0.40-0.364-3.364,0,0,0,81,false,stim,false,2,587.0,1,0,0,52054,task1,946397,false,false,1210,image-keyboard-response,45
true,10,0,2,2,false,d,false,false,0.0-2.0-0.40-0.365-3.365,0,0,0,81,true,stim,true,0,446.9000000022352,1,0,0,52054,task1,948353,false,false,1213,image-keyboard-response,1
true,10,0,2,2,false,d,false,false,0.0-2.0-0.40-0.366-3.366,0,0,0,81,false,stim,true,0,422.1000000014901,1,0,0,52054,task1,950291,false,false,1216,image-keyboard-response,2
true,10,2,2,1,false,z,true,false,0.0-2.0-0.40-0.367-3.367,0,0,0,68,false,stim,false,0,791.3000000007451,1,0,2,52054,task1,952594,false,false,1219,image-keyboard-response,3
true,10,0,2,1,false,z,false,false,0.0-2.0-0.40-0.368-3.368,0,0,0,81,false,stim,true,0,582.1999999992549,1,0,2,52054,task1,954691,false,false,1222,image-keyboard-response,4
true,10,2,2,1,false,z,false,false,0.0-2.0-0.41-0.369-3.369,0,0,0,68,false,stim,true,2,1040.7999999970198,1,0,1,52054,task1,957246,false,false,1225,image-keyboard-response,5
true,10,1,2,1,true,z,false,true,0.0-2.0-0.41-0.370-3.370,0,0,0,90,false,stim,false,0,372.8999999985099,1,0,2,52054,task1,959130,false,false,1228,image-keyboard-response,6
true,10,1,2,2,false,d,true,false,0.0-2.0-0.41-0.371-3.371,0,0,0,90,false,stim,false,0,422.6000000014901,1,0,0,52054,task1,961063,false,false,1231,image-keyboard-response,7
true,10,0,2,2,false,d,false,false,0.0-2.0-0.41-0.372-3.372,0,0,0,81,false,stim,true,0,453.3999999985099,1,0,0,52054,task1,963028,false,false,1234,image-keyboard-response,8
true,10,1,2,1,true,z,false,true,0.0-2.0-0.41-0.373-3.373,0,0,0,90,false,stim,false,0,1580.199999999255,1,0,2,52054,task1,966119,false,false,1237,image-keyboard-response,9
true,10,2,2,2,true,d,false,true,0.0-2.0-0.41-0.374-3.374,0,0,0,68,false,stim,false,0,469.19999999925494,1,0,0,52054,task1,968094,false,false,1240,image-keyboard-response,10
true,10,2,2,1,false,z,true,false,0.0-2.0-0.41-0.375-3.375,0,0,0,68,false,stim,false,0,1525.3999999985099,1,0,2,52054,task1,971131,false,false,1243,image-keyboard-response,11
true,10,1,2,1,true,z,false,true,0.0-2.0-0.41-0.376-3.376,0,0,0,90,false,stim,false,2,748.1000000014901,1,0,1,52054,task1,973386,false,false,1246,image-keyboard-response,12
true,10,1,2,1,true,z,false,true,0.0-2.0-0.41-0.377-3.377,0,0,0,90,false,stim,false,2,797.5,1,0,1,52054,task1,975693,false,false,1249,image-keyboard-response,13
true,10,0,2,1,false,z,false,false,0.0-2.0-0.42-0.378-3.378,0,0,0,81,false,stim,true,0,1286.7000000029802,1,0,2,52054,task1,978492,false,false,1252,image-keyboard-response,14
true,10,1,2,1,true,z,false,true,0.0-2.0-0.42-0.379-3.379,0,0,0,90,false,stim,false,2,633.4000000022352,1,0,1,52054,task1,980636,false,false,1255,image-keyboard-response,15
true,10,1,2,1,true,z,false,false,0.0-2.0-0.42-0.380-3.380,0,0,0,90,false,stim,false,2,504.30000000074506,1,0,1,52054,task1,982651,false,true,1258,image-keyboard-response,16
true,10,2,2,2,true,d,false,true,0.0-2.0-0.42-0.381-3.381,0,0,0,68,false,stim,false,0,1522.5,1,0,0,52054,task1,985687,false,false,1261,image-keyboard-response,17
true,10,1,2,1,true,z,false,true,0.0-2.0-0.42-0.382-3.382,0,0,0,90,false,stim,false,0,641.6000000014901,1,0,2,52054,task1,987839,false,false,1264,image-keyboard-response,18
true,10,2,2,2,true,d,false,true,0.0-2.0-0.42-0.383-3.383,0,0,0,68,false,stim,false,0,486.70000000298023,1,0,0,52054,task1,989840,false,false,1267,image-keyboard-response,19
true,10,2,2,2,true,d,false,true,0.0-2.0-0.42-0.384-3.384,0,0,0,68,false,stim,false,0,501.5,1,0,0,52054,task1,991857,false,false,1270,image-keyboard-response,20
true,10,1,2,1,true,z,false,true,0.0-2.0-0.42-0.385-3.385,0,0,0,90,false,stim,false,0,634.0999999977648,1,0,2,52054,task1,994003,false,false,1273,image-keyboard-response,21
true,10,2,2,1,false,z,false,false,0.0-2.0-0.42-0.386-3.386,0,0,0,68,false,stim,true,2,899.5,1,0,1,52054,task1,996413,false,false,1276,image-keyboard-response,22
true,10,1,2,2,false,d,true,false,0.0-2.0-0.43-0.387-3.387,0,0,0,90,false,stim,false,0,831.6999999992549,1,0,0,52054,task1,998757,false,false,1279,image-keyboard-response,23
true,10,1,2,1,true,z,false,true,0.0-2.0-0.43-0.388-3.388,0,0,0,90,false,stim,false,0,1382.6000000014901,1,0,2,52054,task1,1001650,false,false,1282,image-keyboard-response,24
true,10,0,2,1,false,z,true,false,0.0-2.0-0.43-0.389-3.389,0,0,0,81,false,stim,false,2,818.6999999992549,1,0,1,52054,task1,1003982,false,false,1285,image-keyboard-response,25
true,10,2,2,2,true,d,false,true,0.0-2.0-0.43-0.390-3.390,0,0,0,68,false,stim,false,0,1892.1000000014901,1,0,0,52054,task1,1007385,false,false,1288,image-keyboard-response,26
true,10,1,2,1,true,z,false,true,0.0-2.0-0.43-0.391-3.391,0,0,0,90,false,stim,false,2,718.6999999992549,1,0,1,52054,task1,1009616,false,false,1291,image-keyboard-response,27
true,10,0,2,1,false,z,false,false,0.0-2.0-0.43-0.392-3.392,0,0,0,81,false,stim,true,0,771.2000000029802,1,0,2,52054,task1,1011897,false,false,1294,image-keyboard-response,28
true,10,2,2,2,true,d,false,true,0.0-2.0-0.43-0.393-3.393,0,0,0,68,false,stim,false,0,777.3000000007451,1,0,0,52054,task1,1014182,false,false,1297,image-keyboard-response,29
true,10,1,2,1,true,z,false,false,0.0-2.0-0.43-0.394-3.394,0,0,0,90,false,stim,false,2,1613.3999999985099,1,0,1,52054,task1,1017309,false,true,1300,image-keyboard-response,30
true,10,0,2,1,false,z,false,false,0.0-2.0-0.43-0.395-3.395,0,0,0,81,false,stim,true,0,1097.9000000022352,1,0,2,52054,task1,1019922,false,false,1303,image-keyboard-response,31
true,10,1,2,1,true,z,false,true,0.0-2.0-0.44-0.396-3.396,0,0,0,90,false,stim,false,0,1020.0999999977648,1,0,2,52054,task1,1022455,false,false,1306,image-keyboard-response,32
true,10,1,2,1,true,z,false,true,0.0-2.0-0.44-0.397-3.397,0,0,0,90,false,stim,false,0,504.5,1,0,2,52054,task1,1024467,false,false,1309,image-keyboard-response,33
true,10,2,2,2,true,d,false,true,0.0-2.0-0.44-0.398-3.398,0,0,0,68,false,stim,false,0,777.1999999992549,1,0,0,52054,task1,1026755,false,false,1312,image-keyboard-response,34
true,10,2,2,2,true,d,false,true,0.0-2.0-0.44-0.399-3.399,0,0,0,68,false,stim,false,0,1142.0,1,0,0,52054,task1,1029402,false,false,1315,image-keyboard-response,35
true,10,1,2,1,true,z,false,false,0.0-2.0-0.44-0.400-3.400,0,0,0,90,false,stim,false,2,1174.699999999255,1,0,1,52054,task1,1032087,false,true,1318,image-keyboard-response,36
true,10,0,2,1,false,z,true,false,0.0-2.0-0.44-0.401-3.401,0,0,0,81,false,stim,false,2,1606.7000000029802,1,0,1,52054,task1,1035205,false,false,1321,image-keyboard-response,37
true,10,2,2,2,true,d,false,true,0.0-2.0-0.44-0.402-3.402,0,0,0,68,false,stim,false,0,1160.300000000745,1,0,0,52054,task1,1037874,false,false,1324,image-keyboard-response,38
true,10,1,2,1,true,z,false,true,0.0-2.0-0.44-0.403-3.403,0,0,0,90,false,stim,false,0,599.1999999992549,1,0,2,52054,task1,1039982,false,false,1327,image-keyboard-response,39
true,10,2,2,1,false,z,false,false,0.0-2.0-0.44-0.404-3.404,0,0,0,68,false,stim,true,2,741.0,1,0,1,52054,task1,1042237,false,false,1330,image-keyboard-response,40
true,10,1,2,2,false,d,true,false,0.0-2.0-0.45-0.405-3.405,0,0,0,90,false,stim,false,0,1452.800000000745,1,0,0,52054,task1,1045200,false,false,1333,image-keyboard-response,41
true,10,1,2,1,true,z,false,true,0.0-2.0-0.45-0.406-3.406,0,0,0,90,false,stim,false,0,1246.3999999985099,1,0,2,52054,task1,1047958,false,false,1336,image-keyboard-response,42
true,10,1,2,1,true,z,false,true,0.0-2.0-0.45-0.407-3.407,0,0,0,90,false,stim,false,2,461.5,1,0,1,52054,task1,1049937,false,false,1339,image-keyboard-response,43
true,11,1,1,0,false,q,true,false,0.0-2.0-0.45-0.408-3.408,0,0,0,90,true,stim,false,2,357.9000000022352,1,0,0,52054,task1,1051805,false,false,1342,image-keyboard-response,1
true,11,1,1,2,false,d,false,false,0.0-2.0-0.45-0.409-3.409,0,0,0,90,false,stim,true,1,443.80000000074506,1,0,2,52054,task1,1053757,false,false,1345,image-keyboard-response,2
true,11,1,1,0,false,q,true,false,0.0-2.0-0.45-0.410-3.410,0,0,0,90,false,stim,false,2,690.5,1,0,0,52054,task1,1055958,false,false,1348,image-keyboard-response,3
true,11,1,1,2,false,d,false,false,0.0-2.0-0.45-0.411-3.411,0,0,0,90,false,stim,true,1,700.6999999992549,1,0,1,52054,task1,1058169,false,false,1351,image-keyboard-response,4
true,11,0,1,2,false,d,true,false,0.0-2.0-0.45-0.412-3.412,0,0,0,81,false,stim,false,1,617.4000000022352,1,0,1,52054,task1,1060292,false,false,1354,image-keyboard-response,5
true,11,2,1,2,true,d,false,true,0.0-2.0-0.45-0.413-3.413,0,0,0,68,false,stim,false,1,1149.7999999970198,1,0,2,52054,task1,1062950,false,false,1357,image-keyboard-response,6
true,11,1,1,2,false,d,false,false,0.0-2.0-0.46-0.414-3.414,0,0,0,90,false,stim,true,1,666.1999999992549,1,0,1,52054,task1,1065130,false,false,1360,image-keyboard-response,7
true,11,2,1,2,true,d,false,true,0.0-2.0-0.46-0.415-3.415,0,0,0,68,false,stim,false,1,1268.0,1,0,1,52054,task1,1067910,false,false,1363,image-keyboard-response,8
true,11,2,1,2,true,d,false,true,0.0-2.0-0.46-0.416-3.416,0,0,0,68,false,stim,false,1,539.1999999992549,1,0,2,52054,task1,1069965,false,false,1366,image-keyboard-response,9
true,11,2,1,2,true,d,false,true,0.0-2.0-0.46-0.417-3.417,0,0,0,68,false,stim,false,1,499.79999999701977,1,0,2,52054,task1,1071978,false,false,1369,image-keyboard-response,10
true,11,2,1,0,false,q,false,false,0.0-2.0-0.46-0.418-3.418,0,0,0,68,false,stim,true,2,2161.0,1,0,0,52054,task1,1075654,false,false,1372,image-keyboard-response,11
true,11,0,1,0,true,q,false,true,0.0-2.0-0.46-0.419-3.419,0,0,0,81,false,stim,false,2,511.1000000014901,1,0,0,52054,task1,1077678,false,false,1375,image-keyboard-response,12
true,11,2,1,2,true,d,false,true,0.0-2.0-0.46-0.420-3.420,0,0,0,68,false,stim,false,1,677.5999999977648,1,0,2,52054,task1,1079866,false,false,1378,image-keyboard-response,13
true,11,0,1,0,true,q,false,true,0.0-2.0-0.46-0.421-3.421,0,0,0,81,false,stim,false,2,610.3999999985099,1,0,0,52054,task1,1081991,false,false,1381,image-keyboard-response,14
true,11,2,1,2,true,d,false,true,0.0-2.0-0.46-0.422-3.422,0,0,0,68,false,stim,false,1,572.3000000007451,1,0,1,52054,task1,1084074,false,false,1384,image-keyboard-response,15
true,11,0,1,0,true,q,false,true,0.0-2.0-0.47-0.423-3.423,0,0,0,81,false,stim,false,2,728.8999999985099,1,0,0,52054,task1,1086312,false,false,1387,image-keyboard-response,16
true,11,2,1,2,true,d,false,true,0.0-2.0-0.47-0.424-3.424,0,0,0,68,false,stim,false,1,1140.0999999977648,1,0,2,52054,task1,1088960,false,false,1390,image-keyboard-response,17
true,11,2,1,2,true,d,false,true,0.0-2.0-0.47-0.425-3.425,0,0,0,68,false,stim,false,1,697.5,1,0,2,52054,task1,1091170,false,false,1393,image-keyboard-response,18
true,11,2,1,2,true,d,false,false,0.0-2.0-0.47-0.426-3.426,0,0,0,68,false,stim,false,1,910.8000000007451,1,0,1,52054,task1,1093586,false,true,1396,image-keyboard-response,19
true,11,0,1,0,true,q,false,true,0.0-2.0-0.47-0.427-3.427,0,0,0,81,false,stim,false,2,428.19999999925494,1,0,0,52054,task1,1095528,false,false,1399,image-keyboard-response,20
true,11,2,1,2,true,d,false,true,0.0-2.0-0.47-0.428-3.428,0,0,0,68,false,stim,false,1,900.5,1,0,1,52054,task1,1097945,false,false,1402,image-keyboard-response,21
true,11,2,1,2,true,d,false,true,0.0-2.0-0.47-0.429-3.429,0,0,0,68,false,stim,false,1,895.7999999970198,1,0,2,52054,task1,1100356,false,false,1405,image-keyboard-response,22
true,11,0,1,0,true,q,false,true,0.0-2.0-0.47-0.430-3.430,0,0,0,81,false,stim,false,2,526.8999999985099,1,0,0,52054,task1,1102394,false,false,1408,image-keyboard-response,23
true,11,2,1,2,true,d,false,true,0.0-2.0-0.47-0.431-3.431,0,0,0,68,false,stim,false,1,774.3000000007451,1,0,1,52054,task1,1104683,false,false,1411,image-keyboard-response,24
true,11,2,1,2,true,d,false,true,0.0-2.0-0.48-0.432-3.432,0,0,0,68,false,stim,false,1,665.1999999992549,1,0,1,52054,task1,1106862,false,false,1414,image-keyboard-response,25
true,11,2,1,2,true,d,false,true,0.0-2.0-0.48-0.433-3.433,0,0,0,68,false,stim,false,1,971.3000000007451,1,0,2,52054,task1,1109348,false,false,1417,image-keyboard-response,26
true,11,2,1,2,true,d,false,true,0.0-2.0-0.48-0.434-3.434,0,0,0,68,false,stim,false,1,934.2999999970198,1,0,2,52054,task1,1111793,false,false,1420,image-keyboard-response,27
true,11,0,1,0,true,q,false,true,0.0-2.0-0.48-0.435-3.435,0,0,0,81,false,stim,false,2,1039.5,1,0,0,52054,task1,1114344,false,false,1423,image-keyboard-response,28
true,11,2,1,2,true,d,false,true,0.0-2.0-0.48-0.436-3.436,0,0,0,68,false,stim,false,1,1328.4000000022352,1,0,1,52054,task1,1117184,false,false,1426,image-keyboard-response,29
true,11,0,1,0,true,q,false,true,0.0-2.0-0.48-0.437-3.437,0,0,0,81,false,stim,false,2,1288.300000000745,1,0,0,52054,task1,1119986,false,false,1429,image-keyboard-response,30
true,11,0,1,0,true,q,false,true,0.0-2.0-0.48-0.438-3.438,0,0,0,81,false,stim,false,2,927.5,1,0,0,52054,task1,1122428,false,false,1432,image-keyboard-response,31
true,11,2,1,2,true,d,false,true,0.0-2.0-0.48-0.439-3.439,0,0,0,68,false,stim,false,1,1656.5,1,0,1,52054,task1,1125600,false,false,1435,image-keyboard-response,32
true,11,0,1,2,false,d,true,false,0.0-2.0-0.48-0.440-3.440,0,0,0,81,false,stim,false,1,1035.7999999970198,1,0,2,52054,task1,1128146,false,false,1438,image-keyboard-response,33
true,11,0,1,0,true,q,false,true,0.0-2.0-0.49-0.441-3.441,0,0,0,81,false,stim,false,2,837.2000000029802,1,0,0,52054,task1,1130497,false,false,1441,image-keyboard-response,34
true,11,2,1,2,true,d,false,true,0.0-2.0-0.49-0.442-3.442,0,0,0,68,false,stim,false,1,567.2000000029802,1,0,1,52054,task1,1132579,false,false,1444,image-keyboard-response,35
true,11,2,1,2,true,d,false,true,0.0-2.0-0.49-0.443-3.443,0,0,0,68,false,stim,false,1,529.0,1,0,2,52054,task1,1134617,false,false,1447,image-keyboard-response,36
true,11,2,1,2,true,d,false,true,0.0-2.0-0.49-0.444-3.444,0,0,0,68,false,stim,false,1,626.6999999992549,1,0,1,52054,task1,1136749,false,false,1450,image-keyboard-response,37
true,11,2,1,2,true,d,false,true,0.0-2.0-0.49-0.445-3.445,0,0,0,68,false,stim,false,1,1012.8000000007451,1,0,2,52054,task1,1139274,false,false,1453,image-keyboard-response,38
true,11,2,1,2,true,d,false,true,0.0-2.0-0.49-0.446-3.446,0,0,0,68,false,stim,false,1,1696.3999999985099,1,0,2,52054,task1,1142482,false,false,1456,image-keyboard-response,39
true,11,0,1,0,true,q,false,true,0.0-2.0-0.49-0.447-3.447,0,0,0,81,false,stim,false,2,701.1000000014901,1,0,0,52054,task1,1144695,false,false,1459,image-keyboard-response,40
true,11,0,1,0,true,q,false,true,0.0-2.0-0.49-0.448-3.448,0,0,0,81,false,stim,false,2,641.4000000022352,1,0,0,52054,task1,1146845,false,false,1462,image-keyboard-response,41
true,11,2,1,2,true,d,false,true,0.0-2.0-0.49-0.449-3.449,0,0,0,68,false,stim,false,1,1600.800000000745,1,0,1,52054,task1,1149958,false,false,1465,image-keyboard-response,42
true,11,2,1,2,true,d,false,true,0.0-2.0-0.50-0.450-3.450,0,0,0,68,false,stim,false,1,576.0,1,0,1,52054,task1,1152041,false,false,1468,image-keyboard-response,43
true,11,2,1,2,true,d,false,true,0.0-2.0-0.50-0.451-3.451,0,0,0,68,false,stim,false,1,1028.699999999255,1,0,2,52054,task1,1154578,false,false,1471,image-keyboard-response,44
true,11,2,1,2,true,d,false,true,0.0-2.0-0.50-0.452-3.452,0,0,0,68,false,stim,false,1,552.2999999970198,1,0,2,52054,task1,1156641,false,false,1474,image-keyboard-response,45
true,12,2,1,0,false,q,false,false,0.0-2.0-0.50-0.453-3.453,0,0,0,68,true,stim,true,2,422.69999999925494,1,0,1,52054,task1,1158577,false,false,1477,image-keyboard-response,1
true,12,0,1,2,false,d,false,false,0.0-2.0-0.50-0.454-3.454,0,0,0,81,false,stim,true,0,680.5999999977648,1,0,0,52054,task1,1160769,false,false,1480,image-keyboard-response,2
true,12,1,1,0,false,q,true,false,0.0-2.0-0.50-0.455-3.455,0,0,0,90,false,stim,false,2,553.6999999992549,1,0,1,52054,task1,1162834,false,false,1483,image-keyboard-response,3
true,12,0,1,1,false,z,true,false,0.0-2.0-0.50-0.456-3.456,0,0,0,81,false,stim,false,2,915.8000000007451,1,0,2,52054,task1,1165262,false,false,1486,image-keyboard-response,4
true,12,0,1,2,false,d,false,false,0.0-2.0-0.50-0.457-3.457,0,0,0,81,false,stim,true,0,1472.2000000029802,1,0,0,52054,task1,1168250,false,false,1489,image-keyboard-response,5
true,12,2,1,2,true,d,false,true,0.0-2.0-0.50-0.458-3.458,0,0,0,68,false,stim,false,0,518.1999999992549,1,0,0,52054,task1,1170274,false,false,1492,image-keyboard-response,6
true,12,1,1,1,true,z,false,false,0.0-2.0-0.51-0.459-3.459,0,0,0,90,false,stim,false,2,1299.1000000014901,1,0,2,52054,task1,1173083,false,true,1495,image-keyboard-response,7
true,12,0,1,1,false,z,true,false,0.0-2.0-0.51-0.460-3.460,0,0,0,81,false,stim,false,2,1001.5,1,0,2,52054,task1,1175597,false,false,1498,image-keyboard-response,8
true,12,2,1,0,false,q,false,false,0.0-2.0-0.51-0.461-3.461,0,0,0,68,false,stim,true,2,963.3999999985099,1,0,1,52054,task1,1178074,false,false,1501,image-keyboard-response,9
true,12,2,1,2,true,d,false,true,0.0-2.0-0.51-0.462-3.462,0,0,0,68,false,stim,false,0,663.6999999992549,1,0,0,52054,task1,1180245,false,false,1504,image-keyboard-response,10
true,12,2,1,1,false,z,false,false,0.0-2.0-0.51-0.463-3.463,0,0,0,68,false,stim,true,2,648.0,1,0,2,52054,task1,1182408,false,false,1507,image-keyboard-response,11
true,12,2,1,0,false,q,false,false,0.0-2.0-0.51-0.464-3.464,0,0,0,68,false,stim,true,2,1219.300000000745,1,0,1,52054,task1,1185134,false,false,1510,image-keyboard-response,12
true,12,1,1,2,false,d,true,true,0.0-2.0-0.51-0.465-3.465,0,0,0,90,false,stim,false,0,684.5999999977648,1,0,0,52054,task1,1187325,false,true,1513,image-keyboard-response,13
true,12,2,1,0,false,q,false,false,0.0-2.0-0.51-0.466-3.466,0,0,0,68,false,stim,true,2,826.5,1,0,1,52054,task1,1189660,false,false,1516,image-keyboard-response,14
true,12,1,1,2,false,d,true,false,0.0-2.0-0.51-0.467-3.467,0,0,0,90,false,stim,false,0,499.3999999985099,1,0,0,52054,task1,1191671,false,false,1519,image-keyboard-response,15
true,12,0,1,2,false,d,false,false,0.0-2.0-0.52-0.468-3.468,0,0,0,81,false,stim,true,0,796.3999999985099,1,0,0,52054,task1,1193983,false,false,1522,image-keyboard-response,16
true,12,2,1,0,false,q,false,false,0.0-2.0-0.52-0.469-3.469,0,0,0,68,false,stim,true,2,753.3000000007451,1,0,1,52054,task1,1196251,false,false,1525,image-keyboard-response,17
true,12,1,1,0,false,q,true,false,0.0-2.0-0.52-0.470-3.470,0,0,0,90,false,stim,false,2,927.0,1,0,1,52054,task1,1198689,false,false,1528,image-keyboard-response,18
true,12,0,1,0,true,q,false,true,0.0-2.0-0.52-0.471-3.471,0,0,0,81,false,stim,false,2,425.80000000074506,1,0,1,52054,task1,1200629,false,false,1531,image-keyboard-response,19
true,12,1,1,1,true,z,false,true,0.0-2.0-0.52-0.472-3.472,0,0,0,90,false,stim,false,2,1224.0,1,0,2,52054,task1,1203363,false,false,1534,image-keyboard-response,20
true,12,1,1,2,false,d,true,false,0.0-2.0-0.52-0.473-3.473,0,0,0,90,false,stim,false,0,823.3999999985099,1,0,0,52054,task1,1205694,false,false,1537,image-keyboard-response,21
true,12,0,1,1,false,z,true,false,0.0-2.0-0.52-0.474-3.474,0,0,0,81,false,stim,false,2,1296.5,1,0,2,52054,task1,1208502,false,false,1540,image-keyboard-response,22
true,12,0,1,2,false,d,false,false,0.0-2.0-0.52-0.475-3.475,0,0,0,81,false,stim,true,0,635.1999999992549,1,0,0,52054,task1,1210647,false,false,1543,image-keyboard-response,23
true,12,1,1,1,true,z,false,true,0.0-2.0-0.52-0.476-3.476,0,0,0,90,false,stim,false,2,798.8000000007451,1,0,2,52054,task1,1212959,false,false,1546,image-keyboard-response,24
true,12,0,1,0,true,q,false,true,0.0-2.0-0.53-0.477-3.477,0,0,0,81,false,stim,false,2,1136.5,1,0,1,52054,task1,1215611,false,false,1549,image-keyboard-response,25
true,12,1,1,1,true,z,false,true,0.0-2.0-0.53-0.478-3.478,0,0,0,90,false,stim,false,2,564.1000000014901,1,0,2,52054,task1,1217683,false,false,1552,image-keyboard-response,26
true,12,0,1,2,false,d,false,false,0.0-2.0-0.53-0.479-3.479,0,0,0,81,false,stim,true,0,502.29999999701977,1,0,0,52054,task1,1219699,false,false,1555,image-keyboard-response,27
true,12,1,1,1,true,z,false,true,0.0-2.0-0.53-0.480-3.480,0,0,0,90,false,stim,false,2,665.5999999977648,1,0,2,52054,task1,1221874,false,false,1558,image-keyboard-response,28
true,12,0,1,0,true,q,false,true,0.0-2.0-0.53-0.481-3.481,0,0,0,81,false,stim,false,2,954.1999999992549,1,0,1,52054,task1,1224340,false,false,1561,image-keyboard-response,29
true,12,2,1,2,true,d,false,false,0.0-2.0-0.53-0.482-3.482,0,0,0,68,false,stim,false,0,542.6999999992549,1,0,0,52054,task1,1226393,false,true,1564,image-keyboard-response,30
true,12,0,1,0,true,q,false,true,0.0-2.0-0.53-0.483-3.483,0,0,0,81,false,stim,false,2,729.8000000007451,1,0,1,52054,task1,1228632,false,false,1567,image-keyboard-response,31
true,12,1,1,2,false,d,true,false,0.0-2.0-0.53-0.484-3.484,0,0,0,90,false,stim,false,0,880.1999999992549,1,0,0,52054,task1,1231028,false,false,1570,image-keyboard-response,32
true,12,1,1,1,true,z,false,true,0.0-2.0-0.53-0.485-3.485,0,0,0,90,false,stim,false,2,937.8999999985099,1,0,2,52054,task1,1233481,false,false,1573,image-keyboard-response,33
true,12,1,1,1,true,z,false,true,0.0-2.0-0.54-0.486-3.486,0,0,0,90,false,stim,false,2,773.5,1,0,2,52054,task1,1235766,false,false,1576,image-keyboard-response,34
true,12,1,1,1,true,z,false,true,0.0-2.0-0.54-0.487-3.487,0,0,0,90,false,stim,false,2,523.5,1,0,2,52054,task1,1237806,false,false,1579,image-keyboard-response,35
true,12,0,1,2,false,d,false,false,0.0-2.0-0.54-0.488-3.488,0,0,0,81,false,stim,true,0,629.9000000022352,1,0,0,52054,task1,1239951,false,false,1582,image-keyboard-response,36
true,12,2,1,2,true,d,false,true,0.0-2.0-0.54-0.489-3.489,0,0,0,68,false,stim,false,0,637.5,1,0,0,52054,task1,1242095,false,false,1585,image-keyboard-response,37
true,12,2,1,2,true,d,false,true,0.0-2.0-0.54-0.490-3.490,0,0,0,68,false,stim,false,0,544.1000000014901,1,0,0,52054,task1,1244149,false,false,1588,image-keyboard-response,38
true,12,0,1,0,true,q,false,true,0.0-2.0-0.54-0.491-3.491,0,0,0,81,false,stim,false,2,510.9000000022352,1,0,1,52054,task1,1246171,false,false,1591,image-keyboard-response,39
true,12,1,1,1,true,z,false,true,0.0-2.0-0.54-0.492-3.492,0,0,0,90,false,stim,false,2,506.5999999977648,1,0,2,52054,task1,1248186,false,false,1594,image-keyboard-response,40
true,12,0,1,0,true,q,false,true,0.0-2.0-0.54-0.493-3.493,0,0,0,81,false,stim,false,2,946.4000000022352,1,0,1,52054,task1,1250645,false,false,1597,image-keyboard-response,41
true,12,0,1,0,true,q,false,true,0.0-2.0-0.54-0.494-3.494,0,0,0,81,false,stim,false,2,711.3999999985099,1,0,1,52054,task1,1252863,false,false,1600,image-keyboard-response,42
true,12,0,1,0,true,q,false,true,0.0-2.0-0.55-0.495-3.495,0,0,0,81,false,stim,false,2,464.5999999977648,1,0,1,52054,task1,1254844,false,false,1603,image-keyboard-response,43
true,12,0,1,0,true,q,false,true,0.0-2.0-0.55-0.496-3.496,0,0,0,81,false,stim,false,2,527.8000000007451,1,0,1,52054,task1,1256883,false,false,1606,image-keyboard-response,44
true,13,2,2,0,false,q,false,false,0.0-2.0-0.55-0.497-3.497,0,0,0,68,true,stim,true,2,2145.5,1,0,0,52054,task1,1260536,false,false,1609,image-keyboard-response,1
true,13,2,2,0,false,q,false,false,0.0-2.0-0.55-0.498-3.498,0,0,0,68,false,stim,true,2,562.2000000029802,1,0,0,52054,task1,1262607,false,false,1612,image-keyboard-response,2
true,13,1,2,0,false,q,false,false,0.0-2.0-0.55-0.499-3.499,0,0,0,90,false,stim,true,1,1248.0,1,0,2,52054,task1,1265364,false,false,1615,image-keyboard-response,3
true,13,2,2,0,false,q,true,false,0.0-2.0-0.55-0.500-3.500,0,0,0,68,false,stim,false,1,924.1999999992549,1,0,2,52054,task1,1267799,false,false,1618,image-keyboard-response,4
true,13,1,2,0,false,q,true,false,0.0-2.0-0.55-0.501-3.501,0,0,0,90,false,stim,false,2,1088.0999999977648,1,0,0,52054,task1,1270393,false,false,1621,image-keyboard-response,5
true,13,0,2,0,true,q,false,true,0.0-2.0-0.55-0.502-3.502,0,0,0,81,false,stim,false,1,980.5,1,0,2,52054,task1,1272887,false,false,1624,image-keyboard-response,6
true,13,0,2,2,false,d,false,true,0.0-2.0-0.55-0.503-3.503,0,0,0,81,false,stim,true,0,855.3999999985099,1,0,1,52054,task1,1275258,false,true,1627,image-keyboard-response,7
true,13,0,2,0,true,q,false,true,0.0-2.0-0.56-0.504-3.504,0,0,0,81,false,stim,false,1,455.5999999977648,1,0,2,52054,task1,1277230,false,false,1630,image-keyboard-response,8
true,13,0,2,2,false,d,false,false,0.0-2.0-0.56-0.505-3.505,0,0,0,81,false,stim,true,0,596.9000000022352,1,0,1,52054,task1,1279338,false,false,1633,image-keyboard-response,9
true,13,0,2,0,true,q,false,true,0.0-2.0-0.56-0.506-3.506,0,0,0,81,false,stim,false,2,1002.8000000007451,1,0,0,52054,task1,1281857,false,false,1636,image-keyboard-response,10
true,13,0,2,0,true,q,false,true,0.0-2.0-0.56-0.507-3.507,0,0,0,81,false,stim,false,2,516.5,1,0,0,52054,task1,1283886,false,false,1639,image-keyboard-response,11
true,13,0,2,0,true,q,false,true,0.0-2.0-0.56-0.508-3.508,0,0,0,81,false,stim,false,1,446.5,1,0,2,52054,task1,1285845,false,false,1642,image-keyboard-response,12
true,13,2,2,2,true,d,false,true,0.0-2.0-0.56-0.509-3.509,0,0,0,68,false,stim,false,0,521.5,1,0,1,52054,task1,1287873,false,false,1645,image-keyboard-response,13
true,13,2,2,2,true,d,false,true,0.0-2.0-0.56-0.510-3.510,0,0,0,68,false,stim,false,0,714.5,1,0,1,52054,task1,1290097,false,false,1648,image-keyboard-response,14
true,13,0,2,0,true,q,false,true,0.0-2.0-0.56-0.511-3.511,0,0,0,81,false,stim,false,1,766.9000000022352,1,0,2,52054,task1,1292377,false,false,1651,image-keyboard-response,15
true,13,2,2,0,false,q,false,false,0.0-2.0-0.56-0.512-3.512,0,0,0,68,false,stim,true,2,1256.3999999985099,1,0,0,52054,task1,1295146,false,false,1654,image-keyboard-response,16
true,13,0,2,2,false,d,false,false,0.0-2.0-0.57-0.513-3.513,0,0,0,81,false,stim,true,0,622.5,1,0,1,52054,task1,1297280,false,false,1657,image-keyboard-response,17
true,13,2,2,0,false,q,false,false,0.0-2.0-0.57-0.514-3.514,0,0,0,68,false,stim,true,2,1002.5,1,0,0,52054,task1,1299796,false,false,1660,image-keyboard-response,18
true,13,0,2,0,true,q,false,false,0.0-2.0-0.57-0.515-3.515,0,0,0,81,false,stim,false,2,430.19999999925494,1,0,0,52054,task1,1301735,false,true,1663,image-keyboard-response,19
true,13,1,2,0,false,q,true,false,0.0-2.0-0.57-0.516-3.516,0,0,0,90,false,stim,false,2,594.8999999985099,1,0,0,52054,task1,1303846,false,false,1666,image-keyboard-response,20
true,13,0,2,2,false,d,false,true,0.0-2.0-0.57-0.517-3.517,0,0,0,81,false,stim,true,0,398.30000000074506,1,0,1,52054,task1,1305756,false,true,1669,image-keyboard-response,21
true,13,0,2,0,true,q,false,true,0.0-2.0-0.57-0.518-3.518,0,0,0,81,false,stim,false,1,539.6999999992549,1,0,2,52054,task1,1307808,false,false,1672,image-keyboard-response,22
true,13,0,2,0,true,q,false,true,0.0-2.0-0.57-0.519-3.519,0,0,0,81,false,stim,false,1,663.8000000007451,1,0,2,52054,task1,1309987,false,false,1675,image-keyboard-response,23
true,13,0,2,0,true,q,false,true,0.0-2.0-0.57-0.520-3.520,0,0,0,81,false,stim,false,1,432.0,1,0,2,52054,task1,1311933,false,false,1678,image-keyboard-response,24
true,13,0,2,2,false,d,false,false,0.0-2.0-0.57-0.521-3.521,0,0,0,81,false,stim,true,0,725.6000000014901,1,0,1,52054,task1,1314169,false,false,1681,image-keyboard-response,25
true,13,0,2,0,true,q,false,true,0.0-2.0-0.58-0.522-3.522,0,0,0,81,false,stim,false,2,626.5,1,0,0,52054,task1,1316306,false,false,1684,image-keyboard-response,26
true,13,0,2,0,true,q,false,true,0.0-2.0-0.58-0.523-3.523,0,0,0,81,false,stim,false,2,531.6000000014901,1,0,0,52054,task1,1318348,false,false,1687,image-keyboard-response,27
true,13,0,2,0,true,q,false,true,0.0-2.0-0.58-0.524-3.524,0,0,0,81,false,stim,false,2,432.30000000074506,1,0,0,52054,task1,1320293,false,false,1690,image-keyboard-response,28
true,13,0,2,0,true,q,false,true,0.0-2.0-0.58-0.525-3.525,0,0,0,81,false,stim,false,1,559.0999999977648,1,0,2,52054,task1,1322363,false,false,1693,image-keyboard-response,29
true,13,2,2,0,false,q,true,false,0.0-2.0-0.58-0.526-3.526,0,0,0,68,false,stim,false,1,864.6999999992549,1,0,2,52054,task1,1324744,false,false,1696,image-keyboard-response,30
true,13,0,2,2,false,d,false,false,0.0-2.0-0.58-0.527-3.527,0,0,0,81,false,stim,true,0,713.0,1,0,1,52054,task1,1326971,false,false,1699,image-keyboard-response,31
true,13,0,2,2,false,d,false,false,0.0-2.0-0.58-0.528-3.528,0,0,0,81,false,stim,true,0,410.69999999925494,1,0,1,52054,task1,1328898,false,false,1702,image-keyboard-response,32
true,13,1,2,2,false,d,true,false,0.0-2.0-0.58-0.529-3.529,0,0,0,90,false,stim,false,0,725.0999999977648,1,0,1,52054,task1,1331134,false,false,1705,image-keyboard-response,33
true,13,0,2,0,true,q,false,false,0.0-2.0-0.58-0.530-3.530,0,0,0,81,false,stim,false,1,936.9000000022352,1,0,2,52054,task1,1333587,false,true,1708,image-keyboard-response,34
true,13,2,2,2,true,d,false,true,0.0-2.0-0.59-0.531-3.531,0,0,0,68,false,stim,false,0,632.3000000007451,1,0,1,52054,task1,1335730,false,false,1711,image-keyboard-response,35
true,13,2,2,2,true,d,false,true,0.0-2.0-0.59-0.532-3.532,0,0,0,68,false,stim,false,0,706.4000000022352,1,0,1,52054,task1,1337951,false,false,1714,image-keyboard-response,36
true,13,2,2,0,false,q,false,false,0.0-2.0-0.59-0.533-3.533,0,0,0,68,false,stim,true,2,796.5999999977648,1,0,0,52054,task1,1340261,false,false,1717,image-keyboard-response,37
true,13,2,2,2,true,d,false,true,0.0-2.0-0.59-0.534-3.534,0,0,0,68,false,stim,false,0,628.8999999985099,1,0,1,52054,task1,1342400,false,false,1720,image-keyboard-response,38
true,13,1,2,0,false,q,false,false,0.0-2.0-0.59-0.535-3.535,0,0,0,90,false,stim,true,1,778.3000000007451,1,1,2,52054,task1,1344690,false,false,1723,image-keyboard-response,39
true,13,0,2,0,true,q,false,true,0.0-2.0-0.59-0.536-3.536,0,0,0,81,false,stim,false,1,847.6000000014901,1,1,2,52054,task1,1347054,false,false,1726,image-keyboard-response,40
true,13,0,2,0,true,q,false,true,0.0-2.0-0.59-0.537-3.537,0,0,0,81,false,stim,false,1,373.8999999985099,1,1,2,52054,task1,1348939,false,false,1729,image-keyboard-response,41
true,13,2,2,0,false,q,false,false,0.0-2.0-0.59-0.538-3.538,0,0,0,68,false,stim,true,2,589.1999999992549,1,1,0,52054,task1,1351044,false,false,1732,image-keyboard-response,42
true,13,1,2,0,false,q,true,false,0.0-2.0-0.59-0.539-3.539,0,0,0,90,false,stim,false,2,1203.1000000014901,1,1,0,52054,task1,1353763,false,false,1735,image-keyboard-response,43
false,14,-1,0,2,false,d,true,true,0.0-2.0-0.60-0.540-3.540,1,1,1,,true,stim,false,2,,1,1,1,52054,task1,1478927,false,true,1858,image-keyboard-response,1
false,14,-1,0,2,false,d,true,false,0.0-2.0-0.60-0.541-3.541,1,1,1,,false,stim,false,2,,1,1,1,52054,task1,1483450,false,false,1861,image-keyboard-response,2
false,14,-1,0,0,false,q,true,false,0.0-2.0-0.60-0.542-3.542,1,1,1,,false,stim,false,0,,1,1,0,52054,task1,1487971,false,false,1864,image-keyboard-response,3
false,14,-1,0,2,false,d,true,false,0.0-2.0-0.60-0.543-3.543,1,1,1,,false,stim,false,2,,1,1,1,52054,task1,1492494,false,false,1867,image-keyboard-response,4
true,14,1,0,0,false,q,true,false,0.0-2.0-0.60-0.544-3.544,1,1,1,90,false,stim,false,0,2996.400000002235,1,1,2,52054,task1,1497005,false,false,1870,image-keyboard-response,5
true,14,2,0,0,false,q,true,false,0.0-2.0-0.60-0.545-3.545,1,1,1,68,false,stim,false,0,700.7000000029802,1,1,2,52054,task1,1499218,false,false,1873,image-keyboard-response,6
true,14,0,0,0,true,q,false,true,0.0-2.0-0.60-0.546-3.546,1,1,1,81,false,stim,false,0,457.79999999701977,1,1,0,52054,task1,1501191,false,false,1876,image-keyboard-response,7
true,14,0,0,0,true,q,false,true,0.0-2.0-0.60-0.547-3.547,1,1,1,81,false,stim,false,0,875.1999999992549,1,1,2,52054,task1,1503583,false,false,1879,image-keyboard-response,8
true,14,0,0,0,true,q,false,true,0.0-2.0-0.60-0.548-3.548,1,1,1,81,false,stim,false,0,410.80000000074506,1,0,0,52054,task1,1505506,false,false,1882,image-keyboard-response,9
true,14,0,0,0,true,q,false,true,0.0-2.0-0.61-0.549-3.549,1,1,1,81,false,stim,false,0,402.0999999977648,1,0,0,52054,task1,1507424,false,false,1885,image-keyboard-response,10
true,14,0,0,0,true,q,false,false,0.0-2.0-0.61-0.550-3.550,1,1,1,81,false,stim,false,0,465.0,1,0,0,52054,task1,1509401,false,true,1888,image-keyboard-response,11
true,14,0,0,0,true,q,false,true,0.0-2.0-0.61-0.551-3.551,1,1,1,81,false,stim,false,0,754.4000000022352,1,0,0,52054,task1,1511672,false,false,1891,image-keyboard-response,12
true,14,0,0,0,true,q,false,true,0.0-2.0-0.61-0.552-3.552,1,1,1,81,false,stim,false,0,415.1000000014901,1,0,2,52054,task1,1513599,false,false,1894,image-keyboard-response,13
true,15,0,1,2,false,d,false,true,0.0-2.0-0.61-0.553-3.553,0,0,0,81,true,stim,true,0,627.8000000007451,1,0,2,52054,task1,1515742,false,true,1897,image-keyboard-response,1
true,15,2,1,1,false,z,false,true,0.0-2.0-0.61-0.554-3.554,0,0,0,68,false,stim,true,2,678.7000000029802,1,0,1,52054,task1,1517932,false,true,1900,image-keyboard-response,2
true,15,0,1,2,false,d,false,false,0.0-2.0-0.61-0.555-3.555,0,0,0,81,false,stim,true,0,271.5,1,0,2,52054,task1,1519724,false,false,1903,image-keyboard-response,3
true,15,0,1,1,false,z,true,false,0.0-2.0-0.61-0.556-3.556,0,0,0,81,false,stim,false,2,397.80000000074506,1,0,1,52054,task1,1521633,false,false,1906,image-keyboard-response,4
true,15,2,1,1,false,z,false,true,0.0-2.0-0.61-0.557-3.557,0,0,0,68,false,stim,true,2,537.5,1,0,1,52054,task1,1523683,false,true,1909,image-keyboard-response,5
true,15,0,1,1,false,z,false,false,0.0-2.0-0.62-0.558-3.558,0,0,0,81,false,stim,true,0,605.6999999992549,1,0,0,52054,task1,1525805,false,false,1912,image-keyboard-response,6
true,15,0,1,1,false,z,false,false,0.0-2.0-0.62-0.559-3.559,0,0,0,81,false,stim,true,0,716.5,1,0,0,52054,task1,1528033,false,false,1915,image-keyboard-response,7
true,15,1,1,1,true,z,false,false,0.0-2.0-0.62-0.560-3.560,0,0,0,90,false,stim,false,0,676.1999999992549,1,0,0,52054,task1,1530218,false,true,1918,image-keyboard-response,8
true,15,0,1,2,false,d,false,false,0.0-2.0-0.62-0.561-3.561,0,0,0,81,false,stim,true,0,620.6999999992549,1,0,2,52054,task1,1532353,false,false,1921,image-keyboard-response,9
true,15,1,1,2,false,d,true,false,0.0-2.0-0.62-0.562-3.562,0,0,0,90,false,stim,false,0,715.8000000007451,1,0,2,52054,task1,1534578,false,false,1924,image-keyboard-response,10
true,15,2,1,1,false,z,false,false,0.0-2.0-0.62-0.563-3.563,0,0,0,68,false,stim,true,2,552.3999999985099,1,0,1,52054,task1,1536644,false,false,1927,image-keyboard-response,11
true,15,1,1,2,false,d,true,false,0.0-2.0-0.62-0.564-3.564,0,0,0,90,false,stim,false,0,816.5999999977648,1,0,2,52054,task1,1538975,false,false,1930,image-keyboard-response,12
true,15,0,1,1,false,z,true,false,0.0-2.0-0.62-0.565-3.565,0,0,0,81,false,stim,false,2,1935.6000000014901,1,0,1,52054,task1,1542425,false,false,1933,image-keyboard-response,13
true,15,2,1,1,false,z,false,false,0.0-2.0-0.62-0.566-3.566,0,0,0,68,false,stim,true,2,659.8999999985099,1,0,1,52054,task1,1544602,false,false,1936,image-keyboard-response,14
true,15,1,1,1,true,z,false,true,0.0-2.0-0.63-0.567-3.567,0,0,0,90,false,stim,false,2,439.5,1,0,1,52054,task1,1546554,false,false,1939,image-keyboard-response,15
true,15,1,1,2,false,d,true,false,0.0-2.0-0.63-0.568-3.568,0,0,0,90,false,stim,false,0,739.5,1,0,2,52054,task1,1548805,false,false,1942,image-keyboard-response,16
true,15,2,1,1,false,z,true,false,0.0-2.0-0.63-0.569-3.569,0,0,0,68,false,stim,false,0,731.1999999992549,1,0,0,52054,task1,1551050,false,false,1945,image-keyboard-response,17
true,15,1,1,1,true,z,false,false,0.0-2.0-0.63-0.570-3.570,0,0,0,90,false,stim,false,2,675.0,1,0,1,52054,task1,1553232,false,true,1948,image-keyboard-response,18
true,15,1,1,1,true,z,false,true,0.0-2.0-0.63-0.571-3.571,0,0,0,90,false,stim,false,0,404.5999999977648,1,0,0,52054,task1,1555147,false,false,1951,image-keyboard-response,19
true,15,1,1,2,false,d,true,false,0.0-2.0-0.63-0.572-3.572,0,0,0,90,false,stim,false,0,364.1000000014901,1,0,2,52054,task1,1557024,false,false,1954,image-keyboard-response,20
true,15,1,1,1,true,z,false,true,0.0-2.0-0.63-0.573-3.573,0,0,0,90,false,stim,false,2,833.1999999992549,1,0,1,52054,task1,1559367,false,false,1957,image-keyboard-response,21
true,15,1,1,1,true,z,false,true,0.0-2.0-0.63-0.574-3.574,0,0,0,90,false,stim,false,0,438.69999999925494,1,0,0,52054,task1,1561317,false,false,1960,image-keyboard-response,22
true,15,2,1,2,true,d,false,true,0.0-2.0-0.63-0.575-3.575,0,0,0,68,false,stim,false,0,663.1999999992549,1,0,2,52054,task1,1563487,false,false,1963,image-keyboard-response,23
true,15,1,1,2,false,d,true,false,0.0-2.0-0.64-0.576-3.576,0,0,0,90,false,stim,false,0,335.8999999985099,1,0,2,52054,task1,1565336,false,false,1966,image-keyboard-response,24
true,15,1,1,1,true,z,false,true,0.0-2.0-0.64-0.577-3.577,0,0,0,90,false,stim,false,2,520.0,1,0,1,52054,task1,1567365,false,false,1969,image-keyboard-response,25
true,15,1,1,1,true,z,false,true,0.0-2.0-0.64-0.578-3.578,0,0,0,90,false,stim,false,0,1119.0,1,0,0,52054,task1,1569993,false,false,1972,image-keyboard-response,26
true,15,1,1,1,true,z,false,true,0.0-2.0-0.64-0.579-3.579,0,0,0,90,false,stim,false,0,1238.5,1,0,0,52054,task1,1572740,false,false,1975,image-keyboard-response,27
true,15,2,1,2,true,d,false,true,0.0-2.0-0.64-0.580-3.580,0,0,0,68,false,stim,false,0,1569.5,1,0,2,52054,task1,1575822,false,false,1978,image-keyboard-response,28
true,15,1,1,1,true,z,false,true,0.0-2.0-0.64-0.581-3.581,0,0,0,90,false,stim,false,2,778.5999999977648,1,0,1,52054,task1,1578113,false,false,1981,image-keyboard-response,29
true,15,1,1,1,true,z,false,true,0.0-2.0-0.64-0.582-3.582,0,0,0,90,false,stim,false,2,795.9000000022352,1,0,1,52054,task1,1580420,false,false,1984,image-keyboard-response,30
true,15,1,1,1,true,z,false,true,0.0-2.0-0.64-0.583-3.583,0,0,0,90,false,stim,false,0,517.4000000022352,1,0,0,52054,task1,1582454,false,false,1987,image-keyboard-response,31
true,15,2,1,2,true,d,false,false,0.0-2.0-0.64-0.584-3.584,0,0,0,68,false,stim,false,0,737.2000000029802,1,0,2,52054,task1,1584702,false,true,1990,image-keyboard-response,32
true,15,1,1,1,true,z,false,true,0.0-2.0-0.65-0.585-3.585,0,0,0,90,false,stim,false,0,453.80000000074506,1,0,0,52054,task1,1586667,false,false,1993,image-keyboard-response,33
true,15,2,1,2,true,d,false,false,0.0-2.0-0.65-0.586-3.586,0,0,0,68,false,stim,false,0,991.3999999985099,1,0,2,52054,task1,1589174,false,true,1996,image-keyboard-response,34
true,15,1,1,1,true,z,false,true,0.0-2.0-0.65-0.587-3.587,0,0,0,90,false,stim,false,2,668.5,1,0,1,52054,task1,1591348,false,false,1999,image-keyboard-response,35
true,15,1,1,2,false,d,true,false,0.0-2.0-0.65-0.588-3.588,0,0,0,90,false,stim,false,0,1084.4000000022352,1,0,2,52054,task1,1593954,false,false,2002,image-keyboard-response,36
true,15,0,1,1,false,z,true,true,0.0-2.0-0.65-0.589-3.589,0,0,0,81,false,stim,false,2,538.8000000007451,1,0,1,52054,task1,1596004,false,true,2005,image-keyboard-response,37
true,15,0,1,1,false,z,true,false,0.0-2.0-0.65-0.590-3.590,0,0,0,81,false,stim,false,2,538.5,1,0,1,52054,task1,1598052,false,false,2008,image-keyboard-response,38
