answered,blockNum,choice,condition,corResp,correct,correct_response,explo,fb,internal_node_id,isStable_1,isStable_2,isStable_3,key_press,newBlock,part,persev,persevResp,rt,sessNum,stableAS,stimulus,subject,task,time_elapsed,training,trap,trial_index,trial_type,trialsInBlock
true,1,1,0,1,true,z,false,true,0.0-2.0-0.0-0.0-3.0,0,0,0,90,true,stim,false,-1,1299.0999999940395,0,0,0,52054,task3,115772,false,false,91,image-keyboard-response,1
true,1,1,0,1,true,z,false,true,0.0-2.0-0.0-0.1-3.1,0,0,0,90,false,stim,false,-1,411.59999999403954,0,0,0,52054,task3,117699,false,false,94,image-keyboard-response,2
true,1,1,0,1,true,z,false,true,0.0-2.0-0.0-0.2-3.2,0,0,0,90,false,stim,false,-1,1229.7999999970198,0,0,2,52054,task3,120438,false,false,97,image-keyboard-response,3
true,1,1,0,1,true,z,false,true,0.0-2.0-0.0-0.3-3.3,0,0,0,90,false,stim,false,-1,356.09999999403954,0,0,0,52054,task3,122308,false,false,100,image-keyboard-response,4
true,1,1,0,1,true,z,false,true,0.0-2.0-0.0-0.4-3.4,0,0,0,90,false,stim,false,-1,484.80000001192093,0,0,2,52054,task3,124303,false,false,103,image-keyboard-response,5
true,1,0,0,2,false,d,true,false,0.0-2.0-0.0-0.5-3.5,0,0,0,81,false,stim,false,-1,722.0,0,0,1,52054,task3,126531,false,false,106,image-keyboard-response,6
true,1,1,0,1,true,z,false,true,0.0-2.0-0.0-0.6-3.6,0,0,0,90,false,stim,false,-1,846.2000000029802,0,0,2,52054,task3,128891,false,false,109,image-keyboard-response,7
true,1,1,0,2,false,d,true,false,0.0-2.0-0.0-0.7-3.7,0,0,0,90,false,stim,false,-1,765.8999999910593,0,0,1,52054,task3,131165,false,false,112,image-keyboard-response,8
true,1,2,0,2,true,d,false,true,0.0-2.0-0.0-0.8-3.8,0,0,0,68,false,stim,false,-1,521.0,0,0,1,52054,task3,133196,false,false,115,image-keyboard-response,9
true,1,1,0,1,true,z,false,true,0.0-2.0-0.1-0.9-3.9,0,0,0,90,false,stim,false,-1,576.5,0,0,0,52054,task3,135287,false,false,118,image-keyboard-response,10
true,1,1,0,1,true,z,false,true,0.0-2.0-0.1-0.10-3.10,0,0,0,90,false,stim,false,-1,403.5,0,0,2,52054,task3,137200,false,false,121,image-keyboard-response,11
true,1,1,0,1,true,z,false,false,0.0-2.0-0.1-0.11-3.11,0,0,0,90,false,stim,false,-1,1419.3999999910593,0,0,2,52054,task3,140129,false,true,124,image-keyboard-response,12
true,1,1,0,1,true,z,false,true,0.0-2.0-0.1-0.12-3.12,0,0,0,90,false,stim,false,-1,763.7999999970198,0,0,0,52054,task3,142401,false,false,127,image-keyboard-response,13
true,1,1,0,2,false,d,true,false,0.0-2.0-0.1-0.13-3.13,0,0,0,90,false,stim,false,-1,866.7999999970198,0,0,1,52054,task3,144777,false,false,130,image-keyboard-response,14
true,1,1,0,1,true,z,false,true,0.0-2.0-0.1-0.14-3.14,0,0,0,90,false,stim,false,-1,790.8999999910593,0,0,0,52054,task3,147077,false,false,133,image-keyboard-response,15
true,1,2,0,2,true,d,false,true,0.0-2.0-0.1-0.15-3.15,0,0,0,68,false,stim,false,-1,492.8999999910593,0,0,1,52054,task3,149079,false,false,136,image-keyboard-response,16
true,1,1,0,1,true,z,false,true,0.0-2.0-0.1-0.16-3.16,0,0,0,90,false,stim,false,-1,595.1000000089407,0,0,2,52054,task3,151185,false,false,139,image-keyboard-response,17
true,1,2,0,2,true,d,false,true,0.0-2.0-0.1-0.17-3.17,0,0,0,68,false,stim,false,-1,581.5,0,0,1,52054,task3,153275,false,false,142,image-keyboard-response,18
true,1,1,0,1,true,z,false,true,0.0-2.0-0.2-0.18-3.18,0,0,0,90,false,stim,false,-1,505.40000000596046,0,0,2,52054,task3,155296,false,false,145,image-keyboard-response,19
true,1,0,0,1,false,z,true,false,0.0-2.0-0.2-0.19-3.19,0,0,0,81,false,stim,false,-1,738.5999999940395,0,1,0,52054,task3,157548,false,false,148,image-keyboard-response,20
true,1,1,0,1,true,z,false,true,0.0-2.0-0.2-0.20-3.20,0,0,0,90,false,stim,false,-1,829.5,0,0,2,52054,task3,159892,false,false,151,image-keyboard-response,21
true,1,1,0,1,true,z,false,false,0.0-2.0-0.2-0.21-3.21,0,0,0,90,false,stim,false,-1,615.7000000029802,0,0,2,52054,task3,162022,false,true,154,image-keyboard-response,22
true,1,2,0,2,true,d,false,true,0.0-2.0-0.2-0.22-3.22,0,0,0,68,false,stim,false,-1,678.7000000029802,0,0,1,52054,task3,164210,false,false,157,image-keyboard-response,23
true,1,2,0,2,true,d,false,true,0.0-2.0-0.2-0.23-3.23,0,0,0,68,false,stim,false,-1,336.79999999701977,0,0,1,52054,task3,166059,false,false,160,image-keyboard-response,24
true,2,1,1,1,true,z,false,true,0.0-2.0-0.2-0.24-3.24,1,0,0,90,true,stim,false,1,875.8999999910593,0,1,0,52054,task3,168443,false,false,163,image-keyboard-response,1
true,2,2,1,1,false,z,false,false,0.0-2.0-0.2-0.25-3.25,1,0,0,68,false,stim,true,2,833.4000000059605,0,0,1,52054,task3,170786,false,false,166,image-keyboard-response,2
true,2,1,1,1,true,z,false,true,0.0-2.0-0.2-0.26-3.26,1,0,0,90,false,stim,false,1,827.2000000029802,0,1,0,52054,task3,173123,false,false,169,image-keyboard-response,3
true,2,1,1,0,false,q,false,false,0.0-2.0-0.3-0.27-3.27,1,0,0,90,false,stim,true,1,545.9000000059605,0,0,2,52054,task3,175181,false,false,172,image-keyboard-response,4
true,2,0,1,0,true,q,false,true,0.0-2.0-0.3-0.28-3.28,1,0,0,81,false,stim,false,1,510.5,0,0,2,52054,task3,177201,false,false,175,image-keyboard-response,5
true,2,2,1,1,false,z,false,true,0.0-2.0-0.3-0.29-3.29,1,0,0,68,false,stim,true,2,755.7999999970198,0,0,1,52054,task3,179466,false,true,178,image-keyboard-response,6
true,2,0,1,0,true,q,false,true,0.0-2.0-0.3-0.30-3.30,1,0,0,81,false,stim,false,1,496.59999999403954,0,0,2,52054,task3,181472,false,false,181,image-keyboard-response,7
true,2,2,1,1,false,z,false,false,0.0-2.0-0.3-0.31-3.31,1,0,0,68,false,stim,true,2,1737.300000011921,0,0,1,52054,task3,184719,false,false,184,image-keyboard-response,8
true,2,1,1,1,true,z,false,true,0.0-2.0-0.3-0.32-3.32,1,0,0,90,false,stim,false,1,576.8000000119209,0,1,0,52054,task3,186804,false,false,187,image-keyboard-response,9
true,2,0,1,1,false,z,true,false,0.0-2.0-0.3-0.33-3.33,1,0,0,81,false,stim,false,2,618.1000000089407,0,0,1,52054,task3,188931,false,false,190,image-keyboard-response,10
true,2,1,1,1,true,z,false,true,0.0-2.0-0.3-0.34-3.34,1,0,0,90,false,stim,false,1,763.8000000119209,0,1,0,52054,task3,191204,false,false,193,image-keyboard-response,11
true,2,1,1,1,true,z,false,true,0.0-2.0-0.3-0.35-3.35,1,0,0,90,false,stim,false,1,509.70000000298023,0,1,0,52054,task3,193227,false,false,196,image-keyboard-response,12
true,2,1,1,1,true,z,false,true,0.0-2.0-0.4-0.36-3.36,1,0,0,90,false,stim,false,1,394.5,0,1,0,52054,task3,195129,false,false,199,image-keyboard-response,13
true,2,1,1,1,true,z,false,false,0.0-2.0-0.4-0.37-3.37,1,0,0,90,false,stim,false,2,747.9000000059605,0,0,1,52054,task3,197384,false,true,202,image-keyboard-response,14
true,2,2,1,1,false,z,false,true,0.0-2.0-0.4-0.38-3.38,1,0,0,68,false,stim,true,2,482.8999999910593,0,0,1,52054,task3,199372,false,true,205,image-keyboard-response,15
true,2,2,1,1,false,z,false,false,0.0-2.0-0.4-0.39-3.39,1,0,0,68,false,stim,true,2,531.9000000059605,0,0,1,52054,task3,201412,false,false,208,image-keyboard-response,16
true,2,1,1,1,true,z,false,true,0.0-2.0-0.4-0.40-3.40,1,0,0,90,false,stim,false,1,1280.3999999910593,0,1,0,52054,task3,204196,false,false,211,image-keyboard-response,17
true,2,0,1,0,true,q,false,true,0.0-2.0-0.4-0.41-3.41,1,0,0,81,false,stim,false,1,1130.2999999970198,0,0,2,52054,task3,206838,false,false,214,image-keyboard-response,18
true,2,0,1,0,true,q,false,true,0.0-2.0-0.4-0.42-3.42,1,0,0,81,false,stim,false,1,397.09999999403954,0,1,2,52054,task3,208742,false,false,217,image-keyboard-response,19
true,2,1,1,1,true,z,false,true,0.0-2.0-0.4-0.43-3.43,1,0,0,90,false,stim,false,1,886.4000000059605,0,0,0,52054,task3,211136,false,false,220,image-keyboard-response,20
true,2,2,1,0,false,q,true,false,0.0-2.0-0.4-0.44-3.44,1,0,0,68,false,stim,false,1,853.7999999970198,0,1,2,52054,task3,213501,false,false,223,image-keyboard-response,21
true,2,1,1,1,true,z,false,false,0.0-2.0-0.5-0.45-3.45,1,0,0,90,false,stim,false,2,967.6000000089407,0,0,1,52054,task3,215977,false,true,226,image-keyboard-response,22
true,2,1,1,1,true,z,false,true,0.0-2.0-0.5-0.46-3.46,1,0,0,90,false,stim,false,1,612.0,0,0,0,52054,task3,218095,false,false,229,image-keyboard-response,23
true,3,1,1,2,false,d,false,false,0.0-2.0-0.5-0.47-3.47,0,0,1,90,true,stim,true,1,519.2999999970198,0,0,0,52054,task3,220123,false,false,232,image-keyboard-response,1
true,3,0,1,2,false,d,true,false,0.0-2.0-0.5-0.48-3.48,0,0,1,81,false,stim,false,1,558.7999999970198,0,0,1,52054,task3,222191,false,false,235,image-keyboard-response,2
true,3,0,1,0,true,q,false,true,0.0-2.0-0.5-0.49-3.49,0,0,1,81,false,stim,false,0,1093.4000000059605,0,1,2,52054,task3,224795,false,false,238,image-keyboard-response,3
true,3,0,1,0,true,q,false,true,0.0-2.0-0.5-0.50-3.50,0,0,1,81,false,stim,false,0,452.0,0,1,2,52054,task3,226753,false,false,241,image-keyboard-response,4
true,3,1,1,2,false,d,false,false,0.0-2.0-0.5-0.51-3.51,0,0,1,90,false,stim,true,1,756.8999999910593,0,0,1,52054,task3,229024,false,false,244,image-keyboard-response,5
true,3,2,1,2,true,d,false,false,0.0-2.0-0.5-0.52-3.52,0,0,1,68,false,stim,false,1,919.0,0,0,0,52054,task3,231456,false,true,247,image-keyboard-response,6
true,3,0,1,0,true,q,false,true,0.0-2.0-0.5-0.53-3.53,0,0,1,81,false,stim,false,0,937.2999999970198,0,1,2,52054,task3,233902,false,false,250,image-keyboard-response,7
true,3,2,1,2,true,d,false,true,0.0-2.0-0.6-0.54-3.54,0,0,1,68,false,stim,false,1,1334.2000000029802,0,0,1,52054,task3,236746,false,false,253,image-keyboard-response,8
true,3,0,1,2,false,d,true,true,0.0-2.0-0.6-0.55-3.55,0,0,1,81,false,stim,false,1,1128.2000000029802,0,0,0,52054,task3,239379,false,true,256,image-keyboard-response,9
true,3,0,1,2,false,d,true,false,0.0-2.0-0.6-0.56-3.56,0,0,1,81,false,stim,false,1,546.5999999940395,0,0,1,52054,task3,241435,false,false,259,image-keyboard-response,10
true,3,0,1,2,false,d,true,false,0.0-2.0-0.6-0.57-3.57,0,0,1,81,false,stim,false,1,790.3999999910593,0,0,0,52054,task3,243734,false,false,262,image-keyboard-response,11
true,3,0,1,0,true,q,false,true,0.0-2.0-0.6-0.58-3.58,0,0,1,81,false,stim,false,0,2151.9000000059605,0,1,2,52054,task3,247394,false,false,265,image-keyboard-response,12
true,3,2,1,2,true,d,false,true,0.0-2.0-0.6-0.59-3.59,0,0,1,68,false,stim,false,1,937.6000000089407,0,0,0,52054,task3,249845,false,false,268,image-keyboard-response,13
true,3,0,1,0,true,q,false,false,0.0-2.0-0.6-0.60-3.60,0,0,1,81,false,stim,false,0,1085.2000000029802,0,1,2,52054,task3,252446,false,true,271,image-keyboard-response,14
true,3,2,1,2,true,d,false,true,0.0-2.0-0.6-0.61-3.61,0,0,1,68,false,stim,false,1,1405.1000000089407,0,0,1,52054,task3,255354,false,false,274,image-keyboard-response,15
true,3,1,1,0,false,q,true,false,0.0-2.0-0.6-0.62-3.62,0,0,1,90,false,stim,false,0,527.7000000029802,0,1,2,52054,task3,257396,false,false,277,image-keyboard-response,16
true,3,2,1,2,true,d,false,true,0.0-2.0-0.7-0.63-3.63,0,0,1,68,false,stim,false,1,1061.800000011921,0,0,1,52054,task3,259972,false,false,280,image-keyboard-response,17
true,3,2,1,2,true,d,false,false,0.0-2.0-0.7-0.64-3.64,0,0,1,68,false,stim,false,1,706.1999999880791,0,0,0,52054,task3,262183,false,true,283,image-keyboard-response,18
true,3,2,1,0,false,q,true,false,0.0-2.0-0.7-0.65-3.65,0,0,1,68,false,stim,false,0,945.9000000059605,0,1,2,52054,task3,264641,false,false,286,image-keyboard-response,19
true,3,0,1,2,false,d,true,true,0.0-2.0-0.7-0.66-3.66,0,0,1,81,false,stim,false,1,1754.7999999970198,0,0,0,52054,task3,267909,false,true,289,image-keyboard-response,20
true,3,2,1,2,true,d,false,true,0.0-2.0-0.7-0.67-3.67,0,0,1,68,false,stim,false,1,831.2999999970198,0,0,1,52054,task3,270255,false,false,292,image-keyboard-response,21
true,3,0,1,0,true,q,false,true,0.0-2.0-0.7-0.68-3.68,0,0,1,81,false,stim,false,0,1165.9000000059605,0,1,2,52054,task3,272935,false,false,295,image-keyboard-response,22
true,3,0,1,0,true,q,false,true,0.0-2.0-0.7-0.69-3.69,0,0,1,81,false,stim,false,0,545.5999999940395,0,1,2,52054,task3,274994,false,false,298,image-keyboard-response,23
true,3,2,1,2,true,d,false,true,0.0-2.0-0.7-0.70-3.70,0,0,1,68,false,stim,false,1,1709.5,0,0,1,52054,task3,278218,false,false,301,image-keyboard-response,24
true,3,0,1,2,false,d,true,false,0.0-2.0-0.7-0.71-3.71,0,0,1,81,false,stim,false,1,767.2000000029802,0,1,0,52054,task3,280494,false,false,304,image-keyboard-response,25
true,4,2,2,2,true,d,false,true,0.0-2.0-0.8-0.72-3.72,1,0,1,68,true,stim,false,2,1471.2000000029802,0,1,0,52054,task3,283476,false,false,307,image-keyboard-response,1
true,4,0,2,0,true,q,false,true,0.0-2.0-0.8-0.73-3.73,1,0,1,81,false,stim,false,2,996.0,0,0,1,52054,task3,285983,false,false,310,image-keyboard-response,2
true,4,0,2,0,true,q,false,true,0.0-2.0-0.8-0.74-3.74,1,0,1,81,false,stim,false,2,552.0999999940395,0,0,1,52054,task3,288045,false,false,313,image-keyboard-response,3
true,4,0,2,0,true,q,false,true,0.0-2.0-0.8-0.75-3.75,1,0,1,81,false,stim,false,2,397.09999999403954,0,0,1,52054,task3,289953,false,false,316,image-keyboard-response,4
true,4,2,2,0,false,q,true,false,0.0-2.0-0.8-0.76-3.76,1,0,1,68,false,stim,false,0,979.7999999970198,0,1,2,52054,task3,292442,false,false,319,image-keyboard-response,5
true,4,0,2,2,false,d,true,false,0.0-2.0-0.8-0.77-3.77,1,0,1,81,false,stim,false,2,838.5,0,1,0,52054,task3,294795,false,false,322,image-keyboard-response,6
true,4,0,2,0,true,q,false,true,0.0-2.0-0.8-0.78-3.78,1,0,1,81,false,stim,false,0,648.0,0,1,2,52054,task3,296952,false,false,325,image-keyboard-response,7
true,4,2,2,2,true,d,false,true,0.0-2.0-0.8-0.79-3.79,1,0,1,68,false,stim,false,2,1976.8999999910593,0,1,0,52054,task3,300443,false,false,328,image-keyboard-response,8
true,4,0,2,0,true,q,false,true,0.0-2.0-0.8-0.80-3.80,1,0,1,81,false,stim,false,0,1184.5999999940395,0,1,2,52054,task3,303137,false,false,331,image-keyboard-response,9
true,4,2,2,0,false,q,false,false,0.0-2.0-0.9-0.81-3.81,1,0,1,68,false,stim,true,2,593.2000000029802,0,0,1,52054,task3,305233,false,false,334,image-keyboard-response,10
true,4,0,2,0,true,q,false,true,0.0-2.0-0.9-0.82-3.82,1,0,1,81,false,stim,false,0,738.2000000029802,0,1,2,52054,task3,307486,false,false,337,image-keyboard-response,11
true,4,2,2,2,true,d,false,true,0.0-2.0-0.9-0.83-3.83,1,0,1,68,false,stim,false,2,1329.2000000029802,0,1,0,52054,task3,310326,false,false,340,image-keyboard-response,12
true,4,2,2,2,true,d,false,true,0.0-2.0-0.9-0.84-3.84,1,0,1,68,false,stim,false,2,487.80000001192093,0,1,0,52054,task3,312329,false,false,343,image-keyboard-response,13
true,4,2,2,0,false,q,false,false,0.0-2.0-0.9-0.85-3.85,1,0,1,68,false,stim,true,2,979.2999999970198,0,0,1,52054,task3,314817,false,false,346,image-keyboard-response,14
true,4,0,2,0,true,q,false,true,0.0-2.0-0.9-0.86-3.86,1,0,1,81,false,stim,false,0,878.4000000059605,0,1,2,52054,task3,317209,false,false,349,image-keyboard-response,15
true,4,2,2,2,true,d,false,false,0.0-2.0-0.9-0.87-3.87,1,0,1,68,false,stim,false,2,1535.3999999910593,0,1,0,52054,task3,320248,false,true,352,image-keyboard-response,16
true,4,0,2,0,true,q,false,true,0.0-2.0-0.9-0.88-3.88,1,0,1,81,false,stim,false,0,647.7000000029802,0,1,2,52054,task3,322408,false,false,355,image-keyboard-response,17
true,4,1,2,0,false,q,true,false,0.0-2.0-0.9-0.89-3.89,1,0,1,90,false,stim,false,2,712.8000000119209,0,0,1,52054,task3,324626,false,false,358,image-keyboard-response,18
true,4,0,2,0,true,q,false,true,0.0-2.0-0.10-0.90-3.90,1,0,1,81,false,stim,false,0,1163.2999999970198,0,1,2,52054,task3,327296,false,false,361,image-keyboard-response,19
true,4,1,2,2,false,d,true,false,0.0-2.0-0.10-0.91-3.91,1,0,1,90,false,stim,false,2,471.09999999403954,0,1,0,52054,task3,329271,false,false,364,image-keyboard-response,20
true,4,0,2,2,false,d,true,false,0.0-2.0-0.10-0.92-3.92,1,0,1,81,false,stim,false,2,538.5,0,1,0,52054,task3,331322,false,false,367,image-keyboard-response,21
true,4,2,2,0,false,q,false,false,0.0-2.0-0.10-0.93-3.93,1,0,1,68,false,stim,true,2,2645.2000000029802,0,0,1,52054,task3,335481,false,false,370,image-keyboard-response,22
true,4,1,2,2,false,d,true,false,0.0-2.0-0.10-0.94-3.94,1,0,1,90,false,stim,false,2,1455.2999999970198,0,1,0,52054,task3,338450,false,false,373,image-keyboard-response,23
true,4,0,2,0,true,q,false,true,0.0-2.0-0.10-0.95-3.95,1,0,1,81,false,stim,false,2,1593.699999988079,0,0,1,52054,task3,341558,false,false,376,image-keyboard-response,24
true,4,0,2,0,true,q,false,true,0.0-2.0-0.10-0.96-3.96,1,0,1,81,false,stim,false,0,1577.5,0,0,2,52054,task3,344644,false,false,379,image-keyboard-response,25
true,5,0,1,2,false,d,false,true,0.0-2.0-0.10-0.97-3.97,1,0,0,81,true,stim,true,0,620.7999999970198,0,0,1,52054,task3,346777,false,true,382,image-keyboard-response,1
true,5,0,1,1,false,z,false,false,0.0-2.0-0.10-0.98-3.98,1,0,0,81,false,stim,true,0,380.79999999701977,0,0,2,52054,task3,348668,false,false,385,image-keyboard-response,2
true,5,0,1,2,false,d,false,false,0.0-2.0-0.11-0.99-3.99,1,0,0,81,false,stim,true,0,575.7000000029802,0,0,1,52054,task3,350752,false,false,388,image-keyboard-response,3
true,5,0,1,2,false,d,true,false,0.0-2.0-0.11-0.100-3.100,1,0,0,81,false,stim,false,2,1543.1000000089407,0,1,0,52054,task3,353804,false,false,391,image-keyboard-response,4
true,5,2,1,2,true,d,false,true,0.0-2.0-0.11-0.101-3.101,1,0,0,68,false,stim,false,2,1034.5999999940395,0,1,0,52054,task3,356352,false,false,394,image-keyboard-response,5
true,5,0,1,1,false,z,false,false,0.0-2.0-0.11-0.102-3.102,1,0,0,81,false,stim,true,0,1192.4000000059605,0,0,2,52054,task3,359054,false,false,397,image-keyboard-response,6
true,5,1,1,1,true,z,false,true,0.0-2.0-0.11-0.103-3.103,1,0,0,90,false,stim,false,0,1131.7000000029802,0,0,2,52054,task3,361692,false,false,400,image-keyboard-response,7
true,5,2,1,2,true,d,false,true,0.0-2.0-0.11-0.104-3.104,1,0,0,68,false,stim,false,2,1057.3999999910593,0,1,0,52054,task3,364259,false,false,403,image-keyboard-response,8
true,5,1,1,1,true,z,false,false,0.0-2.0-0.11-0.105-3.105,1,0,0,90,false,stim,false,0,445.79999999701977,0,0,2,52054,task3,366215,false,true,406,image-keyboard-response,9
true,5,0,1,2,false,d,false,false,0.0-2.0-0.11-0.106-3.106,1,0,0,81,false,stim,true,0,1453.9000000059605,0,0,1,52054,task3,369181,false,false,409,image-keyboard-response,10
true,5,2,1,2,true,d,false,true,0.0-2.0-0.11-0.107-3.107,1,0,0,68,false,stim,false,0,892.5,0,0,1,52054,task3,371587,false,false,412,image-keyboard-response,11
true,5,2,1,2,true,d,false,true,0.0-2.0-0.12-0.108-3.108,1,0,0,68,false,stim,false,2,2121.0,0,1,0,52054,task3,375218,false,false,415,image-keyboard-response,12
true,5,2,1,2,true,d,false,true,0.0-2.0-0.12-0.109-3.109,1,0,0,68,false,stim,false,2,660.2999999970198,0,1,0,52054,task3,377383,false,false,418,image-keyboard-response,13
true,5,0,1,1,false,z,false,false,0.0-2.0-0.12-0.110-3.110,1,0,0,81,false,stim,true,0,1056.5,0,0,2,52054,task3,379945,false,false,421,image-keyboard-response,14
true,5,2,1,2,true,d,false,true,0.0-2.0-0.12-0.111-3.111,1,0,0,68,false,stim,false,0,797.1000000089407,0,0,1,52054,task3,382256,false,false,424,image-keyboard-response,15
true,5,2,1,2,true,d,false,false,0.0-2.0-0.12-0.112-3.112,1,0,0,68,false,stim,false,0,655.4000000059605,0,0,1,52054,task3,384418,false,true,427,image-keyboard-response,16
true,5,2,1,2,true,d,false,true,0.0-2.0-0.12-0.113-3.113,1,0,0,68,false,stim,false,0,587.3999999910593,0,0,1,52054,task3,386511,false,false,430,image-keyboard-response,17
true,5,2,1,1,false,z,true,false,0.0-2.0-0.12-0.114-3.114,1,0,0,68,false,stim,false,0,1042.0,0,0,2,52054,task3,389064,false,false,433,image-keyboard-response,18
true,5,1,1,2,false,d,true,false,0.0-2.0-0.12-0.115-3.115,1,0,0,90,false,stim,false,2,1285.7999999970198,0,1,0,52054,task3,391862,false,false,436,image-keyboard-response,19
true,5,0,1,1,false,z,false,false,0.0-2.0-0.12-0.116-3.116,1,0,0,81,false,stim,true,0,2270.3999999910593,0,1,2,52054,task3,395640,false,false,439,image-keyboard-response,20
true,5,2,1,2,true,d,false,true,0.0-2.0-0.13-0.117-3.117,1,0,0,68,false,stim,false,2,1402.4000000059605,0,1,0,52054,task3,398556,false,false,442,image-keyboard-response,21
true,5,1,1,1,true,z,false,true,0.0-2.0-0.13-0.118-3.118,1,0,0,90,false,stim,false,0,813.6999999880791,0,1,2,52054,task3,400876,false,false,445,image-keyboard-response,22
true,5,2,1,2,true,d,false,true,0.0-2.0-0.13-0.119-3.119,1,0,0,68,false,stim,false,0,1059.0,0,0,1,52054,task3,403444,false,false,448,image-keyboard-response,23
true,5,2,1,2,true,d,false,false,0.0-2.0-0.13-0.120-3.120,1,0,0,68,false,stim,false,0,721.0999999940395,0,0,1,52054,task3,405674,false,true,451,image-keyboard-response,24
true,6,2,2,2,true,d,false,true,0.0-2.0-0.13-0.121-3.121,1,0,1,68,true,stim,false,2,691.3999999910593,0,1,0,52054,task3,407876,false,false,454,image-keyboard-response,1
true,6,2,2,1,false,z,true,true,0.0-2.0-0.13-0.122-3.122,1,0,1,68,false,stim,false,1,634.7999999970198,0,1,2,52054,task3,410026,false,true,457,image-keyboard-response,2
true,6,2,2,2,true,d,false,true,0.0-2.0-0.13-0.123-3.123,1,0,1,68,false,stim,false,2,676.0,0,1,0,52054,task3,412216,false,false,460,image-keyboard-response,3
true,6,2,2,0,false,q,false,false,0.0-2.0-0.13-0.124-3.124,1,0,1,68,false,stim,true,2,852.2999999970198,0,0,1,52054,task3,414579,false,false,463,image-keyboard-response,4
true,6,2,2,1,false,z,true,false,0.0-2.0-0.13-0.125-3.125,1,0,1,68,false,stim,false,1,684.1000000089407,0,1,2,52054,task3,416777,false,false,466,image-keyboard-response,5
true,6,1,2,1,true,z,false,true,0.0-2.0-0.14-0.126-3.126,1,0,1,90,false,stim,false,1,547.7000000029802,0,1,2,52054,task3,418840,false,false,469,image-keyboard-response,6
true,6,2,2,2,true,d,false,true,0.0-2.0-0.14-0.127-3.127,1,0,1,68,false,stim,false,2,1313.8999999910593,0,1,0,52054,task3,421663,false,false,472,image-keyboard-response,7
true,6,2,2,0,false,q,false,false,0.0-2.0-0.14-0.128-3.128,1,0,1,68,false,stim,true,2,964.2999999970198,0,0,1,52054,task3,424142,false,false,475,image-keyboard-response,8
true,6,2,2,2,true,d,false,true,0.0-2.0-0.14-0.129-3.129,1,0,1,68,false,stim,false,2,1274.300000011921,0,1,0,52054,task3,426921,false,false,478,image-keyboard-response,9
true,6,1,2,1,true,z,false,true,0.0-2.0-0.14-0.130-3.130,1,0,1,90,false,stim,false,1,546.4000000059605,0,1,2,52054,task3,428979,false,false,481,image-keyboard-response,10
true,6,2,2,0,false,q,false,false,0.0-2.0-0.14-0.131-3.131,1,0,1,68,false,stim,true,2,778.4000000059605,0,0,1,52054,task3,431270,false,false,484,image-keyboard-response,11
true,6,1,2,1,true,z,false,true,0.0-2.0-0.14-0.132-3.132,1,0,1,90,false,stim,false,1,939.2999999970198,0,0,2,52054,task3,433723,false,false,487,image-keyboard-response,12
true,6,0,2,0,true,q,false,true,0.0-2.0-0.14-0.133-3.133,1,0,1,81,false,stim,false,2,410.29999999701977,0,1,1,52054,task3,435643,false,false,490,image-keyboard-response,13
true,6,2,2,2,true,d,false,true,0.0-2.0-0.14-0.134-3.134,1,0,1,68,false,stim,false,2,891.0999999940395,0,0,0,52054,task3,438049,false,false,493,image-keyboard-response,14
true,6,2,2,2,true,d,false,true,0.0-2.0-0.15-0.135-3.135,1,0,1,68,false,stim,false,2,1300.7000000029802,0,0,0,52054,task3,440865,false,false,496,image-keyboard-response,15
true,6,2,2,2,true,d,false,true,0.0-2.0-0.15-0.136-3.136,1,0,1,68,false,stim,false,2,605.5999999940395,0,0,0,52054,task3,442985,false,false,499,image-keyboard-response,16
true,7,0,1,0,true,q,false,true,0.0-2.0-0.15-0.137-3.137,0,1,0,81,true,stim,false,0,1457.5,0,1,1,52054,task3,445952,false,false,502,image-keyboard-response,1
true,7,2,1,0,false,q,true,false,0.0-2.0-0.15-0.138-3.138,0,1,0,68,false,stim,false,1,1028.5,0,0,2,52054,task3,448491,false,false,505,image-keyboard-response,2
true,7,1,1,0,false,q,false,false,0.0-2.0-0.15-0.139-3.139,0,1,0,90,false,stim,true,1,406.40000000596046,0,0,2,52054,task3,450408,false,false,508,image-keyboard-response,3
true,7,2,1,0,false,q,true,false,0.0-2.0-0.15-0.140-3.140,0,1,0,68,false,stim,false,0,1238.3999999910593,0,1,1,52054,task3,453157,false,false,511,image-keyboard-response,4
true,7,0,1,0,true,q,false,true,0.0-2.0-0.15-0.141-3.141,0,1,0,81,false,stim,false,0,359.0,0,1,1,52054,task3,455026,false,false,514,image-keyboard-response,5
true,7,2,1,1,false,z,false,false,0.0-2.0-0.15-0.142-3.142,0,1,0,68,false,stim,true,2,2177.800000011921,0,0,0,52054,task3,458713,false,false,517,image-keyboard-response,6
true,7,2,1,0,false,q,true,false,0.0-2.0-0.15-0.143-3.143,0,1,0,68,false,stim,false,1,1808.2000000029802,0,0,2,52054,task3,462035,false,false,520,image-keyboard-response,7
true,7,1,1,0,false,q,false,true,0.0-2.0-0.16-0.144-3.144,0,1,0,90,false,stim,true,1,433.20000000298023,0,0,2,52054,task3,463979,false,true,523,image-keyboard-response,8
true,7,1,1,0,false,q,false,false,0.0-2.0-0.16-0.145-3.145,0,1,0,90,false,stim,true,1,387.5,0,0,2,52054,task3,465879,false,false,526,image-keyboard-response,9
true,7,1,1,0,false,q,false,false,0.0-2.0-0.16-0.146-3.146,0,1,0,90,false,stim,true,1,335.79999999701977,0,0,2,52054,task3,467729,false,false,529,image-keyboard-response,10
true,7,0,1,0,true,q,false,true,0.0-2.0-0.16-0.147-3.147,0,1,0,81,false,stim,false,0,742.0,0,1,1,52054,task3,469982,false,false,532,image-keyboard-response,11
true,7,2,1,1,false,z,false,true,0.0-2.0-0.16-0.148-3.148,0,1,0,68,false,stim,true,2,1426.6000000089407,0,0,0,52054,task3,472919,false,true,535,image-keyboard-response,12
true,7,0,1,0,true,q,false,true,0.0-2.0-0.16-0.149-3.149,0,1,0,81,false,stim,false,0,950.3000000119209,0,1,1,52054,task3,475379,false,false,538,image-keyboard-response,13
true,7,0,1,0,true,q,false,true,0.0-2.0-0.16-0.150-3.150,0,1,0,81,false,stim,false,0,1152.2000000029802,0,1,1,52054,task3,478043,false,false,541,image-keyboard-response,14
true,7,2,1,1,false,z,false,false,0.0-2.0-0.16-0.151-3.151,0,1,0,68,false,stim,true,2,1146.1000000089407,0,0,0,52054,task3,480704,false,false,544,image-keyboard-response,15
true,7,2,1,1,false,z,false,false,0.0-2.0-0.16-0.152-3.152,0,1,0,68,false,stim,true,2,425.0,0,0,0,52054,task3,482639,false,false,547,image-keyboard-response,16
true,7,1,1,1,true,z,false,false,0.0-2.0-0.17-0.153-3.153,0,1,0,90,false,stim,false,2,366.29999999701977,0,0,0,52054,task3,484531,false,true,550,image-keyboard-response,17
true,7,0,1,1,false,z,true,false,0.0-2.0-0.17-0.154-3.154,0,1,0,81,false,stim,false,2,353.40000000596046,0,0,0,52054,task3,486398,false,false,553,image-keyboard-response,18
true,7,0,1,0,true,q,false,true,0.0-2.0-0.17-0.155-3.155,0,1,0,81,false,stim,false,0,689.8000000119209,0,1,1,52054,task3,488601,false,false,556,image-keyboard-response,19
true,7,1,1,0,false,q,false,false,0.0-2.0-0.17-0.156-3.156,0,1,0,90,false,stim,true,1,1149.2000000029802,0,0,2,52054,task3,491265,false,false,559,image-keyboard-response,20
true,7,2,1,0,false,q,true,false,0.0-2.0-0.17-0.157-3.157,0,1,0,68,false,stim,false,1,513.3000000119209,0,0,2,52054,task3,493291,false,false,562,image-keyboard-response,21
true,7,0,1,1,false,z,true,false,0.0-2.0-0.17-0.158-3.158,0,1,0,81,false,stim,false,2,550.1000000089407,0,0,0,52054,task3,495350,false,false,565,image-keyboard-response,22
true,7,0,1,0,true,q,false,true,0.0-2.0-0.17-0.159-3.159,0,1,0,81,false,stim,false,0,688.2999999970198,0,1,1,52054,task3,497548,false,false,568,image-keyboard-response,23
true,7,0,1,0,true,q,false,true,0.0-2.0-0.17-0.160-3.160,0,1,0,81,false,stim,false,1,2003.9000000059605,0,0,2,52054,task3,501067,false,false,571,image-keyboard-response,24
true,7,0,1,0,true,q,false,true,0.0-2.0-0.17-0.161-3.161,0,1,0,81,false,stim,false,0,976.5999999940395,0,1,1,52054,task3,503556,false,false,574,image-keyboard-response,25
true,7,0,1,0,true,q,false,true,0.0-2.0-0.18-0.162-3.162,0,1,0,81,false,stim,false,0,504.29999999701977,0,1,1,52054,task3,505575,false,false,577,image-keyboard-response,26
true,7,0,1,0,true,q,false,true,0.0-2.0-0.18-0.163-3.163,0,1,0,81,false,stim,false,0,370.6000000089407,0,1,1,52054,task3,507460,false,false,580,image-keyboard-response,27
true,7,0,1,0,true,q,false,true,0.0-2.0-0.18-0.164-3.164,0,1,0,81,false,stim,false,1,1572.4000000059605,0,0,2,52054,task3,510547,false,false,583,image-keyboard-response,28
true,7,0,1,0,true,q,false,true,0.0-2.0-0.18-0.165-3.165,0,1,0,81,false,stim,false,1,423.80000001192093,0,0,2,52054,task3,512486,false,false,586,image-keyboard-response,29
true,8,2,2,1,false,z,true,false,0.0-2.0-0.18-0.166-3.166,1,1,0,68,true,stim,false,1,1567.5,0,1,0,52054,task3,515561,false,false,589,image-keyboard-response,1
true,8,0,2,0,true,q,false,true,0.0-2.0-0.18-0.167-3.167,1,1,0,81,false,stim,false,0,762.5999999940395,0,1,1,52054,task3,517838,false,false,592,image-keyboard-response,2
true,8,0,2,1,false,z,true,false,0.0-2.0-0.18-0.168-3.168,1,1,0,81,false,stim,false,1,795.0,0,1,0,52054,task3,520143,false,false,595,image-keyboard-response,3
true,8,0,2,1,false,z,false,false,0.0-2.0-0.18-0.169-3.169,1,1,0,81,false,stim,true,0,659.0999999940395,0,0,2,52054,task3,522316,false,false,598,image-keyboard-response,4
true,8,2,2,1,false,z,true,false,0.0-2.0-0.18-0.170-3.170,1,1,0,68,false,stim,false,1,1838.8999999910593,0,1,0,52054,task3,525673,false,false,601,image-keyboard-response,5
true,8,0,2,0,true,q,false,true,0.0-2.0-0.19-0.171-3.171,1,1,0,81,false,stim,false,0,1794.9000000059605,0,1,1,52054,task3,528982,false,false,604,image-keyboard-response,6
true,8,1,2,1,true,z,false,true,0.0-2.0-0.19-0.172-3.172,1,1,0,90,false,stim,false,0,852.5999999940395,0,0,2,52054,task3,531345,false,false,607,image-keyboard-response,7
true,8,1,2,1,true,z,false,true,0.0-2.0-0.19-0.173-3.173,1,1,0,90,false,stim,false,0,521.6999999880791,0,0,2,52054,task3,533379,false,false,610,image-keyboard-response,8
true,8,0,2,1,false,z,true,false,0.0-2.0-0.19-0.174-3.174,1,1,0,81,false,stim,false,1,665.8999999910593,0,1,0,52054,task3,535552,false,false,613,image-keyboard-response,9
true,8,2,2,1,false,z,true,true,0.0-2.0-0.19-0.175-3.175,1,1,0,68,false,stim,false,1,1626.2000000029802,0,1,0,52054,task3,538683,false,true,616,image-keyboard-response,10
true,8,1,2,1,true,z,false,true,0.0-2.0-0.19-0.176-3.176,1,1,0,90,false,stim,false,0,1005.9000000059605,0,0,2,52054,task3,541199,false,false,619,image-keyboard-response,11
true,8,0,2,0,true,q,false,true,0.0-2.0-0.19-0.177-3.177,1,1,0,81,false,stim,false,0,681.1000000089407,0,1,1,52054,task3,543389,false,false,622,image-keyboard-response,12
true,8,0,2,0,true,q,false,true,0.0-2.0-0.19-0.178-3.178,1,1,0,81,false,stim,false,0,470.3999999910593,0,1,1,52054,task3,545373,false,false,625,image-keyboard-response,13
true,8,2,2,1,false,z,true,false,0.0-2.0-0.19-0.179-3.179,1,1,0,68,false,stim,false,1,1145.1000000089407,0,1,0,52054,task3,548034,false,false,628,image-keyboard-response,14
true,8,0,2,0,true,q,false,false,0.0-2.0-0.20-0.180-3.180,1,1,0,81,false,stim,false,0,718.2000000029802,0,1,1,52054,task3,550258,false,true,631,image-keyboard-response,15
true,8,1,2,1,true,z,false,true,0.0-2.0-0.20-0.181-3.181,1,1,0,90,false,stim,false,1,808.0,0,1,0,52054,task3,552576,false,false,634,image-keyboard-response,16
true,8,1,2,1,true,z,false,true,0.0-2.0-0.20-0.182-3.182,1,1,0,90,false,stim,false,1,522.4000000059605,0,1,0,52054,task3,554610,false,false,637,image-keyboard-response,17
true,8,0,2,0,true,q,false,true,0.0-2.0-0.20-0.183-3.183,1,1,0,81,false,stim,false,0,2452.0,0,1,1,52054,task3,558568,false,false,640,image-keyboard-response,18
true,8,1,2,1,true,z,false,true,0.0-2.0-0.20-0.184-3.184,1,1,0,90,false,stim,false,1,1468.7000000029802,0,1,0,52054,task3,561548,false,false,643,image-keyboard-response,19
true,8,1,2,1,true,z,false,true,0.0-2.0-0.20-0.185-3.185,1,1,0,90,false,stim,false,0,1622.2000000029802,0,0,2,52054,task3,564684,false,false,646,image-keyboard-response,20
true,8,1,2,1,true,z,false,true,0.0-2.0-0.20-0.186-3.186,1,1,0,90,false,stim,false,0,468.09999999403954,0,0,2,52054,task3,566658,false,false,649,image-keyboard-response,21
true,8,1,2,1,true,z,false,true,0.0-2.0-0.20-0.187-3.187,1,1,0,90,false,stim,false,0,367.40000000596046,0,0,2,52054,task3,568552,false,false,652,image-keyboard-response,22
true,8,0,2,0,true,q,false,true,0.0-2.0-0.20-0.188-3.188,1,1,0,81,false,stim,false,0,999.5,0,1,1,52054,task3,571058,false,false,655,image-keyboard-response,23
true,8,1,2,1,true,z,false,true,0.0-2.0-0.21-0.189-3.189,1,1,0,90,false,stim,false,1,1317.7000000029802,0,0,0,52054,task3,573883,false,false,658,image-keyboard-response,24
true,8,0,2,0,true,q,false,true,0.0-2.0-0.21-0.190-3.190,1,1,0,81,false,stim,false,0,870.1999999880791,0,1,1,52054,task3,576264,false,false,661,image-keyboard-response,25
true,9,1,1,2,false,d,false,false,0.0-2.0-0.21-0.191-3.191,0,1,0,90,true,stim,true,1,875.3999999910593,0,0,2,52054,task3,578650,false,false,664,image-keyboard-response,1
true,9,1,1,0,false,q,false,false,0.0-2.0-0.21-0.192-3.192,0,1,0,90,false,stim,true,1,986.5,0,0,0,52054,task3,581146,false,false,667,image-keyboard-response,2
true,9,0,1,0,true,q,false,true,0.0-2.0-0.21-0.193-3.193,0,1,0,81,false,stim,false,0,796.7999999970198,0,1,1,52054,task3,583452,false,false,670,image-keyboard-response,3
true,9,1,1,2,false,d,false,false,0.0-2.0-0.21-0.194-3.194,0,1,0,90,false,stim,true,1,2092.2000000029802,0,0,2,52054,task3,587054,false,false,673,image-keyboard-response,4
true,9,2,1,2,true,d,false,true,0.0-2.0-0.21-0.195-3.195,0,1,0,68,false,stim,false,1,1075.5999999940395,0,0,2,52054,task3,589646,false,false,676,image-keyboard-response,5
true,9,1,1,0,false,q,false,false,0.0-2.0-0.21-0.196-3.196,0,1,0,90,false,stim,true,1,688.5999999940395,0,0,0,52054,task3,591839,false,false,679,image-keyboard-response,6
true,9,0,1,0,true,q,false,true,0.0-2.0-0.21-0.197-3.197,0,1,0,81,false,stim,false,0,1679.7999999970198,0,1,1,52054,task3,595029,false,false,682,image-keyboard-response,7
true,9,2,1,2,true,d,false,true,0.0-2.0-0.22-0.198-3.198,0,1,0,68,false,stim,false,1,1102.5999999940395,0,0,2,52054,task3,597643,false,false,685,image-keyboard-response,8
true,9,2,1,0,false,q,true,false,0.0-2.0-0.22-0.199-3.199,0,1,0,68,false,stim,false,1,1497.7999999970198,0,0,0,52054,task3,600645,false,false,688,image-keyboard-response,9
true,9,0,1,0,true,q,false,true,0.0-2.0-0.22-0.200-3.200,0,1,0,81,false,stim,false,0,874.7999999970198,0,1,1,52054,task3,603031,false,false,691,image-keyboard-response,10
true,9,1,1,0,false,q,false,false,0.0-2.0-0.22-0.201-3.201,0,1,0,90,false,stim,true,1,546.9000000059605,0,0,0,52054,task3,605093,false,false,694,image-keyboard-response,11
true,9,2,1,0,false,q,true,false,0.0-2.0-0.22-0.202-3.202,0,1,0,68,false,stim,false,1,499.19999998807907,0,0,0,52054,task3,607105,false,false,697,image-keyboard-response,12
true,9,1,1,2,false,d,false,false,0.0-2.0-0.22-0.203-3.203,0,1,0,90,false,stim,true,1,1531.2999999970198,0,0,2,52054,task3,610140,false,false,700,image-keyboard-response,13
true,9,0,1,0,true,q,false,true,0.0-2.0-0.22-0.204-3.204,0,1,0,81,false,stim,false,0,580.1999999880791,0,1,1,52054,task3,612231,false,false,703,image-keyboard-response,14
true,9,0,1,0,true,q,false,true,0.0-2.0-0.22-0.205-3.205,0,1,0,81,false,stim,false,0,635.3999999910593,0,1,1,52054,task3,614376,false,false,706,image-keyboard-response,15
true,9,2,1,2,true,d,false,true,0.0-2.0-0.22-0.206-3.206,0,1,0,68,false,stim,false,1,655.4000000059605,0,0,2,52054,task3,616542,false,false,709,image-keyboard-response,16
true,9,2,1,2,true,d,false,true,0.0-2.0-0.23-0.207-3.207,0,1,0,68,false,stim,false,1,400.29999999701977,0,0,2,52054,task3,618452,false,false,712,image-keyboard-response,17
true,9,0,1,0,true,q,false,true,0.0-2.0-0.23-0.208-3.208,0,1,0,81,false,stim,false,0,683.9000000059605,0,1,1,52054,task3,620646,false,false,715,image-keyboard-response,18
true,9,2,1,2,true,d,false,true,0.0-2.0-0.23-0.209-3.209,0,1,0,68,false,stim,false,1,359.0,0,0,2,52054,task3,622514,false,false,718,image-keyboard-response,19
true,9,0,1,0,true,q,false,true,0.0-2.0-0.23-0.210-3.210,0,1,0,81,false,stim,false,1,929.5,0,0,0,52054,task3,624959,false,false,721,image-keyboard-response,20
true,9,2,1,2,true,d,false,true,0.0-2.0-0.23-0.211-3.211,0,1,0,68,false,stim,false,1,468.0,0,1,2,52054,task3,626937,false,false,724,image-keyboard-response,21
true,9,0,1,0,true,q,false,true,0.0-2.0-0.23-0.212-3.212,0,1,0,81,false,stim,false,1,741.5,0,0,0,52054,task3,629192,false,false,727,image-keyboard-response,22
true,9,1,1,0,false,q,true,false,0.0-2.0-0.23-0.213-3.213,0,1,0,90,false,stim,false,0,2349.7000000029802,0,1,1,52054,task3,633052,false,false,730,image-keyboard-response,23
true,9,2,1,0,false,q,true,false,0.0-2.0-0.23-0.214-3.214,0,1,0,68,false,stim,false,1,1156.0,0,0,0,52054,task3,635718,false,false,733,image-keyboard-response,24
true,9,0,1,0,true,q,false,true,0.0-2.0-0.23-0.215-3.215,0,1,0,81,false,stim,false,0,683.0999999940395,0,1,1,52054,task3,637913,false,false,736,image-keyboard-response,25
true,10,2,2,2,true,d,false,true,0.0-2.0-0.24-0.216-3.216,0,1,1,68,true,stim,false,0,1367.199999988079,0,0,0,52054,task3,640788,false,false,739,image-keyboard-response,1
true,10,2,2,2,true,d,false,true,0.0-2.0-0.24-0.217-3.217,0,1,1,68,false,stim,false,0,560.5999999940395,0,0,0,52054,task3,642857,false,false,742,image-keyboard-response,2
true,10,0,2,0,true,q,false,true,0.0-2.0-0.24-0.218-3.218,0,1,1,81,false,stim,false,0,621.7999999970198,0,1,1,52054,task3,644993,false,false,745,image-keyboard-response,3
true,10,2,2,2,true,d,false,false,0.0-2.0-0.24-0.219-3.219,0,1,1,68,false,stim,false,2,1510.6000000089407,0,1,2,52054,task3,648019,false,true,748,image-keyboard-response,4
true,10,2,2,2,true,d,false,true,0.0-2.0-0.24-0.220-3.220,0,1,1,68,false,stim,false,2,939.3999999910593,0,1,2,52054,task3,650472,false,false,751,image-keyboard-response,5
true,10,2,2,2,true,d,false,true,0.0-2.0-0.24-0.221-3.221,0,1,1,68,false,stim,false,2,378.40000000596046,0,1,2,52054,task3,652366,false,false,754,image-keyboard-response,6
true,10,0,2,2,false,d,false,false,0.0-2.0-0.24-0.222-3.222,0,1,1,81,false,stim,true,0,727.7000000029802,0,0,0,52054,task3,654604,false,false,757,image-keyboard-response,7
true,10,0,2,0,true,q,false,true,0.0-2.0-0.24-0.223-3.223,0,1,1,81,false,stim,false,0,628.7000000029802,0,1,1,52054,task3,656744,false,false,760,image-keyboard-response,8
true,10,0,2,0,true,q,false,true,0.0-2.0-0.24-0.224-3.224,0,1,1,81,false,stim,false,0,484.3999999910593,0,1,1,52054,task3,658738,false,false,763,image-keyboard-response,9
true,10,2,2,2,true,d,false,true,0.0-2.0-0.25-0.225-3.225,0,1,1,68,false,stim,false,2,500.09999999403954,0,1,2,52054,task3,660747,false,false,766,image-keyboard-response,10
true,10,1,2,2,false,d,true,false,0.0-2.0-0.25-0.226-3.226,0,1,1,90,false,stim,false,0,389.59999999403954,0,0,0,52054,task3,662642,false,false,769,image-keyboard-response,11
true,10,0,2,2,false,d,false,false,0.0-2.0-0.25-0.227-3.227,0,1,1,81,false,stim,true,0,665.7000000029802,0,0,0,52054,task3,664818,false,false,772,image-keyboard-response,12
true,10,2,2,2,true,d,false,true,0.0-2.0-0.25-0.228-3.228,0,1,1,68,false,stim,false,0,325.5,0,0,0,52054,task3,666658,false,false,775,image-keyboard-response,13
true,10,2,2,2,true,d,false,true,0.0-2.0-0.25-0.229-3.229,0,1,1,68,false,stim,false,2,510.09999999403954,0,1,2,52054,task3,668673,false,false,778,image-keyboard-response,14
true,10,0,2,0,true,q,false,true,0.0-2.0-0.25-0.230-3.230,0,1,1,81,false,stim,false,0,517.7999999970198,0,1,1,52054,task3,670699,false,false,781,image-keyboard-response,15
true,10,0,2,0,true,q,false,true,0.0-2.0-0.25-0.231-3.231,0,1,1,81,false,stim,false,0,632.0999999940395,0,1,1,52054,task3,672843,false,false,784,image-keyboard-response,16
true,10,2,2,2,true,d,false,true,0.0-2.0-0.25-0.232-3.232,0,1,1,68,false,stim,false,2,883.7000000029802,0,1,2,52054,task3,675237,false,false,787,image-keyboard-response,17
true,10,2,2,0,false,q,true,false,0.0-2.0-0.25-0.233-3.233,0,1,1,68,false,stim,false,0,1668.2000000029802,0,1,1,52054,task3,678416,false,false,790,image-keyboard-response,18
true,10,0,2,0,true,q,false,true,0.0-2.0-0.26-0.234-3.234,0,1,1,81,false,stim,false,0,420.79999999701977,0,1,1,52054,task3,680347,false,false,793,image-keyboard-response,19
true,10,0,2,0,true,q,false,true,0.0-2.0-0.26-0.235-3.235,0,1,1,81,false,stim,false,0,347.79999999701977,0,0,1,52054,task3,682204,false,false,796,image-keyboard-response,20
true,10,0,2,0,true,q,false,true,0.0-2.0-0.26-0.236-3.236,0,1,1,81,false,stim,false,0,317.20000000298023,0,0,1,52054,task3,684032,false,false,799,image-keyboard-response,21
true,10,2,2,2,true,d,false,true,0.0-2.0-0.26-0.237-3.237,0,1,1,68,false,stim,false,2,1177.300000011921,0,1,2,52054,task3,686728,false,false,802,image-keyboard-response,22
true,10,2,2,2,true,d,false,true,0.0-2.0-0.26-0.238-3.238,0,1,1,68,false,stim,false,0,795.5,0,0,0,52054,task3,689033,false,false,805,image-keyboard-response,23
true,10,2,2,2,true,d,false,true,0.0-2.0-0.26-0.239-3.239,0,1,1,68,false,stim,false,0,732.3000000119209,0,0,0,52054,task3,691271,false,false,808,image-keyboard-response,24
true,11,2,1,2,true,d,false,true,0.0-2.0-0.26-0.240-3.240,0,0,1,68,true,stim,false,2,530.8999999910593,0,1,2,52054,task3,693313,false,false,811,image-keyboard-response,1
true,11,2,1,0,false,q,false,false,0.0-2.0-0.26-0.241-3.241,0,0,1,68,false,stim,true,2,460.59999999403954,0,0,0,52054,task3,695288,false,false,814,image-keyboard-response,2
true,11,2,1,2,true,d,false,true,0.0-2.0-0.26-0.242-3.242,0,0,1,68,false,stim,false,2,1049.2000000029802,0,1,2,52054,task3,697852,false,false,817,image-keyboard-response,3
true,11,2,1,0,false,q,false,false,0.0-2.0-0.27-0.243-3.243,0,0,1,68,false,stim,true,2,526.4000000059605,0,0,0,52054,task3,699890,false,false,820,image-keyboard-response,4
true,11,0,1,2,false,d,false,false,0.0-2.0-0.27-0.244-3.244,0,0,1,81,false,stim,true,0,602.1999999880791,0,0,1,52054,task3,701998,false,false,823,image-keyboard-response,5
true,11,2,1,2,true,d,false,true,0.0-2.0-0.27-0.245-3.245,0,0,1,68,false,stim,false,2,807.0,0,1,2,52054,task3,704318,false,false,826,image-keyboard-response,6
true,11,0,1,0,true,q,false,false,0.0-2.0-0.27-0.246-3.246,0,0,1,81,false,stim,false,2,1209.0,0,0,0,52054,task3,707035,false,true,829,image-keyboard-response,7
true,11,0,1,2,false,d,false,false,0.0-2.0-0.27-0.247-3.247,0,0,1,81,false,stim,true,0,858.0,0,0,1,52054,task3,709405,false,false,832,image-keyboard-response,8
true,11,1,1,0,false,q,true,false,0.0-2.0-0.27-0.248-3.248,0,0,1,90,false,stim,false,2,732.1000000089407,0,0,0,52054,task3,711647,false,false,835,image-keyboard-response,9
true,11,1,1,2,false,d,true,false,0.0-2.0-0.27-0.249-3.249,0,0,1,90,false,stim,false,0,1152.2999999970198,0,0,1,52054,task3,714311,false,false,838,image-keyboard-response,10
true,11,2,1,2,true,d,false,true,0.0-2.0-0.27-0.250-3.250,0,0,1,68,false,stim,false,2,1001.4000000059605,0,1,2,52054,task3,716826,false,false,841,image-keyboard-response,11
true,11,2,1,2,true,d,false,true,0.0-2.0-0.27-0.251-3.251,0,0,1,68,false,stim,false,2,603.7999999970198,0,1,2,52054,task3,718941,false,false,844,image-keyboard-response,12
true,11,2,1,2,true,d,false,true,0.0-2.0-0.28-0.252-3.252,0,0,1,68,false,stim,false,0,560.7999999970198,0,0,1,52054,task3,721012,false,false,847,image-keyboard-response,13
true,11,2,1,2,true,d,false,true,0.0-2.0-0.28-0.253-3.253,0,0,1,68,false,stim,false,2,396.70000000298023,0,1,2,52054,task3,722915,false,false,850,image-keyboard-response,14
true,11,2,1,0,false,q,false,false,0.0-2.0-0.28-0.254-3.254,0,0,1,68,false,stim,true,2,909.5,0,0,0,52054,task3,725334,false,false,853,image-keyboard-response,15
true,11,2,1,2,true,d,false,false,0.0-2.0-0.28-0.255-3.255,0,0,1,68,false,stim,false,2,636.9000000059605,0,1,2,52054,task3,727481,false,true,856,image-keyboard-response,16
true,11,2,1,2,true,d,false,true,0.0-2.0-0.28-0.256-3.256,0,0,1,68,false,stim,false,2,591.6999999880791,0,1,2,52054,task3,729588,false,false,859,image-keyboard-response,17
true,11,0,1,0,true,q,false,true,0.0-2.0-0.28-0.257-3.257,0,0,1,81,false,stim,false,2,911.8999999910593,0,0,0,52054,task3,732008,false,false,862,image-keyboard-response,18
true,11,0,1,0,true,q,false,true,0.0-2.0-0.28-0.258-3.258,0,0,1,81,false,stim,false,2,463.20000000298023,0,0,0,52054,task3,733981,false,false,865,image-keyboard-response,19
true,11,2,1,2,true,d,false,true,0.0-2.0-0.28-0.259-3.259,0,0,1,68,false,stim,false,0,642.5,0,0,1,52054,task3,736128,false,false,868,image-keyboard-response,20
true,11,2,1,2,true,d,false,true,0.0-2.0-0.28-0.260-3.260,0,0,1,68,false,stim,false,0,736.5,0,0,1,52054,task3,738380,false,false,871,image-keyboard-response,21
true,11,2,1,2,true,d,false,true,0.0-2.0-0.29-0.261-3.261,0,0,1,68,false,stim,false,2,606.8999999910593,0,1,2,52054,task3,740495,false,false,874,image-keyboard-response,22
true,11,2,1,0,false,q,false,false,0.0-2.0-0.29-0.262-3.262,0,0,1,68,false,stim,true,2,766.0999999940395,0,0,0,52054,task3,742771,false,false,877,image-keyboard-response,23
true,11,2,1,2,true,d,false,true,0.0-2.0-0.29-0.263-3.263,0,0,1,68,false,stim,false,0,636.0,0,0,1,52054,task3,744917,false,false,880,image-keyboard-response,24
true,12,2,1,1,false,z,false,false,0.0-2.0-0.29-0.264-3.264,0,0,1,68,true,stim,true,2,656.0,0,0,1,52054,task3,747080,false,false,883,image-keyboard-response,1
true,12,1,1,1,true,z,false,true,0.0-2.0-0.29-0.265-3.265,0,0,1,90,false,stim,false,2,926.0999999940395,0,0,1,52054,task3,749516,false,false,886,image-keyboard-response,2
true,12,2,1,2,true,d,false,true,0.0-2.0-0.29-0.266-3.266,0,0,1,68,false,stim,false,2,832.2000000029802,0,1,2,52054,task3,751863,false,false,889,image-keyboard-response,3
true,12,0,1,1,false,z,false,true,0.0-2.0-0.29-0.267-3.267,0,0,1,81,false,stim,true,0,674.7999999970198,0,0,0,52054,task3,754048,false,true,892,image-keyboard-response,4
true,12,2,1,2,true,d,false,true,0.0-2.0-0.29-0.268-3.268,0,0,1,68,false,stim,false,2,631.2999999970198,0,1,2,52054,task3,756190,false,false,895,image-keyboard-response,5
true,12,1,1,1,true,z,false,false,0.0-2.0-0.29-0.269-3.269,0,0,1,90,false,stim,false,0,1138.0,0,0,0,52054,task3,758843,false,true,898,image-keyboard-response,6
true,12,2,1,2,true,d,false,true,0.0-2.0-0.30-0.270-3.270,0,0,1,68,false,stim,false,2,1121.2999999970198,0,1,2,52054,task3,761483,false,false,901,image-keyboard-response,7
true,12,0,1,1,false,z,false,false,0.0-2.0-0.30-0.271-3.271,0,0,1,81,false,stim,true,0,628.2000000029802,0,0,0,52054,task3,763626,false,false,904,image-keyboard-response,8
true,12,2,1,2,true,d,false,true,0.0-2.0-0.30-0.272-3.272,0,0,1,68,false,stim,false,2,716.8999999910593,0,1,2,52054,task3,765858,false,false,907,image-keyboard-response,9
true,12,1,1,1,true,z,false,false,0.0-2.0-0.30-0.273-3.273,0,0,1,90,false,stim,false,2,859.8999999910593,0,0,1,52054,task3,768232,false,true,910,image-keyboard-response,10
true,12,0,1,1,false,z,false,false,0.0-2.0-0.30-0.274-3.274,0,0,1,81,false,stim,true,0,1315.2000000029802,0,0,0,52054,task3,771053,false,false,913,image-keyboard-response,11
true,12,1,1,1,true,z,false,true,0.0-2.0-0.30-0.275-3.275,0,0,1,90,false,stim,false,0,568.0,0,0,0,52054,task3,773136,false,false,916,image-keyboard-response,12
true,12,2,1,2,true,d,false,true,0.0-2.0-0.30-0.276-3.276,0,0,1,68,false,stim,false,2,625.8000000119209,0,1,2,52054,task3,775277,false,false,919,image-keyboard-response,13
true,12,0,1,1,false,z,true,false,0.0-2.0-0.30-0.277-3.277,0,0,1,81,false,stim,false,2,2252.5,0,0,1,52054,task3,779041,false,false,922,image-keyboard-response,14
true,12,2,1,1,false,z,false,false,0.0-2.0-0.30-0.278-3.278,0,0,1,68,false,stim,true,2,983.1000000089407,0,0,1,52054,task3,781538,false,false,925,image-keyboard-response,15
true,12,1,1,1,true,z,false,false,0.0-2.0-0.31-0.279-3.279,0,0,1,90,false,stim,false,0,523.2999999970198,0,0,0,52054,task3,783571,false,true,928,image-keyboard-response,16
true,12,2,1,2,true,d,false,true,0.0-2.0-0.31-0.280-3.280,0,0,1,68,false,stim,false,2,674.2000000029802,0,1,2,52054,task3,785755,false,false,931,image-keyboard-response,17
true,12,0,1,1,false,z,false,false,0.0-2.0-0.31-0.281-3.281,0,0,1,81,false,stim,true,0,471.09999999403954,0,0,0,52054,task3,787736,false,false,934,image-keyboard-response,18
true,12,2,1,2,true,d,false,true,0.0-2.0-0.31-0.282-3.282,0,0,1,68,false,stim,false,2,975.0999999940395,0,1,2,52054,task3,790218,false,false,937,image-keyboard-response,19
true,12,2,1,1,false,z,true,false,0.0-2.0-0.31-0.283-3.283,0,0,1,68,false,stim,false,0,632.5999999940395,0,0,0,52054,task3,792362,false,false,940,image-keyboard-response,20
true,12,2,1,2,true,d,false,true,0.0-2.0-0.31-0.284-3.284,0,0,1,68,false,stim,false,2,733.7999999970198,0,1,2,52054,task3,794609,false,false,943,image-keyboard-response,21
true,12,0,1,1,false,z,true,false,0.0-2.0-0.31-0.285-3.285,0,0,1,81,false,stim,false,2,2574.5,0,0,1,52054,task3,798692,false,false,946,image-keyboard-response,22
true,12,2,1,1,false,z,false,false,0.0-2.0-0.31-0.286-3.286,0,0,1,68,false,stim,true,2,414.0,0,1,1,52054,task3,800613,false,false,949,image-keyboard-response,23
true,12,1,1,1,true,z,false,true,0.0-2.0-0.31-0.287-3.287,0,0,1,90,false,stim,false,2,376.0,0,1,1,52054,task3,802497,false,false,952,image-keyboard-response,24
true,12,1,1,1,true,z,false,true,0.0-2.0-0.32-0.288-3.288,0,0,1,90,false,stim,false,2,339.29999999701977,0,1,1,52054,task3,804343,false,false,955,image-keyboard-response,25
true,12,1,1,1,true,z,false,false,0.0-2.0-0.32-0.289-3.289,0,0,1,90,false,stim,false,2,309.70000000298023,0,1,1,52054,task3,806164,false,true,958,image-keyboard-response,26
true,12,1,1,1,true,z,false,false,0.0-2.0-0.32-0.290-3.290,0,0,1,90,false,stim,false,0,1509.699999988079,0,0,0,52054,task3,809186,false,true,961,image-keyboard-response,27
true,13,2,2,2,true,d,false,true,0.0-2.0-0.32-0.291-3.291,0,1,1,68,true,stim,false,2,731.3000000119209,0,1,2,52054,task3,811433,false,false,964,image-keyboard-response,1
true,13,2,2,2,true,d,false,true,0.0-2.0-0.32-0.292-3.292,0,1,1,68,false,stim,false,2,613.2999999970198,0,1,2,52054,task3,813556,false,false,967,image-keyboard-response,2
true,13,1,2,1,true,z,false,true,0.0-2.0-0.32-0.293-3.293,0,1,1,90,false,stim,false,1,1341.9000000059605,0,1,1,52054,task3,816414,false,false,970,image-keyboard-response,3
true,13,2,2,2,true,d,false,true,0.0-2.0-0.32-0.294-3.294,0,1,1,68,false,stim,false,2,967.4000000059605,0,1,2,52054,task3,818896,false,false,973,image-keyboard-response,4
true,13,2,2,0,false,q,true,false,0.0-2.0-0.32-0.295-3.295,0,1,1,68,false,stim,false,1,875.0,0,0,0,52054,task3,821282,false,false,976,image-keyboard-response,5
true,13,0,2,0,true,q,false,true,0.0-2.0-0.32-0.296-3.296,0,1,1,81,false,stim,false,1,496.59999999403954,0,0,0,52054,task3,823289,false,false,979,image-keyboard-response,6
true,13,2,2,2,true,d,false,true,0.0-2.0-0.33-0.297-3.297,0,1,1,68,false,stim,false,2,1132.8999999910593,0,1,2,52054,task3,825934,false,false,982,image-keyboard-response,7
true,13,0,2,0,true,q,false,true,0.0-2.0-0.33-0.298-3.298,0,1,1,81,false,stim,false,1,440.59999999403954,0,0,0,52054,task3,827881,false,false,985,image-keyboard-response,8
true,13,1,2,1,true,z,false,false,0.0-2.0-0.33-0.299-3.299,0,1,1,90,false,stim,false,1,1738.5999999940395,0,1,1,52054,task3,831135,false,true,988,image-keyboard-response,9
true,13,0,2,0,true,q,false,true,0.0-2.0-0.33-0.300-3.300,0,1,1,81,false,stim,false,1,733.8000000119209,0,1,0,52054,task3,833385,false,false,991,image-keyboard-response,10
true,13,2,2,1,false,z,true,false,0.0-2.0-0.33-0.301-3.301,0,1,1,68,false,stim,false,1,1608.5,0,1,1,52054,task3,836503,false,false,994,image-keyboard-response,11
true,13,0,2,0,true,q,false,true,0.0-2.0-0.33-0.302-3.302,0,1,1,81,false,stim,false,1,828.5999999940395,0,1,0,52054,task3,838846,false,false,997,image-keyboard-response,12
true,13,2,2,2,true,d,false,true,0.0-2.0-0.33-0.303-3.303,0,1,1,68,false,stim,false,2,931.5999999940395,0,0,2,52054,task3,841289,false,false,1000,image-keyboard-response,13
true,14,2,2,1,false,z,true,false,0.0-2.0-0.33-0.304-3.304,1,1,0,68,true,stim,false,1,687.3999999910593,0,1,1,52054,task3,843492,false,false,1003,image-keyboard-response,1
true,14,2,2,1,false,z,false,false,0.0-2.0-0.33-0.305-3.305,1,1,0,68,false,stim,true,2,1169.5999999940395,0,0,2,52054,task3,846170,false,false,1006,image-keyboard-response,2
true,14,1,2,1,true,z,false,true,0.0-2.0-0.34-0.306-3.306,1,1,0,90,false,stim,false,2,493.09999999403954,0,0,2,52054,task3,848173,false,false,1009,image-keyboard-response,3
true,14,0,2,0,true,q,false,true,0.0-2.0-0.34-0.307-3.307,1,1,0,81,false,stim,false,0,840.4000000059605,0,1,0,52054,task3,850529,false,false,1012,image-keyboard-response,4
true,14,1,2,1,true,z,false,true,0.0-2.0-0.34-0.308-3.308,1,1,0,90,false,stim,false,1,419.59999999403954,0,1,1,52054,task3,852464,false,false,1015,image-keyboard-response,5
true,14,1,2,1,true,z,false,false,0.0-2.0-0.34-0.309-3.309,1,1,0,90,false,stim,false,2,606.0,0,0,2,52054,task3,854582,false,true,1018,image-keyboard-response,6
true,14,2,2,1,false,z,false,true,0.0-2.0-0.34-0.310-3.310,1,1,0,68,false,stim,true,2,740.0,0,0,2,52054,task3,856832,false,true,1021,image-keyboard-response,7
true,14,1,2,1,true,z,false,true,0.0-2.0-0.34-0.311-3.311,1,1,0,90,false,stim,false,1,551.2000000029802,0,1,1,52054,task3,858896,false,false,1024,image-keyboard-response,8
true,14,0,2,0,true,q,false,true,0.0-2.0-0.34-0.312-3.312,1,1,0,81,false,stim,false,0,737.7999999970198,0,1,0,52054,task3,861149,false,false,1027,image-keyboard-response,9
true,14,1,2,1,true,z,false,true,0.0-2.0-0.34-0.313-3.313,1,1,0,90,false,stim,false,1,639.2000000029802,0,1,1,52054,task3,863299,false,false,1030,image-keyboard-response,10
true,14,0,2,0,true,q,false,true,0.0-2.0-0.34-0.314-3.314,1,1,0,81,false,stim,false,0,1739.7999999970198,0,0,0,52054,task3,866555,false,false,1033,image-keyboard-response,11
true,14,2,2,1,false,z,false,false,0.0-2.0-0.35-0.315-3.315,1,1,0,68,false,stim,true,2,1222.8999999910593,0,1,2,52054,task3,869291,false,false,1036,image-keyboard-response,12
true,14,1,2,1,true,z,false,true,0.0-2.0-0.35-0.316-3.316,1,1,0,90,false,stim,false,1,595.0,0,1,1,52054,task3,871401,false,false,1039,image-keyboard-response,13
true,14,0,2,0,true,q,false,true,0.0-2.0-0.35-0.317-3.317,1,1,0,81,false,stim,false,0,1331.5,0,0,0,52054,task3,874242,false,false,1042,image-keyboard-response,14
true,14,1,2,1,true,z,false,true,0.0-2.0-0.35-0.318-3.318,1,1,0,90,false,stim,false,1,810.5,0,1,1,52054,task3,876565,false,false,1045,image-keyboard-response,15
true,15,2,2,1,false,z,true,false,0.0-2.0-0.35-0.319-3.319,0,1,1,68,true,stim,false,1,1282.7000000029802,0,1,2,52054,task3,879362,false,false,1048,image-keyboard-response,1
true,15,0,2,2,false,d,false,false,0.0-2.0-0.35-0.320-3.320,0,1,1,81,false,stim,true,0,804.5999999940395,0,0,0,52054,task3,881682,false,false,1051,image-keyboard-response,2
true,15,1,2,1,true,z,false,true,0.0-2.0-0.35-0.321-3.321,0,1,1,90,false,stim,false,1,493.3999999910593,0,1,1,52054,task3,883689,false,false,1054,image-keyboard-response,3
true,15,1,2,1,true,z,false,true,0.0-2.0-0.35-0.322-3.322,0,1,1,90,false,stim,false,1,438.70000000298023,0,1,2,52054,task3,885636,false,false,1057,image-keyboard-response,4
true,15,1,2,2,false,d,true,false,0.0-2.0-0.35-0.323-3.323,0,1,1,90,false,stim,false,0,1035.3999999910593,0,0,0,52054,task3,888184,false,false,1060,image-keyboard-response,5
true,15,1,2,1,true,z,false,true,0.0-2.0-0.36-0.324-3.324,0,1,1,90,false,stim,false,1,850.0,0,1,1,52054,task3,890549,false,false,1063,image-keyboard-response,6
true,15,1,2,1,true,z,false,true,0.0-2.0-0.36-0.325-3.325,0,1,1,90,false,stim,false,1,501.09999999403954,0,1,2,52054,task3,892565,false,false,1066,image-keyboard-response,7
true,15,1,2,1,true,z,false,true,0.0-2.0-0.36-0.326-3.326,0,1,1,90,false,stim,false,1,1053.0999999940395,0,1,2,52054,task3,895131,false,false,1069,image-keyboard-response,8
true,15,2,2,2,true,d,false,true,0.0-2.0-0.36-0.327-3.327,0,1,1,68,false,stim,false,0,759.7000000029802,0,0,0,52054,task3,897403,false,false,1072,image-keyboard-response,9
true,15,1,2,1,true,z,false,true,0.0-2.0-0.36-0.328-3.328,0,1,1,90,false,stim,false,1,544.2000000029802,0,1,1,52054,task3,899459,false,false,1075,image-keyboard-response,10
true,15,2,2,2,true,d,false,true,0.0-2.0-0.36-0.329-3.329,0,1,1,68,false,stim,false,0,867.2999999970198,0,0,0,52054,task3,901835,false,false,1078,image-keyboard-response,11
true,15,1,2,1,true,z,false,true,0.0-2.0-0.36-0.330-3.330,0,1,1,90,false,stim,false,1,488.19999998807907,0,1,2,52054,task3,903834,false,false,1081,image-keyboard-response,12
true,15,2,2,2,true,d,false,true,0.0-2.0-0.36-0.331-3.331,0,1,1,68,false,stim,false,0,361.79999999701977,0,0,0,52054,task3,905703,false,false,1084,image-keyboard-response,13
true,15,1,2,1,true,z,false,true,0.0-2.0-0.36-0.332-3.332,0,1,1,90,false,stim,false,1,780.1000000089407,0,1,1,52054,task3,907998,false,false,1087,image-keyboard-response,14
true,15,2,2,2,true,d,false,false,0.0-2.0-0.37-0.333-3.333,0,1,1,68,false,stim,false,0,606.1000000089407,0,0,0,52054,task3,910112,false,true,1090,image-keyboard-response,15
true,15,1,2,1,true,z,false,true,0.0-2.0-0.37-0.334-3.334,0,1,1,90,false,stim,false,1,446.40000000596046,0,1,2,52054,task3,912073,false,false,1093,image-keyboard-response,16
true,15,1,2,1,true,z,false,false,0.0-2.0-0.37-0.335-3.335,0,1,1,90,false,stim,false,1,425.80000001192093,0,1,2,52054,task3,914009,false,true,1096,image-keyboard-response,17
true,15,2,2,2,true,d,false,true,0.0-2.0-0.37-0.336-3.336,0,1,1,68,false,stim,false,0,1864.5,0,0,0,52054,task3,917386,false,false,1099,image-keyboard-response,18
true,15,2,2,2,true,d,false,true,0.0-2.0-0.37-0.337-3.337,0,1,1,68,false,stim,false,0,393.19999998807907,0,0,0,52054,task3,919296,false,false,1102,image-keyboard-response,19
true,15,1,2,1,true,z,false,true,0.0-2.0-0.37-0.338-3.338,0,1,1,90,false,stim,false,1,808.2000000029802,0,1,1,52054,task3,921615,false,false,1105,image-keyboard-response,20
true,15,1,2,1,true,z,false,true,0.0-2.0-0.37-0.339-3.339,0,1,1,90,false,stim,false,1,421.5,0,1,1,52054,task3,923550,false,false,1108,image-keyboard-response,21
true,15,1,2,1,true,z,false,true,0.0-2.0-0.37-0.340-3.340,0,1,1,90,false,stim,false,1,403.90000000596046,0,1,1,52054,task3,925467,false,false,1111,image-keyboard-response,22
true,15,1,2,1,true,z,false,false,0.0-2.0-0.37-0.341-3.341,0,1,1,90,false,stim,false,1,458.29999999701977,0,1,2,52054,task3,927437,false,true,1114,image-keyboard-response,23
true,15,1,2,2,false,d,true,false,0.0-2.0-0.38-0.342-3.342,0,1,1,90,false,stim,false,0,693.5999999940395,0,0,0,52054,task3,929642,false,false,1117,image-keyboard-response,24
true,15,1,2,1,true,z,false,true,0.0-2.0-0.38-0.343-3.343,0,1,1,90,false,stim,false,1,626.2000000029802,0,0,2,52054,task3,931781,false,false,1120,image-keyboard-response,25
true,15,1,2,1,true,z,false,true,0.0-2.0-0.38-0.344-3.344,0,1,1,90,false,stim,false,1,496.59999999403954,0,0,2,52054,task3,933788,false,false,1123,image-keyboard-response,26
true,15,2,2,2,true,d,false,false,0.0-2.0-0.38-0.345-3.345,0,1,1,68,false,stim,false,0,904.5,0,0,0,52054,task3,936207,false,true,1126,image-keyboard-response,27
true,15,1,2,1,true,z,false,true,0.0-2.0-0.38-0.346-3.346,0,1,1,90,false,stim,false,1,633.3000000119209,0,1,1,52054,task3,938351,false,false,1129,image-keyboard-response,28
true,16,1,1,1,true,z,false,true,0.0-2.0-0.38-0.347-3.347,0,1,0,90,true,stim,false,1,657.1999999880791,0,1,1,52054,task3,940518,false,false,1132,image-keyboard-response,1
true,16,1,1,1,true,z,false,true,0.0-2.0-0.38-0.348-3.348,0,1,0,90,false,stim,false,1,565.1999999880791,0,1,1,52054,task3,942595,false,false,1135,image-keyboard-response,2
true,16,1,1,0,false,q,true,false,0.0-2.0-0.38-0.349-3.349,0,1,0,90,false,stim,false,2,565.9000000059605,0,0,0,52054,task3,944677,false,false,1138,image-keyboard-response,3
true,16,1,1,0,false,q,false,false,0.0-2.0-0.38-0.350-3.350,0,1,0,90,false,stim,true,1,669.7999999970198,0,0,2,52054,task3,946862,false,false,1141,image-keyboard-response,4
true,16,1,1,0,false,q,true,false,0.0-2.0-0.39-0.351-3.351,0,1,0,90,false,stim,false,2,975.5999999940395,0,0,0,52054,task3,949353,false,false,1144,image-keyboard-response,5
true,16,1,1,0,false,q,false,false,0.0-2.0-0.39-0.352-3.352,0,1,0,90,false,stim,true,1,1271.5,0,0,2,52054,task3,952134,false,false,1147,image-keyboard-response,6
true,16,2,1,0,false,q,true,true,0.0-2.0-0.39-0.353-3.353,0,1,0,68,false,stim,false,1,1028.699999988079,0,0,2,52054,task3,954677,false,true,1150,image-keyboard-response,7
true,16,0,1,1,false,z,true,false,0.0-2.0-0.39-0.354-3.354,0,1,0,81,false,stim,false,1,1330.3999999910593,0,1,1,52054,task3,957518,false,false,1153,image-keyboard-response,8
true,16,2,1,0,false,q,false,false,0.0-2.0-0.39-0.355-3.355,0,1,0,68,false,stim,true,2,1430.9000000059605,0,0,0,52054,task3,960464,false,false,1156,image-keyboard-response,9
true,16,2,1,1,false,z,true,false,0.0-2.0-0.39-0.356-3.356,0,1,0,68,false,stim,false,1,782.2999999970198,0,1,1,52054,task3,962754,false,false,1159,image-keyboard-response,10
true,16,0,1,1,false,z,true,false,0.0-2.0-0.39-0.357-3.357,0,1,0,81,false,stim,false,1,1334.7999999970198,0,1,1,52054,task3,965604,false,false,1162,image-keyboard-response,11
true,16,2,1,0,false,q,false,false,0.0-2.0-0.39-0.358-3.358,0,1,0,68,false,stim,true,2,1989.3999999910593,0,0,0,52054,task3,969104,false,false,1165,image-keyboard-response,12
true,16,1,1,0,false,q,false,false,0.0-2.0-0.39-0.359-3.359,0,1,0,90,false,stim,true,1,859.5,0,0,2,52054,task3,971471,false,false,1168,image-keyboard-response,13
true,16,1,1,1,true,z,false,false,0.0-2.0-0.40-0.360-3.360,0,1,0,90,false,stim,false,1,1202.7999999970198,0,1,1,52054,task3,974190,false,true,1171,image-keyboard-response,14
true,16,0,1,0,true,q,false,true,0.0-2.0-0.40-0.361-3.361,0,1,0,81,false,stim,false,2,886.8999999910593,0,0,0,52054,task3,976593,false,false,1174,image-keyboard-response,15
true,16,0,1,1,false,z,true,false,0.0-2.0-0.40-0.362-3.362,0,1,0,81,false,stim,false,1,1118.5,0,1,1,52054,task3,979222,false,false,1177,image-keyboard-response,16
true,16,0,1,0,true,q,false,true,0.0-2.0-0.40-0.363-3.363,0,1,0,81,false,stim,false,2,385.29999999701977,0,0,0,52054,task3,981119,false,false,1180,image-keyboard-response,17
true,16,0,1,0,true,q,false,false,0.0-2.0-0.40-0.364-3.364,0,1,0,81,false,stim,false,2,462.59999999403954,0,0,0,52054,task3,983098,false,true,1183,image-keyboard-response,18
true,16,2,1,0,false,q,true,false,0.0-2.0-0.40-0.365-3.365,0,1,0,68,false,stim,false,1,745.5999999940395,0,0,2,52054,task3,985349,false,false,1186,image-keyboard-response,19
true,16,1,1,0,false,q,false,false,0.0-2.0-0.40-0.366-3.366,0,1,0,90,false,stim,true,1,425.09999999403954,0,0,2,52054,task3,987285,false,false,1189,image-keyboard-response,20
true,16,0,1,0,true,q,false,true,0.0-2.0-0.40-0.367-3.367,0,1,0,81,false,stim,false,1,401.3999999910593,0,0,2,52054,task3,989202,false,false,1192,image-keyboard-response,21
true,16,2,1,1,false,z,true,false,0.0-2.0-0.40-0.368-3.368,0,1,0,68,false,stim,false,1,2694.0,0,0,1,52054,task3,993410,false,false,1195,image-keyboard-response,22
true,16,1,1,0,false,q,false,false,0.0-2.0-0.41-0.369-3.369,0,1,0,90,false,stim,true,1,517.7000000029802,0,0,2,52054,task3,995445,false,false,1198,image-keyboard-response,23
true,16,0,1,0,true,q,false,true,0.0-2.0-0.41-0.370-3.370,0,1,0,81,false,stim,false,2,623.1000000089407,0,1,0,52054,task3,997583,false,false,1201,image-keyboard-response,24
true,17,0,1,0,true,q,false,true,0.0-2.0-0.41-0.371-3.371,1,0,0,81,true,stim,false,0,477.80000001192093,0,1,0,52054,task3,999569,false,false,1204,image-keyboard-response,1
true,17,0,1,2,false,d,true,true,0.0-2.0-0.41-0.372-3.372,1,0,0,81,false,stim,false,1,502.0,0,0,1,52054,task3,1001587,false,true,1207,image-keyboard-response,2
true,17,0,1,1,false,z,false,true,0.0-2.0-0.41-0.373-3.373,1,0,0,81,false,stim,true,0,1322.7000000029802,0,0,2,52054,task3,1004420,false,true,1210,image-keyboard-response,3
true,17,0,1,0,true,q,false,true,0.0-2.0-0.41-0.374-3.374,1,0,0,81,false,stim,false,0,495.1000000089407,0,1,0,52054,task3,1006426,false,false,1213,image-keyboard-response,4
true,17,0,1,1,false,z,false,false,0.0-2.0-0.41-0.375-3.375,1,0,0,81,false,stim,true,0,407.80000001192093,0,0,2,52054,task3,1008344,false,false,1216,image-keyboard-response,5
true,17,0,1,2,false,d,true,false,0.0-2.0-0.41-0.376-3.376,1,0,0,81,false,stim,false,1,518.1999999880791,0,0,1,52054,task3,1010372,false,false,1219,image-keyboard-response,6
true,17,1,1,2,false,d,false,false,0.0-2.0-0.41-0.377-3.377,1,0,0,90,false,stim,true,1,1300.9000000059605,0,0,1,52054,task3,1013186,false,false,1222,image-keyboard-response,7
true,17,0,1,0,true,q,false,true,0.0-2.0-0.42-0.378-3.378,1,0,0,81,false,stim,false,0,1199.7999999970198,0,1,0,52054,task3,1015902,false,false,1225,image-keyboard-response,8
true,17,1,1,2,false,d,false,false,0.0-2.0-0.42-0.379-3.379,1,0,0,90,false,stim,true,1,1453.4000000059605,0,0,1,52054,task3,1018871,false,false,1228,image-keyboard-response,9
true,17,2,1,1,false,z,true,true,0.0-2.0-0.42-0.380-3.380,1,0,0,68,false,stim,false,0,598.7000000029802,0,0,2,52054,task3,1020980,false,true,1231,image-keyboard-response,10
true,17,0,1,2,false,d,true,false,0.0-2.0-0.42-0.381-3.381,1,0,0,81,false,stim,false,1,696.0,0,0,1,52054,task3,1023189,false,false,1234,image-keyboard-response,11
true,17,2,1,1,false,z,true,false,0.0-2.0-0.42-0.382-3.382,1,0,0,68,false,stim,false,0,671.0999999940395,0,0,2,52054,task3,1025372,false,false,1237,image-keyboard-response,12
true,17,1,1,2,false,d,false,false,0.0-2.0-0.42-0.383-3.383,1,0,0,90,false,stim,true,1,838.2999999970198,0,0,1,52054,task3,1027726,false,false,1240,image-keyboard-response,13
true,17,0,1,0,true,q,false,false,0.0-2.0-0.42-0.384-3.384,1,0,0,81,false,stim,false,0,1302.5999999940395,0,1,0,52054,task3,1030544,false,true,1243,image-keyboard-response,14
true,17,0,1,0,true,q,false,true,0.0-2.0-0.42-0.385-3.385,1,0,0,81,false,stim,false,0,1161.7999999970198,0,1,0,52054,task3,1033222,false,false,1246,image-keyboard-response,15
true,17,2,1,1,false,z,true,true,0.0-2.0-0.42-0.386-3.386,1,0,0,68,false,stim,false,0,1406.7999999970198,0,0,2,52054,task3,1036140,false,true,1249,image-keyboard-response,16
true,17,0,1,2,false,d,true,false,0.0-2.0-0.43-0.387-3.387,1,0,0,81,false,stim,false,1,1067.2000000029802,0,0,1,52054,task3,1038724,false,false,1252,image-keyboard-response,17
true,17,0,1,1,false,z,false,false,0.0-2.0-0.43-0.388-3.388,1,0,0,81,false,stim,true,0,1248.2000000029802,0,0,2,52054,task3,1041483,false,false,1255,image-keyboard-response,18
true,17,0,1,0,true,q,false,true,0.0-2.0-0.43-0.389-3.389,1,0,0,81,false,stim,false,0,1520.2000000029802,0,1,0,52054,task3,1044519,false,false,1258,image-keyboard-response,19
true,17,0,1,0,true,q,false,true,0.0-2.0-0.43-0.390-3.390,1,0,0,81,false,stim,false,0,843.0,0,1,0,52054,task3,1046872,false,false,1261,image-keyboard-response,20
true,17,1,1,1,true,z,false,true,0.0-2.0-0.43-0.391-3.391,1,0,0,90,false,stim,false,0,1171.7000000029802,0,0,2,52054,task3,1049559,false,false,1264,image-keyboard-response,21
true,17,1,1,1,true,z,false,true,0.0-2.0-0.43-0.392-3.392,1,0,0,90,false,stim,false,0,654.8000000119209,0,0,2,52054,task3,1051731,false,false,1267,image-keyboard-response,22
true,17,2,1,2,true,d,false,true,0.0-2.0-0.43-0.393-3.393,1,0,0,68,false,stim,false,1,1544.8999999910593,0,0,1,52054,task3,1054791,false,false,1270,image-keyboard-response,23
true,17,2,1,2,true,d,false,true,0.0-2.0-0.43-0.394-3.394,1,0,0,68,false,stim,false,1,767.2999999970198,0,0,1,52054,task3,1057068,false,false,1273,image-keyboard-response,24
true,17,0,1,0,true,q,false,true,0.0-2.0-0.43-0.395-3.395,1,0,0,81,false,stim,false,0,1549.6000000089407,0,1,0,52054,task3,1060134,false,false,1276,image-keyboard-response,25
true,17,0,1,0,true,q,false,true,0.0-2.0-0.44-0.396-3.396,1,0,0,81,false,stim,false,0,1479.4000000059605,0,1,0,52054,task3,1063127,false,false,1279,image-keyboard-response,26
true,17,2,1,2,true,d,false,true,0.0-2.0-0.44-0.397-3.397,1,0,0,68,false,stim,false,1,1122.4000000059605,0,0,1,52054,task3,1065761,false,false,1282,image-keyboard-response,27
true,17,1,1,1,true,z,false,true,0.0-2.0-0.44-0.398-3.398,1,0,0,90,false,stim,false,0,1178.5,0,1,2,52054,task3,1068446,false,false,1285,image-keyboard-response,28
true,18,1,2,1,true,z,false,true,0.0-2.0-0.44-0.399-3.399,1,0,1,90,true,stim,false,1,1247.5,0,1,2,52054,task3,1071209,false,false,1288,image-keyboard-response,1
true,18,2,2,0,false,q,false,false,0.0-2.0-0.44-0.400-3.400,1,0,1,68,false,stim,true,2,1614.2000000029802,0,0,1,52054,task3,1074337,false,false,1291,image-keyboard-response,2
true,18,0,2,0,true,q,false,true,0.0-2.0-0.44-0.401-3.401,1,0,1,81,false,stim,false,0,1521.1000000089407,0,1,0,52054,task3,1077369,false,false,1294,image-keyboard-response,3
true,18,0,2,0,true,q,false,true,0.0-2.0-0.44-0.402-3.402,1,0,1,81,false,stim,false,0,743.9000000059605,0,1,0,52054,task3,1079628,false,false,1297,image-keyboard-response,4
true,18,1,2,1,true,z,false,true,0.0-2.0-0.44-0.403-3.403,1,0,1,90,false,stim,false,1,817.2000000029802,0,1,2,52054,task3,1081956,false,false,1300,image-keyboard-response,5
true,18,1,2,0,false,q,true,false,0.0-2.0-0.44-0.404-3.404,1,0,1,90,false,stim,false,2,1145.2000000029802,0,0,1,52054,task3,1084613,false,false,1303,image-keyboard-response,6
true,18,0,2,1,false,z,true,false,0.0-2.0-0.45-0.405-3.405,1,0,1,81,false,stim,false,1,819.3999999910593,0,1,2,52054,task3,1086948,false,false,1306,image-keyboard-response,7
true,18,2,2,1,false,z,true,false,0.0-2.0-0.45-0.406-3.406,1,0,1,68,false,stim,false,1,803.7000000029802,0,1,2,52054,task3,1089267,false,false,1309,image-keyboard-response,8
true,18,0,2,0,true,q,false,true,0.0-2.0-0.45-0.407-3.407,1,0,1,81,false,stim,false,2,583.4000000059605,0,0,1,52054,task3,1091362,false,false,1312,image-keyboard-response,9
true,18,0,2,0,true,q,false,true,0.0-2.0-0.45-0.408-3.408,1,0,1,81,false,stim,false,2,676.7000000029802,0,0,1,52054,task3,1093550,false,false,1315,image-keyboard-response,10
true,18,0,2,0,true,q,false,true,0.0-2.0-0.45-0.409-3.409,1,0,1,81,false,stim,false,0,324.90000000596046,0,1,0,52054,task3,1095385,false,false,1318,image-keyboard-response,11
true,18,1,2,1,true,z,false,true,0.0-2.0-0.45-0.410-3.410,1,0,1,90,false,stim,false,1,1394.7000000029802,0,1,2,52054,task3,1098295,false,false,1321,image-keyboard-response,12
true,18,0,2,0,true,q,false,true,0.0-2.0-0.45-0.411-3.411,1,0,1,81,false,stim,false,0,875.8000000119209,0,1,0,52054,task3,1100682,false,false,1324,image-keyboard-response,13
true,18,0,2,0,true,q,false,true,0.0-2.0-0.45-0.412-3.412,1,0,1,81,false,stim,false,0,475.8999999910593,0,1,0,52054,task3,1102674,false,false,1327,image-keyboard-response,14
true,18,0,2,0,true,q,false,true,0.0-2.0-0.45-0.413-3.413,1,0,1,81,false,stim,false,2,679.0,0,0,1,52054,task3,1104865,false,false,1330,image-keyboard-response,15
true,18,0,2,0,true,q,false,true,0.0-2.0-0.46-0.414-3.414,1,0,1,81,false,stim,false,2,491.5,0,0,1,52054,task3,1106864,false,false,1333,image-keyboard-response,16
true,18,0,2,0,true,q,false,true,0.0-2.0-0.46-0.415-3.415,1,0,1,81,false,stim,false,2,407.1000000089407,0,0,1,52054,task3,1108779,false,false,1336,image-keyboard-response,17
true,18,1,2,1,true,z,false,true,0.0-2.0-0.46-0.416-3.416,1,0,1,90,false,stim,false,1,665.2000000029802,0,1,2,52054,task3,1110956,false,false,1339,image-keyboard-response,18
true,18,0,2,0,true,q,false,true,0.0-2.0-0.46-0.417-3.417,1,0,1,81,false,stim,false,2,859.5,0,0,1,52054,task3,1113326,false,false,1342,image-keyboard-response,19
true,18,0,2,0,true,q,false,true,0.0-2.0-0.46-0.418-3.418,1,0,1,81,false,stim,false,0,370.1000000089407,0,1,0,52054,task3,1115209,false,false,1345,image-keyboard-response,20
true,18,1,2,1,true,z,false,true,0.0-2.0-0.46-0.419-3.419,1,0,1,90,false,stim,false,1,473.0,0,0,2,52054,task3,1117194,false,false,1348,image-keyboard-response,21
true,18,0,2,0,true,q,false,true,0.0-2.0-0.46-0.420-3.420,1,0,1,81,false,stim,false,0,543.0999999940395,0,1,0,52054,task3,1119245,false,false,1351,image-keyboard-response,22
true,18,0,2,0,true,q,false,true,0.0-2.0-0.46-0.421-3.421,1,0,1,81,false,stim,false,0,542.0,0,1,0,52054,task3,1121298,false,false,1354,image-keyboard-response,23
true,18,1,2,1,true,z,false,true,0.0-2.0-0.46-0.422-3.422,1,0,1,90,false,stim,false,1,557.2999999970198,0,0,2,52054,task3,1123372,false,false,1357,image-keyboard-response,24
true,18,1,2,1,true,z,false,true,0.0-2.0-0.47-0.423-3.423,1,0,1,90,false,stim,false,1,432.3999999910593,0,0,2,52054,task3,1125316,false,false,1360,image-keyboard-response,25
true,19,0,1,0,true,q,false,true,0.0-2.0-0.47-0.424-3.424,1,0,0,81,true,stim,false,0,626.6999999880791,0,1,0,52054,task3,1127459,false,false,1363,image-keyboard-response,1
true,19,0,1,2,false,d,false,false,0.0-2.0-0.47-0.425-3.425,1,0,0,81,false,stim,true,0,401.8999999910593,0,0,1,52054,task3,1129373,false,false,1366,image-keyboard-response,2
true,19,2,1,2,true,d,false,true,0.0-2.0-0.47-0.426-3.426,1,0,0,68,false,stim,false,0,630.0999999940395,0,0,1,52054,task3,1131512,false,false,1369,image-keyboard-response,3
true,19,0,1,0,true,q,false,true,0.0-2.0-0.47-0.427-3.427,1,0,0,81,false,stim,false,0,393.20000000298023,0,1,0,52054,task3,1133417,false,false,1372,image-keyboard-response,4
true,19,0,1,0,true,q,false,true,0.0-2.0-0.47-0.428-3.428,1,0,0,81,false,stim,false,0,742.3999999910593,0,1,0,52054,task3,1135670,false,false,1375,image-keyboard-response,5
true,19,2,1,2,true,d,false,false,0.0-2.0-0.47-0.429-3.429,1,0,0,68,false,stim,false,0,1099.5999999940395,0,0,1,52054,task3,1138280,false,true,1378,image-keyboard-response,6
true,19,1,1,0,false,q,false,false,0.0-2.0-0.47-0.430-3.430,1,0,0,90,false,stim,true,1,684.3000000119209,0,0,2,52054,task3,1140477,false,false,1381,image-keyboard-response,7
true,19,1,1,0,false,q,false,false,0.0-2.0-0.47-0.431-3.431,1,0,0,90,false,stim,true,1,1795.7999999970198,0,0,2,52054,task3,1143788,false,false,1384,image-keyboard-response,8
true,19,0,1,2,false,d,false,false,0.0-2.0-0.48-0.432-3.432,1,0,0,81,false,stim,true,0,365.29999999701977,0,1,1,52054,task3,1145663,false,false,1387,image-keyboard-response,9
true,19,2,1,2,true,d,false,true,0.0-2.0-0.48-0.433-3.433,1,0,0,68,false,stim,false,0,791.3999999910593,0,1,1,52054,task3,1147968,false,false,1390,image-keyboard-response,10
true,19,0,1,0,true,q,false,true,0.0-2.0-0.48-0.434-3.434,1,0,0,81,false,stim,false,0,665.5,0,0,0,52054,task3,1150144,false,false,1393,image-keyboard-response,11
true,19,2,1,0,false,q,true,false,0.0-2.0-0.48-0.435-3.435,1,0,0,68,false,stim,false,1,1341.1000000089407,0,1,2,52054,task3,1152996,false,false,1396,image-keyboard-response,12
true,19,0,1,0,true,q,false,true,0.0-2.0-0.48-0.436-3.436,1,0,0,81,false,stim,false,0,915.5,0,0,0,52054,task3,1155423,false,false,1399,image-keyboard-response,13
true,20,0,2,0,true,q,false,true,0.0-2.0-0.48-0.437-3.437,0,1,1,81,true,stim,false,0,366.0,0,1,2,52054,task3,1157305,false,false,1402,image-keyboard-response,1
true,20,2,2,2,true,d,false,true,0.0-2.0-0.48-0.438-3.438,0,1,1,68,false,stim,false,2,919.5,0,1,1,52054,task3,1159735,false,false,1405,image-keyboard-response,2
true,20,0,2,0,true,q,false,true,0.0-2.0-0.48-0.439-3.439,0,1,1,81,false,stim,false,0,417.6000000089407,0,1,2,52054,task3,1161664,false,false,1408,image-keyboard-response,3
true,20,0,2,1,false,z,false,true,0.0-2.0-0.48-0.440-3.440,0,1,1,81,false,stim,true,0,647.0,0,0,0,52054,task3,1163821,false,true,1411,image-keyboard-response,4
true,20,0,2,2,false,d,true,false,0.0-2.0-0.49-0.441-3.441,0,1,1,81,false,stim,false,2,1639.300000011921,0,1,1,52054,task3,1166971,false,false,1414,image-keyboard-response,5
true,20,0,2,1,false,z,false,false,0.0-2.0-0.49-0.442-3.442,0,1,1,81,false,stim,true,0,588.2000000029802,0,0,0,52054,task3,1169074,false,false,1417,image-keyboard-response,6
true,20,2,2,2,true,d,false,false,0.0-2.0-0.49-0.443-3.443,0,1,1,68,false,stim,false,2,995.1999999880791,0,1,1,52054,task3,1171581,false,true,1420,image-keyboard-response,7
true,20,0,2,0,true,q,false,true,0.0-2.0-0.49-0.444-3.444,0,1,1,81,false,stim,false,0,1435.7000000029802,0,0,2,52054,task3,1174524,false,false,1423,image-keyboard-response,8
true,20,0,2,0,true,q,false,true,0.0-2.0-0.49-0.445-3.445,0,1,1,81,false,stim,false,0,1126.0999999940395,0,0,2,52054,task3,1177163,false,false,1426,image-keyboard-response,9
true,20,0,2,1,false,z,false,false,0.0-2.0-0.49-0.446-3.446,0,1,1,81,false,stim,true,0,1639.0,0,1,0,52054,task3,1180318,false,false,1429,image-keyboard-response,10
true,20,1,2,1,true,z,false,true,0.0-2.0-0.49-0.447-3.447,0,1,1,90,false,stim,false,0,1130.2000000029802,0,1,0,52054,task3,1182964,false,false,1432,image-keyboard-response,11
true,21,0,2,2,false,d,true,false,0.0-2.0-0.49-0.448-3.448,1,1,0,81,true,stim,false,2,936.7999999970198,0,1,1,52054,task3,1185415,false,false,1435,image-keyboard-response,1
true,21,0,2,2,false,d,false,true,0.0-2.0-0.49-0.449-3.449,1,1,0,81,false,stim,true,0,2833.2000000029802,0,0,2,52054,task3,1189764,false,true,1438,image-keyboard-response,2
true,21,0,2,2,false,d,false,false,0.0-2.0-0.50-0.450-3.450,1,1,0,81,false,stim,true,0,872.4000000059605,0,0,2,52054,task3,1192150,false,false,1441,image-keyboard-response,3
true,21,0,2,2,false,d,false,false,0.0-2.0-0.50-0.451-3.451,1,1,0,81,false,stim,true,0,478.0,0,0,2,52054,task3,1194141,false,false,1444,image-keyboard-response,4
true,21,1,2,1,true,z,false,true,0.0-2.0-0.50-0.452-3.452,1,1,0,90,false,stim,false,1,1545.3999999910593,0,1,0,52054,task3,1197197,false,false,1447,image-keyboard-response,5
true,21,1,2,1,true,z,false,true,0.0-2.0-0.50-0.453-3.453,1,1,0,90,false,stim,false,1,532.7000000029802,0,1,0,52054,task3,1199245,false,false,1450,image-keyboard-response,6
true,21,2,2,2,true,d,false,true,0.0-2.0-0.50-0.454-3.454,1,1,0,68,false,stim,false,2,951.0,0,1,1,52054,task3,1201715,false,false,1453,image-keyboard-response,7
true,21,1,2,1,true,z,false,true,0.0-2.0-0.50-0.455-3.455,1,1,0,90,false,stim,false,1,725.7999999970198,0,1,0,52054,task3,1203952,false,false,1456,image-keyboard-response,8
true,21,2,2,2,true,d,false,true,0.0-2.0-0.50-0.456-3.456,1,1,0,68,false,stim,false,0,766.7999999970198,0,1,2,52054,task3,1206234,false,false,1459,image-keyboard-response,9
true,21,2,2,2,true,d,false,true,0.0-2.0-0.50-0.457-3.457,1,1,0,68,false,stim,false,2,584.5,0,0,1,52054,task3,1208329,false,false,1462,image-keyboard-response,10
true,21,2,2,2,true,d,false,true,0.0-2.0-0.50-0.458-3.458,1,1,0,68,false,stim,false,2,888.5999999940395,0,0,1,52054,task3,1210729,false,false,1465,image-keyboard-response,11
true,21,1,2,1,true,z,false,true,0.0-2.0-0.51-0.459-3.459,1,1,0,90,false,stim,false,1,1957.300000011921,0,1,0,52054,task3,1214202,false,false,1468,image-keyboard-response,12
true,22,2,2,2,true,d,false,true,0.0-2.0-0.51-0.460-3.460,1,0,1,68,true,stim,false,2,823.5,0,1,2,52054,task3,1216536,false,false,1471,image-keyboard-response,1
true,22,2,2,2,true,d,false,true,0.0-2.0-0.51-0.461-3.461,1,0,1,68,false,stim,false,2,566.5999999940395,0,1,2,52054,task3,1218619,false,false,1474,image-keyboard-response,2
true,22,2,2,2,true,d,false,true,0.0-2.0-0.51-0.462-3.462,1,0,1,68,false,stim,false,2,646.4000000059605,0,1,2,52054,task3,1220778,false,false,1477,image-keyboard-response,3
true,22,1,2,1,true,z,false,true,0.0-2.0-0.51-0.463-3.463,1,0,1,90,false,stim,false,1,1064.2000000029802,0,1,0,52054,task3,1223350,false,false,1480,image-keyboard-response,4
true,22,2,2,0,false,q,false,false,0.0-2.0-0.51-0.464-3.464,1,0,1,68,false,stim,true,2,729.8999999910593,0,0,1,52054,task3,1225596,false,false,1483,image-keyboard-response,5
true,22,1,2,1,true,z,false,true,0.0-2.0-0.51-0.465-3.465,1,0,1,90,false,stim,false,1,1268.8999999910593,0,1,0,52054,task3,1228376,false,false,1486,image-keyboard-response,6
true,22,1,2,0,false,q,true,false,0.0-2.0-0.51-0.466-3.466,1,0,1,90,false,stim,false,2,695.7999999970198,0,0,1,52054,task3,1230585,false,false,1489,image-keyboard-response,7
true,22,0,2,0,true,q,false,false,0.0-2.0-0.51-0.467-3.467,1,0,1,81,false,stim,false,2,2105.3999999910593,0,0,1,52054,task3,1234206,false,true,1492,image-keyboard-response,8
true,22,1,2,1,true,z,false,true,0.0-2.0-0.52-0.468-3.468,1,0,1,90,false,stim,false,1,781.7999999970198,0,1,0,52054,task3,1236502,false,false,1495,image-keyboard-response,9
true,22,2,2,2,true,d,false,true,0.0-2.0-0.52-0.469-3.469,1,0,1,68,false,stim,false,2,1518.4000000059605,0,1,2,52054,task3,1239537,false,false,1498,image-keyboard-response,10
true,22,2,2,2,true,d,false,true,0.0-2.0-0.52-0.470-3.470,1,0,1,68,false,stim,false,2,605.8000000119209,0,1,2,52054,task3,1241665,false,false,1501,image-keyboard-response,11
true,22,2,2,0,false,q,false,false,0.0-2.0-0.52-0.471-3.471,1,0,1,68,false,stim,true,2,656.0,0,0,1,52054,task3,1243832,false,false,1504,image-keyboard-response,12
true,22,2,2,0,false,q,false,false,0.0-2.0-0.52-0.472-3.472,1,0,1,68,false,stim,true,2,755.1999999880791,0,0,1,52054,task3,1246100,false,false,1507,image-keyboard-response,13
true,22,0,2,2,false,d,true,false,0.0-2.0-0.52-0.473-3.473,1,0,1,81,false,stim,false,2,1536.2000000029802,0,1,2,52054,task3,1249144,false,false,1510,image-keyboard-response,14
true,22,1,2,1,true,z,false,true,0.0-2.0-0.52-0.474-3.474,1,0,1,90,false,stim,false,1,843.6000000089407,0,1,0,52054,task3,1251498,false,false,1513,image-keyboard-response,15
true,22,2,2,0,false,q,false,false,0.0-2.0-0.52-0.475-3.475,1,0,1,68,false,stim,true,2,1565.2999999970198,0,0,1,52054,task3,1254580,false,false,1516,image-keyboard-response,16
true,22,1,2,1,true,z,false,true,0.0-2.0-0.52-0.476-3.476,1,0,1,90,false,stim,false,1,966.5999999940395,0,1,0,52054,task3,1257058,false,false,1519,image-keyboard-response,17
true,22,1,2,1,true,z,false,true,0.0-2.0-0.53-0.477-3.477,1,0,1,90,false,stim,false,1,753.7000000029802,0,1,0,52054,task3,1259328,false,false,1522,image-keyboard-response,18
true,22,2,2,2,true,d,false,true,0.0-2.0-0.53-0.478-3.478,1,0,1,68,false,stim,false,2,1181.2999999970198,0,1,2,52054,task3,1262026,false,false,1525,image-keyboard-response,19
true,22,0,2,0,true,q,false,false,0.0-2.0-0.53-0.479-3.479,1,0,1,81,false,stim,false,2,1041.0,0,0,1,52054,task3,1264579,false,true,1528,image-keyboard-response,20
true,22,1,2,1,true,z,false,true,0.0-2.0-0.53-0.480-3.480,1,0,1,90,false,stim,false,1,1014.0,0,1,0,52054,task3,1267108,false,false,1531,image-keyboard-response,21
true,22,1,2,1,true,z,false,true,0.0-2.0-0.53-0.481-3.481,1,0,1,90,false,stim,false,1,629.2000000029802,0,1,0,52054,task3,1269247,false,false,1534,image-keyboard-response,22
true,22,2,2,2,true,d,false,true,0.0-2.0-0.53-0.482-3.482,1,0,1,68,false,stim,false,2,837.6000000089407,0,1,2,52054,task3,1271601,false,false,1537,image-keyboard-response,23
true,22,1,2,0,false,q,true,false,0.0-2.0-0.53-0.483-3.483,1,0,1,90,false,stim,false,2,843.2999999970198,0,0,1,52054,task3,1273955,false,false,1540,image-keyboard-response,24
true,22,1,2,2,false,d,true,false,0.0-2.0-0.53-0.484-3.484,1,0,1,90,false,stim,false,2,889.0999999940395,0,0,2,52054,task3,1276358,false,false,1543,image-keyboard-response,25
true,22,0,2,0,true,q,false,true,0.0-2.0-0.53-0.485-3.485,1,0,1,81,false,stim,false,2,1584.2999999970198,0,0,1,52054,task3,1279458,false,false,1546,image-keyboard-response,26
true,22,2,2,2,true,d,false,false,0.0-2.0-0.54-0.486-3.486,1,0,1,68,false,stim,false,2,1850.0,0,0,2,52054,task3,1282819,false,true,1549,image-keyboard-response,27
true,22,1,2,1,true,z,false,true,0.0-2.0-0.54-0.487-3.487,1,0,1,90,false,stim,false,1,1897.2999999970198,0,1,0,52054,task3,1286233,false,false,1552,image-keyboard-response,28
true,22,0,2,0,true,q,false,false,0.0-2.0-0.54-0.488-3.488,1,0,1,81,false,stim,false,2,959.5999999940395,0,0,1,52054,task3,1288706,false,true,1555,image-keyboard-response,29
true,23,1,1,1,true,z,false,true,0.0-2.0-0.54-0.489-3.489,1,0,0,90,true,stim,false,1,664.5999999940395,0,1,0,52054,task3,1290883,false,false,1558,image-keyboard-response,1
true,23,1,1,1,true,z,false,true,0.0-2.0-0.54-0.490-3.490,1,0,0,90,false,stim,false,1,2458.0,0,1,0,52054,task3,1294852,false,false,1561,image-keyboard-response,2
true,23,2,1,1,false,z,false,false,0.0-2.0-0.54-0.491-3.491,1,0,0,68,false,stim,true,2,1745.3999999910593,0,0,2,52054,task3,1298109,false,false,1564,image-keyboard-response,3
true,23,1,1,1,true,z,false,true,0.0-2.0-0.54-0.492-3.492,1,0,0,90,false,stim,false,2,1909.7999999970198,0,0,2,52054,task3,1301530,false,false,1567,image-keyboard-response,4
true,23,0,1,2,false,d,false,false,0.0-2.0-0.54-0.493-3.493,1,0,0,81,false,stim,true,0,1936.0,0,0,1,52054,task3,1304983,false,false,1570,image-keyboard-response,5
true,23,2,1,2,true,d,false,true,0.0-2.0-0.54-0.494-3.494,1,0,0,68,false,stim,false,0,1066.2000000029802,0,0,1,52054,task3,1307556,false,false,1573,image-keyboard-response,6
true,23,1,1,1,true,z,false,true,0.0-2.0-0.55-0.495-3.495,1,0,0,90,false,stim,false,1,764.2000000029802,0,1,0,52054,task3,1309832,false,false,1576,image-keyboard-response,7
true,23,1,1,1,true,z,false,true,0.0-2.0-0.55-0.496-3.496,1,0,0,90,false,stim,false,1,568.1999999880791,0,1,0,52054,task3,1311912,false,false,1579,image-keyboard-response,8
true,23,1,1,1,true,z,false,false,0.0-2.0-0.55-0.497-3.497,1,0,0,90,false,stim,false,2,1354.3999999910593,0,0,2,52054,task3,1314777,false,true,1582,image-keyboard-response,9
true,23,0,1,1,false,z,true,false,0.0-2.0-0.55-0.498-3.498,1,0,0,81,false,stim,false,2,420.6000000089407,0,0,2,52054,task3,1316710,false,false,1585,image-keyboard-response,10
true,23,0,1,2,false,d,false,true,0.0-2.0-0.55-0.499-3.499,1,0,0,81,false,stim,true,0,953.8000000119209,0,0,1,52054,task3,1319177,false,true,1588,image-keyboard-response,11
true,23,2,1,1,false,z,false,false,0.0-2.0-0.55-0.500-3.500,1,0,0,68,false,stim,true,2,663.2000000029802,0,0,2,52054,task3,1321356,false,false,1591,image-keyboard-response,12
true,23,0,1,2,false,d,false,false,0.0-2.0-0.55-0.501-3.501,1,0,0,81,false,stim,true,0,1454.7000000029802,0,0,1,52054,task3,1324320,false,false,1594,image-keyboard-response,13
true,23,1,1,1,true,z,false,false,0.0-2.0-0.55-0.502-3.502,1,0,0,90,false,stim,false,1,773.3000000119209,0,1,0,52054,task3,1326604,false,true,1597,image-keyboard-response,14
true,23,1,1,2,false,d,true,true,0.0-2.0-0.55-0.503-3.503,1,0,0,90,false,stim,false,0,500.90000000596046,0,0,1,52054,task3,1328618,false,true,1600,image-keyboard-response,15
true,23,1,1,1,true,z,false,true,0.0-2.0-0.56-0.504-3.504,1,0,0,90,false,stim,false,2,839.0,0,0,2,52054,task3,1330973,false,false,1603,image-keyboard-response,16
true,23,1,1,1,true,z,false,true,0.0-2.0-0.56-0.505-3.505,1,0,0,90,false,stim,false,2,489.80000001192093,0,0,2,52054,task3,1332975,false,false,1606,image-keyboard-response,17
true,23,0,1,1,false,z,true,false,0.0-2.0-0.56-0.506-3.506,1,0,0,81,false,stim,false,1,1474.7999999970198,0,1,0,52054,task3,1335962,false,false,1609,image-keyboard-response,18
true,23,1,1,1,true,z,false,true,0.0-2.0-0.56-0.507-3.507,1,0,0,90,false,stim,false,1,526.3999999910593,0,1,0,52054,task3,1338000,false,false,1612,image-keyboard-response,19
true,23,1,1,2,false,d,true,true,0.0-2.0-0.56-0.508-3.508,1,0,0,90,false,stim,false,0,732.5999999940395,0,0,1,52054,task3,1340239,false,true,1615,image-keyboard-response,20
true,23,1,1,2,false,d,true,true,0.0-2.0-0.56-0.509-3.509,1,0,0,90,false,stim,false,0,449.40000000596046,0,0,1,52054,task3,1342195,false,true,1618,image-keyboard-response,21
true,23,1,1,1,true,z,false,true,0.0-2.0-0.56-0.510-3.510,1,0,0,90,false,stim,false,1,726.0,0,1,0,52054,task3,1344432,false,false,1621,image-keyboard-response,22
true,23,1,1,2,false,d,true,false,0.0-2.0-0.56-0.511-3.511,1,0,0,90,false,stim,false,0,510.90000000596046,0,1,1,52054,task3,1346454,false,false,1624,image-keyboard-response,23
true,23,1,1,1,true,z,false,true,0.0-2.0-0.56-0.512-3.512,1,0,0,90,false,stim,false,2,641.3999999910593,0,0,2,52054,task3,1348606,false,false,1627,image-keyboard-response,24
true,23,1,1,2,false,d,true,false,0.0-2.0-0.57-0.513-3.513,1,0,0,90,false,stim,false,0,1230.5,0,1,1,52054,task3,1351343,false,false,1630,image-keyboard-response,25
true,23,1,1,1,true,z,false,true,0.0-2.0-0.57-0.514-3.514,1,0,0,90,false,stim,false,2,689.2000000029802,0,0,2,52054,task3,1353546,false,false,1633,image-keyboard-response,26
true,23,0,1,1,false,z,true,true,0.0-2.0-0.57-0.515-3.515,1,0,0,81,false,stim,false,1,875.0,0,0,0,52054,task3,1355932,false,true,1636,image-keyboard-response,27
true,24,0,1,2,false,d,true,false,0.0-2.0-0.57-0.516-3.516,0,1,0,81,true,stim,false,1,519.2999999970198,0,0,0,52054,task3,1357964,false,false,1639,image-keyboard-response,1
true,24,1,1,2,false,d,true,false,0.0-2.0-0.57-0.517-3.517,0,1,0,90,false,stim,false,2,1230.7999999970198,0,1,1,52054,task3,1360704,false,false,1642,image-keyboard-response,2
true,24,1,1,2,false,d,false,false,0.0-2.0-0.57-0.518-3.518,0,1,0,90,false,stim,true,1,705.4000000059605,0,0,0,52054,task3,1362927,false,false,1645,image-keyboard-response,3
true,24,1,1,0,false,q,false,false,0.0-2.0-0.57-0.519-3.519,0,1,0,90,false,stim,true,1,535.2999999970198,0,0,2,52054,task3,1364975,false,false,1648,image-keyboard-response,4
true,24,0,1,2,false,d,true,false,0.0-2.0-0.57-0.520-3.520,0,1,0,81,false,stim,false,2,1977.0,0,1,1,52054,task3,1368458,false,false,1651,image-keyboard-response,5
true,24,1,1,0,false,q,false,false,0.0-2.0-0.57-0.521-3.521,0,1,0,90,false,stim,true,1,1827.7999999970198,0,0,2,52054,task3,1371800,false,false,1654,image-keyboard-response,6
true,24,2,1,2,true,d,false,true,0.0-2.0-0.58-0.522-3.522,0,1,0,68,false,stim,false,2,985.5,0,0,1,52054,task3,1374299,false,false,1657,image-keyboard-response,7
true,24,1,1,0,false,q,false,false,0.0-2.0-0.58-0.523-3.523,0,1,0,90,false,stim,true,1,1295.2999999970198,0,1,2,52054,task3,1377110,false,false,1660,image-keyboard-response,8
true,24,1,1,2,false,d,false,false,0.0-2.0-0.58-0.524-3.524,0,1,0,90,false,stim,true,1,1237.0,0,1,0,52054,task3,1379857,false,false,1663,image-keyboard-response,9
true,24,2,1,2,true,d,false,true,0.0-2.0-0.58-0.525-3.525,0,1,0,68,false,stim,false,1,687.8999999910593,0,1,0,52054,task3,1382058,false,false,1666,image-keyboard-response,10
true,24,2,1,2,true,d,false,false,0.0-2.0-0.58-0.526-3.526,0,1,0,68,false,stim,false,1,382.0,0,1,0,52054,task3,1383949,false,true,1669,image-keyboard-response,11
true,25,1,2,0,false,q,true,false,0.0-2.0-0.58-0.527-3.527,1,0,1,90,true,stim,false,0,1984.7999999970198,0,1,2,52054,task3,1387444,false,false,1672,image-keyboard-response,1
true,25,2,2,0,false,q,false,false,0.0-2.0-0.58-0.528-3.528,1,0,1,68,false,stim,true,2,1118.7000000029802,0,0,1,52054,task3,1390076,false,false,1675,image-keyboard-response,2
true,25,0,2,0,true,q,false,true,0.0-2.0-0.58-0.529-3.529,1,0,1,81,false,stim,false,0,759.0,0,1,2,52054,task3,1392350,false,false,1678,image-keyboard-response,3
true,25,0,2,0,true,q,false,true,0.0-2.0-0.58-0.530-3.530,1,0,1,81,false,stim,false,2,1553.2000000029802,0,0,1,52054,task3,1395419,false,false,1681,image-keyboard-response,4
true,25,0,2,0,true,q,false,true,0.0-2.0-0.59-0.531-3.531,1,0,1,81,false,stim,false,0,1395.1000000089407,0,1,2,52054,task3,1398331,false,false,1684,image-keyboard-response,5
true,25,0,2,0,true,q,false,true,0.0-2.0-0.59-0.532-3.532,1,0,1,81,false,stim,false,0,559.8000000119209,0,1,2,52054,task3,1400403,false,false,1687,image-keyboard-response,6
true,25,2,2,2,true,d,false,true,0.0-2.0-0.59-0.533-3.533,1,0,1,68,false,stim,false,2,1650.300000011921,0,1,0,52054,task3,1403565,false,false,1690,image-keyboard-response,7
true,25,2,2,2,true,d,false,true,0.0-2.0-0.59-0.534-3.534,1,0,1,68,false,stim,false,2,671.7999999970198,0,1,0,52054,task3,1405748,false,false,1693,image-keyboard-response,8
true,25,0,2,0,true,q,false,true,0.0-2.0-0.59-0.535-3.535,1,0,1,81,false,stim,false,0,581.4000000059605,0,1,2,52054,task3,1407841,false,false,1696,image-keyboard-response,9
true,25,0,2,0,true,q,false,true,0.0-2.0-0.59-0.536-3.536,1,0,1,81,false,stim,false,2,1419.5999999940395,0,1,1,52054,task3,1410776,false,false,1699,image-keyboard-response,10
true,25,0,2,0,true,q,false,true,0.0-2.0-0.59-0.537-3.537,1,0,1,81,false,stim,false,2,453.79999999701977,0,1,1,52054,task3,1412747,false,false,1702,image-keyboard-response,11
true,25,0,2,2,false,d,true,false,0.0-2.0-0.59-0.538-3.538,1,0,1,81,false,stim,false,2,468.29999999701977,0,1,0,52054,task3,1414732,false,false,1705,image-keyboard-response,12
true,25,0,2,0,true,q,false,true,0.0-2.0-0.59-0.539-3.539,1,0,1,81,false,stim,false,2,1177.9000000059605,0,1,1,52054,task3,1417423,false,false,1708,image-keyboard-response,13
true,25,0,2,0,true,q,false,true,0.0-2.0-0.60-0.540-3.540,1,0,1,81,false,stim,false,2,867.4000000059605,0,1,1,52054,task3,1419807,false,false,1711,image-keyboard-response,14
true,26,1,0,2,false,d,true,false,0.0-2.0-0.60-0.541-3.541,1,1,1,90,true,stim,false,2,1486.7000000029802,0,1,0,52054,task3,1543471,false,false,1834,image-keyboard-response,1
true,26,2,0,0,false,q,true,false,0.0-2.0-0.60-0.542-3.542,1,1,1,68,false,stim,false,0,705.0,0,1,2,52054,task3,1545685,false,false,1837,image-keyboard-response,2
true,26,0,0,2,false,d,true,false,0.0-2.0-0.60-0.543-3.543,1,1,1,81,false,stim,false,2,695.1999999880791,0,1,0,52054,task3,1547896,false,false,1840,image-keyboard-response,3
true,26,2,0,2,true,d,false,true,0.0-2.0-0.60-0.544-3.544,1,1,1,68,false,stim,false,2,490.59999999403954,0,1,0,52054,task3,1549901,false,false,1843,image-keyboard-response,4
true,26,1,0,0,false,q,true,false,0.0-2.0-0.60-0.545-3.545,1,1,1,90,false,stim,false,0,1048.9000000059605,0,1,2,52054,task3,1552466,false,false,1846,image-keyboard-response,5
true,26,0,0,0,true,q,false,true,0.0-2.0-0.60-0.546-3.546,1,1,1,81,false,stim,false,0,626.0999999940395,0,1,2,52054,task3,1554608,false,false,1849,image-keyboard-response,6
true,26,1,0,0,false,q,true,false,0.0-2.0-0.60-0.547-3.547,1,1,1,90,false,stim,false,0,1115.699999988079,0,1,1,52054,task3,1557239,false,false,1852,image-keyboard-response,7
true,26,2,0,0,false,q,true,false,0.0-2.0-0.60-0.548-3.548,1,1,1,68,false,stim,false,0,664.0999999940395,0,1,1,52054,task3,1559420,false,false,1855,image-keyboard-response,8
true,26,0,0,2,false,d,true,false,0.0-2.0-0.61-0.549-3.549,1,1,1,81,false,stim,false,2,939.3000000119209,0,1,0,52054,task3,1561871,false,false,1858,image-keyboard-response,9
true,26,0,0,0,true,q,false,true,0.0-2.0-0.61-0.550-3.550,1,1,1,81,false,stim,false,0,1187.9000000059605,0,0,2,52054,task3,1564572,false,false,1861,image-keyboard-response,10
true,26,0,0,0,true,q,false,true,0.0-2.0-0.61-0.551-3.551,1,1,1,81,false,stim,false,0,763.0999999940395,0,0,1,52054,task3,1566850,false,false,1864,image-keyboard-response,11
true,26,0,0,0,true,q,false,true,0.0-2.0-0.61-0.552-3.552,1,1,1,81,false,stim,false,0,439.70000000298023,0,0,1,52054,task3,1568804,false,false,1867,image-keyboard-response,12
true,26,2,0,2,true,d,false,true,0.0-2.0-0.61-0.553-3.553,1,1,1,68,false,stim,false,2,1110.0,0,1,0,52054,task3,1571430,false,false,1870,image-keyboard-response,13
true,26,0,0,0,true,q,false,true,0.0-2.0-0.61-0.554-3.554,1,1,1,81,false,stim,false,0,1216.7999999970198,0,0,1,52054,task3,1574158,false,false,1873,image-keyboard-response,14
true,27,0,1,2,false,d,true,false,0.0-2.0-0.61-0.555-3.555,1,0,0,81,true,stim,false,2,573.0,0,1,0,52054,task3,1576249,false,false,1876,image-keyboard-response,1
true,27,2,1,2,true,d,false,true,0.0-2.0-0.61-0.556-3.556,1,0,0,68,false,stim,false,0,1392.3999999910593,0,0,2,52054,task3,1579155,false,false,1879,image-keyboard-response,2
true,27,2,1,2,true,d,false,true,0.0-2.0-0.61-0.557-3.557,1,0,0,68,false,stim,false,0,578.7000000029802,0,0,2,52054,task3,1581249,false,false,1882,image-keyboard-response,3
true,27,0,1,2,false,d,true,false,0.0-2.0-0.62-0.558-3.558,1,0,0,81,false,stim,false,2,592.0,0,1,0,52054,task3,1583359,false,false,1885,image-keyboard-response,4
true,27,0,1,1,false,z,false,false,0.0-2.0-0.62-0.559-3.559,1,0,0,81,false,stim,true,0,546.3999999910593,0,0,1,52054,task3,1585420,false,false,1888,image-keyboard-response,5
true,27,1,1,1,true,z,false,true,0.0-2.0-0.62-0.560-3.560,1,0,0,90,false,stim,false,0,862.3999999910593,0,0,1,52054,task3,1587794,false,false,1891,image-keyboard-response,6
true,27,1,1,1,true,z,false,true,0.0-2.0-0.62-0.561-3.561,1,0,0,90,false,stim,false,0,408.0,0,0,1,52054,task3,1589719,false,false,1894,image-keyboard-response,7
true,27,2,1,2,true,d,false,true,0.0-2.0-0.62-0.562-3.562,1,0,0,68,false,stim,false,0,1208.2000000029802,0,0,2,52054,task3,1592443,false,false,1897,image-keyboard-response,8
true,27,0,1,2,false,d,true,false,0.0-2.0-0.62-0.563-3.563,1,0,0,81,false,stim,false,2,924.7999999970198,0,1,0,52054,task3,1594880,false,false,1900,image-keyboard-response,9
true,27,2,1,2,true,d,false,true,0.0-2.0-0.62-0.564-3.564,1,0,0,68,false,stim,false,0,768.5999999940395,0,0,2,52054,task3,1597171,false,false,1903,image-keyboard-response,10
true,27,2,1,2,true,d,false,false,0.0-2.0-0.62-0.565-3.565,1,0,0,68,false,stim,false,0,583.8999999910593,0,0,2,52054,task3,1599272,false,true,1906,image-keyboard-response,11
true,27,2,1,2,true,d,false,true,0.0-2.0-0.62-0.566-3.566,1,0,0,68,false,stim,false,2,510.40000000596046,0,1,0,52054,task3,1601299,false,false,1909,image-keyboard-response,12
true,27,2,1,2,true,d,false,true,0.0-2.0-0.63-0.567-3.567,1,0,0,68,false,stim,false,2,499.30000001192093,0,1,0,52054,task3,1603314,false,false,1912,image-keyboard-response,13
true,27,2,1,2,true,d,false,true,0.0-2.0-0.63-0.568-3.568,1,0,0,68,false,stim,false,2,511.20000000298023,0,1,0,52054,task3,1605340,false,false,1915,image-keyboard-response,14
true,27,1,1,1,true,z,false,true,0.0-2.0-0.63-0.569-3.569,1,0,0,90,false,stim,false,0,787.5,0,0,1,52054,task3,1607645,false,false,1918,image-keyboard-response,15
true,27,2,1,2,true,d,false,true,0.0-2.0-0.63-0.570-3.570,1,0,0,68,false,stim,false,0,933.9000000059605,0,0,2,52054,task3,1610091,false,false,1921,image-keyboard-response,16
true,27,2,1,1,false,z,true,false,0.0-2.0-0.63-0.571-3.571,1,0,0,68,false,stim,false,0,577.2999999970198,0,0,1,52054,task3,1612176,false,false,1924,image-keyboard-response,17
true,27,1,1,1,true,z,false,true,0.0-2.0-0.63-0.572-3.572,1,0,0,90,false,stim,false,0,796.8000000119209,0,0,1,52054,task3,1614489,false,false,1927,image-keyboard-response,18
true,27,2,1,2,true,d,false,true,0.0-2.0-0.63-0.573-3.573,1,0,0,68,false,stim,false,0,816.2999999970198,0,0,2,52054,task3,1616821,false,false,1930,image-keyboard-response,19
true,27,2,1,2,true,d,false,true,0.0-2.0-0.63-0.574-3.574,1,0,0,68,false,stim,false,0,402.8999999910593,0,0,2,52054,task3,1618732,false,false,1933,image-keyboard-response,20
true,27,2,1,2,true,d,false,true,0.0-2.0-0.63-0.575-3.575,1,0,0,68,false,stim,false,2,705.1999999880791,0,1,0,52054,task3,1620949,false,false,1936,image-keyboard-response,21
true,27,2,1,2,true,d,false,true,0.0-2.0-0.64-0.576-3.576,1,0,0,68,false,stim,false,2,436.5,0,1,0,52054,task3,1622900,false,false,1939,image-keyboard-response,22
true,27,2,1,2,true,d,false,true,0.0-2.0-0.64-0.577-3.577,1,0,0,68,false,stim,false,0,538.0,0,0,2,52054,task3,1624953,false,false,1942,image-keyboard-response,23
true,27,1,1,1,true,z,false,true,0.0-2.0-0.64-0.578-3.578,1,0,0,90,false,stim,false,0,1254.0,0,1,1,52054,task3,1627721,false,false,1945,image-keyboard-response,24
true,27,2,1,2,true,d,false,true,0.0-2.0-0.64-0.579-3.579,1,0,0,68,false,stim,false,0,826.2999999970198,0,0,2,52054,task3,1630065,false,false,1948,image-keyboard-response,25
true,27,2,1,2,true,d,false,true,0.0-2.0-0.64-0.580-3.580,1,0,0,68,false,stim,false,0,1443.8999999910593,0,0,2,52054,task3,1633024,false,false,1951,image-keyboard-response,26
true,27,1,1,1,true,z,false,true,0.0-2.0-0.64-0.581-3.581,1,0,0,90,false,stim,false,0,811.0,0,1,1,52054,task3,1635348,false,false,1954,image-keyboard-response,27
true,28,2,2,2,true,d,false,true,0.0-2.0-0.64-0.582-3.582,1,1,0,68,true,stim,false,2,739.0999999940395,0,1,0,52054,task3,1637604,false,false,1957,image-keyboard-response,1
true,28,2,2,2,true,d,false,true,0.0-2.0-0.64-0.583-3.583,1,1,0,68,false,stim,false,2,1196.0,0,1,0,52054,task3,1640315,false,false,1960,image-keyboard-response,2
true,28,1,2,1,true,z,false,true,0.0-2.0-0.64-0.584-3.584,1,1,0,90,false,stim,false,1,937.2000000029802,0,1,1,52054,task3,1642767,false,false,1963,image-keyboard-response,3
true,28,2,2,2,true,d,false,true,0.0-2.0-0.65-0.585-3.585,1,1,0,68,false,stim,false,2,589.8000000119209,0,1,0,52054,task3,1644871,false,false,1966,image-keyboard-response,4
true,28,2,2,0,false,q,false,false,0.0-2.0-0.65-0.586-3.586,1,1,0,68,false,stim,true,2,890.5999999940395,0,0,2,52054,task3,1647278,false,false,1969,image-keyboard-response,5
true,28,1,2,2,false,d,true,false,0.0-2.0-0.65-0.587-3.587,1,1,0,90,false,stim,false,2,545.4000000059605,0,1,0,52054,task3,1649334,false,false,1972,image-keyboard-response,6
true,28,2,2,0,false,q,false,false,0.0-2.0-0.65-0.588-3.588,1,1,0,68,false,stim,true,2,1076.2999999970198,0,0,2,52054,task3,1651926,false,false,1975,image-keyboard-response,7
true,28,1,2,1,true,z,false,false,0.0-2.0-0.65-0.589-3.589,1,1,0,90,false,stim,false,1,1074.2000000029802,0,1,1,52054,task3,1654513,false,true,1978,image-keyboard-response,8
