answered,blockNum,choice,condition,corResp,correct,correct_response,explo,fb,internal_node_id,isStable_1,isStable_2,isStable_3,key_press,newBlock,part,persev,persevResp,rt,sessNum,stableAS,stimulus,subject,task,time_elapsed,training,trap,trial_index,trial_type,trialsInBlock
true,1,0,0,2,false,d,true,false,0.0-2.0-0.0-0.0-3.0,0,0,0,81,true,stim,false,-1,1665,2,0,1,53294,task3,128267,false,false,112,image-keyboard-response,1
true,1,0,0,1,false,z,true,false,0.0-2.0-0.0-0.1-3.1,0,0,0,81,false,stim,false,-1,804,2,0,0,53294,task3,130595,false,false,115,image-keyboard-response,2
true,1,0,0,1,false,z,true,false,0.0-2.0-0.0-0.2-3.2,0,0,0,81,false,stim,false,-1,661,2,0,2,53294,task3,132796,false,false,118,image-keyboard-response,3
true,1,1,0,1,true,z,false,true,0.0-2.0-0.0-0.3-3.3,0,0,0,90,false,stim,false,-1,655,2,0,2,53294,task3,134987,false,false,121,image-keyboard-response,4
true,1,1,0,1,true,z,false,true,0.0-2.0-0.0-0.4-3.4,0,0,0,90,false,stim,false,-1,633,2,0,2,53294,task3,137156,false,false,124,image-keyboard-response,5
true,1,2,0,1,false,z,true,false,0.0-2.0-0.0-0.5-3.5,0,0,0,68,false,stim,false,-1,888,2,0,0,53294,task3,139572,false,false,127,image-keyboard-response,6
true,1,1,0,1,true,z,false,true,0.0-2.0-0.0-0.6-3.6,0,0,0,90,false,stim,false,-1,398,2,0,0,53294,task3,141492,false,false,130,image-keyboard-response,7
true,1,2,0,2,true,d,false,true,0.0-2.0-0.0-0.7-3.7,0,0,0,68,false,stim,false,-1,558,2,0,1,53294,task3,143572,false,false,133,image-keyboard-response,8
true,1,2,0,2,true,d,false,true,0.0-2.0-0.0-0.8-3.8,0,0,0,68,false,stim,false,-1,568,2,0,1,53294,task3,145660,false,false,136,image-keyboard-response,9
true,1,1,0,1,true,z,false,true,0.0-2.0-0.1-0.9-3.9,0,0,0,90,false,stim,false,-1,604,2,0,0,53294,task3,147787,false,false,139,image-keyboard-response,10
true,1,1,0,1,true,z,false,true,0.0-2.0-0.1-0.10-3.10,0,0,0,90,false,stim,false,-1,489,2,0,0,53294,task3,149812,false,false,142,image-keyboard-response,11
true,1,1,0,1,true,z,false,true,0.0-2.0-0.1-0.11-3.11,0,0,0,90,false,stim,false,-1,565,2,0,2,53294,task3,151907,false,false,145,image-keyboard-response,12
true,1,1,0,1,true,z,false,true,0.0-2.0-0.1-0.12-3.12,0,0,0,90,false,stim,false,-1,612,2,0,0,53294,task3,154044,false,false,148,image-keyboard-response,13
true,1,2,0,2,true,d,false,true,0.0-2.0-0.1-0.13-3.13,0,0,0,68,false,stim,false,-1,710,2,0,1,53294,task3,156284,false,false,151,image-keyboard-response,14
true,1,1,0,1,true,z,false,true,0.0-2.0-0.1-0.14-3.14,0,0,0,90,false,stim,false,-1,805,2,0,2,53294,task3,158595,false,false,154,image-keyboard-response,15
true,1,2,0,2,true,d,false,true,0.0-2.0-0.1-0.15-3.15,0,0,0,68,false,stim,false,-1,600,2,0,1,53294,task3,160732,false,false,157,image-keyboard-response,16
true,1,1,0,1,true,z,false,true,0.0-2.0-0.1-0.16-3.16,0,0,0,90,false,stim,false,-1,596,2,0,2,53294,task3,162868,false,false,160,image-keyboard-response,17
true,1,2,0,2,true,d,false,true,0.0-2.0-0.1-0.17-3.17,0,0,0,68,false,stim,false,-1,761,2,0,1,53294,task3,165165,false,false,163,image-keyboard-response,18
true,1,1,0,1,true,z,false,true,0.0-2.0-0.2-0.18-3.18,0,0,0,90,false,stim,false,-1,664,2,0,0,53294,task3,167355,false,false,166,image-keyboard-response,19
true,1,2,0,2,true,d,false,true,0.0-2.0-0.2-0.19-3.19,0,0,0,68,false,stim,false,-1,848,2,1,1,53294,task3,169732,false,false,169,image-keyboard-response,20
true,1,2,0,2,true,d,false,true,0.0-2.0-0.2-0.20-3.20,0,0,0,68,false,stim,false,-1,654,2,1,1,53294,task3,171915,false,false,172,image-keyboard-response,21
true,1,1,0,1,true,z,false,true,0.0-2.0-0.2-0.21-3.21,0,0,0,90,false,stim,false,-1,484,2,0,2,53294,task3,173907,false,false,175,image-keyboard-response,22
true,1,1,0,1,true,z,false,true,0.0-2.0-0.2-0.22-3.22,0,0,0,90,false,stim,false,-1,579,2,0,0,53294,task3,176011,false,false,178,image-keyboard-response,23
true,2,2,1,2,true,d,false,true,0.0-2.0-0.2-0.23-3.23,0,1,0,68,true,stim,false,2,714,2,1,1,53294,task3,178243,false,false,181,image-keyboard-response,1
true,2,1,1,0,false,q,false,false,0.0-2.0-0.2-0.24-3.24,0,1,0,90,false,stim,true,1,1944,2,0,0,53294,task3,181716,false,false,184,image-keyboard-response,2
true,2,1,1,2,false,d,false,false,0.0-2.0-0.2-0.25-3.25,0,1,0,90,false,stim,true,1,1547,2,0,2,53294,task3,184788,false,false,187,image-keyboard-response,3
true,2,2,1,2,true,d,false,false,0.0-2.0-0.2-0.26-3.26,0,1,0,68,false,stim,false,1,843,2,0,2,53294,task3,187155,false,true,190,image-keyboard-response,4
true,2,2,1,2,true,d,false,true,0.0-2.0-0.3-0.27-3.27,0,1,0,68,false,stim,false,2,866,2,1,1,53294,task3,189547,false,false,193,image-keyboard-response,5
true,2,0,1,0,true,q,false,true,0.0-2.0-0.3-0.28-3.28,0,1,0,81,false,stim,false,1,724,2,0,0,53294,task3,191795,false,false,196,image-keyboard-response,6
true,2,2,1,2,true,d,false,true,0.0-2.0-0.3-0.29-3.29,0,1,0,68,false,stim,false,2,697,2,1,1,53294,task3,194028,false,false,199,image-keyboard-response,7
true,2,0,1,2,false,d,true,false,0.0-2.0-0.3-0.30-3.30,0,1,0,81,false,stim,false,1,523,2,0,2,53294,task3,196075,false,false,202,image-keyboard-response,8
true,2,2,1,2,true,d,false,true,0.0-2.0-0.3-0.31-3.31,0,1,0,68,false,stim,false,1,562,2,0,2,53294,task3,198163,false,false,205,image-keyboard-response,9
true,2,0,1,0,true,q,false,true,0.0-2.0-0.3-0.32-3.32,0,1,0,81,false,stim,false,1,908,2,0,0,53294,task3,200579,false,false,208,image-keyboard-response,10
true,2,0,1,0,true,q,false,true,0.0-2.0-0.3-0.33-3.33,0,1,0,81,false,stim,false,1,563,2,0,0,53294,task3,202675,false,false,211,image-keyboard-response,11
true,2,2,1,2,true,d,false,true,0.0-2.0-0.3-0.34-3.34,0,1,0,68,false,stim,false,1,719,2,0,2,53294,task3,204931,false,false,214,image-keyboard-response,12
true,2,2,1,2,true,d,false,true,0.0-2.0-0.3-0.35-3.35,0,1,0,68,false,stim,false,2,555,2,1,1,53294,task3,206987,false,false,217,image-keyboard-response,13
true,2,0,1,0,true,q,false,true,0.0-2.0-0.4-0.36-3.36,0,1,0,81,false,stim,false,1,1379,2,0,0,53294,task3,209892,false,false,220,image-keyboard-response,14
true,2,0,1,0,true,q,false,true,0.0-2.0-0.4-0.37-3.37,0,1,0,81,false,stim,false,1,509,2,0,0,53294,task3,211931,false,false,223,image-keyboard-response,15
true,2,2,1,2,true,d,false,true,0.0-2.0-0.4-0.38-3.38,0,1,0,68,false,stim,false,2,614,2,1,1,53294,task3,214067,false,false,226,image-keyboard-response,16
true,2,2,1,2,true,d,false,true,0.0-2.0-0.4-0.39-3.39,0,1,0,68,false,stim,false,1,435,2,0,2,53294,task3,216027,false,false,229,image-keyboard-response,17
true,2,2,1,2,true,d,false,true,0.0-2.0-0.4-0.40-3.40,0,1,0,68,false,stim,false,2,1199,2,1,1,53294,task3,218763,false,false,232,image-keyboard-response,18
true,2,2,1,2,true,d,false,true,0.0-2.0-0.4-0.41-3.41,0,1,0,68,false,stim,false,1,445,2,0,2,53294,task3,220747,false,false,235,image-keyboard-response,19
true,2,0,1,0,true,q,false,true,0.0-2.0-0.4-0.42-3.42,0,1,0,81,false,stim,false,1,489,2,0,0,53294,task3,222772,false,false,238,image-keyboard-response,20
true,2,2,1,2,true,d,false,true,0.0-2.0-0.4-0.43-3.43,0,1,0,68,false,stim,false,2,714,2,0,1,53294,task3,225027,false,false,241,image-keyboard-response,21
true,2,2,1,2,true,d,false,true,0.0-2.0-0.4-0.44-3.44,0,1,0,68,false,stim,false,1,1083,2,1,2,53294,task3,227636,false,false,244,image-keyboard-response,22
true,2,0,1,0,true,q,false,true,0.0-2.0-0.5-0.45-3.45,0,1,0,81,false,stim,false,1,622,2,0,0,53294,task3,229795,false,false,247,image-keyboard-response,23
true,2,2,1,2,true,d,false,true,0.0-2.0-0.5-0.46-3.46,0,1,0,68,false,stim,false,2,879,2,0,1,53294,task3,232212,false,false,250,image-keyboard-response,24
true,2,2,1,2,true,d,false,true,0.0-2.0-0.5-0.47-3.47,0,1,0,68,false,stim,false,1,1117,2,1,2,53294,task3,234859,false,false,253,image-keyboard-response,25
true,3,2,1,0,false,q,false,false,0.0-2.0-0.5-0.48-3.48,0,0,1,68,true,stim,true,2,669,2,0,1,53294,task3,237051,false,false,256,image-keyboard-response,1
true,3,2,1,2,true,d,false,true,0.0-2.0-0.5-0.49-3.49,0,0,1,68,false,stim,false,2,646,2,1,2,53294,task3,239228,false,false,259,image-keyboard-response,2
true,3,0,1,1,false,z,false,false,0.0-2.0-0.5-0.50-3.50,0,0,1,81,false,stim,true,0,923,2,0,0,53294,task3,241676,false,false,262,image-keyboard-response,3
true,3,2,1,0,false,q,false,false,0.0-2.0-0.5-0.51-3.51,0,0,1,68,false,stim,true,2,1047,2,0,1,53294,task3,244260,false,false,265,image-keyboard-response,4
true,3,2,1,2,true,d,false,true,0.0-2.0-0.5-0.52-3.52,0,0,1,68,false,stim,false,2,725,2,1,2,53294,task3,246507,false,false,268,image-keyboard-response,5
true,3,1,1,1,true,z,false,true,0.0-2.0-0.5-0.53-3.53,0,0,1,90,false,stim,false,0,771,2,0,0,53294,task3,248803,false,false,271,image-keyboard-response,6
true,3,0,1,0,true,q,false,true,0.0-2.0-0.6-0.54-3.54,0,0,1,81,false,stim,false,2,1721,2,0,1,53294,task3,252051,false,false,274,image-keyboard-response,7
true,3,1,1,1,true,z,false,true,0.0-2.0-0.6-0.55-3.55,0,0,1,90,false,stim,false,0,1038,2,0,0,53294,task3,254620,false,false,277,image-keyboard-response,8
true,3,0,1,0,true,q,false,true,0.0-2.0-0.6-0.56-3.56,0,0,1,81,false,stim,false,2,367,2,0,1,53294,task3,256500,false,false,280,image-keyboard-response,9
true,3,1,1,1,true,z,false,true,0.0-2.0-0.6-0.57-3.57,0,0,1,90,false,stim,false,0,948,2,0,0,53294,task3,258979,false,false,283,image-keyboard-response,10
true,3,2,1,2,true,d,false,true,0.0-2.0-0.6-0.58-3.58,0,0,1,68,false,stim,false,2,541,2,1,2,53294,task3,261044,false,false,286,image-keyboard-response,11
true,3,2,1,2,true,d,false,true,0.0-2.0-0.6-0.59-3.59,0,0,1,68,false,stim,false,2,1373,2,1,2,53294,task3,263955,false,false,289,image-keyboard-response,12
true,3,2,1,2,true,d,false,true,0.0-2.0-0.6-0.60-3.60,0,0,1,68,false,stim,false,2,597,2,1,2,53294,task3,266075,false,false,292,image-keyboard-response,13
true,3,0,1,0,true,q,false,true,0.0-2.0-0.6-0.61-3.61,0,0,1,81,false,stim,false,2,886,2,0,1,53294,task3,268467,false,false,295,image-keyboard-response,14
true,3,1,1,1,true,z,false,true,0.0-2.0-0.6-0.62-3.62,0,0,1,90,false,stim,false,0,387,2,0,0,53294,task3,270379,false,false,298,image-keyboard-response,15
true,3,1,1,1,true,z,false,true,0.0-2.0-0.7-0.63-3.63,0,0,1,90,false,stim,false,0,912,2,0,0,53294,task3,272828,false,false,301,image-keyboard-response,16
true,3,2,1,2,true,d,false,true,0.0-2.0-0.7-0.64-3.64,0,0,1,68,false,stim,false,2,427,2,1,2,53294,task3,274779,false,false,304,image-keyboard-response,17
true,3,2,1,2,true,d,false,true,0.0-2.0-0.7-0.65-3.65,0,0,1,68,false,stim,false,2,572,2,1,2,53294,task3,276884,false,false,307,image-keyboard-response,18
true,3,0,1,0,true,q,false,true,0.0-2.0-0.7-0.66-3.66,0,0,1,81,false,stim,false,2,807,2,0,1,53294,task3,279220,false,false,310,image-keyboard-response,19
true,3,2,1,2,true,d,false,true,0.0-2.0-0.7-0.67-3.67,0,0,1,68,false,stim,false,2,1002,2,1,2,53294,task3,281755,false,false,313,image-keyboard-response,20
true,3,1,1,1,true,z,false,true,0.0-2.0-0.7-0.68-3.68,0,0,1,90,false,stim,false,0,407,2,0,0,53294,task3,283700,false,false,316,image-keyboard-response,21
true,3,0,1,0,true,q,false,true,0.0-2.0-0.7-0.69-3.69,0,0,1,81,false,stim,false,2,844,2,0,1,53294,task3,286067,false,false,319,image-keyboard-response,22
true,3,1,1,1,true,z,false,true,0.0-2.0-0.7-0.70-3.70,0,0,1,90,false,stim,false,0,1273,2,1,0,53294,task3,288875,false,false,322,image-keyboard-response,23
true,3,0,1,0,true,q,false,true,0.0-2.0-0.7-0.71-3.71,0,0,1,81,false,stim,false,2,425,2,0,1,53294,task3,290827,false,false,325,image-keyboard-response,24
true,3,1,1,1,true,z,false,true,0.0-2.0-0.8-0.72-3.72,0,0,1,90,false,stim,false,0,899,2,1,0,53294,task3,293251,false,false,328,image-keyboard-response,25
true,3,2,1,2,true,d,false,true,0.0-2.0-0.8-0.73-3.73,0,0,1,68,false,stim,false,2,587,2,1,2,53294,task3,295379,false,false,331,image-keyboard-response,26
true,3,0,1,0,true,q,false,true,0.0-2.0-0.8-0.74-3.74,0,0,1,81,false,stim,false,2,470,2,0,1,53294,task3,297371,false,false,334,image-keyboard-response,27
true,4,0,2,2,false,d,false,false,0.0-2.0-0.8-0.75-3.75,1,0,1,81,true,stim,true,0,661,2,0,1,53294,task3,299564,false,false,337,image-keyboard-response,1
true,4,1,2,1,true,z,false,true,0.0-2.0-0.8-0.76-3.76,1,0,1,90,false,stim,false,1,510,2,1,0,53294,task3,301603,false,false,340,image-keyboard-response,2
true,4,1,2,1,true,z,false,true,0.0-2.0-0.8-0.77-3.77,1,0,1,90,false,stim,false,1,649,2,1,0,53294,task3,303772,false,false,343,image-keyboard-response,3
true,4,0,2,2,false,d,false,false,0.0-2.0-0.8-0.78-3.78,1,0,1,81,false,stim,true,0,1294,2,0,1,53294,task3,306595,false,false,346,image-keyboard-response,4
true,4,2,2,2,true,d,false,false,0.0-2.0-0.8-0.79-3.79,1,0,1,68,false,stim,false,2,439,2,1,2,53294,task3,308571,false,true,349,image-keyboard-response,5
true,4,0,2,2,false,d,true,false,0.0-2.0-0.8-0.80-3.80,1,0,1,81,false,stim,false,2,577,2,1,2,53294,task3,310659,false,false,352,image-keyboard-response,6
true,4,2,2,2,true,d,false,true,0.0-2.0-0.9-0.81-3.81,1,0,1,68,false,stim,false,0,1671,2,0,1,53294,task3,313844,false,false,355,image-keyboard-response,7
true,4,1,2,2,false,d,true,false,0.0-2.0-0.9-0.82-3.82,1,0,1,90,false,stim,false,2,1301,2,1,2,53294,task3,316683,false,false,358,image-keyboard-response,8
true,4,2,2,2,true,d,false,true,0.0-2.0-0.9-0.83-3.83,1,0,1,68,false,stim,false,0,981,2,0,1,53294,task3,319203,false,false,361,image-keyboard-response,9
true,4,1,2,1,true,z,false,true,0.0-2.0-0.9-0.84-3.84,1,0,1,90,false,stim,false,1,1094,2,0,0,53294,task3,321827,false,false,364,image-keyboard-response,10
true,4,1,2,1,true,z,false,false,0.0-2.0-0.9-0.85-3.85,1,0,1,90,false,stim,false,1,672,2,0,0,53294,task3,324034,false,true,367,image-keyboard-response,11
true,4,2,2,2,true,d,false,true,0.0-2.0-0.9-0.86-3.86,1,0,1,68,false,stim,false,2,1386,2,0,2,53294,task3,326947,false,false,370,image-keyboard-response,12
true,4,0,2,1,false,z,true,false,0.0-2.0-0.9-0.87-3.87,1,0,1,81,false,stim,false,1,971,2,0,0,53294,task3,329443,false,false,373,image-keyboard-response,13
true,4,2,2,2,true,d,false,false,0.0-2.0-0.9-0.88-3.88,1,0,1,68,false,stim,false,0,968,2,1,1,53294,task3,331931,false,true,376,image-keyboard-response,14
true,5,2,1,1,false,z,false,true,0.0-2.0-0.9-0.89-3.89,0,1,0,68,true,stim,true,2,396,2,0,2,53294,task3,333859,false,true,379,image-keyboard-response,1
true,5,2,1,1,false,z,false,true,0.0-2.0-0.10-0.90-3.90,0,1,0,68,false,stim,true,2,1011,2,0,2,53294,task3,336403,false,true,382,image-keyboard-response,2
true,5,2,1,1,false,z,false,false,0.0-2.0-0.10-0.91-3.91,0,1,0,68,false,stim,true,2,550,2,0,2,53294,task3,338484,false,false,385,image-keyboard-response,3
true,5,1,1,0,false,q,false,false,0.0-2.0-0.10-0.92-3.92,0,1,0,90,false,stim,true,1,711,2,0,0,53294,task3,340724,false,false,388,image-keyboard-response,4
true,5,2,1,0,false,q,true,false,0.0-2.0-0.10-0.93-3.93,0,1,0,68,false,stim,false,1,402,2,0,0,53294,task3,342644,false,false,391,image-keyboard-response,5
true,5,0,1,0,true,q,false,true,0.0-2.0-0.10-0.94-3.94,0,1,0,81,false,stim,false,1,425,2,0,0,53294,task3,344603,false,false,394,image-keyboard-response,6
true,5,1,1,2,false,d,true,true,0.0-2.0-0.10-0.95-3.95,0,1,0,90,false,stim,false,2,1572,2,1,1,53294,task3,347691,false,true,397,image-keyboard-response,7
true,5,1,1,2,false,d,true,false,0.0-2.0-0.10-0.96-3.96,0,1,0,90,false,stim,false,2,820,2,1,1,53294,task3,350043,false,false,400,image-keyboard-response,8
true,5,1,1,2,false,d,true,false,0.0-2.0-0.10-0.97-3.97,0,1,0,90,false,stim,false,2,557,2,1,1,53294,task3,352139,false,false,403,image-keyboard-response,9
true,5,2,1,1,false,z,false,false,0.0-2.0-0.10-0.98-3.98,0,1,0,68,false,stim,true,2,772,2,0,2,53294,task3,354435,false,false,406,image-keyboard-response,10
true,5,0,1,0,true,q,false,true,0.0-2.0-0.11-0.99-3.99,0,1,0,81,false,stim,false,1,703,2,0,0,53294,task3,356676,false,false,409,image-keyboard-response,11
true,5,0,1,0,true,q,false,true,0.0-2.0-0.11-0.100-3.100,0,1,0,81,false,stim,false,1,448,2,0,0,53294,task3,358651,false,false,412,image-keyboard-response,12
true,5,1,1,1,true,z,false,true,0.0-2.0-0.11-0.101-3.101,0,1,0,90,false,stim,false,2,960,2,0,2,53294,task3,361132,false,false,415,image-keyboard-response,13
true,5,2,1,2,true,d,false,true,0.0-2.0-0.11-0.102-3.102,0,1,0,68,false,stim,false,2,736,2,1,1,53294,task3,363387,false,false,418,image-keyboard-response,14
true,5,2,1,2,true,d,false,true,0.0-2.0-0.11-0.103-3.103,0,1,0,68,false,stim,false,2,1419,2,1,1,53294,task3,366332,false,false,421,image-keyboard-response,15
true,5,1,1,1,true,z,false,false,0.0-2.0-0.11-0.104-3.104,0,1,0,90,false,stim,false,2,964,2,0,2,53294,task3,368835,false,true,424,image-keyboard-response,16
true,5,1,1,1,true,z,false,false,0.0-2.0-0.11-0.105-3.105,0,1,0,90,false,stim,false,2,1183,2,0,2,53294,task3,371539,false,true,427,image-keyboard-response,17
true,5,2,1,2,true,d,false,true,0.0-2.0-0.11-0.106-3.106,0,1,0,68,false,stim,false,2,808,2,1,1,53294,task3,373860,false,false,430,image-keyboard-response,18
true,5,0,1,0,true,q,false,true,0.0-2.0-0.11-0.107-3.107,0,1,0,81,false,stim,false,1,419,2,0,0,53294,task3,375811,false,false,433,image-keyboard-response,19
true,5,1,1,1,true,z,false,true,0.0-2.0-0.12-0.108-3.108,0,1,0,90,false,stim,false,2,661,2,0,2,53294,task3,378003,false,false,436,image-keyboard-response,20
true,5,1,1,1,true,z,false,true,0.0-2.0-0.12-0.109-3.109,0,1,0,90,false,stim,false,2,605,2,0,2,53294,task3,380147,false,false,439,image-keyboard-response,21
true,5,2,1,2,true,d,false,true,0.0-2.0-0.12-0.110-3.110,0,1,0,68,false,stim,false,2,972,2,0,1,53294,task3,382643,false,false,442,image-keyboard-response,22
true,5,0,1,0,true,q,false,true,0.0-2.0-0.12-0.111-3.111,0,1,0,81,false,stim,false,1,590,2,1,0,53294,task3,384763,false,false,445,image-keyboard-response,23
true,5,1,1,1,true,z,false,false,0.0-2.0-0.12-0.112-3.112,0,1,0,90,false,stim,false,2,1288,2,0,2,53294,task3,387580,false,true,448,image-keyboard-response,24
true,5,2,1,2,true,d,false,true,0.0-2.0-0.12-0.113-3.113,0,1,0,68,false,stim,false,2,340,2,0,1,53294,task3,389451,false,false,451,image-keyboard-response,25
true,5,2,1,2,true,d,false,true,0.0-2.0-0.12-0.114-3.114,0,1,0,68,false,stim,false,2,469,2,0,1,53294,task3,391451,false,false,454,image-keyboard-response,26
true,6,0,1,0,true,q,false,true,0.0-2.0-0.12-0.115-3.115,1,0,0,81,true,stim,false,0,776,2,1,0,53294,task3,393747,false,false,457,image-keyboard-response,1
true,6,0,1,0,true,q,false,true,0.0-2.0-0.12-0.116-3.116,1,0,0,81,false,stim,false,0,476,2,1,0,53294,task3,395747,false,false,460,image-keyboard-response,2
true,6,0,1,0,true,q,false,true,0.0-2.0-0.13-0.117-3.117,1,0,0,81,false,stim,false,0,579,2,1,0,53294,task3,397851,false,false,463,image-keyboard-response,3
true,6,2,1,1,false,z,false,false,0.0-2.0-0.13-0.118-3.118,1,0,0,68,false,stim,true,2,913,2,0,1,53294,task3,400307,false,false,466,image-keyboard-response,4
true,6,2,1,0,false,q,true,false,0.0-2.0-0.13-0.119-3.119,1,0,0,68,false,stim,false,1,560,2,0,2,53294,task3,402371,false,false,469,image-keyboard-response,5
true,6,0,1,0,true,q,false,true,0.0-2.0-0.13-0.120-3.120,1,0,0,81,false,stim,false,0,1007,2,1,0,53294,task3,404899,false,false,472,image-keyboard-response,6
true,6,1,1,1,true,z,false,true,0.0-2.0-0.13-0.121-3.121,1,0,0,90,false,stim,false,2,1155,2,0,1,53294,task3,407587,false,false,475,image-keyboard-response,7
true,6,0,1,0,true,q,false,true,0.0-2.0-0.13-0.122-3.122,1,0,0,81,false,stim,false,1,754,2,0,2,53294,task3,409875,false,false,478,image-keyboard-response,8
true,6,1,1,1,true,z,false,true,0.0-2.0-0.13-0.123-3.123,1,0,0,90,false,stim,false,2,880,2,0,1,53294,task3,412283,false,false,481,image-keyboard-response,9
true,6,0,1,0,true,q,false,false,0.0-2.0-0.13-0.124-3.124,1,0,0,81,false,stim,false,0,1118,2,1,0,53294,task3,414939,false,true,484,image-keyboard-response,10
true,6,0,1,0,true,q,false,true,0.0-2.0-0.13-0.125-3.125,1,0,0,81,false,stim,false,1,498,2,0,2,53294,task3,416970,false,false,487,image-keyboard-response,11
true,6,0,1,0,true,q,false,true,0.0-2.0-0.14-0.126-3.126,1,0,0,81,false,stim,false,0,720,2,1,0,53294,task3,419211,false,false,490,image-keyboard-response,12
true,6,0,1,0,true,q,false,true,0.0-2.0-0.14-0.127-3.127,1,0,0,81,false,stim,false,0,575,2,1,0,53294,task3,421307,false,false,493,image-keyboard-response,13
true,6,2,1,1,false,z,false,false,0.0-2.0-0.14-0.128-3.128,1,0,0,68,false,stim,true,2,748,2,0,1,53294,task3,423571,false,false,496,image-keyboard-response,14
true,6,1,1,1,true,z,false,true,0.0-2.0-0.14-0.129-3.129,1,0,0,90,false,stim,false,2,558,2,0,1,53294,task3,425659,false,false,499,image-keyboard-response,15
true,6,0,1,0,true,q,false,true,0.0-2.0-0.14-0.130-3.130,1,0,0,81,false,stim,false,0,988,2,1,0,53294,task3,428179,false,false,502,image-keyboard-response,16
true,6,0,1,0,true,q,false,true,0.0-2.0-0.14-0.131-3.131,1,0,0,81,false,stim,false,1,556,2,0,2,53294,task3,430267,false,false,505,image-keyboard-response,17
true,6,0,1,0,true,q,false,true,0.0-2.0-0.14-0.132-3.132,1,0,0,81,false,stim,false,1,553,2,0,2,53294,task3,432354,false,false,508,image-keyboard-response,18
true,6,0,1,0,true,q,false,true,0.0-2.0-0.14-0.133-3.133,1,0,0,81,false,stim,false,1,421,2,0,2,53294,task3,434283,false,false,511,image-keyboard-response,19
true,6,1,1,1,true,z,false,true,0.0-2.0-0.14-0.134-3.134,1,0,0,90,false,stim,false,2,1286,2,0,1,53294,task3,437107,false,false,514,image-keyboard-response,20
true,6,0,1,0,true,q,false,true,0.0-2.0-0.15-0.135-3.135,1,0,0,81,false,stim,false,1,940,2,1,2,53294,task3,439572,false,false,517,image-keyboard-response,21
true,6,0,1,0,true,q,false,true,0.0-2.0-0.15-0.136-3.136,1,0,0,81,false,stim,false,0,875,2,0,0,53294,task3,441987,false,false,520,image-keyboard-response,22
true,6,0,1,0,true,q,false,true,0.0-2.0-0.15-0.137-3.137,1,0,0,81,false,stim,false,1,1611,2,1,2,53294,task3,445123,false,false,523,image-keyboard-response,23
true,6,1,1,1,true,z,false,true,0.0-2.0-0.15-0.138-3.138,1,0,0,90,false,stim,false,2,1189,2,0,1,53294,task3,447851,false,false,526,image-keyboard-response,24
true,7,0,1,2,false,d,false,false,0.0-2.0-0.15-0.139-3.139,0,0,1,81,true,stim,true,0,1116,2,0,0,53294,task3,450498,false,false,529,image-keyboard-response,1
true,7,0,1,0,true,q,false,true,0.0-2.0-0.15-0.140-3.140,0,0,1,81,false,stim,false,0,484,2,1,2,53294,task3,452507,false,false,532,image-keyboard-response,2
true,7,1,1,0,false,q,false,true,0.0-2.0-0.15-0.141-3.141,0,0,1,90,false,stim,true,1,1169,2,0,1,53294,task3,455203,false,true,535,image-keyboard-response,3
true,7,0,1,2,false,d,false,false,0.0-2.0-0.15-0.142-3.142,0,0,1,81,false,stim,true,0,717,2,0,0,53294,task3,457459,false,false,538,image-keyboard-response,4
true,7,1,1,0,false,q,false,false,0.0-2.0-0.15-0.143-3.143,0,0,1,90,false,stim,true,1,613,2,0,1,53294,task3,459595,false,false,541,image-keyboard-response,5
true,7,1,1,0,false,q,false,false,0.0-2.0-0.16-0.144-3.144,0,0,1,90,false,stim,true,1,462,2,1,1,53294,task3,461562,false,false,544,image-keyboard-response,6
true,7,1,1,2,false,d,true,false,0.0-2.0-0.16-0.145-3.145,0,0,1,90,false,stim,false,0,1148,2,1,0,53294,task3,464251,false,false,547,image-keyboard-response,7
true,7,1,1,0,false,q,true,false,0.0-2.0-0.16-0.146-3.146,0,0,1,90,false,stim,false,0,591,2,0,2,53294,task3,466363,false,false,550,image-keyboard-response,8
true,7,2,1,0,false,q,true,false,0.0-2.0-0.16-0.147-3.147,0,0,1,68,false,stim,false,1,846,2,1,1,53294,task3,468739,false,false,553,image-keyboard-response,9
true,7,0,1,2,false,d,false,false,0.0-2.0-0.16-0.148-3.148,0,0,1,81,false,stim,true,0,1133,2,1,0,53294,task3,471395,false,false,556,image-keyboard-response,10
true,8,2,2,2,true,d,false,true,0.0-2.0-0.16-0.149-3.149,1,1,0,68,true,stim,false,2,417,2,1,0,53294,task3,473338,false,false,559,image-keyboard-response,1
true,8,0,2,2,false,d,false,false,0.0-2.0-0.16-0.150-3.150,1,1,0,81,false,stim,true,0,1276,2,0,2,53294,task3,476139,false,false,562,image-keyboard-response,2
true,8,2,2,0,false,q,true,false,0.0-2.0-0.16-0.151-3.151,1,1,0,68,false,stim,false,0,797,2,1,1,53294,task3,478460,false,false,565,image-keyboard-response,3
true,8,2,2,2,true,d,false,true,0.0-2.0-0.16-0.152-3.152,1,1,0,68,false,stim,false,0,490,2,0,2,53294,task3,480467,false,false,568,image-keyboard-response,4
true,8,2,2,2,true,d,false,false,0.0-2.0-0.17-0.153-3.153,1,1,0,68,false,stim,false,2,371,2,1,0,53294,task3,482363,false,true,571,image-keyboard-response,5
true,8,2,2,2,true,d,false,true,0.0-2.0-0.17-0.154-3.154,1,1,0,68,false,stim,false,2,349,2,1,0,53294,task3,484251,false,false,574,image-keyboard-response,6
true,8,2,2,2,true,d,false,true,0.0-2.0-0.17-0.155-3.155,1,1,0,68,false,stim,false,0,366,2,0,2,53294,task3,486139,false,false,577,image-keyboard-response,7
true,8,2,2,2,true,d,false,true,0.0-2.0-0.17-0.156-3.156,1,1,0,68,false,stim,false,0,716,2,0,2,53294,task3,488387,false,false,580,image-keyboard-response,8
true,8,2,2,2,true,d,false,true,0.0-2.0-0.17-0.157-3.157,1,1,0,68,false,stim,false,2,621,2,1,0,53294,task3,490523,false,false,583,image-keyboard-response,9
true,8,2,2,2,true,d,false,true,0.0-2.0-0.17-0.158-3.158,1,1,0,68,false,stim,false,0,870,2,1,2,53294,task3,492923,false,false,586,image-keyboard-response,10
true,8,0,2,0,true,q,false,true,0.0-2.0-0.17-0.159-3.159,1,1,0,81,false,stim,false,0,656,2,0,1,53294,task3,495107,false,false,589,image-keyboard-response,11
true,8,0,2,0,true,q,false,false,0.0-2.0-0.17-0.160-3.160,1,1,0,81,false,stim,false,0,531,2,0,1,53294,task3,497163,false,true,592,image-keyboard-response,12
true,8,0,2,0,true,q,false,true,0.0-2.0-0.17-0.161-3.161,1,1,0,81,false,stim,false,0,414,2,0,1,53294,task3,499115,false,false,595,image-keyboard-response,13
true,8,0,2,0,true,q,false,true,0.0-2.0-0.18-0.162-3.162,1,1,0,81,false,stim,false,0,514,2,0,1,53294,task3,501155,false,false,598,image-keyboard-response,14
true,9,0,1,1,false,z,false,false,0.0-2.0-0.18-0.163-3.163,0,0,1,81,true,stim,true,0,486,2,0,1,53294,task3,503170,false,false,601,image-keyboard-response,1
true,9,2,1,2,true,d,false,true,0.0-2.0-0.18-0.164-3.164,0,0,1,68,false,stim,false,2,630,2,1,2,53294,task3,505323,false,false,604,image-keyboard-response,2
true,9,2,1,1,false,z,false,false,0.0-2.0-0.18-0.165-3.165,0,0,1,68,false,stim,true,2,663,2,0,0,53294,task3,507515,false,false,607,image-keyboard-response,3
true,9,0,1,1,false,z,false,false,0.0-2.0-0.18-0.166-3.166,0,0,1,81,false,stim,true,0,830,2,0,1,53294,task3,509883,false,false,610,image-keyboard-response,4
true,9,2,1,2,true,d,false,false,0.0-2.0-0.18-0.167-3.167,0,0,1,68,false,stim,false,2,688,2,1,2,53294,task3,512099,false,true,613,image-keyboard-response,5
true,9,1,1,1,true,z,false,true,0.0-2.0-0.18-0.168-3.168,0,0,1,90,false,stim,false,2,955,2,0,0,53294,task3,514587,false,false,616,image-keyboard-response,6
true,9,2,1,2,true,d,false,true,0.0-2.0-0.18-0.169-3.169,0,0,1,68,false,stim,false,2,681,2,1,2,53294,task3,516803,false,false,619,image-keyboard-response,7
true,9,1,1,1,true,z,false,true,0.0-2.0-0.18-0.170-3.170,0,0,1,90,false,stim,false,2,984,2,0,0,53294,task3,519315,false,false,622,image-keyboard-response,8
true,9,1,1,1,true,z,false,true,0.0-2.0-0.19-0.171-3.171,0,0,1,90,false,stim,false,2,583,2,0,0,53294,task3,521435,false,false,625,image-keyboard-response,9
true,9,0,1,1,false,z,false,false,0.0-2.0-0.19-0.172-3.172,0,0,1,81,false,stim,true,0,1046,2,0,1,53294,task3,524019,false,false,628,image-keyboard-response,10
true,9,1,1,1,true,z,false,true,0.0-2.0-0.19-0.173-3.173,0,0,1,90,false,stim,false,2,907,2,0,0,53294,task3,526458,false,false,631,image-keyboard-response,11
true,9,2,1,2,true,d,false,true,0.0-2.0-0.19-0.174-3.174,0,0,1,68,false,stim,false,2,404,2,1,2,53294,task3,528386,false,false,634,image-keyboard-response,12
true,9,1,1,1,true,z,false,true,0.0-2.0-0.19-0.175-3.175,0,0,1,90,false,stim,false,2,802,2,0,0,53294,task3,530715,false,false,637,image-keyboard-response,13
true,9,2,1,2,true,d,false,true,0.0-2.0-0.19-0.176-3.176,0,0,1,68,false,stim,false,2,799,2,1,2,53294,task3,533050,false,false,640,image-keyboard-response,14
true,9,2,1,2,true,d,false,true,0.0-2.0-0.19-0.177-3.177,0,0,1,68,false,stim,false,2,1071,2,1,2,53294,task3,535643,false,false,643,image-keyboard-response,15
true,9,1,1,1,true,z,false,true,0.0-2.0-0.19-0.178-3.178,0,0,1,90,false,stim,false,0,1355,2,0,1,53294,task3,538538,false,false,646,image-keyboard-response,16
true,9,1,1,1,true,z,false,true,0.0-2.0-0.19-0.179-3.179,0,0,1,90,false,stim,false,0,507,2,0,1,53294,task3,540579,false,false,649,image-keyboard-response,17
true,9,1,1,1,true,z,false,true,0.0-2.0-0.20-0.180-3.180,0,0,1,90,false,stim,false,0,580,2,0,1,53294,task3,542683,false,false,652,image-keyboard-response,18
true,9,1,1,1,true,z,false,true,0.0-2.0-0.20-0.181-3.181,0,0,1,90,false,stim,false,0,912,2,0,1,53294,task3,545122,false,false,655,image-keyboard-response,19
true,9,2,1,2,true,d,false,true,0.0-2.0-0.20-0.182-3.182,0,0,1,68,false,stim,false,2,671,2,1,2,53294,task3,547323,false,false,658,image-keyboard-response,20
true,9,1,1,1,true,z,false,true,0.0-2.0-0.20-0.183-3.183,0,0,1,90,false,stim,false,2,793,2,0,0,53294,task3,549635,false,false,661,image-keyboard-response,21
true,9,2,1,2,true,d,false,true,0.0-2.0-0.20-0.184-3.184,0,0,1,68,false,stim,false,2,2775,2,1,2,53294,task3,553947,false,false,664,image-keyboard-response,22
true,9,2,1,2,true,d,false,true,0.0-2.0-0.20-0.185-3.185,0,0,1,68,false,stim,false,2,593,2,1,2,53294,task3,556075,false,false,667,image-keyboard-response,23
true,9,1,1,1,true,z,false,true,0.0-2.0-0.20-0.186-3.186,0,0,1,90,false,stim,false,2,953,2,0,0,53294,task3,558554,false,false,670,image-keyboard-response,24
true,9,1,1,1,true,z,false,true,0.0-2.0-0.20-0.187-3.187,0,0,1,90,false,stim,false,0,1999,2,1,1,53294,task3,562059,false,false,673,image-keyboard-response,25
true,9,1,1,1,true,z,false,true,0.0-2.0-0.20-0.188-3.188,0,0,1,90,false,stim,false,2,1492,2,0,0,53294,task3,565075,false,false,676,image-keyboard-response,26
true,10,1,2,1,true,z,false,true,0.0-2.0-0.21-0.189-3.189,0,1,1,90,true,stim,false,1,1177,2,1,1,53294,task3,567779,false,false,679,image-keyboard-response,1
true,10,1,2,2,false,d,false,false,0.0-2.0-0.21-0.190-3.190,0,1,1,90,false,stim,true,1,1012,2,0,0,53294,task3,570323,false,false,682,image-keyboard-response,2
true,10,2,2,2,true,d,false,true,0.0-2.0-0.21-0.191-3.191,0,1,1,68,false,stim,false,2,431,2,1,2,53294,task3,572283,false,false,685,image-keyboard-response,3
true,10,1,2,2,false,d,false,false,0.0-2.0-0.21-0.192-3.192,0,1,1,90,false,stim,true,1,389,2,0,0,53294,task3,574211,false,false,688,image-keyboard-response,4
true,10,1,2,1,true,z,false,true,0.0-2.0-0.21-0.193-3.193,0,1,1,90,false,stim,false,1,1327,2,1,1,53294,task3,577059,false,false,691,image-keyboard-response,5
true,10,1,2,1,true,z,false,true,0.0-2.0-0.21-0.194-3.194,0,1,1,90,false,stim,false,1,646,2,1,1,53294,task3,579227,false,false,694,image-keyboard-response,6
true,10,0,2,2,false,d,true,false,0.0-2.0-0.21-0.195-3.195,0,1,1,81,false,stim,false,1,577,2,0,0,53294,task3,581339,false,false,697,image-keyboard-response,7
true,10,2,2,2,true,d,false,true,0.0-2.0-0.21-0.196-3.196,0,1,1,68,false,stim,false,2,733,2,1,2,53294,task3,583594,false,false,700,image-keyboard-response,8
true,10,2,2,2,true,d,false,true,0.0-2.0-0.21-0.197-3.197,0,1,1,68,false,stim,false,2,556,2,1,2,53294,task3,585699,false,false,703,image-keyboard-response,9
true,10,1,2,1,true,z,false,true,0.0-2.0-0.22-0.198-3.198,0,1,1,90,false,stim,false,1,702,2,1,1,53294,task3,587922,false,false,706,image-keyboard-response,10
true,10,2,2,2,true,d,false,true,0.0-2.0-0.22-0.199-3.199,0,1,1,68,false,stim,false,2,918,2,0,2,53294,task3,590379,false,false,709,image-keyboard-response,11
true,10,2,2,2,true,d,false,true,0.0-2.0-0.22-0.200-3.200,0,1,1,68,false,stim,false,2,837,2,0,2,53294,task3,592739,false,false,712,image-keyboard-response,12
true,10,1,2,2,false,d,false,false,0.0-2.0-0.22-0.201-3.201,0,1,1,90,false,stim,true,1,1236,2,1,0,53294,task3,595499,false,false,715,image-keyboard-response,13
true,10,2,2,2,true,d,false,true,0.0-2.0-0.22-0.202-3.202,0,1,1,68,false,stim,false,1,427,2,1,0,53294,task3,597458,false,false,718,image-keyboard-response,14
true,11,1,2,1,true,z,false,false,0.0-2.0-0.22-0.203-3.203,1,1,0,90,true,stim,false,1,1571,2,1,1,53294,task3,600563,false,true,721,image-keyboard-response,1
true,11,2,2,0,false,q,false,false,0.0-2.0-0.22-0.204-3.204,1,1,0,68,false,stim,true,2,379,2,0,2,53294,task3,602482,false,false,724,image-keyboard-response,2
true,11,2,2,2,true,d,false,true,0.0-2.0-0.22-0.205-3.205,1,1,0,68,false,stim,false,2,374,2,1,0,53294,task3,604394,false,false,727,image-keyboard-response,3
true,11,1,2,1,true,z,false,true,0.0-2.0-0.22-0.206-3.206,1,1,0,90,false,stim,false,1,682,2,1,1,53294,task3,606595,false,false,730,image-keyboard-response,4
true,11,1,2,1,true,z,false,true,0.0-2.0-0.23-0.207-3.207,1,1,0,90,false,stim,false,1,784,2,1,1,53294,task3,608915,false,false,733,image-keyboard-response,5
true,11,2,2,2,true,d,false,true,0.0-2.0-0.23-0.208-3.208,1,1,0,68,false,stim,false,2,1503,2,1,0,53294,task3,611954,false,false,736,image-keyboard-response,6
true,11,1,2,1,true,z,false,false,0.0-2.0-0.23-0.209-3.209,1,1,0,90,false,stim,false,1,1202,2,1,1,53294,task3,614683,false,true,739,image-keyboard-response,7
true,11,2,2,2,true,d,false,true,0.0-2.0-0.23-0.210-3.210,1,1,0,68,false,stim,false,2,743,2,1,0,53294,task3,616955,false,false,742,image-keyboard-response,8
true,11,1,2,0,false,q,true,false,0.0-2.0-0.23-0.211-3.211,1,1,0,90,false,stim,false,2,847,2,0,2,53294,task3,619339,false,false,745,image-keyboard-response,9
true,11,2,2,2,true,d,false,true,0.0-2.0-0.23-0.212-3.212,1,1,0,68,false,stim,false,2,781,2,1,0,53294,task3,621643,false,false,748,image-keyboard-response,10
true,11,1,2,1,true,z,false,true,0.0-2.0-0.23-0.213-3.213,1,1,0,90,false,stim,false,1,429,2,1,1,53294,task3,623611,false,false,751,image-keyboard-response,11
true,11,0,2,0,true,q,false,true,0.0-2.0-0.23-0.214-3.214,1,1,0,81,false,stim,false,2,477,2,0,2,53294,task3,625619,false,false,754,image-keyboard-response,12
true,11,0,2,0,true,q,false,false,0.0-2.0-0.23-0.215-3.215,1,1,0,81,false,stim,false,2,484,2,0,2,53294,task3,627627,false,true,757,image-keyboard-response,13
true,11,0,2,0,true,q,false,true,0.0-2.0-0.24-0.216-3.216,1,1,0,81,false,stim,false,2,464,2,0,2,53294,task3,629626,false,false,760,image-keyboard-response,14
true,11,1,2,1,true,z,false,true,0.0-2.0-0.24-0.217-3.217,1,1,0,90,false,stim,false,1,601,2,1,1,53294,task3,631762,false,false,763,image-keyboard-response,15
true,11,2,2,2,true,d,false,true,0.0-2.0-0.24-0.218-3.218,1,1,0,68,false,stim,false,2,687,2,1,0,53294,task3,633979,false,false,766,image-keyboard-response,16
true,11,1,2,1,true,z,false,true,0.0-2.0-0.24-0.219-3.219,1,1,0,90,false,stim,false,1,1315,2,1,1,53294,task3,636826,false,false,769,image-keyboard-response,17
true,11,1,2,1,true,z,false,true,0.0-2.0-0.24-0.220-3.220,1,1,0,90,false,stim,false,1,1195,2,1,1,53294,task3,639546,false,false,772,image-keyboard-response,18
true,11,2,2,2,true,d,false,true,0.0-2.0-0.24-0.221-3.221,1,1,0,68,false,stim,false,2,890,2,1,0,53294,task3,641963,false,false,775,image-keyboard-response,19
true,11,0,2,0,true,q,false,true,0.0-2.0-0.24-0.222-3.222,1,1,0,81,false,stim,false,2,790,2,0,2,53294,task3,644291,false,false,778,image-keyboard-response,20
true,11,0,2,0,true,q,false,true,0.0-2.0-0.24-0.223-3.223,1,1,0,81,false,stim,false,2,2071,2,0,2,53294,task3,647883,false,false,781,image-keyboard-response,21
true,11,2,2,2,true,d,false,false,0.0-2.0-0.24-0.224-3.224,1,1,0,68,false,stim,false,2,1030,2,1,0,53294,task3,650443,false,true,784,image-keyboard-response,22
true,12,0,2,1,false,z,false,false,0.0-2.0-0.25-0.225-3.225,1,1,0,81,true,stim,true,0,966,2,0,2,53294,task3,652939,false,false,787,image-keyboard-response,1
true,12,0,2,1,false,z,false,true,0.0-2.0-0.25-0.226-3.226,1,1,0,81,false,stim,true,0,427,2,0,2,53294,task3,654898,false,true,790,image-keyboard-response,2
true,12,0,2,1,false,z,false,false,0.0-2.0-0.25-0.227-3.227,1,1,0,81,false,stim,true,0,416,2,0,2,53294,task3,656827,false,false,793,image-keyboard-response,3
true,12,2,2,2,true,d,false,true,0.0-2.0-0.25-0.228-3.228,1,1,0,68,false,stim,false,2,793,2,1,0,53294,task3,659155,false,false,796,image-keyboard-response,4
true,12,2,2,2,true,d,false,true,0.0-2.0-0.25-0.229-3.229,1,1,0,68,false,stim,false,2,673,2,1,0,53294,task3,661354,false,false,799,image-keyboard-response,5
true,12,1,2,1,true,z,false,true,0.0-2.0-0.25-0.230-3.230,1,1,0,90,false,stim,false,1,1016,2,1,1,53294,task3,663898,false,false,802,image-keyboard-response,6
true,12,1,2,1,true,z,false,true,0.0-2.0-0.25-0.231-3.231,1,1,0,90,false,stim,false,1,717,2,1,1,53294,task3,666139,false,false,805,image-keyboard-response,7
true,12,1,2,1,true,z,false,true,0.0-2.0-0.25-0.232-3.232,1,1,0,90,false,stim,false,1,716,2,1,1,53294,task3,668379,false,false,808,image-keyboard-response,8
true,12,2,2,2,true,d,false,true,0.0-2.0-0.25-0.233-3.233,1,1,0,68,false,stim,false,2,1086,2,1,0,53294,task3,670986,false,false,811,image-keyboard-response,9
true,12,1,2,1,true,z,false,true,0.0-2.0-0.26-0.234-3.234,1,1,0,90,false,stim,false,1,986,2,1,1,53294,task3,673498,false,false,814,image-keyboard-response,10
true,12,1,2,1,true,z,false,true,0.0-2.0-0.26-0.235-3.235,1,1,0,90,false,stim,false,1,716,2,1,1,53294,task3,675738,false,false,817,image-keyboard-response,11
true,12,2,2,1,false,z,true,false,0.0-2.0-0.26-0.236-3.236,1,1,0,68,false,stim,false,0,810,2,1,2,53294,task3,678082,false,false,820,image-keyboard-response,12
true,12,2,2,2,true,d,false,true,0.0-2.0-0.26-0.237-3.237,1,1,0,68,false,stim,false,2,790,2,0,0,53294,task3,680411,false,false,823,image-keyboard-response,13
true,12,2,2,2,true,d,false,true,0.0-2.0-0.26-0.238-3.238,1,1,0,68,false,stim,false,2,603,2,0,0,53294,task3,682554,false,false,826,image-keyboard-response,14
true,13,1,2,1,true,z,false,true,0.0-2.0-0.26-0.239-3.239,0,1,1,90,true,stim,false,1,665,2,1,2,53294,task3,684747,false,false,829,image-keyboard-response,1
true,13,1,2,1,true,z,false,true,0.0-2.0-0.26-0.240-3.240,0,1,1,90,false,stim,false,1,396,2,1,2,53294,task3,686666,false,false,832,image-keyboard-response,2
true,13,2,2,0,false,q,false,true,0.0-2.0-0.26-0.241-3.241,0,1,1,68,false,stim,true,2,643,2,0,0,53294,task3,688835,false,true,835,image-keyboard-response,3
true,13,1,2,1,true,z,false,true,0.0-2.0-0.26-0.242-3.242,0,1,1,90,false,stim,false,1,635,2,1,1,53294,task3,690995,false,false,838,image-keyboard-response,4
true,13,1,2,1,true,z,false,true,0.0-2.0-0.27-0.243-3.243,0,1,1,90,false,stim,false,1,584,2,1,2,53294,task3,693107,false,false,841,image-keyboard-response,5
true,13,1,2,1,true,z,false,false,0.0-2.0-0.27-0.244-3.244,0,1,1,90,false,stim,false,1,537,2,1,1,53294,task3,695178,false,true,844,image-keyboard-response,6
true,13,1,2,1,true,z,false,true,0.0-2.0-0.27-0.245-3.245,0,1,1,90,false,stim,false,1,509,2,0,2,53294,task3,697211,false,false,847,image-keyboard-response,7
true,13,1,2,1,true,z,false,true,0.0-2.0-0.27-0.246-3.246,0,1,1,90,false,stim,false,1,403,2,1,1,53294,task3,699155,false,false,850,image-keyboard-response,8
true,13,1,2,1,true,z,false,true,0.0-2.0-0.27-0.247-3.247,0,1,1,90,false,stim,false,1,465,2,1,1,53294,task3,701146,false,false,853,image-keyboard-response,9
true,13,1,2,1,true,z,false,true,0.0-2.0-0.27-0.248-3.248,0,1,1,90,false,stim,false,1,467,2,0,2,53294,task3,703147,false,false,856,image-keyboard-response,10
true,14,2,2,0,false,q,true,false,0.0-2.0-0.27-0.249-3.249,1,1,0,68,true,stim,false,0,1083,2,1,0,53294,task3,705755,false,false,859,image-keyboard-response,1
true,14,2,2,0,false,q,true,false,0.0-2.0-0.27-0.250-3.250,1,1,0,68,false,stim,false,0,431,2,1,0,53294,task3,707715,false,false,862,image-keyboard-response,2
true,14,1,2,0,false,q,true,false,0.0-2.0-0.27-0.251-3.251,1,1,0,90,false,stim,false,0,409,2,1,0,53294,task3,709650,false,false,865,image-keyboard-response,3
true,14,0,2,0,true,q,false,true,0.0-2.0-0.28-0.252-3.252,1,1,0,81,false,stim,false,0,455,2,1,0,53294,task3,711627,false,false,868,image-keyboard-response,4
true,14,0,2,0,true,q,false,true,0.0-2.0-0.28-0.253-3.253,1,1,0,81,false,stim,false,0,699,2,1,0,53294,task3,713851,false,false,871,image-keyboard-response,5
true,14,1,2,1,true,z,false,true,0.0-2.0-0.28-0.254-3.254,1,1,0,90,false,stim,false,1,445,2,1,1,53294,task3,715827,false,false,874,image-keyboard-response,6
true,14,1,2,2,false,d,false,false,0.0-2.0-0.28-0.255-3.255,1,1,0,90,false,stim,true,1,641,2,1,2,53294,task3,718003,false,false,877,image-keyboard-response,7
true,14,0,2,0,true,q,false,false,0.0-2.0-0.28-0.256-3.256,1,1,0,81,false,stim,false,0,677,2,1,0,53294,task3,720219,false,true,880,image-keyboard-response,8
true,14,1,2,1,true,z,false,true,0.0-2.0-0.28-0.257-3.257,1,1,0,90,false,stim,false,1,516,2,0,1,53294,task3,722259,false,false,883,image-keyboard-response,9
true,14,2,2,2,true,d,false,false,0.0-2.0-0.28-0.258-3.258,1,1,0,68,false,stim,false,1,748,2,1,2,53294,task3,724530,false,true,886,image-keyboard-response,10
true,14,1,2,1,true,z,false,true,0.0-2.0-0.28-0.259-3.259,1,1,0,90,false,stim,false,1,872,2,0,1,53294,task3,726922,false,false,889,image-keyboard-response,11
true,15,0,2,2,false,d,true,false,0.0-2.0-0.28-0.260-3.260,1,0,1,81,true,stim,false,2,894,2,1,2,53294,task3,729354,false,false,892,image-keyboard-response,1
true,15,0,2,0,true,q,false,true,0.0-2.0-0.29-0.261-3.261,1,0,1,81,false,stim,false,0,768,2,1,0,53294,task3,731651,false,false,895,image-keyboard-response,2
true,15,1,2,0,false,q,false,false,0.0-2.0-0.29-0.262-3.262,1,0,1,90,false,stim,true,1,468,2,0,1,53294,task3,733650,false,false,898,image-keyboard-response,3
true,15,0,2,0,true,q,false,true,0.0-2.0-0.29-0.263-3.263,1,0,1,81,false,stim,false,0,753,2,1,0,53294,task3,735938,false,false,901,image-keyboard-response,4
true,15,2,2,2,true,d,false,true,0.0-2.0-0.29-0.264-3.264,1,0,1,68,false,stim,false,2,828,2,1,2,53294,task3,738291,false,false,904,image-keyboard-response,5
true,15,2,2,2,true,d,false,true,0.0-2.0-0.29-0.265-3.265,1,0,1,68,false,stim,false,2,782,2,1,2,53294,task3,740602,false,false,907,image-keyboard-response,6
true,15,1,2,0,false,q,false,false,0.0-2.0-0.29-0.266-3.266,1,0,1,90,false,stim,true,1,973,2,1,1,53294,task3,743115,false,false,910,image-keyboard-response,7
true,15,2,2,0,false,q,true,false,0.0-2.0-0.29-0.267-3.267,1,0,1,68,false,stim,false,1,656,2,1,1,53294,task3,745299,false,false,913,image-keyboard-response,8
true,15,0,2,0,true,q,false,true,0.0-2.0-0.29-0.268-3.268,1,0,1,81,false,stim,false,0,729,2,0,0,53294,task3,747562,false,false,916,image-keyboard-response,9
true,15,2,2,2,true,d,false,true,0.0-2.0-0.29-0.269-3.269,1,0,1,68,false,stim,false,2,438,2,0,2,53294,task3,749530,false,false,919,image-keyboard-response,10
true,15,2,2,2,true,d,false,true,0.0-2.0-0.30-0.270-3.270,1,0,1,68,false,stim,false,2,1743,2,0,2,53294,task3,752794,false,false,922,image-keyboard-response,11
true,16,0,1,1,false,z,false,true,0.0-2.0-0.30-0.271-3.271,0,1,0,81,true,stim,true,0,746,2,0,0,53294,task3,755066,false,true,925,image-keyboard-response,1
true,16,0,1,1,false,z,false,false,0.0-2.0-0.30-0.272-3.272,0,1,0,81,false,stim,true,0,707,2,0,0,53294,task3,757298,false,false,928,image-keyboard-response,2
true,16,2,1,1,false,z,false,false,0.0-2.0-0.30-0.273-3.273,0,1,0,68,false,stim,true,2,917,2,0,2,53294,task3,759738,false,false,931,image-keyboard-response,3
true,16,0,1,0,true,q,false,true,0.0-2.0-0.30-0.274-3.274,0,1,0,81,false,stim,false,0,931,2,1,1,53294,task3,762202,false,false,934,image-keyboard-response,4
true,16,2,1,1,false,z,false,false,0.0-2.0-0.30-0.275-3.275,0,1,0,68,false,stim,true,2,1008,2,0,2,53294,task3,764739,false,false,937,image-keyboard-response,5
true,16,0,1,0,true,q,false,true,0.0-2.0-0.30-0.276-3.276,0,1,0,81,false,stim,false,0,782,2,1,1,53294,task3,767034,false,false,940,image-keyboard-response,6
true,16,0,1,1,false,z,false,false,0.0-2.0-0.30-0.277-3.277,0,1,0,81,false,stim,true,0,434,2,0,0,53294,task3,768994,false,false,943,image-keyboard-response,7
true,16,0,1,0,true,q,false,true,0.0-2.0-0.30-0.278-3.278,0,1,0,81,false,stim,false,0,898,2,1,1,53294,task3,771411,false,false,946,image-keyboard-response,8
true,16,0,1,0,true,q,false,true,0.0-2.0-0.31-0.279-3.279,0,1,0,81,false,stim,false,0,644,2,1,1,53294,task3,773586,false,false,949,image-keyboard-response,9
true,16,0,1,1,false,z,false,false,0.0-2.0-0.31-0.280-3.280,0,1,0,81,false,stim,true,0,1100,2,0,0,53294,task3,776203,false,false,952,image-keyboard-response,10
true,16,2,1,1,false,z,false,false,0.0-2.0-0.31-0.281-3.281,0,1,0,68,false,stim,true,2,1119,2,0,2,53294,task3,778851,false,false,955,image-keyboard-response,11
true,16,0,1,0,true,q,false,true,0.0-2.0-0.31-0.282-3.282,0,1,0,81,false,stim,false,0,807,2,1,1,53294,task3,781178,false,false,958,image-keyboard-response,12
false,16,-1,1,1,false,z,true,false,0.0-2.0-0.31-0.283-3.283,0,1,0,,false,stim,false,2,,2,0,2,53294,task3,785711,false,false,961,image-keyboard-response,13
true,16,0,1,1,false,z,false,false,0.0-2.0-0.31-0.284-3.284,0,1,0,81,false,stim,true,0,1616,2,0,0,53294,task3,788866,false,false,964,image-keyboard-response,14
true,16,1,1,0,false,q,true,false,0.0-2.0-0.31-0.285-3.285,0,1,0,90,false,stim,false,0,630,2,1,1,53294,task3,791011,false,false,967,image-keyboard-response,15
true,16,0,1,1,false,z,false,false,0.0-2.0-0.31-0.286-3.286,0,1,0,81,false,stim,true,0,1029,2,0,0,53294,task3,793571,false,false,970,image-keyboard-response,16
true,16,2,1,1,false,z,false,false,0.0-2.0-0.31-0.287-3.287,0,1,0,68,false,stim,true,2,875,2,0,2,53294,task3,795987,false,false,973,image-keyboard-response,17
true,16,1,1,1,true,z,false,true,0.0-2.0-0.32-0.288-3.288,0,1,0,90,false,stim,false,2,418,2,0,2,53294,task3,797931,false,false,976,image-keyboard-response,18
true,16,2,1,1,false,z,true,false,0.0-2.0-0.32-0.289-3.289,0,1,0,68,false,stim,false,0,879,2,1,0,53294,task3,800330,false,false,979,image-keyboard-response,19
true,16,0,1,1,false,z,true,false,0.0-2.0-0.32-0.290-3.290,0,1,0,81,false,stim,false,2,829,2,0,2,53294,task3,802690,false,false,982,image-keyboard-response,20
true,16,1,1,0,false,q,true,false,0.0-2.0-0.32-0.291-3.291,0,1,0,90,false,stim,false,0,757,2,1,1,53294,task3,804978,false,false,985,image-keyboard-response,21
true,16,2,1,0,false,q,true,false,0.0-2.0-0.32-0.292-3.292,0,1,0,68,false,stim,false,0,436,2,1,1,53294,task3,806938,false,false,988,image-keyboard-response,22
true,16,1,1,1,true,z,false,true,0.0-2.0-0.32-0.293-3.293,0,1,0,90,false,stim,false,0,509,2,1,0,53294,task3,808970,false,false,991,image-keyboard-response,23
true,17,1,2,1,true,z,false,true,0.0-2.0-0.32-0.294-3.294,1,1,0,90,true,stim,false,1,643,2,1,0,53294,task3,811154,false,false,994,image-keyboard-response,1
true,17,0,2,0,true,q,false,false,0.0-2.0-0.32-0.295-3.295,1,1,0,81,false,stim,false,1,2009,2,0,2,53294,task3,814691,false,true,997,image-keyboard-response,2
true,17,0,2,0,true,q,false,true,0.0-2.0-0.32-0.296-3.296,1,1,0,81,false,stim,false,0,653,2,1,1,53294,task3,816875,false,false,1000,image-keyboard-response,3
true,17,1,2,1,true,z,false,true,0.0-2.0-0.33-0.297-3.297,1,1,0,90,false,stim,false,1,1585,2,1,0,53294,task3,819987,false,false,1003,image-keyboard-response,4
true,17,1,2,0,false,q,false,false,0.0-2.0-0.33-0.298-3.298,1,1,0,90,false,stim,true,1,1841,2,0,2,53294,task3,823362,false,false,1006,image-keyboard-response,5
true,17,1,2,1,true,z,false,true,0.0-2.0-0.33-0.299-3.299,1,1,0,90,false,stim,false,1,1251,2,1,0,53294,task3,826139,false,false,1009,image-keyboard-response,6
true,17,1,2,1,true,z,false,true,0.0-2.0-0.33-0.300-3.300,1,1,0,90,false,stim,false,1,603,2,1,0,53294,task3,828275,false,false,1012,image-keyboard-response,7
true,17,2,2,0,false,q,true,false,0.0-2.0-0.33-0.301-3.301,1,1,0,68,false,stim,false,1,887,2,0,2,53294,task3,830699,false,false,1015,image-keyboard-response,8
true,17,0,2,0,true,q,false,true,0.0-2.0-0.33-0.302-3.302,1,1,0,81,false,stim,false,1,1245,2,1,2,53294,task3,833466,false,false,1018,image-keyboard-response,9
true,17,0,2,0,true,q,false,true,0.0-2.0-0.33-0.303-3.303,1,1,0,81,false,stim,false,0,531,2,0,1,53294,task3,835522,false,false,1021,image-keyboard-response,10
true,17,0,2,0,true,q,false,true,0.0-2.0-0.33-0.304-3.304,1,1,0,81,false,stim,false,0,470,2,0,1,53294,task3,837522,false,false,1024,image-keyboard-response,11
true,17,0,2,0,true,q,false,true,0.0-2.0-0.33-0.305-3.305,1,1,0,81,false,stim,false,0,575,2,0,1,53294,task3,839627,false,false,1027,image-keyboard-response,12
true,17,1,2,1,true,z,false,true,0.0-2.0-0.34-0.306-3.306,1,1,0,90,false,stim,false,1,1354,2,1,0,53294,task3,842506,false,false,1030,image-keyboard-response,13
true,18,0,2,1,false,z,false,false,0.0-2.0-0.34-0.307-3.307,1,0,1,81,true,stim,true,0,944,2,0,1,53294,task3,844987,false,false,1033,image-keyboard-response,1
true,18,0,2,1,false,z,false,false,0.0-2.0-0.34-0.308-3.308,1,0,1,81,false,stim,true,0,419,2,0,1,53294,task3,846931,false,false,1036,image-keyboard-response,2
true,18,0,2,1,false,z,false,false,0.0-2.0-0.34-0.309-3.309,1,0,1,81,false,stim,true,0,821,2,0,1,53294,task3,849282,false,false,1039,image-keyboard-response,3
true,18,0,2,0,true,q,false,true,0.0-2.0-0.34-0.310-3.310,1,0,1,81,false,stim,false,0,783,2,1,2,53294,task3,851594,false,false,1042,image-keyboard-response,4
true,18,0,2,0,true,q,false,true,0.0-2.0-0.34-0.311-3.311,1,0,1,81,false,stim,false,0,809,2,1,2,53294,task3,853930,false,false,1045,image-keyboard-response,5
true,18,1,2,1,true,z,false,false,0.0-2.0-0.34-0.312-3.312,1,0,1,90,false,stim,false,1,795,2,1,0,53294,task3,856266,false,true,1048,image-keyboard-response,6
true,18,0,2,0,true,q,false,true,0.0-2.0-0.34-0.313-3.313,1,0,1,81,false,stim,false,0,1427,2,1,2,53294,task3,859219,false,false,1051,image-keyboard-response,7
true,18,2,2,1,false,z,true,true,0.0-2.0-0.34-0.314-3.314,1,0,1,68,false,stim,false,1,1869,2,1,0,53294,task3,862611,false,true,1054,image-keyboard-response,8
true,18,2,2,1,false,z,true,false,0.0-2.0-0.35-0.315-3.315,1,0,1,68,false,stim,false,1,789,2,1,0,53294,task3,864931,false,false,1057,image-keyboard-response,9
true,18,2,2,0,false,q,true,false,0.0-2.0-0.35-0.316-3.316,1,0,1,68,false,stim,false,0,1893,2,1,2,53294,task3,868355,false,false,1060,image-keyboard-response,10
true,18,0,2,1,false,z,false,false,0.0-2.0-0.35-0.317-3.317,1,0,1,81,false,stim,true,0,887,2,0,1,53294,task3,870779,false,false,1063,image-keyboard-response,11
true,18,2,2,1,false,z,true,true,0.0-2.0-0.35-0.318-3.318,1,0,1,68,false,stim,false,0,427,2,0,1,53294,task3,872739,false,true,1066,image-keyboard-response,12
true,18,2,2,1,false,z,true,false,0.0-2.0-0.35-0.319-3.319,1,0,1,68,false,stim,false,0,460,2,0,1,53294,task3,874722,false,false,1069,image-keyboard-response,13
true,18,1,2,0,false,q,true,false,0.0-2.0-0.35-0.320-3.320,1,0,1,90,false,stim,false,0,958,2,1,2,53294,task3,877219,false,false,1072,image-keyboard-response,14
true,18,2,2,1,false,z,true,false,0.0-2.0-0.35-0.321-3.321,1,0,1,68,false,stim,false,1,1100,2,1,0,53294,task3,879842,false,false,1075,image-keyboard-response,15
true,18,0,2,1,false,z,true,false,0.0-2.0-0.35-0.322-3.322,1,0,1,81,false,stim,false,1,430,2,1,0,53294,task3,881802,false,false,1078,image-keyboard-response,16
true,18,2,2,0,false,q,true,false,0.0-2.0-0.35-0.323-3.323,1,0,1,68,false,stim,false,0,887,2,1,2,53294,task3,884218,false,false,1081,image-keyboard-response,17
true,18,1,2,0,false,q,true,false,0.0-2.0-0.36-0.324-3.324,1,0,1,90,false,stim,false,0,810,2,1,2,53294,task3,886561,false,false,1084,image-keyboard-response,18
true,18,0,2,0,true,q,false,true,0.0-2.0-0.36-0.325-3.325,1,0,1,81,false,stim,false,0,455,2,1,2,53294,task3,888546,false,false,1087,image-keyboard-response,19
true,18,2,2,1,false,z,true,false,0.0-2.0-0.36-0.326-3.326,1,0,1,68,false,stim,false,0,1187,2,0,1,53294,task3,891259,false,false,1090,image-keyboard-response,20
true,18,2,2,1,false,z,true,false,0.0-2.0-0.36-0.327-3.327,1,0,1,68,false,stim,false,1,1483,2,1,0,53294,task3,894274,false,false,1093,image-keyboard-response,21
true,18,1,2,1,true,z,false,true,0.0-2.0-0.36-0.328-3.328,1,0,1,90,false,stim,false,0,2289,2,0,1,53294,task3,898090,false,false,1096,image-keyboard-response,22
true,18,0,2,0,true,q,false,true,0.0-2.0-0.36-0.329-3.329,1,0,1,81,false,stim,false,0,482,2,1,2,53294,task3,900115,false,false,1099,image-keyboard-response,23
true,18,0,2,1,false,z,true,false,0.0-2.0-0.36-0.330-3.330,1,0,1,81,false,stim,false,1,921,2,1,0,53294,task3,902562,false,false,1102,image-keyboard-response,24
true,18,1,2,1,true,z,false,true,0.0-2.0-0.36-0.331-3.331,1,0,1,90,false,stim,false,1,517,2,1,0,53294,task3,904619,false,false,1105,image-keyboard-response,25
true,18,1,2,1,true,z,false,true,0.0-2.0-0.36-0.332-3.332,1,0,1,90,false,stim,false,0,853,2,0,1,53294,task3,906994,false,false,1108,image-keyboard-response,26
true,19,1,2,2,false,d,false,false,0.0-2.0-0.37-0.333-3.333,1,0,1,90,true,stim,true,1,663,2,0,1,53294,task3,909194,false,false,1111,image-keyboard-response,1
true,19,1,2,1,true,z,false,true,0.0-2.0-0.37-0.334-3.334,1,0,1,90,false,stim,false,1,1977,2,1,0,53294,task3,912699,false,false,1114,image-keyboard-response,2
true,19,1,2,2,false,d,false,true,0.0-2.0-0.37-0.335-3.335,1,0,1,90,false,stim,true,1,910,2,0,1,53294,task3,915131,false,true,1117,image-keyboard-response,3
true,19,1,2,1,true,z,false,true,0.0-2.0-0.37-0.336-3.336,1,0,1,90,false,stim,false,1,1299,2,1,0,53294,task3,917970,false,false,1120,image-keyboard-response,4
true,19,0,2,0,true,q,false,true,0.0-2.0-0.37-0.337-3.337,1,0,1,81,false,stim,false,0,573,2,1,2,53294,task3,920074,false,false,1123,image-keyboard-response,5
true,19,1,2,2,false,d,false,false,0.0-2.0-0.37-0.338-3.338,1,0,1,90,false,stim,true,1,1499,2,0,1,53294,task3,923090,false,false,1126,image-keyboard-response,6
true,19,1,2,1,true,z,false,true,0.0-2.0-0.37-0.339-3.339,1,0,1,90,false,stim,false,1,1283,2,1,0,53294,task3,925915,false,false,1129,image-keyboard-response,7
true,19,0,2,0,true,q,false,true,0.0-2.0-0.37-0.340-3.340,1,0,1,81,false,stim,false,0,1305,2,1,2,53294,task3,928746,false,false,1132,image-keyboard-response,8
true,19,0,2,0,true,q,false,true,0.0-2.0-0.37-0.341-3.341,1,0,1,81,false,stim,false,0,827,2,1,2,53294,task3,931099,false,false,1135,image-keyboard-response,9
true,19,0,2,0,true,q,false,true,0.0-2.0-0.38-0.342-3.342,1,0,1,81,false,stim,false,0,588,2,0,2,53294,task3,933209,false,false,1138,image-keyboard-response,10
true,19,1,2,2,false,d,false,true,0.0-2.0-0.38-0.343-3.343,1,0,1,90,false,stim,true,1,757,2,1,1,53294,task3,935498,false,true,1141,image-keyboard-response,11
true,19,1,2,1,true,z,false,true,0.0-2.0-0.38-0.344-3.344,1,0,1,90,false,stim,false,1,1637,2,0,0,53294,task3,938659,false,false,1144,image-keyboard-response,12
true,19,1,2,1,true,z,false,true,0.0-2.0-0.38-0.345-3.345,1,0,1,90,false,stim,false,1,707,2,0,0,53294,task3,940899,false,false,1147,image-keyboard-response,13
true,19,0,2,0,true,q,false,true,0.0-2.0-0.38-0.346-3.346,1,0,1,81,false,stim,false,0,1139,2,0,2,53294,task3,943570,false,false,1150,image-keyboard-response,14
true,20,1,1,2,false,d,false,true,0.0-2.0-0.38-0.347-3.347,0,1,0,90,true,stim,true,1,861,2,0,0,53294,task3,945962,false,true,1153,image-keyboard-response,1
true,20,0,1,1,false,z,false,false,0.0-2.0-0.38-0.348-3.348,0,1,0,81,false,stim,true,0,1039,2,0,2,53294,task3,948530,false,false,1156,image-keyboard-response,2
true,20,1,1,2,false,d,true,false,0.0-2.0-0.38-0.349-3.349,0,1,0,90,false,stim,false,2,820,2,1,1,53294,task3,950882,false,false,1159,image-keyboard-response,3
true,20,1,1,2,false,d,true,false,0.0-2.0-0.38-0.350-3.350,0,1,0,90,false,stim,false,2,476,2,1,1,53294,task3,952897,false,false,1162,image-keyboard-response,4
true,20,2,1,2,true,d,false,true,0.0-2.0-0.39-0.351-3.351,0,1,0,68,false,stim,false,2,701,2,1,1,53294,task3,955122,false,false,1165,image-keyboard-response,5
true,20,1,1,2,false,d,false,false,0.0-2.0-0.39-0.352-3.352,0,1,0,90,false,stim,true,1,2751,2,0,0,53294,task3,959402,false,false,1168,image-keyboard-response,6
true,20,0,1,2,false,d,true,false,0.0-2.0-0.39-0.353-3.353,0,1,0,81,false,stim,false,1,1045,2,0,0,53294,task3,961986,false,false,1171,image-keyboard-response,7
true,20,2,1,2,true,d,false,true,0.0-2.0-0.39-0.354-3.354,0,1,0,68,false,stim,false,1,1063,2,0,0,53294,task3,964562,false,false,1174,image-keyboard-response,8
true,20,2,1,1,false,z,true,false,0.0-2.0-0.39-0.355-3.355,0,1,0,68,false,stim,false,0,597,2,0,2,53294,task3,966698,false,false,1177,image-keyboard-response,9
true,20,1,1,1,true,z,false,true,0.0-2.0-0.39-0.356-3.356,0,1,0,90,false,stim,false,0,1029,2,0,2,53294,task3,969251,false,false,1180,image-keyboard-response,10
true,20,2,1,2,true,d,false,true,0.0-2.0-0.39-0.357-3.357,0,1,0,68,false,stim,false,2,475,2,1,1,53294,task3,971266,false,false,1183,image-keyboard-response,11
true,20,2,1,2,true,d,false,true,0.0-2.0-0.39-0.358-3.358,0,1,0,68,false,stim,false,2,1417,2,1,1,53294,task3,974219,false,false,1186,image-keyboard-response,12
true,20,1,1,1,true,z,false,true,0.0-2.0-0.39-0.359-3.359,0,1,0,90,false,stim,false,0,500,2,0,2,53294,task3,976242,false,false,1189,image-keyboard-response,13
true,20,2,1,2,true,d,false,true,0.0-2.0-0.40-0.360-3.360,0,1,0,68,false,stim,false,1,895,2,0,0,53294,task3,978666,false,false,1192,image-keyboard-response,14
true,20,2,1,2,true,d,false,true,0.0-2.0-0.40-0.361-3.361,0,1,0,68,false,stim,false,2,1017,2,1,1,53294,task3,981219,false,false,1195,image-keyboard-response,15
true,20,2,1,2,true,d,false,true,0.0-2.0-0.40-0.362-3.362,0,1,0,68,false,stim,false,1,659,2,0,0,53294,task3,983411,false,false,1198,image-keyboard-response,16
true,20,1,1,1,true,z,false,true,0.0-2.0-0.40-0.363-3.363,0,1,0,90,false,stim,false,0,472,2,0,2,53294,task3,985418,false,false,1201,image-keyboard-response,17
true,20,1,1,1,true,z,false,true,0.0-2.0-0.40-0.364-3.364,0,1,0,90,false,stim,false,0,760,2,0,2,53294,task3,987690,false,false,1204,image-keyboard-response,18
true,20,2,1,2,true,d,false,true,0.0-2.0-0.40-0.365-3.365,0,1,0,68,false,stim,false,2,627,2,1,1,53294,task3,989858,false,false,1207,image-keyboard-response,19
true,20,2,1,2,true,d,false,true,0.0-2.0-0.40-0.366-3.366,0,1,0,68,false,stim,false,2,1021,2,1,1,53294,task3,992402,false,false,1210,image-keyboard-response,20
true,20,1,1,1,true,z,false,true,0.0-2.0-0.40-0.367-3.367,0,1,0,90,false,stim,false,0,645,2,0,2,53294,task3,994587,false,false,1213,image-keyboard-response,21
true,20,2,1,2,true,d,false,true,0.0-2.0-0.40-0.368-3.368,0,1,0,68,false,stim,false,1,706,2,1,0,53294,task3,996826,false,false,1216,image-keyboard-response,22
true,21,2,2,2,true,d,false,true,0.0-2.0-0.41-0.369-3.369,1,1,0,68,true,stim,false,2,625,2,1,0,53294,task3,998986,false,false,1219,image-keyboard-response,1
true,21,2,2,2,true,d,false,true,0.0-2.0-0.41-0.370-3.370,1,1,0,68,false,stim,false,2,1129,2,1,1,53294,task3,1001650,false,false,1222,image-keyboard-response,2
true,21,2,2,2,true,d,false,true,0.0-2.0-0.41-0.371-3.371,1,1,0,68,false,stim,false,2,949,2,1,1,53294,task3,1004130,false,false,1225,image-keyboard-response,3
true,21,2,2,2,true,d,false,true,0.0-2.0-0.41-0.372-3.372,1,1,0,68,false,stim,false,2,1189,2,1,1,53294,task3,1006850,false,false,1228,image-keyboard-response,4
true,21,2,2,0,false,q,true,false,0.0-2.0-0.41-0.373-3.373,1,1,0,68,false,stim,false,1,2373,2,0,2,53294,task3,1010754,false,false,1231,image-keyboard-response,5
true,21,0,2,0,true,q,false,true,0.0-2.0-0.41-0.374-3.374,1,1,0,81,false,stim,false,1,440,2,0,2,53294,task3,1012722,false,false,1234,image-keyboard-response,6
true,21,0,2,0,true,q,false,true,0.0-2.0-0.41-0.375-3.375,1,1,0,81,false,stim,false,1,1447,2,0,2,53294,task3,1015698,false,false,1237,image-keyboard-response,7
true,21,2,2,2,true,d,false,false,0.0-2.0-0.41-0.376-3.376,1,1,0,68,false,stim,false,2,1082,2,1,0,53294,task3,1018314,false,true,1240,image-keyboard-response,8
true,21,1,2,2,false,d,true,false,0.0-2.0-0.41-0.377-3.377,1,1,0,90,false,stim,false,2,401,2,1,0,53294,task3,1020241,false,false,1243,image-keyboard-response,9
true,21,2,2,2,true,d,false,true,0.0-2.0-0.42-0.378-3.378,1,1,0,68,false,stim,false,2,845,2,1,1,53294,task3,1022626,false,false,1246,image-keyboard-response,10
true,21,0,2,2,false,d,true,false,0.0-2.0-0.42-0.379-3.379,1,1,0,81,false,stim,false,2,739,2,1,1,53294,task3,1024890,false,false,1249,image-keyboard-response,11
true,21,0,2,0,true,q,false,true,0.0-2.0-0.42-0.380-3.380,1,1,0,81,false,stim,false,1,602,2,0,2,53294,task3,1027034,false,false,1252,image-keyboard-response,12
true,21,0,2,2,false,d,true,true,0.0-2.0-0.42-0.381-3.381,1,1,0,81,false,stim,false,2,896,2,1,0,53294,task3,1029458,false,true,1255,image-keyboard-response,13
true,21,0,2,2,false,d,true,false,0.0-2.0-0.42-0.382-3.382,1,1,0,81,false,stim,false,2,611,2,1,0,53294,task3,1031602,false,false,1258,image-keyboard-response,14
true,21,0,2,0,true,q,false,true,0.0-2.0-0.42-0.383-3.383,1,1,0,81,false,stim,false,1,534,2,0,2,53294,task3,1033674,false,false,1261,image-keyboard-response,15
true,21,0,2,2,false,d,true,false,0.0-2.0-0.42-0.384-3.384,1,1,0,81,false,stim,false,2,383,2,1,0,53294,task3,1035594,false,false,1264,image-keyboard-response,16
true,21,0,2,0,true,q,false,true,0.0-2.0-0.42-0.385-3.385,1,1,0,81,false,stim,false,1,647,2,0,2,53294,task3,1037778,false,false,1267,image-keyboard-response,17
true,21,2,2,2,true,d,false,true,0.0-2.0-0.42-0.386-3.386,1,1,0,68,false,stim,false,2,469,2,1,1,53294,task3,1039770,false,false,1270,image-keyboard-response,18
true,21,2,2,2,true,d,false,true,0.0-2.0-0.43-0.387-3.387,1,1,0,68,false,stim,false,2,909,2,0,1,53294,task3,1042211,false,false,1273,image-keyboard-response,19
true,21,0,2,0,true,q,false,true,0.0-2.0-0.43-0.388-3.388,1,1,0,81,false,stim,false,1,780,2,0,2,53294,task3,1044522,false,false,1276,image-keyboard-response,20
true,21,2,2,2,true,d,false,true,0.0-2.0-0.43-0.389-3.389,1,1,0,68,false,stim,false,2,919,2,0,1,53294,task3,1046970,false,false,1279,image-keyboard-response,21
true,21,1,2,2,false,d,true,false,0.0-2.0-0.43-0.390-3.390,1,1,0,90,false,stim,false,2,716,2,1,0,53294,task3,1049226,false,false,1282,image-keyboard-response,22
true,21,2,2,2,true,d,false,true,0.0-2.0-0.43-0.391-3.391,1,1,0,68,false,stim,false,2,1736,2,0,1,53294,task3,1052498,false,false,1285,image-keyboard-response,23
true,22,0,1,1,false,z,false,false,0.0-2.0-0.43-0.392-3.392,1,0,0,81,true,stim,true,0,637,2,0,2,53294,task3,1054658,false,false,1288,image-keyboard-response,1
true,22,2,1,1,false,z,true,false,0.0-2.0-0.43-0.393-3.393,1,0,0,68,false,stim,false,0,1332,2,0,2,53294,task3,1057522,false,false,1291,image-keyboard-response,2
true,22,2,1,2,true,d,false,true,0.0-2.0-0.43-0.394-3.394,1,0,0,68,false,stim,false,2,878,2,1,0,53294,task3,1059930,false,false,1294,image-keyboard-response,3
true,22,2,1,2,true,d,false,true,0.0-2.0-0.43-0.395-3.395,1,0,0,68,false,stim,false,2,597,2,1,0,53294,task3,1062058,false,false,1297,image-keyboard-response,4
true,22,2,1,0,false,q,false,false,0.0-2.0-0.44-0.396-3.396,1,0,0,68,false,stim,true,2,1637,2,0,1,53294,task3,1065218,false,false,1300,image-keyboard-response,5
true,22,1,1,0,false,q,true,true,0.0-2.0-0.44-0.397-3.397,1,0,0,90,false,stim,false,2,529,2,0,1,53294,task3,1067290,false,true,1303,image-keyboard-response,6
true,22,0,1,1,false,z,false,false,0.0-2.0-0.44-0.398-3.398,1,0,0,81,false,stim,true,0,990,2,0,2,53294,task3,1069801,false,false,1306,image-keyboard-response,7
true,22,2,1,2,true,d,false,true,0.0-2.0-0.44-0.399-3.399,1,0,0,68,false,stim,false,2,1005,2,1,0,53294,task3,1072346,false,false,1309,image-keyboard-response,8
true,22,1,1,0,false,q,true,false,0.0-2.0-0.44-0.400-3.400,1,0,0,90,false,stim,false,2,1977,2,0,1,53294,task3,1075859,false,false,1312,image-keyboard-response,9
true,22,1,1,1,true,z,false,true,0.0-2.0-0.44-0.401-3.401,1,0,0,90,false,stim,false,0,1763,2,0,2,53294,task3,1079154,false,false,1315,image-keyboard-response,10
true,22,1,1,1,true,z,false,true,0.0-2.0-0.44-0.402-3.402,1,0,0,90,false,stim,false,0,625,2,0,2,53294,task3,1081306,false,false,1318,image-keyboard-response,11
true,22,2,1,2,true,d,false,true,0.0-2.0-0.44-0.403-3.403,1,0,0,68,false,stim,false,2,506,2,1,0,53294,task3,1083338,false,false,1321,image-keyboard-response,12
true,22,2,1,2,true,d,false,true,0.0-2.0-0.44-0.404-3.404,1,0,0,68,false,stim,false,2,852,2,1,0,53294,task3,1085722,false,false,1324,image-keyboard-response,13
true,22,2,1,0,false,q,false,true,0.0-2.0-0.45-0.405-3.405,1,0,0,68,false,stim,true,2,477,2,0,1,53294,task3,1087738,false,true,1327,image-keyboard-response,14
true,22,2,1,2,true,d,false,true,0.0-2.0-0.45-0.406-3.406,1,0,0,68,false,stim,false,2,1115,2,1,0,53294,task3,1090387,false,false,1330,image-keyboard-response,15
true,22,2,1,0,false,q,false,false,0.0-2.0-0.45-0.407-3.407,1,0,0,68,false,stim,true,2,803,2,0,1,53294,task3,1092714,false,false,1333,image-keyboard-response,16
true,22,1,1,1,true,z,false,true,0.0-2.0-0.45-0.408-3.408,1,0,0,90,false,stim,false,0,400,2,0,2,53294,task3,1094642,false,false,1336,image-keyboard-response,17
true,22,1,1,1,true,z,false,true,0.0-2.0-0.45-0.409-3.409,1,0,0,90,false,stim,false,0,741,2,0,2,53294,task3,1096921,false,false,1339,image-keyboard-response,18
true,22,2,1,0,false,q,false,false,0.0-2.0-0.45-0.410-3.410,1,0,0,68,false,stim,true,2,543,2,0,1,53294,task3,1098994,false,false,1342,image-keyboard-response,19
true,22,1,1,1,true,z,false,true,0.0-2.0-0.45-0.411-3.411,1,0,0,90,false,stim,false,0,1294,2,0,2,53294,task3,1101826,false,false,1345,image-keyboard-response,20
true,22,2,1,2,true,d,false,true,0.0-2.0-0.45-0.412-3.412,1,0,0,68,false,stim,false,2,378,2,1,0,53294,task3,1103730,false,false,1348,image-keyboard-response,21
true,22,2,1,2,true,d,false,true,0.0-2.0-0.45-0.413-3.413,1,0,0,68,false,stim,false,2,898,2,1,0,53294,task3,1106170,false,false,1351,image-keyboard-response,22
true,22,0,1,0,true,q,false,true,0.0-2.0-0.46-0.414-3.414,1,0,0,81,false,stim,false,2,613,2,0,1,53294,task3,1108314,false,false,1354,image-keyboard-response,23
true,22,2,1,2,true,d,false,true,0.0-2.0-0.46-0.415-3.415,1,0,0,68,false,stim,false,2,1056,2,0,0,53294,task3,1110898,false,false,1357,image-keyboard-response,24
true,22,2,1,2,true,d,false,true,0.0-2.0-0.46-0.416-3.416,1,0,0,68,false,stim,false,2,778,2,0,0,53294,task3,1113210,false,false,1360,image-keyboard-response,25
true,22,1,1,1,true,z,false,true,0.0-2.0-0.46-0.417-3.417,1,0,0,90,false,stim,false,0,2214,2,1,2,53294,task3,1116954,false,false,1363,image-keyboard-response,26
true,22,2,1,2,true,d,false,true,0.0-2.0-0.46-0.418-3.418,1,0,0,68,false,stim,false,2,739,2,0,0,53294,task3,1119210,false,false,1366,image-keyboard-response,27
true,22,1,1,1,true,z,false,true,0.0-2.0-0.46-0.419-3.419,1,0,0,90,false,stim,false,0,932,2,1,2,53294,task3,1121674,false,false,1369,image-keyboard-response,28
true,23,0,1,2,false,d,false,false,0.0-2.0-0.46-0.420-3.420,0,0,1,81,true,stim,true,0,1662,2,0,1,53294,task3,1124874,false,false,1372,image-keyboard-response,1
true,23,1,1,1,true,z,false,true,0.0-2.0-0.46-0.421-3.421,0,0,1,90,false,stim,false,1,897,2,1,2,53294,task3,1127298,false,false,1375,image-keyboard-response,2
true,23,0,1,2,false,d,false,false,0.0-2.0-0.46-0.422-3.422,0,0,1,81,false,stim,true,0,660,2,0,1,53294,task3,1129481,false,false,1378,image-keyboard-response,3
true,23,1,1,1,true,z,false,true,0.0-2.0-0.47-0.423-3.423,0,0,1,90,false,stim,false,1,637,2,1,2,53294,task3,1131658,false,false,1381,image-keyboard-response,4
true,23,2,1,1,false,z,false,false,0.0-2.0-0.47-0.424-3.424,0,0,1,68,false,stim,true,2,683,2,0,0,53294,task3,1133874,false,false,1384,image-keyboard-response,5
true,23,1,1,1,true,z,false,true,0.0-2.0-0.47-0.425-3.425,0,0,1,90,false,stim,false,2,649,2,0,0,53294,task3,1136050,false,false,1387,image-keyboard-response,6
true,23,1,1,2,false,d,true,true,0.0-2.0-0.47-0.426-3.426,0,0,1,90,false,stim,false,0,914,2,0,1,53294,task3,1138490,false,true,1390,image-keyboard-response,7
true,23,1,1,2,false,d,true,false,0.0-2.0-0.47-0.427-3.427,0,0,1,90,false,stim,false,0,432,2,0,1,53294,task3,1140442,false,false,1393,image-keyboard-response,8
true,23,2,1,1,false,z,true,false,0.0-2.0-0.47-0.428-3.428,0,0,1,68,false,stim,false,1,967,2,1,2,53294,task3,1142938,false,false,1396,image-keyboard-response,9
true,23,1,1,2,false,d,true,false,0.0-2.0-0.47-0.429-3.429,0,0,1,90,false,stim,false,0,788,2,0,1,53294,task3,1145250,false,false,1399,image-keyboard-response,10
true,23,0,1,1,false,z,true,false,0.0-2.0-0.47-0.430-3.430,0,0,1,81,false,stim,false,1,583,2,1,2,53294,task3,1147370,false,false,1402,image-keyboard-response,11
true,23,2,1,1,false,z,false,false,0.0-2.0-0.47-0.431-3.431,0,0,1,68,false,stim,true,2,1116,2,0,0,53294,task3,1150018,false,false,1405,image-keyboard-response,12
true,23,1,1,1,true,z,false,true,0.0-2.0-0.48-0.432-3.432,0,0,1,90,false,stim,false,2,578,2,0,0,53294,task3,1152130,false,false,1408,image-keyboard-response,13
true,23,1,1,1,true,z,false,true,0.0-2.0-0.48-0.433-3.433,0,0,1,90,false,stim,false,2,436,2,0,0,53294,task3,1154098,false,false,1411,image-keyboard-response,14
true,23,2,1,2,true,d,false,true,0.0-2.0-0.48-0.434-3.434,0,0,1,68,false,stim,false,0,1043,2,0,1,53294,task3,1156674,false,false,1414,image-keyboard-response,15
true,23,2,1,1,false,z,true,false,0.0-2.0-0.48-0.435-3.435,0,0,1,68,false,stim,false,1,1331,2,1,2,53294,task3,1159522,false,false,1417,image-keyboard-response,16
true,23,1,1,1,true,z,false,false,0.0-2.0-0.48-0.436-3.436,0,0,1,90,false,stim,false,1,500,2,1,2,53294,task3,1161562,false,true,1420,image-keyboard-response,17
true,23,0,1,1,false,z,true,false,0.0-2.0-0.48-0.437-3.437,0,0,1,81,false,stim,false,1,476,2,1,2,53294,task3,1163578,false,false,1423,image-keyboard-response,18
true,23,1,1,1,true,z,false,true,0.0-2.0-0.48-0.438-3.438,0,0,1,90,false,stim,false,2,616,2,0,0,53294,task3,1165706,false,false,1426,image-keyboard-response,19
true,23,2,1,2,true,d,false,true,0.0-2.0-0.48-0.439-3.439,0,0,1,68,false,stim,false,0,742,2,0,1,53294,task3,1167970,false,false,1429,image-keyboard-response,20
true,23,1,1,2,false,d,true,false,0.0-2.0-0.48-0.440-3.440,0,0,1,90,false,stim,false,0,758,2,0,1,53294,task3,1170258,false,false,1432,image-keyboard-response,21
true,23,0,1,1,false,z,true,false,0.0-2.0-0.49-0.441-3.441,0,0,1,81,false,stim,false,1,1148,2,1,2,53294,task3,1172930,false,false,1435,image-keyboard-response,22
true,23,2,1,2,true,d,false,true,0.0-2.0-0.49-0.442-3.442,0,0,1,68,false,stim,false,0,1115,2,0,1,53294,task3,1175586,false,false,1438,image-keyboard-response,23
true,23,1,1,1,true,z,false,true,0.0-2.0-0.49-0.443-3.443,0,0,1,90,false,stim,false,1,1091,2,1,2,53294,task3,1178202,false,false,1441,image-keyboard-response,24
true,23,1,1,1,true,z,false,true,0.0-2.0-0.49-0.444-3.444,0,0,1,90,false,stim,false,1,1193,2,1,2,53294,task3,1180914,false,false,1444,image-keyboard-response,25
true,23,2,1,1,false,z,false,false,0.0-2.0-0.49-0.445-3.445,0,0,1,68,false,stim,true,2,698,2,0,0,53294,task3,1183138,false,false,1447,image-keyboard-response,26
true,23,1,1,2,false,d,true,false,0.0-2.0-0.49-0.446-3.446,0,0,1,90,false,stim,false,0,859,2,0,1,53294,task3,1185529,false,false,1450,image-keyboard-response,27
true,24,2,1,0,false,q,true,false,0.0-2.0-0.49-0.447-3.447,0,0,1,68,true,stim,false,1,811,2,0,0,53294,task3,1187881,false,false,1453,image-keyboard-response,1
true,24,1,1,0,false,q,false,false,0.0-2.0-0.49-0.448-3.448,0,0,1,90,false,stim,true,1,368,2,0,0,53294,task3,1189778,false,false,1456,image-keyboard-response,2
true,24,1,1,0,false,q,true,false,0.0-2.0-0.49-0.449-3.449,0,0,1,90,false,stim,false,2,1482,2,0,1,53294,task3,1192794,false,false,1459,image-keyboard-response,3
true,24,0,1,0,true,q,false,true,0.0-2.0-0.50-0.450-3.450,0,0,1,81,false,stim,false,1,1386,2,0,0,53294,task3,1195706,false,false,1462,image-keyboard-response,4
true,24,1,1,0,false,q,true,false,0.0-2.0-0.50-0.451-3.451,0,0,1,90,false,stim,false,2,994,2,0,1,53294,task3,1198226,false,false,1465,image-keyboard-response,5
true,24,1,1,1,true,z,false,true,0.0-2.0-0.50-0.452-3.452,0,0,1,90,false,stim,false,1,1418,2,1,2,53294,task3,1201170,false,false,1468,image-keyboard-response,6
true,24,1,1,1,true,z,false,true,0.0-2.0-0.50-0.453-3.453,0,0,1,90,false,stim,false,1,566,2,1,2,53294,task3,1203266,false,false,1471,image-keyboard-response,7
true,24,0,1,0,true,q,false,false,0.0-2.0-0.50-0.454-3.454,0,0,1,81,false,stim,false,1,1355,2,0,0,53294,task3,1206145,false,true,1474,image-keyboard-response,8
true,24,1,1,1,true,z,false,true,0.0-2.0-0.50-0.455-3.455,0,0,1,90,false,stim,false,1,672,2,1,2,53294,task3,1208353,false,false,1477,image-keyboard-response,9
true,24,2,1,0,false,q,false,false,0.0-2.0-0.50-0.456-3.456,0,0,1,68,false,stim,true,2,892,2,0,1,53294,task3,1210769,false,false,1480,image-keyboard-response,10
true,24,0,1,0,true,q,false,true,0.0-2.0-0.50-0.457-3.457,0,0,1,81,false,stim,false,1,838,2,0,0,53294,task3,1213138,false,false,1483,image-keyboard-response,11
true,24,2,1,0,false,q,false,false,0.0-2.0-0.50-0.458-3.458,0,0,1,68,false,stim,true,2,2100,2,0,1,53294,task3,1216762,false,false,1486,image-keyboard-response,12
true,24,1,1,1,true,z,false,true,0.0-2.0-0.51-0.459-3.459,0,0,1,90,false,stim,false,1,1406,2,1,2,53294,task3,1219698,false,false,1489,image-keyboard-response,13
true,24,1,1,1,true,z,false,true,0.0-2.0-0.51-0.460-3.460,0,0,1,90,false,stim,false,1,579,2,1,2,53294,task3,1221810,false,false,1492,image-keyboard-response,14
true,24,1,1,0,false,q,true,false,0.0-2.0-0.51-0.461-3.461,0,0,1,90,false,stim,false,2,637,2,0,1,53294,task3,1223977,false,false,1495,image-keyboard-response,15
true,24,1,1,0,false,q,false,false,0.0-2.0-0.51-0.462-3.462,0,0,1,90,false,stim,true,1,699,2,0,0,53294,task3,1226209,false,false,1498,image-keyboard-response,16
true,24,0,1,0,true,q,false,true,0.0-2.0-0.51-0.463-3.463,0,0,1,81,false,stim,false,2,840,2,0,1,53294,task3,1228586,false,false,1501,image-keyboard-response,17
true,24,0,1,0,true,q,false,true,0.0-2.0-0.51-0.464-3.464,0,0,1,81,false,stim,false,2,530,2,0,1,53294,task3,1230650,false,false,1504,image-keyboard-response,18
true,24,0,1,0,true,q,false,true,0.0-2.0-0.51-0.465-3.465,0,0,1,81,false,stim,false,1,664,2,0,0,53294,task3,1232834,false,false,1507,image-keyboard-response,19
true,24,0,1,0,true,q,false,true,0.0-2.0-0.51-0.466-3.466,0,0,1,81,false,stim,false,1,558,2,0,0,53294,task3,1234929,false,false,1510,image-keyboard-response,20
true,24,1,1,1,true,z,false,true,0.0-2.0-0.51-0.467-3.467,0,0,1,90,false,stim,false,1,1133,2,1,2,53294,task3,1237594,false,false,1513,image-keyboard-response,21
true,24,0,1,0,true,q,false,true,0.0-2.0-0.52-0.468-3.468,0,0,1,81,false,stim,false,1,999,2,1,0,53294,task3,1240129,false,false,1516,image-keyboard-response,22
true,24,0,1,0,true,q,false,true,0.0-2.0-0.52-0.469-3.469,0,0,1,81,false,stim,false,2,1070,2,0,1,53294,task3,1242730,false,false,1519,image-keyboard-response,23
true,24,1,1,0,false,q,false,false,0.0-2.0-0.52-0.470-3.470,0,0,1,90,false,stim,true,1,994,2,1,0,53294,task3,1245265,false,false,1522,image-keyboard-response,24
true,24,0,1,1,false,z,true,false,0.0-2.0-0.52-0.471-3.471,0,0,1,81,false,stim,false,1,618,2,0,2,53294,task3,1247386,false,false,1525,image-keyboard-response,25
true,24,1,1,1,true,z,false,true,0.0-2.0-0.52-0.472-3.472,0,0,1,90,false,stim,false,1,450,2,0,2,53294,task3,1249361,false,false,1528,image-keyboard-response,26
true,25,1,1,0,false,q,false,false,0.0-2.0-0.52-0.473-3.473,1,0,0,90,true,stim,true,1,839,2,0,2,53294,task3,1251729,false,false,1531,image-keyboard-response,1
true,25,0,1,0,true,q,false,true,0.0-2.0-0.52-0.474-3.474,1,0,0,81,false,stim,false,0,731,2,1,0,53294,task3,1254002,false,false,1534,image-keyboard-response,2
true,25,0,1,2,false,d,false,false,0.0-2.0-0.52-0.475-3.475,1,0,0,81,false,stim,true,0,445,2,0,1,53294,task3,1255986,false,false,1537,image-keyboard-response,3
true,25,0,1,2,false,d,false,false,0.0-2.0-0.52-0.476-3.476,1,0,0,81,false,stim,true,0,741,2,0,1,53294,task3,1258242,false,false,1540,image-keyboard-response,4
true,25,0,1,0,true,q,false,true,0.0-2.0-0.53-0.477-3.477,1,0,0,81,false,stim,false,0,1669,2,1,0,53294,task3,1261450,false,false,1543,image-keyboard-response,5
true,25,1,1,2,false,d,true,false,0.0-2.0-0.53-0.478-3.478,1,0,0,90,false,stim,false,0,1255,2,0,1,53294,task3,1264226,false,false,1546,image-keyboard-response,6
true,25,2,1,2,true,d,false,true,0.0-2.0-0.53-0.479-3.479,1,0,0,68,false,stim,false,0,738,2,0,1,53294,task3,1266489,false,false,1549,image-keyboard-response,7
true,25,0,1,0,true,q,false,true,0.0-2.0-0.53-0.480-3.480,1,0,0,81,false,stim,false,0,605,2,1,0,53294,task3,1268626,false,false,1552,image-keyboard-response,8
true,25,1,1,0,false,q,false,false,0.0-2.0-0.53-0.481-3.481,1,0,0,90,false,stim,true,1,1490,2,0,2,53294,task3,1271642,false,false,1555,image-keyboard-response,9
true,25,0,1,0,true,q,false,true,0.0-2.0-0.53-0.482-3.482,1,0,0,81,false,stim,false,0,460,2,1,0,53294,task3,1273642,false,false,1558,image-keyboard-response,10
true,25,2,1,2,true,d,false,true,0.0-2.0-0.53-0.483-3.483,1,0,0,68,false,stim,false,0,1103,2,1,1,53294,task3,1276274,false,false,1561,image-keyboard-response,11
true,25,0,1,0,true,q,false,true,0.0-2.0-0.53-0.484-3.484,1,0,0,81,false,stim,false,1,1432,2,1,2,53294,task3,1279234,false,false,1564,image-keyboard-response,12
true,25,0,1,0,true,q,false,true,0.0-2.0-0.53-0.485-3.485,1,0,0,81,false,stim,false,1,495,2,1,2,53294,task3,1281266,false,false,1567,image-keyboard-response,13
true,25,0,1,0,true,q,false,true,0.0-2.0-0.54-0.486-3.486,1,0,0,81,false,stim,false,1,547,2,1,2,53294,task3,1283337,false,false,1570,image-keyboard-response,14
true,26,0,0,0,true,q,false,true,0.0-2.0-0.54-0.487-3.487,1,1,1,81,true,stim,false,0,1257,2,1,2,53294,task3,1340217,false,false,1627,image-keyboard-response,1
true,26,1,0,0,false,q,true,false,0.0-2.0-0.54-0.488-3.488,1,1,1,90,false,stim,false,0,797,2,1,0,53294,task3,1342538,false,false,1630,image-keyboard-response,2
true,26,1,0,2,false,d,true,false,0.0-2.0-0.54-0.489-3.489,1,1,1,90,false,stim,false,2,1060,2,1,1,53294,task3,1345129,false,false,1633,image-keyboard-response,3
true,26,2,0,2,true,d,false,true,0.0-2.0-0.54-0.490-3.490,1,1,1,68,false,stim,false,2,603,2,1,1,53294,task3,1347273,false,false,1636,image-keyboard-response,4
true,26,2,0,0,false,q,true,false,0.0-2.0-0.54-0.491-3.491,1,1,1,68,false,stim,false,0,977,2,1,0,53294,task3,1349777,false,false,1639,image-keyboard-response,5
true,26,0,0,0,true,q,false,true,0.0-2.0-0.54-0.492-3.492,1,1,1,81,false,stim,false,0,1035,2,1,2,53294,task3,1352345,false,false,1642,image-keyboard-response,6
true,26,0,0,0,true,q,false,true,0.0-2.0-0.54-0.493-3.493,1,1,1,81,false,stim,false,0,555,2,1,0,53294,task3,1354426,false,false,1645,image-keyboard-response,7
true,26,2,0,2,true,d,false,true,0.0-2.0-0.54-0.494-3.494,1,1,1,68,false,stim,false,2,403,2,1,1,53294,task3,1356354,false,false,1648,image-keyboard-response,8
true,26,2,0,2,true,d,false,true,0.0-2.0-0.55-0.495-3.495,1,1,1,68,false,stim,false,2,1199,2,1,1,53294,task3,1359090,false,false,1651,image-keyboard-response,9
true,26,0,0,0,true,q,false,true,0.0-2.0-0.55-0.496-3.496,1,1,1,81,false,stim,false,0,1381,2,0,0,53294,task3,1362002,false,false,1654,image-keyboard-response,10
true,26,0,0,0,true,q,false,true,0.0-2.0-0.55-0.497-3.497,1,1,1,81,false,stim,false,0,1365,2,0,0,53294,task3,1364906,false,false,1657,image-keyboard-response,11
true,26,2,0,2,true,d,false,true,0.0-2.0-0.55-0.498-3.498,1,1,1,68,false,stim,false,2,2513,2,1,1,53294,task3,1368954,false,false,1660,image-keyboard-response,12
true,27,0,1,2,false,d,false,false,0.0-2.0-0.55-0.499-3.499,0,1,0,81,true,stim,true,0,1263,2,0,2,53294,task3,1371754,false,false,1663,image-keyboard-response,1
true,27,0,1,1,false,z,false,false,0.0-2.0-0.55-0.500-3.500,0,1,0,81,false,stim,true,0,863,2,0,0,53294,task3,1374153,false,false,1666,image-keyboard-response,2
true,27,0,1,2,false,d,false,false,0.0-2.0-0.55-0.501-3.501,0,1,0,81,false,stim,true,0,639,2,0,2,53294,task3,1376329,false,false,1669,image-keyboard-response,3
true,27,0,1,2,false,d,true,false,0.0-2.0-0.55-0.502-3.502,0,1,0,81,false,stim,false,2,1323,2,1,1,53294,task3,1379193,false,false,1672,image-keyboard-response,4
true,27,2,1,2,true,d,false,true,0.0-2.0-0.55-0.503-3.503,0,1,0,68,false,stim,false,0,1913,2,0,2,53294,task3,1382633,false,false,1675,image-keyboard-response,5
true,27,1,1,2,false,d,true,false,0.0-2.0-0.56-0.504-3.504,0,1,0,90,false,stim,false,2,2305,2,1,1,53294,task3,1386465,false,false,1678,image-keyboard-response,6
true,27,2,1,2,true,d,false,true,0.0-2.0-0.56-0.505-3.505,0,1,0,68,false,stim,false,2,433,2,1,1,53294,task3,1388434,false,false,1681,image-keyboard-response,7
true,27,1,1,1,true,z,false,true,0.0-2.0-0.56-0.506-3.506,0,1,0,90,false,stim,false,0,1433,2,0,0,53294,task3,1391394,false,false,1684,image-keyboard-response,8
true,27,0,1,2,false,d,false,false,0.0-2.0-0.56-0.507-3.507,0,1,0,81,false,stim,true,0,1288,2,0,2,53294,task3,1394209,false,false,1687,image-keyboard-response,9
true,27,1,1,2,false,d,true,false,0.0-2.0-0.56-0.508-3.508,0,1,0,90,false,stim,false,0,983,2,1,2,53294,task3,1396713,false,false,1690,image-keyboard-response,10
true,27,2,1,2,true,d,false,true,0.0-2.0-0.56-0.509-3.509,0,1,0,68,false,stim,false,2,928,2,0,1,53294,task3,1399169,false,false,1693,image-keyboard-response,11
true,27,2,1,2,true,d,false,false,0.0-2.0-0.56-0.510-3.510,0,1,0,68,false,stim,false,0,454,2,1,2,53294,task3,1401145,false,true,1696,image-keyboard-response,12
true,27,1,1,1,true,z,false,true,0.0-2.0-0.56-0.511-3.511,0,1,0,90,false,stim,false,0,354,2,1,0,53294,task3,1403025,false,false,1699,image-keyboard-response,13
true,27,1,1,1,true,z,false,true,0.0-2.0-0.56-0.512-3.512,0,1,0,90,false,stim,false,0,797,2,1,0,53294,task3,1405338,false,false,1702,image-keyboard-response,14
true,28,1,2,1,true,z,false,true,0.0-2.0-0.57-0.513-3.513,1,0,1,90,true,stim,false,1,709,2,1,0,53294,task3,1407570,false,false,1705,image-keyboard-response,1
true,28,2,2,0,false,q,false,false,0.0-2.0-0.57-0.514-3.514,1,0,1,68,false,stim,true,2,845,2,0,1,53294,task3,1409946,false,false,1708,image-keyboard-response,2
true,28,1,2,0,false,q,true,false,0.0-2.0-0.57-0.515-3.515,1,0,1,90,false,stim,false,2,1307,2,0,1,53294,task3,1412778,false,false,1711,image-keyboard-response,3
true,28,2,2,2,true,d,false,true,0.0-2.0-0.57-0.516-3.516,1,0,1,68,false,stim,false,2,746,2,1,2,53294,task3,1415057,false,false,1714,image-keyboard-response,4
true,28,1,2,1,true,z,false,true,0.0-2.0-0.57-0.517-3.517,1,0,1,90,false,stim,false,1,634,2,1,0,53294,task3,1417226,false,false,1717,image-keyboard-response,5
true,28,1,2,1,true,z,false,true,0.0-2.0-0.57-0.518-3.518,1,0,1,90,false,stim,false,1,937,2,1,0,53294,task3,1419698,false,false,1720,image-keyboard-response,6
true,28,0,2,0,true,q,false,true,0.0-2.0-0.57-0.519-3.519,1,0,1,81,false,stim,false,2,755,2,0,1,53294,task3,1421985,false,false,1723,image-keyboard-response,7
true,28,2,2,2,true,d,false,true,0.0-2.0-0.57-0.520-3.520,1,0,1,68,false,stim,false,2,971,2,1,2,53294,task3,1424482,false,false,1726,image-keyboard-response,8
true,28,2,2,2,true,d,false,true,0.0-2.0-0.57-0.521-3.521,1,0,1,68,false,stim,false,2,1493,2,1,2,53294,task3,1427513,false,false,1729,image-keyboard-response,9
true,28,2,2,2,true,d,false,true,0.0-2.0-0.58-0.522-3.522,1,0,1,68,false,stim,false,2,1399,2,1,2,53294,task3,1430450,false,false,1732,image-keyboard-response,10
true,28,1,2,1,true,z,false,true,0.0-2.0-0.58-0.523-3.523,1,0,1,90,false,stim,false,1,789,2,1,0,53294,task3,1432769,false,false,1735,image-keyboard-response,11
true,28,0,2,0,true,q,false,true,0.0-2.0-0.58-0.524-3.524,1,0,1,81,false,stim,false,2,1173,2,0,1,53294,task3,1435473,false,false,1738,image-keyboard-response,12
true,28,1,2,1,true,z,false,true,0.0-2.0-0.58-0.525-3.525,1,0,1,90,false,stim,false,1,1095,2,1,0,53294,task3,1438106,false,false,1741,image-keyboard-response,13
true,28,1,2,1,true,z,false,true,0.0-2.0-0.58-0.526-3.526,1,0,1,90,false,stim,false,1,1218,2,1,0,53294,task3,1440857,false,false,1744,image-keyboard-response,14
true,28,0,2,0,true,q,false,true,0.0-2.0-0.58-0.527-3.527,1,0,1,81,false,stim,false,2,883,2,0,1,53294,task3,1443274,false,false,1747,image-keyboard-response,15
true,28,2,2,2,true,d,false,true,0.0-2.0-0.58-0.528-3.528,1,0,1,68,false,stim,false,2,1569,2,1,2,53294,task3,1446369,false,false,1750,image-keyboard-response,16
true,28,0,2,0,true,q,false,true,0.0-2.0-0.58-0.529-3.529,1,0,1,81,false,stim,false,2,765,2,0,1,53294,task3,1448665,false,false,1753,image-keyboard-response,17
true,28,2,2,2,true,d,false,true,0.0-2.0-0.58-0.530-3.530,1,0,1,68,false,stim,false,2,929,2,1,2,53294,task3,1451129,false,false,1756,image-keyboard-response,18
true,28,2,2,2,true,d,false,true,0.0-2.0-0.59-0.531-3.531,1,0,1,68,false,stim,false,2,890,2,1,2,53294,task3,1453561,false,false,1759,image-keyboard-response,19
true,28,1,2,1,true,z,false,false,0.0-2.0-0.59-0.532-3.532,1,0,1,90,false,stim,false,1,1037,2,0,0,53294,task3,1456130,false,true,1762,image-keyboard-response,20
true,28,2,2,2,true,d,false,false,0.0-2.0-0.59-0.533-3.533,1,0,1,68,false,stim,false,2,941,2,1,2,53294,task3,1458601,false,true,1765,image-keyboard-response,21
true,28,2,2,2,true,d,false,true,0.0-2.0-0.59-0.534-3.534,1,0,1,68,false,stim,false,2,2207,2,1,2,53294,task3,1462337,false,false,1768,image-keyboard-response,22
true,28,1,2,1,true,z,false,true,0.0-2.0-0.59-0.535-3.535,1,0,1,90,false,stim,false,1,533,2,0,0,53294,task3,1464393,false,false,1771,image-keyboard-response,23
true,29,0,1,2,false,d,false,false,0.0-2.0-0.59-0.536-3.536,0,0,1,81,true,stim,true,0,441,2,0,1,53294,task3,1466361,false,false,1774,image-keyboard-response,1
true,29,0,1,2,false,d,false,false,0.0-2.0-0.59-0.537-3.537,0,0,1,81,false,stim,true,0,589,2,0,1,53294,task3,1468489,false,false,1777,image-keyboard-response,2
true,29,1,1,0,false,q,false,true,0.0-2.0-0.59-0.538-3.538,0,0,1,90,false,stim,true,1,710,2,0,0,53294,task3,1470721,false,true,1780,image-keyboard-response,3
true,29,1,1,2,false,d,true,false,0.0-2.0-0.59-0.539-3.539,0,0,1,90,false,stim,false,0,673,2,0,1,53294,task3,1472914,false,false,1783,image-keyboard-response,4
true,29,2,1,2,true,d,false,true,0.0-2.0-0.60-0.540-3.540,0,0,1,68,false,stim,false,2,722,2,1,2,53294,task3,1475153,false,false,1786,image-keyboard-response,5
true,29,2,1,2,true,d,false,true,0.0-2.0-0.60-0.541-3.541,0,0,1,68,false,stim,false,0,474,2,0,1,53294,task3,1477153,false,false,1789,image-keyboard-response,6
true,29,2,1,2,true,d,false,true,0.0-2.0-0.60-0.542-3.542,0,0,1,68,false,stim,false,2,1295,2,0,2,53294,task3,1479985,false,false,1792,image-keyboard-response,7
true,29,1,1,0,false,q,false,true,0.0-2.0-0.60-0.543-3.543,0,0,1,90,false,stim,true,1,523,2,1,0,53294,task3,1482033,false,true,1795,image-keyboard-response,8
true,29,2,1,2,true,d,false,true,0.0-2.0-0.60-0.544-3.544,0,0,1,68,false,stim,false,0,559,2,1,1,53294,task3,1484130,false,false,1798,image-keyboard-response,9
true,29,2,1,2,true,d,false,true,0.0-2.0-0.60-0.545-3.545,0,0,1,68,false,stim,false,0,644,2,1,1,53294,task3,1486321,false,false,1801,image-keyboard-response,10
true,29,1,1,0,false,q,false,false,0.0-2.0-0.60-0.546-3.546,0,0,1,90,false,stim,true,1,1463,2,1,0,53294,task3,1489314,false,false,1804,image-keyboard-response,11
true,30,0,2,0,true,q,false,true,0.0-2.0-0.60-0.547-3.547,1,1,0,81,true,stim,false,0,729,2,1,0,53294,task3,1491569,false,false,1807,image-keyboard-response,1
true,30,2,2,1,false,z,false,false,0.0-2.0-0.60-0.548-3.548,1,1,0,68,false,stim,true,2,733,2,0,2,53294,task3,1493834,false,false,1810,image-keyboard-response,2
true,30,1,2,1,true,z,false,true,0.0-2.0-0.61-0.549-3.549,1,1,0,90,false,stim,false,2,553,2,0,2,53294,task3,1495913,false,false,1813,image-keyboard-response,3
true,30,2,2,2,true,d,false,true,0.0-2.0-0.61-0.550-3.550,1,1,0,68,false,stim,false,2,942,2,1,1,53294,task3,1498393,false,false,1816,image-keyboard-response,4
true,30,0,2,0,true,q,false,true,0.0-2.0-0.61-0.551-3.551,1,1,0,81,false,stim,false,0,487,2,1,0,53294,task3,1500417,false,false,1819,image-keyboard-response,5
true,30,2,2,2,true,d,false,true,0.0-2.0-0.61-0.552-3.552,1,1,0,68,false,stim,false,2,996,2,1,1,53294,task3,1502937,false,false,1822,image-keyboard-response,6
true,30,0,2,0,true,q,false,true,0.0-2.0-0.61-0.553-3.553,1,1,0,81,false,stim,false,0,1229,2,1,0,53294,task3,1505689,false,false,1825,image-keyboard-response,7
true,30,0,2,0,true,q,false,true,0.0-2.0-0.61-0.554-3.554,1,1,0,81,false,stim,false,0,933,2,1,0,53294,task3,1508154,false,false,1828,image-keyboard-response,8
true,30,2,2,2,true,d,false,true,0.0-2.0-0.61-0.555-3.555,1,1,0,68,false,stim,false,2,887,2,1,1,53294,task3,1510577,false,false,1831,image-keyboard-response,9
true,30,1,2,1,true,z,false,true,0.0-2.0-0.61-0.556-3.556,1,1,0,90,false,stim,false,2,885,2,0,2,53294,task3,1512986,false,false,1834,image-keyboard-response,10
true,30,1,2,1,true,z,false,true,0.0-2.0-0.61-0.557-3.557,1,1,0,90,false,stim,false,2,738,2,0,2,53294,task3,1515249,false,false,1837,image-keyboard-response,11
true,30,1,2,1,true,z,false,true,0.0-2.0-0.62-0.558-3.558,1,1,0,90,false,stim,false,2,561,2,0,2,53294,task3,1517329,false,false,1840,image-keyboard-response,12
true,30,2,2,2,true,d,false,true,0.0-2.0-0.62-0.559-3.559,1,1,0,68,false,stim,false,2,645,2,1,1,53294,task3,1519505,false,false,1843,image-keyboard-response,13
true,30,2,2,2,true,d,false,false,0.0-2.0-0.62-0.560-3.560,1,1,0,68,false,stim,false,2,1778,2,1,1,53294,task3,1522809,false,true,1846,image-keyboard-response,14
true,30,0,2,0,true,q,false,true,0.0-2.0-0.62-0.561-3.561,1,1,0,81,false,stim,false,0,671,2,1,0,53294,task3,1525001,false,false,1849,image-keyboard-response,15
true,30,0,2,0,true,q,false,true,0.0-2.0-0.62-0.562-3.562,1,1,0,81,false,stim,false,0,1185,2,1,0,53294,task3,1527705,false,false,1852,image-keyboard-response,16
true,30,1,2,1,true,z,false,true,0.0-2.0-0.62-0.563-3.563,1,1,0,90,false,stim,false,2,1106,2,0,2,53294,task3,1530337,false,false,1855,image-keyboard-response,17
true,30,2,2,2,true,d,false,true,0.0-2.0-0.62-0.564-3.564,1,1,0,68,false,stim,false,2,421,2,1,1,53294,task3,1532281,false,false,1858,image-keyboard-response,18
true,30,1,2,1,true,z,false,true,0.0-2.0-0.62-0.565-3.565,1,1,0,90,false,stim,false,2,1164,2,0,2,53294,task3,1534985,false,false,1861,image-keyboard-response,19
true,30,0,2,0,true,q,false,true,0.0-2.0-0.62-0.566-3.566,1,1,0,81,false,stim,false,0,873,2,1,0,53294,task3,1537393,false,false,1864,image-keyboard-response,20
true,30,0,2,0,true,q,false,false,0.0-2.0-0.63-0.567-3.567,1,1,0,81,false,stim,false,0,726,2,1,0,53294,task3,1539658,false,true,1867,image-keyboard-response,21
true,30,0,2,0,true,q,false,true,0.0-2.0-0.63-0.568-3.568,1,1,0,81,false,stim,false,0,469,2,1,0,53294,task3,1541649,false,false,1870,image-keyboard-response,22
true,30,1,2,1,true,z,false,true,0.0-2.0-0.63-0.569-3.569,1,1,0,90,false,stim,false,2,421,2,0,2,53294,task3,1543601,false,false,1873,image-keyboard-response,23
true,30,1,2,1,true,z,false,true,0.0-2.0-0.63-0.570-3.570,1,1,0,90,false,stim,false,2,566,2,0,2,53294,task3,1545697,false,false,1876,image-keyboard-response,24
true,30,1,2,1,true,z,false,true,0.0-2.0-0.63-0.571-3.571,1,1,0,90,false,stim,false,2,758,2,0,2,53294,task3,1547977,false,false,1879,image-keyboard-response,25
true,30,2,2,2,true,d,false,false,0.0-2.0-0.63-0.572-3.572,1,1,0,68,false,stim,false,2,611,2,0,1,53294,task3,1550121,false,true,1882,image-keyboard-response,26
true,30,2,2,2,true,d,false,true,0.0-2.0-0.63-0.573-3.573,1,1,0,68,false,stim,false,2,862,2,0,1,53294,task3,1552513,false,false,1885,image-keyboard-response,27
true,30,2,2,2,true,d,false,true,0.0-2.0-0.63-0.574-3.574,1,1,0,68,false,stim,false,2,1378,2,0,1,53294,task3,1555418,false,false,1888,image-keyboard-response,28
true,31,0,1,0,true,q,false,true,0.0-2.0-0.63-0.575-3.575,1,0,0,81,true,stim,false,0,1644,2,1,0,53294,task3,1558593,false,false,1891,image-keyboard-response,1
true,31,1,1,0,false,q,false,false,0.0-2.0-0.64-0.576-3.576,1,0,0,90,false,stim,true,1,960,2,0,2,53294,task3,1561081,false,false,1894,image-keyboard-response,2
true,31,2,1,1,false,z,false,false,0.0-2.0-0.64-0.577-3.577,1,0,0,68,false,stim,true,2,1012,2,0,1,53294,task3,1563633,false,false,1897,image-keyboard-response,3
true,31,0,1,0,true,q,false,true,0.0-2.0-0.64-0.578-3.578,1,0,0,81,false,stim,false,0,722,2,1,0,53294,task3,1565873,false,false,1900,image-keyboard-response,4
true,31,1,1,0,false,q,false,false,0.0-2.0-0.64-0.579-3.579,1,0,0,90,false,stim,true,1,1559,2,0,2,53294,task3,1568970,false,false,1903,image-keyboard-response,5
true,31,1,1,1,true,z,false,true,0.0-2.0-0.64-0.580-3.580,1,0,0,90,false,stim,false,2,1091,2,0,1,53294,task3,1571601,false,false,1906,image-keyboard-response,6
true,31,2,1,0,false,q,true,false,0.0-2.0-0.64-0.581-3.581,1,0,0,68,false,stim,false,1,764,2,0,2,53294,task3,1573905,false,false,1909,image-keyboard-response,7
true,31,1,1,1,true,z,false,true,0.0-2.0-0.64-0.582-3.582,1,0,0,90,false,stim,false,2,785,2,0,1,53294,task3,1576225,false,false,1912,image-keyboard-response,8
true,31,0,1,0,true,q,false,true,0.0-2.0-0.64-0.583-3.583,1,0,0,81,false,stim,false,0,536,2,1,0,53294,task3,1578297,false,false,1915,image-keyboard-response,9
true,31,0,1,0,true,q,false,true,0.0-2.0-0.64-0.584-3.584,1,0,0,81,false,stim,false,0,827,2,0,0,53294,task3,1580657,false,false,1918,image-keyboard-response,10
true,31,0,1,0,true,q,false,true,0.0-2.0-0.65-0.585-3.585,1,0,0,81,false,stim,false,1,1412,2,1,2,53294,task3,1583593,false,false,1921,image-keyboard-response,11
true,31,0,1,0,true,q,false,true,0.0-2.0-0.65-0.586-3.586,1,0,0,81,false,stim,false,1,816,2,1,2,53294,task3,1585937,false,false,1924,image-keyboard-response,12
true,31,0,1,0,true,q,false,true,0.0-2.0-0.65-0.587-3.587,1,0,0,81,false,stim,false,0,387,2,0,0,53294,task3,1587857,false,false,1927,image-keyboard-response,13
true,31,1,1,1,true,z,false,true,0.0-2.0-0.65-0.588-3.588,1,0,0,90,false,stim,false,2,397,2,1,1,53294,task3,1589777,false,false,1930,image-keyboard-response,14
true,32,0,2,2,false,d,false,false,0.0-2.0-0.65-0.589-3.589,0,1,1,81,true,stim,true,0,1229,2,0,0,53294,task3,1592530,false,false,1933,image-keyboard-response,1
true,32,1,2,1,true,z,false,false,0.0-2.0-0.65-0.590-3.590,0,1,1,90,false,stim,false,1,1515,2,1,1,53294,task3,1595585,false,true,1936,image-keyboard-response,2
true,32,1,2,1,true,z,false,true,0.0-2.0-0.65-0.591-3.591,0,1,1,90,false,stim,false,1,1008,2,1,1,53294,task3,1598129,false,false,1939,image-keyboard-response,3
true,32,1,2,2,false,d,true,true,0.0-2.0-0.65-0.592-3.592,0,1,1,90,false,stim,false,0,1333,2,0,0,53294,task3,1600993,false,true,1942,image-keyboard-response,4
true,32,0,2,0,true,q,false,true,0.0-2.0-0.65-0.593-3.593,0,1,1,81,false,stim,false,0,743,2,1,2,53294,task3,1603273,false,false,1945,image-keyboard-response,5
true,32,0,2,0,true,q,false,true,0.0-2.0-0.66-0.594-3.594,0,1,1,81,false,stim,false,0,470,2,1,2,53294,task3,1605281,false,false,1948,image-keyboard-response,6
true,32,1,2,2,false,d,true,false,0.0-2.0-0.66-0.595-3.595,0,1,1,90,false,stim,false,0,1479,2,0,0,53294,task3,1608289,false,false,1951,image-keyboard-response,7
true,32,1,2,1,true,z,false,true,0.0-2.0-0.66-0.596-3.596,0,1,1,90,false,stim,false,1,675,2,1,1,53294,task3,1610505,false,false,1954,image-keyboard-response,8
true,32,1,2,2,false,d,true,false,0.0-2.0-0.66-0.597-3.597,0,1,1,90,false,stim,false,0,515,2,0,0,53294,task3,1612545,false,false,1957,image-keyboard-response,9
true,32,2,2,2,true,d,false,true,0.0-2.0-0.66-0.598-3.598,0,1,1,68,false,stim,false,0,603,2,0,0,53294,task3,1614673,false,false,1960,image-keyboard-response,10
true,32,1,2,1,true,z,false,true,0.0-2.0-0.66-0.599-3.599,0,1,1,90,false,stim,false,1,1463,2,1,1,53294,task3,1617673,false,false,1963,image-keyboard-response,11
true,32,1,2,1,true,z,false,true,0.0-2.0-0.66-0.600-3.600,0,1,1,90,false,stim,false,1,697,2,1,1,53294,task3,1619897,false,false,1966,image-keyboard-response,12
false,32,-1,2,0,false,q,true,false,0.0-2.0-0.66-0.601-3.601,0,1,1,,false,stim,false,0,,2,1,2,53294,task3,1624440,false,false,1969,image-keyboard-response,13
true,32,2,2,0,false,q,true,false,0.0-2.0-0.66-0.602-3.602,0,1,1,68,false,stim,false,0,1732,2,1,2,53294,task3,1627712,false,false,1972,image-keyboard-response,14
true,32,2,2,2,true,d,false,true,0.0-2.0-0.67-0.603-3.603,0,1,1,68,false,stim,false,0,1366,2,0,0,53294,task3,1630617,false,false,1975,image-keyboard-response,15
true,32,1,2,1,true,z,false,true,0.0-2.0-0.67-0.604-3.604,0,1,1,90,false,stim,false,1,941,2,1,1,53294,task3,1633081,false,false,1978,image-keyboard-response,16
true,32,0,2,0,true,q,false,true,0.0-2.0-0.67-0.605-3.605,0,1,1,81,false,stim,false,0,437,2,1,2,53294,task3,1635057,false,false,1981,image-keyboard-response,17
true,32,1,2,1,true,z,false,true,0.0-2.0-0.67-0.606-3.606,0,1,1,90,false,stim,false,1,900,2,1,1,53294,task3,1637481,false,false,1984,image-keyboard-response,18
true,32,2,2,2,true,d,false,true,0.0-2.0-0.67-0.607-3.607,0,1,1,68,false,stim,false,0,1221,2,0,0,53294,task3,1640241,false,false,1987,image-keyboard-response,19
true,32,1,2,1,true,z,false,true,0.0-2.0-0.67-0.608-3.608,0,1,1,90,false,stim,false,1,870,2,1,1,53294,task3,1642641,false,false,1990,image-keyboard-response,20
true,32,0,2,0,true,q,false,true,0.0-2.0-0.67-0.609-3.609,0,1,1,81,false,stim,false,0,693,2,0,2,53294,task3,1644873,false,false,1993,image-keyboard-response,21
true,32,0,2,0,true,q,false,true,0.0-2.0-0.67-0.610-3.610,0,1,1,81,false,stim,false,0,577,2,0,2,53294,task3,1646977,false,false,1996,image-keyboard-response,22
true,32,2,2,2,true,d,false,true,0.0-2.0-0.67-0.611-3.611,0,1,1,68,false,stim,false,0,860,2,0,0,53294,task3,1649361,false,false,1999,image-keyboard-response,23
false,32,-1,2,0,false,q,true,false,0.0-2.0-0.68-0.612-3.612,0,1,1,,false,stim,false,0,,2,0,2,53294,task3,1653910,false,false,2002,image-keyboard-response,24
true,33,0,1,2,false,d,false,false,0.0-2.0-0.68-0.613-3.613,0,1,0,81,true,stim,true,0,414,2,0,2,53294,task3,1655865,false,false,2005,image-keyboard-response,1
true,33,1,1,1,true,z,false,false,0.0-2.0-0.68-0.614-3.614,0,1,0,90,false,stim,false,1,762,2,1,1,53294,task3,1658153,false,true,2008,image-keyboard-response,2
true,33,2,1,1,false,z,false,false,0.0-2.0-0.68-0.615-3.615,0,1,0,68,false,stim,true,2,791,2,0,0,53294,task3,1660481,false,false,2011,image-keyboard-response,3
true,33,1,1,2,false,d,true,false,0.0-2.0-0.68-0.616-3.616,0,1,0,90,false,stim,false,0,972,2,0,2,53294,task3,1662993,false,false,2014,image-keyboard-response,4
true,33,2,1,1,false,z,false,false,0.0-2.0-0.68-0.617-3.617,0,1,0,68,false,stim,true,2,1322,2,0,0,53294,task3,1665841,false,false,2017,image-keyboard-response,5
true,33,2,1,1,false,z,true,false,0.0-2.0-0.68-0.618-3.618,0,1,0,68,false,stim,false,1,1063,2,1,1,53294,task3,1668433,false,false,2020,image-keyboard-response,6
true,33,0,1,1,false,z,true,false,0.0-2.0-0.68-0.619-3.619,0,1,0,81,false,stim,false,1,657,2,1,1,53294,task3,1670617,false,false,2023,image-keyboard-response,7
true,33,2,1,1,false,z,false,false,0.0-2.0-0.68-0.620-3.620,0,1,0,68,false,stim,true,2,1267,2,0,0,53294,task3,1673417,false,false,2026,image-keyboard-response,8
true,33,1,1,2,false,d,true,false,0.0-2.0-0.69-0.621-3.621,0,1,0,90,false,stim,false,0,818,2,0,2,53294,task3,1675753,false,false,2029,image-keyboard-response,9
true,33,0,1,2,false,d,false,false,0.0-2.0-0.69-0.622-3.622,0,1,0,81,false,stim,true,0,393,2,0,2,53294,task3,1677673,false,false,2032,image-keyboard-response,10
true,33,0,1,1,false,z,true,false,0.0-2.0-0.69-0.623-3.623,0,1,0,81,false,stim,false,1,859,2,1,1,53294,task3,1680049,false,false,2035,image-keyboard-response,11
true,33,0,1,1,false,z,true,false,0.0-2.0-0.69-0.624-3.624,0,1,0,81,false,stim,false,2,1516,2,0,0,53294,task3,1683097,false,false,2038,image-keyboard-response,12
true,33,1,1,1,true,z,false,true,0.0-2.0-0.69-0.625-3.625,0,1,0,90,false,stim,false,2,445,2,0,0,53294,task3,1685065,false,false,2041,image-keyboard-response,13
true,33,2,1,1,false,z,true,false,0.0-2.0-0.69-0.626-3.626,0,1,0,68,false,stim,false,1,1048,2,1,1,53294,task3,1687649,false,false,2044,image-keyboard-response,14
true,33,1,1,1,true,z,false,true,0.0-2.0-0.69-0.627-3.627,0,1,0,90,false,stim,false,2,725,2,0,0,53294,task3,1689905,false,false,2047,image-keyboard-response,15
true,33,1,1,1,true,z,false,true,0.0-2.0-0.69-0.628-3.628,0,1,0,90,false,stim,false,1,840,2,1,1,53294,task3,1692281,false,false,2050,image-keyboard-response,16
true,33,0,1,2,false,d,false,false,0.0-2.0-0.69-0.629-3.629,0,1,0,81,false,stim,true,0,1189,2,0,2,53294,task3,1695009,false,false,2053,image-keyboard-response,17
true,33,1,1,1,true,z,false,true,0.0-2.0-0.70-0.630-3.630,0,1,0,90,false,stim,false,2,805,2,0,0,53294,task3,1697345,false,false,2056,image-keyboard-response,18
true,33,1,1,1,true,z,false,true,0.0-2.0-0.70-0.631-3.631,0,1,0,90,false,stim,false,1,674,2,1,1,53294,task3,1699545,false,false,2059,image-keyboard-response,19
true,33,1,1,1,true,z,false,true,0.0-2.0-0.70-0.632-3.632,0,1,0,90,false,stim,false,1,660,2,1,1,53294,task3,1701721,false,false,2062,image-keyboard-response,20
true,33,2,1,2,true,d,false,false,0.0-2.0-0.70-0.633-3.633,0,1,0,68,false,stim,false,0,855,2,0,2,53294,task3,1704105,false,true,2065,image-keyboard-response,21
