answered,blockNum,choice,condition,corResp,correct,correct_response,explo,fb,internal_node_id,isStable_1,isStable_2,isStable_3,key_press,newBlock,part,persev,persevResp,rt,sessNum,stableAS,stimulus,subject,task,time_elapsed,training,trap,trial_index,trial_type,trialsInBlock
true,1,0,0,2,false,d,true,false,0.0-2.0-0.0-0.0-3.0,0,0,0,81,true,stim,false,-1,1003.5999999940395,0,0,0,53294,task2,83405,false,false,79,image-keyboard-response,1
true,1,0,0,0,true,q,false,true,0.0-2.0-0.0-0.1-3.1,0,0,0,81,false,stim,false,-1,1101.800000011921,0,0,2,53294,task2,86029,false,false,82,image-keyboard-response,2
true,1,0,0,0,true,q,false,true,0.0-2.0-0.0-0.2-3.2,0,0,0,81,false,stim,false,-1,2034.0999999940395,0,0,1,53294,task2,89584,false,false,85,image-keyboard-response,3
true,1,0,0,0,true,q,false,true,0.0-2.0-0.0-0.3-3.3,0,0,0,81,false,stim,false,-1,1053.3999999910593,0,0,1,53294,task2,92146,false,false,88,image-keyboard-response,4
true,1,1,0,2,false,d,true,false,0.0-2.0-0.0-0.4-3.4,0,0,0,90,false,stim,false,-1,893.1000000089407,0,0,0,53294,task2,94568,false,false,91,image-keyboard-response,5
true,1,0,0,0,true,q,false,true,0.0-2.0-0.0-0.5-3.5,0,0,0,81,false,stim,false,-1,740.2999999970198,0,0,2,53294,task2,96832,false,false,94,image-keyboard-response,6
true,1,2,0,2,true,d,false,true,0.0-2.0-0.0-0.6-3.6,0,0,0,68,false,stim,false,-1,1049.2000000029802,0,0,0,53294,task2,99395,false,false,97,image-keyboard-response,7
true,1,0,0,0,true,q,false,true,0.0-2.0-0.0-0.7-3.7,0,0,0,81,false,stim,false,-1,1049.5999999940395,0,0,2,53294,task2,101951,false,false,100,image-keyboard-response,8
true,1,0,0,0,true,q,false,true,0.0-2.0-0.0-0.8-3.8,0,0,0,81,false,stim,false,-1,742.8999999910593,0,0,1,53294,task2,104224,false,false,103,image-keyboard-response,9
true,1,2,0,2,true,d,false,true,0.0-2.0-0.1-0.9-3.9,0,0,0,68,false,stim,false,-1,521.7000000029802,0,0,0,53294,task2,106282,false,false,106,image-keyboard-response,10
true,1,0,0,0,true,q,false,true,0.0-2.0-0.1-0.10-3.10,0,0,0,81,false,stim,false,-1,742.0999999940395,0,0,1,53294,task2,108537,false,false,109,image-keyboard-response,11
true,1,0,0,0,true,q,false,true,0.0-2.0-0.1-0.11-3.11,0,0,0,81,false,stim,false,-1,861.0,0,0,1,53294,task2,110910,false,false,112,image-keyboard-response,12
true,1,0,0,0,true,q,false,true,0.0-2.0-0.1-0.12-3.12,0,0,0,81,false,stim,false,-1,718.0,0,0,2,53294,task2,113158,false,false,115,image-keyboard-response,13
true,1,2,0,2,true,d,false,true,0.0-2.0-0.1-0.13-3.13,0,0,0,68,false,stim,false,-1,643.5,0,0,0,53294,task2,115338,false,false,118,image-keyboard-response,14
true,1,0,0,2,false,d,true,false,0.0-2.0-0.1-0.14-3.14,0,0,0,81,false,stim,false,-1,848.7000000029802,0,0,0,53294,task2,117694,false,false,121,image-keyboard-response,15
true,1,0,0,0,true,q,false,true,0.0-2.0-0.1-0.15-3.15,0,0,0,81,false,stim,false,-1,636.0999999940395,0,0,2,53294,task2,119866,false,false,124,image-keyboard-response,16
true,1,0,0,0,true,q,false,false,0.0-2.0-0.1-0.16-3.16,0,0,0,81,false,stim,false,-1,378.20000000298023,0,0,2,53294,task2,121759,false,true,127,image-keyboard-response,17
true,1,0,0,0,true,q,false,true,0.0-2.0-0.1-0.17-3.17,0,0,0,81,false,stim,false,-1,749.9000000059605,0,0,1,53294,task2,124042,false,false,130,image-keyboard-response,18
true,1,0,0,0,true,q,false,true,0.0-2.0-0.2-0.18-3.18,0,0,0,81,false,stim,false,-1,560.5,0,0,2,53294,task2,126124,false,false,133,image-keyboard-response,19
true,1,2,0,2,true,d,false,true,0.0-2.0-0.2-0.19-3.19,0,0,0,68,false,stim,false,-1,447.6000000089407,0,0,0,53294,task2,128093,false,false,136,image-keyboard-response,20
true,1,0,0,0,true,q,false,true,0.0-2.0-0.2-0.20-3.20,0,0,0,81,false,stim,false,-1,1588.0,0,0,1,53294,task2,131217,false,false,139,image-keyboard-response,21
true,1,0,0,0,true,q,false,true,0.0-2.0-0.2-0.21-3.21,0,0,0,81,false,stim,false,-1,792.3999999910593,0,0,2,53294,task2,133533,false,false,142,image-keyboard-response,22
true,1,0,0,0,true,q,false,true,0.0-2.0-0.2-0.22-3.22,0,0,0,81,false,stim,false,-1,744.2000000029802,0,0,2,53294,task2,135806,false,false,145,image-keyboard-response,23
true,1,0,0,0,true,q,false,true,0.0-2.0-0.2-0.23-3.23,0,0,0,81,false,stim,false,-1,581.0,0,1,1,53294,task2,137924,false,false,148,image-keyboard-response,24
true,1,2,0,2,true,d,false,true,0.0-2.0-0.2-0.24-3.24,0,0,0,68,false,stim,false,-1,599.3999999910593,0,0,0,53294,task2,140049,false,false,151,image-keyboard-response,25
true,1,2,0,2,true,d,false,true,0.0-2.0-0.2-0.25-3.25,0,0,0,68,false,stim,false,-1,1011.5,0,0,0,53294,task2,142598,false,false,154,image-keyboard-response,26
true,2,0,2,0,true,q,false,true,0.0-2.0-0.2-0.26-3.26,0,1,0,81,true,stim,false,0,768.7000000029802,0,1,1,53294,task2,144893,false,false,157,image-keyboard-response,1
true,2,0,2,0,true,q,false,true,0.0-2.0-0.3-0.27-3.27,0,1,0,81,false,stim,false,0,798.5999999940395,0,1,1,53294,task2,147226,false,false,160,image-keyboard-response,2
true,2,0,2,0,true,q,false,true,0.0-2.0-0.3-0.28-3.28,0,1,0,81,false,stim,false,0,791.8999999910593,0,1,1,53294,task2,149555,false,false,163,image-keyboard-response,3
true,2,0,2,1,false,z,false,true,0.0-2.0-0.3-0.29-3.29,0,1,0,81,false,stim,true,0,755.0999999940395,0,0,2,53294,task2,151840,false,true,166,image-keyboard-response,4
true,2,2,2,1,false,z,false,false,0.0-2.0-0.3-0.30-3.30,0,1,0,68,false,stim,true,2,466.29999999701977,0,0,0,53294,task2,153839,false,false,169,image-keyboard-response,5
true,2,2,2,1,false,z,false,false,0.0-2.0-0.3-0.31-3.31,0,1,0,68,false,stim,true,2,892.5,0,0,0,53294,task2,156249,false,false,172,image-keyboard-response,6
true,2,1,2,1,true,z,false,true,0.0-2.0-0.3-0.32-3.32,0,1,0,90,false,stim,false,2,424.8999999910593,0,0,0,53294,task2,158199,false,false,175,image-keyboard-response,7
true,2,0,2,1,false,z,false,false,0.0-2.0-0.3-0.33-3.33,0,1,0,81,false,stim,true,0,608.5999999940395,0,0,2,53294,task2,160338,false,false,178,image-keyboard-response,8
true,2,0,2,0,true,q,false,true,0.0-2.0-0.3-0.34-3.34,0,1,0,81,false,stim,false,0,917.0999999940395,0,1,1,53294,task2,162784,false,false,181,image-keyboard-response,9
true,2,1,2,1,true,z,false,true,0.0-2.0-0.3-0.35-3.35,0,1,0,90,false,stim,false,0,1389.0999999940395,0,0,2,53294,task2,165694,false,false,184,image-keyboard-response,10
true,2,0,2,0,true,q,false,true,0.0-2.0-0.4-0.36-3.36,0,1,0,81,false,stim,false,0,560.7999999970198,0,1,1,53294,task2,167773,false,false,187,image-keyboard-response,11
true,2,1,2,1,true,z,false,false,0.0-2.0-0.4-0.37-3.37,0,1,0,90,false,stim,false,0,1758.5,0,0,2,53294,task2,171069,false,true,190,image-keyboard-response,12
true,2,1,2,1,true,z,false,true,0.0-2.0-0.4-0.38-3.38,0,1,0,90,false,stim,false,2,686.1999999880791,0,0,0,53294,task2,173283,false,false,193,image-keyboard-response,13
true,2,1,2,1,true,z,false,true,0.0-2.0-0.4-0.39-3.39,0,1,0,90,false,stim,false,0,417.3999999910593,0,0,2,53294,task2,175221,false,false,196,image-keyboard-response,14
true,2,0,2,0,true,q,false,true,0.0-2.0-0.4-0.40-3.40,0,1,0,81,false,stim,false,0,720.5,0,1,1,53294,task2,177478,false,false,199,image-keyboard-response,15
true,2,0,2,0,true,q,false,false,0.0-2.0-0.4-0.41-3.41,0,1,0,81,false,stim,false,0,601.7000000029802,0,1,1,53294,task2,179609,false,true,202,image-keyboard-response,16
true,2,1,2,1,true,z,false,true,0.0-2.0-0.4-0.42-3.42,0,1,0,90,false,stim,false,0,925.0999999940395,0,0,2,53294,task2,182056,false,false,205,image-keyboard-response,17
true,2,1,2,1,true,z,false,true,0.0-2.0-0.4-0.43-3.43,0,1,0,90,false,stim,false,2,1207.5,0,0,0,53294,task2,184783,false,false,208,image-keyboard-response,18
true,2,1,2,1,true,z,false,true,0.0-2.0-0.4-0.44-3.44,0,1,0,90,false,stim,false,2,1465.2000000029802,0,0,0,53294,task2,187775,false,false,211,image-keyboard-response,19
true,2,1,2,1,true,z,false,true,0.0-2.0-0.5-0.45-3.45,0,1,0,90,false,stim,false,2,622.0999999940395,0,0,0,53294,task2,189933,false,false,214,image-keyboard-response,20
true,2,1,2,1,true,z,false,true,0.0-2.0-0.5-0.46-3.46,0,1,0,90,false,stim,false,0,1097.4000000059605,0,0,2,53294,task2,192566,false,false,217,image-keyboard-response,21
true,2,1,2,0,false,q,true,false,0.0-2.0-0.5-0.47-3.47,0,1,0,90,false,stim,false,0,895.5,0,1,1,53294,task2,194991,false,false,220,image-keyboard-response,22
true,2,1,2,1,true,z,false,true,0.0-2.0-0.5-0.48-3.48,0,1,0,90,false,stim,false,0,1106.9000000059605,0,0,2,53294,task2,197613,false,false,223,image-keyboard-response,23
true,2,0,2,0,true,q,false,true,0.0-2.0-0.5-0.49-3.49,0,1,0,81,false,stim,false,0,644.2999999970198,0,1,1,53294,task2,199791,false,false,226,image-keyboard-response,24
true,2,1,2,1,true,z,false,true,0.0-2.0-0.5-0.50-3.50,0,1,0,90,false,stim,false,0,1060.300000011921,0,0,2,53294,task2,202380,false,false,229,image-keyboard-response,25
true,2,1,2,1,true,z,false,true,0.0-2.0-0.5-0.51-3.51,0,1,0,90,false,stim,false,2,1155.7000000029802,0,0,0,53294,task2,205073,false,false,232,image-keyboard-response,26
true,2,1,2,1,true,z,false,false,0.0-2.0-0.5-0.52-3.52,0,1,0,90,false,stim,false,2,650.8999999910593,0,0,0,53294,task2,207253,false,true,235,image-keyboard-response,27
true,2,1,2,0,false,q,true,false,0.0-2.0-0.5-0.53-3.53,0,1,0,90,false,stim,false,0,933.8999999910593,0,1,1,53294,task2,209692,false,false,238,image-keyboard-response,28
true,2,0,2,1,false,z,false,true,0.0-2.0-0.6-0.54-3.54,0,1,0,81,false,stim,true,0,588.1000000089407,0,0,2,53294,task2,211817,false,true,241,image-keyboard-response,29
true,2,2,2,0,false,q,true,false,0.0-2.0-0.6-0.55-3.55,0,1,0,68,false,stim,false,0,916.5,0,0,1,53294,task2,214257,false,false,244,image-keyboard-response,30
true,2,0,2,0,true,q,false,true,0.0-2.0-0.6-0.56-3.56,0,1,0,81,false,stim,false,0,483.70000000298023,0,0,1,53294,task2,216272,false,false,247,image-keyboard-response,31
true,2,0,2,0,true,q,false,true,0.0-2.0-0.6-0.57-3.57,0,1,0,81,false,stim,false,0,1032.0,0,0,1,53294,task2,218840,false,false,250,image-keyboard-response,32
true,2,0,2,1,false,z,true,false,0.0-2.0-0.6-0.58-3.58,0,1,0,81,false,stim,false,2,1318.7999999970198,0,1,0,53294,task2,221680,false,false,253,image-keyboard-response,33
true,3,0,2,0,true,q,false,false,0.0-2.0-0.6-0.59-3.59,1,0,0,81,true,stim,false,1,811.8000000119209,0,0,2,53294,task2,224028,false,true,256,image-keyboard-response,1
true,3,1,2,0,false,q,false,false,0.0-2.0-0.6-0.60-3.60,1,0,0,90,false,stim,true,1,1279.2999999970198,0,0,2,53294,task2,226823,false,false,259,image-keyboard-response,2
true,3,2,2,1,false,z,true,false,0.0-2.0-0.6-0.61-3.61,1,0,0,68,false,stim,false,1,1642.2000000029802,0,1,0,53294,task2,229988,false,false,262,image-keyboard-response,3
true,3,0,2,1,false,z,true,false,0.0-2.0-0.6-0.62-3.62,1,0,0,81,false,stim,false,1,519.4000000059605,0,1,0,53294,task2,232036,false,false,265,image-keyboard-response,4
true,3,1,2,1,true,z,false,true,0.0-2.0-0.7-0.63-3.63,1,0,0,90,false,stim,false,1,391.20000000298023,0,1,0,53294,task2,233959,false,false,268,image-keyboard-response,5
true,3,1,2,0,false,q,false,false,0.0-2.0-0.7-0.64-3.64,1,0,0,90,false,stim,true,1,1085.2999999970198,0,0,2,53294,task2,236569,false,false,271,image-keyboard-response,6
true,3,1,2,1,true,z,false,true,0.0-2.0-0.7-0.65-3.65,1,0,0,90,false,stim,false,1,934.7000000029802,0,1,0,53294,task2,239024,false,false,274,image-keyboard-response,7
true,3,0,2,2,false,d,false,false,0.0-2.0-0.7-0.66-3.66,1,0,0,81,false,stim,true,0,805.5,0,0,1,53294,task2,241343,false,false,277,image-keyboard-response,8
true,3,2,2,0,false,q,true,true,0.0-2.0-0.7-0.67-3.67,1,0,0,68,false,stim,false,1,1357.2000000029802,0,0,2,53294,task2,244233,false,true,280,image-keyboard-response,9
true,3,1,2,1,true,z,false,false,0.0-2.0-0.7-0.68-3.68,1,0,0,90,false,stim,false,1,815.0,0,1,0,53294,task2,246577,false,true,283,image-keyboard-response,10
true,3,2,2,0,false,q,true,false,0.0-2.0-0.7-0.69-3.69,1,0,0,68,false,stim,false,1,778.0,0,0,2,53294,task2,248892,false,false,286,image-keyboard-response,11
true,3,1,2,2,false,d,true,false,0.0-2.0-0.7-0.70-3.70,1,0,0,90,false,stim,false,0,929.8000000119209,0,0,1,53294,task2,251330,false,false,289,image-keyboard-response,12
true,3,0,2,2,false,d,false,false,0.0-2.0-0.7-0.71-3.71,1,0,0,81,false,stim,true,0,827.8999999910593,0,0,1,53294,task2,253667,false,false,292,image-keyboard-response,13
true,3,2,2,2,true,d,false,true,0.0-2.0-0.8-0.72-3.72,1,0,0,68,false,stim,false,0,640.7999999970198,0,0,1,53294,task2,255822,false,false,295,image-keyboard-response,14
true,3,2,2,2,true,d,false,true,0.0-2.0-0.8-0.73-3.73,1,0,0,68,false,stim,false,0,630.7000000029802,0,0,1,53294,task2,257960,false,false,298,image-keyboard-response,15
true,3,1,2,1,true,z,false,false,0.0-2.0-0.8-0.74-3.74,1,0,0,90,false,stim,false,1,1023.5,0,1,0,53294,task2,260507,false,true,301,image-keyboard-response,16
true,3,0,2,0,true,q,false,true,0.0-2.0-0.8-0.75-3.75,1,0,0,81,false,stim,false,1,1569.3999999910593,0,0,2,53294,task2,263607,false,false,304,image-keyboard-response,17
true,3,0,2,0,true,q,false,true,0.0-2.0-0.8-0.76-3.76,1,0,0,81,false,stim,false,1,676.2999999970198,0,0,2,53294,task2,265806,false,false,307,image-keyboard-response,18
true,3,0,2,1,false,z,true,false,0.0-2.0-0.8-0.77-3.77,1,0,0,81,false,stim,false,1,1085.2000000029802,0,1,0,53294,task2,268420,false,false,310,image-keyboard-response,19
true,3,2,2,2,true,d,false,true,0.0-2.0-0.8-0.78-3.78,1,0,0,68,false,stim,false,0,717.7999999970198,0,0,1,53294,task2,270667,false,false,313,image-keyboard-response,20
true,3,2,2,1,false,z,true,false,0.0-2.0-0.8-0.79-3.79,1,0,0,68,false,stim,false,1,454.09999999403954,0,1,0,53294,task2,272642,false,false,316,image-keyboard-response,21
true,3,0,2,0,true,q,false,true,0.0-2.0-0.8-0.80-3.80,1,0,0,81,false,stim,false,1,937.5,0,0,2,53294,task2,275100,false,false,319,image-keyboard-response,22
true,3,2,2,2,true,d,false,true,0.0-2.0-0.9-0.81-3.81,1,0,0,68,false,stim,false,0,886.6999999880791,0,0,1,53294,task2,277517,false,false,322,image-keyboard-response,23
true,3,1,2,1,true,z,false,true,0.0-2.0-0.9-0.82-3.82,1,0,0,90,false,stim,false,1,833.0,0,1,0,53294,task2,279878,false,false,325,image-keyboard-response,24
true,3,0,2,0,true,q,false,true,0.0-2.0-0.9-0.83-3.83,1,0,0,81,false,stim,false,1,868.2999999970198,0,0,2,53294,task2,282266,false,false,328,image-keyboard-response,25
true,3,1,2,1,true,z,false,true,0.0-2.0-0.9-0.84-3.84,1,0,0,90,false,stim,false,1,644.2000000029802,0,1,0,53294,task2,284432,false,false,331,image-keyboard-response,26
true,3,2,2,0,false,q,true,false,0.0-2.0-0.9-0.85-3.85,1,0,0,68,false,stim,false,1,534.2999999970198,0,0,2,53294,task2,286489,false,false,334,image-keyboard-response,27
true,3,1,2,1,true,z,false,true,0.0-2.0-0.9-0.86-3.86,1,0,0,90,false,stim,false,1,864.9000000059605,0,1,0,53294,task2,288883,false,false,337,image-keyboard-response,28
true,3,2,2,2,true,d,false,true,0.0-2.0-0.9-0.87-3.87,1,0,0,68,false,stim,false,0,716.0,0,0,1,53294,task2,291135,false,false,340,image-keyboard-response,29
true,3,2,2,2,true,d,false,true,0.0-2.0-0.9-0.88-3.88,1,0,0,68,false,stim,false,0,780.7000000029802,0,0,1,53294,task2,293431,false,false,343,image-keyboard-response,30
true,3,0,2,0,true,q,false,false,0.0-2.0-0.9-0.89-3.89,1,0,0,81,false,stim,false,1,604.7999999970198,0,1,2,53294,task2,295559,false,true,346,image-keyboard-response,31
true,3,0,2,0,true,q,false,true,0.0-2.0-0.10-0.90-3.90,1,0,0,81,false,stim,false,1,642.7999999970198,0,1,2,53294,task2,297735,false,false,349,image-keyboard-response,32
true,3,0,2,0,true,q,false,true,0.0-2.0-0.10-0.91-3.91,1,0,0,81,false,stim,false,1,692.9000000059605,0,1,2,53294,task2,299954,false,false,352,image-keyboard-response,33
true,4,1,2,0,false,q,false,false,0.0-2.0-0.10-0.92-3.92,0,0,1,90,true,stim,true,1,597.6000000089407,0,0,0,53294,task2,302088,false,false,355,image-keyboard-response,1
true,4,1,2,0,false,q,false,false,0.0-2.0-0.10-0.93-3.93,0,0,1,90,false,stim,true,1,359.8999999910593,0,0,0,53294,task2,303969,false,false,358,image-keyboard-response,2
true,4,2,2,1,false,z,false,false,0.0-2.0-0.10-0.94-3.94,0,0,1,68,false,stim,true,2,569.2000000029802,0,0,1,53294,task2,306057,false,false,361,image-keyboard-response,3
true,4,1,2,1,true,z,false,true,0.0-2.0-0.10-0.95-3.95,0,0,1,90,false,stim,false,2,828.7999999970198,0,0,1,53294,task2,308402,false,false,364,image-keyboard-response,4
true,4,1,2,1,true,z,false,true,0.0-2.0-0.10-0.96-3.96,0,0,1,90,false,stim,false,2,674.0999999940395,0,0,1,53294,task2,310602,false,false,367,image-keyboard-response,5
true,4,2,2,0,false,q,true,false,0.0-2.0-0.10-0.97-3.97,0,0,1,68,false,stim,false,1,1020.7999999970198,0,0,0,53294,task2,313150,false,false,370,image-keyboard-response,6
true,4,0,2,0,true,q,false,true,0.0-2.0-0.10-0.98-3.98,0,0,1,81,false,stim,false,0,1246.5999999940395,0,1,2,53294,task2,315929,false,false,373,image-keyboard-response,7
true,4,2,2,0,false,q,true,false,0.0-2.0-0.11-0.99-3.99,0,0,1,68,false,stim,false,1,1930.5999999940395,0,0,0,53294,task2,319387,false,false,376,image-keyboard-response,8
true,4,1,2,0,false,q,false,false,0.0-2.0-0.11-0.100-3.100,0,0,1,90,false,stim,true,1,419.5,0,0,0,53294,task2,321341,false,false,379,image-keyboard-response,9
true,4,1,2,1,true,z,false,true,0.0-2.0-0.11-0.101-3.101,0,0,1,90,false,stim,false,2,1475.5,0,0,1,53294,task2,324338,false,false,382,image-keyboard-response,10
true,4,0,2,0,true,q,false,true,0.0-2.0-0.11-0.102-3.102,0,0,1,81,false,stim,false,0,525.7000000029802,0,1,2,53294,task2,326379,false,false,385,image-keyboard-response,11
true,4,1,2,1,true,z,false,true,0.0-2.0-0.11-0.103-3.103,0,0,1,90,false,stim,false,2,2020.7999999970198,0,0,1,53294,task2,329928,false,false,388,image-keyboard-response,12
true,4,1,2,1,true,z,false,true,0.0-2.0-0.11-0.104-3.104,0,0,1,90,false,stim,false,2,1192.0999999940395,0,0,1,53294,task2,332649,false,false,391,image-keyboard-response,13
true,4,0,2,0,true,q,false,true,0.0-2.0-0.11-0.105-3.105,0,0,1,81,false,stim,false,0,579.2999999970198,0,1,2,53294,task2,334747,false,false,394,image-keyboard-response,14
true,4,0,2,0,true,q,false,true,0.0-2.0-0.11-0.106-3.106,0,0,1,81,false,stim,false,0,1225.4000000059605,0,1,2,53294,task2,337509,false,false,397,image-keyboard-response,15
true,4,0,2,0,true,q,false,true,0.0-2.0-0.11-0.107-3.107,0,0,1,81,false,stim,false,1,627.2999999970198,0,0,0,53294,task2,339652,false,false,400,image-keyboard-response,16
true,4,0,2,0,true,q,false,true,0.0-2.0-0.12-0.108-3.108,0,0,1,81,false,stim,false,1,902.1999999880791,0,0,0,53294,task2,342071,false,false,403,image-keyboard-response,17
true,4,1,2,1,true,z,false,true,0.0-2.0-0.12-0.109-3.109,0,0,1,90,false,stim,false,2,1147.9000000059605,0,0,1,53294,task2,344746,false,false,406,image-keyboard-response,18
true,4,1,2,1,true,z,false,true,0.0-2.0-0.12-0.110-3.110,0,0,1,90,false,stim,false,2,2714.6000000089407,0,0,1,53294,task2,348982,false,false,409,image-keyboard-response,19
true,4,0,2,0,true,q,false,true,0.0-2.0-0.12-0.111-3.111,0,0,1,81,false,stim,false,1,483.0,0,0,0,53294,task2,350975,false,false,412,image-keyboard-response,20
true,4,0,2,0,true,q,false,true,0.0-2.0-0.12-0.112-3.112,0,0,1,81,false,stim,false,0,917.7000000029802,0,1,2,53294,task2,353409,false,false,415,image-keyboard-response,21
true,4,0,2,0,true,q,false,false,0.0-2.0-0.12-0.113-3.113,0,0,1,81,false,stim,false,0,633.0,0,1,2,53294,task2,355578,false,true,418,image-keyboard-response,22
true,4,1,2,1,true,z,false,true,0.0-2.0-0.12-0.114-3.114,0,0,1,90,false,stim,false,2,2012.8999999910593,0,0,1,53294,task2,359128,false,false,421,image-keyboard-response,23
true,4,0,2,0,true,q,false,true,0.0-2.0-0.12-0.115-3.115,0,0,1,81,false,stim,false,1,661.7000000029802,0,0,0,53294,task2,361321,false,false,424,image-keyboard-response,24
true,4,0,2,0,true,q,false,true,0.0-2.0-0.12-0.116-3.116,0,0,1,81,false,stim,false,0,721.9000000059605,0,1,2,53294,task2,363564,false,false,427,image-keyboard-response,25
true,4,0,2,0,true,q,false,true,0.0-2.0-0.13-0.117-3.117,0,0,1,81,false,stim,false,1,974.5,0,0,0,53294,task2,366072,false,false,430,image-keyboard-response,26
true,4,0,2,0,true,q,false,true,0.0-2.0-0.13-0.118-3.118,0,0,1,81,false,stim,false,1,749.4000000059605,0,0,0,53294,task2,368351,false,false,433,image-keyboard-response,27
true,4,0,2,0,true,q,false,true,0.0-2.0-0.13-0.119-3.119,0,0,1,81,false,stim,false,0,875.1999999880791,0,0,2,53294,task2,370750,false,false,436,image-keyboard-response,28
true,4,0,2,0,true,q,false,true,0.0-2.0-0.13-0.120-3.120,0,0,1,81,false,stim,false,1,626.9000000059605,0,1,0,53294,task2,372906,false,false,439,image-keyboard-response,29
true,4,0,2,0,true,q,false,true,0.0-2.0-0.13-0.121-3.121,0,0,1,81,false,stim,false,0,543.2999999970198,0,0,2,53294,task2,374970,false,false,442,image-keyboard-response,30
true,4,1,2,1,true,z,false,true,0.0-2.0-0.13-0.122-3.122,0,0,1,90,false,stim,false,2,1893.7000000029802,0,0,1,53294,task2,378393,false,false,445,image-keyboard-response,31
true,4,0,2,0,true,q,false,false,0.0-2.0-0.13-0.123-3.123,0,0,1,81,false,stim,false,0,1219.5,0,0,2,53294,task2,381139,false,true,448,image-keyboard-response,32
true,5,1,2,2,false,d,false,false,0.0-2.0-0.13-0.124-3.124,1,0,0,90,true,stim,true,1,1062.6000000089407,0,0,1,53294,task2,383739,false,false,451,image-keyboard-response,1
true,5,2,2,2,true,d,false,true,0.0-2.0-0.13-0.125-3.125,1,0,0,68,false,stim,false,1,1545.0,0,0,1,53294,task2,386820,false,false,454,image-keyboard-response,2
true,5,1,2,1,true,z,false,true,0.0-2.0-0.14-0.126-3.126,1,0,0,90,false,stim,false,0,1231.0999999940395,0,0,2,53294,task2,389564,false,false,457,image-keyboard-response,3
true,5,2,2,2,true,d,false,true,0.0-2.0-0.14-0.127-3.127,1,0,0,68,false,stim,false,1,1265.7000000029802,0,0,1,53294,task2,392345,false,false,460,image-keyboard-response,4
true,5,2,2,2,true,d,false,true,0.0-2.0-0.14-0.128-3.128,1,0,0,68,false,stim,false,1,644.8000000119209,0,0,1,53294,task2,394510,false,false,463,image-keyboard-response,5
true,5,0,2,0,true,q,false,true,0.0-2.0-0.14-0.129-3.129,1,0,0,81,false,stim,false,0,697.4000000059605,0,1,0,53294,task2,396720,false,false,466,image-keyboard-response,6
true,5,0,2,0,true,q,false,true,0.0-2.0-0.14-0.130-3.130,1,0,0,81,false,stim,false,0,900.0,0,1,0,53294,task2,399148,false,false,469,image-keyboard-response,7
true,5,2,2,2,true,d,false,true,0.0-2.0-0.14-0.131-3.131,1,0,0,68,false,stim,false,1,665.7000000029802,0,0,1,53294,task2,401341,false,false,472,image-keyboard-response,8
true,5,1,2,1,true,z,false,true,0.0-2.0-0.14-0.132-3.132,1,0,0,90,false,stim,false,0,2079.2999999970198,0,0,2,53294,task2,404936,false,false,475,image-keyboard-response,9
true,5,0,2,0,true,q,false,true,0.0-2.0-0.14-0.133-3.133,1,0,0,81,false,stim,false,0,472.70000000298023,0,1,0,53294,task2,406938,false,false,478,image-keyboard-response,10
true,5,1,2,1,true,z,false,true,0.0-2.0-0.14-0.134-3.134,1,0,0,90,false,stim,false,0,674.6999999880791,0,0,2,53294,task2,409126,false,false,481,image-keyboard-response,11
true,5,0,2,0,true,q,false,true,0.0-2.0-0.15-0.135-3.135,1,0,0,81,false,stim,false,0,1002.4000000059605,0,1,0,53294,task2,411649,false,false,484,image-keyboard-response,12
true,5,2,2,2,true,d,false,true,0.0-2.0-0.15-0.136-3.136,1,0,0,68,false,stim,false,1,1059.0,0,0,1,53294,task2,414224,false,false,487,image-keyboard-response,13
true,5,0,2,0,true,q,false,true,0.0-2.0-0.15-0.137-3.137,1,0,0,81,false,stim,false,0,853.0999999940395,0,1,0,53294,task2,416593,false,false,490,image-keyboard-response,14
true,5,1,2,1,true,z,false,true,0.0-2.0-0.15-0.138-3.138,1,0,0,90,false,stim,false,0,846.5999999940395,0,0,2,53294,task2,418959,false,false,493,image-keyboard-response,15
true,5,2,2,2,true,d,false,true,0.0-2.0-0.15-0.139-3.139,1,0,0,68,false,stim,false,1,887.8000000119209,0,0,1,53294,task2,421370,false,false,496,image-keyboard-response,16
true,5,2,2,2,true,d,false,true,0.0-2.0-0.15-0.140-3.140,1,0,0,68,false,stim,false,1,1495.2999999970198,0,0,1,53294,task2,424389,false,false,499,image-keyboard-response,17
true,5,1,2,1,true,z,false,false,0.0-2.0-0.15-0.141-3.141,1,0,0,90,false,stim,false,0,839.1000000089407,0,0,2,53294,task2,426750,false,true,502,image-keyboard-response,18
true,5,0,2,0,true,q,false,true,0.0-2.0-0.15-0.142-3.142,1,0,0,81,false,stim,false,0,446.5,0,1,0,53294,task2,428720,false,false,505,image-keyboard-response,19
true,5,1,2,1,true,z,false,true,0.0-2.0-0.15-0.143-3.143,1,0,0,90,false,stim,false,0,433.80000001192093,0,0,2,53294,task2,430668,false,false,508,image-keyboard-response,20
true,5,1,2,1,true,z,false,true,0.0-2.0-0.16-0.144-3.144,1,0,0,90,false,stim,false,0,849.5999999940395,0,0,2,53294,task2,433031,false,false,511,image-keyboard-response,21
true,5,2,2,2,true,d,false,true,0.0-2.0-0.16-0.145-3.145,1,0,0,68,false,stim,false,1,909.3999999910593,0,0,1,53294,task2,435456,false,false,514,image-keyboard-response,22
true,5,2,2,2,true,d,false,true,0.0-2.0-0.16-0.146-3.146,1,0,0,68,false,stim,false,1,457.79999999701977,0,0,1,53294,task2,437430,false,false,517,image-keyboard-response,23
true,5,0,2,0,true,q,false,true,0.0-2.0-0.16-0.147-3.147,1,0,0,81,false,stim,false,0,724.5,0,1,0,53294,task2,439666,false,false,520,image-keyboard-response,24
true,5,1,2,1,true,z,false,true,0.0-2.0-0.16-0.148-3.148,1,0,0,90,false,stim,false,0,769.3999999910593,0,0,2,53294,task2,441954,false,false,523,image-keyboard-response,25
true,5,0,2,0,true,q,false,true,0.0-2.0-0.16-0.149-3.149,1,0,0,81,false,stim,false,0,769.7999999970198,0,1,0,53294,task2,444238,false,false,526,image-keyboard-response,26
true,5,0,2,0,true,q,false,true,0.0-2.0-0.16-0.150-3.150,1,0,0,81,false,stim,false,0,939.4000000059605,0,1,0,53294,task2,446683,false,false,529,image-keyboard-response,27
true,5,1,2,1,true,z,false,true,0.0-2.0-0.16-0.151-3.151,1,0,0,90,false,stim,false,0,524.3999999910593,0,0,2,53294,task2,448715,false,false,532,image-keyboard-response,28
true,5,2,2,2,true,d,false,true,0.0-2.0-0.16-0.152-3.152,1,0,0,68,false,stim,false,1,761.0,0,0,1,53294,task2,451004,false,false,535,image-keyboard-response,29
true,5,1,2,1,true,z,false,true,0.0-2.0-0.17-0.153-3.153,1,0,0,90,false,stim,false,0,1276.5,0,0,2,53294,task2,453797,false,false,538,image-keyboard-response,30
true,5,1,2,1,true,z,false,true,0.0-2.0-0.17-0.154-3.154,1,0,0,90,false,stim,false,0,871.0999999940395,0,0,2,53294,task2,456190,false,false,541,image-keyboard-response,31
true,5,2,2,2,true,d,false,true,0.0-2.0-0.17-0.155-3.155,1,0,0,68,false,stim,false,1,896.0999999940395,0,0,1,53294,task2,458603,false,false,544,image-keyboard-response,32
true,5,0,2,0,true,q,false,true,0.0-2.0-0.17-0.156-3.156,1,0,0,81,false,stim,false,0,970.5999999940395,0,0,0,53294,task2,461095,false,false,547,image-keyboard-response,33
true,5,2,2,2,true,d,false,true,0.0-2.0-0.17-0.157-3.157,1,0,0,68,false,stim,false,1,873.4000000059605,0,0,1,53294,task2,463488,false,false,550,image-keyboard-response,34
true,6,1,1,0,false,q,false,false,0.0-2.0-0.17-0.158-3.158,0,0,0,90,true,stim,true,1,408.30000001192093,0,0,2,53294,task2,465406,false,false,553,image-keyboard-response,1
true,6,0,1,2,false,d,false,false,0.0-2.0-0.17-0.159-3.159,0,0,0,81,false,stim,true,0,1152.7000000029802,0,0,0,53294,task2,468085,false,false,556,image-keyboard-response,2
true,6,2,1,1,false,z,false,false,0.0-2.0-0.17-0.160-3.160,0,0,0,68,false,stim,true,2,1418.2000000029802,0,0,1,53294,task2,471031,false,false,559,image-keyboard-response,3
true,6,1,1,2,false,d,true,false,0.0-2.0-0.17-0.161-3.161,0,0,0,90,false,stim,false,0,614.4000000059605,0,0,0,53294,task2,473161,false,false,562,image-keyboard-response,4
true,6,2,1,0,false,q,true,false,0.0-2.0-0.18-0.162-3.162,0,0,0,68,false,stim,false,1,1640.7000000029802,0,0,2,53294,task2,476322,false,false,565,image-keyboard-response,5
true,6,1,1,1,true,z,false,false,0.0-2.0-0.18-0.163-3.163,0,0,0,90,false,stim,false,2,1532.300000011921,0,0,1,53294,task2,479386,false,true,568,image-keyboard-response,6
true,6,0,1,1,false,z,true,false,0.0-2.0-0.18-0.164-3.164,0,0,0,81,false,stim,false,2,1052.2000000029802,0,0,1,53294,task2,481955,false,false,571,image-keyboard-response,7
true,6,1,1,1,true,z,false,true,0.0-2.0-0.18-0.165-3.165,0,0,0,90,false,stim,false,2,1658.7999999970198,0,0,1,53294,task2,485129,false,false,574,image-keyboard-response,8
true,6,1,1,2,false,d,true,false,0.0-2.0-0.18-0.166-3.166,0,0,0,90,false,stim,false,0,1315.800000011921,0,0,0,53294,task2,487964,false,false,577,image-keyboard-response,9
true,6,1,1,0,false,q,false,false,0.0-2.0-0.18-0.167-3.167,0,0,0,90,false,stim,true,1,1194.300000011921,0,0,2,53294,task2,490671,false,false,580,image-keyboard-response,10
true,6,2,1,0,false,q,true,false,0.0-2.0-0.18-0.168-3.168,0,0,0,68,false,stim,false,1,886.9000000059605,0,0,2,53294,task2,493091,false,false,583,image-keyboard-response,11
true,6,2,1,2,true,d,false,true,0.0-2.0-0.18-0.169-3.169,0,0,0,68,false,stim,false,0,1723.199999988079,0,0,0,53294,task2,496327,false,false,586,image-keyboard-response,12
true,6,2,1,2,true,d,false,true,0.0-2.0-0.18-0.170-3.170,0,0,0,68,false,stim,false,0,1023.3999999910593,0,0,0,53294,task2,498870,false,false,589,image-keyboard-response,13
true,6,2,1,2,true,d,false,true,0.0-2.0-0.19-0.171-3.171,0,0,0,68,false,stim,false,0,743.7000000029802,0,0,0,53294,task2,501129,false,false,592,image-keyboard-response,14
true,6,2,1,2,true,d,false,true,0.0-2.0-0.19-0.172-3.172,0,0,0,68,false,stim,false,0,478.0,0,0,0,53294,task2,503138,false,false,595,image-keyboard-response,15
true,6,0,1,0,true,q,false,true,0.0-2.0-0.19-0.173-3.173,0,0,0,81,false,stim,false,1,1495.2999999970198,0,0,2,53294,task2,506145,false,false,598,image-keyboard-response,16
true,6,0,1,0,true,q,false,true,0.0-2.0-0.19-0.174-3.174,0,0,0,81,false,stim,false,1,767.2999999970198,0,0,2,53294,task2,508436,false,false,601,image-keyboard-response,17
true,6,1,1,1,true,z,false,true,0.0-2.0-0.19-0.175-3.175,0,0,0,90,false,stim,false,2,849.0,0,0,1,53294,task2,510805,false,false,604,image-keyboard-response,18
true,6,2,1,2,true,d,false,true,0.0-2.0-0.19-0.176-3.176,0,0,0,68,false,stim,false,0,678.5,0,0,0,53294,task2,513001,false,false,607,image-keyboard-response,19
true,6,1,1,1,true,z,false,true,0.0-2.0-0.19-0.177-3.177,0,0,0,90,false,stim,false,2,1164.7999999970198,0,0,1,53294,task2,515687,false,false,610,image-keyboard-response,20
true,6,0,1,0,true,q,false,true,0.0-2.0-0.19-0.178-3.178,0,0,0,81,false,stim,false,1,1009.2000000029802,0,0,2,53294,task2,518205,false,false,613,image-keyboard-response,21
true,6,1,1,1,true,z,false,true,0.0-2.0-0.19-0.179-3.179,0,0,0,90,false,stim,false,2,951.2000000029802,0,0,1,53294,task2,520665,false,false,616,image-keyboard-response,22
true,6,1,1,1,true,z,false,true,0.0-2.0-0.20-0.180-3.180,0,0,0,90,false,stim,false,2,649.7000000029802,0,0,1,53294,task2,522837,false,false,619,image-keyboard-response,23
true,6,1,1,1,true,z,false,true,0.0-2.0-0.20-0.181-3.181,0,0,0,90,false,stim,false,2,696.6999999880791,0,0,1,53294,task2,525061,false,false,622,image-keyboard-response,24
true,6,2,1,2,true,d,false,true,0.0-2.0-0.20-0.182-3.182,0,0,0,68,false,stim,false,0,677.7000000029802,0,0,0,53294,task2,527246,false,false,625,image-keyboard-response,25
true,6,0,1,0,true,q,false,true,0.0-2.0-0.20-0.183-3.183,0,0,0,81,false,stim,false,1,839.9000000059605,0,0,2,53294,task2,529613,false,false,628,image-keyboard-response,26
true,6,0,1,0,true,q,false,true,0.0-2.0-0.20-0.184-3.184,0,0,0,81,false,stim,false,1,1001.4000000059605,0,0,2,53294,task2,532143,false,false,631,image-keyboard-response,27
true,6,1,1,1,true,z,false,true,0.0-2.0-0.20-0.185-3.185,0,0,0,90,false,stim,false,2,897.9000000059605,0,0,1,53294,task2,534565,false,false,634,image-keyboard-response,28
true,6,2,1,2,true,d,false,true,0.0-2.0-0.20-0.186-3.186,0,0,0,68,false,stim,false,0,1366.7000000029802,0,0,0,53294,task2,537461,false,false,637,image-keyboard-response,29
true,6,0,1,0,true,q,false,true,0.0-2.0-0.20-0.187-3.187,0,0,0,81,false,stim,false,1,1254.9000000059605,0,0,2,53294,task2,540249,false,false,640,image-keyboard-response,30
true,6,2,1,2,true,d,false,true,0.0-2.0-0.20-0.188-3.188,0,0,0,68,false,stim,false,0,2322.5999999940395,0,0,0,53294,task2,544093,false,false,643,image-keyboard-response,31
true,6,0,1,0,true,q,false,true,0.0-2.0-0.21-0.189-3.189,0,0,0,81,false,stim,false,1,996.8999999910593,0,0,2,53294,task2,546605,false,false,646,image-keyboard-response,32
true,6,0,1,0,true,q,false,true,0.0-2.0-0.21-0.190-3.190,0,0,0,81,false,stim,false,1,770.3999999910593,0,0,2,53294,task2,548892,false,false,649,image-keyboard-response,33
true,6,1,1,1,true,z,false,true,0.0-2.0-0.21-0.191-3.191,0,0,0,90,false,stim,false,2,688.2999999970198,0,0,1,53294,task2,551104,false,false,652,image-keyboard-response,34
true,6,0,1,0,true,q,false,true,0.0-2.0-0.21-0.192-3.192,0,0,0,81,false,stim,false,1,889.7999999970198,0,0,2,53294,task2,553523,false,false,655,image-keyboard-response,35
true,7,2,1,0,false,q,false,false,0.0-2.0-0.21-0.193-3.193,0,0,0,68,true,stim,true,2,1403.5,0,0,0,53294,task2,556436,false,false,658,image-keyboard-response,1
true,7,1,1,0,false,q,false,false,0.0-2.0-0.21-0.194-3.194,0,0,0,90,false,stim,true,1,1290.2999999970198,0,0,1,53294,task2,559252,false,false,661,image-keyboard-response,2
true,7,2,1,0,false,q,false,true,0.0-2.0-0.21-0.195-3.195,0,0,0,68,false,stim,true,2,904.7000000029802,0,0,0,53294,task2,561665,false,true,664,image-keyboard-response,3
true,7,1,1,0,false,q,false,false,0.0-2.0-0.21-0.196-3.196,0,0,0,90,false,stim,true,1,466.5,0,0,1,53294,task2,563644,false,false,667,image-keyboard-response,4
true,7,2,1,0,false,q,false,false,0.0-2.0-0.21-0.197-3.197,0,0,0,68,false,stim,true,2,822.0,0,0,0,53294,task2,565993,false,false,670,image-keyboard-response,5
true,7,0,1,1,false,z,false,false,0.0-2.0-0.22-0.198-3.198,0,0,0,81,false,stim,true,0,872.0999999940395,0,0,2,53294,task2,568377,false,false,673,image-keyboard-response,6
true,7,0,1,0,true,q,false,false,0.0-2.0-0.22-0.199-3.199,0,0,0,81,false,stim,false,2,1117.5999999940395,0,0,0,53294,task2,571012,false,true,676,image-keyboard-response,7
true,7,0,1,0,true,q,false,true,0.0-2.0-0.22-0.200-3.200,0,0,0,81,false,stim,false,1,1332.5,0,0,1,53294,task2,573866,false,false,679,image-keyboard-response,8
true,7,1,1,0,false,q,true,false,0.0-2.0-0.22-0.201-3.201,0,0,0,90,false,stim,false,2,875.0999999940395,0,0,0,53294,task2,576274,false,false,682,image-keyboard-response,9
true,7,1,1,1,true,z,false,true,0.0-2.0-0.22-0.202-3.202,0,0,0,90,false,stim,false,0,1603.0,0,0,2,53294,task2,579391,false,false,685,image-keyboard-response,10
true,7,2,1,0,false,q,false,false,0.0-2.0-0.22-0.203-3.203,0,0,0,68,false,stim,true,2,618.6000000089407,0,0,0,53294,task2,581535,false,false,688,image-keyboard-response,11
true,7,0,1,1,false,z,false,false,0.0-2.0-0.22-0.204-3.204,0,0,0,81,false,stim,true,0,1212.0,0,0,2,53294,task2,584260,false,false,691,image-keyboard-response,12
true,7,0,1,0,true,q,false,true,0.0-2.0-0.22-0.205-3.205,0,0,0,81,false,stim,false,1,917.0,0,0,1,53294,task2,586684,false,false,694,image-keyboard-response,13
true,7,0,1,0,true,q,false,true,0.0-2.0-0.22-0.206-3.206,0,0,0,81,false,stim,false,1,518.5,0,0,1,53294,task2,588738,false,false,697,image-keyboard-response,14
true,7,0,1,0,true,q,false,true,0.0-2.0-0.23-0.207-3.207,0,0,0,81,false,stim,false,2,1865.8999999910593,0,0,0,53294,task2,592131,false,false,700,image-keyboard-response,15
true,7,1,1,0,false,q,false,false,0.0-2.0-0.23-0.208-3.208,0,0,0,90,false,stim,true,1,2286.2999999970198,0,0,1,53294,task2,595939,false,false,703,image-keyboard-response,16
true,7,1,1,1,true,z,false,false,0.0-2.0-0.23-0.209-3.209,0,0,0,90,false,stim,false,0,957.7000000029802,0,0,2,53294,task2,598407,false,true,706,image-keyboard-response,17
true,7,0,1,0,true,q,false,true,0.0-2.0-0.23-0.210-3.210,0,0,0,81,false,stim,false,2,724.6999999880791,0,0,0,53294,task2,600650,false,false,709,image-keyboard-response,18
true,7,1,1,1,true,z,false,true,0.0-2.0-0.23-0.211-3.211,0,0,0,90,false,stim,false,0,1134.7000000029802,0,0,2,53294,task2,603309,false,false,712,image-keyboard-response,19
true,7,0,1,0,true,q,false,true,0.0-2.0-0.23-0.212-3.212,0,0,0,81,false,stim,false,1,989.0,0,0,1,53294,task2,605826,false,false,715,image-keyboard-response,20
true,7,0,1,0,true,q,false,true,0.0-2.0-0.23-0.213-3.213,0,0,0,81,false,stim,false,2,1117.8999999910593,0,0,0,53294,task2,608465,false,false,718,image-keyboard-response,21
true,7,0,1,0,true,q,false,true,0.0-2.0-0.23-0.214-3.214,0,0,0,81,false,stim,false,1,818.0999999940395,0,0,1,53294,task2,610807,false,false,721,image-keyboard-response,22
true,7,1,1,1,true,z,false,true,0.0-2.0-0.23-0.215-3.215,0,0,0,90,false,stim,false,0,1091.3999999910593,0,0,2,53294,task2,613415,false,false,724,image-keyboard-response,23
true,7,0,1,0,true,q,false,true,0.0-2.0-0.24-0.216-3.216,0,0,0,81,false,stim,false,1,732.3999999910593,0,0,1,53294,task2,615668,false,false,727,image-keyboard-response,24
true,7,1,1,1,true,z,false,true,0.0-2.0-0.24-0.217-3.217,0,0,0,90,false,stim,false,0,1167.2999999970198,0,0,2,53294,task2,618348,false,false,730,image-keyboard-response,25
true,7,1,1,1,true,z,false,true,0.0-2.0-0.24-0.218-3.218,0,0,0,90,false,stim,false,0,1075.7000000029802,0,0,2,53294,task2,620945,false,false,733,image-keyboard-response,26
true,7,0,1,0,true,q,false,true,0.0-2.0-0.24-0.219-3.219,0,0,0,81,false,stim,false,2,2229.3999999910593,0,0,0,53294,task2,624701,false,false,736,image-keyboard-response,27
true,7,0,1,0,true,q,false,true,0.0-2.0-0.24-0.220-3.220,0,0,0,81,false,stim,false,2,840.4000000059605,0,0,0,53294,task2,627053,false,false,739,image-keyboard-response,28
true,7,0,1,0,true,q,false,true,0.0-2.0-0.24-0.221-3.221,0,0,0,81,false,stim,false,1,1878.8999999910593,0,0,1,53294,task2,630454,false,false,742,image-keyboard-response,29
true,7,1,1,1,true,z,false,true,0.0-2.0-0.24-0.222-3.222,0,0,0,90,false,stim,false,0,1053.0,0,0,2,53294,task2,633020,false,false,745,image-keyboard-response,30
true,7,0,1,0,true,q,false,true,0.0-2.0-0.24-0.223-3.223,0,0,0,81,false,stim,false,1,1707.0999999940395,0,0,1,53294,task2,636235,false,false,748,image-keyboard-response,31
true,7,0,1,0,true,q,false,true,0.0-2.0-0.24-0.224-3.224,0,0,0,81,false,stim,false,2,1436.1000000089407,0,0,0,53294,task2,639197,false,false,751,image-keyboard-response,32
true,7,0,1,0,true,q,false,true,0.0-2.0-0.25-0.225-3.225,0,0,0,81,false,stim,false,2,545.4000000059605,0,0,0,53294,task2,641254,false,false,754,image-keyboard-response,33
true,7,0,1,0,true,q,false,true,0.0-2.0-0.25-0.226-3.226,0,0,0,81,false,stim,false,1,979.6000000089407,0,1,1,53294,task2,643750,false,false,757,image-keyboard-response,34
true,7,1,1,1,true,z,false,true,0.0-2.0-0.25-0.227-3.227,0,0,0,90,false,stim,false,0,1094.2000000029802,0,0,2,53294,task2,646374,false,false,760,image-keyboard-response,35
true,7,0,1,0,true,q,false,true,0.0-2.0-0.25-0.228-3.228,0,0,0,81,false,stim,false,2,810.4000000059605,0,0,0,53294,task2,648707,false,false,763,image-keyboard-response,36
true,7,0,1,0,true,q,false,true,0.0-2.0-0.25-0.229-3.229,0,0,0,81,false,stim,false,1,751.7000000029802,0,1,1,53294,task2,650984,false,false,766,image-keyboard-response,37
true,7,0,1,0,true,q,false,true,0.0-2.0-0.25-0.230-3.230,0,0,0,81,false,stim,false,1,695.5999999940395,0,1,1,53294,task2,653191,false,false,769,image-keyboard-response,38
true,8,1,2,2,false,d,false,false,0.0-2.0-0.25-0.231-3.231,0,1,0,90,true,stim,true,1,1412.300000011921,0,0,2,53294,task2,656129,false,false,772,image-keyboard-response,1
true,8,0,2,1,false,z,false,false,0.0-2.0-0.25-0.232-3.232,0,1,0,81,false,stim,true,0,780.2999999970198,0,0,0,53294,task2,658438,false,false,775,image-keyboard-response,2
true,8,1,2,2,false,d,false,true,0.0-2.0-0.25-0.233-3.233,0,1,0,90,false,stim,true,1,922.5999999940395,0,0,2,53294,task2,660876,false,true,778,image-keyboard-response,3
true,8,0,2,0,true,q,false,false,0.0-2.0-0.26-0.234-3.234,0,1,0,81,false,stim,false,0,461.0,0,1,1,53294,task2,662853,false,true,781,image-keyboard-response,4
true,8,0,2,1,false,z,false,true,0.0-2.0-0.26-0.235-3.235,0,1,0,81,false,stim,true,0,1370.5,0,0,0,53294,task2,665734,false,true,784,image-keyboard-response,5
true,8,1,2,2,false,d,false,false,0.0-2.0-0.26-0.236-3.236,0,1,0,90,false,stim,true,1,1399.0999999940395,0,0,2,53294,task2,668661,false,false,787,image-keyboard-response,6
true,8,1,2,0,false,q,true,false,0.0-2.0-0.26-0.237-3.237,0,1,0,90,false,stim,false,0,1156.5999999940395,0,1,1,53294,task2,671332,false,false,790,image-keyboard-response,7
true,8,2,2,0,false,q,true,false,0.0-2.0-0.26-0.238-3.238,0,1,0,68,false,stim,false,0,658.1000000089407,0,1,1,53294,task2,673510,false,false,793,image-keyboard-response,8
true,8,0,2,1,false,z,false,false,0.0-2.0-0.26-0.239-3.239,0,1,0,81,false,stim,true,0,1482.4000000059605,0,0,0,53294,task2,676527,false,false,796,image-keyboard-response,9
true,8,1,2,1,true,z,false,true,0.0-2.0-0.26-0.240-3.240,0,1,0,90,false,stim,false,0,517.0,0,0,0,53294,task2,678576,false,false,799,image-keyboard-response,10
true,8,2,2,2,true,d,false,false,0.0-2.0-0.26-0.241-3.241,0,1,0,68,false,stim,false,1,804.0999999940395,0,0,2,53294,task2,680913,false,true,802,image-keyboard-response,11
true,8,1,2,2,false,d,false,false,0.0-2.0-0.26-0.242-3.242,0,1,0,90,false,stim,true,1,490.1000000089407,0,0,2,53294,task2,682934,false,false,805,image-keyboard-response,12
true,8,1,2,1,true,z,false,true,0.0-2.0-0.27-0.243-3.243,0,1,0,90,false,stim,false,0,954.7000000029802,0,0,0,53294,task2,685413,false,false,808,image-keyboard-response,13
true,8,0,2,2,false,d,true,false,0.0-2.0-0.27-0.244-3.244,0,1,0,81,false,stim,false,1,618.5,0,0,2,53294,task2,687540,false,false,811,image-keyboard-response,14
true,8,0,2,0,true,q,false,true,0.0-2.0-0.27-0.245-3.245,0,1,0,81,false,stim,false,0,914.7000000029802,0,1,1,53294,task2,689978,false,false,814,image-keyboard-response,15
true,8,1,2,1,true,z,false,true,0.0-2.0-0.27-0.246-3.246,0,1,0,90,false,stim,false,0,821.2000000029802,0,0,0,53294,task2,692311,false,false,817,image-keyboard-response,16
true,8,1,2,1,true,z,false,true,0.0-2.0-0.27-0.247-3.247,0,1,0,90,false,stim,false,0,794.3999999910593,0,0,0,53294,task2,694625,false,false,820,image-keyboard-response,17
true,8,1,2,2,false,d,false,false,0.0-2.0-0.27-0.248-3.248,0,1,0,90,false,stim,true,1,1967.7000000029802,0,0,2,53294,task2,698116,false,false,823,image-keyboard-response,18
true,8,2,2,2,true,d,false,true,0.0-2.0-0.27-0.249-3.249,0,1,0,68,false,stim,false,1,531.2999999970198,0,0,2,53294,task2,700177,false,false,826,image-keyboard-response,19
true,8,0,2,0,true,q,false,true,0.0-2.0-0.27-0.250-3.250,0,1,0,81,false,stim,false,0,599.5,0,1,1,53294,task2,702296,false,false,829,image-keyboard-response,20
true,8,0,2,0,true,q,false,true,0.0-2.0-0.27-0.251-3.251,0,1,0,81,false,stim,false,0,568.8999999910593,0,1,1,53294,task2,704380,false,false,832,image-keyboard-response,21
true,8,1,2,1,true,z,false,true,0.0-2.0-0.28-0.252-3.252,0,1,0,90,false,stim,false,0,691.5,0,0,0,53294,task2,706592,false,false,835,image-keyboard-response,22
true,8,1,2,1,true,z,false,true,0.0-2.0-0.28-0.253-3.253,0,1,0,90,false,stim,false,0,656.4000000059605,0,0,0,53294,task2,708761,false,false,838,image-keyboard-response,23
true,8,2,2,2,true,d,false,false,0.0-2.0-0.28-0.254-3.254,0,1,0,68,false,stim,false,1,1274.7999999970198,0,0,2,53294,task2,711557,false,true,841,image-keyboard-response,24
true,8,1,2,1,true,z,false,true,0.0-2.0-0.28-0.255-3.255,0,1,0,90,false,stim,false,0,1124.7999999970198,0,0,0,53294,task2,714206,false,false,844,image-keyboard-response,25
true,8,0,2,0,true,q,false,true,0.0-2.0-0.28-0.256-3.256,0,1,0,81,false,stim,false,0,633.8000000119209,0,1,1,53294,task2,716350,false,false,847,image-keyboard-response,26
true,8,2,2,2,true,d,false,true,0.0-2.0-0.28-0.257-3.257,0,1,0,68,false,stim,false,1,532.6999999880791,0,0,2,53294,task2,718413,false,false,850,image-keyboard-response,27
true,8,0,2,0,true,q,false,true,0.0-2.0-0.28-0.258-3.258,0,1,0,81,false,stim,false,0,804.5,0,1,1,53294,task2,720725,false,false,853,image-keyboard-response,28
true,8,2,2,2,true,d,false,true,0.0-2.0-0.28-0.259-3.259,0,1,0,68,false,stim,false,1,1048.6000000089407,0,0,2,53294,task2,723293,false,false,856,image-keyboard-response,29
true,8,0,2,0,true,q,false,true,0.0-2.0-0.28-0.260-3.260,0,1,0,81,false,stim,false,0,670.2999999970198,0,1,1,53294,task2,725486,false,false,859,image-keyboard-response,30
true,8,2,2,2,true,d,false,true,0.0-2.0-0.29-0.261-3.261,0,1,0,68,false,stim,false,1,1252.699999988079,0,0,2,53294,task2,728258,false,false,862,image-keyboard-response,31
true,8,0,2,0,true,q,false,true,0.0-2.0-0.29-0.262-3.262,0,1,0,81,false,stim,false,0,697.0999999940395,0,0,1,53294,task2,730465,false,false,865,image-keyboard-response,32
true,8,0,2,0,true,q,false,true,0.0-2.0-0.29-0.263-3.263,0,1,0,81,false,stim,false,0,478.3999999910593,0,0,1,53294,task2,732463,false,false,868,image-keyboard-response,33
true,8,0,2,0,true,q,false,true,0.0-2.0-0.29-0.264-3.264,0,1,0,81,false,stim,false,0,418.0,0,0,1,53294,task2,734398,false,false,871,image-keyboard-response,34
true,8,1,2,1,true,z,false,true,0.0-2.0-0.29-0.265-3.265,0,1,0,90,false,stim,false,0,760.2000000029802,0,0,0,53294,task2,736688,false,false,874,image-keyboard-response,35
true,9,1,1,0,false,q,false,false,0.0-2.0-0.29-0.266-3.266,0,0,0,90,true,stim,true,1,573.0999999940395,0,0,0,53294,task2,738773,false,false,877,image-keyboard-response,1
true,9,2,1,1,false,z,false,false,0.0-2.0-0.29-0.267-3.267,0,0,0,68,false,stim,true,2,1039.7000000029802,0,0,2,53294,task2,741333,false,false,880,image-keyboard-response,2
true,9,1,1,1,true,z,false,true,0.0-2.0-0.29-0.268-3.268,0,0,0,90,false,stim,false,2,1070.9000000059605,0,0,2,53294,task2,743918,false,false,883,image-keyboard-response,3
true,9,1,1,0,false,q,false,false,0.0-2.0-0.29-0.269-3.269,0,0,0,90,false,stim,true,1,706.7000000029802,0,0,0,53294,task2,746139,false,false,886,image-keyboard-response,4
true,9,1,1,1,true,z,false,true,0.0-2.0-0.30-0.270-3.270,0,0,0,90,false,stim,false,2,656.7999999970198,0,0,2,53294,task2,748315,false,false,889,image-keyboard-response,5
true,9,0,1,0,true,q,false,true,0.0-2.0-0.30-0.271-3.271,0,0,0,81,false,stim,false,1,274.70000000298023,0,0,0,53294,task2,750100,false,false,892,image-keyboard-response,6
true,9,1,1,1,true,z,false,true,0.0-2.0-0.30-0.272-3.272,0,0,0,90,false,stim,false,2,1328.4000000059605,0,0,2,53294,task2,752955,false,false,895,image-keyboard-response,7
true,9,2,1,1,false,z,true,false,0.0-2.0-0.30-0.273-3.273,0,0,0,68,false,stim,false,0,1000.5,0,0,1,53294,task2,755479,false,false,898,image-keyboard-response,8
true,9,1,1,1,true,z,false,true,0.0-2.0-0.30-0.274-3.274,0,0,0,90,false,stim,false,2,1657.8999999910593,0,0,2,53294,task2,758669,false,false,901,image-keyboard-response,9
true,9,1,1,1,true,z,false,true,0.0-2.0-0.30-0.275-3.275,0,0,0,90,false,stim,false,0,1116.2000000029802,0,0,1,53294,task2,761317,false,false,904,image-keyboard-response,10
true,9,0,1,0,true,q,false,true,0.0-2.0-0.30-0.276-3.276,0,0,0,81,false,stim,false,1,729.0,0,0,0,53294,task2,763567,false,false,907,image-keyboard-response,11
true,9,0,1,0,true,q,false,true,0.0-2.0-0.30-0.277-3.277,0,0,0,81,false,stim,false,1,1126.4000000059605,0,0,0,53294,task2,766231,false,false,910,image-keyboard-response,12
true,9,1,1,1,true,z,false,true,0.0-2.0-0.30-0.278-3.278,0,0,0,90,false,stim,false,0,679.2999999970198,0,0,1,53294,task2,768427,false,false,913,image-keyboard-response,13
true,9,1,1,1,true,z,false,true,0.0-2.0-0.31-0.279-3.279,0,0,0,90,false,stim,false,0,540.2000000029802,0,0,1,53294,task2,770497,false,false,916,image-keyboard-response,14
true,9,1,1,1,true,z,false,true,0.0-2.0-0.31-0.280-3.280,0,0,0,90,false,stim,false,0,672.3999999910593,0,0,1,53294,task2,772704,false,false,919,image-keyboard-response,15
true,9,0,1,0,true,q,false,true,0.0-2.0-0.31-0.281-3.281,0,0,0,81,false,stim,false,1,739.4000000059605,0,0,0,53294,task2,774964,false,false,922,image-keyboard-response,16
true,9,1,1,1,true,z,false,true,0.0-2.0-0.31-0.282-3.282,0,0,0,90,false,stim,false,2,852.3999999910593,0,0,2,53294,task2,777330,false,false,925,image-keyboard-response,17
true,9,0,1,0,true,q,false,true,0.0-2.0-0.31-0.283-3.283,0,0,0,81,false,stim,false,1,666.0,0,0,0,53294,task2,779530,false,false,928,image-keyboard-response,18
true,9,1,1,1,true,z,false,true,0.0-2.0-0.31-0.284-3.284,0,0,0,90,false,stim,false,0,2012.3999999910593,0,0,1,53294,task2,783060,false,false,931,image-keyboard-response,19
true,9,0,1,0,true,q,false,true,0.0-2.0-0.31-0.285-3.285,0,0,0,81,false,stim,false,1,729.0999999940395,0,0,0,53294,task2,785317,false,false,934,image-keyboard-response,20
true,9,1,1,1,true,z,false,false,0.0-2.0-0.31-0.286-3.286,0,0,0,90,false,stim,false,2,1356.2999999970198,0,0,2,53294,task2,788203,false,true,937,image-keyboard-response,21
true,9,1,1,1,true,z,false,true,0.0-2.0-0.31-0.287-3.287,0,0,0,90,false,stim,false,2,518.5,0,0,2,53294,task2,790248,false,false,940,image-keyboard-response,22
true,9,1,1,1,true,z,false,true,0.0-2.0-0.32-0.288-3.288,0,0,0,90,false,stim,false,2,678.4000000059605,0,0,2,53294,task2,792463,false,false,943,image-keyboard-response,23
true,9,1,1,1,true,z,false,true,0.0-2.0-0.32-0.289-3.289,0,0,0,90,false,stim,false,0,673.0,0,0,1,53294,task2,794661,false,false,946,image-keyboard-response,24
true,9,1,1,1,true,z,false,true,0.0-2.0-0.32-0.290-3.290,0,0,0,90,false,stim,false,2,620.5999999940395,0,0,2,53294,task2,796813,false,false,949,image-keyboard-response,25
true,9,1,1,1,true,z,false,true,0.0-2.0-0.32-0.291-3.291,0,0,0,90,false,stim,false,0,748.2000000029802,0,0,1,53294,task2,799093,false,false,952,image-keyboard-response,26
true,9,1,1,1,true,z,false,false,0.0-2.0-0.32-0.292-3.292,0,0,0,90,false,stim,false,2,685.0999999940395,0,0,2,53294,task2,801307,false,true,955,image-keyboard-response,27
true,9,1,1,1,true,z,false,true,0.0-2.0-0.32-0.293-3.293,0,0,0,90,false,stim,false,0,738.2000000029802,0,0,1,53294,task2,803578,false,false,958,image-keyboard-response,28
true,9,0,1,0,true,q,false,true,0.0-2.0-0.32-0.294-3.294,0,0,0,81,false,stim,false,1,565.5,0,0,0,53294,task2,805669,false,false,961,image-keyboard-response,29
true,9,1,1,0,false,q,false,false,0.0-2.0-0.32-0.295-3.295,0,0,0,90,false,stim,true,1,955.0,0,0,0,53294,task2,808148,false,false,964,image-keyboard-response,30
true,9,0,1,0,true,q,false,true,0.0-2.0-0.32-0.296-3.296,0,0,0,81,false,stim,false,1,364.79999999701977,0,0,0,53294,task2,810049,false,false,967,image-keyboard-response,31
true,9,2,1,1,false,z,true,false,0.0-2.0-0.33-0.297-3.297,0,0,0,68,false,stim,false,0,900.2999999970198,0,0,1,53294,task2,812481,false,false,970,image-keyboard-response,32
true,9,1,1,1,true,z,false,true,0.0-2.0-0.33-0.298-3.298,0,0,0,90,false,stim,false,2,578.1000000089407,0,0,2,53294,task2,814587,false,false,973,image-keyboard-response,33
true,9,1,1,1,true,z,false,true,0.0-2.0-0.33-0.299-3.299,0,0,0,90,false,stim,false,2,405.70000000298023,0,1,2,53294,task2,816530,false,false,976,image-keyboard-response,34
true,9,0,1,0,true,q,false,false,0.0-2.0-0.33-0.300-3.300,0,0,0,81,false,stim,false,1,448.0,0,0,0,53294,task2,818513,false,true,979,image-keyboard-response,35
true,9,1,1,1,true,z,false,true,0.0-2.0-0.33-0.301-3.301,0,0,0,90,false,stim,false,0,957.8000000119209,0,0,1,53294,task2,821004,false,false,982,image-keyboard-response,36
true,9,1,1,1,true,z,false,true,0.0-2.0-0.33-0.302-3.302,0,0,0,90,false,stim,false,0,553.9000000059605,0,0,1,53294,task2,823085,false,false,985,image-keyboard-response,37
true,9,0,1,0,true,q,false,true,0.0-2.0-0.33-0.303-3.303,0,0,0,81,false,stim,false,1,598.2000000029802,0,0,0,53294,task2,825220,false,false,988,image-keyboard-response,38
true,10,1,2,1,true,z,false,true,0.0-2.0-0.33-0.304-3.304,0,0,1,90,true,stim,false,1,589.1000000089407,0,1,2,53294,task2,827345,false,false,991,image-keyboard-response,1
true,10,0,2,2,false,d,false,false,0.0-2.0-0.33-0.305-3.305,0,0,1,81,false,stim,true,0,957.5,0,0,0,53294,task2,829824,false,false,994,image-keyboard-response,2
true,10,1,2,1,true,z,false,true,0.0-2.0-0.34-0.306-3.306,0,0,1,90,false,stim,false,1,708.7000000029802,0,1,2,53294,task2,832062,false,false,997,image-keyboard-response,3
true,10,1,2,1,true,z,false,true,0.0-2.0-0.34-0.307-3.307,0,0,1,90,false,stim,false,1,610.2999999970198,0,1,2,53294,task2,834201,false,false,1000,image-keyboard-response,4
true,10,1,2,2,false,d,true,false,0.0-2.0-0.34-0.308-3.308,0,0,1,90,false,stim,false,0,561.2000000029802,0,0,0,53294,task2,836298,false,false,1003,image-keyboard-response,5
true,10,1,2,0,false,q,false,false,0.0-2.0-0.34-0.309-3.309,0,0,1,90,false,stim,true,1,758.5999999940395,0,0,1,53294,task2,838584,false,false,1006,image-keyboard-response,6
true,10,2,2,1,false,z,true,false,0.0-2.0-0.34-0.310-3.310,0,0,1,68,false,stim,false,1,627.0,0,1,2,53294,task2,840742,false,false,1009,image-keyboard-response,7
true,10,2,2,0,false,q,true,true,0.0-2.0-0.34-0.311-3.311,0,0,1,68,false,stim,false,1,1126.1000000089407,0,0,1,53294,task2,843401,false,true,1012,image-keyboard-response,8
true,10,1,2,2,false,d,true,false,0.0-2.0-0.34-0.312-3.312,0,0,1,90,false,stim,false,0,861.2999999970198,0,0,0,53294,task2,845783,false,false,1015,image-keyboard-response,9
true,10,2,2,0,false,q,true,true,0.0-2.0-0.34-0.313-3.313,0,0,1,68,false,stim,false,1,1094.7000000029802,0,0,1,53294,task2,848404,false,true,1018,image-keyboard-response,10
true,10,0,2,2,false,d,false,true,0.0-2.0-0.34-0.314-3.314,0,0,1,81,false,stim,true,0,1815.9000000059605,0,0,0,53294,task2,851752,false,true,1021,image-keyboard-response,11
true,10,2,2,0,false,q,true,false,0.0-2.0-0.35-0.315-3.315,0,0,1,68,false,stim,false,1,771.7999999970198,0,0,1,53294,task2,854061,false,false,1024,image-keyboard-response,12
true,10,2,2,0,false,q,true,true,0.0-2.0-0.35-0.316-3.316,0,0,1,68,false,stim,false,1,595.8999999910593,0,0,1,53294,task2,856193,false,true,1027,image-keyboard-response,13
true,10,1,2,1,true,z,false,true,0.0-2.0-0.35-0.317-3.317,0,0,1,90,false,stim,false,1,978.8999999910593,0,1,2,53294,task2,858709,false,false,1030,image-keyboard-response,14
true,10,1,2,1,true,z,false,false,0.0-2.0-0.35-0.318-3.318,0,0,1,90,false,stim,false,1,948.6999999880791,0,1,2,53294,task2,861185,false,true,1033,image-keyboard-response,15
true,10,1,2,1,true,z,false,true,0.0-2.0-0.35-0.319-3.319,0,0,1,90,false,stim,false,1,666.1000000089407,0,1,2,53294,task2,863388,false,false,1036,image-keyboard-response,16
true,10,0,2,2,false,d,false,true,0.0-2.0-0.35-0.320-3.320,0,0,1,81,false,stim,true,0,548.0999999940395,0,0,0,53294,task2,865473,false,true,1039,image-keyboard-response,17
true,10,0,2,2,false,d,false,false,0.0-2.0-0.35-0.321-3.321,0,0,1,81,false,stim,true,0,1029.7000000029802,0,0,0,53294,task2,868020,false,false,1042,image-keyboard-response,18
true,10,0,2,2,false,d,false,false,0.0-2.0-0.35-0.322-3.322,0,0,1,81,false,stim,true,0,586.5,0,0,0,53294,task2,870132,false,false,1045,image-keyboard-response,19
true,10,1,2,0,false,q,false,false,0.0-2.0-0.35-0.323-3.323,0,0,1,90,false,stim,true,1,378.09999999403954,0,0,1,53294,task2,872047,false,false,1048,image-keyboard-response,20
true,10,1,2,2,false,d,true,false,0.0-2.0-0.36-0.324-3.324,0,0,1,90,false,stim,false,0,1208.7000000029802,0,0,0,53294,task2,874769,false,false,1051,image-keyboard-response,21
true,10,2,2,2,true,d,false,true,0.0-2.0-0.36-0.325-3.325,0,0,1,68,false,stim,false,0,858.0,0,0,0,53294,task2,877157,false,false,1054,image-keyboard-response,22
true,10,2,2,2,true,d,false,true,0.0-2.0-0.36-0.326-3.326,0,0,1,68,false,stim,false,0,1739.1000000089407,0,0,0,53294,task2,880425,false,false,1057,image-keyboard-response,23
true,10,2,2,0,false,q,true,false,0.0-2.0-0.36-0.327-3.327,0,0,1,68,false,stim,false,1,666.7000000029802,0,0,1,53294,task2,882622,false,false,1060,image-keyboard-response,24
true,10,1,2,0,false,q,false,false,0.0-2.0-0.36-0.328-3.328,0,0,1,90,false,stim,true,1,398.09999999403954,0,0,1,53294,task2,884542,false,false,1063,image-keyboard-response,25
true,10,0,2,0,true,q,false,true,0.0-2.0-0.36-0.329-3.329,0,0,1,81,false,stim,false,1,1138.5,0,0,1,53294,task2,887211,false,false,1066,image-keyboard-response,26
true,10,1,2,1,true,z,false,true,0.0-2.0-0.36-0.330-3.330,0,0,1,90,false,stim,false,1,1090.5999999940395,0,1,2,53294,task2,889825,false,false,1069,image-keyboard-response,27
true,10,1,2,1,true,z,false,true,0.0-2.0-0.36-0.331-3.331,0,0,1,90,false,stim,false,1,1291.1000000089407,0,1,2,53294,task2,892645,false,false,1072,image-keyboard-response,28
true,10,1,2,1,true,z,false,true,0.0-2.0-0.36-0.332-3.332,0,0,1,90,false,stim,false,1,804.1000000089407,0,1,2,53294,task2,894976,false,false,1075,image-keyboard-response,29
true,10,2,2,2,true,d,false,true,0.0-2.0-0.37-0.333-3.333,0,0,1,68,false,stim,false,0,917.1000000089407,0,0,0,53294,task2,897430,false,false,1078,image-keyboard-response,30
true,10,0,2,0,true,q,false,false,0.0-2.0-0.37-0.334-3.334,0,0,1,81,false,stim,false,1,558.2999999970198,0,0,1,53294,task2,899509,false,true,1081,image-keyboard-response,31
true,10,1,2,1,true,z,false,true,0.0-2.0-0.37-0.335-3.335,0,0,1,90,false,stim,false,1,522.5999999940395,0,0,2,53294,task2,901555,false,false,1084,image-keyboard-response,32
true,10,1,2,1,true,z,false,true,0.0-2.0-0.37-0.336-3.336,0,0,1,90,false,stim,false,1,1468.8999999910593,0,0,2,53294,task2,904558,false,false,1087,image-keyboard-response,33
true,10,1,2,1,true,z,false,true,0.0-2.0-0.37-0.337-3.337,0,0,1,90,false,stim,false,1,1108.7000000029802,0,0,2,53294,task2,907185,false,false,1090,image-keyboard-response,34
true,10,2,2,0,false,q,true,false,0.0-2.0-0.37-0.338-3.338,0,0,1,68,false,stim,false,1,764.7999999970198,0,0,1,53294,task2,909489,false,false,1093,image-keyboard-response,35
true,11,2,1,1,false,z,false,false,0.0-2.0-0.37-0.339-3.339,0,0,0,68,true,stim,true,2,1180.3999999910593,0,0,0,53294,task2,912193,false,false,1096,image-keyboard-response,1
true,11,0,1,1,false,z,true,false,0.0-2.0-0.37-0.340-3.340,0,0,0,81,false,stim,false,2,561.2999999970198,0,0,0,53294,task2,914285,false,false,1099,image-keyboard-response,2
true,11,0,1,1,false,z,false,false,0.0-2.0-0.37-0.341-3.341,0,0,0,81,false,stim,true,0,1744.6000000089407,0,0,1,53294,task2,917572,false,false,1102,image-keyboard-response,3
true,11,1,1,1,true,z,false,true,0.0-2.0-0.38-0.342-3.342,0,0,0,90,false,stim,false,2,985.9000000059605,0,0,0,53294,task2,920088,false,false,1105,image-keyboard-response,4
true,11,1,1,1,true,z,false,true,0.0-2.0-0.38-0.343-3.343,0,0,0,90,false,stim,false,2,837.9000000059605,0,0,0,53294,task2,922456,false,false,1108,image-keyboard-response,5
true,11,0,1,1,false,z,false,false,0.0-2.0-0.38-0.344-3.344,0,0,0,81,false,stim,true,0,1486.0,0,0,1,53294,task2,925475,false,false,1111,image-keyboard-response,6
true,11,1,1,1,true,z,false,true,0.0-2.0-0.38-0.345-3.345,0,0,0,90,false,stim,false,0,438.90000000596046,0,0,1,53294,task2,927451,false,false,1114,image-keyboard-response,7
true,11,1,1,1,true,z,false,true,0.0-2.0-0.38-0.346-3.346,0,0,0,90,false,stim,false,0,816.0,0,0,1,53294,task2,929795,false,false,1117,image-keyboard-response,8
true,11,1,1,0,false,q,false,false,0.0-2.0-0.38-0.347-3.347,0,0,0,90,false,stim,true,1,586.7999999970198,0,0,2,53294,task2,931903,false,false,1120,image-keyboard-response,9
true,11,2,1,0,false,q,true,false,0.0-2.0-0.38-0.348-3.348,0,0,0,68,false,stim,false,1,508.09999999403954,0,0,2,53294,task2,933944,false,false,1123,image-keyboard-response,10
true,11,1,1,1,true,z,false,true,0.0-2.0-0.38-0.349-3.349,0,0,0,90,false,stim,false,2,657.8999999910593,0,0,0,53294,task2,936133,false,false,1126,image-keyboard-response,11
true,11,0,1,0,true,q,false,true,0.0-2.0-0.38-0.350-3.350,0,0,0,81,false,stim,false,1,1256.4000000059605,0,0,2,53294,task2,938912,false,false,1129,image-keyboard-response,12
true,11,1,1,1,true,z,false,true,0.0-2.0-0.39-0.351-3.351,0,0,0,90,false,stim,false,2,1059.1000000089407,0,0,0,53294,task2,941503,false,false,1132,image-keyboard-response,13
true,11,0,1,0,true,q,false,true,0.0-2.0-0.39-0.352-3.352,0,0,0,81,false,stim,false,1,838.0999999940395,0,0,2,53294,task2,943875,false,false,1135,image-keyboard-response,14
true,11,1,1,1,true,z,false,true,0.0-2.0-0.39-0.353-3.353,0,0,0,90,false,stim,false,0,1496.0,0,0,1,53294,task2,946897,false,false,1138,image-keyboard-response,15
true,11,1,1,1,true,z,false,false,0.0-2.0-0.39-0.354-3.354,0,0,0,90,false,stim,false,0,609.0,0,0,1,53294,task2,949032,false,true,1141,image-keyboard-response,16
true,11,0,1,0,true,q,false,true,0.0-2.0-0.39-0.355-3.355,0,0,0,81,false,stim,false,1,1105.8999999910593,0,0,2,53294,task2,951667,false,false,1144,image-keyboard-response,17
true,11,1,1,1,true,z,false,true,0.0-2.0-0.39-0.356-3.356,0,0,0,90,false,stim,false,0,643.2999999970198,0,0,1,53294,task2,953846,false,false,1147,image-keyboard-response,18
true,11,0,1,0,true,q,false,true,0.0-2.0-0.39-0.357-3.357,0,0,0,81,false,stim,false,1,835.7000000029802,0,0,2,53294,task2,956209,false,false,1150,image-keyboard-response,19
true,11,1,1,1,true,z,false,true,0.0-2.0-0.39-0.358-3.358,0,0,0,90,false,stim,false,2,802.2000000029802,0,0,0,53294,task2,958544,false,false,1153,image-keyboard-response,20
true,11,1,1,1,true,z,false,true,0.0-2.0-0.39-0.359-3.359,0,0,0,90,false,stim,false,2,1368.0999999940395,0,0,0,53294,task2,961449,false,false,1156,image-keyboard-response,21
true,11,1,1,1,true,z,false,true,0.0-2.0-0.40-0.360-3.360,0,0,0,90,false,stim,false,2,487.09999999403954,0,0,0,53294,task2,963467,false,false,1159,image-keyboard-response,22
true,11,1,1,1,true,z,false,true,0.0-2.0-0.40-0.361-3.361,0,0,0,90,false,stim,false,0,1604.0,0,0,1,53294,task2,966613,false,false,1162,image-keyboard-response,23
true,11,0,1,0,true,q,false,true,0.0-2.0-0.40-0.362-3.362,0,0,0,81,false,stim,false,1,1188.4000000059605,0,0,2,53294,task2,969323,false,false,1165,image-keyboard-response,24
true,11,1,1,1,true,z,false,true,0.0-2.0-0.40-0.363-3.363,0,0,0,90,false,stim,false,0,1743.8999999910593,0,0,1,53294,task2,972593,false,false,1168,image-keyboard-response,25
true,11,1,1,1,true,z,false,true,0.0-2.0-0.40-0.364-3.364,0,0,0,90,false,stim,false,0,637.2999999970198,0,0,1,53294,task2,974758,false,false,1171,image-keyboard-response,26
true,11,0,1,0,true,q,false,true,0.0-2.0-0.40-0.365-3.365,0,0,0,81,false,stim,false,1,1374.6000000089407,0,0,2,53294,task2,977668,false,false,1174,image-keyboard-response,27
true,11,0,1,0,true,q,false,true,0.0-2.0-0.40-0.366-3.366,0,0,0,81,false,stim,false,1,2029.7999999970198,0,0,2,53294,task2,981225,false,false,1177,image-keyboard-response,28
true,11,1,1,1,true,z,false,true,0.0-2.0-0.40-0.367-3.367,0,0,0,90,false,stim,false,2,453.8999999910593,0,0,0,53294,task2,983198,false,false,1180,image-keyboard-response,29
true,11,1,1,1,true,z,false,true,0.0-2.0-0.40-0.368-3.368,0,0,0,90,false,stim,false,2,624.5,0,0,0,53294,task2,985345,false,false,1183,image-keyboard-response,30
true,11,0,1,0,true,q,false,true,0.0-2.0-0.41-0.369-3.369,0,0,0,81,false,stim,false,1,757.7999999970198,0,0,2,53294,task2,987632,false,false,1186,image-keyboard-response,31
true,11,0,1,0,true,q,false,true,0.0-2.0-0.41-0.370-3.370,0,0,0,81,false,stim,false,1,1180.0,0,0,2,53294,task2,990333,false,false,1189,image-keyboard-response,32
true,11,0,1,0,true,q,false,true,0.0-2.0-0.41-0.371-3.371,0,0,0,81,false,stim,false,1,754.8000000119209,0,0,2,53294,task2,992624,false,false,1192,image-keyboard-response,33
true,11,1,1,1,true,z,false,true,0.0-2.0-0.41-0.372-3.372,0,0,0,90,false,stim,false,2,1186.0,0,0,0,53294,task2,995341,false,false,1195,image-keyboard-response,34
true,12,1,1,0,false,q,false,false,0.0-2.0-0.41-0.373-3.373,0,0,0,90,true,stim,true,1,1239.8999999910593,0,0,1,53294,task2,998119,false,false,1198,image-keyboard-response,1
true,12,1,1,0,false,q,false,false,0.0-2.0-0.41-0.374-3.374,0,0,0,90,false,stim,true,1,1257.8999999910593,0,0,1,53294,task2,1000915,false,false,1201,image-keyboard-response,2
true,12,1,1,2,false,d,false,false,0.0-2.0-0.41-0.375-3.375,0,0,0,90,false,stim,true,1,1414.7000000029802,0,0,0,53294,task2,1003864,false,false,1204,image-keyboard-response,3
true,12,0,1,2,false,d,true,false,0.0-2.0-0.41-0.376-3.376,0,0,0,81,false,stim,false,1,850.0,0,0,0,53294,task2,1006229,false,false,1207,image-keyboard-response,4
true,12,1,1,0,false,q,false,false,0.0-2.0-0.41-0.377-3.377,0,0,0,90,false,stim,true,1,1447.2000000029802,0,0,1,53294,task2,1009204,false,false,1210,image-keyboard-response,5
true,12,2,1,2,true,d,false,true,0.0-2.0-0.42-0.378-3.378,0,0,0,68,false,stim,false,0,934.9000000059605,0,0,2,53294,task2,1011669,false,false,1213,image-keyboard-response,6
true,12,1,1,2,false,d,false,true,0.0-2.0-0.42-0.379-3.379,0,0,0,90,false,stim,true,1,1179.4000000059605,0,0,0,53294,task2,1014362,false,true,1216,image-keyboard-response,7
true,12,0,1,0,true,q,false,true,0.0-2.0-0.42-0.380-3.380,0,0,0,81,false,stim,false,1,2265.0,0,0,1,53294,task2,1018153,false,false,1219,image-keyboard-response,8
true,12,1,1,2,false,d,false,false,0.0-2.0-0.42-0.381-3.381,0,0,0,90,false,stim,true,1,1901.0999999940395,0,0,0,53294,task2,1021584,false,false,1222,image-keyboard-response,9
true,12,0,1,0,true,q,false,true,0.0-2.0-0.42-0.382-3.382,0,0,0,81,false,stim,false,1,1417.7999999970198,0,0,1,53294,task2,1024537,false,false,1225,image-keyboard-response,10
true,12,1,1,2,false,d,true,false,0.0-2.0-0.42-0.383-3.383,0,0,0,90,false,stim,false,0,1985.5,0,0,2,53294,task2,1028060,false,false,1228,image-keyboard-response,11
true,12,0,1,0,true,q,false,true,0.0-2.0-0.42-0.384-3.384,0,0,0,81,false,stim,false,1,1308.0999999940395,0,0,1,53294,task2,1030893,false,false,1231,image-keyboard-response,12
true,12,2,1,2,true,d,false,false,0.0-2.0-0.42-0.385-3.385,0,0,0,68,false,stim,false,1,921.9000000059605,0,0,0,53294,task2,1033336,false,true,1234,image-keyboard-response,13
true,12,2,1,2,true,d,false,true,0.0-2.0-0.42-0.386-3.386,0,0,0,68,false,stim,false,0,1026.7999999970198,0,0,2,53294,task2,1035887,false,false,1237,image-keyboard-response,14
true,12,1,1,2,false,d,false,false,0.0-2.0-0.43-0.387-3.387,0,0,0,90,false,stim,true,1,873.5999999940395,0,0,0,53294,task2,1038287,false,false,1240,image-keyboard-response,15
true,12,2,1,2,true,d,false,true,0.0-2.0-0.43-0.388-3.388,0,0,0,68,false,stim,false,0,1798.7000000029802,0,0,2,53294,task2,1041601,false,false,1243,image-keyboard-response,16
true,12,0,1,2,false,d,true,false,0.0-2.0-0.43-0.389-3.389,0,0,0,81,false,stim,false,1,1333.0,0,0,0,53294,task2,1044457,false,false,1246,image-keyboard-response,17
true,12,2,1,2,true,d,false,true,0.0-2.0-0.43-0.390-3.390,0,0,0,68,false,stim,false,0,1614.8999999910593,0,0,2,53294,task2,1047591,false,false,1249,image-keyboard-response,18
true,12,0,1,0,true,q,false,true,0.0-2.0-0.43-0.391-3.391,0,0,0,81,false,stim,false,1,956.6000000089407,0,0,1,53294,task2,1050087,false,false,1252,image-keyboard-response,19
true,12,2,1,2,true,d,false,true,0.0-2.0-0.43-0.392-3.392,0,0,0,68,false,stim,false,0,1435.4000000059605,0,0,2,53294,task2,1053051,false,false,1255,image-keyboard-response,20
true,12,0,1,0,true,q,false,true,0.0-2.0-0.43-0.393-3.393,0,0,0,81,false,stim,false,1,1120.2999999970198,0,0,1,53294,task2,1055695,false,false,1258,image-keyboard-response,21
true,12,2,1,2,true,d,false,true,0.0-2.0-0.43-0.394-3.394,0,0,0,68,false,stim,false,1,1273.5999999940395,0,0,0,53294,task2,1058494,false,false,1261,image-keyboard-response,22
true,12,0,1,0,true,q,false,false,0.0-2.0-0.43-0.395-3.395,0,0,0,81,false,stim,false,1,1110.9000000059605,0,0,1,53294,task2,1061143,false,true,1264,image-keyboard-response,23
true,12,2,1,2,true,d,false,true,0.0-2.0-0.44-0.396-3.396,0,0,0,68,false,stim,false,1,787.0,0,0,0,53294,task2,1063460,false,false,1267,image-keyboard-response,24
true,12,2,1,2,true,d,false,false,0.0-2.0-0.44-0.397-3.397,0,0,0,68,false,stim,false,1,693.7000000029802,0,0,0,53294,task2,1065677,false,true,1270,image-keyboard-response,25
true,12,0,1,0,true,q,false,true,0.0-2.0-0.44-0.398-3.398,0,0,0,81,false,stim,false,1,1635.5,0,0,1,53294,task2,1068842,false,false,1273,image-keyboard-response,26
true,12,0,1,0,true,q,false,true,0.0-2.0-0.44-0.399-3.399,0,0,0,81,false,stim,false,1,758.5,0,0,1,53294,task2,1071139,false,false,1276,image-keyboard-response,27
true,12,2,1,2,true,d,false,true,0.0-2.0-0.44-0.400-3.400,0,0,0,68,false,stim,false,0,1018.3999999910593,0,0,2,53294,task2,1073681,false,false,1279,image-keyboard-response,28
true,12,0,1,0,true,q,false,true,0.0-2.0-0.44-0.401-3.401,0,0,0,81,false,stim,false,1,1979.0999999940395,0,0,1,53294,task2,1077182,false,false,1282,image-keyboard-response,29
true,12,2,1,2,true,d,false,true,0.0-2.0-0.44-0.402-3.402,0,0,0,68,false,stim,false,0,684.7999999970198,0,1,2,53294,task2,1079391,false,false,1285,image-keyboard-response,30
true,12,2,1,2,true,d,false,true,0.0-2.0-0.44-0.403-3.403,0,0,0,68,false,stim,false,0,662.4000000059605,0,1,2,53294,task2,1081590,false,false,1288,image-keyboard-response,31
true,12,2,1,2,true,d,false,true,0.0-2.0-0.44-0.404-3.404,0,0,0,68,false,stim,false,1,805.9000000059605,0,0,0,53294,task2,1083925,false,false,1291,image-keyboard-response,32
true,12,0,1,0,true,q,false,true,0.0-2.0-0.45-0.405-3.405,0,0,0,81,false,stim,false,1,832.6999999880791,0,0,1,53294,task2,1086283,false,false,1294,image-keyboard-response,33
true,12,2,1,2,true,d,false,true,0.0-2.0-0.45-0.406-3.406,0,0,0,68,false,stim,false,1,1602.1000000089407,0,0,0,53294,task2,1089422,false,false,1297,image-keyboard-response,34
true,13,0,2,1,false,z,false,false,0.0-2.0-0.45-0.407-3.407,0,0,1,81,true,stim,true,0,1290.2999999970198,0,0,1,53294,task2,1092239,false,false,1300,image-keyboard-response,1
true,13,0,2,1,false,z,false,false,0.0-2.0-0.45-0.408-3.408,0,0,1,81,false,stim,true,0,977.8000000119209,0,0,1,53294,task2,1094748,false,false,1303,image-keyboard-response,2
true,13,2,2,2,true,d,false,false,0.0-2.0-0.45-0.409-3.409,0,0,1,68,false,stim,false,2,800.5,0,1,2,53294,task2,1097086,false,true,1306,image-keyboard-response,3
true,13,2,2,0,false,q,false,false,0.0-2.0-0.45-0.410-3.410,0,0,1,68,false,stim,true,2,2205.7000000029802,0,0,0,53294,task2,1100829,false,false,1309,image-keyboard-response,4
true,13,1,2,0,false,q,true,false,0.0-2.0-0.45-0.411-3.411,0,0,1,90,false,stim,false,2,441.70000000298023,0,0,0,53294,task2,1102792,false,false,1312,image-keyboard-response,5
true,13,2,2,2,true,d,false,true,0.0-2.0-0.45-0.412-3.412,0,0,1,68,false,stim,false,2,1015.5,0,1,2,53294,task2,1105328,false,false,1315,image-keyboard-response,6
true,13,2,2,2,true,d,false,true,0.0-2.0-0.45-0.413-3.413,0,0,1,68,false,stim,false,2,554.5,0,1,2,53294,task2,1107405,false,false,1318,image-keyboard-response,7
true,13,0,2,0,true,q,false,true,0.0-2.0-0.46-0.414-3.414,0,0,1,81,false,stim,false,2,543.7999999970198,0,0,0,53294,task2,1109472,false,false,1321,image-keyboard-response,8
true,13,0,2,0,true,q,false,true,0.0-2.0-0.46-0.415-3.415,0,0,1,81,false,stim,false,2,710.8999999910593,0,0,0,53294,task2,1111719,false,false,1324,image-keyboard-response,9
true,13,0,2,1,false,z,false,false,0.0-2.0-0.46-0.416-3.416,0,0,1,81,false,stim,true,0,918.9000000059605,0,0,1,53294,task2,1114163,false,false,1327,image-keyboard-response,10
true,13,2,2,2,true,d,false,true,0.0-2.0-0.46-0.417-3.417,0,0,1,68,false,stim,false,2,784.8999999910593,0,1,2,53294,task2,1116484,false,false,1330,image-keyboard-response,11
true,13,0,2,0,true,q,false,true,0.0-2.0-0.46-0.418-3.418,0,0,1,81,false,stim,false,2,2191.8999999910593,0,0,0,53294,task2,1120213,false,false,1333,image-keyboard-response,12
true,13,2,2,2,true,d,false,true,0.0-2.0-0.46-0.419-3.419,0,0,1,68,false,stim,false,2,825.8000000119209,0,1,2,53294,task2,1122567,false,false,1336,image-keyboard-response,13
true,13,2,2,2,true,d,false,true,0.0-2.0-0.46-0.420-3.420,0,0,1,68,false,stim,false,2,748.7000000029802,0,1,2,53294,task2,1124847,false,false,1339,image-keyboard-response,14
true,13,1,2,1,true,z,false,true,0.0-2.0-0.46-0.421-3.421,0,0,1,90,false,stim,false,0,853.7999999970198,0,0,1,53294,task2,1127238,false,false,1342,image-keyboard-response,15
true,13,1,2,1,true,z,false,false,0.0-2.0-0.46-0.422-3.422,0,0,1,90,false,stim,false,0,935.9000000059605,0,0,1,53294,task2,1129696,false,true,1345,image-keyboard-response,16
true,13,0,2,0,true,q,false,true,0.0-2.0-0.47-0.423-3.423,0,0,1,81,false,stim,false,2,664.2000000029802,0,0,0,53294,task2,1131887,false,false,1348,image-keyboard-response,17
true,13,2,2,2,true,d,false,true,0.0-2.0-0.47-0.424-3.424,0,0,1,68,false,stim,false,2,600.5,0,1,2,53294,task2,1134018,false,false,1351,image-keyboard-response,18
true,13,1,2,1,true,z,false,true,0.0-2.0-0.47-0.425-3.425,0,0,1,90,false,stim,false,0,986.7000000029802,0,0,1,53294,task2,1136525,false,false,1354,image-keyboard-response,19
true,13,1,2,1,true,z,false,true,0.0-2.0-0.47-0.426-3.426,0,0,1,90,false,stim,false,0,746.7999999970198,0,0,1,53294,task2,1138801,false,false,1357,image-keyboard-response,20
true,13,0,2,0,true,q,false,true,0.0-2.0-0.47-0.427-3.427,0,0,1,81,false,stim,false,2,1073.0999999940395,0,0,0,53294,task2,1141411,false,false,1360,image-keyboard-response,21
true,13,1,2,1,true,z,false,true,0.0-2.0-0.47-0.428-3.428,0,0,1,90,false,stim,false,0,1411.7000000029802,0,0,1,53294,task2,1144344,false,false,1363,image-keyboard-response,22
true,13,2,2,2,true,d,false,true,0.0-2.0-0.47-0.429-3.429,0,0,1,68,false,stim,false,2,1070.4000000059605,0,1,2,53294,task2,1146942,false,false,1366,image-keyboard-response,23
true,13,2,2,2,true,d,false,true,0.0-2.0-0.47-0.430-3.430,0,0,1,68,false,stim,false,2,1391.1000000089407,0,1,2,53294,task2,1149868,false,false,1369,image-keyboard-response,24
true,13,0,2,0,true,q,false,true,0.0-2.0-0.47-0.431-3.431,0,0,1,81,false,stim,false,2,918.2000000029802,0,0,0,53294,task2,1152323,false,false,1372,image-keyboard-response,25
true,13,1,2,1,true,z,false,true,0.0-2.0-0.48-0.432-3.432,0,0,1,90,false,stim,false,0,1415.0999999940395,0,0,1,53294,task2,1155258,false,false,1375,image-keyboard-response,26
true,13,1,2,1,true,z,false,true,0.0-2.0-0.48-0.433-3.433,0,0,1,90,false,stim,false,0,1781.0999999940395,0,0,1,53294,task2,1158570,false,false,1378,image-keyboard-response,27
true,13,2,2,2,true,d,false,false,0.0-2.0-0.48-0.434-3.434,0,0,1,68,false,stim,false,2,1106.5,0,0,2,53294,task2,1161202,false,true,1381,image-keyboard-response,28
true,13,0,2,0,true,q,false,true,0.0-2.0-0.48-0.435-3.435,0,0,1,81,false,stim,false,2,1193.5999999940395,0,0,0,53294,task2,1163918,false,false,1384,image-keyboard-response,29
true,13,2,2,2,true,d,false,true,0.0-2.0-0.48-0.436-3.436,0,0,1,68,false,stim,false,2,676.7999999970198,0,0,2,53294,task2,1166132,false,false,1387,image-keyboard-response,30
true,13,0,2,0,true,q,false,true,0.0-2.0-0.48-0.437-3.437,0,0,1,81,false,stim,false,2,907.0999999940395,0,0,0,53294,task2,1168564,false,false,1390,image-keyboard-response,31
true,13,1,2,1,true,z,false,true,0.0-2.0-0.48-0.438-3.438,0,0,1,90,false,stim,false,0,781.0,0,1,1,53294,task2,1170865,false,false,1393,image-keyboard-response,32
true,14,0,2,2,false,d,false,false,0.0-2.0-0.48-0.439-3.439,0,1,0,81,true,stim,true,0,904.7999999970198,0,0,0,53294,task2,1173289,false,false,1396,image-keyboard-response,1
true,14,2,2,1,false,z,false,false,0.0-2.0-0.48-0.440-3.440,0,1,0,68,false,stim,true,2,1290.6000000089407,0,0,2,53294,task2,1176101,false,false,1399,image-keyboard-response,2
true,14,1,2,2,false,d,true,false,0.0-2.0-0.49-0.441-3.441,0,1,0,90,false,stim,false,0,976.7000000029802,0,0,0,53294,task2,1178601,false,false,1402,image-keyboard-response,3
true,14,2,2,1,false,z,true,false,0.0-2.0-0.49-0.442-3.442,0,1,0,68,false,stim,false,1,1127.2999999970198,0,1,1,53294,task2,1181260,false,false,1405,image-keyboard-response,4
true,14,2,2,2,true,d,false,true,0.0-2.0-0.49-0.443-3.443,0,1,0,68,false,stim,false,0,972.7000000029802,0,0,0,53294,task2,1183754,false,false,1408,image-keyboard-response,5
true,14,1,2,1,true,z,false,true,0.0-2.0-0.49-0.444-3.444,0,1,0,90,false,stim,false,2,1918.4000000059605,0,0,2,53294,task2,1187188,false,false,1411,image-keyboard-response,6
true,14,1,2,1,true,z,false,true,0.0-2.0-0.49-0.445-3.445,0,1,0,90,false,stim,false,2,840.2999999970198,0,0,2,53294,task2,1189554,false,false,1414,image-keyboard-response,7
true,14,2,2,2,true,d,false,true,0.0-2.0-0.49-0.446-3.446,0,1,0,68,false,stim,false,0,556.7999999970198,0,0,0,53294,task2,1191639,false,false,1417,image-keyboard-response,8
true,14,0,2,1,false,z,true,false,0.0-2.0-0.49-0.447-3.447,0,1,0,81,false,stim,false,1,2362.5,0,1,1,53294,task2,1195530,false,false,1420,image-keyboard-response,9
true,14,1,2,1,true,z,false,true,0.0-2.0-0.49-0.448-3.448,0,1,0,90,false,stim,false,1,713.3999999910593,0,1,1,53294,task2,1197776,false,false,1423,image-keyboard-response,10
true,14,2,2,1,false,z,false,false,0.0-2.0-0.49-0.449-3.449,0,1,0,68,false,stim,true,2,869.4000000059605,0,0,2,53294,task2,1200183,false,false,1426,image-keyboard-response,11
true,14,1,2,1,true,z,false,false,0.0-2.0-0.50-0.450-3.450,0,1,0,90,false,stim,false,2,525.2000000029802,0,0,2,53294,task2,1202243,false,true,1429,image-keyboard-response,12
true,14,1,2,2,false,d,true,false,0.0-2.0-0.50-0.451-3.451,0,1,0,90,false,stim,false,0,714.5999999940395,0,0,0,53294,task2,1204480,false,false,1432,image-keyboard-response,13
true,14,2,2,2,true,d,false,true,0.0-2.0-0.50-0.452-3.452,0,1,0,68,false,stim,false,0,323.70000000298023,0,0,0,53294,task2,1206334,false,false,1435,image-keyboard-response,14
true,14,0,2,1,false,z,true,false,0.0-2.0-0.50-0.453-3.453,0,1,0,81,false,stim,false,1,983.5,0,1,1,53294,task2,1208855,false,false,1438,image-keyboard-response,15
true,14,2,2,2,true,d,false,false,0.0-2.0-0.50-0.454-3.454,0,1,0,68,false,stim,false,0,783.7999999970198,0,0,0,53294,task2,1211159,false,true,1441,image-keyboard-response,16
true,14,1,2,1,true,z,false,true,0.0-2.0-0.50-0.455-3.455,0,1,0,90,false,stim,false,1,761.2000000029802,0,1,1,53294,task2,1213440,false,false,1444,image-keyboard-response,17
true,14,2,2,1,false,z,false,false,0.0-2.0-0.50-0.456-3.456,0,1,0,68,false,stim,true,2,913.1000000089407,0,0,2,53294,task2,1215890,false,false,1447,image-keyboard-response,18
true,14,2,2,1,false,z,true,true,0.0-2.0-0.50-0.457-3.457,0,1,0,68,false,stim,false,1,1000.3999999910593,0,1,1,53294,task2,1218429,false,true,1450,image-keyboard-response,19
true,14,2,2,1,false,z,false,false,0.0-2.0-0.50-0.458-3.458,0,1,0,68,false,stim,true,2,792.3999999910593,0,0,2,53294,task2,1220745,false,false,1453,image-keyboard-response,20
true,14,2,2,1,false,z,true,false,0.0-2.0-0.51-0.459-3.459,0,1,0,68,false,stim,false,1,1115.7000000029802,0,1,1,53294,task2,1223385,false,false,1456,image-keyboard-response,21
true,14,1,2,1,true,z,false,true,0.0-2.0-0.51-0.460-3.460,0,1,0,90,false,stim,false,2,798.5,0,0,2,53294,task2,1225705,false,false,1459,image-keyboard-response,22
true,14,1,2,1,true,z,false,true,0.0-2.0-0.51-0.461-3.461,0,1,0,90,false,stim,false,2,706.0,0,0,2,53294,task2,1227939,false,false,1462,image-keyboard-response,23
true,14,2,2,1,false,z,true,false,0.0-2.0-0.51-0.462-3.462,0,1,0,68,false,stim,false,1,942.3999999910593,0,1,1,53294,task2,1230407,false,false,1465,image-keyboard-response,24
true,14,1,2,1,true,z,false,true,0.0-2.0-0.51-0.463-3.463,0,1,0,90,false,stim,false,2,1072.5,0,0,2,53294,task2,1233014,false,false,1468,image-keyboard-response,25
true,14,1,2,1,true,z,false,true,0.0-2.0-0.51-0.464-3.464,0,1,0,90,false,stim,false,1,652.7999999970198,0,1,1,53294,task2,1235192,false,false,1471,image-keyboard-response,26
true,14,2,2,2,true,d,false,false,0.0-2.0-0.51-0.465-3.465,0,1,0,68,false,stim,false,0,1449.7000000029802,0,0,0,53294,task2,1238179,false,true,1474,image-keyboard-response,27
true,14,1,2,2,false,d,true,true,0.0-2.0-0.51-0.466-3.466,0,1,0,90,false,stim,false,0,535.0,0,0,0,53294,task2,1240252,false,true,1477,image-keyboard-response,28
true,14,1,2,2,false,d,true,true,0.0-2.0-0.51-0.467-3.467,0,1,0,90,false,stim,false,0,360.6000000089407,0,0,0,53294,task2,1242147,false,true,1480,image-keyboard-response,29
true,14,1,2,1,true,z,false,false,0.0-2.0-0.52-0.468-3.468,0,1,0,90,false,stim,false,2,293.70000000298023,0,0,2,53294,task2,1243965,false,true,1483,image-keyboard-response,30
true,14,1,2,1,true,z,false,false,0.0-2.0-0.52-0.469-3.469,0,1,0,90,false,stim,false,1,321.40000000596046,0,0,1,53294,task2,1245812,false,true,1486,image-keyboard-response,31
true,15,1,1,1,true,z,false,true,0.0-2.0-0.52-0.470-3.470,0,0,0,90,true,stim,false,2,381.6000000089407,0,0,0,53294,task2,1247729,false,false,1489,image-keyboard-response,1
true,15,1,1,0,false,q,false,false,0.0-2.0-0.52-0.471-3.471,0,0,0,90,false,stim,true,1,285.70000000298023,0,0,2,53294,task2,1249552,false,false,1492,image-keyboard-response,2
true,15,1,1,0,false,q,false,false,0.0-2.0-0.52-0.472-3.472,0,0,0,90,false,stim,true,1,417.3999999910593,0,0,1,53294,task2,1251507,false,false,1495,image-keyboard-response,3
true,15,1,1,1,true,z,false,true,0.0-2.0-0.52-0.473-3.473,0,0,0,90,false,stim,false,2,811.5,0,0,0,53294,task2,1253839,false,false,1498,image-keyboard-response,4
true,15,1,1,1,true,z,false,true,0.0-2.0-0.52-0.474-3.474,0,0,0,90,false,stim,false,2,748.7000000029802,0,0,0,53294,task2,1256138,false,false,1501,image-keyboard-response,5
true,15,0,1,0,true,q,false,true,0.0-2.0-0.52-0.475-3.475,0,0,0,81,false,stim,false,1,794.2999999970198,0,0,2,53294,task2,1258462,false,false,1504,image-keyboard-response,6
true,15,2,1,0,false,q,true,true,0.0-2.0-0.52-0.476-3.476,0,0,0,68,false,stim,false,1,929.3999999910593,0,0,1,53294,task2,1260910,false,true,1507,image-keyboard-response,7
true,15,1,1,1,true,z,false,true,0.0-2.0-0.53-0.477-3.477,0,0,0,90,false,stim,false,2,862.4000000059605,0,0,0,53294,task2,1263296,false,false,1510,image-keyboard-response,8
true,15,0,1,1,false,z,true,false,0.0-2.0-0.53-0.478-3.478,0,0,0,81,false,stim,false,2,1038.2000000029802,0,0,0,53294,task2,1265865,false,false,1513,image-keyboard-response,9
true,15,0,1,0,true,q,false,true,0.0-2.0-0.53-0.479-3.479,0,0,0,81,false,stim,false,1,652.2999999970198,0,0,2,53294,task2,1268051,false,false,1516,image-keyboard-response,10
true,15,2,1,0,false,q,true,false,0.0-2.0-0.53-0.480-3.480,0,0,0,68,false,stim,false,1,1194.199999988079,0,0,1,53294,task2,1270773,false,false,1519,image-keyboard-response,11
true,15,2,1,0,false,q,true,false,0.0-2.0-0.53-0.481-3.481,0,0,0,68,false,stim,false,1,659.0999999940395,0,0,1,53294,task2,1272962,false,false,1522,image-keyboard-response,12
true,15,1,1,1,true,z,false,true,0.0-2.0-0.53-0.482-3.482,0,0,0,90,false,stim,false,2,996.0999999940395,0,0,0,53294,task2,1275487,false,false,1525,image-keyboard-response,13
true,15,0,1,0,true,q,false,false,0.0-2.0-0.53-0.483-3.483,0,0,0,81,false,stim,false,1,818.0999999940395,0,0,2,53294,task2,1277834,false,true,1528,image-keyboard-response,14
true,15,0,1,0,true,q,false,true,0.0-2.0-0.53-0.484-3.484,0,0,0,81,false,stim,false,1,436.5,0,0,2,53294,task2,1279798,false,false,1531,image-keyboard-response,15
true,15,1,1,0,false,q,false,false,0.0-2.0-0.53-0.485-3.485,0,0,0,90,false,stim,true,1,1298.300000011921,0,0,1,53294,task2,1282631,false,false,1534,image-keyboard-response,16
true,15,0,1,0,true,q,false,true,0.0-2.0-0.54-0.486-3.486,0,0,0,81,false,stim,false,1,949.5,0,0,1,53294,task2,1285111,false,false,1537,image-keyboard-response,17
true,15,1,1,1,true,z,false,true,0.0-2.0-0.54-0.487-3.487,0,0,0,90,false,stim,false,2,1518.2000000029802,0,0,0,53294,task2,1288158,false,false,1540,image-keyboard-response,18
true,15,0,1,1,false,z,true,false,0.0-2.0-0.54-0.488-3.488,0,0,0,81,false,stim,false,2,1889.2999999970198,0,0,0,53294,task2,1291585,false,false,1543,image-keyboard-response,19
true,15,0,1,0,true,q,false,true,0.0-2.0-0.54-0.489-3.489,0,0,0,81,false,stim,false,1,1294.9000000059605,0,0,2,53294,task2,1294412,false,false,1546,image-keyboard-response,20
true,15,0,1,0,true,q,false,true,0.0-2.0-0.54-0.490-3.490,0,0,0,81,false,stim,false,1,733.0,0,0,2,53294,task2,1296675,false,false,1549,image-keyboard-response,21
true,15,1,1,0,false,q,false,false,0.0-2.0-0.54-0.491-3.491,0,0,0,90,false,stim,true,1,1240.4000000059605,0,0,1,53294,task2,1299452,false,false,1552,image-keyboard-response,22
true,15,1,1,0,false,q,false,false,0.0-2.0-0.54-0.492-3.492,0,0,0,90,false,stim,true,1,475.20000000298023,0,0,1,53294,task2,1301457,false,false,1555,image-keyboard-response,23
true,15,1,1,1,true,z,false,true,0.0-2.0-0.54-0.493-3.493,0,0,0,90,false,stim,false,2,1395.7999999970198,0,0,0,53294,task2,1304384,false,false,1558,image-keyboard-response,24
true,15,0,1,0,true,q,false,true,0.0-2.0-0.54-0.494-3.494,0,0,0,81,false,stim,false,1,1239.2000000029802,0,0,2,53294,task2,1307161,false,false,1561,image-keyboard-response,25
true,15,0,1,0,true,q,false,true,0.0-2.0-0.55-0.495-3.495,0,0,0,81,false,stim,false,1,685.1000000089407,0,0,2,53294,task2,1309377,false,false,1564,image-keyboard-response,26
true,15,0,1,0,true,q,false,true,0.0-2.0-0.55-0.496-3.496,0,0,0,81,false,stim,false,1,878.0,0,0,2,53294,task2,1311792,false,false,1567,image-keyboard-response,27
true,15,1,1,1,true,z,false,true,0.0-2.0-0.55-0.497-3.497,0,0,0,90,false,stim,false,2,845.9000000059605,0,0,0,53294,task2,1314154,false,false,1570,image-keyboard-response,28
true,15,2,1,0,false,q,true,false,0.0-2.0-0.55-0.498-3.498,0,0,0,68,false,stim,false,1,1758.1000000089407,0,0,1,53294,task2,1317450,false,false,1573,image-keyboard-response,29
true,15,1,1,1,true,z,false,true,0.0-2.0-0.55-0.499-3.499,0,0,0,90,false,stim,false,2,1176.7000000029802,0,0,0,53294,task2,1320160,false,false,1576,image-keyboard-response,30
true,15,1,1,0,false,q,false,false,0.0-2.0-0.55-0.500-3.500,0,0,0,90,false,stim,true,1,2063.3999999910593,0,0,1,53294,task2,1323761,false,false,1579,image-keyboard-response,31
true,15,0,1,0,true,q,false,true,0.0-2.0-0.55-0.501-3.501,0,0,0,81,false,stim,false,1,953.5999999940395,0,0,2,53294,task2,1326224,false,false,1582,image-keyboard-response,32
true,15,0,1,0,true,q,false,true,0.0-2.0-0.55-0.502-3.502,0,0,0,81,false,stim,false,1,829.7000000029802,0,0,1,53294,task2,1328576,false,false,1585,image-keyboard-response,33
true,15,2,1,1,false,z,false,true,0.0-2.0-0.55-0.503-3.503,0,0,0,68,false,stim,true,2,611.3000000119209,0,0,0,53294,task2,1330724,false,true,1588,image-keyboard-response,34
true,15,0,1,0,true,q,false,true,0.0-2.0-0.56-0.504-3.504,0,0,0,81,false,stim,false,1,1199.199999988079,0,0,1,53294,task2,1333454,false,false,1591,image-keyboard-response,35
true,15,2,1,1,false,z,false,false,0.0-2.0-0.56-0.505-3.505,0,0,0,68,false,stim,true,2,837.2999999970198,0,0,0,53294,task2,1335813,false,false,1594,image-keyboard-response,36
true,15,1,1,1,true,z,false,true,0.0-2.0-0.56-0.506-3.506,0,0,0,90,false,stim,false,2,832.7999999970198,0,0,0,53294,task2,1338170,false,false,1597,image-keyboard-response,37
true,16,0,1,2,false,d,false,false,0.0-2.0-0.56-0.507-3.507,0,0,0,81,true,stim,true,0,961.7000000029802,0,0,2,53294,task2,1340663,false,false,1600,image-keyboard-response,1
true,16,0,1,2,false,d,false,false,0.0-2.0-0.56-0.508-3.508,0,0,0,81,false,stim,true,0,388.20000000298023,0,0,2,53294,task2,1342588,false,false,1603,image-keyboard-response,2
true,16,0,1,2,false,d,false,false,0.0-2.0-0.56-0.509-3.509,0,0,0,81,false,stim,true,0,789.5999999940395,0,0,1,53294,task2,1344914,false,false,1606,image-keyboard-response,3
true,16,1,1,2,false,d,true,false,0.0-2.0-0.56-0.510-3.510,0,0,0,90,false,stim,false,0,822.0,0,0,1,53294,task2,1347264,false,false,1609,image-keyboard-response,4
true,16,1,1,0,false,q,false,false,0.0-2.0-0.56-0.511-3.511,0,0,0,90,false,stim,true,1,1025.0,0,0,0,53294,task2,1349814,false,false,1612,image-keyboard-response,5
true,16,2,1,2,true,d,false,true,0.0-2.0-0.56-0.512-3.512,0,0,0,68,false,stim,false,0,606.0,0,0,2,53294,task2,1351942,false,false,1615,image-keyboard-response,6
true,16,2,1,0,false,q,true,false,0.0-2.0-0.57-0.513-3.513,0,0,0,68,false,stim,false,1,1060.9000000059605,0,0,0,53294,task2,1354528,false,false,1618,image-keyboard-response,7
true,16,1,1,2,false,d,true,false,0.0-2.0-0.57-0.514-3.514,0,0,0,90,false,stim,false,0,1735.5,0,0,1,53294,task2,1357793,false,false,1621,image-keyboard-response,8
true,16,2,1,2,true,d,false,true,0.0-2.0-0.57-0.515-3.515,0,0,0,68,false,stim,false,0,719.2999999970198,0,0,1,53294,task2,1360048,false,false,1624,image-keyboard-response,9
true,16,1,1,0,false,q,false,false,0.0-2.0-0.57-0.516-3.516,0,0,0,90,false,stim,true,1,1320.0,0,0,0,53294,task2,1362897,false,false,1627,image-keyboard-response,10
true,16,2,1,2,true,d,false,false,0.0-2.0-0.57-0.517-3.517,0,0,0,68,false,stim,false,0,664.3999999910593,0,0,1,53294,task2,1365096,false,true,1630,image-keyboard-response,11
true,16,2,1,2,true,d,false,true,0.0-2.0-0.57-0.518-3.518,0,0,0,68,false,stim,false,0,447.29999999701977,0,0,2,53294,task2,1367066,false,false,1633,image-keyboard-response,12
true,16,0,1,0,true,q,false,true,0.0-2.0-0.57-0.519-3.519,0,0,0,81,false,stim,false,1,889.2999999970198,0,0,0,53294,task2,1369470,false,false,1636,image-keyboard-response,13
true,16,2,1,2,true,d,false,true,0.0-2.0-0.57-0.520-3.520,0,0,0,68,false,stim,false,0,1266.8999999910593,0,0,2,53294,task2,1372259,false,false,1639,image-keyboard-response,14
true,16,2,1,2,true,d,false,true,0.0-2.0-0.57-0.521-3.521,0,0,0,68,false,stim,false,0,907.9000000059605,0,0,2,53294,task2,1374697,false,false,1642,image-keyboard-response,15
true,16,0,1,0,true,q,false,true,0.0-2.0-0.58-0.522-3.522,0,0,0,81,false,stim,false,1,924.7000000029802,0,0,0,53294,task2,1377149,false,false,1645,image-keyboard-response,16
true,16,2,1,2,true,d,false,true,0.0-2.0-0.58-0.523-3.523,0,0,0,68,false,stim,false,0,1126.2000000029802,0,0,2,53294,task2,1379797,false,false,1648,image-keyboard-response,17
true,16,0,1,0,true,q,false,true,0.0-2.0-0.58-0.524-3.524,0,0,0,81,false,stim,false,1,947.4000000059605,0,0,0,53294,task2,1382264,false,false,1651,image-keyboard-response,18
true,16,2,1,2,true,d,false,true,0.0-2.0-0.58-0.525-3.525,0,0,0,68,false,stim,false,0,2946.2999999970198,0,0,2,53294,task2,1386744,false,false,1654,image-keyboard-response,19
true,16,2,1,2,true,d,false,true,0.0-2.0-0.58-0.526-3.526,0,0,0,68,false,stim,false,0,963.9000000059605,0,0,1,53294,task2,1389234,false,false,1657,image-keyboard-response,20
true,16,2,1,2,true,d,false,false,0.0-2.0-0.58-0.527-3.527,0,0,0,68,false,stim,false,0,834.5,0,0,2,53294,task2,1391608,false,true,1660,image-keyboard-response,21
true,16,2,1,2,true,d,false,true,0.0-2.0-0.58-0.528-3.528,0,0,0,68,false,stim,false,0,751.5999999940395,0,0,1,53294,task2,1393888,false,false,1663,image-keyboard-response,22
true,16,2,1,2,true,d,false,false,0.0-2.0-0.58-0.529-3.529,0,0,0,68,false,stim,false,0,657.5,0,0,1,53294,task2,1396078,false,true,1666,image-keyboard-response,23
true,16,0,1,0,true,q,false,true,0.0-2.0-0.58-0.530-3.530,0,0,0,81,false,stim,false,1,558.0,0,0,0,53294,task2,1398165,false,false,1669,image-keyboard-response,24
true,16,2,1,2,true,d,false,true,0.0-2.0-0.59-0.531-3.531,0,0,0,68,false,stim,false,0,821.7000000029802,0,0,2,53294,task2,1400510,false,false,1672,image-keyboard-response,25
true,16,0,1,0,true,q,false,true,0.0-2.0-0.59-0.532-3.532,0,0,0,81,false,stim,false,1,1866.6000000089407,0,0,0,53294,task2,1403913,false,false,1675,image-keyboard-response,26
true,16,2,1,2,true,d,false,true,0.0-2.0-0.59-0.533-3.533,0,0,0,68,false,stim,false,0,746.0999999940395,0,0,1,53294,task2,1406184,false,false,1678,image-keyboard-response,27
true,16,0,1,0,true,q,false,true,0.0-2.0-0.59-0.534-3.534,0,0,0,81,false,stim,false,1,2288.0,0,0,0,53294,task2,1409993,false,false,1681,image-keyboard-response,28
true,16,0,1,0,true,q,false,true,0.0-2.0-0.59-0.535-3.535,0,0,0,81,false,stim,false,1,715.7999999970198,0,0,0,53294,task2,1412240,false,false,1684,image-keyboard-response,29
true,16,2,1,2,true,d,false,false,0.0-2.0-0.59-0.536-3.536,0,0,0,68,false,stim,false,0,799.7999999970198,0,0,2,53294,task2,1414560,false,true,1687,image-keyboard-response,30
true,16,1,1,2,false,d,true,false,0.0-2.0-0.59-0.537-3.537,0,0,0,90,false,stim,false,0,680.1000000089407,0,0,2,53294,task2,1416761,false,false,1690,image-keyboard-response,31
true,16,2,1,2,true,d,false,true,0.0-2.0-0.59-0.538-3.538,0,0,0,68,false,stim,false,0,761.3000000119209,0,0,1,53294,task2,1419054,false,false,1693,image-keyboard-response,32
true,16,2,1,2,true,d,false,true,0.0-2.0-0.59-0.539-3.539,0,0,0,68,false,stim,false,0,879.3999999910593,0,1,1,53294,task2,1421470,false,false,1696,image-keyboard-response,33
true,16,2,1,2,true,d,false,true,0.0-2.0-0.60-0.540-3.540,0,0,0,68,false,stim,false,0,615.2000000029802,0,1,2,53294,task2,1423608,false,false,1699,image-keyboard-response,34
true,16,0,1,0,true,q,false,true,0.0-2.0-0.60-0.541-3.541,0,0,0,81,false,stim,false,1,491.30000001192093,0,1,0,53294,task2,1425642,false,false,1702,image-keyboard-response,35
true,16,2,1,2,true,d,false,true,0.0-2.0-0.60-0.542-3.542,0,0,0,68,false,stim,false,0,897.5,0,1,1,53294,task2,1428063,false,false,1705,image-keyboard-response,36
true,16,2,1,2,true,d,false,true,0.0-2.0-0.60-0.543-3.543,0,0,0,68,false,stim,false,0,674.7000000029802,0,1,2,53294,task2,1430261,false,false,1708,image-keyboard-response,37
true,17,0,0,2,false,d,true,false,0.0-2.0-0.60-0.544-3.544,1,1,1,81,true,stim,false,2,1721.5999999940395,0,1,1,53294,task2,1555087,false,false,1831,image-keyboard-response,1
true,17,0,0,2,false,d,true,false,0.0-2.0-0.60-0.545-3.545,1,1,1,81,false,stim,false,2,2344.5999999940395,0,1,1,53294,task2,1558969,false,false,1834,image-keyboard-response,2
true,17,0,0,2,false,d,true,false,0.0-2.0-0.60-0.546-3.546,1,1,1,81,false,stim,false,2,1020.2000000029802,0,1,2,53294,task2,1561517,false,false,1837,image-keyboard-response,3
true,17,0,0,0,true,q,false,true,0.0-2.0-0.60-0.547-3.547,1,1,1,81,false,stim,false,0,1084.5,0,1,0,53294,task2,1564139,false,false,1840,image-keyboard-response,4
true,17,0,0,0,true,q,false,true,0.0-2.0-0.60-0.548-3.548,1,1,1,81,false,stim,false,0,1255.3999999910593,0,1,0,53294,task2,1566932,false,false,1843,image-keyboard-response,5
true,17,1,0,2,false,d,true,false,0.0-2.0-0.61-0.549-3.549,1,1,1,90,false,stim,false,2,938.5999999940395,0,1,2,53294,task2,1569402,false,false,1846,image-keyboard-response,6
true,17,2,0,2,true,d,false,true,0.0-2.0-0.61-0.550-3.550,1,1,1,68,false,stim,false,2,680.0999999940395,0,1,2,53294,task2,1571614,false,false,1849,image-keyboard-response,7
true,17,0,0,0,true,q,false,true,0.0-2.0-0.61-0.551-3.551,1,1,1,81,false,stim,false,0,951.5,0,1,0,53294,task2,1574090,false,false,1852,image-keyboard-response,8
true,17,2,0,2,true,d,false,true,0.0-2.0-0.61-0.552-3.552,1,1,1,68,false,stim,false,2,1039.4000000059605,0,1,2,53294,task2,1576658,false,false,1855,image-keyboard-response,9
true,17,1,0,2,false,d,true,false,0.0-2.0-0.61-0.553-3.553,1,1,1,90,false,stim,false,2,825.0,0,0,1,53294,task2,1579006,false,false,1858,image-keyboard-response,10
true,17,2,0,2,true,d,false,true,0.0-2.0-0.61-0.554-3.554,1,1,1,68,false,stim,false,2,632.5,0,0,1,53294,task2,1581169,false,false,1861,image-keyboard-response,11
true,17,0,0,0,true,q,false,true,0.0-2.0-0.61-0.555-3.555,1,1,1,81,false,stim,false,0,558.5999999940395,0,0,0,53294,task2,1583255,false,false,1864,image-keyboard-response,12
true,17,2,0,2,true,d,false,true,0.0-2.0-0.61-0.556-3.556,1,1,1,68,false,stim,false,2,1017.1999999880791,0,0,1,53294,task2,1585800,false,false,1867,image-keyboard-response,13
true,18,0,2,2,false,d,false,false,0.0-2.0-0.61-0.557-3.557,0,0,1,81,true,stim,true,0,971.0,0,0,0,53294,task2,1588301,false,false,1870,image-keyboard-response,1
true,18,2,2,2,true,d,false,true,0.0-2.0-0.62-0.558-3.558,0,0,1,68,false,stim,false,2,702.3999999910593,0,1,2,53294,task2,1590527,false,false,1873,image-keyboard-response,2
true,18,0,2,2,false,d,false,false,0.0-2.0-0.62-0.559-3.559,0,0,1,81,false,stim,true,0,987.1000000089407,0,0,0,53294,task2,1593040,false,false,1876,image-keyboard-response,3
true,18,1,2,2,false,d,true,false,0.0-2.0-0.62-0.560-3.560,0,0,1,90,false,stim,false,0,588.7000000029802,0,0,0,53294,task2,1595155,false,false,1879,image-keyboard-response,4
true,18,2,2,1,false,z,false,false,0.0-2.0-0.62-0.561-3.561,0,0,1,68,false,stim,true,2,877.5,0,0,1,53294,task2,1597564,false,false,1882,image-keyboard-response,5
true,18,2,2,1,false,z,false,false,0.0-2.0-0.62-0.562-3.562,0,0,1,68,false,stim,true,2,705.1000000089407,0,0,1,53294,task2,1599803,false,false,1885,image-keyboard-response,6
true,18,2,2,2,true,d,false,true,0.0-2.0-0.62-0.563-3.563,0,0,1,68,false,stim,false,0,841.2000000029802,0,0,0,53294,task2,1602168,false,false,1888,image-keyboard-response,7
true,18,1,2,1,true,z,false,true,0.0-2.0-0.62-0.564-3.564,0,0,1,90,false,stim,false,2,1211.3999999910593,0,0,1,53294,task2,1604914,false,false,1891,image-keyboard-response,8
true,18,2,2,2,true,d,false,true,0.0-2.0-0.62-0.565-3.565,0,0,1,68,false,stim,false,2,1128.2999999970198,0,1,2,53294,task2,1607569,false,false,1894,image-keyboard-response,9
true,18,2,2,2,true,d,false,true,0.0-2.0-0.62-0.566-3.566,0,0,1,68,false,stim,false,2,1108.7999999970198,0,1,2,53294,task2,1610207,false,false,1897,image-keyboard-response,10
true,18,1,2,1,true,z,false,true,0.0-2.0-0.63-0.567-3.567,0,0,1,90,false,stim,false,2,1183.0,0,0,1,53294,task2,1612928,false,false,1900,image-keyboard-response,11
true,18,1,2,1,true,z,false,true,0.0-2.0-0.63-0.568-3.568,0,0,1,90,false,stim,false,2,1384.300000011921,0,0,1,53294,task2,1615848,false,false,1903,image-keyboard-response,12
true,18,2,2,2,true,d,false,false,0.0-2.0-0.63-0.569-3.569,0,0,1,68,false,stim,false,2,589.0999999940395,0,1,2,53294,task2,1617959,false,true,1906,image-keyboard-response,13
true,18,2,2,2,true,d,false,true,0.0-2.0-0.63-0.570-3.570,0,0,1,68,false,stim,false,0,645.0,0,0,0,53294,task2,1620127,false,false,1909,image-keyboard-response,14
true,18,2,2,2,true,d,false,true,0.0-2.0-0.63-0.571-3.571,0,0,1,68,false,stim,false,2,456.09999999403954,0,1,2,53294,task2,1622120,false,false,1912,image-keyboard-response,15
true,18,1,2,1,true,z,false,false,0.0-2.0-0.63-0.572-3.572,0,0,1,90,false,stim,false,2,574.7999999970198,0,0,1,53294,task2,1624224,false,true,1915,image-keyboard-response,16
true,18,2,2,2,true,d,false,true,0.0-2.0-0.63-0.573-3.573,0,0,1,68,false,stim,false,2,765.7000000029802,0,1,2,53294,task2,1626523,false,false,1918,image-keyboard-response,17
true,18,2,2,2,true,d,false,false,0.0-2.0-0.63-0.574-3.574,0,0,1,68,false,stim,false,0,618.3000000119209,0,0,0,53294,task2,1628679,false,true,1921,image-keyboard-response,18
true,18,2,2,2,true,d,false,true,0.0-2.0-0.63-0.575-3.575,0,0,1,68,false,stim,false,0,1238.9000000059605,0,0,0,53294,task2,1631448,false,false,1924,image-keyboard-response,19
true,18,1,2,2,false,d,true,false,0.0-2.0-0.64-0.576-3.576,0,0,1,90,false,stim,false,0,987.9000000059605,0,0,0,53294,task2,1633968,false,false,1927,image-keyboard-response,20
true,18,1,2,1,true,z,false,true,0.0-2.0-0.64-0.577-3.577,0,0,1,90,false,stim,false,2,1338.7999999970198,0,0,1,53294,task2,1636832,false,false,1930,image-keyboard-response,21
true,18,2,2,2,true,d,false,true,0.0-2.0-0.64-0.578-3.578,0,0,1,68,false,stim,false,0,1729.1000000089407,0,0,0,53294,task2,1640088,false,false,1933,image-keyboard-response,22
true,18,2,2,2,true,d,false,true,0.0-2.0-0.64-0.579-3.579,0,0,1,68,false,stim,false,2,1151.4000000059605,0,1,2,53294,task2,1642770,false,false,1936,image-keyboard-response,23
true,18,2,2,2,true,d,false,false,0.0-2.0-0.64-0.580-3.580,0,0,1,68,false,stim,false,2,641.2000000029802,0,1,2,53294,task2,1644947,false,true,1939,image-keyboard-response,24
true,18,1,2,1,true,z,false,true,0.0-2.0-0.64-0.581-3.581,0,0,1,90,false,stim,false,2,983.7000000029802,0,0,1,53294,task2,1647461,false,false,1942,image-keyboard-response,25
true,18,1,2,1,true,z,false,true,0.0-2.0-0.64-0.582-3.582,0,0,1,90,false,stim,false,2,607.0,0,0,1,53294,task2,1649597,false,false,1945,image-keyboard-response,26
true,18,2,2,2,true,d,false,true,0.0-2.0-0.64-0.583-3.583,0,0,1,68,false,stim,false,0,848.2000000029802,0,0,0,53294,task2,1651976,false,false,1948,image-keyboard-response,27
true,18,2,2,2,true,d,false,true,0.0-2.0-0.64-0.584-3.584,0,0,1,68,false,stim,false,2,2426.5,0,0,2,53294,task2,1655932,false,false,1951,image-keyboard-response,28
true,18,2,2,2,true,d,false,true,0.0-2.0-0.65-0.585-3.585,0,0,1,68,false,stim,false,2,826.5,0,0,2,53294,task2,1658282,false,false,1954,image-keyboard-response,29
true,18,1,2,1,true,z,false,true,0.0-2.0-0.65-0.586-3.586,0,0,1,90,false,stim,false,2,848.7000000029802,0,0,1,53294,task2,1660655,false,false,1957,image-keyboard-response,30
true,18,1,2,1,true,z,false,true,0.0-2.0-0.65-0.587-3.587,0,0,1,90,false,stim,false,2,663.2000000029802,0,0,1,53294,task2,1662840,false,false,1960,image-keyboard-response,31
true,18,2,2,2,true,d,false,true,0.0-2.0-0.65-0.588-3.588,0,0,1,68,false,stim,false,2,1120.2000000029802,0,0,2,53294,task2,1665484,false,false,1963,image-keyboard-response,32
true,19,1,1,2,false,d,false,false,0.0-2.0-0.65-0.589-3.589,0,0,0,90,true,stim,true,1,1330.5,0,0,1,53294,task2,1668353,false,false,1966,image-keyboard-response,1
true,19,2,1,1,false,z,false,false,0.0-2.0-0.65-0.590-3.590,0,0,0,68,false,stim,true,2,1302.7999999970198,0,0,0,53294,task2,1671192,false,false,1969,image-keyboard-response,2
