answered,blockNum,choice,condition,corResp,correct,correct_response,explo,fb,internal_node_id,isStable_1,isStable_2,isStable_3,key_press,newBlock,part,persev,persevResp,rt,sessNum,stableAS,stimulus,subject,task,time_elapsed,training,trap,trial_index,trial_type,trialsInBlock
true,1,0,0,0,true,q,false,true,0.0-2.0-0.0-0.0-3.0,0,0,0,81,true,stim,false,-1,836,1,0,0,53294,task1,150914,false,false,160,image-keyboard-response,1
true,1,1,0,2,false,d,true,false,0.0-2.0-0.0-0.1-3.1,0,0,0,90,false,stim,false,-1,1416,1,0,1,53294,task1,153850,false,false,163,image-keyboard-response,2
true,1,0,0,0,true,q,false,true,0.0-2.0-0.0-0.2-3.2,0,0,0,81,false,stim,false,-1,677,1,0,0,53294,task1,156042,false,false,166,image-keyboard-response,3
true,1,0,0,2,false,d,true,false,0.0-2.0-0.0-0.3-3.3,0,0,0,81,false,stim,false,-1,722,1,0,1,53294,task1,158291,false,false,169,image-keyboard-response,4
true,1,0,0,2,false,d,true,false,0.0-2.0-0.0-0.4-3.4,0,0,0,81,false,stim,false,-1,1202,1,0,2,53294,task1,161010,false,false,172,image-keyboard-response,5
true,1,1,0,2,false,d,true,false,0.0-2.0-0.0-0.5-3.5,0,0,0,90,false,stim,false,-1,593,1,0,2,53294,task1,163122,false,false,175,image-keyboard-response,6
true,1,1,0,2,false,d,true,false,0.0-2.0-0.0-0.6-3.6,0,0,0,90,false,stim,false,-1,698,1,0,1,53294,task1,165338,false,false,178,image-keyboard-response,7
true,1,0,0,0,true,q,false,false,0.0-2.0-0.0-0.7-3.7,0,0,0,81,false,stim,false,-1,766,1,0,0,53294,task1,167626,false,true,181,image-keyboard-response,8
true,1,2,0,2,true,d,false,true,0.0-2.0-0.0-0.8-3.8,0,0,0,68,false,stim,false,-1,951,1,0,2,53294,task1,170105,false,false,184,image-keyboard-response,9
true,1,0,0,0,true,q,false,false,0.0-2.0-0.1-0.9-3.9,0,0,0,81,false,stim,false,-1,938,1,0,0,53294,task1,172562,false,true,187,image-keyboard-response,10
true,1,2,0,2,true,d,false,true,0.0-2.0-0.1-0.10-3.10,0,0,0,68,false,stim,false,-1,781,1,0,2,53294,task1,174858,false,false,190,image-keyboard-response,11
true,1,1,0,0,false,q,true,false,0.0-2.0-0.1-0.11-3.11,0,0,0,90,false,stim,false,-1,762,1,0,0,53294,task1,177139,false,false,193,image-keyboard-response,12
true,1,2,0,2,true,d,false,true,0.0-2.0-0.1-0.12-3.12,0,0,0,68,false,stim,false,-1,619,1,0,1,53294,task1,179275,false,false,196,image-keyboard-response,13
true,1,2,0,2,true,d,false,true,0.0-2.0-0.1-0.13-3.13,0,0,0,68,false,stim,false,-1,632,1,0,1,53294,task1,181427,false,false,199,image-keyboard-response,14
true,1,2,0,0,false,q,true,false,0.0-2.0-0.1-0.14-3.14,0,0,0,68,false,stim,false,-1,681,1,0,0,53294,task1,183619,false,false,202,image-keyboard-response,15
true,1,2,0,2,true,d,false,false,0.0-2.0-0.1-0.15-3.15,0,0,0,68,false,stim,false,-1,844,1,0,2,53294,task1,185986,false,true,205,image-keyboard-response,16
true,1,2,0,2,true,d,false,true,0.0-2.0-0.1-0.16-3.16,0,0,0,68,false,stim,false,-1,423,1,0,2,53294,task1,187938,false,false,208,image-keyboard-response,17
true,1,2,0,2,true,d,false,true,0.0-2.0-0.1-0.17-3.17,0,0,0,68,false,stim,false,-1,389,1,0,1,53294,task1,189850,false,false,211,image-keyboard-response,18
true,1,2,0,2,true,d,false,true,0.0-2.0-0.2-0.18-3.18,0,0,0,68,false,stim,false,-1,695,1,0,2,53294,task1,192058,false,false,214,image-keyboard-response,19
true,1,2,0,2,true,d,false,true,0.0-2.0-0.2-0.19-3.19,0,0,0,68,false,stim,false,-1,598,1,0,1,53294,task1,194186,false,false,217,image-keyboard-response,20
true,1,1,0,0,false,q,true,false,0.0-2.0-0.2-0.20-3.20,0,0,0,90,false,stim,false,-1,411,1,0,0,53294,task1,196114,false,false,220,image-keyboard-response,21
true,1,2,0,2,true,d,false,true,0.0-2.0-0.2-0.21-3.21,0,0,0,68,false,stim,false,-1,702,1,0,1,53294,task1,198330,false,false,223,image-keyboard-response,22
true,1,2,0,2,true,d,false,false,0.0-2.0-0.2-0.22-3.22,0,0,0,68,false,stim,false,-1,443,1,0,2,53294,task1,200291,false,true,226,image-keyboard-response,23
true,1,0,0,0,true,q,false,true,0.0-2.0-0.2-0.23-3.23,0,0,0,81,false,stim,false,-1,660,1,0,0,53294,task1,202466,false,false,229,image-keyboard-response,24
true,1,2,0,2,true,d,false,true,0.0-2.0-0.2-0.24-3.24,0,0,0,68,false,stim,false,-1,916,1,0,1,53294,task1,204898,false,false,232,image-keyboard-response,25
true,1,0,0,0,true,q,false,true,0.0-2.0-0.2-0.25-3.25,0,0,0,81,false,stim,false,-1,789,1,0,0,53294,task1,207202,false,false,235,image-keyboard-response,26
true,2,1,1,0,false,q,true,false,0.0-2.0-0.2-0.26-3.26,0,0,0,90,true,stim,false,2,943,1,0,2,53294,task1,209666,false,false,238,image-keyboard-response,1
true,2,0,1,2,false,d,false,false,0.0-2.0-0.3-0.27-3.27,0,0,0,81,false,stim,true,0,878,1,0,0,53294,task1,212058,false,false,241,image-keyboard-response,2
true,2,2,1,0,false,q,false,false,0.0-2.0-0.3-0.28-3.28,0,0,0,68,false,stim,true,2,1380,1,0,2,53294,task1,214954,false,false,244,image-keyboard-response,3
true,2,2,1,0,false,q,false,false,0.0-2.0-0.3-0.29-3.29,0,0,0,68,false,stim,true,2,814,1,0,1,53294,task1,217290,false,false,247,image-keyboard-response,4
true,2,1,1,0,false,q,true,false,0.0-2.0-0.3-0.30-3.30,0,0,0,90,false,stim,false,2,582,1,0,1,53294,task1,219387,false,false,250,image-keyboard-response,5
true,2,0,1,0,true,q,false,true,0.0-2.0-0.3-0.31-3.31,0,0,0,81,false,stim,false,2,697,1,0,2,53294,task1,221602,false,false,253,image-keyboard-response,6
true,2,0,1,0,true,q,false,true,0.0-2.0-0.3-0.32-3.32,0,0,0,81,false,stim,false,2,1028,1,0,1,53294,task1,224154,false,false,256,image-keyboard-response,7
true,2,0,1,2,false,d,false,false,0.0-2.0-0.3-0.33-3.33,0,0,0,81,false,stim,true,0,945,1,0,0,53294,task1,226618,false,false,259,image-keyboard-response,8
true,2,1,1,2,false,d,true,false,0.0-2.0-0.3-0.34-3.34,0,0,0,90,false,stim,false,0,642,1,0,0,53294,task1,228786,false,false,262,image-keyboard-response,9
true,2,0,1,0,true,q,false,true,0.0-2.0-0.3-0.35-3.35,0,0,0,81,false,stim,false,2,607,1,0,2,53294,task1,230922,false,false,265,image-keyboard-response,10
true,2,0,1,0,true,q,false,true,0.0-2.0-0.4-0.36-3.36,0,0,0,81,false,stim,false,2,399,1,0,1,53294,task1,232842,false,false,268,image-keyboard-response,11
true,2,2,1,0,false,q,false,false,0.0-2.0-0.4-0.37-3.37,0,0,0,68,false,stim,true,2,529,1,0,2,53294,task1,234890,false,false,271,image-keyboard-response,12
true,2,2,1,2,true,d,false,true,0.0-2.0-0.4-0.38-3.38,0,0,0,68,false,stim,false,0,701,1,0,0,53294,task1,237114,false,false,274,image-keyboard-response,13
true,2,0,1,0,true,q,false,false,0.0-2.0-0.4-0.39-3.39,0,0,0,81,false,stim,false,2,367,1,0,2,53294,task1,239002,false,true,277,image-keyboard-response,14
true,2,0,1,0,true,q,false,true,0.0-2.0-0.4-0.40-3.40,0,0,0,81,false,stim,false,2,486,1,0,2,53294,task1,241010,false,false,280,image-keyboard-response,15
true,2,0,1,0,true,q,false,true,0.0-2.0-0.4-0.41-3.41,0,0,0,81,false,stim,false,2,406,1,0,1,53294,task1,242938,false,false,283,image-keyboard-response,16
true,2,2,1,2,true,d,false,true,0.0-2.0-0.4-0.42-3.42,0,0,0,68,false,stim,false,0,444,1,0,0,53294,task1,244906,false,false,286,image-keyboard-response,17
true,2,0,1,0,true,q,false,true,0.0-2.0-0.4-0.43-3.43,0,0,0,81,false,stim,false,2,323,1,0,1,53294,task1,246754,false,false,289,image-keyboard-response,18
true,2,0,1,2,false,d,false,false,0.0-2.0-0.4-0.44-3.44,0,0,0,81,false,stim,true,0,482,1,0,0,53294,task1,248762,false,false,292,image-keyboard-response,19
true,2,2,1,2,true,d,false,true,0.0-2.0-0.5-0.45-3.45,0,0,0,68,false,stim,false,0,400,1,0,0,53294,task1,250690,false,false,295,image-keyboard-response,20
true,2,0,1,0,true,q,false,true,0.0-2.0-0.5-0.46-3.46,0,0,0,81,false,stim,false,2,432,1,0,1,53294,task1,252650,false,false,298,image-keyboard-response,21
true,2,2,1,2,true,d,false,true,0.0-2.0-0.5-0.47-3.47,0,0,0,68,false,stim,false,0,620,1,0,0,53294,task1,254802,false,false,301,image-keyboard-response,22
true,2,0,1,0,true,q,false,true,0.0-2.0-0.5-0.48-3.48,0,0,0,81,false,stim,false,2,387,1,0,2,53294,task1,256707,false,false,304,image-keyboard-response,23
true,2,0,1,0,true,q,false,true,0.0-2.0-0.5-0.49-3.49,0,0,0,81,false,stim,false,2,612,1,0,2,53294,task1,258842,false,false,307,image-keyboard-response,24
true,2,0,1,0,true,q,false,false,0.0-2.0-0.5-0.50-3.50,0,0,0,81,false,stim,false,2,590,1,0,2,53294,task1,260962,false,true,310,image-keyboard-response,25
true,2,0,1,0,true,q,false,true,0.0-2.0-0.5-0.51-3.51,0,0,0,81,false,stim,false,2,610,1,0,1,53294,task1,263090,false,false,313,image-keyboard-response,26
true,2,2,1,2,true,d,false,true,0.0-2.0-0.5-0.52-3.52,0,0,0,68,false,stim,false,0,414,1,0,0,53294,task1,265018,false,false,316,image-keyboard-response,27
true,2,0,1,0,true,q,false,true,0.0-2.0-0.5-0.53-3.53,0,0,0,81,false,stim,false,2,475,1,0,1,53294,task1,267018,false,false,319,image-keyboard-response,28
true,2,0,1,0,true,q,false,false,0.0-2.0-0.6-0.54-3.54,0,0,0,81,false,stim,false,2,483,1,0,1,53294,task1,269026,false,true,322,image-keyboard-response,29
true,2,2,1,2,true,d,false,true,0.0-2.0-0.6-0.55-3.55,0,0,0,68,false,stim,false,0,649,1,0,0,53294,task1,271203,false,false,325,image-keyboard-response,30
true,2,0,1,0,true,q,false,true,0.0-2.0-0.6-0.56-3.56,0,0,0,81,false,stim,false,2,704,1,0,2,53294,task1,273426,false,false,328,image-keyboard-response,31
true,2,2,1,2,true,d,false,true,0.0-2.0-0.6-0.57-3.57,0,0,0,68,false,stim,false,0,636,1,0,0,53294,task1,275578,false,false,331,image-keyboard-response,32
true,2,0,1,0,true,q,false,true,0.0-2.0-0.6-0.58-3.58,0,0,0,81,false,stim,false,2,610,1,0,1,53294,task1,277714,false,false,334,image-keyboard-response,33
true,2,0,1,0,true,q,false,true,0.0-2.0-0.6-0.59-3.59,0,0,0,81,false,stim,false,2,499,1,0,2,53294,task1,279738,false,false,337,image-keyboard-response,34
true,2,0,1,0,true,q,false,true,0.0-2.0-0.6-0.60-3.60,0,0,0,81,false,stim,false,2,538,1,0,2,53294,task1,281794,false,false,340,image-keyboard-response,35
true,2,2,1,2,true,d,false,true,0.0-2.0-0.6-0.61-3.61,0,0,0,68,false,stim,false,0,749,1,0,0,53294,task1,284058,false,false,343,image-keyboard-response,36
true,2,0,1,0,true,q,false,true,0.0-2.0-0.6-0.62-3.62,0,0,0,81,false,stim,false,2,1548,1,0,1,53294,task1,287122,false,false,346,image-keyboard-response,37
true,2,0,1,0,true,q,false,true,0.0-2.0-0.7-0.63-3.63,0,0,0,81,false,stim,false,2,1047,1,0,2,53294,task1,289690,false,false,349,image-keyboard-response,38
true,2,0,1,0,true,q,false,true,0.0-2.0-0.7-0.64-3.64,0,0,0,81,false,stim,false,2,682,1,0,1,53294,task1,291898,false,false,352,image-keyboard-response,39
true,2,0,1,0,true,q,false,true,0.0-2.0-0.7-0.65-3.65,0,0,0,81,false,stim,false,2,375,1,0,2,53294,task1,293794,false,false,355,image-keyboard-response,40
true,2,2,1,2,true,d,false,true,0.0-2.0-0.7-0.66-3.66,0,0,0,68,false,stim,false,0,394,1,0,0,53294,task1,295706,false,false,358,image-keyboard-response,41
true,2,2,1,2,true,d,false,true,0.0-2.0-0.7-0.67-3.67,0,0,0,68,false,stim,false,0,491,1,0,0,53294,task1,297722,false,false,361,image-keyboard-response,42
true,2,0,1,0,true,q,false,true,0.0-2.0-0.7-0.68-3.68,0,0,0,81,false,stim,false,2,670,1,0,2,53294,task1,299906,false,false,364,image-keyboard-response,43
true,2,2,1,2,true,d,false,true,0.0-2.0-0.7-0.69-3.69,0,0,0,68,false,stim,false,0,637,1,0,0,53294,task1,302066,false,false,367,image-keyboard-response,44
true,2,0,1,0,true,q,false,true,0.0-2.0-0.7-0.70-3.70,0,0,0,81,false,stim,false,2,948,1,0,1,53294,task1,304538,false,false,370,image-keyboard-response,45
true,3,0,1,2,false,d,false,false,0.0-2.0-0.7-0.71-3.71,0,0,0,81,true,stim,true,0,484,1,0,1,53294,task1,306546,false,false,373,image-keyboard-response,1
true,3,0,1,1,false,z,false,false,0.0-2.0-0.8-0.72-3.72,0,0,0,81,false,stim,true,0,332,1,0,2,53294,task1,308394,false,false,376,image-keyboard-response,2
true,3,0,1,2,false,d,false,false,0.0-2.0-0.8-0.73-3.73,0,0,0,81,false,stim,true,0,628,1,0,1,53294,task1,310538,false,false,379,image-keyboard-response,3
true,3,1,1,2,false,d,true,false,0.0-2.0-0.8-0.74-3.74,0,0,0,90,false,stim,false,0,480,1,0,1,53294,task1,312538,false,false,382,image-keyboard-response,4
true,3,2,1,1,false,z,false,false,0.0-2.0-0.8-0.75-3.75,0,0,0,68,false,stim,true,2,541,1,0,0,53294,task1,314602,false,false,385,image-keyboard-response,5
true,3,1,1,1,true,z,false,true,0.0-2.0-0.8-0.76-3.76,0,0,0,90,false,stim,false,2,839,1,0,0,53294,task1,316961,false,false,388,image-keyboard-response,6
true,3,1,1,1,true,z,false,true,0.0-2.0-0.8-0.77-3.77,0,0,0,90,false,stim,false,2,637,1,0,0,53294,task1,319122,false,false,391,image-keyboard-response,7
true,3,0,1,1,false,z,false,false,0.0-2.0-0.8-0.78-3.78,0,0,0,81,false,stim,true,0,1245,1,0,2,53294,task1,321882,false,false,394,image-keyboard-response,8
true,3,2,1,2,true,d,false,true,0.0-2.0-0.8-0.79-3.79,0,0,0,68,false,stim,false,0,1933,1,0,1,53294,task1,325337,false,false,397,image-keyboard-response,9
true,3,2,1,1,false,z,true,true,0.0-2.0-0.8-0.80-3.80,0,0,0,68,false,stim,false,0,681,1,0,2,53294,task1,327546,false,true,400,image-keyboard-response,10
true,3,1,1,1,true,z,false,true,0.0-2.0-0.9-0.81-3.81,0,0,0,90,false,stim,false,2,759,1,0,0,53294,task1,329826,false,false,403,image-keyboard-response,11
true,3,1,1,1,true,z,false,true,0.0-2.0-0.9-0.82-3.82,0,0,0,90,false,stim,false,2,593,1,0,0,53294,task1,331938,false,false,406,image-keyboard-response,12
true,3,2,1,1,false,z,true,false,0.0-2.0-0.9-0.83-3.83,0,0,0,68,false,stim,false,0,501,1,0,2,53294,task1,333970,false,false,409,image-keyboard-response,13
true,3,2,1,2,true,d,false,true,0.0-2.0-0.9-0.84-3.84,0,0,0,68,false,stim,false,0,365,1,0,1,53294,task1,335858,false,false,412,image-keyboard-response,14
true,3,1,1,1,true,z,false,true,0.0-2.0-0.9-0.85-3.85,0,0,0,90,false,stim,false,2,627,1,0,0,53294,task1,338002,false,false,415,image-keyboard-response,15
true,3,2,1,1,false,z,true,false,0.0-2.0-0.9-0.86-3.86,0,0,0,68,false,stim,false,0,371,1,0,2,53294,task1,339891,false,false,418,image-keyboard-response,16
true,3,2,1,2,true,d,false,true,0.0-2.0-0.9-0.87-3.87,0,0,0,68,false,stim,false,0,663,1,0,1,53294,task1,342073,false,false,421,image-keyboard-response,17
true,3,2,1,2,true,d,false,true,0.0-2.0-0.9-0.88-3.88,0,0,0,68,false,stim,false,0,607,1,0,1,53294,task1,344202,false,false,424,image-keyboard-response,18
true,3,1,1,1,true,z,false,true,0.0-2.0-0.9-0.89-3.89,0,0,0,90,false,stim,false,0,624,1,0,2,53294,task1,346354,false,false,427,image-keyboard-response,19
true,3,2,1,2,true,d,false,false,0.0-2.0-0.10-0.90-3.90,0,0,0,68,false,stim,false,0,790,1,0,1,53294,task1,348666,false,true,430,image-keyboard-response,20
true,3,1,1,1,true,z,false,true,0.0-2.0-0.10-0.91-3.91,0,0,0,90,false,stim,false,0,1198,1,0,2,53294,task1,351385,false,false,433,image-keyboard-response,21
true,3,1,1,1,true,z,false,true,0.0-2.0-0.10-0.92-3.92,0,0,0,90,false,stim,false,2,332,1,0,0,53294,task1,353241,false,false,436,image-keyboard-response,22
true,3,2,1,1,false,z,true,false,0.0-2.0-0.10-0.93-3.93,0,0,0,68,false,stim,false,0,993,1,0,2,53294,task1,355754,false,false,439,image-keyboard-response,23
true,3,2,1,2,true,d,false,true,0.0-2.0-0.10-0.94-3.94,0,0,0,68,false,stim,false,0,548,1,0,1,53294,task1,357826,false,false,442,image-keyboard-response,24
true,3,1,1,1,true,z,false,true,0.0-2.0-0.10-0.95-3.95,0,0,0,90,false,stim,false,2,676,1,0,0,53294,task1,360018,false,false,445,image-keyboard-response,25
true,3,2,1,2,true,d,false,true,0.0-2.0-0.10-0.96-3.96,0,0,0,68,false,stim,false,0,609,1,0,1,53294,task1,362146,false,false,448,image-keyboard-response,26
true,3,1,1,1,true,z,false,true,0.0-2.0-0.10-0.97-3.97,0,0,0,90,false,stim,false,0,361,1,0,2,53294,task1,364034,false,false,451,image-keyboard-response,27
true,3,1,1,1,true,z,false,true,0.0-2.0-0.10-0.98-3.98,0,0,0,90,false,stim,false,2,372,1,0,0,53294,task1,365930,false,false,454,image-keyboard-response,28
true,3,1,1,1,true,z,false,false,0.0-2.0-0.11-0.99-3.99,0,0,0,90,false,stim,false,2,383,1,0,0,53294,task1,367842,false,true,457,image-keyboard-response,29
true,3,2,1,2,true,d,false,true,0.0-2.0-0.11-0.100-3.100,0,0,0,68,false,stim,false,0,749,1,0,1,53294,task1,370114,false,false,460,image-keyboard-response,30
true,3,1,1,1,true,z,false,true,0.0-2.0-0.11-0.101-3.101,0,0,0,90,false,stim,false,2,460,1,0,0,53294,task1,372098,false,false,463,image-keyboard-response,31
true,3,1,1,1,true,z,false,true,0.0-2.0-0.11-0.102-3.102,0,0,0,90,false,stim,false,0,504,1,0,2,53294,task1,374130,false,false,466,image-keyboard-response,32
true,3,1,1,1,true,z,false,true,0.0-2.0-0.11-0.103-3.103,0,0,0,90,false,stim,false,0,595,1,0,2,53294,task1,376242,false,false,469,image-keyboard-response,33
true,3,1,1,1,true,z,false,true,0.0-2.0-0.11-0.104-3.104,0,0,0,90,false,stim,false,0,406,1,0,2,53294,task1,378170,false,false,472,image-keyboard-response,34
true,3,2,1,2,true,d,false,true,0.0-2.0-0.11-0.105-3.105,0,0,0,68,false,stim,false,0,1214,1,0,1,53294,task1,380906,false,false,475,image-keyboard-response,35
true,3,1,1,1,true,z,false,true,0.0-2.0-0.11-0.106-3.106,0,0,0,90,false,stim,false,2,643,1,0,0,53294,task1,383073,false,false,478,image-keyboard-response,36
true,3,2,1,2,true,d,false,true,0.0-2.0-0.11-0.107-3.107,0,0,0,68,false,stim,false,0,1185,1,0,1,53294,task1,385761,false,false,481,image-keyboard-response,37
true,3,1,1,1,true,z,false,true,0.0-2.0-0.12-0.108-3.108,0,0,0,90,false,stim,false,0,936,1,0,2,53294,task1,388218,false,false,484,image-keyboard-response,38
true,3,1,1,1,true,z,false,true,0.0-2.0-0.12-0.109-3.109,0,0,0,90,false,stim,false,0,608,1,0,2,53294,task1,390346,false,false,487,image-keyboard-response,39
true,3,2,1,2,true,d,false,true,0.0-2.0-0.12-0.110-3.110,0,0,0,68,false,stim,false,0,713,1,0,1,53294,task1,392578,false,false,490,image-keyboard-response,40
true,3,1,1,1,true,z,false,true,0.0-2.0-0.12-0.111-3.111,0,0,0,90,false,stim,false,2,545,1,0,0,53294,task1,394649,false,false,493,image-keyboard-response,41
true,4,2,2,0,false,q,true,false,0.0-2.0-0.12-0.112-3.112,0,0,0,68,true,stim,false,1,1103,1,0,2,53294,task1,397282,false,false,496,image-keyboard-response,1
true,4,1,2,2,false,d,false,false,0.0-2.0-0.12-0.113-3.113,0,0,0,90,false,stim,true,1,583,1,0,0,53294,task1,399386,false,false,499,image-keyboard-response,2
true,4,2,2,0,false,q,false,false,0.0-2.0-0.12-0.114-3.114,0,0,0,68,false,stim,true,2,744,1,0,1,53294,task1,401642,false,false,502,image-keyboard-response,3
true,4,1,2,0,false,q,true,false,0.0-2.0-0.12-0.115-3.115,0,0,0,90,false,stim,false,2,706,1,0,1,53294,task1,403873,false,false,505,image-keyboard-response,4
true,4,1,2,2,false,d,false,false,0.0-2.0-0.12-0.116-3.116,0,0,0,90,false,stim,true,1,959,1,0,0,53294,task1,406353,false,false,508,image-keyboard-response,5
true,4,0,2,0,true,q,false,true,0.0-2.0-0.13-0.117-3.117,0,0,0,81,false,stim,false,1,1001,1,0,2,53294,task1,408882,false,false,511,image-keyboard-response,6
true,4,2,2,2,true,d,false,true,0.0-2.0-0.13-0.118-3.118,0,0,0,68,false,stim,false,1,1025,1,0,0,53294,task1,411434,false,false,514,image-keyboard-response,7
true,4,0,2,0,true,q,false,false,0.0-2.0-0.13-0.119-3.119,0,0,0,81,false,stim,false,1,1342,1,0,2,53294,task1,414306,false,true,517,image-keyboard-response,8
true,4,1,2,0,false,q,true,true,0.0-2.0-0.13-0.120-3.120,0,0,0,90,false,stim,false,2,1352,1,0,1,53294,task1,417186,false,true,520,image-keyboard-response,9
true,4,1,2,0,false,q,true,false,0.0-2.0-0.13-0.121-3.121,0,0,0,90,false,stim,false,2,788,1,0,1,53294,task1,419498,false,false,523,image-keyboard-response,10
true,4,2,2,2,true,d,false,false,0.0-2.0-0.13-0.122-3.122,0,0,0,68,false,stim,false,1,1058,1,0,0,53294,task1,422082,false,true,526,image-keyboard-response,11
true,4,1,2,0,false,q,true,false,0.0-2.0-0.13-0.123-3.123,0,0,0,90,false,stim,false,2,1532,1,0,1,53294,task1,425130,false,false,529,image-keyboard-response,12
true,4,0,2,0,true,q,false,true,0.0-2.0-0.13-0.124-3.124,0,0,0,81,false,stim,false,1,479,1,0,2,53294,task1,427137,false,false,532,image-keyboard-response,13
true,4,2,2,2,true,d,false,false,0.0-2.0-0.13-0.125-3.125,0,0,0,68,false,stim,false,1,1063,1,0,0,53294,task1,429729,false,true,535,image-keyboard-response,14
true,4,2,2,0,false,q,true,false,0.0-2.0-0.14-0.126-3.126,0,0,0,68,false,stim,false,1,1546,1,0,2,53294,task1,432794,false,false,538,image-keyboard-response,15
true,4,0,2,0,true,q,false,true,0.0-2.0-0.14-0.127-3.127,0,0,0,81,false,stim,false,2,1266,1,0,1,53294,task1,435578,false,false,541,image-keyboard-response,16
true,4,0,2,2,false,d,true,false,0.0-2.0-0.14-0.128-3.128,0,0,0,81,false,stim,false,1,303,1,0,0,53294,task1,437402,false,false,544,image-keyboard-response,17
true,4,0,2,2,false,d,true,false,0.0-2.0-0.14-0.129-3.129,0,0,0,81,false,stim,false,1,335,1,0,0,53294,task1,439258,false,false,547,image-keyboard-response,18
true,4,0,2,0,true,q,false,true,0.0-2.0-0.14-0.130-3.130,0,0,0,81,false,stim,false,1,573,1,0,2,53294,task1,441345,false,false,550,image-keyboard-response,19
true,4,1,2,2,false,d,false,false,0.0-2.0-0.14-0.131-3.131,0,0,0,90,false,stim,true,1,909,1,0,0,53294,task1,443770,false,false,553,image-keyboard-response,20
true,4,0,2,0,true,q,false,true,0.0-2.0-0.14-0.132-3.132,0,0,0,81,false,stim,false,2,1140,1,0,1,53294,task1,446426,false,false,556,image-keyboard-response,21
true,4,0,2,0,true,q,false,true,0.0-2.0-0.14-0.133-3.133,0,0,0,81,false,stim,false,2,590,1,0,1,53294,task1,448530,false,false,559,image-keyboard-response,22
true,4,0,2,0,true,q,false,true,0.0-2.0-0.14-0.134-3.134,0,0,0,81,false,stim,false,1,367,1,0,2,53294,task1,450417,false,false,562,image-keyboard-response,23
true,4,0,2,0,true,q,false,true,0.0-2.0-0.15-0.135-3.135,0,0,0,81,false,stim,false,1,798,1,0,2,53294,task1,452729,false,false,565,image-keyboard-response,24
true,4,2,2,2,true,d,false,true,0.0-2.0-0.15-0.136-3.136,0,0,0,68,false,stim,false,1,538,1,0,0,53294,task1,454786,false,false,568,image-keyboard-response,25
true,4,2,2,2,true,d,false,true,0.0-2.0-0.15-0.137-3.137,0,0,0,68,false,stim,false,1,729,1,0,0,53294,task1,457034,false,false,571,image-keyboard-response,26
true,4,2,2,2,true,d,false,true,0.0-2.0-0.15-0.138-3.138,0,0,0,68,false,stim,false,1,396,1,0,0,53294,task1,458954,false,false,574,image-keyboard-response,27
true,4,0,2,0,true,q,false,true,0.0-2.0-0.15-0.139-3.139,0,0,0,81,false,stim,false,2,619,1,0,1,53294,task1,461098,false,false,577,image-keyboard-response,28
true,4,0,2,0,true,q,false,true,0.0-2.0-0.15-0.140-3.140,0,0,0,81,false,stim,false,2,592,1,0,1,53294,task1,463218,false,false,580,image-keyboard-response,29
true,4,0,2,0,true,q,false,true,0.0-2.0-0.15-0.141-3.141,0,0,0,81,false,stim,false,1,913,1,0,2,53294,task1,465650,false,false,583,image-keyboard-response,30
true,4,0,2,0,true,q,false,true,0.0-2.0-0.15-0.142-3.142,0,0,0,81,false,stim,false,2,615,1,0,1,53294,task1,467785,false,false,586,image-keyboard-response,31
true,4,0,2,0,true,q,false,true,0.0-2.0-0.15-0.143-3.143,0,0,0,81,false,stim,false,1,620,1,0,2,53294,task1,469930,false,false,589,image-keyboard-response,32
true,4,2,2,2,true,d,false,true,0.0-2.0-0.16-0.144-3.144,0,0,0,68,false,stim,false,1,892,1,0,0,53294,task1,472345,false,false,592,image-keyboard-response,33
true,4,2,2,2,true,d,false,true,0.0-2.0-0.16-0.145-3.145,0,0,0,68,false,stim,false,1,724,1,0,0,53294,task1,474586,false,false,595,image-keyboard-response,34
true,4,0,2,0,true,q,false,true,0.0-2.0-0.16-0.146-3.146,0,0,0,81,false,stim,false,2,729,1,0,1,53294,task1,476833,false,false,598,image-keyboard-response,35
true,4,0,2,0,true,q,false,true,0.0-2.0-0.16-0.147-3.147,0,0,0,81,false,stim,false,2,532,1,0,1,53294,task1,478882,false,false,601,image-keyboard-response,36
true,4,0,2,0,true,q,false,true,0.0-2.0-0.16-0.148-3.148,0,0,0,81,false,stim,false,1,488,1,0,2,53294,task1,480890,false,false,604,image-keyboard-response,37
true,4,2,2,2,true,d,false,true,0.0-2.0-0.16-0.149-3.149,0,0,0,68,false,stim,false,1,486,1,0,0,53294,task1,482890,false,false,607,image-keyboard-response,38
true,4,0,2,0,true,q,false,true,0.0-2.0-0.16-0.150-3.150,0,0,0,81,false,stim,false,2,844,1,0,1,53294,task1,485258,false,false,610,image-keyboard-response,39
true,4,0,2,0,true,q,false,true,0.0-2.0-0.16-0.151-3.151,0,0,0,81,false,stim,false,1,920,1,0,2,53294,task1,487706,false,false,613,image-keyboard-response,40
true,4,0,2,0,true,q,false,true,0.0-2.0-0.16-0.152-3.152,0,0,0,81,false,stim,false,1,878,1,0,2,53294,task1,490097,false,false,616,image-keyboard-response,41
true,4,2,2,2,true,d,false,true,0.0-2.0-0.17-0.153-3.153,0,0,0,68,false,stim,false,1,817,1,0,0,53294,task1,492442,false,false,619,image-keyboard-response,42
true,5,0,1,1,false,z,false,false,0.0-2.0-0.17-0.154-3.154,0,0,0,81,true,stim,true,0,714,1,0,1,53294,task1,494682,false,false,622,image-keyboard-response,1
true,5,0,1,2,false,d,false,false,0.0-2.0-0.17-0.155-3.155,0,0,0,81,false,stim,true,0,526,1,0,2,53294,task1,496729,false,false,625,image-keyboard-response,2
true,5,0,1,1,false,z,false,false,0.0-2.0-0.17-0.156-3.156,0,0,0,81,false,stim,true,0,489,1,0,1,53294,task1,498746,false,false,628,image-keyboard-response,3
true,5,0,1,2,false,d,false,false,0.0-2.0-0.17-0.157-3.157,0,0,0,81,false,stim,true,0,687,1,0,2,53294,task1,500962,false,false,631,image-keyboard-response,4
true,5,1,1,1,true,z,false,true,0.0-2.0-0.17-0.158-3.158,0,0,0,90,false,stim,false,0,434,1,0,1,53294,task1,502914,false,false,634,image-keyboard-response,5
true,5,2,1,0,false,q,false,false,0.0-2.0-0.17-0.159-3.159,0,0,0,68,false,stim,true,2,540,1,0,0,53294,task1,504977,false,false,637,image-keyboard-response,6
true,5,1,1,2,false,d,true,true,0.0-2.0-0.17-0.160-3.160,0,0,0,90,false,stim,false,0,878,1,0,2,53294,task1,507370,false,true,640,image-keyboard-response,7
true,5,1,1,0,false,q,true,false,0.0-2.0-0.17-0.161-3.161,0,0,0,90,false,stim,false,2,1575,1,0,0,53294,task1,510457,false,false,643,image-keyboard-response,8
true,5,1,1,2,false,d,true,false,0.0-2.0-0.18-0.162-3.162,0,0,0,90,false,stim,false,0,717,1,0,2,53294,task1,512690,false,false,646,image-keyboard-response,9
true,5,1,1,1,true,z,false,true,0.0-2.0-0.18-0.163-3.163,0,0,0,90,false,stim,false,0,372,1,0,1,53294,task1,514586,false,false,649,image-keyboard-response,10
true,5,1,1,2,false,d,true,false,0.0-2.0-0.18-0.164-3.164,0,0,0,90,false,stim,false,0,420,1,0,2,53294,task1,516530,false,false,652,image-keyboard-response,11
true,5,0,1,0,true,q,false,true,0.0-2.0-0.18-0.165-3.165,0,0,0,81,false,stim,false,2,645,1,0,0,53294,task1,518706,false,false,655,image-keyboard-response,12
true,5,1,1,1,true,z,false,true,0.0-2.0-0.18-0.166-3.166,0,0,0,90,false,stim,false,0,1101,1,0,1,53294,task1,521330,false,false,658,image-keyboard-response,13
true,5,0,1,0,true,q,false,true,0.0-2.0-0.18-0.167-3.167,0,0,0,81,false,stim,false,2,644,1,0,0,53294,task1,523498,false,false,661,image-keyboard-response,14
true,5,2,1,2,true,d,false,true,0.0-2.0-0.18-0.168-3.168,0,0,0,68,false,stim,false,0,751,1,0,2,53294,task1,525761,false,false,664,image-keyboard-response,15
true,5,1,1,1,true,z,false,true,0.0-2.0-0.18-0.169-3.169,0,0,0,90,false,stim,false,0,841,1,0,1,53294,task1,528121,false,false,667,image-keyboard-response,16
true,5,0,1,0,true,q,false,true,0.0-2.0-0.18-0.170-3.170,0,0,0,81,false,stim,false,2,1154,1,0,0,53294,task1,530794,false,false,670,image-keyboard-response,17
true,5,1,1,1,true,z,false,true,0.0-2.0-0.19-0.171-3.171,0,0,0,90,false,stim,false,0,772,1,0,1,53294,task1,533081,false,false,673,image-keyboard-response,18
true,5,2,1,2,true,d,false,true,0.0-2.0-0.19-0.172-3.172,0,0,0,68,false,stim,false,0,1226,1,0,2,53294,task1,535825,false,false,676,image-keyboard-response,19
true,5,0,1,0,true,q,false,true,0.0-2.0-0.19-0.173-3.173,0,0,0,81,false,stim,false,2,644,1,0,0,53294,task1,537993,false,false,679,image-keyboard-response,20
true,5,0,1,0,true,q,false,true,0.0-2.0-0.19-0.174-3.174,0,0,0,81,false,stim,false,2,622,1,0,0,53294,task1,540138,false,false,682,image-keyboard-response,21
true,5,2,1,2,true,d,false,true,0.0-2.0-0.19-0.175-3.175,0,0,0,68,false,stim,false,0,1925,1,0,2,53294,task1,543586,false,false,685,image-keyboard-response,22
true,5,1,1,1,true,z,false,true,0.0-2.0-0.19-0.176-3.176,0,0,0,90,false,stim,false,0,951,1,0,1,53294,task1,546058,false,false,688,image-keyboard-response,23
true,5,0,1,0,true,q,false,true,0.0-2.0-0.19-0.177-3.177,0,0,0,81,false,stim,false,2,776,1,0,0,53294,task1,548353,false,false,691,image-keyboard-response,24
true,5,1,1,1,true,z,false,true,0.0-2.0-0.19-0.178-3.178,0,0,0,90,false,stim,false,0,653,1,0,1,53294,task1,550530,false,false,694,image-keyboard-response,25
true,5,2,1,2,true,d,false,true,0.0-2.0-0.19-0.179-3.179,0,0,0,68,false,stim,false,0,446,1,0,2,53294,task1,552497,false,false,697,image-keyboard-response,26
true,5,1,1,1,true,z,false,false,0.0-2.0-0.20-0.180-3.180,0,0,0,90,false,stim,false,0,905,1,0,1,53294,task1,554930,false,true,700,image-keyboard-response,27
true,5,0,1,0,true,q,false,true,0.0-2.0-0.20-0.181-3.181,0,0,0,81,false,stim,false,2,399,1,0,0,53294,task1,556841,false,false,703,image-keyboard-response,28
true,5,0,1,0,true,q,false,true,0.0-2.0-0.20-0.182-3.182,0,0,0,81,false,stim,false,2,680,1,0,0,53294,task1,559050,false,false,706,image-keyboard-response,29
true,5,2,1,2,true,d,false,true,0.0-2.0-0.20-0.183-3.183,0,0,0,68,false,stim,false,0,719,1,0,2,53294,task1,561281,false,false,709,image-keyboard-response,30
true,5,1,1,1,true,z,false,true,0.0-2.0-0.20-0.184-3.184,0,0,0,90,false,stim,false,0,393,1,0,1,53294,task1,563193,false,false,712,image-keyboard-response,31
true,5,0,1,0,true,q,false,true,0.0-2.0-0.20-0.185-3.185,0,0,0,81,false,stim,false,2,435,1,0,0,53294,task1,565146,false,false,715,image-keyboard-response,32
true,5,2,1,2,true,d,false,true,0.0-2.0-0.20-0.186-3.186,0,0,0,68,false,stim,false,0,916,1,0,2,53294,task1,567585,false,false,718,image-keyboard-response,33
true,5,1,1,1,true,z,false,true,0.0-2.0-0.20-0.187-3.187,0,0,0,90,false,stim,false,0,2282,1,0,1,53294,task1,571385,false,false,721,image-keyboard-response,34
true,5,2,1,2,true,d,false,true,0.0-2.0-0.20-0.188-3.188,0,0,0,68,false,stim,false,0,730,1,0,2,53294,task1,573642,false,false,724,image-keyboard-response,35
true,5,0,1,0,true,q,false,true,0.0-2.0-0.21-0.189-3.189,0,0,0,81,false,stim,false,2,439,1,0,0,53294,task1,575602,false,false,727,image-keyboard-response,36
true,5,2,1,2,true,d,false,true,0.0-2.0-0.21-0.190-3.190,0,0,0,68,false,stim,false,0,888,1,0,2,53294,task1,578008,false,false,730,image-keyboard-response,37
true,5,2,1,2,true,d,false,true,0.0-2.0-0.21-0.191-3.191,0,0,0,68,false,stim,false,0,665,1,0,2,53294,task1,580193,false,false,733,image-keyboard-response,38
true,5,2,1,2,true,d,false,true,0.0-2.0-0.21-0.192-3.192,0,0,0,68,false,stim,false,0,689,1,0,2,53294,task1,582410,false,false,736,image-keyboard-response,39
true,6,0,1,2,false,d,false,false,0.0-2.0-0.21-0.193-3.193,0,0,0,81,true,stim,true,0,612,1,0,0,53294,task1,584545,false,false,739,image-keyboard-response,1
true,6,1,1,2,false,d,false,false,0.0-2.0-0.21-0.194-3.194,0,0,0,90,false,stim,true,1,830,1,0,1,53294,task1,586890,false,false,742,image-keyboard-response,2
true,6,1,1,2,false,d,false,false,0.0-2.0-0.21-0.195-3.195,0,0,0,90,false,stim,true,1,498,1,0,1,53294,task1,588906,false,false,745,image-keyboard-response,3
true,6,0,1,2,false,d,false,false,0.0-2.0-0.21-0.196-3.196,0,0,0,81,false,stim,true,0,684,1,0,0,53294,task1,591113,false,false,748,image-keyboard-response,4
true,6,2,1,2,true,d,false,true,0.0-2.0-0.21-0.197-3.197,0,0,0,68,false,stim,false,1,857,1,0,1,53294,task1,593497,false,false,751,image-keyboard-response,5
true,6,2,1,1,false,z,false,false,0.0-2.0-0.22-0.198-3.198,0,0,0,68,false,stim,true,2,448,1,0,2,53294,task1,595457,false,false,754,image-keyboard-response,6
true,6,1,1,1,true,z,false,true,0.0-2.0-0.22-0.199-3.199,0,0,0,90,false,stim,false,2,1018,1,0,2,53294,task1,598002,false,false,757,image-keyboard-response,7
true,6,2,1,2,true,d,false,true,0.0-2.0-0.22-0.200-3.200,0,0,0,68,false,stim,false,1,919,1,0,1,53294,task1,600434,false,false,760,image-keyboard-response,8
true,6,1,1,2,false,d,false,false,0.0-2.0-0.22-0.201-3.201,0,0,0,90,false,stim,true,1,2349,1,0,1,53294,task1,604314,false,false,763,image-keyboard-response,9
true,6,0,1,2,false,d,false,false,0.0-2.0-0.22-0.202-3.202,0,0,0,81,false,stim,true,0,886,1,0,0,53294,task1,606721,false,false,766,image-keyboard-response,10
true,6,1,1,2,false,d,true,false,0.0-2.0-0.22-0.203-3.203,0,0,0,90,false,stim,false,0,486,1,0,0,53294,task1,608729,false,false,769,image-keyboard-response,11
true,6,2,1,2,true,d,false,true,0.0-2.0-0.22-0.204-3.204,0,0,0,68,false,stim,false,1,1752,1,0,1,53294,task1,612001,false,false,772,image-keyboard-response,12
true,6,2,1,2,true,d,false,true,0.0-2.0-0.22-0.205-3.205,0,0,0,68,false,stim,false,0,1110,1,0,0,53294,task1,614634,false,false,775,image-keyboard-response,13
true,6,2,1,1,false,z,false,false,0.0-2.0-0.22-0.206-3.206,0,0,0,68,false,stim,true,2,953,1,0,2,53294,task1,617113,false,false,778,image-keyboard-response,14
true,6,2,1,2,true,d,false,true,0.0-2.0-0.23-0.207-3.207,0,0,0,68,false,stim,false,1,1256,1,0,1,53294,task1,619889,false,false,781,image-keyboard-response,15
true,6,2,1,2,true,d,false,true,0.0-2.0-0.23-0.208-3.208,0,0,0,68,false,stim,false,1,641,1,0,1,53294,task1,622050,false,false,784,image-keyboard-response,16
true,6,2,1,2,true,d,false,true,0.0-2.0-0.23-0.209-3.209,0,0,0,68,false,stim,false,0,1375,1,0,0,53294,task1,624946,false,false,787,image-keyboard-response,17
true,6,2,1,2,true,d,false,true,0.0-2.0-0.23-0.210-3.210,0,0,0,68,false,stim,false,0,868,1,0,0,53294,task1,627337,false,false,790,image-keyboard-response,18
true,6,2,1,2,true,d,false,true,0.0-2.0-0.23-0.211-3.211,0,0,0,68,false,stim,false,0,735,1,0,0,53294,task1,629593,false,false,793,image-keyboard-response,19
true,6,1,1,1,true,z,false,true,0.0-2.0-0.23-0.212-3.212,0,0,0,90,false,stim,false,2,564,1,0,2,53294,task1,631681,false,false,796,image-keyboard-response,20
true,6,2,1,2,true,d,false,true,0.0-2.0-0.23-0.213-3.213,0,0,0,68,false,stim,false,1,762,1,0,1,53294,task1,633961,false,false,799,image-keyboard-response,21
true,6,1,1,1,true,z,false,false,0.0-2.0-0.23-0.214-3.214,0,0,0,90,false,stim,false,2,1581,1,0,2,53294,task1,637065,false,true,802,image-keyboard-response,22
true,6,1,1,1,true,z,false,true,0.0-2.0-0.23-0.215-3.215,0,0,0,90,false,stim,false,2,541,1,0,2,53294,task1,639129,false,false,805,image-keyboard-response,23
true,6,1,1,2,false,d,false,false,0.0-2.0-0.24-0.216-3.216,0,0,0,90,false,stim,true,1,628,1,0,1,53294,task1,641282,false,false,808,image-keyboard-response,24
true,6,1,1,1,true,z,false,true,0.0-2.0-0.24-0.217-3.217,0,0,0,90,false,stim,false,2,550,1,0,2,53294,task1,643345,false,false,811,image-keyboard-response,25
true,6,2,1,2,true,d,false,true,0.0-2.0-0.24-0.218-3.218,0,0,0,68,false,stim,false,1,531,1,0,1,53294,task1,645393,false,false,814,image-keyboard-response,26
true,6,2,1,2,true,d,false,true,0.0-2.0-0.24-0.219-3.219,0,0,0,68,false,stim,false,0,450,1,0,0,53294,task1,647361,false,false,817,image-keyboard-response,27
true,6,1,1,1,true,z,false,true,0.0-2.0-0.24-0.220-3.220,0,0,0,90,false,stim,false,2,525,1,0,2,53294,task1,649402,false,false,820,image-keyboard-response,28
true,6,2,1,2,true,d,false,true,0.0-2.0-0.24-0.221-3.221,0,0,0,68,false,stim,false,0,905,1,0,0,53294,task1,651834,false,false,823,image-keyboard-response,29
true,6,2,1,2,true,d,false,true,0.0-2.0-0.24-0.222-3.222,0,0,0,68,false,stim,false,0,456,1,0,0,53294,task1,653816,false,false,826,image-keyboard-response,30
true,6,2,1,2,true,d,false,true,0.0-2.0-0.24-0.223-3.223,0,0,0,68,false,stim,false,1,1007,1,0,1,53294,task1,656337,false,false,829,image-keyboard-response,31
true,6,1,1,1,true,z,false,true,0.0-2.0-0.24-0.224-3.224,0,0,0,90,false,stim,false,2,499,1,0,2,53294,task1,658362,false,false,832,image-keyboard-response,32
true,6,1,1,1,true,z,false,true,0.0-2.0-0.25-0.225-3.225,0,0,0,90,false,stim,false,2,372,1,0,2,53294,task1,660258,false,false,835,image-keyboard-response,33
true,6,1,1,1,true,z,false,true,0.0-2.0-0.25-0.226-3.226,0,0,0,90,false,stim,false,2,642,1,0,2,53294,task1,662425,false,false,838,image-keyboard-response,34
true,6,1,1,1,true,z,false,true,0.0-2.0-0.25-0.227-3.227,0,0,0,90,false,stim,false,2,484,1,0,2,53294,task1,664425,false,false,841,image-keyboard-response,35
true,6,2,1,2,true,d,false,true,0.0-2.0-0.25-0.228-3.228,0,0,0,68,false,stim,false,1,580,1,0,1,53294,task1,666521,false,false,844,image-keyboard-response,36
true,6,2,1,2,true,d,false,true,0.0-2.0-0.25-0.229-3.229,0,0,0,68,false,stim,false,1,441,1,0,1,53294,task1,668482,false,false,847,image-keyboard-response,37
true,6,2,1,2,true,d,false,false,0.0-2.0-0.25-0.230-3.230,0,0,0,68,false,stim,false,1,560,1,0,1,53294,task1,670561,false,true,850,image-keyboard-response,38
true,6,1,1,2,false,d,true,false,0.0-2.0-0.25-0.231-3.231,0,0,0,90,false,stim,false,0,668,1,0,0,53294,task1,672761,false,false,853,image-keyboard-response,39
true,6,2,1,2,true,d,false,true,0.0-2.0-0.25-0.232-3.232,0,0,0,68,false,stim,false,0,700,1,0,0,53294,task1,674993,false,false,856,image-keyboard-response,40
true,6,2,1,2,true,d,false,true,0.0-2.0-0.25-0.233-3.233,0,0,0,68,false,stim,false,0,640,1,0,0,53294,task1,677138,false,false,859,image-keyboard-response,41
true,6,1,1,1,true,z,false,true,0.0-2.0-0.26-0.234-3.234,0,0,0,90,false,stim,false,2,790,1,0,2,53294,task1,679441,false,false,862,image-keyboard-response,42
true,6,2,1,2,true,d,false,true,0.0-2.0-0.26-0.235-3.235,0,0,0,68,false,stim,false,1,510,1,0,1,53294,task1,681458,false,false,865,image-keyboard-response,43
true,7,2,1,1,false,z,false,false,0.0-2.0-0.26-0.236-3.236,0,0,0,68,true,stim,true,2,673,1,0,0,53294,task1,683649,false,false,868,image-keyboard-response,1
true,7,1,1,2,false,d,false,false,0.0-2.0-0.26-0.237-3.237,0,0,0,90,false,stim,true,1,1838,1,0,2,53294,task1,687017,false,false,871,image-keyboard-response,2
true,7,0,1,1,false,z,true,false,0.0-2.0-0.26-0.238-3.238,0,0,0,81,false,stim,false,2,1110,1,0,0,53294,task1,689642,false,false,874,image-keyboard-response,3
true,7,1,1,1,true,z,false,true,0.0-2.0-0.26-0.239-3.239,0,0,0,90,false,stim,false,2,604,1,0,0,53294,task1,691777,false,false,877,image-keyboard-response,4
true,7,1,1,1,true,z,false,true,0.0-2.0-0.26-0.240-3.240,0,0,0,90,false,stim,false,2,1761,1,0,1,53294,task1,695057,false,false,880,image-keyboard-response,5
true,7,1,1,1,true,z,false,true,0.0-2.0-0.26-0.241-3.241,0,0,0,90,false,stim,false,2,745,1,0,1,53294,task1,697321,false,false,883,image-keyboard-response,6
true,7,2,1,2,true,d,false,true,0.0-2.0-0.26-0.242-3.242,0,0,0,68,false,stim,false,1,717,1,0,2,53294,task1,699562,false,false,886,image-keyboard-response,7
true,7,1,1,1,true,z,false,true,0.0-2.0-0.27-0.243-3.243,0,0,0,90,false,stim,false,2,598,1,0,1,53294,task1,701681,false,false,889,image-keyboard-response,8
true,7,1,1,1,true,z,false,true,0.0-2.0-0.27-0.244-3.244,0,0,0,90,false,stim,false,2,778,1,0,0,53294,task1,703977,false,false,892,image-keyboard-response,9
true,7,1,1,2,false,d,false,false,0.0-2.0-0.27-0.245-3.245,0,0,0,90,false,stim,true,1,510,1,0,2,53294,task1,706001,false,false,895,image-keyboard-response,10
true,7,1,1,1,true,z,false,true,0.0-2.0-0.27-0.246-3.246,0,0,0,90,false,stim,false,2,350,1,0,1,53294,task1,707873,false,false,898,image-keyboard-response,11
true,7,2,1,2,true,d,false,true,0.0-2.0-0.27-0.247-3.247,0,0,0,68,false,stim,false,1,415,1,0,2,53294,task1,709809,false,false,901,image-keyboard-response,12
true,7,1,1,1,true,z,false,false,0.0-2.0-0.27-0.248-3.248,0,0,0,90,false,stim,false,2,393,1,0,1,53294,task1,711730,false,true,904,image-keyboard-response,13
true,7,1,1,1,true,z,false,true,0.0-2.0-0.27-0.249-3.249,0,0,0,90,false,stim,false,2,742,1,0,0,53294,task1,713986,false,false,907,image-keyboard-response,14
true,7,1,1,1,true,z,false,true,0.0-2.0-0.27-0.250-3.250,0,0,0,90,false,stim,false,2,453,1,0,0,53294,task1,715961,false,false,910,image-keyboard-response,15
true,7,2,1,2,true,d,false,true,0.0-2.0-0.27-0.251-3.251,0,0,0,68,false,stim,false,1,606,1,0,2,53294,task1,718090,false,false,913,image-keyboard-response,16
true,7,2,1,2,true,d,false,true,0.0-2.0-0.28-0.252-3.252,0,0,0,68,false,stim,false,1,902,1,0,2,53294,task1,720513,false,false,916,image-keyboard-response,17
true,7,2,1,2,true,d,false,true,0.0-2.0-0.28-0.253-3.253,0,0,0,68,false,stim,false,1,601,1,0,2,53294,task1,722633,false,false,919,image-keyboard-response,18
true,7,1,1,1,true,z,false,true,0.0-2.0-0.28-0.254-3.254,0,0,0,90,false,stim,false,2,738,1,0,1,53294,task1,724881,false,false,922,image-keyboard-response,19
true,7,2,1,2,true,d,false,false,0.0-2.0-0.28-0.255-3.255,0,0,0,68,false,stim,false,1,676,1,0,2,53294,task1,727073,false,true,925,image-keyboard-response,20
true,7,1,1,1,true,z,false,true,0.0-2.0-0.28-0.256-3.256,0,0,0,90,false,stim,false,2,487,1,0,0,53294,task1,729073,false,false,928,image-keyboard-response,21
true,7,1,1,1,true,z,false,true,0.0-2.0-0.28-0.257-3.257,0,0,0,90,false,stim,false,2,481,1,0,0,53294,task1,731073,false,false,931,image-keyboard-response,22
true,7,1,1,1,true,z,false,true,0.0-2.0-0.28-0.258-3.258,0,0,0,90,false,stim,false,2,579,1,0,0,53294,task1,733169,false,false,934,image-keyboard-response,23
true,7,1,1,1,true,z,false,true,0.0-2.0-0.28-0.259-3.259,0,0,0,90,false,stim,false,2,374,1,0,1,53294,task1,735065,false,false,937,image-keyboard-response,24
true,7,1,1,1,true,z,false,true,0.0-2.0-0.28-0.260-3.260,0,0,0,90,false,stim,false,2,419,1,0,1,53294,task1,737001,false,false,940,image-keyboard-response,25
true,7,1,1,1,true,z,false,true,0.0-2.0-0.29-0.261-3.261,0,0,0,90,false,stim,false,2,720,1,0,0,53294,task1,739241,false,false,943,image-keyboard-response,26
true,7,2,1,2,true,d,false,true,0.0-2.0-0.29-0.262-3.262,0,0,0,68,false,stim,false,1,731,1,0,2,53294,task1,741497,false,false,946,image-keyboard-response,27
true,7,2,1,2,true,d,false,true,0.0-2.0-0.29-0.263-3.263,0,0,0,68,false,stim,false,1,641,1,0,2,53294,task1,743657,false,false,949,image-keyboard-response,28
true,7,1,1,1,true,z,false,true,0.0-2.0-0.29-0.264-3.264,0,0,0,90,false,stim,false,2,855,1,0,1,53294,task1,746033,false,false,952,image-keyboard-response,29
true,7,2,1,2,true,d,false,true,0.0-2.0-0.29-0.265-3.265,0,0,0,68,false,stim,false,1,1142,1,0,2,53294,task1,748697,false,false,955,image-keyboard-response,30
true,7,1,1,1,true,z,false,false,0.0-2.0-0.29-0.266-3.266,0,0,0,90,false,stim,false,2,563,1,0,0,53294,task1,750785,false,true,958,image-keyboard-response,31
true,7,1,1,1,true,z,false,true,0.0-2.0-0.29-0.267-3.267,0,0,0,90,false,stim,false,2,1662,1,0,1,53294,task1,753969,false,false,961,image-keyboard-response,32
true,7,1,1,1,true,z,false,true,0.0-2.0-0.29-0.268-3.268,0,0,0,90,false,stim,false,2,594,1,0,1,53294,task1,756089,false,false,964,image-keyboard-response,33
true,7,1,1,1,true,z,false,true,0.0-2.0-0.29-0.269-3.269,0,0,0,90,false,stim,false,2,577,1,0,0,53294,task1,758185,false,false,967,image-keyboard-response,34
true,7,1,1,1,true,z,false,false,0.0-2.0-0.30-0.270-3.270,0,0,0,90,false,stim,false,2,549,1,0,1,53294,task1,760249,false,true,970,image-keyboard-response,35
true,7,2,1,2,true,d,false,true,0.0-2.0-0.30-0.271-3.271,0,0,0,68,false,stim,false,1,1083,1,0,2,53294,task1,762850,false,false,973,image-keyboard-response,36
true,7,0,1,1,false,z,true,false,0.0-2.0-0.30-0.272-3.272,0,0,0,81,false,stim,false,2,858,1,0,0,53294,task1,765225,false,false,976,image-keyboard-response,37
true,7,1,1,1,true,z,false,true,0.0-2.0-0.30-0.273-3.273,0,0,0,90,false,stim,false,2,573,1,0,0,53294,task1,767329,false,false,979,image-keyboard-response,38
true,7,1,1,1,true,z,false,true,0.0-2.0-0.30-0.274-3.274,0,0,0,90,false,stim,false,2,460,1,0,1,53294,task1,769305,false,false,982,image-keyboard-response,39
true,7,2,1,2,true,d,false,true,0.0-2.0-0.30-0.275-3.275,0,0,0,68,false,stim,false,1,752,1,0,2,53294,task1,771586,false,false,985,image-keyboard-response,40
true,7,1,1,1,true,z,false,true,0.0-2.0-0.30-0.276-3.276,0,0,0,90,false,stim,false,2,563,1,0,0,53294,task1,773665,false,false,988,image-keyboard-response,41
true,7,1,1,1,true,z,false,true,0.0-2.0-0.30-0.277-3.277,0,0,0,90,false,stim,false,2,551,1,0,1,53294,task1,775738,false,false,991,image-keyboard-response,42
true,7,2,1,2,true,d,false,true,0.0-2.0-0.30-0.278-3.278,0,0,0,68,false,stim,false,1,502,1,0,2,53294,task1,777769,false,false,994,image-keyboard-response,43
true,7,2,1,2,true,d,false,true,0.0-2.0-0.31-0.279-3.279,0,0,0,68,false,stim,false,1,838,1,0,2,53294,task1,780129,false,false,997,image-keyboard-response,44
true,7,2,1,2,true,d,false,true,0.0-2.0-0.31-0.280-3.280,0,0,0,68,false,stim,false,1,567,1,0,2,53294,task1,782218,false,false,1000,image-keyboard-response,45
true,8,1,2,0,false,q,false,true,0.0-2.0-0.31-0.281-3.281,0,0,0,90,true,stim,true,1,888,1,0,1,53294,task1,784633,false,true,1003,image-keyboard-response,1
true,8,1,2,2,false,d,false,false,0.0-2.0-0.31-0.282-3.282,0,0,0,90,false,stim,true,1,1561,1,0,0,53294,task1,787713,false,false,1006,image-keyboard-response,2
true,8,1,2,0,false,q,false,false,0.0-2.0-0.31-0.283-3.283,0,0,0,90,false,stim,true,1,825,1,0,1,53294,task1,790058,false,false,1009,image-keyboard-response,3
true,8,0,2,2,false,d,true,false,0.0-2.0-0.31-0.284-3.284,0,0,0,81,false,stim,false,1,753,1,0,0,53294,task1,792329,false,false,1012,image-keyboard-response,4
true,8,2,2,0,false,q,false,false,0.0-2.0-0.31-0.285-3.285,0,0,0,68,false,stim,true,2,853,1,0,2,53294,task1,794698,false,false,1015,image-keyboard-response,5
true,8,2,2,0,false,q,true,false,0.0-2.0-0.31-0.286-3.286,0,0,0,68,false,stim,false,1,1412,1,0,1,53294,task1,797633,false,false,1018,image-keyboard-response,6
true,8,2,2,2,true,d,false,true,0.0-2.0-0.31-0.287-3.287,0,0,0,68,false,stim,false,1,1489,1,0,0,53294,task1,800650,false,false,1021,image-keyboard-response,7
true,8,2,2,2,true,d,false,true,0.0-2.0-0.32-0.288-3.288,0,0,0,68,false,stim,false,1,654,1,0,0,53294,task1,802825,false,false,1024,image-keyboard-response,8
true,8,2,2,2,true,d,false,true,0.0-2.0-0.32-0.289-3.289,0,0,0,68,false,stim,false,1,714,1,0,0,53294,task1,805049,false,false,1027,image-keyboard-response,9
true,8,0,2,0,true,q,false,false,0.0-2.0-0.32-0.290-3.290,0,0,0,81,false,stim,false,2,991,1,0,2,53294,task1,807561,false,true,1030,image-keyboard-response,10
true,8,0,2,0,true,q,false,true,0.0-2.0-0.32-0.291-3.291,0,0,0,81,false,stim,false,1,1287,1,0,1,53294,task1,810377,false,false,1033,image-keyboard-response,11
true,8,0,2,0,true,q,false,true,0.0-2.0-0.32-0.292-3.292,0,0,0,81,false,stim,false,1,678,1,0,1,53294,task1,812577,false,false,1036,image-keyboard-response,12
true,8,1,2,0,false,q,true,false,0.0-2.0-0.32-0.293-3.293,0,0,0,90,false,stim,false,2,1024,1,0,2,53294,task1,815113,false,false,1039,image-keyboard-response,13
true,8,2,2,0,false,q,false,false,0.0-2.0-0.32-0.294-3.294,0,0,0,68,false,stim,true,2,1441,1,0,2,53294,task1,818081,false,false,1042,image-keyboard-response,14
true,8,0,2,2,false,d,true,false,0.0-2.0-0.32-0.295-3.295,0,0,0,81,false,stim,false,1,1371,1,0,0,53294,task1,820969,false,false,1045,image-keyboard-response,15
false,8,-1,2,0,false,q,true,false,0.0-2.0-0.32-0.296-3.296,0,0,0,,false,stim,false,1,,1,0,1,53294,task1,825499,false,false,1048,image-keyboard-response,16
true,8,0,2,0,true,q,false,true,0.0-2.0-0.33-0.297-3.297,0,0,0,81,false,stim,false,2,1425,1,0,2,53294,task1,828449,false,false,1051,image-keyboard-response,17
true,8,2,2,2,true,d,false,true,0.0-2.0-0.33-0.298-3.298,0,0,0,68,false,stim,false,1,1576,1,0,0,53294,task1,831545,false,false,1054,image-keyboard-response,18
true,8,0,2,0,true,q,false,true,0.0-2.0-0.33-0.299-3.299,0,0,0,81,false,stim,false,2,1114,1,0,2,53294,task1,834177,false,false,1057,image-keyboard-response,19
true,8,2,2,2,true,d,false,true,0.0-2.0-0.33-0.300-3.300,0,0,0,68,false,stim,false,1,1259,1,0,0,53294,task1,836953,false,false,1060,image-keyboard-response,20
true,8,1,2,0,false,q,false,false,0.0-2.0-0.33-0.301-3.301,0,0,0,90,false,stim,true,1,1263,1,0,1,53294,task1,839737,false,false,1063,image-keyboard-response,21
true,8,2,2,0,false,q,true,false,0.0-2.0-0.33-0.302-3.302,0,0,0,68,false,stim,false,1,573,1,0,1,53294,task1,841833,false,false,1066,image-keyboard-response,22
true,8,0,2,0,true,q,false,true,0.0-2.0-0.33-0.303-3.303,0,0,0,81,false,stim,false,2,1178,1,0,2,53294,task1,844537,false,false,1069,image-keyboard-response,23
true,8,2,2,2,true,d,false,true,0.0-2.0-0.33-0.304-3.304,0,0,0,68,false,stim,false,1,950,1,0,0,53294,task1,847001,false,false,1072,image-keyboard-response,24
true,8,0,2,0,true,q,false,true,0.0-2.0-0.33-0.305-3.305,0,0,0,81,false,stim,false,1,855,1,0,1,53294,task1,849377,false,false,1075,image-keyboard-response,25
true,8,2,2,2,true,d,false,true,0.0-2.0-0.34-0.306-3.306,0,0,0,68,false,stim,false,1,775,1,0,0,53294,task1,851673,false,false,1078,image-keyboard-response,26
true,8,0,2,0,true,q,false,true,0.0-2.0-0.34-0.307-3.307,0,0,0,81,false,stim,false,1,575,1,0,1,53294,task1,853769,false,false,1081,image-keyboard-response,27
true,8,0,2,0,true,q,false,true,0.0-2.0-0.34-0.308-3.308,0,0,0,81,false,stim,false,2,507,1,0,2,53294,task1,855793,false,false,1084,image-keyboard-response,28
true,8,0,2,0,true,q,false,true,0.0-2.0-0.34-0.309-3.309,0,0,0,81,false,stim,false,2,717,1,0,2,53294,task1,858025,false,false,1087,image-keyboard-response,29
true,8,0,2,0,true,q,false,true,0.0-2.0-0.34-0.310-3.310,0,0,0,81,false,stim,false,1,444,1,0,1,53294,task1,859993,false,false,1090,image-keyboard-response,30
true,8,0,2,0,true,q,false,true,0.0-2.0-0.34-0.311-3.311,0,0,0,81,false,stim,false,1,399,1,0,1,53294,task1,861921,false,false,1093,image-keyboard-response,31
true,8,2,2,2,true,d,false,true,0.0-2.0-0.34-0.312-3.312,0,0,0,68,false,stim,false,1,606,1,0,0,53294,task1,864058,false,false,1096,image-keyboard-response,32
true,8,0,2,0,true,q,false,true,0.0-2.0-0.34-0.313-3.313,0,0,0,81,false,stim,false,2,992,1,0,2,53294,task1,866569,false,false,1099,image-keyboard-response,33
true,8,2,2,2,true,d,false,true,0.0-2.0-0.34-0.314-3.314,0,0,0,68,false,stim,false,1,1780,1,0,0,53294,task1,869873,false,false,1102,image-keyboard-response,34
true,8,0,2,0,true,q,false,true,0.0-2.0-0.35-0.315-3.315,0,0,0,81,false,stim,false,1,588,1,0,1,53294,task1,871977,false,false,1105,image-keyboard-response,35
true,8,0,2,0,true,q,false,true,0.0-2.0-0.35-0.316-3.316,0,0,0,81,false,stim,false,2,1392,1,0,2,53294,task1,874889,false,false,1108,image-keyboard-response,36
true,8,2,2,2,true,d,false,true,0.0-2.0-0.35-0.317-3.317,0,0,0,68,false,stim,false,1,782,1,0,0,53294,task1,877201,false,false,1111,image-keyboard-response,37
true,8,0,2,0,true,q,false,true,0.0-2.0-0.35-0.318-3.318,0,0,0,81,false,stim,false,2,2636,1,0,2,53294,task1,881353,false,false,1114,image-keyboard-response,38
true,8,0,2,0,true,q,false,true,0.0-2.0-0.35-0.319-3.319,0,0,0,81,false,stim,false,1,1034,1,0,1,53294,task1,883905,false,false,1117,image-keyboard-response,39
true,8,2,2,2,true,d,false,true,0.0-2.0-0.35-0.320-3.320,0,0,0,68,false,stim,false,1,585,1,0,0,53294,task1,886009,false,false,1120,image-keyboard-response,40
true,8,0,2,0,true,q,false,true,0.0-2.0-0.35-0.321-3.321,0,0,0,81,false,stim,false,2,701,1,0,2,53294,task1,888225,false,false,1123,image-keyboard-response,41
true,9,2,2,1,false,z,false,false,0.0-2.0-0.35-0.322-3.322,0,0,0,68,true,stim,true,2,710,1,0,0,53294,task1,890449,false,false,1126,image-keyboard-response,1
true,9,0,2,2,false,d,false,false,0.0-2.0-0.35-0.323-3.323,0,0,0,81,false,stim,true,0,504,1,0,1,53294,task1,892481,false,false,1129,image-keyboard-response,2
true,9,0,2,2,false,d,false,false,0.0-2.0-0.36-0.324-3.324,0,0,0,81,false,stim,true,0,452,1,0,1,53294,task1,894449,false,false,1132,image-keyboard-response,3
true,9,2,2,1,false,z,false,false,0.0-2.0-0.36-0.325-3.325,0,0,0,68,false,stim,true,2,1122,1,0,0,53294,task1,897089,false,false,1135,image-keyboard-response,4
true,9,1,2,1,true,z,false,true,0.0-2.0-0.36-0.326-3.326,0,0,0,90,false,stim,false,2,450,1,0,0,53294,task1,899049,false,false,1138,image-keyboard-response,5
true,9,2,2,1,false,z,true,false,0.0-2.0-0.36-0.327-3.327,0,0,0,68,false,stim,false,0,1024,1,0,2,53294,task1,901593,false,false,1141,image-keyboard-response,6
true,9,1,2,1,true,z,false,true,0.0-2.0-0.36-0.328-3.328,0,0,0,90,false,stim,false,0,503,1,0,2,53294,task1,903625,false,false,1144,image-keyboard-response,7
true,9,1,2,1,true,z,false,true,0.0-2.0-0.36-0.329-3.329,0,0,0,90,false,stim,false,2,558,1,0,0,53294,task1,905697,false,false,1147,image-keyboard-response,8
true,9,1,2,1,true,z,false,true,0.0-2.0-0.36-0.330-3.330,0,0,0,90,false,stim,false,0,431,1,0,2,53294,task1,907650,false,false,1150,image-keyboard-response,9
true,9,2,2,2,true,d,false,false,0.0-2.0-0.36-0.331-3.331,0,0,0,68,false,stim,false,0,1049,1,0,1,53294,task1,910225,false,true,1153,image-keyboard-response,10
true,9,1,2,2,false,d,true,false,0.0-2.0-0.36-0.332-3.332,0,0,0,90,false,stim,false,0,461,1,0,1,53294,task1,912209,false,false,1156,image-keyboard-response,11
true,9,0,2,2,false,d,false,false,0.0-2.0-0.37-0.333-3.333,0,0,0,81,false,stim,true,0,388,1,0,1,53294,task1,914121,false,false,1159,image-keyboard-response,12
true,9,1,2,1,true,z,false,true,0.0-2.0-0.37-0.334-3.334,0,0,0,90,false,stim,false,0,414,1,0,2,53294,task1,916058,false,false,1162,image-keyboard-response,13
true,9,1,2,1,true,z,false,true,0.0-2.0-0.37-0.335-3.335,0,0,0,90,false,stim,false,2,470,1,0,0,53294,task1,918041,false,false,1165,image-keyboard-response,14
true,9,1,2,2,false,d,true,false,0.0-2.0-0.37-0.336-3.336,0,0,0,90,false,stim,false,0,617,1,0,1,53294,task1,920178,false,false,1168,image-keyboard-response,15
true,9,2,2,2,true,d,false,false,0.0-2.0-0.37-0.337-3.337,0,0,0,68,false,stim,false,0,404,1,0,1,53294,task1,922097,false,true,1171,image-keyboard-response,16
true,9,1,2,1,true,z,false,true,0.0-2.0-0.37-0.338-3.338,0,0,0,90,false,stim,false,0,643,1,0,2,53294,task1,924265,false,false,1174,image-keyboard-response,17
true,9,1,2,1,true,z,false,true,0.0-2.0-0.37-0.339-3.339,0,0,0,90,false,stim,false,0,637,1,0,2,53294,task1,926425,false,false,1177,image-keyboard-response,18
true,9,1,2,1,true,z,false,true,0.0-2.0-0.37-0.340-3.340,0,0,0,90,false,stim,false,2,396,1,0,0,53294,task1,928345,false,false,1180,image-keyboard-response,19
true,9,1,2,1,true,z,false,true,0.0-2.0-0.37-0.341-3.341,0,0,0,90,false,stim,false,2,606,1,0,0,53294,task1,930465,false,false,1183,image-keyboard-response,20
true,9,1,2,1,true,z,false,true,0.0-2.0-0.38-0.342-3.342,0,0,0,90,false,stim,false,0,658,1,0,2,53294,task1,932640,false,false,1186,image-keyboard-response,21
true,9,1,2,1,true,z,false,true,0.0-2.0-0.38-0.343-3.343,0,0,0,90,false,stim,false,2,506,1,0,0,53294,task1,934673,false,false,1189,image-keyboard-response,22
true,9,1,2,1,true,z,false,true,0.0-2.0-0.38-0.344-3.344,0,0,0,90,false,stim,false,2,401,1,0,0,53294,task1,936601,false,false,1192,image-keyboard-response,23
true,9,0,2,2,false,d,false,false,0.0-2.0-0.38-0.345-3.345,0,0,0,81,false,stim,true,0,667,1,0,1,53294,task1,938785,false,false,1195,image-keyboard-response,24
true,9,1,2,1,true,z,false,true,0.0-2.0-0.38-0.346-3.346,0,0,0,90,false,stim,false,2,1023,1,0,0,53294,task1,941329,false,false,1198,image-keyboard-response,25
true,9,1,2,1,true,z,false,true,0.0-2.0-0.38-0.347-3.347,0,0,0,90,false,stim,false,0,715,1,0,2,53294,task1,943577,false,false,1201,image-keyboard-response,26
true,9,2,2,2,true,d,false,true,0.0-2.0-0.38-0.348-3.348,0,0,0,68,false,stim,false,0,683,1,0,1,53294,task1,945785,false,false,1204,image-keyboard-response,27
true,9,2,2,2,true,d,false,true,0.0-2.0-0.38-0.349-3.349,0,0,0,68,false,stim,false,0,727,1,0,1,53294,task1,948033,false,false,1207,image-keyboard-response,28
true,9,1,2,1,true,z,false,true,0.0-2.0-0.38-0.350-3.350,0,0,0,90,false,stim,false,0,414,1,0,2,53294,task1,949976,false,false,1210,image-keyboard-response,29
true,9,1,2,1,true,z,false,true,0.0-2.0-0.39-0.351-3.351,0,0,0,90,false,stim,false,2,462,1,0,0,53294,task1,951953,false,false,1213,image-keyboard-response,30
true,9,2,2,2,true,d,false,true,0.0-2.0-0.39-0.352-3.352,0,0,0,68,false,stim,false,0,1404,1,0,1,53294,task1,954873,false,false,1216,image-keyboard-response,31
true,9,1,2,1,true,z,false,true,0.0-2.0-0.39-0.353-3.353,0,0,0,90,false,stim,false,0,462,1,0,2,53294,task1,956849,false,false,1219,image-keyboard-response,32
true,9,1,2,1,true,z,false,true,0.0-2.0-0.39-0.354-3.354,0,0,0,90,false,stim,false,2,1712,1,0,0,53294,task1,960089,false,false,1222,image-keyboard-response,33
true,9,1,2,1,true,z,false,true,0.0-2.0-0.39-0.355-3.355,0,0,0,90,false,stim,false,0,569,1,0,2,53294,task1,962177,false,false,1225,image-keyboard-response,34
true,9,1,2,1,true,z,false,true,0.0-2.0-0.39-0.356-3.356,0,0,0,90,false,stim,false,2,697,1,0,0,53294,task1,964401,false,false,1228,image-keyboard-response,35
true,9,2,2,2,true,d,false,true,0.0-2.0-0.39-0.357-3.357,0,0,0,68,false,stim,false,0,793,1,0,1,53294,task1,966713,false,false,1231,image-keyboard-response,36
true,9,2,2,2,true,d,false,true,0.0-2.0-0.39-0.358-3.358,0,0,0,68,false,stim,false,0,643,1,0,1,53294,task1,968880,false,false,1234,image-keyboard-response,37
true,9,1,2,1,true,z,false,false,0.0-2.0-0.39-0.359-3.359,0,0,0,90,false,stim,false,0,646,1,0,2,53294,task1,971041,false,true,1237,image-keyboard-response,38
true,9,2,2,2,true,d,false,true,0.0-2.0-0.40-0.360-3.360,0,0,0,68,false,stim,false,0,732,1,0,1,53294,task1,973305,false,false,1240,image-keyboard-response,39
true,9,2,2,2,true,d,false,true,0.0-2.0-0.40-0.361-3.361,0,0,0,68,false,stim,false,0,922,1,0,1,53294,task1,975752,false,false,1243,image-keyboard-response,40
true,9,1,2,1,true,z,false,true,0.0-2.0-0.40-0.362-3.362,0,0,0,90,false,stim,false,0,671,1,0,2,53294,task1,977929,false,false,1246,image-keyboard-response,41
true,9,1,2,1,true,z,false,true,0.0-2.0-0.40-0.363-3.363,0,0,0,90,false,stim,false,2,448,1,0,0,53294,task1,979897,false,false,1249,image-keyboard-response,42
true,10,1,2,2,false,d,false,false,0.0-2.0-0.40-0.364-3.364,0,0,0,90,true,stim,true,1,516,1,0,0,53294,task1,981937,false,false,1252,image-keyboard-response,1
true,10,2,2,0,false,q,false,false,0.0-2.0-0.40-0.365-3.365,0,0,0,68,false,stim,true,2,860,1,0,1,53294,task1,984321,false,false,1255,image-keyboard-response,2
true,10,1,2,0,false,q,false,false,0.0-2.0-0.40-0.366-3.366,0,0,0,90,false,stim,true,1,1072,1,0,2,53294,task1,986913,false,false,1258,image-keyboard-response,3
true,10,1,2,2,false,d,false,false,0.0-2.0-0.40-0.367-3.367,0,0,0,90,false,stim,true,1,394,1,0,0,53294,task1,988832,false,false,1261,image-keyboard-response,4
true,10,0,2,0,true,q,false,true,0.0-2.0-0.40-0.368-3.368,0,0,0,81,false,stim,false,1,1062,1,0,2,53294,task1,991409,false,false,1264,image-keyboard-response,5
true,10,0,2,0,true,q,false,true,0.0-2.0-0.41-0.369-3.369,0,0,0,81,false,stim,false,1,741,1,0,2,53294,task1,993664,false,false,1267,image-keyboard-response,6
true,10,0,2,0,true,q,false,true,0.0-2.0-0.41-0.370-3.370,0,0,0,81,false,stim,false,1,652,1,0,2,53294,task1,995833,false,false,1270,image-keyboard-response,7
true,10,1,2,0,false,q,true,false,0.0-2.0-0.41-0.371-3.371,0,0,0,90,false,stim,false,2,654,1,0,1,53294,task1,998009,false,false,1273,image-keyboard-response,8
true,10,0,2,2,false,d,true,false,0.0-2.0-0.41-0.372-3.372,0,0,0,81,false,stim,false,1,1207,1,0,0,53294,task1,1000737,false,false,1276,image-keyboard-response,9
true,10,1,2,2,false,d,false,false,0.0-2.0-0.41-0.373-3.373,0,0,0,90,false,stim,true,1,459,1,0,0,53294,task1,1002721,false,false,1279,image-keyboard-response,10
true,10,0,2,0,true,q,false,true,0.0-2.0-0.41-0.374-3.374,0,0,0,81,false,stim,false,2,904,1,0,1,53294,task1,1005145,false,false,1282,image-keyboard-response,11
true,10,0,2,0,true,q,false,true,0.0-2.0-0.41-0.375-3.375,0,0,0,81,false,stim,false,2,468,1,0,1,53294,task1,1007129,false,false,1285,image-keyboard-response,12
true,10,0,2,0,true,q,false,true,0.0-2.0-0.41-0.376-3.376,0,0,0,81,false,stim,false,1,1060,1,0,2,53294,task1,1009712,false,false,1288,image-keyboard-response,13
true,10,2,2,2,true,d,false,true,0.0-2.0-0.41-0.377-3.377,0,0,0,68,false,stim,false,1,655,1,0,0,53294,task1,1011889,false,false,1291,image-keyboard-response,14
true,10,0,2,0,true,q,false,true,0.0-2.0-0.42-0.378-3.378,0,0,0,81,false,stim,false,2,687,1,0,1,53294,task1,1014097,false,false,1294,image-keyboard-response,15
true,10,2,2,2,true,d,false,true,0.0-2.0-0.42-0.379-3.379,0,0,0,68,false,stim,false,1,766,1,0,0,53294,task1,1016385,false,false,1297,image-keyboard-response,16
true,10,0,2,0,true,q,false,true,0.0-2.0-0.42-0.380-3.380,0,0,0,81,false,stim,false,1,466,1,0,2,53294,task1,1018369,false,false,1300,image-keyboard-response,17
true,10,0,2,0,true,q,false,false,0.0-2.0-0.42-0.381-3.381,0,0,0,81,false,stim,false,1,521,1,0,2,53294,task1,1020425,false,true,1303,image-keyboard-response,18
true,10,0,2,0,true,q,false,true,0.0-2.0-0.42-0.382-3.382,0,0,0,81,false,stim,false,1,415,1,0,2,53294,task1,1022361,false,false,1306,image-keyboard-response,19
true,10,0,2,0,true,q,false,true,0.0-2.0-0.42-0.383-3.383,0,0,0,81,false,stim,false,2,450,1,0,1,53294,task1,1024337,false,false,1309,image-keyboard-response,20
true,10,2,2,2,true,d,false,true,0.0-2.0-0.42-0.384-3.384,0,0,0,68,false,stim,false,1,717,1,0,0,53294,task1,1026577,false,false,1312,image-keyboard-response,21
true,10,0,2,0,true,q,false,true,0.0-2.0-0.42-0.385-3.385,0,0,0,81,false,stim,false,2,584,1,0,1,53294,task1,1028680,false,false,1315,image-keyboard-response,22
true,10,2,2,2,true,d,false,true,0.0-2.0-0.42-0.386-3.386,0,0,0,68,false,stim,false,1,827,1,0,0,53294,task1,1031033,false,false,1318,image-keyboard-response,23
true,10,0,2,0,true,q,false,false,0.0-2.0-0.43-0.387-3.387,0,0,0,81,false,stim,false,1,812,1,0,2,53294,task1,1033360,false,true,1321,image-keyboard-response,24
true,10,2,2,2,true,d,false,true,0.0-2.0-0.43-0.388-3.388,0,0,0,68,false,stim,false,1,877,1,0,0,53294,task1,1035761,false,false,1324,image-keyboard-response,25
true,10,2,2,2,true,d,false,true,0.0-2.0-0.43-0.389-3.389,0,0,0,68,false,stim,false,1,835,1,0,0,53294,task1,1038113,false,false,1327,image-keyboard-response,26
true,10,0,2,0,true,q,false,true,0.0-2.0-0.43-0.390-3.390,0,0,0,81,false,stim,false,2,901,1,0,1,53294,task1,1040537,false,false,1330,image-keyboard-response,27
true,10,2,2,2,true,d,false,true,0.0-2.0-0.43-0.391-3.391,0,0,0,68,false,stim,false,1,879,1,0,0,53294,task1,1042936,false,false,1333,image-keyboard-response,28
true,10,0,2,0,true,q,false,true,0.0-2.0-0.43-0.392-3.392,0,0,0,81,false,stim,false,1,1081,1,0,2,53294,task1,1045537,false,false,1336,image-keyboard-response,29
true,10,0,2,0,true,q,false,true,0.0-2.0-0.43-0.393-3.393,0,0,0,81,false,stim,false,2,809,1,0,1,53294,task1,1047873,false,false,1339,image-keyboard-response,30
true,10,0,2,0,true,q,false,true,0.0-2.0-0.43-0.394-3.394,0,0,0,81,false,stim,false,1,679,1,0,2,53294,task1,1050073,false,false,1342,image-keyboard-response,31
true,10,0,2,0,true,q,false,true,0.0-2.0-0.43-0.395-3.395,0,0,0,81,false,stim,false,2,778,1,0,1,53294,task1,1052377,false,false,1345,image-keyboard-response,32
true,10,0,2,0,true,q,false,true,0.0-2.0-0.44-0.396-3.396,0,0,0,81,false,stim,false,1,1729,1,0,2,53294,task1,1055633,false,false,1348,image-keyboard-response,33
true,10,0,2,0,true,q,false,true,0.0-2.0-0.44-0.397-3.397,0,0,0,81,false,stim,false,2,725,1,0,1,53294,task1,1057888,false,false,1351,image-keyboard-response,34
true,10,2,2,2,true,d,false,true,0.0-2.0-0.44-0.398-3.398,0,0,0,68,false,stim,false,1,757,1,0,0,53294,task1,1060177,false,false,1354,image-keyboard-response,35
true,10,2,2,2,true,d,false,true,0.0-2.0-0.44-0.399-3.399,0,0,0,68,false,stim,false,1,1212,1,0,0,53294,task1,1062912,false,false,1357,image-keyboard-response,36
true,10,0,2,0,true,q,false,true,0.0-2.0-0.44-0.400-3.400,0,0,0,81,false,stim,false,2,2120,1,0,1,53294,task1,1066561,false,false,1360,image-keyboard-response,37
true,10,0,2,0,true,q,false,true,0.0-2.0-0.44-0.401-3.401,0,0,0,81,false,stim,false,1,1921,1,0,2,53294,task1,1070009,false,false,1363,image-keyboard-response,38
true,10,0,2,0,true,q,false,true,0.0-2.0-0.44-0.402-3.402,0,0,0,81,false,stim,false,1,511,1,0,2,53294,task1,1072049,false,false,1366,image-keyboard-response,39
true,11,2,2,1,false,z,false,false,0.0-2.0-0.44-0.403-3.403,0,0,0,68,true,stim,true,2,737,1,0,0,53294,task1,1074305,false,false,1369,image-keyboard-response,1
true,11,0,2,2,false,d,false,false,0.0-2.0-0.44-0.404-3.404,0,0,0,81,false,stim,true,0,610,1,0,1,53294,task1,1076432,false,false,1372,image-keyboard-response,2
true,11,0,2,1,false,z,false,false,0.0-2.0-0.45-0.405-3.405,0,0,0,81,false,stim,true,0,460,1,0,2,53294,task1,1078417,false,false,1375,image-keyboard-response,3
true,11,1,2,1,true,z,false,true,0.0-2.0-0.45-0.406-3.406,0,0,0,90,false,stim,false,2,711,1,0,0,53294,task1,1080657,false,false,1378,image-keyboard-response,4
true,11,2,2,2,true,d,false,true,0.0-2.0-0.45-0.407-3.407,0,0,0,68,false,stim,false,0,794,1,0,1,53294,task1,1082977,false,false,1381,image-keyboard-response,5
true,11,1,2,1,true,z,false,false,0.0-2.0-0.45-0.408-3.408,0,0,0,90,false,stim,false,2,683,1,0,0,53294,task1,1085184,false,true,1384,image-keyboard-response,6
true,11,2,2,1,false,z,true,false,0.0-2.0-0.45-0.409-3.409,0,0,0,68,false,stim,false,0,618,1,0,2,53294,task1,1087321,false,false,1387,image-keyboard-response,7
true,11,1,2,1,true,z,false,true,0.0-2.0-0.45-0.410-3.410,0,0,0,90,false,stim,false,2,465,1,0,0,53294,task1,1089312,false,false,1390,image-keyboard-response,8
true,11,2,2,2,true,d,false,true,0.0-2.0-0.45-0.411-3.411,0,0,0,68,false,stim,false,0,473,1,0,1,53294,task1,1091313,false,false,1393,image-keyboard-response,9
true,11,0,2,1,false,z,false,false,0.0-2.0-0.45-0.412-3.412,0,0,0,81,false,stim,true,0,569,1,0,2,53294,task1,1093400,false,false,1396,image-keyboard-response,10
true,11,2,2,2,true,d,false,true,0.0-2.0-0.45-0.413-3.413,0,0,0,68,false,stim,false,0,1706,1,0,1,53294,task1,1096633,false,false,1399,image-keyboard-response,11
true,11,1,2,1,true,z,false,true,0.0-2.0-0.46-0.414-3.414,0,0,0,90,false,stim,false,2,1124,1,0,0,53294,task1,1099281,false,false,1402,image-keyboard-response,12
true,11,1,2,1,true,z,false,true,0.0-2.0-0.46-0.415-3.415,0,0,0,90,false,stim,false,2,1172,1,0,0,53294,task1,1101969,false,false,1405,image-keyboard-response,13
true,11,2,2,2,true,d,false,true,0.0-2.0-0.46-0.416-3.416,0,0,0,68,false,stim,false,0,1010,1,0,1,53294,task1,1104504,false,false,1408,image-keyboard-response,14
true,11,2,2,2,true,d,false,true,0.0-2.0-0.46-0.417-3.417,0,0,0,68,false,stim,false,0,1529,1,0,1,53294,task1,1107561,false,false,1411,image-keyboard-response,15
true,11,1,2,1,true,z,false,false,0.0-2.0-0.46-0.418-3.418,0,0,0,90,false,stim,false,0,434,1,0,2,53294,task1,1109513,false,true,1414,image-keyboard-response,16
true,11,2,2,1,false,z,true,false,0.0-2.0-0.46-0.419-3.419,0,0,0,68,false,stim,false,0,729,1,0,2,53294,task1,1111768,false,false,1417,image-keyboard-response,17
true,11,1,2,1,true,z,false,true,0.0-2.0-0.46-0.420-3.420,0,0,0,90,false,stim,false,2,774,1,0,0,53294,task1,1114064,false,false,1420,image-keyboard-response,18
true,11,0,2,1,false,z,false,false,0.0-2.0-0.46-0.421-3.421,0,0,0,81,false,stim,true,0,569,1,0,2,53294,task1,1116161,false,false,1423,image-keyboard-response,19
true,11,2,2,2,true,d,false,true,0.0-2.0-0.46-0.422-3.422,0,0,0,68,false,stim,false,0,855,1,0,1,53294,task1,1118529,false,false,1426,image-keyboard-response,20
true,11,1,2,1,true,z,false,true,0.0-2.0-0.47-0.423-3.423,0,0,0,90,false,stim,false,2,673,1,0,0,53294,task1,1120720,false,false,1429,image-keyboard-response,21
true,11,1,2,1,true,z,false,true,0.0-2.0-0.47-0.424-3.424,0,0,0,90,false,stim,false,0,1979,1,0,2,53294,task1,1124217,false,false,1432,image-keyboard-response,22
true,11,1,2,1,true,z,false,true,0.0-2.0-0.47-0.425-3.425,0,0,0,90,false,stim,false,0,435,1,0,2,53294,task1,1126177,false,false,1435,image-keyboard-response,23
true,11,2,2,2,true,d,false,true,0.0-2.0-0.47-0.426-3.426,0,0,0,68,false,stim,false,0,786,1,0,1,53294,task1,1128488,false,false,1438,image-keyboard-response,24
true,11,2,2,2,true,d,false,true,0.0-2.0-0.47-0.427-3.427,0,0,0,68,false,stim,false,0,784,1,0,1,53294,task1,1130793,false,false,1441,image-keyboard-response,25
true,11,1,2,1,true,z,false,true,0.0-2.0-0.47-0.428-3.428,0,0,0,90,false,stim,false,2,436,1,0,0,53294,task1,1132744,false,false,1444,image-keyboard-response,26
true,11,1,2,1,true,z,false,false,0.0-2.0-0.47-0.429-3.429,0,0,0,90,false,stim,false,2,888,1,0,0,53294,task1,1135152,false,true,1447,image-keyboard-response,27
true,11,2,2,1,false,z,true,false,0.0-2.0-0.47-0.430-3.430,0,0,0,68,false,stim,false,0,956,1,0,2,53294,task1,1137633,false,false,1450,image-keyboard-response,28
true,11,2,2,2,true,d,false,true,0.0-2.0-0.47-0.431-3.431,0,0,0,68,false,stim,false,0,668,1,0,1,53294,task1,1139817,false,false,1453,image-keyboard-response,29
true,11,1,2,2,false,d,true,false,0.0-2.0-0.48-0.432-3.432,0,0,0,90,false,stim,false,0,427,1,0,1,53294,task1,1141769,false,false,1456,image-keyboard-response,30
true,11,1,2,1,true,z,false,true,0.0-2.0-0.48-0.433-3.433,0,0,0,90,false,stim,false,0,577,1,0,2,53294,task1,1143864,false,false,1459,image-keyboard-response,31
true,11,1,2,1,true,z,false,true,0.0-2.0-0.48-0.434-3.434,0,0,0,90,false,stim,false,2,396,1,0,0,53294,task1,1145785,false,false,1462,image-keyboard-response,32
true,11,1,2,1,true,z,false,true,0.0-2.0-0.48-0.435-3.435,0,0,0,90,false,stim,false,0,574,1,0,2,53294,task1,1147873,false,false,1465,image-keyboard-response,33
true,11,2,2,2,true,d,false,true,0.0-2.0-0.48-0.436-3.436,0,0,0,68,false,stim,false,0,797,1,0,1,53294,task1,1150192,false,false,1468,image-keyboard-response,34
true,11,1,2,1,true,z,false,false,0.0-2.0-0.48-0.437-3.437,0,0,0,90,false,stim,false,2,452,1,0,0,53294,task1,1152161,false,true,1471,image-keyboard-response,35
true,11,1,2,1,true,z,false,true,0.0-2.0-0.48-0.438-3.438,0,0,0,90,false,stim,false,2,556,1,0,0,53294,task1,1154240,false,false,1474,image-keyboard-response,36
true,11,1,2,1,true,z,false,true,0.0-2.0-0.48-0.439-3.439,0,0,0,90,false,stim,false,0,2855,1,0,2,53294,task1,1158624,false,false,1477,image-keyboard-response,37
true,11,2,2,2,true,d,false,true,0.0-2.0-0.48-0.440-3.440,0,0,0,68,false,stim,false,0,508,1,0,1,53294,task1,1160649,false,false,1480,image-keyboard-response,38
true,11,2,2,2,true,d,false,true,0.0-2.0-0.49-0.441-3.441,0,0,0,68,false,stim,false,0,603,1,0,1,53294,task1,1162784,false,false,1483,image-keyboard-response,39
true,11,1,2,1,true,z,false,true,0.0-2.0-0.49-0.442-3.442,0,0,0,90,false,stim,false,0,742,1,0,2,53294,task1,1165049,false,false,1486,image-keyboard-response,40
true,11,1,2,1,true,z,false,false,0.0-2.0-0.49-0.443-3.443,0,0,0,90,false,stim,false,2,833,1,0,0,53294,task1,1167409,false,true,1489,image-keyboard-response,41
true,11,1,2,1,true,z,false,true,0.0-2.0-0.49-0.444-3.444,0,0,0,90,false,stim,false,2,556,1,0,0,53294,task1,1169481,false,false,1492,image-keyboard-response,42
true,11,1,2,1,true,z,false,true,0.0-2.0-0.49-0.445-3.445,0,0,0,90,false,stim,false,2,455,1,0,0,53294,task1,1171457,false,false,1495,image-keyboard-response,43
true,11,2,2,2,true,d,false,true,0.0-2.0-0.49-0.446-3.446,0,0,0,68,false,stim,false,0,1548,1,0,1,53294,task1,1174521,false,false,1498,image-keyboard-response,44
true,12,2,1,1,false,z,false,false,0.0-2.0-0.49-0.447-3.447,0,0,0,68,true,stim,true,2,902,1,0,1,53294,task1,1176953,false,false,1501,image-keyboard-response,1
true,12,1,1,0,false,q,false,false,0.0-2.0-0.49-0.448-3.448,0,0,0,90,false,stim,true,1,601,1,0,2,53294,task1,1179064,false,false,1504,image-keyboard-response,2
true,12,0,1,0,true,q,false,true,0.0-2.0-0.49-0.449-3.449,0,0,0,81,false,stim,false,1,728,1,0,2,53294,task1,1181312,false,false,1507,image-keyboard-response,3
true,12,1,1,2,false,d,false,false,0.0-2.0-0.50-0.450-3.450,0,0,0,90,false,stim,true,1,807,1,0,0,53294,task1,1183648,false,false,1510,image-keyboard-response,4
true,12,2,1,2,true,d,false,true,0.0-2.0-0.50-0.451-3.451,0,0,0,68,false,stim,false,1,519,1,0,0,53294,task1,1185697,false,false,1513,image-keyboard-response,5
true,12,1,1,1,true,z,false,true,0.0-2.0-0.50-0.452-3.452,0,0,0,90,false,stim,false,2,878,1,0,1,53294,task1,1188096,false,false,1516,image-keyboard-response,6
true,12,0,1,0,true,q,false,false,0.0-2.0-0.50-0.453-3.453,0,0,0,81,false,stim,false,1,805,1,0,2,53294,task1,1190417,false,true,1519,image-keyboard-response,7
true,12,1,1,2,false,d,false,false,0.0-2.0-0.50-0.454-3.454,0,0,0,90,false,stim,true,1,814,1,0,0,53294,task1,1192753,false,false,1522,image-keyboard-response,8
true,12,1,1,1,true,z,false,true,0.0-2.0-0.50-0.455-3.455,0,0,0,90,false,stim,false,2,455,1,0,1,53294,task1,1194728,false,false,1525,image-keyboard-response,9
true,12,1,1,1,true,z,false,true,0.0-2.0-0.50-0.456-3.456,0,0,0,90,false,stim,false,2,1778,1,0,1,53294,task1,1198024,false,false,1528,image-keyboard-response,10
true,12,0,1,0,true,q,false,true,0.0-2.0-0.50-0.457-3.457,0,0,0,81,false,stim,false,1,749,1,0,2,53294,task1,1200304,false,false,1531,image-keyboard-response,11
true,12,0,1,0,true,q,false,true,0.0-2.0-0.50-0.458-3.458,0,0,0,81,false,stim,false,1,719,1,0,2,53294,task1,1202545,false,false,1534,image-keyboard-response,12
true,12,1,1,1,true,z,false,true,0.0-2.0-0.51-0.459-3.459,0,0,0,90,false,stim,false,2,1033,1,0,1,53294,task1,1205096,false,false,1537,image-keyboard-response,13
true,12,0,1,0,true,q,false,true,0.0-2.0-0.51-0.460-3.460,0,0,0,81,false,stim,false,1,960,1,0,2,53294,task1,1207569,false,false,1540,image-keyboard-response,14
true,12,0,1,0,true,q,false,true,0.0-2.0-0.51-0.461-3.461,0,0,0,81,false,stim,false,1,631,1,0,2,53294,task1,1209712,false,false,1543,image-keyboard-response,15
true,12,1,1,1,true,z,false,true,0.0-2.0-0.51-0.462-3.462,0,0,0,90,false,stim,false,2,782,1,0,1,53294,task1,1212024,false,false,1546,image-keyboard-response,16
true,12,2,1,2,true,d,false,true,0.0-2.0-0.51-0.463-3.463,0,0,0,68,false,stim,false,1,426,1,0,0,53294,task1,1213968,false,false,1549,image-keyboard-response,17
true,12,0,1,0,true,q,false,true,0.0-2.0-0.51-0.464-3.464,0,0,0,81,false,stim,false,1,829,1,0,2,53294,task1,1216313,false,false,1552,image-keyboard-response,18
true,12,2,1,2,true,d,false,true,0.0-2.0-0.51-0.465-3.465,0,0,0,68,false,stim,false,1,998,1,0,0,53294,task1,1218841,false,false,1555,image-keyboard-response,19
true,12,2,1,2,true,d,false,true,0.0-2.0-0.51-0.466-3.466,0,0,0,68,false,stim,false,1,1839,1,0,0,53294,task1,1222201,false,false,1558,image-keyboard-response,20
true,12,1,1,1,true,z,false,true,0.0-2.0-0.51-0.467-3.467,0,0,0,90,false,stim,false,2,1124,1,0,1,53294,task1,1224841,false,false,1561,image-keyboard-response,21
true,12,1,1,1,true,z,false,true,0.0-2.0-0.52-0.468-3.468,0,0,0,90,false,stim,false,2,518,1,0,1,53294,task1,1226872,false,false,1564,image-keyboard-response,22
true,12,2,1,2,true,d,false,true,0.0-2.0-0.52-0.469-3.469,0,0,0,68,false,stim,false,1,833,1,0,0,53294,task1,1229232,false,false,1567,image-keyboard-response,23
true,12,1,1,1,true,z,false,true,0.0-2.0-0.52-0.470-3.470,0,0,0,90,false,stim,false,2,624,1,0,1,53294,task1,1231384,false,false,1570,image-keyboard-response,24
true,12,2,1,2,true,d,false,true,0.0-2.0-0.52-0.471-3.471,0,0,0,68,false,stim,false,1,554,1,0,0,53294,task1,1233465,false,false,1573,image-keyboard-response,25
true,12,2,1,2,true,d,false,true,0.0-2.0-0.52-0.472-3.472,0,0,0,68,false,stim,false,1,826,1,0,0,53294,task1,1235808,false,false,1576,image-keyboard-response,26
true,12,0,1,0,true,q,false,true,0.0-2.0-0.52-0.473-3.473,0,0,0,81,false,stim,false,1,919,1,0,2,53294,task1,1238248,false,false,1579,image-keyboard-response,27
true,12,0,1,0,true,q,false,true,0.0-2.0-0.52-0.474-3.474,0,0,0,81,false,stim,false,1,1951,1,0,2,53294,task1,1241721,false,false,1582,image-keyboard-response,28
true,12,0,1,0,true,q,false,true,0.0-2.0-0.52-0.475-3.475,0,0,0,81,false,stim,false,1,1144,1,0,2,53294,task1,1244392,false,false,1585,image-keyboard-response,29
true,12,1,1,1,true,z,false,true,0.0-2.0-0.52-0.476-3.476,0,0,0,90,false,stim,false,2,1566,1,0,1,53294,task1,1247472,false,false,1588,image-keyboard-response,30
true,12,1,1,1,true,z,false,true,0.0-2.0-0.53-0.477-3.477,0,0,0,90,false,stim,false,2,563,1,0,1,53294,task1,1249552,false,false,1591,image-keyboard-response,31
true,12,1,1,1,true,z,false,false,0.0-2.0-0.53-0.478-3.478,0,0,0,90,false,stim,false,2,775,1,0,1,53294,task1,1251841,false,true,1594,image-keyboard-response,32
true,12,0,1,0,true,q,false,true,0.0-2.0-0.53-0.479-3.479,0,0,0,81,false,stim,false,1,879,1,0,2,53294,task1,1254249,false,false,1597,image-keyboard-response,33
true,12,2,1,2,true,d,false,true,0.0-2.0-0.53-0.480-3.480,0,0,0,68,false,stim,false,1,1581,1,0,0,53294,task1,1257352,false,false,1600,image-keyboard-response,34
true,12,2,1,2,true,d,false,true,0.0-2.0-0.53-0.481-3.481,0,0,0,68,false,stim,false,1,725,1,0,0,53294,task1,1259609,false,false,1603,image-keyboard-response,35
true,12,2,1,2,true,d,false,false,0.0-2.0-0.53-0.482-3.482,0,0,0,68,false,stim,false,1,456,1,0,0,53294,task1,1261584,false,true,1606,image-keyboard-response,36
true,12,0,1,0,true,q,false,true,0.0-2.0-0.53-0.483-3.483,0,0,0,81,false,stim,false,1,732,1,0,2,53294,task1,1263841,false,false,1609,image-keyboard-response,37
true,12,1,1,1,true,z,false,true,0.0-2.0-0.53-0.484-3.484,0,0,0,90,false,stim,false,2,2521,1,0,1,53294,task1,1267888,false,false,1612,image-keyboard-response,38
true,12,0,1,0,true,q,false,true,0.0-2.0-0.53-0.485-3.485,0,0,0,81,false,stim,false,1,743,1,0,2,53294,task1,1270153,false,false,1615,image-keyboard-response,39
true,12,2,1,2,true,d,false,true,0.0-2.0-0.54-0.486-3.486,0,0,0,68,false,stim,false,1,930,1,0,0,53294,task1,1272609,false,false,1618,image-keyboard-response,40
true,13,1,2,2,false,d,false,false,0.0-2.0-0.54-0.487-3.487,0,0,0,90,true,stim,true,1,2383,1,0,1,53294,task1,1276512,false,false,1621,image-keyboard-response,1
true,13,0,2,1,false,z,false,false,0.0-2.0-0.54-0.488-3.488,0,0,0,81,false,stim,true,0,365,1,0,2,53294,task1,1278401,false,false,1624,image-keyboard-response,2
true,13,0,2,2,false,d,true,false,0.0-2.0-0.54-0.489-3.489,0,0,0,81,false,stim,false,1,968,1,0,1,53294,task1,1280889,false,false,1627,image-keyboard-response,3
true,13,1,2,1,true,z,false,true,0.0-2.0-0.54-0.490-3.490,0,0,0,90,false,stim,false,0,1184,1,0,2,53294,task1,1283576,false,false,1630,image-keyboard-response,4
true,13,2,2,2,true,d,false,true,0.0-2.0-0.54-0.491-3.491,0,0,0,68,false,stim,false,1,1328,1,0,1,53294,task1,1286432,false,false,1633,image-keyboard-response,5
true,13,1,2,1,true,z,false,true,0.0-2.0-0.54-0.492-3.492,0,0,0,90,false,stim,false,0,801,1,0,2,53294,task1,1288744,false,false,1636,image-keyboard-response,6
true,13,2,2,1,false,z,false,false,0.0-2.0-0.54-0.493-3.493,0,0,0,68,false,stim,true,2,1034,1,0,0,53294,task1,1291304,false,false,1639,image-keyboard-response,7
true,13,1,2,1,true,z,false,true,0.0-2.0-0.54-0.494-3.494,0,0,0,90,false,stim,false,2,607,1,0,0,53294,task1,1293440,false,false,1642,image-keyboard-response,8
true,13,1,2,1,true,z,false,true,0.0-2.0-0.55-0.495-3.495,0,0,0,90,false,stim,false,0,642,1,0,2,53294,task1,1295608,false,false,1645,image-keyboard-response,9
true,13,1,2,1,true,z,false,true,0.0-2.0-0.55-0.496-3.496,0,0,0,90,false,stim,false,0,478,1,0,2,53294,task1,1297608,false,false,1648,image-keyboard-response,10
true,13,1,2,1,true,z,false,false,0.0-2.0-0.55-0.497-3.497,0,0,0,90,false,stim,false,2,479,1,0,0,53294,task1,1299601,false,true,1651,image-keyboard-response,11
true,13,1,2,1,true,z,false,true,0.0-2.0-0.55-0.498-3.498,0,0,0,90,false,stim,false,0,345,1,0,2,53294,task1,1301472,false,false,1654,image-keyboard-response,12
true,13,2,2,2,true,d,false,true,0.0-2.0-0.55-0.499-3.499,0,0,0,68,false,stim,false,1,922,1,0,1,53294,task1,1303913,false,false,1657,image-keyboard-response,13
true,13,2,2,2,true,d,false,true,0.0-2.0-0.55-0.500-3.500,0,0,0,68,false,stim,false,1,1220,1,0,1,53294,task1,1306656,false,false,1660,image-keyboard-response,14
true,13,2,2,2,true,d,false,true,0.0-2.0-0.55-0.501-3.501,0,0,0,68,false,stim,false,1,564,1,0,1,53294,task1,1308737,false,false,1663,image-keyboard-response,15
true,13,1,2,1,true,z,false,true,0.0-2.0-0.55-0.502-3.502,0,0,0,90,false,stim,false,2,798,1,0,0,53294,task1,1311057,false,false,1666,image-keyboard-response,16
true,13,1,2,1,true,z,false,true,0.0-2.0-0.55-0.503-3.503,0,0,0,90,false,stim,false,2,506,1,0,0,53294,task1,1313080,false,false,1669,image-keyboard-response,17
true,13,2,2,2,true,d,false,false,0.0-2.0-0.56-0.504-3.504,0,0,0,68,false,stim,false,1,1396,1,0,1,53294,task1,1315993,false,true,1672,image-keyboard-response,18
true,13,1,2,1,true,z,false,true,0.0-2.0-0.56-0.505-3.505,0,0,0,90,false,stim,false,2,790,1,0,0,53294,task1,1318304,false,false,1675,image-keyboard-response,19
true,13,1,2,1,true,z,false,true,0.0-2.0-0.56-0.506-3.506,0,0,0,90,false,stim,false,2,916,1,0,0,53294,task1,1320736,false,false,1678,image-keyboard-response,20
true,13,2,2,2,true,d,false,true,0.0-2.0-0.56-0.507-3.507,0,0,0,68,false,stim,false,1,838,1,0,1,53294,task1,1323096,false,false,1681,image-keyboard-response,21
true,13,1,2,1,true,z,false,true,0.0-2.0-0.56-0.508-3.508,0,0,0,90,false,stim,false,0,603,1,0,2,53294,task1,1325217,false,false,1684,image-keyboard-response,22
true,13,1,2,2,false,d,false,false,0.0-2.0-0.56-0.509-3.509,0,0,0,90,false,stim,true,1,887,1,0,1,53294,task1,1327625,false,false,1687,image-keyboard-response,23
true,13,1,2,1,true,z,false,true,0.0-2.0-0.56-0.510-3.510,0,0,0,90,false,stim,false,0,537,1,0,2,53294,task1,1329680,false,false,1690,image-keyboard-response,24
true,13,1,2,1,true,z,false,true,0.0-2.0-0.56-0.511-3.511,0,0,0,90,false,stim,false,0,574,1,0,2,53294,task1,1331785,false,false,1693,image-keyboard-response,25
true,13,1,2,1,true,z,false,true,0.0-2.0-0.56-0.512-3.512,0,0,0,90,false,stim,false,2,694,1,0,0,53294,task1,1333992,false,false,1696,image-keyboard-response,26
true,13,2,2,2,true,d,false,true,0.0-2.0-0.57-0.513-3.513,0,0,0,68,false,stim,false,1,738,1,0,1,53294,task1,1336249,false,false,1699,image-keyboard-response,27
true,13,1,2,1,true,z,false,true,0.0-2.0-0.57-0.514-3.514,0,0,0,90,false,stim,false,0,395,1,0,2,53294,task1,1338168,false,false,1702,image-keyboard-response,28
true,13,2,2,2,true,d,false,true,0.0-2.0-0.57-0.515-3.515,0,0,0,68,false,stim,false,1,826,1,0,1,53294,task1,1340512,false,false,1705,image-keyboard-response,29
true,13,1,2,1,true,z,false,true,0.0-2.0-0.57-0.516-3.516,0,0,0,90,false,stim,false,2,1264,1,0,0,53294,task1,1343297,false,false,1708,image-keyboard-response,30
true,13,2,2,1,false,z,true,false,0.0-2.0-0.57-0.517-3.517,0,0,0,68,false,stim,false,0,731,1,0,2,53294,task1,1345544,false,false,1711,image-keyboard-response,31
true,13,1,2,1,true,z,false,true,0.0-2.0-0.57-0.518-3.518,0,0,0,90,false,stim,false,2,957,1,0,0,53294,task1,1348024,false,false,1714,image-keyboard-response,32
true,13,1,2,1,true,z,false,true,0.0-2.0-0.57-0.519-3.519,0,0,0,90,false,stim,false,2,456,1,0,0,53294,task1,1349992,false,false,1717,image-keyboard-response,33
true,13,2,2,2,true,d,false,true,0.0-2.0-0.57-0.520-3.520,0,0,0,68,false,stim,false,1,748,1,0,1,53294,task1,1352256,false,false,1720,image-keyboard-response,34
true,13,1,2,1,true,z,false,true,0.0-2.0-0.57-0.521-3.521,0,0,0,90,false,stim,false,0,541,1,0,2,53294,task1,1354312,false,false,1723,image-keyboard-response,35
true,13,1,2,1,true,z,false,true,0.0-2.0-0.58-0.522-3.522,0,0,0,90,false,stim,false,0,692,1,0,2,53294,task1,1356528,false,false,1726,image-keyboard-response,36
true,13,1,2,1,true,z,false,false,0.0-2.0-0.58-0.523-3.523,0,0,0,90,false,stim,false,2,536,1,0,0,53294,task1,1358584,false,true,1729,image-keyboard-response,37
true,13,2,2,2,true,d,false,true,0.0-2.0-0.58-0.524-3.524,0,0,0,68,false,stim,false,1,816,1,1,1,53294,task1,1360928,false,false,1732,image-keyboard-response,38
true,13,1,2,1,true,z,false,true,0.0-2.0-0.58-0.525-3.525,0,0,0,90,false,stim,false,0,734,1,1,2,53294,task1,1363184,false,false,1735,image-keyboard-response,39
true,13,1,2,1,true,z,false,false,0.0-2.0-0.58-0.526-3.526,0,0,0,90,false,stim,false,2,1827,1,1,0,53294,task1,1366537,false,true,1738,image-keyboard-response,40
true,13,2,2,2,true,d,false,true,0.0-2.0-0.58-0.527-3.527,0,0,0,68,false,stim,false,1,1375,1,1,1,53294,task1,1369433,false,false,1741,image-keyboard-response,41
true,13,1,2,1,true,z,false,true,0.0-2.0-0.58-0.528-3.528,0,0,0,90,false,stim,false,0,453,1,1,2,53294,task1,1371408,false,false,1744,image-keyboard-response,42
true,14,0,0,2,false,d,true,false,0.0-2.0-0.58-0.529-3.529,1,1,1,81,true,stim,false,2,2175,1,1,1,53294,task1,1427519,false,false,1799,image-keyboard-response,1
true,14,2,0,1,false,z,true,false,0.0-2.0-0.58-0.530-3.530,1,1,1,68,false,stim,false,1,1432,1,1,0,53294,task1,1430472,false,false,1802,image-keyboard-response,2
true,14,1,0,2,false,d,true,false,0.0-2.0-0.59-0.531-3.531,1,1,1,90,false,stim,false,2,1073,1,1,1,53294,task1,1433063,false,false,1805,image-keyboard-response,3
true,14,2,0,1,false,z,true,false,0.0-2.0-0.59-0.532-3.532,1,1,1,68,false,stim,false,1,836,1,1,2,53294,task1,1435416,false,false,1808,image-keyboard-response,4
true,14,1,0,1,true,z,false,true,0.0-2.0-0.59-0.533-3.533,1,1,1,90,false,stim,false,1,576,1,1,2,53294,task1,1437520,false,false,1811,image-keyboard-response,5
true,14,2,0,2,true,d,false,true,0.0-2.0-0.59-0.534-3.534,1,1,1,68,false,stim,false,2,806,1,1,1,53294,task1,1439833,false,false,1814,image-keyboard-response,6
true,14,1,0,1,true,z,false,true,0.0-2.0-0.59-0.535-3.535,1,1,1,90,false,stim,false,1,1039,1,1,2,53294,task1,1442392,false,false,1817,image-keyboard-response,7
true,14,0,0,1,false,z,true,false,0.0-2.0-0.59-0.536-3.536,1,1,1,81,false,stim,false,1,901,1,1,0,53294,task1,1444816,false,false,1820,image-keyboard-response,8
true,14,1,0,1,true,z,false,false,0.0-2.0-0.59-0.537-3.537,1,1,1,90,false,stim,false,1,387,1,0,0,53294,task1,1446720,false,true,1823,image-keyboard-response,9
true,14,2,0,1,false,z,true,false,0.0-2.0-0.59-0.538-3.538,1,1,1,68,false,stim,false,1,487,1,0,0,53294,task1,1448720,false,false,1826,image-keyboard-response,10
true,14,2,0,2,true,d,false,true,0.0-2.0-0.59-0.539-3.539,1,1,1,68,false,stim,false,2,923,1,0,1,53294,task1,1451160,false,false,1829,image-keyboard-response,11
true,14,1,0,1,true,z,false,true,0.0-2.0-0.60-0.540-3.540,1,1,1,90,false,stim,false,1,410,1,0,2,53294,task1,1453088,false,false,1832,image-keyboard-response,12
true,14,1,0,1,true,z,false,true,0.0-2.0-0.60-0.541-3.541,1,1,1,90,false,stim,false,1,500,1,0,2,53294,task1,1455103,false,false,1835,image-keyboard-response,13
true,15,2,1,0,false,q,false,false,0.0-2.0-0.60-0.542-3.542,0,0,0,68,true,stim,true,2,359,1,0,1,53294,task1,1456976,false,false,1838,image-keyboard-response,1
true,15,1,1,0,false,q,true,false,0.0-2.0-0.60-0.543-3.543,0,0,0,90,false,stim,false,2,326,1,0,1,53294,task1,1458817,false,false,1841,image-keyboard-response,2
true,15,2,1,0,false,q,true,false,0.0-2.0-0.60-0.544-3.544,0,0,0,68,false,stim,false,1,1062,1,0,0,53294,task1,1461400,false,false,1844,image-keyboard-response,3
true,15,1,1,2,false,d,false,false,0.0-2.0-0.60-0.545-3.545,0,0,0,90,false,stim,true,1,580,1,0,2,53294,task1,1463496,false,false,1847,image-keyboard-response,4
true,15,2,1,0,false,q,false,false,0.0-2.0-0.60-0.546-3.546,0,0,0,68,false,stim,true,2,1029,1,0,1,53294,task1,1466032,false,false,1850,image-keyboard-response,5
true,15,0,1,0,true,q,false,false,0.0-2.0-0.60-0.547-3.547,0,0,0,81,false,stim,false,1,695,1,0,0,53294,task1,1468248,false,true,1853,image-keyboard-response,6
true,15,0,1,0,true,q,false,true,0.0-2.0-0.60-0.548-3.548,0,0,0,81,false,stim,false,1,708,1,0,0,53294,task1,1470480,false,false,1856,image-keyboard-response,7
true,15,0,1,0,true,q,false,true,0.0-2.0-0.61-0.549-3.549,0,0,0,81,false,stim,false,1,854,1,0,0,53294,task1,1472848,false,false,1859,image-keyboard-response,8
true,15,1,1,2,false,d,false,true,0.0-2.0-0.61-0.550-3.550,0,0,0,90,false,stim,true,1,885,1,0,2,53294,task1,1475265,false,true,1862,image-keyboard-response,9
true,15,1,1,2,false,d,false,false,0.0-2.0-0.61-0.551-3.551,0,0,0,90,false,stim,true,1,845,1,0,2,53294,task1,1477632,false,false,1865,image-keyboard-response,10
true,15,1,1,2,false,d,false,false,0.0-2.0-0.61-0.552-3.552,0,0,0,90,false,stim,true,1,628,1,0,2,53294,task1,1479776,false,false,1868,image-keyboard-response,11
true,15,2,1,0,false,q,false,false,0.0-2.0-0.61-0.553-3.553,0,0,0,68,false,stim,true,2,1417,1,0,1,53294,task1,1482712,false,false,1871,image-keyboard-response,12
true,15,0,1,0,true,q,false,true,0.0-2.0-0.61-0.554-3.554,0,0,0,81,false,stim,false,1,791,1,0,0,53294,task1,1485032,false,false,1874,image-keyboard-response,13
true,15,0,1,0,true,q,false,true,0.0-2.0-0.61-0.555-3.555,0,0,0,81,false,stim,false,1,713,1,0,0,53294,task1,1487264,false,false,1877,image-keyboard-response,14
true,15,0,1,0,true,q,false,true,0.0-2.0-0.61-0.556-3.556,0,0,0,81,false,stim,false,2,668,1,0,1,53294,task1,1489457,false,false,1880,image-keyboard-response,15
true,15,0,1,0,true,q,false,true,0.0-2.0-0.61-0.557-3.557,0,0,0,81,false,stim,false,2,863,1,0,1,53294,task1,1491841,false,false,1883,image-keyboard-response,16
true,15,1,1,2,false,d,false,false,0.0-2.0-0.62-0.558-3.558,0,0,0,90,false,stim,true,1,1342,1,0,2,53294,task1,1494713,false,false,1886,image-keyboard-response,17
true,15,0,1,0,true,q,false,true,0.0-2.0-0.62-0.559-3.559,0,0,0,81,false,stim,false,1,653,1,0,0,53294,task1,1496889,false,false,1889,image-keyboard-response,18
true,15,2,1,2,true,d,false,true,0.0-2.0-0.62-0.560-3.560,0,0,0,68,false,stim,false,1,1302,1,0,2,53294,task1,1499712,false,false,1892,image-keyboard-response,19
true,15,0,1,0,true,q,false,true,0.0-2.0-0.62-0.561-3.561,0,0,0,81,false,stim,false,2,604,1,0,1,53294,task1,1501832,false,false,1895,image-keyboard-response,20
true,15,0,1,0,true,q,false,true,0.0-2.0-0.62-0.562-3.562,0,0,0,81,false,stim,false,1,706,1,0,0,53294,task1,1504064,false,false,1898,image-keyboard-response,21
true,15,0,1,0,true,q,false,true,0.0-2.0-0.62-0.563-3.563,0,0,0,81,false,stim,false,1,459,1,0,0,53294,task1,1506047,false,false,1901,image-keyboard-response,22
true,15,0,1,0,true,q,false,true,0.0-2.0-0.62-0.564-3.564,0,0,0,81,false,stim,false,2,1590,1,0,1,53294,task1,1509152,false,false,1904,image-keyboard-response,23
true,15,2,1,2,true,d,false,true,0.0-2.0-0.62-0.565-3.565,0,0,0,68,false,stim,false,1,600,1,0,2,53294,task1,1511272,false,false,1907,image-keyboard-response,24
true,15,0,1,0,true,q,false,true,0.0-2.0-0.62-0.566-3.566,0,0,0,81,false,stim,false,2,420,1,0,1,53294,task1,1513224,false,false,1910,image-keyboard-response,25
true,15,0,1,0,true,q,false,false,0.0-2.0-0.63-0.567-3.567,0,0,0,81,false,stim,false,2,580,1,0,1,53294,task1,1515328,false,true,1913,image-keyboard-response,26
true,15,0,1,0,true,q,false,true,0.0-2.0-0.63-0.568-3.568,0,0,0,81,false,stim,false,1,368,1,0,0,53294,task1,1517216,false,false,1916,image-keyboard-response,27
true,15,0,1,0,true,q,false,true,0.0-2.0-0.63-0.569-3.569,0,0,0,81,false,stim,false,1,815,1,0,0,53294,task1,1519560,false,false,1919,image-keyboard-response,28
true,15,0,1,0,true,q,false,true,0.0-2.0-0.63-0.570-3.570,0,0,0,81,false,stim,false,2,1115,1,0,1,53294,task1,1522192,false,false,1922,image-keyboard-response,29
true,15,0,1,0,true,q,false,true,0.0-2.0-0.63-0.571-3.571,0,0,0,81,false,stim,false,1,634,1,0,0,53294,task1,1524352,false,false,1925,image-keyboard-response,30
true,15,2,1,2,true,d,false,true,0.0-2.0-0.63-0.572-3.572,0,0,0,68,false,stim,false,1,717,1,0,2,53294,task1,1526584,false,false,1928,image-keyboard-response,31
true,15,2,1,2,true,d,false,true,0.0-2.0-0.63-0.573-3.573,0,0,0,68,false,stim,false,1,666,1,0,2,53294,task1,1528768,false,false,1931,image-keyboard-response,32
true,15,0,1,0,true,q,false,true,0.0-2.0-0.63-0.574-3.574,0,0,0,81,false,stim,false,2,1289,1,0,1,53294,task1,1531585,false,false,1934,image-keyboard-response,33
true,15,2,1,2,true,d,false,true,0.0-2.0-0.63-0.575-3.575,0,0,0,68,false,stim,false,1,757,1,0,2,53294,task1,1533864,false,false,1937,image-keyboard-response,34
true,15,0,1,0,true,q,false,true,0.0-2.0-0.64-0.576-3.576,0,0,0,81,false,stim,false,2,639,1,0,1,53294,task1,1536024,false,false,1940,image-keyboard-response,35
true,15,0,1,0,true,q,false,true,0.0-2.0-0.64-0.577-3.577,0,0,0,81,false,stim,false,1,1346,1,0,0,53294,task1,1538889,false,false,1943,image-keyboard-response,36
true,15,2,1,2,true,d,false,true,0.0-2.0-0.64-0.578-3.578,0,0,0,68,false,stim,false,1,814,1,0,2,53294,task1,1541231,false,false,1946,image-keyboard-response,37
false,15,-1,1,0,false,q,true,false,0.0-2.0-0.64-0.579-3.579,0,0,0,,false,stim,false,1,,1,0,0,53294,task1,1545745,false,false,1949,image-keyboard-response,38
true,15,0,1,0,true,q,false,true,0.0-2.0-0.64-0.580-3.580,0,0,0,81,false,stim,false,2,464,1,0,1,53294,task1,1547720,false,false,1952,image-keyboard-response,39
true,15,0,1,0,true,q,false,true,0.0-2.0-0.64-0.581-3.581,0,0,0,81,false,stim,false,2,561,1,0,1,53294,task1,1549807,false,false,1955,image-keyboard-response,40
true,16,0,2,1,false,z,false,false,0.0-2.0-0.64-0.582-3.582,0,0,0,81,true,stim,true,0,567,1,0,0,53294,task1,1551896,false,false,1958,image-keyboard-response,1
true,16,2,2,1,false,z,false,false,0.0-2.0-0.64-0.583-3.583,0,0,0,68,false,stim,true,2,859,1,0,2,53294,task1,1554280,false,false,1961,image-keyboard-response,2
true,16,1,2,1,true,z,false,true,0.0-2.0-0.64-0.584-3.584,0,0,0,90,false,stim,false,2,440,1,0,2,53294,task1,1556240,false,false,1964,image-keyboard-response,3
true,16,0,2,1,false,z,false,false,0.0-2.0-0.65-0.585-3.585,0,0,0,81,false,stim,true,0,814,1,0,0,53294,task1,1558576,false,false,1967,image-keyboard-response,4
true,16,0,2,2,false,d,false,false,0.0-2.0-0.65-0.586-3.586,0,0,0,81,false,stim,true,0,967,1,0,1,53294,task1,1561063,false,false,1970,image-keyboard-response,5
true,16,1,2,2,false,d,true,false,0.0-2.0-0.65-0.587-3.587,0,0,0,90,false,stim,false,0,854,1,0,1,53294,task1,1563440,false,false,1973,image-keyboard-response,6
true,16,1,2,1,true,z,false,true,0.0-2.0-0.65-0.588-3.588,0,0,0,90,false,stim,false,0,748,1,0,0,53294,task1,1565712,false,false,1976,image-keyboard-response,7
true,16,2,2,2,true,d,false,false,0.0-2.0-0.65-0.589-3.589,0,0,0,68,false,stim,false,0,1085,1,0,1,53294,task1,1568304,false,true,1979,image-keyboard-response,8
true,16,1,2,1,true,z,false,true,0.0-2.0-0.65-0.590-3.590,0,0,0,90,false,stim,false,0,969,1,0,0,53294,task1,1570801,false,false,1982,image-keyboard-response,9
true,16,1,2,1,true,z,false,true,0.0-2.0-0.65-0.591-3.591,0,0,0,90,false,stim,false,2,359,1,0,2,53294,task1,1572672,false,false,1985,image-keyboard-response,10
true,16,0,2,1,false,z,true,false,0.0-2.0-0.65-0.592-3.592,0,0,0,81,false,stim,false,2,847,1,0,2,53294,task1,1575040,false,false,1988,image-keyboard-response,11
true,16,1,2,1,true,z,false,true,0.0-2.0-0.65-0.593-3.593,0,0,0,90,false,stim,false,2,409,1,0,2,53294,task1,1576968,false,false,1991,image-keyboard-response,12
true,16,1,2,2,false,d,true,false,0.0-2.0-0.66-0.594-3.594,0,0,0,90,false,stim,false,0,475,1,0,1,53294,task1,1578960,false,false,1994,image-keyboard-response,13
true,16,1,2,2,false,d,true,false,0.0-2.0-0.66-0.595-3.595,0,0,0,90,false,stim,false,0,380,1,0,1,53294,task1,1580864,false,false,1997,image-keyboard-response,14
true,16,1,2,1,true,z,false,true,0.0-2.0-0.66-0.596-3.596,0,0,0,90,false,stim,false,0,1048,1,0,0,53294,task1,1583433,false,false,2000,image-keyboard-response,15
true,16,1,2,1,true,z,false,false,0.0-2.0-0.66-0.597-3.597,0,0,0,90,false,stim,false,0,826,1,0,0,53294,task1,1585792,false,true,2003,image-keyboard-response,16
true,16,1,2,1,true,z,false,false,0.0-2.0-0.66-0.598-3.598,0,0,0,90,false,stim,false,2,893,1,0,2,53294,task1,1588209,false,true,2006,image-keyboard-response,17
true,16,1,2,1,true,z,false,true,0.0-2.0-0.66-0.599-3.599,0,0,0,90,false,stim,false,2,478,1,0,2,53294,task1,1590200,false,false,2009,image-keyboard-response,18
true,16,1,2,1,true,z,false,true,0.0-2.0-0.66-0.600-3.600,0,0,0,90,false,stim,false,0,373,1,0,0,53294,task1,1592096,false,false,2012,image-keyboard-response,19
true,16,1,2,1,true,z,false,true,0.0-2.0-0.66-0.601-3.601,0,0,0,90,false,stim,false,2,554,1,0,2,53294,task1,1594176,false,false,2015,image-keyboard-response,20
true,16,1,2,2,false,d,true,false,0.0-2.0-0.66-0.602-3.602,0,0,0,90,false,stim,false,0,456,1,0,1,53294,task1,1596143,false,false,2018,image-keyboard-response,21
true,16,2,2,2,true,d,false,true,0.0-2.0-0.67-0.603-3.603,0,0,0,68,false,stim,false,0,633,1,0,1,53294,task1,1598296,false,false,2021,image-keyboard-response,22
true,16,1,2,1,true,z,false,true,0.0-2.0-0.67-0.604-3.604,0,0,0,90,false,stim,false,2,616,1,0,2,53294,task1,1600440,false,false,2024,image-keyboard-response,23
true,16,1,2,1,true,z,false,false,0.0-2.0-0.67-0.605-3.605,0,0,0,90,false,stim,false,0,471,1,0,0,53294,task1,1602424,false,true,2027,image-keyboard-response,24
true,16,1,2,1,true,z,false,true,0.0-2.0-0.67-0.606-3.606,0,0,0,90,false,stim,false,2,627,1,0,2,53294,task1,1604567,false,false,2030,image-keyboard-response,25
true,16,2,2,2,true,d,false,true,0.0-2.0-0.67-0.607-3.607,0,0,0,68,false,stim,false,0,565,1,0,1,53294,task1,1606648,false,false,2033,image-keyboard-response,26
true,16,2,2,2,true,d,false,true,0.0-2.0-0.67-0.608-3.608,0,0,0,68,false,stim,false,0,418,1,0,1,53294,task1,1608584,false,false,2036,image-keyboard-response,27
true,16,1,2,1,true,z,false,true,0.0-2.0-0.67-0.609-3.609,0,0,0,90,false,stim,false,2,793,1,0,2,53294,task1,1610904,false,false,2039,image-keyboard-response,28
true,16,0,2,1,false,z,false,false,0.0-2.0-0.67-0.610-3.610,0,0,0,81,false,stim,true,0,519,1,0,0,53294,task1,1612944,false,false,2042,image-keyboard-response,29
true,16,1,2,1,true,z,false,true,0.0-2.0-0.67-0.611-3.611,0,0,0,90,false,stim,false,0,423,1,0,0,53294,task1,1614896,false,false,2045,image-keyboard-response,30
true,16,1,2,2,false,d,true,false,0.0-2.0-0.68-0.612-3.612,0,0,0,90,false,stim,false,0,592,1,0,1,53294,task1,1617008,false,false,2048,image-keyboard-response,31
true,16,1,2,1,true,z,false,true,0.0-2.0-0.68-0.613-3.613,0,0,0,90,false,stim,false,2,859,1,0,2,53294,task1,1619392,false,false,2051,image-keyboard-response,32
true,16,1,2,1,true,z,false,true,0.0-2.0-0.68-0.614-3.614,0,0,0,90,false,stim,false,0,567,1,0,0,53294,task1,1621488,false,false,2054,image-keyboard-response,33
true,16,1,2,1,true,z,false,true,0.0-2.0-0.68-0.615-3.615,0,0,0,90,false,stim,false,2,1454,1,0,2,53294,task1,1624471,false,false,2057,image-keyboard-response,34
true,16,1,2,1,true,z,false,true,0.0-2.0-0.68-0.616-3.616,0,0,0,90,false,stim,false,0,682,1,0,0,53294,task1,1626680,false,false,2060,image-keyboard-response,35
true,16,1,2,1,true,z,false,true,0.0-2.0-0.68-0.617-3.617,0,0,0,90,false,stim,false,0,573,1,0,0,53294,task1,1628783,false,false,2063,image-keyboard-response,36
true,16,1,2,1,true,z,false,true,0.0-2.0-0.68-0.618-3.618,0,0,0,90,false,stim,false,2,765,1,0,2,53294,task1,1631072,false,false,2066,image-keyboard-response,37
true,16,2,2,2,true,d,false,true,0.0-2.0-0.68-0.619-3.619,0,0,0,68,false,stim,false,0,946,1,0,1,53294,task1,1633536,false,false,2069,image-keyboard-response,38
true,16,2,2,2,true,d,false,true,0.0-2.0-0.68-0.620-3.620,0,0,0,68,false,stim,false,0,624,1,0,1,53294,task1,1635680,false,false,2072,image-keyboard-response,39
true,16,1,2,1,true,z,false,true,0.0-2.0-0.69-0.621-3.621,0,0,0,90,false,stim,false,2,530,1,0,2,53294,task1,1637728,false,false,2075,image-keyboard-response,40
true,16,1,2,1,true,z,false,true,0.0-2.0-0.69-0.622-3.622,0,0,0,90,false,stim,false,2,696,1,0,2,53294,task1,1639944,false,false,2078,image-keyboard-response,41
true,16,2,2,2,true,d,false,true,0.0-2.0-0.69-0.623-3.623,0,0,0,68,false,stim,false,0,829,1,0,1,53294,task1,1642296,false,false,2081,image-keyboard-response,42
true,17,1,2,0,false,q,true,false,0.0-2.0-0.69-0.624-3.624,0,0,0,90,true,stim,false,2,673,1,0,1,53294,task1,1644488,false,false,2084,image-keyboard-response,1
true,17,2,2,0,false,q,true,false,0.0-2.0-0.69-0.625-3.625,0,0,0,68,false,stim,false,1,279,1,0,2,53294,task1,1646288,false,false,2087,image-keyboard-response,2
true,17,1,2,2,false,d,false,false,0.0-2.0-0.69-0.626-3.626,0,0,0,90,false,stim,true,1,660,1,0,0,53294,task1,1648472,false,false,2090,image-keyboard-response,3
true,17,0,2,2,false,d,true,false,0.0-2.0-0.69-0.627-3.627,0,0,0,81,false,stim,false,1,410,1,0,0,53294,task1,1650400,false,false,2093,image-keyboard-response,4
true,17,2,2,2,true,d,false,true,0.0-2.0-0.69-0.628-3.628,0,0,0,68,false,stim,false,1,451,1,0,0,53294,task1,1652368,false,false,2096,image-keyboard-response,5
true,17,1,2,0,false,q,true,false,0.0-2.0-0.69-0.629-3.629,0,0,0,90,false,stim,false,2,804,1,0,1,53294,task1,1654696,false,false,2099,image-keyboard-response,6
true,17,0,2,0,true,q,false,true,0.0-2.0-0.70-0.630-3.630,0,0,0,81,false,stim,false,2,654,1,0,1,53294,task1,1656880,false,false,2102,image-keyboard-response,7
true,17,2,2,2,true,d,false,true,0.0-2.0-0.70-0.631-3.631,0,0,0,68,false,stim,false,1,865,1,0,0,53294,task1,1659255,false,false,2105,image-keyboard-response,8
true,17,2,2,2,true,d,false,true,0.0-2.0-0.70-0.632-3.632,0,0,0,68,false,stim,false,1,932,1,0,0,53294,task1,1661704,false,false,2108,image-keyboard-response,9
true,17,1,2,0,false,q,false,true,0.0-2.0-0.70-0.633-3.633,0,0,0,90,false,stim,true,1,1012,1,0,2,53294,task1,1664240,false,true,2111,image-keyboard-response,10
