answered,blockNum,choice,condition,corResp,correct,correct_response,explo,fb,internal_node_id,isStable_1,isStable_2,isStable_3,key_press,newBlock,part,persev,persevResp,rt,sessNum,stableAS,stimulus,subject,task,time_elapsed,training,trap,trial_index,trial_type,trialsInBlock
true,1,0,0,2,false,d,true,false,0.0-2.0-0.0-0.0-3.0,0,0,0,81,true,stim,false,-1,2405,1,0,2,53356,task1,220389,false,false,160,image-keyboard-response,1
true,1,0,0,1,false,z,true,false,0.0-2.0-0.0-0.1-3.1,0,0,0,81,false,stim,false,-1,1325,1,0,0,53356,task1,223251,false,false,163,image-keyboard-response,2
true,1,0,0,2,false,d,true,false,0.0-2.0-0.0-0.2-3.2,0,0,0,81,false,stim,false,-1,488,1,0,1,53356,task1,225264,false,false,166,image-keyboard-response,3
true,1,2,0,2,true,d,false,true,0.0-2.0-0.0-0.3-3.3,0,0,0,68,false,stim,false,-1,504,1,0,2,53356,task1,227300,false,false,169,image-keyboard-response,4
true,1,2,0,1,false,z,true,false,0.0-2.0-0.0-0.4-3.4,0,0,0,68,false,stim,false,-1,420,1,0,0,53356,task1,229256,false,false,172,image-keyboard-response,5
true,1,2,0,2,true,d,false,true,0.0-2.0-0.0-0.5-3.5,0,0,0,68,false,stim,false,-1,718,1,0,2,53356,task1,231516,false,false,175,image-keyboard-response,6
true,1,1,0,1,true,z,false,true,0.0-2.0-0.0-0.6-3.6,0,0,0,90,false,stim,false,-1,428,1,0,0,53356,task1,233486,false,false,178,image-keyboard-response,7
true,1,2,0,2,true,d,false,false,0.0-2.0-0.0-0.7-3.7,0,0,0,68,false,stim,false,-1,484,1,0,1,53356,task1,235503,false,true,181,image-keyboard-response,8
true,1,1,0,2,false,d,true,false,0.0-2.0-0.0-0.8-3.8,0,0,0,90,false,stim,false,-1,433,1,0,1,53356,task1,237469,false,false,184,image-keyboard-response,9
true,1,0,0,2,false,d,true,false,0.0-2.0-0.1-0.9-3.9,0,0,0,81,false,stim,false,-1,1381,1,0,1,53356,task1,240377,false,false,187,image-keyboard-response,10
true,1,2,0,2,true,d,false,true,0.0-2.0-0.1-0.10-3.10,0,0,0,68,false,stim,false,-1,684,1,0,2,53356,task1,242600,false,false,190,image-keyboard-response,11
true,1,2,0,2,true,d,false,true,0.0-2.0-0.1-0.11-3.11,0,0,0,68,false,stim,false,-1,601,1,0,2,53356,task1,244738,false,false,193,image-keyboard-response,12
true,1,1,0,1,true,z,false,true,0.0-2.0-0.1-0.12-3.12,0,0,0,90,false,stim,false,-1,630,1,0,0,53356,task1,246897,false,false,196,image-keyboard-response,13
true,1,1,0,1,true,z,false,true,0.0-2.0-0.1-0.13-3.13,0,0,0,90,false,stim,false,-1,612,1,0,0,53356,task1,249038,false,false,199,image-keyboard-response,14
true,1,2,0,2,true,d,false,true,0.0-2.0-0.1-0.14-3.14,0,0,0,68,false,stim,false,-1,445,1,0,1,53356,task1,251003,false,false,202,image-keyboard-response,15
true,1,1,0,1,true,z,false,true,0.0-2.0-0.1-0.15-3.15,0,0,0,90,false,stim,false,-1,848,1,0,0,53356,task1,253365,false,false,205,image-keyboard-response,16
true,1,2,0,2,true,d,false,true,0.0-2.0-0.1-0.16-3.16,0,0,0,68,false,stim,false,-1,617,1,0,1,53356,task1,255513,false,false,208,image-keyboard-response,17
true,1,2,0,2,true,d,false,true,0.0-2.0-0.1-0.17-3.17,0,0,0,68,false,stim,false,-1,467,1,0,2,53356,task1,257504,false,false,211,image-keyboard-response,18
true,1,2,0,2,true,d,false,true,0.0-2.0-0.2-0.18-3.18,0,0,0,68,false,stim,false,-1,641,1,0,2,53356,task1,259677,false,false,214,image-keyboard-response,19
true,1,2,0,2,true,d,false,true,0.0-2.0-0.2-0.19-3.19,0,0,0,68,false,stim,false,-1,1489,1,0,1,53356,task1,262707,false,false,217,image-keyboard-response,20
true,1,1,0,1,true,z,false,true,0.0-2.0-0.2-0.20-3.20,0,0,0,90,false,stim,false,-1,556,1,0,0,53356,task1,264793,false,false,220,image-keyboard-response,21
true,1,2,0,2,true,d,false,true,0.0-2.0-0.2-0.21-3.21,0,0,0,68,false,stim,false,-1,647,1,0,2,53356,task1,266963,false,false,223,image-keyboard-response,22
true,1,2,0,2,true,d,false,true,0.0-2.0-0.2-0.22-3.22,0,0,0,68,false,stim,false,-1,670,1,0,1,53356,task1,269167,false,false,226,image-keyboard-response,23
true,1,1,0,1,true,z,false,true,0.0-2.0-0.2-0.23-3.23,0,0,0,90,false,stim,false,-1,577,1,0,0,53356,task1,271274,false,false,229,image-keyboard-response,24
true,1,2,0,2,true,d,false,true,0.0-2.0-0.2-0.24-3.24,0,0,0,68,false,stim,false,-1,672,1,0,2,53356,task1,273488,false,false,232,image-keyboard-response,25
true,1,2,0,2,true,d,false,true,0.0-2.0-0.2-0.25-3.25,0,0,0,68,false,stim,false,-1,689,1,0,1,53356,task1,275706,false,false,235,image-keyboard-response,26
true,2,1,1,2,false,d,false,false,0.0-2.0-0.2-0.26-3.26,0,0,0,90,true,stim,true,1,619,1,0,0,53356,task1,277855,false,false,238,image-keyboard-response,1
true,2,2,1,0,false,q,false,false,0.0-2.0-0.3-0.27-3.27,0,0,0,68,false,stim,true,2,922,1,0,1,53356,task1,280320,false,false,241,image-keyboard-response,2
true,2,2,1,2,true,d,false,true,0.0-2.0-0.3-0.28-3.28,0,0,0,68,false,stim,false,1,922,1,0,0,53356,task1,282779,false,false,244,image-keyboard-response,3
true,2,2,1,2,true,d,false,true,0.0-2.0-0.3-0.29-3.29,0,0,0,68,false,stim,false,1,676,1,0,0,53356,task1,284992,false,false,247,image-keyboard-response,4
true,2,2,1,0,false,q,false,false,0.0-2.0-0.3-0.30-3.30,0,0,0,68,false,stim,true,2,661,1,0,2,53356,task1,287188,false,false,250,image-keyboard-response,5
true,2,1,1,0,false,q,true,false,0.0-2.0-0.3-0.31-3.31,0,0,0,90,false,stim,false,2,1473,1,0,1,53356,task1,290201,false,false,253,image-keyboard-response,6
true,2,2,1,2,true,d,false,true,0.0-2.0-0.3-0.32-3.32,0,0,0,68,false,stim,false,1,622,1,0,0,53356,task1,292349,false,false,256,image-keyboard-response,7
true,2,1,1,0,false,q,true,false,0.0-2.0-0.3-0.33-3.33,0,0,0,90,false,stim,false,2,658,1,0,2,53356,task1,294534,false,false,259,image-keyboard-response,8
true,2,0,1,0,true,q,false,true,0.0-2.0-0.3-0.34-3.34,0,0,0,81,false,stim,false,2,1144,1,0,2,53356,task1,297206,false,false,262,image-keyboard-response,9
true,2,0,1,0,true,q,false,false,0.0-2.0-0.3-0.35-3.35,0,0,0,81,false,stim,false,2,719,1,0,1,53356,task1,299456,false,true,265,image-keyboard-response,10
true,2,0,1,0,true,q,false,true,0.0-2.0-0.4-0.36-3.36,0,0,0,81,false,stim,false,2,744,1,0,2,53356,task1,301741,false,false,268,image-keyboard-response,11
true,2,2,1,0,false,q,false,false,0.0-2.0-0.4-0.37-3.37,0,0,0,68,false,stim,true,2,554,1,0,1,53356,task1,303832,false,false,271,image-keyboard-response,12
true,2,1,1,0,false,q,true,false,0.0-2.0-0.4-0.38-3.38,0,0,0,90,false,stim,false,2,1450,1,0,1,53356,task1,306808,false,false,274,image-keyboard-response,13
true,2,2,1,2,true,d,false,true,0.0-2.0-0.4-0.39-3.39,0,0,0,68,false,stim,false,1,862,1,0,0,53356,task1,309208,false,false,277,image-keyboard-response,14
true,2,2,1,2,true,d,false,false,0.0-2.0-0.4-0.40-3.40,0,0,0,68,false,stim,false,1,745,1,0,0,53356,task1,311491,false,true,280,image-keyboard-response,15
true,2,1,1,2,false,d,false,false,0.0-2.0-0.4-0.41-3.41,0,0,0,90,false,stim,true,1,1151,1,0,0,53356,task1,314179,false,false,283,image-keyboard-response,16
true,2,2,1,0,false,q,false,false,0.0-2.0-0.4-0.42-3.42,0,0,0,68,false,stim,true,2,745,1,0,2,53356,task1,316453,false,false,286,image-keyboard-response,17
true,2,0,1,0,true,q,false,true,0.0-2.0-0.4-0.43-3.43,0,0,0,81,false,stim,false,2,391,1,0,2,53356,task1,318378,false,false,289,image-keyboard-response,18
true,2,2,1,0,false,q,false,true,0.0-2.0-0.4-0.44-3.44,0,0,0,68,false,stim,true,2,412,1,0,1,53356,task1,320310,false,true,292,image-keyboard-response,19
true,2,1,1,2,false,d,false,false,0.0-2.0-0.5-0.45-3.45,0,0,0,90,false,stim,true,1,1110,1,0,0,53356,task1,322941,false,false,295,image-keyboard-response,20
true,2,2,1,0,false,q,false,false,0.0-2.0-0.5-0.46-3.46,0,0,0,68,false,stim,true,2,573,1,0,1,53356,task1,325049,false,false,298,image-keyboard-response,21
true,2,0,1,0,true,q,false,false,0.0-2.0-0.5-0.47-3.47,0,0,0,81,false,stim,false,2,1100,1,0,2,53356,task1,327687,false,true,301,image-keyboard-response,22
true,2,1,1,2,false,d,false,false,0.0-2.0-0.5-0.48-3.48,0,0,0,90,false,stim,true,1,1436,1,0,0,53356,task1,330652,false,false,304,image-keyboard-response,23
true,2,2,1,0,false,q,false,true,0.0-2.0-0.5-0.49-3.49,0,0,0,68,false,stim,true,2,557,1,0,1,53356,task1,332734,false,true,307,image-keyboard-response,24
true,2,1,1,2,false,d,false,false,0.0-2.0-0.5-0.50-3.50,0,0,0,90,false,stim,true,1,1212,1,0,0,53356,task1,335488,false,false,310,image-keyboard-response,25
true,2,0,1,0,true,q,false,true,0.0-2.0-0.5-0.51-3.51,0,0,0,81,false,stim,false,2,664,1,0,2,53356,task1,337692,false,false,313,image-keyboard-response,26
true,2,0,1,0,true,q,false,true,0.0-2.0-0.5-0.52-3.52,0,0,0,81,false,stim,false,2,797,1,0,2,53356,task1,340023,false,false,316,image-keyboard-response,27
true,2,2,1,0,false,q,false,false,0.0-2.0-0.5-0.53-3.53,0,0,0,68,false,stim,true,2,703,1,0,1,53356,task1,342249,false,false,319,image-keyboard-response,28
true,2,0,1,0,true,q,false,false,0.0-2.0-0.6-0.54-3.54,0,0,0,81,false,stim,false,2,1084,1,0,1,53356,task1,344871,false,true,322,image-keyboard-response,29
true,2,0,1,2,false,d,true,false,0.0-2.0-0.6-0.55-3.55,0,0,0,81,false,stim,false,1,1501,1,0,0,53356,task1,347909,false,false,325,image-keyboard-response,30
true,2,2,1,0,false,q,false,false,0.0-2.0-0.6-0.56-3.56,0,0,0,68,false,stim,true,2,938,1,0,2,53356,task1,350385,false,false,328,image-keyboard-response,31
true,2,0,1,0,true,q,false,true,0.0-2.0-0.6-0.57-3.57,0,0,0,81,false,stim,false,2,710,1,0,2,53356,task1,352627,false,false,331,image-keyboard-response,32
true,2,0,1,0,true,q,false,true,0.0-2.0-0.6-0.58-3.58,0,0,0,81,false,stim,false,2,608,1,0,2,53356,task1,354764,false,false,334,image-keyboard-response,33
true,2,1,1,0,false,q,true,false,0.0-2.0-0.6-0.59-3.59,0,0,0,90,false,stim,false,2,1566,1,0,1,53356,task1,357863,false,false,337,image-keyboard-response,34
true,2,1,1,2,false,d,false,false,0.0-2.0-0.6-0.60-3.60,0,0,0,90,false,stim,true,1,1134,1,0,0,53356,task1,360532,false,false,340,image-keyboard-response,35
true,2,2,1,2,true,d,false,false,0.0-2.0-0.6-0.61-3.61,0,0,0,68,false,stim,false,1,987,1,0,0,53356,task1,363065,false,true,343,image-keyboard-response,36
true,2,2,1,0,false,q,false,false,0.0-2.0-0.6-0.62-3.62,0,0,0,68,false,stim,true,2,790,1,0,1,53356,task1,365387,false,false,346,image-keyboard-response,37
true,2,0,1,2,false,d,true,false,0.0-2.0-0.7-0.63-3.63,0,0,0,81,false,stim,false,1,2068,1,0,0,53356,task1,368985,false,false,349,image-keyboard-response,38
true,2,2,1,2,true,d,false,true,0.0-2.0-0.7-0.64-3.64,0,0,0,68,false,stim,false,1,490,1,0,0,53356,task1,371007,false,false,352,image-keyboard-response,39
true,2,0,1,0,true,q,false,true,0.0-2.0-0.7-0.65-3.65,0,0,0,81,false,stim,false,2,451,1,0,2,53356,task1,372977,false,false,355,image-keyboard-response,40
true,2,0,1,0,true,q,false,false,0.0-2.0-0.7-0.66-3.66,0,0,0,81,false,stim,false,2,2205,1,0,1,53356,task1,376711,false,true,358,image-keyboard-response,41
true,3,2,1,0,false,q,false,false,0.0-2.0-0.7-0.67-3.67,0,0,0,68,true,stim,true,2,2189,1,0,0,53356,task1,380436,false,false,361,image-keyboard-response,1
true,3,0,1,1,false,z,false,false,0.0-2.0-0.7-0.68-3.68,0,0,0,81,false,stim,true,0,553,1,0,2,53356,task1,382520,false,false,364,image-keyboard-response,2
true,3,1,1,2,false,d,true,false,0.0-2.0-0.7-0.69-3.69,0,0,0,90,false,stim,false,0,1696,1,0,1,53356,task1,385744,false,false,367,image-keyboard-response,3
true,3,2,1,1,false,z,true,false,0.0-2.0-0.7-0.70-3.70,0,0,0,68,false,stim,false,0,2992,1,0,2,53356,task1,390277,false,false,370,image-keyboard-response,4
true,3,2,1,2,true,d,false,false,0.0-2.0-0.7-0.71-3.71,0,0,0,68,false,stim,false,0,594,1,0,1,53356,task1,392412,false,true,373,image-keyboard-response,5
false,3,-1,1,1,false,z,true,false,0.0-2.0-0.8-0.72-3.72,0,0,0,,false,stim,false,0,,1,0,2,53356,task1,396945,false,false,376,image-keyboard-response,6
true,3,0,1,2,false,d,false,false,0.0-2.0-0.8-0.73-3.73,0,0,0,81,false,stim,true,0,542,1,0,1,53356,task1,399029,false,false,379,image-keyboard-response,7
true,3,2,1,1,false,z,true,false,0.0-2.0-0.8-0.74-3.74,0,0,0,68,false,stim,false,0,542,1,0,2,53356,task1,401109,false,false,382,image-keyboard-response,8
true,3,1,1,2,false,d,true,false,0.0-2.0-0.8-0.75-3.75,0,0,0,90,false,stim,false,0,990,1,0,1,53356,task1,403637,false,false,385,image-keyboard-response,9
true,3,2,1,2,true,d,false,true,0.0-2.0-0.8-0.76-3.76,0,0,0,68,false,stim,false,0,1549,1,0,1,53356,task1,406725,false,false,388,image-keyboard-response,10
false,3,-1,1,0,false,q,true,false,0.0-2.0-0.8-0.77-3.77,0,0,0,,false,stim,false,2,,1,0,0,53356,task1,411266,false,false,391,image-keyboard-response,11
true,3,0,1,0,true,q,false,true,0.0-2.0-0.8-0.78-3.78,0,0,0,81,false,stim,false,2,546,1,0,0,53356,task1,413328,false,false,394,image-keyboard-response,12
true,3,1,1,1,true,z,false,true,0.0-2.0-0.8-0.79-3.79,0,0,0,90,false,stim,false,0,992,1,0,2,53356,task1,415848,false,false,397,image-keyboard-response,13
true,3,2,1,0,false,q,false,false,0.0-2.0-0.8-0.80-3.80,0,0,0,68,false,stim,true,2,1913,1,0,0,53356,task1,419299,false,false,400,image-keyboard-response,14
true,3,2,1,2,true,d,false,true,0.0-2.0-0.9-0.81-3.81,0,0,0,68,false,stim,false,0,1127,1,0,1,53356,task1,421963,false,false,403,image-keyboard-response,15
true,3,0,1,0,true,q,false,true,0.0-2.0-0.9-0.82-3.82,0,0,0,81,false,stim,false,2,711,1,0,0,53356,task1,424217,false,false,406,image-keyboard-response,16
true,3,1,1,1,true,z,false,true,0.0-2.0-0.9-0.83-3.83,0,0,0,90,false,stim,false,0,824,1,0,2,53356,task1,426566,false,false,409,image-keyboard-response,17
true,3,0,1,0,true,q,false,true,0.0-2.0-0.9-0.84-3.84,0,0,0,81,false,stim,false,2,440,1,0,0,53356,task1,428526,false,false,412,image-keyboard-response,18
true,3,0,1,0,true,q,false,true,0.0-2.0-0.9-0.85-3.85,0,0,0,81,false,stim,false,2,614,1,0,0,53356,task1,430660,false,false,415,image-keyboard-response,19
true,3,1,1,1,true,z,false,true,0.0-2.0-0.9-0.86-3.86,0,0,0,90,false,stim,false,0,1057,1,0,2,53356,task1,433243,false,false,418,image-keyboard-response,20
true,3,2,1,2,true,d,false,true,0.0-2.0-0.9-0.87-3.87,0,0,0,68,false,stim,false,0,647,1,0,1,53356,task1,435423,false,false,421,image-keyboard-response,21
true,3,2,1,2,true,d,false,true,0.0-2.0-0.9-0.88-3.88,0,0,0,68,false,stim,false,0,1207,1,0,1,53356,task1,438156,false,false,424,image-keyboard-response,22
true,3,1,1,1,true,z,false,true,0.0-2.0-0.9-0.89-3.89,0,0,0,90,false,stim,false,0,1392,1,0,2,53356,task1,441068,false,false,427,image-keyboard-response,23
true,3,0,1,0,true,q,false,true,0.0-2.0-0.10-0.90-3.90,0,0,0,81,false,stim,false,2,853,1,0,0,53356,task1,443441,false,false,430,image-keyboard-response,24
true,3,1,1,1,true,z,false,false,0.0-2.0-0.10-0.91-3.91,0,0,0,90,false,stim,false,0,994,1,0,2,53356,task1,445971,false,true,433,image-keyboard-response,25
true,3,0,1,0,true,q,false,true,0.0-2.0-0.10-0.92-3.92,0,0,0,81,false,stim,false,2,2103,1,0,0,53356,task1,449609,false,false,436,image-keyboard-response,26
true,3,2,1,2,true,d,false,true,0.0-2.0-0.10-0.93-3.93,0,0,0,68,false,stim,false,0,1285,1,0,1,53356,task1,452416,false,false,439,image-keyboard-response,27
true,3,2,1,1,false,z,true,false,0.0-2.0-0.10-0.94-3.94,0,0,0,68,false,stim,false,0,1161,1,0,2,53356,task1,455087,false,false,442,image-keyboard-response,28
true,3,2,1,2,true,d,false,true,0.0-2.0-0.10-0.95-3.95,0,0,0,68,false,stim,false,0,654,1,0,1,53356,task1,457260,false,false,445,image-keyboard-response,29
true,3,0,1,0,true,q,false,true,0.0-2.0-0.10-0.96-3.96,0,0,0,81,false,stim,false,2,580,1,0,0,53356,task1,459377,false,false,448,image-keyboard-response,30
true,3,2,1,2,true,d,false,true,0.0-2.0-0.10-0.97-3.97,0,0,0,68,false,stim,false,0,735,1,0,1,53356,task1,461641,false,false,451,image-keyboard-response,31
true,3,0,1,1,false,z,false,true,0.0-2.0-0.10-0.98-3.98,0,0,0,81,false,stim,true,0,1028,1,0,2,53356,task1,464194,false,true,454,image-keyboard-response,32
true,3,0,1,1,false,z,false,false,0.0-2.0-0.11-0.99-3.99,0,0,0,81,false,stim,true,0,613,1,0,2,53356,task1,466339,false,false,457,image-keyboard-response,33
true,3,1,1,1,true,z,false,true,0.0-2.0-0.11-0.100-3.100,0,0,0,90,false,stim,false,0,1481,1,0,2,53356,task1,469347,false,false,460,image-keyboard-response,34
true,3,0,1,0,true,q,false,true,0.0-2.0-0.11-0.101-3.101,0,0,0,81,false,stim,false,2,1035,1,0,0,53356,task1,471923,false,false,463,image-keyboard-response,35
true,3,1,1,1,true,z,false,true,0.0-2.0-0.11-0.102-3.102,0,0,0,90,false,stim,false,0,714,1,0,2,53356,task1,474161,false,false,466,image-keyboard-response,36
true,3,0,1,0,true,q,false,true,0.0-2.0-0.11-0.103-3.103,0,0,0,81,false,stim,false,2,447,1,0,0,53356,task1,476134,false,false,469,image-keyboard-response,37
true,3,2,1,2,true,d,false,true,0.0-2.0-0.11-0.104-3.104,0,0,0,68,false,stim,false,0,587,1,0,1,53356,task1,478253,false,false,472,image-keyboard-response,38
true,3,2,1,2,true,d,false,true,0.0-2.0-0.11-0.105-3.105,0,0,0,68,false,stim,false,0,631,1,0,1,53356,task1,480427,false,false,475,image-keyboard-response,39
true,4,2,1,0,false,q,false,false,0.0-2.0-0.11-0.106-3.106,0,0,0,68,true,stim,true,2,1365,1,0,1,53356,task1,483332,false,false,478,image-keyboard-response,1
true,4,0,1,2,false,d,false,false,0.0-2.0-0.11-0.107-3.107,0,0,0,81,false,stim,true,0,1121,1,0,0,53356,task1,485976,false,false,481,image-keyboard-response,2
true,4,1,1,2,false,d,false,true,0.0-2.0-0.12-0.108-3.108,0,0,0,90,false,stim,true,1,1204,1,0,2,53356,task1,488716,false,true,484,image-keyboard-response,3
true,4,2,1,2,true,d,false,false,0.0-2.0-0.12-0.109-3.109,0,0,0,68,false,stim,false,0,921,1,0,0,53356,task1,491178,false,true,487,image-keyboard-response,4
true,4,2,1,0,false,q,false,false,0.0-2.0-0.12-0.110-3.110,0,0,0,68,false,stim,true,2,679,1,0,1,53356,task1,493392,false,false,490,image-keyboard-response,5
true,4,0,1,2,false,d,false,false,0.0-2.0-0.12-0.111-3.111,0,0,0,81,false,stim,true,0,2009,1,0,0,53356,task1,496924,false,false,493,image-keyboard-response,6
true,4,1,1,2,false,d,true,false,0.0-2.0-0.12-0.112-3.112,0,0,0,90,false,stim,false,0,469,1,0,0,53356,task1,498927,false,false,496,image-keyboard-response,7
true,4,0,1,0,true,q,false,true,0.0-2.0-0.12-0.113-3.113,0,0,0,81,false,stim,false,2,933,1,0,1,53356,task1,501400,false,false,499,image-keyboard-response,8
true,4,1,1,2,false,d,false,false,0.0-2.0-0.12-0.114-3.114,0,0,0,90,false,stim,true,1,897,1,0,2,53356,task1,503825,false,false,502,image-keyboard-response,9
true,4,0,1,0,true,q,false,true,0.0-2.0-0.12-0.115-3.115,0,0,0,81,false,stim,false,2,955,1,0,1,53356,task1,506322,false,false,505,image-keyboard-response,10
true,4,2,1,2,true,d,false,true,0.0-2.0-0.12-0.116-3.116,0,0,0,68,false,stim,false,1,437,1,0,2,53356,task1,508283,false,false,508,image-keyboard-response,11
true,4,0,1,0,true,q,false,true,0.0-2.0-0.13-0.117-3.117,0,0,0,81,false,stim,false,2,715,1,0,1,53356,task1,510531,false,false,511,image-keyboard-response,12
true,4,1,1,2,false,d,true,false,0.0-2.0-0.13-0.118-3.118,0,0,0,90,false,stim,false,0,1025,1,0,0,53356,task1,513093,false,false,514,image-keyboard-response,13
true,4,2,1,2,true,d,false,true,0.0-2.0-0.13-0.119-3.119,0,0,0,68,false,stim,false,1,991,1,0,2,53356,task1,515617,false,false,517,image-keyboard-response,14
true,4,0,1,2,false,d,false,false,0.0-2.0-0.13-0.120-3.120,0,0,0,81,false,stim,true,0,772,1,0,0,53356,task1,517919,false,false,520,image-keyboard-response,15
true,4,2,1,2,true,d,false,true,0.0-2.0-0.13-0.121-3.121,0,0,0,68,false,stim,false,1,660,1,0,2,53356,task1,520107,false,false,523,image-keyboard-response,16
true,4,2,1,2,true,d,false,false,0.0-2.0-0.13-0.122-3.122,0,0,0,68,false,stim,false,1,575,1,0,2,53356,task1,522222,false,true,526,image-keyboard-response,17
false,4,-1,1,2,false,d,true,true,0.0-2.0-0.13-0.123-3.123,0,0,0,,false,stim,false,0,,1,0,0,53356,task1,526765,false,true,529,image-keyboard-response,18
true,4,0,1,0,true,q,false,true,0.0-2.0-0.13-0.124-3.124,0,0,0,81,false,stim,false,2,738,1,0,1,53356,task1,529045,false,false,532,image-keyboard-response,19
true,4,0,1,0,true,q,false,true,0.0-2.0-0.13-0.125-3.125,0,0,0,81,false,stim,false,2,907,1,0,1,53356,task1,531495,false,false,535,image-keyboard-response,20
true,4,2,1,2,true,d,false,true,0.0-2.0-0.14-0.126-3.126,0,0,0,68,false,stim,false,0,846,1,0,0,53356,task1,533874,false,false,538,image-keyboard-response,21
true,4,0,1,0,true,q,false,true,0.0-2.0-0.14-0.127-3.127,0,0,0,81,false,stim,false,2,608,1,0,1,53356,task1,536026,false,false,541,image-keyboard-response,22
true,4,1,1,2,false,d,false,false,0.0-2.0-0.14-0.128-3.128,0,0,0,90,false,stim,true,1,1292,1,0,2,53356,task1,538849,false,false,544,image-keyboard-response,23
true,4,2,1,2,true,d,false,true,0.0-2.0-0.14-0.129-3.129,0,0,0,68,false,stim,false,0,680,1,0,0,53356,task1,541068,false,false,547,image-keyboard-response,24
true,4,2,1,2,true,d,false,true,0.0-2.0-0.14-0.130-3.130,0,0,0,68,false,stim,false,0,622,1,0,0,53356,task1,543229,false,false,550,image-keyboard-response,25
true,4,0,1,0,true,q,false,true,0.0-2.0-0.14-0.131-3.131,0,0,0,81,false,stim,false,2,717,1,0,1,53356,task1,545484,false,false,553,image-keyboard-response,26
true,4,0,1,2,false,d,true,false,0.0-2.0-0.14-0.132-3.132,0,0,0,81,false,stim,false,1,789,1,0,2,53356,task1,547816,false,false,556,image-keyboard-response,27
true,4,2,1,2,true,d,false,true,0.0-2.0-0.14-0.133-3.133,0,0,0,68,false,stim,false,1,971,1,0,2,53356,task1,550317,false,false,559,image-keyboard-response,28
true,4,0,1,0,true,q,false,true,0.0-2.0-0.14-0.134-3.134,0,0,0,81,false,stim,false,2,773,1,0,1,53356,task1,552621,false,false,562,image-keyboard-response,29
true,4,2,1,2,true,d,false,true,0.0-2.0-0.15-0.135-3.135,0,0,0,68,false,stim,false,0,413,1,0,0,53356,task1,554560,false,false,565,image-keyboard-response,30
true,4,2,1,2,true,d,false,false,0.0-2.0-0.15-0.136-3.136,0,0,0,68,false,stim,false,1,837,1,0,2,53356,task1,556924,false,true,568,image-keyboard-response,31
true,4,2,1,2,true,d,false,true,0.0-2.0-0.15-0.137-3.137,0,0,0,68,false,stim,false,0,912,1,0,0,53356,task1,559379,false,false,571,image-keyboard-response,32
true,4,0,1,0,true,q,false,true,0.0-2.0-0.15-0.138-3.138,0,0,0,81,false,stim,false,2,613,1,0,1,53356,task1,561520,false,false,574,image-keyboard-response,33
true,4,0,1,0,true,q,false,true,0.0-2.0-0.15-0.139-3.139,0,0,0,81,false,stim,false,2,949,1,0,1,53356,task1,563996,false,false,577,image-keyboard-response,34
true,4,1,1,2,false,d,false,false,0.0-2.0-0.15-0.140-3.140,0,0,0,90,false,stim,true,1,1207,1,0,2,53356,task1,566733,false,false,580,image-keyboard-response,35
true,4,2,1,2,true,d,false,true,0.0-2.0-0.15-0.141-3.141,0,0,0,68,false,stim,false,0,901,1,0,0,53356,task1,569168,false,false,583,image-keyboard-response,36
true,4,0,1,2,false,d,true,false,0.0-2.0-0.15-0.142-3.142,0,0,0,81,false,stim,false,1,1110,1,0,2,53356,task1,571807,false,false,586,image-keyboard-response,37
true,4,0,1,0,true,q,false,true,0.0-2.0-0.15-0.143-3.143,0,0,0,81,false,stim,false,2,392,1,0,1,53356,task1,573730,false,false,589,image-keyboard-response,38
true,4,0,1,0,true,q,false,false,0.0-2.0-0.16-0.144-3.144,0,0,0,81,false,stim,false,2,627,1,0,1,53356,task1,575883,false,true,592,image-keyboard-response,39
true,4,2,1,2,true,d,false,true,0.0-2.0-0.16-0.145-3.145,0,0,0,68,false,stim,false,0,2299,1,0,0,53356,task1,579717,false,false,595,image-keyboard-response,40
true,4,1,1,0,false,q,true,false,0.0-2.0-0.16-0.146-3.146,0,0,0,90,false,stim,false,2,1622,1,0,1,53356,task1,582879,false,false,598,image-keyboard-response,41
true,4,2,1,0,false,q,false,false,0.0-2.0-0.16-0.147-3.147,0,0,0,68,false,stim,true,2,845,1,0,1,53356,task1,585274,false,false,601,image-keyboard-response,42
true,5,2,1,1,false,z,false,true,0.0-2.0-0.16-0.148-3.148,0,0,0,68,true,stim,true,2,785,1,0,0,53356,task1,587593,false,true,604,image-keyboard-response,1
true,5,0,1,1,false,z,true,false,0.0-2.0-0.16-0.149-3.149,0,0,0,81,false,stim,false,2,894,1,0,2,53356,task1,590021,false,false,607,image-keyboard-response,2
true,5,2,1,1,false,z,false,true,0.0-2.0-0.16-0.150-3.150,0,0,0,68,false,stim,true,2,1430,1,0,2,53356,task1,592977,false,true,610,image-keyboard-response,3
true,5,2,1,1,false,z,false,false,0.0-2.0-0.16-0.151-3.151,0,0,0,68,false,stim,true,2,383,1,0,0,53356,task1,594891,false,false,613,image-keyboard-response,4
true,5,2,1,1,false,z,false,false,0.0-2.0-0.16-0.152-3.152,0,0,0,68,false,stim,true,2,1092,1,0,2,53356,task1,597509,false,false,616,image-keyboard-response,5
true,5,0,1,1,false,z,true,false,0.0-2.0-0.17-0.153-3.153,0,0,0,81,false,stim,false,2,937,1,0,0,53356,task1,599974,false,false,619,image-keyboard-response,6
true,5,0,1,1,false,z,true,false,0.0-2.0-0.17-0.154-3.154,0,0,0,81,false,stim,false,2,1326,1,0,2,53356,task1,602842,false,false,622,image-keyboard-response,7
true,5,2,1,2,true,d,false,true,0.0-2.0-0.17-0.155-3.155,0,0,0,68,false,stim,false,0,728,1,0,1,53356,task1,605099,false,false,625,image-keyboard-response,8
true,5,1,1,1,true,z,false,true,0.0-2.0-0.17-0.156-3.156,0,0,0,90,false,stim,false,2,896,1,0,0,53356,task1,607524,false,false,628,image-keyboard-response,9
true,5,2,1,2,true,d,false,true,0.0-2.0-0.17-0.157-3.157,0,0,0,68,false,stim,false,0,644,1,0,1,53356,task1,609711,false,false,631,image-keyboard-response,10
true,5,1,1,1,true,z,false,false,0.0-2.0-0.17-0.158-3.158,0,0,0,90,false,stim,false,2,686,1,0,2,53356,task1,611933,false,true,634,image-keyboard-response,11
true,5,2,1,1,false,z,false,false,0.0-2.0-0.17-0.159-3.159,0,0,0,68,false,stim,true,2,723,1,0,2,53356,task1,614190,false,false,637,image-keyboard-response,12
true,5,2,1,1,false,z,false,false,0.0-2.0-0.17-0.160-3.160,0,0,0,68,false,stim,true,2,1040,1,0,0,53356,task1,616766,false,false,640,image-keyboard-response,13
true,5,2,1,2,true,d,false,true,0.0-2.0-0.17-0.161-3.161,0,0,0,68,false,stim,false,0,630,1,0,1,53356,task1,618927,false,false,643,image-keyboard-response,14
true,5,0,1,1,false,z,true,false,0.0-2.0-0.18-0.162-3.162,0,0,0,81,false,stim,false,2,857,1,0,2,53356,task1,621314,false,false,646,image-keyboard-response,15
true,5,1,1,1,true,z,false,false,0.0-2.0-0.18-0.163-3.163,0,0,0,90,false,stim,false,2,1377,1,0,0,53356,task1,624233,false,true,649,image-keyboard-response,16
true,5,2,1,1,false,z,false,false,0.0-2.0-0.18-0.164-3.164,0,0,0,68,false,stim,true,2,621,1,0,0,53356,task1,626393,false,false,652,image-keyboard-response,17
true,5,2,1,2,true,d,false,true,0.0-2.0-0.18-0.165-3.165,0,0,0,68,false,stim,false,0,866,1,0,1,53356,task1,628783,false,false,655,image-keyboard-response,18
true,5,2,1,2,true,d,false,true,0.0-2.0-0.18-0.166-3.166,0,0,0,68,false,stim,false,0,840,1,0,1,53356,task1,631158,false,false,658,image-keyboard-response,19
true,5,1,1,1,true,z,false,true,0.0-2.0-0.18-0.167-3.167,0,0,0,90,false,stim,false,2,690,1,0,2,53356,task1,633386,false,false,661,image-keyboard-response,20
true,5,1,1,1,true,z,false,true,0.0-2.0-0.18-0.168-3.168,0,0,0,90,false,stim,false,2,831,1,0,0,53356,task1,635757,false,false,664,image-keyboard-response,21
true,5,1,1,1,true,z,false,true,0.0-2.0-0.18-0.169-3.169,0,0,0,90,false,stim,false,2,818,1,0,2,53356,task1,638115,false,false,667,image-keyboard-response,22
true,5,2,1,2,true,d,false,false,0.0-2.0-0.18-0.170-3.170,0,0,0,68,false,stim,false,0,619,1,0,1,53356,task1,640275,false,true,670,image-keyboard-response,23
true,5,1,1,1,true,z,false,true,0.0-2.0-0.19-0.171-3.171,0,0,0,90,false,stim,false,2,1045,1,0,0,53356,task1,642862,false,false,673,image-keyboard-response,24
true,5,0,1,2,false,d,false,false,0.0-2.0-0.19-0.172-3.172,0,0,0,81,false,stim,true,0,1953,1,0,1,53356,task1,646350,false,false,676,image-keyboard-response,25
true,5,2,1,2,true,d,false,true,0.0-2.0-0.19-0.173-3.173,0,0,0,68,false,stim,false,0,2254,1,0,1,53356,task1,650127,false,false,679,image-keyboard-response,26
true,5,2,1,2,true,d,false,true,0.0-2.0-0.19-0.174-3.174,0,0,0,68,false,stim,false,0,572,1,0,1,53356,task1,652228,false,false,682,image-keyboard-response,27
true,5,1,1,1,true,z,false,true,0.0-2.0-0.19-0.175-3.175,0,0,0,90,false,stim,false,2,1007,1,0,2,53356,task1,654764,false,false,685,image-keyboard-response,28
true,5,1,1,1,true,z,false,true,0.0-2.0-0.19-0.176-3.176,0,0,0,90,false,stim,false,2,547,1,0,2,53356,task1,656843,false,false,688,image-keyboard-response,29
true,5,1,1,1,true,z,false,false,0.0-2.0-0.19-0.177-3.177,0,0,0,90,false,stim,false,2,932,1,0,0,53356,task1,659299,false,true,691,image-keyboard-response,30
true,5,1,1,1,true,z,false,true,0.0-2.0-0.19-0.178-3.178,0,0,0,90,false,stim,false,2,731,1,0,2,53356,task1,661567,false,false,694,image-keyboard-response,31
true,5,1,1,1,true,z,false,true,0.0-2.0-0.19-0.179-3.179,0,0,0,90,false,stim,false,2,2631,1,0,0,53356,task1,665727,false,false,697,image-keyboard-response,32
true,5,1,1,1,true,z,false,true,0.0-2.0-0.20-0.180-3.180,0,0,0,90,false,stim,false,2,1243,1,0,2,53356,task1,668500,false,false,700,image-keyboard-response,33
true,5,2,1,2,true,d,false,true,0.0-2.0-0.20-0.181-3.181,0,0,0,68,false,stim,false,0,786,1,0,1,53356,task1,670842,false,false,703,image-keyboard-response,34
true,5,1,1,1,true,z,false,true,0.0-2.0-0.20-0.182-3.182,0,0,0,90,false,stim,false,2,829,1,0,0,53356,task1,673200,false,false,706,image-keyboard-response,35
true,5,1,1,1,true,z,false,true,0.0-2.0-0.20-0.183-3.183,0,0,0,90,false,stim,false,2,803,1,0,2,53356,task1,675540,false,false,709,image-keyboard-response,36
true,5,2,1,2,true,d,false,true,0.0-2.0-0.20-0.184-3.184,0,0,0,68,false,stim,false,0,1655,1,0,1,53356,task1,678728,false,false,712,image-keyboard-response,37
true,5,1,1,1,true,z,false,true,0.0-2.0-0.20-0.185-3.185,0,0,0,90,false,stim,false,2,874,1,0,0,53356,task1,681129,false,false,715,image-keyboard-response,38
true,5,1,1,1,true,z,false,true,0.0-2.0-0.20-0.186-3.186,0,0,0,90,false,stim,false,2,521,1,0,0,53356,task1,683187,false,false,718,image-keyboard-response,39
true,5,2,1,1,false,z,false,false,0.0-2.0-0.20-0.187-3.187,0,0,0,68,false,stim,true,2,796,1,0,2,53356,task1,685522,false,false,721,image-keyboard-response,40
true,6,2,1,1,false,z,false,false,0.0-2.0-0.20-0.188-3.188,0,0,0,68,true,stim,true,2,790,1,0,1,53356,task1,687837,false,false,724,image-keyboard-response,1
true,6,2,1,1,false,z,false,false,0.0-2.0-0.21-0.189-3.189,0,0,0,68,false,stim,true,2,2050,1,0,1,53356,task1,691416,false,false,727,image-keyboard-response,2
true,6,1,1,1,true,z,false,true,0.0-2.0-0.21-0.190-3.190,0,0,0,90,false,stim,false,2,1372,1,0,1,53356,task1,694329,false,false,730,image-keyboard-response,3
true,6,1,1,0,false,q,false,false,0.0-2.0-0.21-0.191-3.191,0,0,0,90,false,stim,true,1,1110,1,0,2,53356,task1,696967,false,false,733,image-keyboard-response,4
true,6,1,1,0,false,q,false,false,0.0-2.0-0.21-0.192-3.192,0,0,0,90,false,stim,true,1,978,1,0,0,53356,task1,699476,false,false,736,image-keyboard-response,5
true,6,2,1,0,false,q,true,false,0.0-2.0-0.21-0.193-3.193,0,0,0,68,false,stim,false,1,919,1,0,0,53356,task1,701935,false,false,739,image-keyboard-response,6
true,6,2,1,1,false,z,false,false,0.0-2.0-0.21-0.194-3.194,0,0,0,68,false,stim,true,2,872,1,0,1,53356,task1,704349,false,false,742,image-keyboard-response,7
true,6,1,1,0,false,q,false,false,0.0-2.0-0.21-0.195-3.195,0,0,0,90,false,stim,true,1,855,1,0,2,53356,task1,706732,false,false,745,image-keyboard-response,8
true,6,0,1,0,true,q,false,true,0.0-2.0-0.21-0.196-3.196,0,0,0,81,false,stim,false,1,1413,1,0,0,53356,task1,709670,false,false,748,image-keyboard-response,9
false,6,-1,1,0,false,q,true,false,0.0-2.0-0.21-0.197-3.197,0,0,0,,false,stim,false,1,,1,0,2,53356,task1,714215,false,false,751,image-keyboard-response,10
true,6,2,1,1,false,z,false,false,0.0-2.0-0.22-0.198-3.198,0,0,0,68,false,stim,true,2,580,1,0,1,53356,task1,716337,false,false,754,image-keyboard-response,11
true,6,0,1,0,true,q,false,true,0.0-2.0-0.22-0.199-3.199,0,0,0,81,false,stim,false,1,656,1,0,2,53356,task1,718534,false,false,757,image-keyboard-response,12
true,6,0,1,0,true,q,false,true,0.0-2.0-0.22-0.200-3.200,0,0,0,81,false,stim,false,1,390,1,0,0,53356,task1,720467,false,false,760,image-keyboard-response,13
true,6,0,1,0,true,q,false,true,0.0-2.0-0.22-0.201-3.201,0,0,0,81,false,stim,false,1,719,1,0,0,53356,task1,722717,false,false,763,image-keyboard-response,14
true,6,0,1,0,true,q,false,true,0.0-2.0-0.22-0.202-3.202,0,0,0,81,false,stim,false,1,525,1,0,2,53356,task1,724782,false,false,766,image-keyboard-response,15
true,6,1,1,1,true,z,false,true,0.0-2.0-0.22-0.203-3.203,0,0,0,90,false,stim,false,2,1625,1,0,1,53356,task1,727942,false,false,769,image-keyboard-response,16
true,6,1,1,1,true,z,false,true,0.0-2.0-0.22-0.204-3.204,0,0,0,90,false,stim,false,2,562,1,0,1,53356,task1,730040,false,false,772,image-keyboard-response,17
true,6,0,1,0,true,q,false,true,0.0-2.0-0.22-0.205-3.205,0,0,0,81,false,stim,false,1,683,1,0,0,53356,task1,732261,false,false,775,image-keyboard-response,18
true,6,0,1,0,true,q,false,true,0.0-2.0-0.22-0.206-3.206,0,0,0,81,false,stim,false,1,828,1,0,2,53356,task1,734626,false,false,778,image-keyboard-response,19
true,6,0,1,0,true,q,false,true,0.0-2.0-0.23-0.207-3.207,0,0,0,81,false,stim,false,1,918,1,0,2,53356,task1,737075,false,false,781,image-keyboard-response,20
true,6,1,1,1,true,z,false,true,0.0-2.0-0.23-0.208-3.208,0,0,0,90,false,stim,false,2,1490,1,0,1,53356,task1,740108,false,false,784,image-keyboard-response,21
true,6,0,1,0,true,q,false,false,0.0-2.0-0.23-0.209-3.209,0,0,0,81,false,stim,false,1,707,1,0,0,53356,task1,742345,false,true,787,image-keyboard-response,22
true,6,1,1,1,true,z,false,true,0.0-2.0-0.23-0.210-3.210,0,0,0,90,false,stim,false,2,781,1,0,1,53356,task1,744657,false,false,790,image-keyboard-response,23
true,6,0,1,0,true,q,false,true,0.0-2.0-0.23-0.211-3.211,0,0,0,81,false,stim,false,1,909,1,0,2,53356,task1,747097,false,false,793,image-keyboard-response,24
true,6,0,1,0,true,q,false,true,0.0-2.0-0.23-0.212-3.212,0,0,0,81,false,stim,false,1,667,1,0,0,53356,task1,749294,false,false,796,image-keyboard-response,25
true,6,0,1,0,true,q,false,true,0.0-2.0-0.23-0.213-3.213,0,0,0,81,false,stim,false,1,849,1,0,2,53356,task1,751677,false,false,799,image-keyboard-response,26
true,6,0,1,0,true,q,false,true,0.0-2.0-0.23-0.214-3.214,0,0,0,81,false,stim,false,1,1087,1,0,0,53356,task1,754314,false,false,802,image-keyboard-response,27
true,6,1,1,1,true,z,false,true,0.0-2.0-0.23-0.215-3.215,0,0,0,90,false,stim,false,2,787,1,0,1,53356,task1,756634,false,false,805,image-keyboard-response,28
true,6,1,1,1,true,z,false,true,0.0-2.0-0.24-0.216-3.216,0,0,0,90,false,stim,false,2,1348,1,0,1,53356,task1,759515,false,false,808,image-keyboard-response,29
true,6,0,1,0,true,q,false,false,0.0-2.0-0.24-0.217-3.217,0,0,0,81,false,stim,false,1,1675,1,0,2,53356,task1,762721,false,true,811,image-keyboard-response,30
true,6,2,1,0,false,q,true,true,0.0-2.0-0.24-0.218-3.218,0,0,0,68,false,stim,false,1,2505,1,0,2,53356,task1,766751,false,true,814,image-keyboard-response,31
true,6,0,1,0,true,q,false,true,0.0-2.0-0.24-0.219-3.219,0,0,0,81,false,stim,false,1,2874,1,0,0,53356,task1,771140,false,false,817,image-keyboard-response,32
true,6,1,1,1,true,z,false,true,0.0-2.0-0.24-0.220-3.220,0,0,0,90,false,stim,false,2,907,1,0,1,53356,task1,773573,false,false,820,image-keyboard-response,33
true,6,1,1,1,true,z,false,true,0.0-2.0-0.24-0.221-3.221,0,0,0,90,false,stim,false,2,587,1,0,1,53356,task1,775685,false,false,823,image-keyboard-response,34
true,6,0,1,0,true,q,false,true,0.0-2.0-0.24-0.222-3.222,0,0,0,81,false,stim,false,1,1066,1,0,0,53356,task1,778284,false,false,826,image-keyboard-response,35
true,6,2,1,0,false,q,true,false,0.0-2.0-0.24-0.223-3.223,0,0,0,68,false,stim,false,1,1084,1,0,2,53356,task1,780891,false,false,829,image-keyboard-response,36
true,6,0,1,0,true,q,false,true,0.0-2.0-0.24-0.224-3.224,0,0,0,81,false,stim,false,1,1225,1,0,0,53356,task1,783652,false,false,832,image-keyboard-response,37
true,6,0,1,0,true,q,false,true,0.0-2.0-0.25-0.225-3.225,0,0,0,81,false,stim,false,1,678,1,0,0,53356,task1,785864,false,false,835,image-keyboard-response,38
true,6,0,1,0,true,q,false,true,0.0-2.0-0.25-0.226-3.226,0,0,0,81,false,stim,false,1,585,1,0,0,53356,task1,787993,false,false,838,image-keyboard-response,39
true,6,0,1,0,true,q,false,true,0.0-2.0-0.25-0.227-3.227,0,0,0,81,false,stim,false,1,635,1,0,0,53356,task1,790163,false,false,841,image-keyboard-response,40
true,6,1,1,1,true,z,false,true,0.0-2.0-0.25-0.228-3.228,0,0,0,90,false,stim,false,2,1174,1,0,1,53356,task1,792860,false,false,844,image-keyboard-response,41
true,6,1,1,1,true,z,false,true,0.0-2.0-0.25-0.229-3.229,0,0,0,90,false,stim,false,2,589,1,0,1,53356,task1,794976,false,false,847,image-keyboard-response,42
true,6,2,1,0,false,q,true,false,0.0-2.0-0.25-0.230-3.230,0,0,0,68,false,stim,false,1,1349,1,0,2,53356,task1,797855,false,false,850,image-keyboard-response,43
true,6,1,1,1,true,z,false,true,0.0-2.0-0.25-0.231-3.231,0,0,0,90,false,stim,false,2,1122,1,0,1,53356,task1,800509,false,false,853,image-keyboard-response,44
true,6,0,1,0,true,q,false,true,0.0-2.0-0.25-0.232-3.232,0,0,0,81,false,stim,false,1,1378,1,0,2,53356,task1,803426,false,false,856,image-keyboard-response,45
true,7,0,2,1,false,z,false,false,0.0-2.0-0.25-0.233-3.233,0,0,0,81,true,stim,true,0,758,1,0,2,53356,task1,805725,false,false,859,image-keyboard-response,1
true,7,1,2,1,true,z,false,true,0.0-2.0-0.26-0.234-3.234,0,0,0,90,false,stim,false,0,902,1,0,2,53356,task1,808169,false,false,862,image-keyboard-response,2
true,7,1,2,2,false,d,false,false,0.0-2.0-0.26-0.235-3.235,0,0,0,90,false,stim,true,1,428,1,0,1,53356,task1,810146,false,false,865,image-keyboard-response,3
true,7,1,2,1,true,z,false,true,0.0-2.0-0.26-0.236-3.236,0,0,0,90,false,stim,false,0,1058,1,0,2,53356,task1,812730,false,false,868,image-keyboard-response,4
true,7,0,2,1,false,z,false,false,0.0-2.0-0.26-0.237-3.237,0,0,0,81,false,stim,true,0,649,1,0,0,53356,task1,814906,false,false,871,image-keyboard-response,5
true,7,0,2,2,false,d,true,false,0.0-2.0-0.26-0.238-3.238,0,0,0,81,false,stim,false,1,993,1,0,1,53356,task1,817430,false,false,874,image-keyboard-response,6
true,7,1,2,2,false,d,false,false,0.0-2.0-0.26-0.239-3.239,0,0,0,90,false,stim,true,1,906,1,0,1,53356,task1,819874,false,false,877,image-keyboard-response,7
true,7,1,2,1,true,z,false,true,0.0-2.0-0.26-0.240-3.240,0,0,0,90,false,stim,false,0,1537,1,0,2,53356,task1,822945,false,false,880,image-keyboard-response,8
true,7,1,2,1,true,z,false,true,0.0-2.0-0.26-0.241-3.241,0,0,0,90,false,stim,false,0,792,1,0,0,53356,task1,825279,false,false,883,image-keyboard-response,9
true,7,1,2,1,true,z,false,true,0.0-2.0-0.26-0.242-3.242,0,0,0,90,false,stim,false,0,634,1,0,0,53356,task1,827441,false,false,886,image-keyboard-response,10
true,7,2,2,2,true,d,false,true,0.0-2.0-0.27-0.243-3.243,0,0,0,68,false,stim,false,1,1275,1,0,1,53356,task1,830243,false,false,889,image-keyboard-response,11
true,7,1,2,1,true,z,false,true,0.0-2.0-0.27-0.244-3.244,0,0,0,90,false,stim,false,0,1030,1,0,0,53356,task1,832796,false,false,892,image-keyboard-response,12
true,7,1,2,1,true,z,false,true,0.0-2.0-0.27-0.245-3.245,0,0,0,90,false,stim,false,0,550,1,0,2,53356,task1,834877,false,false,895,image-keyboard-response,13
true,7,1,2,1,true,z,false,true,0.0-2.0-0.27-0.246-3.246,0,0,0,90,false,stim,false,0,623,1,0,0,53356,task1,837030,false,false,898,image-keyboard-response,14
true,7,2,2,2,true,d,false,true,0.0-2.0-0.27-0.247-3.247,0,0,0,68,false,stim,false,1,964,1,0,1,53356,task1,839549,false,false,901,image-keyboard-response,15
true,7,1,2,1,true,z,false,true,0.0-2.0-0.27-0.248-3.248,0,0,0,90,false,stim,false,0,670,1,0,0,53356,task1,841757,false,false,904,image-keyboard-response,16
true,7,2,2,2,true,d,false,true,0.0-2.0-0.27-0.249-3.249,0,0,0,68,false,stim,false,1,634,1,0,1,53356,task1,843922,false,false,907,image-keyboard-response,17
true,7,1,2,1,true,z,false,true,0.0-2.0-0.27-0.250-3.250,0,0,0,90,false,stim,false,0,1090,1,0,2,53356,task1,846535,false,false,910,image-keyboard-response,18
true,7,1,2,1,true,z,false,true,0.0-2.0-0.27-0.251-3.251,0,0,0,90,false,stim,false,0,531,1,0,2,53356,task1,848598,false,false,913,image-keyboard-response,19
true,7,1,2,1,true,z,false,false,0.0-2.0-0.28-0.252-3.252,0,0,0,90,false,stim,false,0,715,1,0,0,53356,task1,850843,false,true,916,image-keyboard-response,20
true,7,2,2,1,false,z,true,false,0.0-2.0-0.28-0.253-3.253,0,0,0,68,false,stim,false,0,1202,1,0,0,53356,task1,853569,false,false,919,image-keyboard-response,21
true,7,1,2,1,true,z,false,true,0.0-2.0-0.28-0.254-3.254,0,0,0,90,false,stim,false,0,1008,1,0,2,53356,task1,856116,false,false,922,image-keyboard-response,22
true,7,1,2,1,true,z,false,false,0.0-2.0-0.28-0.255-3.255,0,0,0,90,false,stim,false,0,616,1,0,2,53356,task1,858264,false,true,925,image-keyboard-response,23
true,7,1,2,1,true,z,false,true,0.0-2.0-0.28-0.256-3.256,0,0,0,90,false,stim,false,0,840,1,0,0,53356,task1,860647,false,false,928,image-keyboard-response,24
true,7,2,2,2,true,d,false,true,0.0-2.0-0.28-0.257-3.257,0,0,0,68,false,stim,false,1,705,1,0,1,53356,task1,862891,false,false,931,image-keyboard-response,25
true,7,2,2,2,true,d,false,false,0.0-2.0-0.28-0.258-3.258,0,0,0,68,false,stim,false,1,526,1,0,1,53356,task1,864952,false,true,934,image-keyboard-response,26
true,7,0,2,2,false,d,true,true,0.0-2.0-0.28-0.259-3.259,0,0,0,81,false,stim,false,1,1567,1,0,1,53356,task1,868055,false,true,937,image-keyboard-response,27
true,7,2,2,1,false,z,true,false,0.0-2.0-0.28-0.260-3.260,0,0,0,68,false,stim,false,0,1103,1,0,2,53356,task1,870700,false,false,940,image-keyboard-response,28
true,7,1,2,1,true,z,false,true,0.0-2.0-0.29-0.261-3.261,0,0,0,90,false,stim,false,0,1498,1,0,2,53356,task1,873734,false,false,943,image-keyboard-response,29
true,7,0,2,2,false,d,true,false,0.0-2.0-0.29-0.262-3.262,0,0,0,81,false,stim,false,1,1527,1,0,1,53356,task1,876799,false,false,946,image-keyboard-response,30
true,7,1,2,1,true,z,false,false,0.0-2.0-0.29-0.263-3.263,0,0,0,90,false,stim,false,0,1140,1,0,2,53356,task1,879478,false,true,949,image-keyboard-response,31
true,7,1,2,1,true,z,false,false,0.0-2.0-0.29-0.264-3.264,0,0,0,90,false,stim,false,0,753,1,0,0,53356,task1,881770,false,true,952,image-keyboard-response,32
true,7,0,2,1,false,z,false,true,0.0-2.0-0.29-0.265-3.265,0,0,0,81,false,stim,true,0,1419,1,0,0,53356,task1,884737,false,true,955,image-keyboard-response,33
true,7,2,2,1,false,z,true,false,0.0-2.0-0.29-0.266-3.266,0,0,0,68,false,stim,false,0,1320,1,0,2,53356,task1,887592,false,false,958,image-keyboard-response,34
true,7,1,2,2,false,d,false,false,0.0-2.0-0.29-0.267-3.267,0,0,0,90,false,stim,true,1,1241,1,0,1,53356,task1,890359,false,false,961,image-keyboard-response,35
true,7,0,2,2,false,d,true,false,0.0-2.0-0.29-0.268-3.268,0,0,0,81,false,stim,false,1,1275,1,0,1,53356,task1,893172,false,false,964,image-keyboard-response,36
true,7,0,2,1,false,z,false,false,0.0-2.0-0.29-0.269-3.269,0,0,0,81,false,stim,true,0,643,1,0,0,53356,task1,895359,false,false,967,image-keyboard-response,37
true,7,1,2,1,true,z,false,true,0.0-2.0-0.30-0.270-3.270,0,0,0,90,false,stim,false,0,979,1,0,0,53356,task1,897876,false,false,970,image-keyboard-response,38
true,7,2,2,2,true,d,false,true,0.0-2.0-0.30-0.271-3.271,0,0,0,68,false,stim,false,1,276,1,0,1,53356,task1,899694,false,false,973,image-keyboard-response,39
true,7,1,2,1,true,z,false,true,0.0-2.0-0.30-0.272-3.272,0,0,0,90,false,stim,false,0,594,1,0,0,53356,task1,901830,false,false,976,image-keyboard-response,40
true,8,2,2,1,false,z,false,false,0.0-2.0-0.30-0.273-3.273,0,0,0,68,true,stim,true,2,484,1,0,1,53356,task1,903841,false,false,979,image-keyboard-response,1
true,8,2,2,0,false,q,true,false,0.0-2.0-0.30-0.274-3.274,0,0,0,68,false,stim,false,1,1295,1,0,2,53356,task1,906667,false,false,982,image-keyboard-response,2
true,8,1,2,0,false,q,false,false,0.0-2.0-0.30-0.275-3.275,0,0,0,90,false,stim,true,1,986,1,0,2,53356,task1,909183,false,false,985,image-keyboard-response,3
true,8,2,2,1,false,z,false,true,0.0-2.0-0.30-0.276-3.276,0,0,0,68,false,stim,true,2,985,1,0,1,53356,task1,911702,false,true,988,image-keyboard-response,4
true,8,1,2,0,false,q,false,false,0.0-2.0-0.30-0.277-3.277,0,0,0,90,false,stim,true,1,1004,1,0,0,53356,task1,914241,false,false,991,image-keyboard-response,5
true,8,1,2,0,false,q,false,false,0.0-2.0-0.30-0.278-3.278,0,0,0,90,false,stim,true,1,1895,1,0,2,53356,task1,917666,false,false,994,image-keyboard-response,6
true,8,2,2,0,false,q,true,false,0.0-2.0-0.31-0.279-3.279,0,0,0,68,false,stim,false,1,1018,1,0,0,53356,task1,920215,false,false,997,image-keyboard-response,7
true,8,1,2,0,false,q,false,false,0.0-2.0-0.31-0.280-3.280,0,0,0,90,false,stim,true,1,743,1,0,2,53356,task1,922501,false,false,1000,image-keyboard-response,8
true,8,2,2,0,false,q,true,false,0.0-2.0-0.31-0.281-3.281,0,0,0,68,false,stim,false,1,412,1,0,2,53356,task1,924479,false,false,1003,image-keyboard-response,9
true,8,2,2,0,false,q,true,false,0.0-2.0-0.31-0.282-3.282,0,0,0,68,false,stim,false,1,1075,1,0,0,53356,task1,927083,false,false,1006,image-keyboard-response,10
true,8,2,2,1,false,z,false,false,0.0-2.0-0.31-0.283-3.283,0,0,0,68,false,stim,true,2,330,1,0,1,53356,task1,928947,false,false,1009,image-keyboard-response,11
true,8,0,2,1,false,z,true,false,0.0-2.0-0.31-0.284-3.284,0,0,0,81,false,stim,false,2,262,1,0,1,53356,task1,930735,false,false,1012,image-keyboard-response,12
true,8,2,2,0,false,q,true,false,0.0-2.0-0.31-0.285-3.285,0,0,0,68,false,stim,false,1,315,1,0,0,53356,task1,932582,false,false,1015,image-keyboard-response,13
true,8,1,2,0,false,q,false,false,0.0-2.0-0.31-0.286-3.286,0,0,0,90,false,stim,true,1,601,1,0,2,53356,task1,934699,false,false,1018,image-keyboard-response,14
true,8,0,2,1,false,z,true,false,0.0-2.0-0.31-0.287-3.287,0,0,0,81,false,stim,false,2,317,1,0,1,53356,task1,936544,false,false,1021,image-keyboard-response,15
true,8,0,2,0,true,q,false,true,0.0-2.0-0.32-0.288-3.288,0,0,0,81,false,stim,false,1,1583,1,0,2,53356,task1,939670,false,false,1024,image-keyboard-response,16
true,8,1,2,0,false,q,false,false,0.0-2.0-0.32-0.289-3.289,0,0,0,90,false,stim,true,1,493,1,0,0,53356,task1,941700,false,false,1027,image-keyboard-response,17
true,8,0,2,0,true,q,false,false,0.0-2.0-0.32-0.290-3.290,0,0,0,81,false,stim,false,1,435,1,0,2,53356,task1,943662,false,true,1030,image-keyboard-response,18
true,8,2,2,1,false,z,false,false,0.0-2.0-0.32-0.291-3.291,0,0,0,68,false,stim,true,2,506,1,0,1,53356,task1,945695,false,false,1033,image-keyboard-response,19
true,8,0,2,1,false,z,true,false,0.0-2.0-0.32-0.292-3.292,0,0,0,81,false,stim,false,2,92,1,0,1,53356,task1,947318,false,false,1036,image-keyboard-response,20
true,8,0,2,0,true,q,false,true,0.0-2.0-0.32-0.293-3.293,0,0,0,81,false,stim,false,1,757,1,0,0,53356,task1,949605,false,false,1039,image-keyboard-response,21
true,8,0,2,0,true,q,false,false,0.0-2.0-0.32-0.294-3.294,0,0,0,81,false,stim,false,1,574,1,0,0,53356,task1,951719,false,true,1042,image-keyboard-response,22
true,8,1,2,0,false,q,false,false,0.0-2.0-0.32-0.295-3.295,0,0,0,90,false,stim,true,1,984,1,0,2,53356,task1,954230,false,false,1045,image-keyboard-response,23
true,8,1,2,1,true,z,false,true,0.0-2.0-0.32-0.296-3.296,0,0,0,90,false,stim,false,2,838,1,0,1,53356,task1,956604,false,false,1048,image-keyboard-response,24
true,8,1,2,1,true,z,false,true,0.0-2.0-0.33-0.297-3.297,0,0,0,90,false,stim,false,2,640,1,0,1,53356,task1,958787,false,false,1051,image-keyboard-response,25
true,8,1,2,0,false,q,false,false,0.0-2.0-0.33-0.298-3.298,0,0,0,90,false,stim,true,1,997,1,0,2,53356,task1,961304,false,false,1054,image-keyboard-response,26
true,8,2,2,0,false,q,true,false,0.0-2.0-0.33-0.299-3.299,0,0,0,68,false,stim,false,1,1633,1,0,2,53356,task1,964481,false,false,1057,image-keyboard-response,27
true,8,0,2,0,true,q,false,true,0.0-2.0-0.33-0.300-3.300,0,0,0,81,false,stim,false,1,533,1,0,0,53356,task1,966540,false,false,1060,image-keyboard-response,28
true,8,0,2,0,true,q,false,true,0.0-2.0-0.33-0.301-3.301,0,0,0,81,false,stim,false,1,409,1,0,0,53356,task1,968476,false,false,1063,image-keyboard-response,29
true,8,1,2,1,true,z,false,true,0.0-2.0-0.33-0.302-3.302,0,0,0,90,false,stim,false,2,571,1,0,1,53356,task1,970588,false,false,1066,image-keyboard-response,30
true,8,0,2,0,true,q,false,true,0.0-2.0-0.33-0.303-3.303,0,0,0,81,false,stim,false,1,611,1,0,0,53356,task1,972728,false,false,1069,image-keyboard-response,31
true,8,0,2,0,true,q,false,true,0.0-2.0-0.33-0.304-3.304,0,0,0,81,false,stim,false,1,496,1,0,2,53356,task1,974752,false,false,1072,image-keyboard-response,32
true,8,1,2,1,true,z,false,true,0.0-2.0-0.33-0.305-3.305,0,0,0,90,false,stim,false,2,407,1,0,1,53356,task1,976685,false,false,1075,image-keyboard-response,33
true,8,1,2,1,true,z,false,false,0.0-2.0-0.34-0.306-3.306,0,0,0,90,false,stim,false,2,405,1,0,1,53356,task1,978619,false,true,1078,image-keyboard-response,34
true,8,0,2,1,false,z,true,false,0.0-2.0-0.34-0.307-3.307,0,0,0,81,false,stim,false,2,1251,1,0,1,53356,task1,981398,false,false,1081,image-keyboard-response,35
true,8,0,2,0,true,q,false,true,0.0-2.0-0.34-0.308-3.308,0,0,0,81,false,stim,false,1,890,1,0,0,53356,task1,983817,false,false,1084,image-keyboard-response,36
true,8,0,2,0,true,q,false,true,0.0-2.0-0.34-0.309-3.309,0,0,0,81,false,stim,false,1,608,1,0,0,53356,task1,985956,false,false,1087,image-keyboard-response,37
true,8,0,2,0,true,q,false,true,0.0-2.0-0.34-0.310-3.310,0,0,0,81,false,stim,false,1,590,1,0,2,53356,task1,988078,false,false,1090,image-keyboard-response,38
true,8,2,2,1,false,z,false,false,0.0-2.0-0.34-0.311-3.311,0,0,0,68,false,stim,true,2,1387,1,0,1,53356,task1,991003,false,false,1093,image-keyboard-response,39
true,8,0,2,0,true,q,false,true,0.0-2.0-0.34-0.312-3.312,0,0,0,81,false,stim,false,1,662,1,0,2,53356,task1,993198,false,false,1096,image-keyboard-response,40
true,8,0,2,0,true,q,false,true,0.0-2.0-0.34-0.313-3.313,0,0,0,81,false,stim,false,1,616,1,0,2,53356,task1,995353,false,false,1099,image-keyboard-response,41
true,8,0,2,0,true,q,false,true,0.0-2.0-0.34-0.314-3.314,0,0,0,81,false,stim,false,1,1049,1,0,0,53356,task1,997955,false,false,1102,image-keyboard-response,42
true,8,1,2,1,true,z,false,true,0.0-2.0-0.35-0.315-3.315,0,0,0,90,false,stim,false,2,543,1,0,1,53356,task1,1000040,false,false,1105,image-keyboard-response,43
true,8,0,2,0,true,q,false,true,0.0-2.0-0.35-0.316-3.316,0,0,0,81,false,stim,false,1,673,1,0,2,53356,task1,1002243,false,false,1108,image-keyboard-response,44
true,8,0,2,0,true,q,false,true,0.0-2.0-0.35-0.317-3.317,0,0,0,81,false,stim,false,1,751,1,0,0,53356,task1,1004509,false,false,1111,image-keyboard-response,45
true,9,0,1,1,false,z,false,false,0.0-2.0-0.35-0.318-3.318,0,0,0,81,true,stim,true,0,578,1,0,2,53356,task1,1006625,false,false,1114,image-keyboard-response,1
true,9,1,1,2,false,d,false,false,0.0-2.0-0.35-0.319-3.319,0,0,0,90,false,stim,true,1,1149,1,0,1,53356,task1,1009294,false,false,1117,image-keyboard-response,2
true,9,2,1,1,false,z,true,false,0.0-2.0-0.35-0.320-3.320,0,0,0,68,false,stim,false,0,1208,1,0,2,53356,task1,1012028,false,false,1120,image-keyboard-response,3
true,9,2,1,2,true,d,false,true,0.0-2.0-0.35-0.321-3.321,0,0,0,68,false,stim,false,1,975,1,0,1,53356,task1,1014542,false,false,1123,image-keyboard-response,4
true,9,0,1,2,false,d,false,false,0.0-2.0-0.35-0.322-3.322,0,0,0,81,false,stim,true,0,791,1,0,0,53356,task1,1016859,false,false,1126,image-keyboard-response,5
true,9,1,1,2,false,d,true,false,0.0-2.0-0.35-0.323-3.323,0,0,0,90,false,stim,false,0,1369,1,0,0,53356,task1,1019757,false,false,1129,image-keyboard-response,6
true,9,2,1,2,true,d,false,true,0.0-2.0-0.36-0.324-3.324,0,0,0,68,false,stim,false,0,1907,1,0,0,53356,task1,1023195,false,false,1132,image-keyboard-response,7
true,9,2,1,2,true,d,false,true,0.0-2.0-0.36-0.325-3.325,0,0,0,68,false,stim,false,0,673,1,0,0,53356,task1,1025401,false,false,1135,image-keyboard-response,8
true,9,2,1,2,true,d,false,true,0.0-2.0-0.36-0.326-3.326,0,0,0,68,false,stim,false,1,917,1,0,1,53356,task1,1027844,false,false,1138,image-keyboard-response,9
true,9,0,1,1,false,z,false,false,0.0-2.0-0.36-0.327-3.327,0,0,0,81,false,stim,true,0,861,1,0,2,53356,task1,1030249,false,false,1141,image-keyboard-response,10
true,9,1,1,1,true,z,false,true,0.0-2.0-0.36-0.328-3.328,0,0,0,90,false,stim,false,0,867,1,0,2,53356,task1,1032654,false,false,1144,image-keyboard-response,11
true,9,1,1,1,true,z,false,true,0.0-2.0-0.36-0.329-3.329,0,0,0,90,false,stim,false,0,448,1,0,2,53356,task1,1034645,false,false,1147,image-keyboard-response,12
true,9,2,1,2,true,d,false,true,0.0-2.0-0.36-0.330-3.330,0,0,0,68,false,stim,false,1,410,1,0,1,53356,task1,1036598,false,false,1150,image-keyboard-response,13
true,9,2,1,2,true,d,false,true,0.0-2.0-0.36-0.331-3.331,0,0,0,68,false,stim,false,0,463,1,0,0,53356,task1,1038590,false,false,1153,image-keyboard-response,14
true,9,2,1,2,true,d,false,true,0.0-2.0-0.36-0.332-3.332,0,0,0,68,false,stim,false,1,682,1,0,1,53356,task1,1040808,false,false,1156,image-keyboard-response,15
true,9,2,1,2,true,d,false,true,0.0-2.0-0.37-0.333-3.333,0,0,0,68,false,stim,false,1,606,1,0,1,53356,task1,1042944,false,false,1159,image-keyboard-response,16
true,9,2,1,2,true,d,false,true,0.0-2.0-0.37-0.334-3.334,0,0,0,68,false,stim,false,0,973,1,0,0,53356,task1,1045450,false,false,1162,image-keyboard-response,17
true,9,1,1,1,true,z,false,true,0.0-2.0-0.37-0.335-3.335,0,0,0,90,false,stim,false,0,758,1,0,2,53356,task1,1047736,false,false,1165,image-keyboard-response,18
true,9,1,1,1,true,z,false,true,0.0-2.0-0.37-0.336-3.336,0,0,0,90,false,stim,false,0,522,1,0,2,53356,task1,1049799,false,false,1168,image-keyboard-response,19
true,9,1,1,1,true,z,false,true,0.0-2.0-0.37-0.337-3.337,0,0,0,90,false,stim,false,0,503,1,0,2,53356,task1,1051839,false,false,1171,image-keyboard-response,20
true,9,2,1,2,true,d,false,true,0.0-2.0-0.37-0.338-3.338,0,0,0,68,false,stim,false,1,653,1,0,1,53356,task1,1054031,false,false,1174,image-keyboard-response,21
true,9,2,1,2,true,d,false,true,0.0-2.0-0.37-0.339-3.339,0,0,0,68,false,stim,false,0,471,1,0,0,53356,task1,1056028,false,false,1177,image-keyboard-response,22
true,9,2,1,2,true,d,false,true,0.0-2.0-0.37-0.340-3.340,0,0,0,68,false,stim,false,1,681,1,0,1,53356,task1,1058239,false,false,1180,image-keyboard-response,23
true,9,2,1,2,true,d,false,true,0.0-2.0-0.37-0.341-3.341,0,0,0,68,false,stim,false,0,466,1,0,0,53356,task1,1060243,false,false,1183,image-keyboard-response,24
true,9,2,1,2,true,d,false,true,0.0-2.0-0.38-0.342-3.342,0,0,0,68,false,stim,false,0,390,1,0,0,53356,task1,1062168,false,false,1186,image-keyboard-response,25
true,9,2,1,2,true,d,false,true,0.0-2.0-0.38-0.343-3.343,0,0,0,68,false,stim,false,1,393,1,0,1,53356,task1,1064091,false,false,1189,image-keyboard-response,26
true,9,2,1,2,true,d,false,true,0.0-2.0-0.38-0.344-3.344,0,0,0,68,false,stim,false,0,614,1,0,0,53356,task1,1066232,false,false,1192,image-keyboard-response,27
true,9,2,1,2,true,d,false,true,0.0-2.0-0.38-0.345-3.345,0,0,0,68,false,stim,false,1,361,1,0,1,53356,task1,1068118,false,false,1195,image-keyboard-response,28
true,9,1,1,1,true,z,false,true,0.0-2.0-0.38-0.346-3.346,0,0,0,90,false,stim,false,0,431,1,0,2,53356,task1,1070088,false,false,1198,image-keyboard-response,29
true,9,1,1,1,true,z,false,true,0.0-2.0-0.38-0.347-3.347,0,0,0,90,false,stim,false,0,356,1,0,2,53356,task1,1071994,false,false,1201,image-keyboard-response,30
true,9,2,1,2,true,d,false,true,0.0-2.0-0.38-0.348-3.348,0,0,0,68,false,stim,false,1,455,1,0,1,53356,task1,1073983,false,false,1204,image-keyboard-response,31
true,9,1,1,2,false,d,true,true,0.0-2.0-0.38-0.349-3.349,0,0,0,90,false,stim,false,0,444,1,0,0,53356,task1,1075951,false,true,1207,image-keyboard-response,32
true,9,1,1,1,true,z,false,true,0.0-2.0-0.38-0.350-3.350,0,0,0,90,false,stim,false,0,524,1,0,2,53356,task1,1078001,false,false,1210,image-keyboard-response,33
true,9,2,1,2,true,d,false,false,0.0-2.0-0.39-0.351-3.351,0,0,0,68,false,stim,false,1,609,1,0,1,53356,task1,1080147,false,true,1213,image-keyboard-response,34
true,9,0,1,2,false,d,true,false,0.0-2.0-0.39-0.352-3.352,0,0,0,81,false,stim,false,1,2123,1,0,1,53356,task1,1083801,false,false,1216,image-keyboard-response,35
true,9,2,1,2,true,d,false,true,0.0-2.0-0.39-0.353-3.353,0,0,0,68,false,stim,false,0,2037,1,0,0,53356,task1,1087364,false,false,1219,image-keyboard-response,36
true,9,1,1,1,true,z,false,true,0.0-2.0-0.39-0.354-3.354,0,0,0,90,false,stim,false,0,609,1,0,2,53356,task1,1089516,false,false,1222,image-keyboard-response,37
true,9,2,1,2,true,d,false,true,0.0-2.0-0.39-0.355-3.355,0,0,0,68,false,stim,false,0,631,1,0,0,53356,task1,1091673,false,false,1225,image-keyboard-response,38
true,9,1,1,1,true,z,false,true,0.0-2.0-0.39-0.356-3.356,0,0,0,90,false,stim,false,0,503,1,0,2,53356,task1,1093711,false,false,1228,image-keyboard-response,39
true,9,2,1,2,true,d,false,true,0.0-2.0-0.39-0.357-3.357,0,0,0,68,false,stim,false,0,553,1,0,0,53356,task1,1095795,false,false,1231,image-keyboard-response,40
true,9,1,1,2,false,d,false,false,0.0-2.0-0.39-0.358-3.358,0,0,0,90,false,stim,true,1,709,1,0,1,53356,task1,1098036,false,false,1234,image-keyboard-response,41
true,9,1,1,1,true,z,false,true,0.0-2.0-0.39-0.359-3.359,0,0,0,90,false,stim,false,0,1089,1,0,2,53356,task1,1100656,false,false,1237,image-keyboard-response,42
true,10,2,2,1,false,z,false,false,0.0-2.0-0.40-0.360-3.360,0,0,0,68,true,stim,true,2,487,1,0,1,53356,task1,1102675,false,false,1240,image-keyboard-response,1
true,10,1,2,0,false,q,false,false,0.0-2.0-0.40-0.361-3.361,0,0,0,90,false,stim,true,1,741,1,0,2,53356,task1,1104949,false,false,1243,image-keyboard-response,2
true,10,2,2,1,false,z,false,false,0.0-2.0-0.40-0.362-3.362,0,0,0,68,false,stim,true,2,2381,1,0,1,53356,task1,1108858,false,false,1246,image-keyboard-response,3
true,10,2,2,0,false,q,false,false,0.0-2.0-0.40-0.363-3.363,0,0,0,68,false,stim,true,2,524,1,0,0,53356,task1,1110912,false,false,1249,image-keyboard-response,4
true,10,0,2,0,true,q,false,true,0.0-2.0-0.40-0.364-3.364,0,0,0,81,false,stim,false,1,2546,1,0,2,53356,task1,1114988,false,false,1252,image-keyboard-response,5
true,10,1,2,0,false,q,true,false,0.0-2.0-0.40-0.365-3.365,0,0,0,90,false,stim,false,2,1131,1,0,0,53356,task1,1117658,false,false,1255,image-keyboard-response,6
true,10,1,2,1,true,z,false,true,0.0-2.0-0.40-0.366-3.366,0,0,0,90,false,stim,false,2,410,1,0,1,53356,task1,1119597,false,false,1258,image-keyboard-response,7
true,10,2,2,0,false,q,false,false,0.0-2.0-0.40-0.367-3.367,0,0,0,68,false,stim,true,2,391,1,0,0,53356,task1,1121528,false,false,1261,image-keyboard-response,8
true,10,0,2,0,true,q,false,true,0.0-2.0-0.40-0.368-3.368,0,0,0,81,false,stim,false,1,734,1,0,2,53356,task1,1123792,false,false,1264,image-keyboard-response,9
true,10,0,2,0,true,q,false,true,0.0-2.0-0.41-0.369-3.369,0,0,0,81,false,stim,false,2,386,1,0,0,53356,task1,1125703,false,false,1267,image-keyboard-response,10
true,10,1,2,1,true,z,false,true,0.0-2.0-0.41-0.370-3.370,0,0,0,90,false,stim,false,2,382,1,0,1,53356,task1,1127620,false,false,1270,image-keyboard-response,11
true,10,1,2,1,true,z,false,true,0.0-2.0-0.41-0.371-3.371,0,0,0,90,false,stim,false,2,426,1,0,1,53356,task1,1129584,false,false,1273,image-keyboard-response,12
true,10,0,2,0,true,q,false,true,0.0-2.0-0.41-0.372-3.372,0,0,0,81,false,stim,false,1,452,1,0,2,53356,task1,1131570,false,false,1276,image-keyboard-response,13
true,10,0,2,0,true,q,false,false,0.0-2.0-0.41-0.373-3.373,0,0,0,81,false,stim,false,2,379,1,0,0,53356,task1,1133477,false,true,1279,image-keyboard-response,14
true,10,0,2,0,true,q,false,true,0.0-2.0-0.41-0.374-3.374,0,0,0,81,false,stim,false,1,1046,1,0,2,53356,task1,1136064,false,false,1282,image-keyboard-response,15
true,10,0,2,0,true,q,false,true,0.0-2.0-0.41-0.375-3.375,0,0,0,81,false,stim,false,1,725,1,0,2,53356,task1,1138321,false,false,1285,image-keyboard-response,16
true,10,2,2,0,false,q,false,true,0.0-2.0-0.41-0.376-3.376,0,0,0,68,false,stim,true,2,2173,1,0,0,53356,task1,1142030,false,true,1288,image-keyboard-response,17
true,10,1,2,1,true,z,false,true,0.0-2.0-0.41-0.377-3.377,0,0,0,90,false,stim,false,2,405,1,0,1,53356,task1,1143962,false,false,1291,image-keyboard-response,18
true,10,1,2,1,true,z,false,true,0.0-2.0-0.42-0.378-3.378,0,0,0,90,false,stim,false,2,839,1,0,1,53356,task1,1146337,false,false,1294,image-keyboard-response,19
true,10,0,2,0,true,q,false,true,0.0-2.0-0.42-0.379-3.379,0,0,0,81,false,stim,false,1,614,1,0,2,53356,task1,1148491,false,false,1297,image-keyboard-response,20
true,10,1,2,1,true,z,false,true,0.0-2.0-0.42-0.380-3.380,0,0,0,90,false,stim,false,2,1253,1,0,1,53356,task1,1151272,false,false,1300,image-keyboard-response,21
true,10,0,2,0,true,q,false,true,0.0-2.0-0.42-0.381-3.381,0,0,0,81,false,stim,false,1,1018,1,0,2,53356,task1,1153856,false,false,1303,image-keyboard-response,22
true,10,2,2,0,false,q,false,true,0.0-2.0-0.42-0.382-3.382,0,0,0,68,false,stim,true,2,1008,1,0,0,53356,task1,1156405,false,true,1306,image-keyboard-response,23
true,10,2,2,0,false,q,false,false,0.0-2.0-0.42-0.383-3.383,0,0,0,68,false,stim,true,2,434,1,0,0,53356,task1,1158372,false,false,1309,image-keyboard-response,24
true,10,1,2,1,true,z,false,false,0.0-2.0-0.42-0.384-3.384,0,0,0,90,false,stim,false,2,2380,1,0,1,53356,task1,1162278,false,true,1312,image-keyboard-response,25
true,10,0,2,0,true,q,false,true,0.0-2.0-0.42-0.385-3.385,0,0,0,81,false,stim,false,2,999,1,0,0,53356,task1,1164816,false,false,1315,image-keyboard-response,26
true,10,0,2,0,true,q,false,false,0.0-2.0-0.42-0.386-3.386,0,0,0,81,false,stim,false,1,548,1,0,2,53356,task1,1166906,false,true,1318,image-keyboard-response,27
true,10,0,2,1,false,z,true,true,0.0-2.0-0.43-0.387-3.387,0,0,0,81,false,stim,false,2,567,1,0,1,53356,task1,1169004,false,true,1321,image-keyboard-response,28
true,10,0,2,0,true,q,false,true,0.0-2.0-0.43-0.388-3.388,0,0,0,81,false,stim,false,2,639,1,0,0,53356,task1,1171166,false,false,1324,image-keyboard-response,29
true,10,0,2,0,true,q,false,true,0.0-2.0-0.43-0.389-3.389,0,0,0,81,false,stim,false,2,722,1,0,0,53356,task1,1173429,false,false,1327,image-keyboard-response,30
true,10,0,2,0,true,q,false,true,0.0-2.0-0.43-0.390-3.390,0,0,0,81,false,stim,false,2,539,1,0,0,53356,task1,1175507,false,false,1330,image-keyboard-response,31
true,10,0,2,1,false,z,true,false,0.0-2.0-0.43-0.391-3.391,0,0,0,81,false,stim,false,2,735,1,0,1,53356,task1,1177777,false,false,1333,image-keyboard-response,32
true,10,0,2,0,true,q,false,true,0.0-2.0-0.43-0.392-3.392,0,0,0,81,false,stim,false,1,963,1,0,2,53356,task1,1180271,false,false,1336,image-keyboard-response,33
true,10,0,2,0,true,q,false,true,0.0-2.0-0.43-0.393-3.393,0,0,0,81,false,stim,false,1,667,1,0,2,53356,task1,1182475,false,false,1339,image-keyboard-response,34
true,10,0,2,0,true,q,false,false,0.0-2.0-0.43-0.394-3.394,0,0,0,81,false,stim,false,1,572,1,0,2,53356,task1,1184579,false,true,1342,image-keyboard-response,35
true,10,0,2,1,false,z,true,true,0.0-2.0-0.43-0.395-3.395,0,0,0,81,false,stim,false,2,2037,1,0,1,53356,task1,1188143,false,true,1345,image-keyboard-response,36
true,10,0,2,0,true,q,false,true,0.0-2.0-0.44-0.396-3.396,0,0,0,81,false,stim,false,2,674,1,0,0,53356,task1,1190361,false,false,1348,image-keyboard-response,37
true,10,0,2,1,false,z,true,false,0.0-2.0-0.44-0.397-3.397,0,0,0,81,false,stim,false,2,790,1,0,1,53356,task1,1192677,false,false,1351,image-keyboard-response,38
true,10,0,2,0,true,q,false,true,0.0-2.0-0.44-0.398-3.398,0,0,0,81,false,stim,false,1,706,1,0,2,53356,task1,1194913,false,false,1354,image-keyboard-response,39
true,10,0,2,0,true,q,false,true,0.0-2.0-0.44-0.399-3.399,0,0,0,81,false,stim,false,2,718,1,0,0,53356,task1,1197160,false,false,1357,image-keyboard-response,40
true,10,0,2,0,true,q,false,true,0.0-2.0-0.44-0.400-3.400,0,0,0,81,false,stim,false,2,631,1,0,0,53356,task1,1199318,false,false,1360,image-keyboard-response,41
true,10,0,2,0,true,q,false,true,0.0-2.0-0.44-0.401-3.401,0,0,0,81,false,stim,false,1,657,1,0,2,53356,task1,1201499,false,false,1363,image-keyboard-response,42
true,10,0,2,0,true,q,false,true,0.0-2.0-0.44-0.402-3.402,0,0,0,81,false,stim,false,1,433,1,0,2,53356,task1,1203461,false,false,1366,image-keyboard-response,43
true,10,0,2,1,false,z,true,false,0.0-2.0-0.44-0.403-3.403,0,0,0,81,false,stim,false,2,882,1,0,1,53356,task1,1205856,false,false,1369,image-keyboard-response,44
true,11,0,2,2,false,d,true,false,0.0-2.0-0.44-0.404-3.404,0,0,0,81,true,stim,false,1,787,1,0,1,53356,task1,1208174,false,false,1372,image-keyboard-response,1
true,11,0,2,2,false,d,true,false,0.0-2.0-0.45-0.405-3.405,0,0,0,81,false,stim,false,1,1095,1,0,1,53356,task1,1210802,false,false,1375,image-keyboard-response,2
true,11,1,2,2,false,d,false,false,0.0-2.0-0.45-0.406-3.406,0,0,0,90,false,stim,true,1,385,1,0,1,53356,task1,1212713,false,false,1378,image-keyboard-response,3
true,11,0,2,1,false,z,false,false,0.0-2.0-0.45-0.407-3.407,0,0,0,81,false,stim,true,0,695,1,0,2,53356,task1,1214937,false,false,1381,image-keyboard-response,4
true,11,2,2,1,false,z,true,false,0.0-2.0-0.45-0.408-3.408,0,0,0,68,false,stim,false,0,306,1,0,0,53356,task1,1216772,false,false,1384,image-keyboard-response,5
true,11,2,2,1,false,z,true,false,0.0-2.0-0.45-0.409-3.409,0,0,0,68,false,stim,false,0,552,1,0,2,53356,task1,1218850,false,false,1387,image-keyboard-response,6
true,11,2,2,1,false,z,true,false,0.0-2.0-0.45-0.410-3.410,0,0,0,68,false,stim,false,0,653,1,0,2,53356,task1,1221030,false,false,1390,image-keyboard-response,7
true,11,0,2,2,false,d,true,false,0.0-2.0-0.45-0.411-3.411,0,0,0,81,false,stim,false,1,270,1,0,1,53356,task1,1222828,false,false,1393,image-keyboard-response,8
true,11,0,2,1,false,z,false,true,0.0-2.0-0.45-0.412-3.412,0,0,0,81,false,stim,true,0,417,1,0,0,53356,task1,1224774,false,true,1396,image-keyboard-response,9
true,11,0,2,1,false,z,false,false,0.0-2.0-0.45-0.413-3.413,0,0,0,81,false,stim,true,0,582,1,0,0,53356,task1,1226900,false,false,1399,image-keyboard-response,10
true,11,0,2,2,false,d,true,false,0.0-2.0-0.46-0.414-3.414,0,0,0,81,false,stim,false,1,487,1,0,1,53356,task1,1228943,false,false,1402,image-keyboard-response,11
true,11,0,2,1,false,z,false,false,0.0-2.0-0.46-0.415-3.415,0,0,0,81,false,stim,true,0,860,1,0,2,53356,task1,1231338,false,false,1405,image-keyboard-response,12
true,11,1,2,2,false,d,false,false,0.0-2.0-0.46-0.416-3.416,0,0,0,90,false,stim,true,1,796,1,0,1,53356,task1,1233664,false,false,1408,image-keyboard-response,13
true,11,0,2,1,false,z,false,false,0.0-2.0-0.46-0.417-3.417,0,0,0,81,false,stim,true,0,341,1,0,0,53356,task1,1235548,false,false,1411,image-keyboard-response,14
true,11,1,2,1,true,z,false,true,0.0-2.0-0.46-0.418-3.418,0,0,0,90,false,stim,false,0,390,1,0,0,53356,task1,1237467,false,false,1414,image-keyboard-response,15
true,11,0,2,1,false,z,false,false,0.0-2.0-0.46-0.419-3.419,0,0,0,81,false,stim,true,0,274,1,0,2,53356,task1,1239272,false,false,1417,image-keyboard-response,16
true,11,2,2,1,false,z,true,false,0.0-2.0-0.46-0.420-3.420,0,0,0,68,false,stim,false,0,2116,1,0,2,53356,task1,1242913,false,false,1420,image-keyboard-response,17
true,11,2,2,2,true,d,false,true,0.0-2.0-0.46-0.421-3.421,0,0,0,68,false,stim,false,1,495,1,0,1,53356,task1,1244933,false,false,1423,image-keyboard-response,18
true,11,1,2,1,true,z,false,true,0.0-2.0-0.46-0.422-3.422,0,0,0,90,false,stim,false,0,380,1,0,0,53356,task1,1246838,false,false,1426,image-keyboard-response,19
true,11,1,2,1,true,z,false,true,0.0-2.0-0.47-0.423-3.423,0,0,0,90,false,stim,false,0,865,1,0,0,53356,task1,1249242,false,false,1429,image-keyboard-response,20
true,11,1,2,1,true,z,false,true,0.0-2.0-0.47-0.424-3.424,0,0,0,90,false,stim,false,0,432,1,0,0,53356,task1,1251210,false,false,1432,image-keyboard-response,21
true,11,2,2,2,true,d,false,true,0.0-2.0-0.47-0.425-3.425,0,0,0,68,false,stim,false,1,685,1,0,1,53356,task1,1253423,false,false,1435,image-keyboard-response,22
true,11,1,2,1,true,z,false,true,0.0-2.0-0.47-0.426-3.426,0,0,0,90,false,stim,false,0,506,1,0,2,53356,task1,1255464,false,false,1438,image-keyboard-response,23
true,11,1,2,1,true,z,false,true,0.0-2.0-0.47-0.427-3.427,0,0,0,90,false,stim,false,0,401,1,0,2,53356,task1,1257398,false,false,1441,image-keyboard-response,24
true,11,1,2,1,true,z,false,true,0.0-2.0-0.47-0.428-3.428,0,0,0,90,false,stim,false,0,550,1,0,2,53356,task1,1259487,false,false,1444,image-keyboard-response,25
true,11,2,2,2,true,d,false,true,0.0-2.0-0.47-0.429-3.429,0,0,0,68,false,stim,false,1,808,1,0,1,53356,task1,1261816,false,false,1447,image-keyboard-response,26
true,11,2,2,2,true,d,false,true,0.0-2.0-0.47-0.430-3.430,0,0,0,68,false,stim,false,1,504,1,0,1,53356,task1,1263847,false,false,1450,image-keyboard-response,27
true,11,1,2,1,true,z,false,true,0.0-2.0-0.47-0.431-3.431,0,0,0,90,false,stim,false,0,611,1,0,0,53356,task1,1265998,false,false,1453,image-keyboard-response,28
true,11,1,2,1,true,z,false,true,0.0-2.0-0.48-0.432-3.432,0,0,0,90,false,stim,false,0,541,1,0,0,53356,task1,1268069,false,false,1456,image-keyboard-response,29
true,11,1,2,1,true,z,false,true,0.0-2.0-0.48-0.433-3.433,0,0,0,90,false,stim,false,0,493,1,0,0,53356,task1,1270100,false,false,1459,image-keyboard-response,30
true,11,2,2,2,true,d,false,true,0.0-2.0-0.48-0.434-3.434,0,0,0,68,false,stim,false,1,994,1,0,1,53356,task1,1272622,false,false,1462,image-keyboard-response,31
true,11,1,2,1,true,z,false,false,0.0-2.0-0.48-0.435-3.435,0,0,0,90,false,stim,false,0,619,1,0,2,53356,task1,1274762,false,true,1465,image-keyboard-response,32
true,11,2,2,1,false,z,true,false,0.0-2.0-0.48-0.436-3.436,0,0,0,68,false,stim,false,0,1582,1,0,2,53356,task1,1277868,false,false,1468,image-keyboard-response,33
true,11,1,2,1,true,z,false,true,0.0-2.0-0.48-0.437-3.437,0,0,0,90,false,stim,false,0,730,1,0,0,53356,task1,1280137,false,false,1471,image-keyboard-response,34
true,11,0,2,1,false,z,false,false,0.0-2.0-0.48-0.438-3.438,0,0,0,81,false,stim,true,0,1766,1,0,2,53356,task1,1283434,false,false,1474,image-keyboard-response,35
true,11,2,2,2,true,d,false,true,0.0-2.0-0.48-0.439-3.439,0,0,0,68,false,stim,false,1,671,1,0,1,53356,task1,1285638,false,false,1477,image-keyboard-response,36
true,11,2,2,2,true,d,false,true,0.0-2.0-0.48-0.440-3.440,0,0,0,68,false,stim,false,1,536,1,0,1,53356,task1,1287703,false,false,1480,image-keyboard-response,37
true,11,2,2,2,true,d,false,true,0.0-2.0-0.49-0.441-3.441,0,0,0,68,false,stim,false,1,422,1,0,1,53356,task1,1289651,false,false,1483,image-keyboard-response,38
true,11,1,2,1,true,z,false,true,0.0-2.0-0.49-0.442-3.442,0,0,0,90,false,stim,false,0,694,1,0,0,53356,task1,1291881,false,false,1486,image-keyboard-response,39
true,11,1,2,1,true,z,false,true,0.0-2.0-0.49-0.443-3.443,0,0,0,90,false,stim,false,0,503,1,0,0,53356,task1,1293910,false,false,1489,image-keyboard-response,40
true,11,2,2,1,false,z,true,false,0.0-2.0-0.49-0.444-3.444,0,0,0,68,false,stim,false,0,458,1,0,2,53356,task1,1295900,false,false,1492,image-keyboard-response,41
true,11,1,2,1,true,z,false,true,0.0-2.0-0.49-0.445-3.445,0,0,0,90,false,stim,false,0,651,1,0,2,53356,task1,1298077,false,false,1495,image-keyboard-response,42
true,12,2,2,1,false,z,false,true,0.0-2.0-0.49-0.446-3.446,0,0,0,68,true,stim,true,2,592,1,0,1,53356,task1,1300209,false,true,1498,image-keyboard-response,1
true,12,2,2,1,false,z,false,false,0.0-2.0-0.49-0.447-3.447,0,0,0,68,false,stim,true,2,867,1,0,1,53356,task1,1302635,false,false,1501,image-keyboard-response,2
true,12,1,2,0,false,q,false,false,0.0-2.0-0.49-0.448-3.448,0,0,0,90,false,stim,true,1,661,1,0,2,53356,task1,1304828,false,false,1504,image-keyboard-response,3
true,12,1,2,0,false,q,false,true,0.0-2.0-0.49-0.449-3.449,0,0,0,90,false,stim,true,1,677,1,0,0,53356,task1,1307045,false,true,1507,image-keyboard-response,4
true,12,2,2,0,false,q,true,false,0.0-2.0-0.50-0.450-3.450,0,0,0,68,false,stim,false,1,397,1,0,2,53356,task1,1308985,false,false,1510,image-keyboard-response,5
true,12,1,2,1,true,z,false,true,0.0-2.0-0.50-0.451-3.451,0,0,0,90,false,stim,false,2,729,1,0,1,53356,task1,1311257,false,false,1513,image-keyboard-response,6
true,12,1,2,0,false,q,false,false,0.0-2.0-0.50-0.452-3.452,0,0,0,90,false,stim,true,1,426,1,0,0,53356,task1,1313214,false,false,1516,image-keyboard-response,7
true,12,2,2,0,false,q,true,false,0.0-2.0-0.50-0.453-3.453,0,0,0,68,false,stim,false,1,550,1,0,0,53356,task1,1315295,false,false,1519,image-keyboard-response,8
true,12,1,2,1,true,z,false,true,0.0-2.0-0.50-0.454-3.454,0,0,0,90,false,stim,false,2,472,1,0,1,53356,task1,1317298,false,false,1522,image-keyboard-response,9
true,12,0,2,0,true,q,false,true,0.0-2.0-0.50-0.455-3.455,0,0,0,81,false,stim,false,1,427,1,0,2,53356,task1,1319255,false,false,1525,image-keyboard-response,10
true,12,1,2,1,true,z,false,true,0.0-2.0-0.50-0.456-3.456,0,0,0,90,false,stim,false,2,637,1,0,1,53356,task1,1321423,false,false,1528,image-keyboard-response,11
true,12,0,2,0,true,q,false,true,0.0-2.0-0.50-0.457-3.457,0,0,0,81,false,stim,false,1,902,1,0,2,53356,task1,1323869,false,false,1531,image-keyboard-response,12
true,12,0,2,0,true,q,false,true,0.0-2.0-0.50-0.458-3.458,0,0,0,81,false,stim,false,1,599,1,0,0,53356,task1,1326007,false,false,1534,image-keyboard-response,13
true,12,0,2,0,true,q,false,true,0.0-2.0-0.51-0.459-3.459,0,0,0,81,false,stim,false,1,630,1,0,2,53356,task1,1328176,false,false,1537,image-keyboard-response,14
true,12,1,2,1,true,z,false,true,0.0-2.0-0.51-0.460-3.460,0,0,0,90,false,stim,false,2,582,1,0,1,53356,task1,1330290,false,false,1540,image-keyboard-response,15
true,12,0,2,0,true,q,false,true,0.0-2.0-0.51-0.461-3.461,0,0,0,81,false,stim,false,1,1073,1,0,2,53356,task1,1332900,false,false,1543,image-keyboard-response,16
true,12,0,2,1,false,z,true,false,0.0-2.0-0.51-0.462-3.462,0,0,0,81,false,stim,false,2,478,1,0,1,53356,task1,1334906,false,false,1546,image-keyboard-response,17
true,12,1,2,0,false,q,false,false,0.0-2.0-0.51-0.463-3.463,0,0,0,90,false,stim,true,1,499,1,0,0,53356,task1,1336944,false,false,1549,image-keyboard-response,18
true,12,0,2,0,true,q,false,false,0.0-2.0-0.51-0.464-3.464,0,0,0,81,false,stim,false,1,432,1,0,2,53356,task1,1338920,false,true,1552,image-keyboard-response,19
true,12,1,2,1,true,z,false,true,0.0-2.0-0.51-0.465-3.465,0,0,0,90,false,stim,false,2,758,1,0,1,53356,task1,1341216,false,false,1555,image-keyboard-response,20
true,12,0,2,0,true,q,false,true,0.0-2.0-0.51-0.466-3.466,0,0,0,81,false,stim,false,1,360,1,0,0,53356,task1,1343118,false,false,1558,image-keyboard-response,21
true,12,0,2,0,true,q,false,true,0.0-2.0-0.51-0.467-3.467,0,0,0,81,false,stim,false,1,556,1,0,0,53356,task1,1345213,false,false,1561,image-keyboard-response,22
true,12,1,2,1,true,z,false,true,0.0-2.0-0.52-0.468-3.468,0,0,0,90,false,stim,false,2,679,1,0,1,53356,task1,1347436,false,false,1564,image-keyboard-response,23
true,12,0,2,0,true,q,false,true,0.0-2.0-0.52-0.469-3.469,0,0,0,81,false,stim,false,1,640,1,0,2,53356,task1,1349598,false,false,1567,image-keyboard-response,24
true,12,1,2,0,false,q,false,false,0.0-2.0-0.52-0.470-3.470,0,0,0,90,false,stim,true,1,637,1,0,2,53356,task1,1351774,false,false,1570,image-keyboard-response,25
true,12,0,2,0,true,q,false,false,0.0-2.0-0.52-0.471-3.471,0,0,0,81,false,stim,false,1,369,1,0,2,53356,task1,1353686,false,true,1573,image-keyboard-response,26
true,12,0,2,1,false,z,true,false,0.0-2.0-0.52-0.472-3.472,0,0,0,81,false,stim,false,2,705,1,0,1,53356,task1,1355923,false,false,1576,image-keyboard-response,27
true,12,0,2,0,true,q,false,true,0.0-2.0-0.52-0.473-3.473,0,0,0,81,false,stim,false,1,444,1,0,0,53356,task1,1357901,false,false,1579,image-keyboard-response,28
true,12,1,2,1,true,z,false,true,0.0-2.0-0.52-0.474-3.474,0,0,0,90,false,stim,false,2,588,1,0,1,53356,task1,1360026,false,false,1582,image-keyboard-response,29
true,12,0,2,0,true,q,false,true,0.0-2.0-0.52-0.475-3.475,0,0,0,81,false,stim,false,1,1105,1,0,0,53356,task1,1362657,false,false,1585,image-keyboard-response,30
true,12,0,2,0,true,q,false,true,0.0-2.0-0.52-0.476-3.476,0,0,0,81,false,stim,false,1,494,1,0,0,53356,task1,1364692,false,false,1588,image-keyboard-response,31
true,12,1,2,1,true,z,false,true,0.0-2.0-0.53-0.477-3.477,0,0,0,90,false,stim,false,2,901,1,0,1,53356,task1,1367118,false,false,1591,image-keyboard-response,32
true,12,1,2,1,true,z,false,true,0.0-2.0-0.53-0.478-3.478,0,0,0,90,false,stim,false,2,570,1,0,1,53356,task1,1369222,false,false,1594,image-keyboard-response,33
true,12,0,2,0,true,q,false,true,0.0-2.0-0.53-0.479-3.479,0,0,0,81,false,stim,false,1,718,1,0,0,53356,task1,1371471,false,false,1597,image-keyboard-response,34
true,12,1,2,0,false,q,false,false,0.0-2.0-0.53-0.480-3.480,0,0,0,90,false,stim,true,1,1033,1,0,2,53356,task1,1374030,false,false,1600,image-keyboard-response,35
true,12,0,2,0,true,q,false,true,0.0-2.0-0.53-0.481-3.481,0,0,0,81,false,stim,false,1,2136,1,0,0,53356,task1,1377732,false,false,1603,image-keyboard-response,36
true,12,0,2,0,true,q,false,true,0.0-2.0-0.53-0.482-3.482,0,0,0,81,false,stim,false,1,460,1,0,0,53356,task1,1379727,false,false,1606,image-keyboard-response,37
true,12,1,2,0,false,q,false,false,0.0-2.0-0.53-0.483-3.483,0,0,0,90,false,stim,true,1,521,1,0,2,53356,task1,1381775,false,false,1609,image-keyboard-response,38
true,12,1,2,1,true,z,false,false,0.0-2.0-0.53-0.484-3.484,0,0,0,90,false,stim,false,2,367,1,0,1,53356,task1,1383684,false,true,1612,image-keyboard-response,39
true,12,1,2,0,false,q,false,false,0.0-2.0-0.53-0.485-3.485,0,0,0,90,false,stim,true,1,488,1,0,2,53356,task1,1385706,false,false,1615,image-keyboard-response,40
true,12,0,2,0,true,q,false,true,0.0-2.0-0.54-0.486-3.486,0,0,0,81,false,stim,false,1,1153,1,0,2,53356,task1,1388391,false,false,1618,image-keyboard-response,41
true,12,1,2,1,true,z,false,true,0.0-2.0-0.54-0.487-3.487,0,0,0,90,false,stim,false,2,899,1,0,1,53356,task1,1390816,false,false,1621,image-keyboard-response,42
true,12,0,2,0,true,q,false,true,0.0-2.0-0.54-0.488-3.488,0,0,0,81,false,stim,false,1,591,1,0,0,53356,task1,1392943,false,false,1624,image-keyboard-response,43
true,13,0,2,1,false,z,false,false,0.0-2.0-0.54-0.489-3.489,0,0,0,81,true,stim,true,0,505,1,0,0,53356,task1,1394982,false,false,1627,image-keyboard-response,1
true,13,1,2,1,true,z,false,true,0.0-2.0-0.54-0.490-3.490,0,0,0,90,false,stim,false,0,985,1,0,0,53356,task1,1397502,false,false,1630,image-keyboard-response,2
true,13,0,2,1,false,z,false,false,0.0-2.0-0.54-0.491-3.491,0,0,0,81,false,stim,true,0,712,1,0,2,53356,task1,1399749,false,false,1633,image-keyboard-response,3
true,13,1,2,1,true,z,false,true,0.0-2.0-0.54-0.492-3.492,0,0,0,90,false,stim,false,0,601,1,0,2,53356,task1,1401898,false,false,1636,image-keyboard-response,4
true,13,0,2,2,false,d,true,false,0.0-2.0-0.54-0.493-3.493,0,0,0,81,false,stim,false,1,681,1,0,1,53356,task1,1404118,false,false,1639,image-keyboard-response,5
true,13,1,2,2,false,d,false,false,0.0-2.0-0.54-0.494-3.494,0,0,0,90,false,stim,true,1,401,1,0,1,53356,task1,1406055,false,false,1642,image-keyboard-response,6
true,13,1,2,1,true,z,false,true,0.0-2.0-0.55-0.495-3.495,0,0,0,90,false,stim,false,0,475,1,0,0,53356,task1,1408072,false,false,1645,image-keyboard-response,7
true,13,0,2,2,false,d,true,false,0.0-2.0-0.55-0.496-3.496,0,0,0,81,false,stim,false,1,536,1,0,1,53356,task1,1410144,false,false,1648,image-keyboard-response,8
true,13,1,2,1,true,z,false,true,0.0-2.0-0.55-0.497-3.497,0,0,0,90,false,stim,false,0,467,1,0,0,53356,task1,1412155,false,false,1651,image-keyboard-response,9
true,13,2,2,2,true,d,false,true,0.0-2.0-0.55-0.498-3.498,0,0,0,68,false,stim,false,1,714,1,0,1,53356,task1,1414402,false,false,1654,image-keyboard-response,10
true,13,1,2,1,true,z,false,true,0.0-2.0-0.55-0.499-3.499,0,0,0,90,false,stim,false,0,658,1,0,0,53356,task1,1416585,false,false,1657,image-keyboard-response,11
true,13,1,2,1,true,z,false,true,0.0-2.0-0.55-0.500-3.500,0,0,0,90,false,stim,false,0,468,1,0,2,53356,task1,1418596,false,false,1660,image-keyboard-response,12
true,13,1,2,1,true,z,false,false,0.0-2.0-0.55-0.501-3.501,0,0,0,90,false,stim,false,0,827,1,0,2,53356,task1,1420964,false,true,1663,image-keyboard-response,13
true,13,2,2,2,true,d,false,true,0.0-2.0-0.55-0.502-3.502,0,0,0,68,false,stim,false,1,735,1,0,1,53356,task1,1423242,false,false,1666,image-keyboard-response,14
true,13,2,2,1,false,z,true,false,0.0-2.0-0.55-0.503-3.503,0,0,0,68,false,stim,false,0,441,1,0,2,53356,task1,1425208,false,false,1669,image-keyboard-response,15
true,13,1,2,1,true,z,false,true,0.0-2.0-0.56-0.504-3.504,0,0,0,90,false,stim,false,0,1011,1,0,2,53356,task1,1427748,false,false,1672,image-keyboard-response,16
true,13,1,2,1,true,z,false,true,0.0-2.0-0.56-0.505-3.505,0,0,0,90,false,stim,false,0,689,1,0,0,53356,task1,1429966,false,false,1675,image-keyboard-response,17
true,13,1,2,1,true,z,false,true,0.0-2.0-0.56-0.506-3.506,0,0,0,90,false,stim,false,0,1031,1,0,2,53356,task1,1432539,false,false,1678,image-keyboard-response,18
true,13,1,2,1,true,z,false,true,0.0-2.0-0.56-0.507-3.507,0,0,0,90,false,stim,false,0,981,1,0,0,53356,task1,1435048,false,false,1681,image-keyboard-response,19
true,13,1,2,1,true,z,false,true,0.0-2.0-0.56-0.508-3.508,0,0,0,90,false,stim,false,0,949,1,0,2,53356,task1,1437538,false,false,1684,image-keyboard-response,20
true,13,1,2,1,true,z,false,true,0.0-2.0-0.56-0.509-3.509,0,0,0,90,false,stim,false,0,638,1,0,0,53356,task1,1439716,false,false,1687,image-keyboard-response,21
true,13,2,2,2,true,d,false,true,0.0-2.0-0.56-0.510-3.510,0,0,0,68,false,stim,false,1,698,1,0,1,53356,task1,1441951,false,false,1690,image-keyboard-response,22
true,13,2,2,2,true,d,false,true,0.0-2.0-0.56-0.511-3.511,0,0,0,68,false,stim,false,1,759,1,0,1,53356,task1,1444257,false,false,1693,image-keyboard-response,23
true,13,2,2,2,true,d,false,true,0.0-2.0-0.56-0.512-3.512,0,0,0,68,false,stim,false,1,838,1,0,1,53356,task1,1446635,false,false,1696,image-keyboard-response,24
true,13,2,2,2,true,d,false,false,0.0-2.0-0.57-0.513-3.513,0,0,0,68,false,stim,false,1,1111,1,0,1,53356,task1,1449289,false,true,1699,image-keyboard-response,25
true,13,1,2,1,true,z,false,true,0.0-2.0-0.57-0.514-3.514,0,0,0,90,false,stim,false,0,819,1,0,2,53356,task1,1451667,false,false,1702,image-keyboard-response,26
true,13,2,2,2,true,d,false,true,0.0-2.0-0.57-0.515-3.515,0,0,0,68,false,stim,false,1,583,1,0,1,53356,task1,1453790,false,false,1705,image-keyboard-response,27
true,13,1,2,1,true,z,false,true,0.0-2.0-0.57-0.516-3.516,0,0,0,90,false,stim,false,0,789,1,0,0,53356,task1,1456117,false,false,1708,image-keyboard-response,28
true,13,1,2,1,true,z,false,true,0.0-2.0-0.57-0.517-3.517,0,0,0,90,false,stim,false,0,520,1,0,0,53356,task1,1458167,false,false,1711,image-keyboard-response,29
true,13,1,2,1,true,z,false,false,0.0-2.0-0.57-0.518-3.518,0,0,0,90,false,stim,false,0,763,1,0,2,53356,task1,1460469,false,true,1714,image-keyboard-response,30
true,13,1,2,1,true,z,false,true,0.0-2.0-0.57-0.519-3.519,0,0,0,90,false,stim,false,0,1871,1,0,0,53356,task1,1463878,false,false,1717,image-keyboard-response,31
true,13,2,2,2,true,d,false,true,0.0-2.0-0.57-0.520-3.520,0,0,0,68,false,stim,false,1,920,1,0,1,53356,task1,1466328,false,false,1720,image-keyboard-response,32
true,13,1,2,1,true,z,false,true,0.0-2.0-0.57-0.521-3.521,0,0,0,90,false,stim,false,0,691,1,0,2,53356,task1,1468558,false,false,1723,image-keyboard-response,33
true,13,1,2,1,true,z,false,true,0.0-2.0-0.58-0.522-3.522,0,0,0,90,false,stim,false,0,716,1,0,2,53356,task1,1470804,false,false,1726,image-keyboard-response,34
true,13,1,2,1,true,z,false,true,0.0-2.0-0.58-0.523-3.523,0,0,0,90,false,stim,false,0,754,1,0,2,53356,task1,1473101,false,false,1729,image-keyboard-response,35
true,13,1,2,1,true,z,false,true,0.0-2.0-0.58-0.524-3.524,0,0,0,90,false,stim,false,0,1825,1,0,0,53356,task1,1476454,false,false,1732,image-keyboard-response,36
true,13,2,2,2,true,d,false,true,0.0-2.0-0.58-0.525-3.525,0,0,0,68,false,stim,false,1,690,1,0,1,53356,task1,1478677,false,false,1735,image-keyboard-response,37
true,13,2,2,2,true,d,false,true,0.0-2.0-0.58-0.526-3.526,0,0,0,68,false,stim,false,1,394,1,0,1,53356,task1,1480601,false,false,1738,image-keyboard-response,38
true,13,1,2,1,true,z,false,true,0.0-2.0-0.58-0.527-3.527,0,0,0,90,false,stim,false,0,850,1,0,2,53356,task1,1482978,false,false,1741,image-keyboard-response,39
true,13,1,2,1,true,z,false,true,0.0-2.0-0.58-0.528-3.528,0,0,0,90,false,stim,false,0,717,1,1,0,53356,task1,1485225,false,false,1744,image-keyboard-response,40
true,13,2,2,2,true,d,false,true,0.0-2.0-0.58-0.529-3.529,0,0,0,68,false,stim,false,1,747,1,1,1,53356,task1,1487514,false,false,1747,image-keyboard-response,41
true,13,1,2,1,true,z,false,true,0.0-2.0-0.58-0.530-3.530,0,0,0,90,false,stim,false,0,755,1,1,0,53356,task1,1489803,false,false,1750,image-keyboard-response,42
true,13,1,2,1,true,z,false,true,0.0-2.0-0.59-0.531-3.531,0,0,0,90,false,stim,false,0,610,1,1,2,53356,task1,1491959,false,false,1753,image-keyboard-response,43
true,13,1,2,1,true,z,false,true,0.0-2.0-0.59-0.532-3.532,0,0,0,90,false,stim,false,0,656,1,1,0,53356,task1,1494144,false,false,1756,image-keyboard-response,44
true,14,2,0,2,true,d,false,true,0.0-2.0-0.59-0.533-3.533,1,1,1,68,true,stim,false,2,2906,1,1,1,53356,task1,1504374,false,false,1765,image-keyboard-response,1
true,14,1,0,1,true,z,false,true,0.0-2.0-0.59-0.534-3.534,1,1,1,90,false,stim,false,1,743,1,1,2,53356,task1,1506651,false,false,1768,image-keyboard-response,2
true,14,2,0,2,true,d,false,true,0.0-2.0-0.59-0.535-3.535,1,1,1,68,false,stim,false,2,681,1,1,1,53356,task1,1508868,false,false,1771,image-keyboard-response,3
true,14,2,0,2,true,d,false,true,0.0-2.0-0.59-0.536-3.536,1,1,1,68,false,stim,false,2,627,1,1,1,53356,task1,1511034,false,false,1774,image-keyboard-response,4
true,14,1,0,1,true,z,false,false,0.0-2.0-0.59-0.537-3.537,1,1,1,90,false,stim,false,1,637,1,1,0,53356,task1,1513205,false,true,1777,image-keyboard-response,5
true,14,1,0,1,true,z,false,true,0.0-2.0-0.59-0.538-3.538,1,1,1,90,false,stim,false,1,1167,1,1,2,53356,task1,1515917,false,false,1780,image-keyboard-response,6
true,14,1,0,1,true,z,false,true,0.0-2.0-0.59-0.539-3.539,1,1,1,90,false,stim,false,1,584,1,1,0,53356,task1,1518031,false,false,1783,image-keyboard-response,7
true,14,1,0,1,true,z,false,true,0.0-2.0-0.60-0.540-3.540,1,1,1,90,false,stim,false,1,713,1,1,0,53356,task1,1520280,false,false,1786,image-keyboard-response,8
true,14,1,0,1,true,z,false,true,0.0-2.0-0.60-0.541-3.541,1,1,1,90,false,stim,false,1,959,1,0,2,53356,task1,1522767,false,false,1789,image-keyboard-response,9
true,14,2,0,2,true,d,false,true,0.0-2.0-0.60-0.542-3.542,1,1,1,68,false,stim,false,2,799,1,0,1,53356,task1,1525108,false,false,1792,image-keyboard-response,10
true,14,1,0,1,true,z,false,true,0.0-2.0-0.60-0.543-3.543,1,1,1,90,false,stim,false,1,1140,1,0,2,53356,task1,1527788,false,false,1795,image-keyboard-response,11
true,14,1,0,1,true,z,false,false,0.0-2.0-0.60-0.544-3.544,1,1,1,90,false,stim,false,1,576,1,0,2,53356,task1,1529904,false,true,1798,image-keyboard-response,12
true,14,1,0,1,true,z,false,true,0.0-2.0-0.60-0.545-3.545,1,1,1,90,false,stim,false,1,1009,1,0,0,53356,task1,1532488,false,false,1801,image-keyboard-response,13
true,15,2,1,1,false,z,false,false,0.0-2.0-0.60-0.546-3.546,0,0,0,68,true,stim,true,2,632,1,0,1,53356,task1,1534659,false,false,1804,image-keyboard-response,1
false,15,-1,1,1,false,z,true,false,0.0-2.0-0.60-0.547-3.547,0,0,0,,false,stim,false,2,,1,0,1,53356,task1,1539205,false,false,1807,image-keyboard-response,2
true,15,1,1,2,false,d,false,false,0.0-2.0-0.60-0.548-3.548,0,0,0,90,false,stim,true,1,1129,1,0,0,53356,task1,1541877,false,false,1810,image-keyboard-response,3
true,15,1,1,0,false,q,false,false,0.0-2.0-0.61-0.549-3.549,0,0,0,90,false,stim,true,1,1389,1,0,2,53356,task1,1544797,false,false,1813,image-keyboard-response,4
true,15,2,1,0,false,q,true,false,0.0-2.0-0.61-0.550-3.550,0,0,0,68,false,stim,false,1,983,1,0,2,53356,task1,1547311,false,false,1816,image-keyboard-response,5
true,15,1,1,0,false,q,false,false,0.0-2.0-0.61-0.551-3.551,0,0,0,90,false,stim,true,1,382,1,0,2,53356,task1,1549229,false,false,1819,image-keyboard-response,6
true,15,0,1,2,false,d,true,false,0.0-2.0-0.61-0.552-3.552,0,0,0,81,false,stim,false,1,311,1,0,0,53356,task1,1551079,false,false,1822,image-keyboard-response,7
true,15,0,1,1,false,z,true,false,0.0-2.0-0.61-0.553-3.553,0,0,0,81,false,stim,false,2,768,1,0,1,53356,task1,1553374,false,false,1825,image-keyboard-response,8
true,15,1,1,2,false,d,false,false,0.0-2.0-0.61-0.554-3.554,0,0,0,90,false,stim,true,1,286,1,0,0,53356,task1,1555203,false,false,1828,image-keyboard-response,9
true,15,1,1,1,true,z,false,true,0.0-2.0-0.61-0.555-3.555,0,0,0,90,false,stim,false,2,787,1,0,1,53356,task1,1557525,false,false,1831,image-keyboard-response,10
true,15,1,1,1,true,z,false,true,0.0-2.0-0.61-0.556-3.556,0,0,0,90,false,stim,false,2,776,1,0,1,53356,task1,1559829,false,false,1834,image-keyboard-response,11
true,15,2,1,2,true,d,false,true,0.0-2.0-0.61-0.557-3.557,0,0,0,68,false,stim,false,1,760,1,0,0,53356,task1,1562128,false,false,1837,image-keyboard-response,12
true,15,1,1,1,true,z,false,true,0.0-2.0-0.62-0.558-3.558,0,0,0,90,false,stim,false,2,737,1,0,1,53356,task1,1564405,false,false,1840,image-keyboard-response,13
true,15,2,1,0,false,q,true,false,0.0-2.0-0.62-0.559-3.559,0,0,0,68,false,stim,false,1,737,1,0,2,53356,task1,1566684,false,false,1843,image-keyboard-response,14
true,15,2,1,2,true,d,false,false,0.0-2.0-0.62-0.560-3.560,0,0,0,68,false,stim,false,1,977,1,0,0,53356,task1,1569204,false,true,1846,image-keyboard-response,15
true,15,1,1,2,false,d,false,false,0.0-2.0-0.62-0.561-3.561,0,0,0,90,false,stim,true,1,527,1,0,0,53356,task1,1571275,false,false,1849,image-keyboard-response,16
true,15,1,1,2,false,d,false,false,0.0-2.0-0.62-0.562-3.562,0,0,0,90,false,stim,true,1,863,1,0,0,53356,task1,1573671,false,false,1852,image-keyboard-response,17
true,15,0,1,0,true,q,false,true,0.0-2.0-0.62-0.563-3.563,0,0,0,81,false,stim,false,1,242,1,0,2,53356,task1,1575439,false,false,1855,image-keyboard-response,18
true,15,0,1,0,true,q,false,true,0.0-2.0-0.62-0.564-3.564,0,0,0,81,false,stim,false,1,608,1,0,2,53356,task1,1577560,false,false,1858,image-keyboard-response,19
true,15,2,1,1,false,z,false,false,0.0-2.0-0.62-0.565-3.565,0,0,0,68,false,stim,true,2,660,1,0,1,53356,task1,1579747,false,false,1861,image-keyboard-response,20
true,15,1,1,1,true,z,false,true,0.0-2.0-0.62-0.566-3.566,0,0,0,90,false,stim,false,2,1226,1,0,1,53356,task1,1582493,false,false,1864,image-keyboard-response,21
true,15,1,1,1,true,z,false,true,0.0-2.0-0.63-0.567-3.567,0,0,0,90,false,stim,false,2,1390,1,0,1,53356,task1,1585417,false,false,1867,image-keyboard-response,22
true,15,0,1,0,true,q,false,false,0.0-2.0-0.63-0.568-3.568,0,0,0,81,false,stim,false,1,610,1,0,2,53356,task1,1587557,false,true,1870,image-keyboard-response,23
true,15,1,1,2,false,d,false,false,0.0-2.0-0.63-0.569-3.569,0,0,0,90,false,stim,true,1,928,1,0,0,53356,task1,1590025,false,false,1873,image-keyboard-response,24
true,15,0,1,0,true,q,false,false,0.0-2.0-0.63-0.570-3.570,0,0,0,81,false,stim,false,1,546,1,0,2,53356,task1,1592093,false,true,1876,image-keyboard-response,25
true,15,1,1,1,true,z,false,true,0.0-2.0-0.63-0.571-3.571,0,0,0,90,false,stim,false,2,996,1,0,1,53356,task1,1594624,false,false,1879,image-keyboard-response,26
true,15,2,1,2,true,d,false,true,0.0-2.0-0.63-0.572-3.572,0,0,0,68,false,stim,false,1,365,1,0,0,53356,task1,1596519,false,false,1882,image-keyboard-response,27
true,15,2,1,2,true,d,false,true,0.0-2.0-0.63-0.573-3.573,0,0,0,68,false,stim,false,1,544,1,0,0,53356,task1,1598596,false,false,1885,image-keyboard-response,28
true,15,1,1,1,true,z,false,true,0.0-2.0-0.63-0.574-3.574,0,0,0,90,false,stim,false,2,1257,1,0,1,53356,task1,1601384,false,false,1888,image-keyboard-response,29
true,15,2,1,0,false,q,true,false,0.0-2.0-0.63-0.575-3.575,0,0,0,68,false,stim,false,1,567,1,0,2,53356,task1,1603494,false,false,1891,image-keyboard-response,30
true,15,0,1,0,true,q,false,true,0.0-2.0-0.64-0.576-3.576,0,0,0,81,false,stim,false,1,1467,1,0,2,53356,task1,1606495,false,false,1894,image-keyboard-response,31
true,15,1,1,1,true,z,false,true,0.0-2.0-0.64-0.577-3.577,0,0,0,90,false,stim,false,2,463,1,0,1,53356,task1,1608500,false,false,1897,image-keyboard-response,32
true,15,0,1,0,true,q,false,true,0.0-2.0-0.64-0.578-3.578,0,0,0,81,false,stim,false,1,1172,1,0,2,53356,task1,1611210,false,false,1900,image-keyboard-response,33
true,15,2,1,2,true,d,false,true,0.0-2.0-0.64-0.579-3.579,0,0,0,68,false,stim,false,1,425,1,0,0,53356,task1,1613203,false,false,1903,image-keyboard-response,34
true,15,0,1,0,true,q,false,true,0.0-2.0-0.64-0.580-3.580,0,0,0,81,false,stim,false,1,1099,1,0,2,53356,task1,1615837,false,false,1906,image-keyboard-response,35
true,15,2,1,2,true,d,false,true,0.0-2.0-0.64-0.581-3.581,0,0,0,68,false,stim,false,1,588,1,0,0,53356,task1,1617967,false,false,1909,image-keyboard-response,36
true,15,1,1,1,true,z,false,false,0.0-2.0-0.64-0.582-3.582,0,0,0,90,false,stim,false,2,1014,1,0,1,53356,task1,1620511,false,true,1912,image-keyboard-response,37
true,15,2,1,2,true,d,false,true,0.0-2.0-0.64-0.583-3.583,0,0,0,68,false,stim,false,1,852,1,0,0,53356,task1,1622901,false,false,1915,image-keyboard-response,38
true,15,1,1,1,true,z,false,true,0.0-2.0-0.64-0.584-3.584,0,0,0,90,false,stim,false,2,623,1,0,1,53356,task1,1625050,false,false,1918,image-keyboard-response,39
true,16,1,2,2,false,d,false,false,0.0-2.0-0.65-0.585-3.585,0,0,0,90,true,stim,true,1,1414,1,0,1,53356,task1,1628003,false,false,1921,image-keyboard-response,1
true,16,1,2,2,false,d,false,false,0.0-2.0-0.65-0.586-3.586,0,0,0,90,false,stim,true,1,1463,1,0,1,53356,task1,1631011,false,false,1924,image-keyboard-response,2
true,16,1,2,2,false,d,false,false,0.0-2.0-0.65-0.587-3.587,0,0,0,90,false,stim,true,1,1121,1,0,1,53356,task1,1633669,false,false,1927,image-keyboard-response,3
true,16,2,2,1,false,z,false,false,0.0-2.0-0.65-0.588-3.588,0,0,0,68,false,stim,true,2,791,1,0,0,53356,task1,1635999,false,false,1930,image-keyboard-response,4
true,16,0,2,1,false,z,false,false,0.0-2.0-0.65-0.589-3.589,0,0,0,81,false,stim,true,0,1122,1,0,2,53356,task1,1638649,false,false,1933,image-keyboard-response,5
true,16,2,2,1,false,z,false,false,0.0-2.0-0.65-0.590-3.590,0,0,0,68,false,stim,true,2,1594,1,0,0,53356,task1,1641782,false,false,1936,image-keyboard-response,6
true,16,0,2,1,false,z,false,false,0.0-2.0-0.65-0.591-3.591,0,0,0,81,false,stim,true,0,338,1,0,2,53356,task1,1643647,false,false,1939,image-keyboard-response,7
true,16,0,2,1,false,z,true,true,0.0-2.0-0.65-0.592-3.592,0,0,0,81,false,stim,false,2,774,1,0,0,53356,task1,1645963,false,true,1942,image-keyboard-response,8
true,16,1,2,1,true,z,false,true,0.0-2.0-0.65-0.593-3.593,0,0,0,90,false,stim,false,0,1550,1,0,2,53356,task1,1649057,false,false,1945,image-keyboard-response,9
true,16,1,2,1,true,z,false,true,0.0-2.0-0.66-0.594-3.594,0,0,0,90,false,stim,false,0,738,1,0,2,53356,task1,1651326,false,false,1948,image-keyboard-response,10
true,16,2,2,2,true,d,false,true,0.0-2.0-0.66-0.595-3.595,0,0,0,68,false,stim,false,1,673,1,0,1,53356,task1,1653541,false,false,1951,image-keyboard-response,11
true,16,2,2,2,true,d,false,true,0.0-2.0-0.66-0.596-3.596,0,0,0,68,false,stim,false,1,577,1,0,1,53356,task1,1655646,false,false,1954,image-keyboard-response,12
true,16,2,2,2,true,d,false,true,0.0-2.0-0.66-0.597-3.597,0,0,0,68,false,stim,false,1,483,1,0,1,53356,task1,1657671,false,false,1957,image-keyboard-response,13
true,16,1,2,1,true,z,false,true,0.0-2.0-0.66-0.598-3.598,0,0,0,90,false,stim,false,0,1322,1,0,2,53356,task1,1660529,false,false,1960,image-keyboard-response,14
true,16,0,2,1,false,z,true,false,0.0-2.0-0.66-0.599-3.599,0,0,0,81,false,stim,false,2,1271,1,0,0,53356,task1,1663328,false,false,1963,image-keyboard-response,15
true,16,1,2,1,true,z,false,true,0.0-2.0-0.66-0.600-3.600,0,0,0,90,false,stim,false,2,2405,1,0,0,53356,task1,1667262,false,false,1966,image-keyboard-response,16
true,16,2,2,1,false,z,true,false,0.0-2.0-0.66-0.601-3.601,0,0,0,68,false,stim,false,0,1202,1,0,2,53356,task1,1670000,false,false,1969,image-keyboard-response,17
true,16,1,2,1,true,z,false,true,0.0-2.0-0.66-0.602-3.602,0,0,0,90,false,stim,false,2,592,1,0,0,53356,task1,1672130,false,false,1972,image-keyboard-response,18
true,16,2,2,2,true,d,false,true,0.0-2.0-0.67-0.603-3.603,0,0,0,68,false,stim,false,1,992,1,0,1,53356,task1,1674651,false,false,1975,image-keyboard-response,19
true,16,2,2,2,true,d,false,true,0.0-2.0-0.67-0.604-3.604,0,0,0,68,false,stim,false,1,521,1,0,1,53356,task1,1676699,false,false,1978,image-keyboard-response,20
true,16,1,2,1,true,z,false,true,0.0-2.0-0.67-0.605-3.605,0,0,0,90,false,stim,false,2,886,1,0,0,53356,task1,1679125,false,false,1981,image-keyboard-response,21
true,16,1,2,1,true,z,false,true,0.0-2.0-0.67-0.606-3.606,0,0,0,90,false,stim,false,2,609,1,0,0,53356,task1,1681266,false,false,1984,image-keyboard-response,22
true,16,1,2,1,true,z,false,true,0.0-2.0-0.67-0.607-3.607,0,0,0,90,false,stim,false,0,648,1,0,2,53356,task1,1683447,false,false,1987,image-keyboard-response,23
true,16,1,2,1,true,z,false,true,0.0-2.0-0.67-0.608-3.608,0,0,0,90,false,stim,false,2,1291,1,0,0,53356,task1,1686267,false,false,1990,image-keyboard-response,24
true,16,1,2,1,true,z,false,false,0.0-2.0-0.67-0.609-3.609,0,0,0,90,false,stim,false,0,487,1,0,2,53356,task1,1688284,false,true,1993,image-keyboard-response,25
true,16,2,2,2,true,d,false,true,0.0-2.0-0.67-0.610-3.610,0,0,0,68,false,stim,false,1,658,1,0,1,53356,task1,1690477,false,false,1996,image-keyboard-response,26
true,16,1,2,1,true,z,false,true,0.0-2.0-0.67-0.611-3.611,0,0,0,90,false,stim,false,0,1651,1,0,2,53356,task1,1693668,false,false,1999,image-keyboard-response,27
true,16,2,2,2,true,d,false,true,0.0-2.0-0.68-0.612-3.612,0,0,0,68,false,stim,false,1,897,1,0,1,53356,task1,1696135,false,false,2002,image-keyboard-response,28
true,16,1,2,1,true,z,false,true,0.0-2.0-0.68-0.613-3.613,0,0,0,90,false,stim,false,0,1057,1,0,2,53356,task1,1698735,false,false,2005,image-keyboard-response,29
true,16,1,2,1,true,z,false,false,0.0-2.0-0.68-0.614-3.614,0,0,0,90,false,stim,false,0,580,1,0,2,53356,task1,1700857,false,true,2008,image-keyboard-response,30
true,16,0,2,1,false,z,false,false,0.0-2.0-0.68-0.615-3.615,0,0,0,81,false,stim,true,0,2146,1,0,2,53356,task1,1704545,false,false,2011,image-keyboard-response,31
true,16,2,2,2,true,d,false,true,0.0-2.0-0.68-0.616-3.616,0,0,0,68,false,stim,false,1,852,1,0,1,53356,task1,1706929,false,false,2014,image-keyboard-response,32
true,16,2,2,2,true,d,false,true,0.0-2.0-0.68-0.617-3.617,0,0,0,68,false,stim,false,1,856,1,0,1,53356,task1,1709303,false,false,2017,image-keyboard-response,33
true,16,1,2,1,true,z,false,true,0.0-2.0-0.68-0.618-3.618,0,0,0,90,false,stim,false,2,457,1,0,0,53356,task1,1711304,false,false,2020,image-keyboard-response,34
true,16,1,2,1,true,z,false,true,0.0-2.0-0.68-0.619-3.619,0,0,0,90,false,stim,false,2,598,1,0,0,53356,task1,1713445,false,false,2023,image-keyboard-response,35
true,16,1,2,1,true,z,false,true,0.0-2.0-0.68-0.620-3.620,0,0,0,90,false,stim,false,2,474,1,0,0,53356,task1,1715462,false,false,2026,image-keyboard-response,36
true,16,1,2,1,true,z,false,true,0.0-2.0-0.69-0.621-3.621,0,0,0,90,false,stim,false,0,709,1,0,2,53356,task1,1717706,false,false,2029,image-keyboard-response,37
true,16,1,2,1,true,z,false,true,0.0-2.0-0.69-0.622-3.622,0,0,0,90,false,stim,false,0,951,1,0,2,53356,task1,1720187,false,false,2032,image-keyboard-response,38
true,16,1,2,1,true,z,false,true,0.0-2.0-0.69-0.623-3.623,0,0,0,90,false,stim,false,0,681,1,0,2,53356,task1,1722409,false,false,2035,image-keyboard-response,39
true,16,1,2,1,true,z,false,false,0.0-2.0-0.69-0.624-3.624,0,0,0,90,false,stim,false,2,985,1,0,0,53356,task1,1724934,false,true,2038,image-keyboard-response,40
true,16,2,2,2,true,d,false,true,0.0-2.0-0.69-0.625-3.625,0,0,0,68,false,stim,false,1,758,1,0,1,53356,task1,1727236,false,false,2041,image-keyboard-response,41
true,17,1,2,0,false,q,false,false,0.0-2.0-0.69-0.626-3.626,0,0,0,90,true,stim,true,1,421,1,0,0,53356,task1,1729198,false,false,2044,image-keyboard-response,1
true,17,2,2,1,false,z,false,false,0.0-2.0-0.69-0.627-3.627,0,0,0,68,false,stim,true,2,789,1,0,1,53356,task1,1731526,false,false,2047,image-keyboard-response,2
false,17,-1,2,0,false,q,true,false,0.0-2.0-0.69-0.628-3.628,0,0,0,,false,stim,false,1,,1,0,0,53356,task1,1736074,false,false,2050,image-keyboard-response,3
true,17,0,2,1,false,z,true,false,0.0-2.0-0.69-0.629-3.629,0,0,0,81,false,stim,false,2,645,1,0,1,53356,task1,1738263,false,false,2053,image-keyboard-response,4
true,17,0,2,0,true,q,false,true,0.0-2.0-0.70-0.630-3.630,0,0,0,81,false,stim,false,1,731,1,0,2,53356,task1,1740528,false,false,2056,image-keyboard-response,5
true,17,1,2,1,true,z,false,true,0.0-2.0-0.70-0.631-3.631,0,0,0,90,false,stim,false,2,2338,1,0,1,53356,task1,1744396,false,false,2059,image-keyboard-response,6
true,17,1,2,0,false,q,false,false,0.0-2.0-0.70-0.632-3.632,0,0,0,90,false,stim,true,1,434,1,0,0,53356,task1,1746362,false,false,2062,image-keyboard-response,7
true,17,2,2,0,false,q,true,false,0.0-2.0-0.70-0.633-3.633,0,0,0,68,false,stim,false,1,654,1,0,0,53356,task1,1748552,false,false,2065,image-keyboard-response,8
