answered,blockNum,choice,condition,corResp,correct,correct_response,explo,fb,internal_node_id,isStable_1,isStable_2,isStable_3,key_press,newBlock,part,persev,persevResp,rt,sessNum,stableAS,stimulus,subject,task,time_elapsed,training,trap,trial_index,trial_type,trialsInBlock
false,1,-1,0,0,false,q,false,false,0.0-2.0-0.0-0.0-3.0,0,0,0,,true,stim,true,-1,,0,0,2,53356,task3,272352,false,false,188,image-keyboard-response,1
true,1,0,0,2,false,d,true,false,0.0-2.0-0.0-0.1-3.1,0,0,0,81,false,stim,false,-1,1117,0,0,0,53356,task3,280252,false,false,192,image-keyboard-response,2
true,1,2,0,0,false,q,true,false,0.0-2.0-0.0-0.2-3.2,0,0,0,68,false,stim,false,-1,2311,0,0,1,53356,task3,284079,false,false,195,image-keyboard-response,3
true,1,0,0,0,true,q,false,true,0.0-2.0-0.0-0.3-3.3,0,0,0,81,false,stim,false,-1,1619,0,0,1,53356,task3,287208,false,false,198,image-keyboard-response,4
true,1,1,0,2,false,d,true,false,0.0-2.0-0.0-0.4-3.4,0,0,0,90,false,stim,false,-1,1500,0,0,0,53356,task3,290238,false,false,201,image-keyboard-response,5
true,1,2,0,2,true,d,false,true,0.0-2.0-0.0-0.5-3.5,0,0,0,68,false,stim,false,-1,2159,0,0,0,53356,task3,293924,false,false,204,image-keyboard-response,6
true,1,0,0,0,true,q,false,true,0.0-2.0-0.0-0.6-3.6,0,0,0,81,false,stim,false,-1,1009,0,0,1,53356,task3,296448,false,false,207,image-keyboard-response,7
true,1,1,0,0,false,q,true,false,0.0-2.0-0.0-0.7-3.7,0,0,0,90,false,stim,false,-1,599,0,0,2,53356,task3,298563,false,false,210,image-keyboard-response,8
true,1,2,0,0,false,q,true,false,0.0-2.0-0.0-0.8-3.8,0,0,0,68,false,stim,false,-1,1623,0,0,2,53356,task3,301705,false,false,213,image-keyboard-response,9
true,1,0,0,0,true,q,false,true,0.0-2.0-0.1-0.9-3.9,0,0,0,81,false,stim,false,-1,1337,0,0,2,53356,task3,304565,false,false,216,image-keyboard-response,10
true,1,0,0,0,true,q,false,true,0.0-2.0-0.1-0.10-3.10,0,0,0,81,false,stim,false,-1,1467,0,0,1,53356,task3,307549,false,false,219,image-keyboard-response,11
true,1,1,0,2,false,d,true,false,0.0-2.0-0.1-0.11-3.11,0,0,0,90,false,stim,false,-1,717,0,0,0,53356,task3,309777,false,false,222,image-keyboard-response,12
true,1,0,0,2,false,d,true,false,0.0-2.0-0.1-0.12-3.12,0,0,0,81,false,stim,false,-1,1079,0,0,0,53356,task3,312373,false,false,225,image-keyboard-response,13
true,1,0,0,0,true,q,false,true,0.0-2.0-0.1-0.13-3.13,0,0,0,81,false,stim,false,-1,537,0,0,2,53356,task3,314430,false,false,228,image-keyboard-response,14
true,1,1,0,0,false,q,true,false,0.0-2.0-0.1-0.14-3.14,0,0,0,90,false,stim,false,-1,1012,0,0,2,53356,task3,316950,false,false,231,image-keyboard-response,15
true,1,0,0,0,true,q,false,true,0.0-2.0-0.1-0.15-3.15,0,0,0,81,false,stim,false,-1,353,0,0,1,53356,task3,318826,false,false,234,image-keyboard-response,16
true,1,1,0,2,false,d,true,false,0.0-2.0-0.1-0.16-3.16,0,0,0,90,false,stim,false,-1,1111,0,0,0,53356,task3,321456,false,false,237,image-keyboard-response,17
true,1,0,0,0,true,q,false,true,0.0-2.0-0.1-0.17-3.17,0,0,0,81,false,stim,false,-1,481,0,0,1,53356,task3,323455,false,false,240,image-keyboard-response,18
true,1,1,0,2,false,d,true,false,0.0-2.0-0.2-0.18-3.18,0,0,0,90,false,stim,false,-1,1498,0,0,0,53356,task3,326478,false,false,243,image-keyboard-response,19
true,1,1,0,0,false,q,true,false,0.0-2.0-0.2-0.19-3.19,0,0,0,90,false,stim,false,-1,1385,0,0,1,53356,task3,329383,false,false,246,image-keyboard-response,20
true,1,0,0,0,true,q,false,false,0.0-2.0-0.2-0.20-3.20,0,0,0,81,false,stim,false,-1,467,0,0,1,53356,task3,331366,false,true,249,image-keyboard-response,21
true,1,0,0,0,true,q,false,true,0.0-2.0-0.2-0.21-3.21,0,0,0,81,false,stim,false,-1,1285,0,0,2,53356,task3,334179,false,false,252,image-keyboard-response,22
true,1,1,0,0,false,q,true,false,0.0-2.0-0.2-0.22-3.22,0,0,0,90,false,stim,false,-1,1601,0,0,2,53356,task3,337290,false,false,255,image-keyboard-response,23
true,1,1,0,0,false,q,true,false,0.0-2.0-0.2-0.23-3.23,0,0,0,90,false,stim,false,-1,1427,0,0,2,53356,task3,340231,false,false,258,image-keyboard-response,24
true,1,0,0,2,false,d,true,false,0.0-2.0-0.2-0.24-3.24,0,0,0,81,false,stim,false,-1,1428,0,1,0,53356,task3,343180,false,false,261,image-keyboard-response,25
true,2,0,1,1,false,z,false,false,0.0-2.0-0.2-0.25-3.25,1,0,0,81,true,stim,true,0,933,0,0,1,53356,task3,345636,false,false,264,image-keyboard-response,1
true,2,0,1,2,false,d,true,false,0.0-2.0-0.2-0.26-3.26,1,0,0,81,false,stim,false,2,568,0,1,0,53356,task3,347726,false,false,267,image-keyboard-response,2
true,2,2,1,2,true,d,false,true,0.0-2.0-0.3-0.27-3.27,1,0,0,68,false,stim,false,2,905,0,1,0,53356,task3,350153,false,false,270,image-keyboard-response,3
true,2,1,1,1,true,z,false,true,0.0-2.0-0.3-0.28-3.28,1,0,0,90,false,stim,false,0,839,0,0,1,53356,task3,352508,false,false,273,image-keyboard-response,4
true,2,0,1,1,false,z,false,false,0.0-2.0-0.3-0.29-3.29,1,0,0,81,false,stim,true,0,1098,0,0,1,53356,task3,355136,false,false,276,image-keyboard-response,5
true,2,2,1,1,false,z,true,false,0.0-2.0-0.3-0.30-3.30,1,0,0,68,false,stim,false,0,473,0,0,2,53356,task3,357131,false,false,279,image-keyboard-response,6
true,2,1,1,1,true,z,false,true,0.0-2.0-0.3-0.31-3.31,1,0,0,90,false,stim,false,0,341,0,0,2,53356,task3,358999,false,false,282,image-keyboard-response,7
true,2,2,1,2,true,d,false,true,0.0-2.0-0.3-0.32-3.32,1,0,0,68,false,stim,false,2,366,0,1,0,53356,task3,360879,false,false,285,image-keyboard-response,8
true,2,0,1,2,false,d,true,false,0.0-2.0-0.3-0.33-3.33,1,0,0,81,false,stim,false,2,752,0,1,0,53356,task3,363145,false,false,288,image-keyboard-response,9
true,2,1,1,1,true,z,false,true,0.0-2.0-0.3-0.34-3.34,1,0,0,90,false,stim,false,0,635,0,0,2,53356,task3,365304,false,false,291,image-keyboard-response,10
true,2,2,1,1,false,z,true,false,0.0-2.0-0.3-0.35-3.35,1,0,0,68,false,stim,false,0,653,0,0,1,53356,task3,367483,false,false,294,image-keyboard-response,11
true,2,1,1,1,true,z,false,true,0.0-2.0-0.4-0.36-3.36,1,0,0,90,false,stim,false,0,380,0,0,2,53356,task3,369388,false,false,297,image-keyboard-response,12
true,2,0,1,1,false,z,false,false,0.0-2.0-0.4-0.37-3.37,1,0,0,81,false,stim,true,0,785,0,0,1,53356,task3,371694,false,false,300,image-keyboard-response,13
true,2,0,1,2,false,d,true,false,0.0-2.0-0.4-0.38-3.38,1,0,0,81,false,stim,false,2,1176,0,1,0,53356,task3,374389,false,false,303,image-keyboard-response,14
true,2,2,1,2,true,d,false,true,0.0-2.0-0.4-0.39-3.39,1,0,0,68,false,stim,false,2,836,0,1,0,53356,task3,376737,false,false,306,image-keyboard-response,15
true,2,1,1,1,true,z,false,true,0.0-2.0-0.4-0.40-3.40,1,0,0,90,false,stim,false,0,406,0,0,1,53356,task3,378669,false,false,309,image-keyboard-response,16
true,2,1,1,1,true,z,false,true,0.0-2.0-0.4-0.41-3.41,1,0,0,90,false,stim,false,0,1857,0,0,1,53356,task3,382050,false,false,312,image-keyboard-response,17
true,2,1,1,1,true,z,false,true,0.0-2.0-0.4-0.42-3.42,1,0,0,90,false,stim,false,0,743,0,0,2,53356,task3,384321,false,false,315,image-keyboard-response,18
true,2,1,1,1,true,z,false,true,0.0-2.0-0.4-0.43-3.43,1,0,0,90,false,stim,false,0,1170,0,0,2,53356,task3,387014,false,false,318,image-keyboard-response,19
true,2,2,1,2,true,d,false,true,0.0-2.0-0.4-0.44-3.44,1,0,0,68,false,stim,false,2,1338,0,1,0,53356,task3,389876,false,false,321,image-keyboard-response,20
true,2,2,1,2,true,d,false,true,0.0-2.0-0.5-0.45-3.45,1,0,0,68,false,stim,false,2,1492,0,1,0,53356,task3,392890,false,false,324,image-keyboard-response,21
true,2,2,1,2,true,d,false,true,0.0-2.0-0.5-0.46-3.46,1,0,0,68,false,stim,false,2,1039,0,1,0,53356,task3,395443,false,false,327,image-keyboard-response,22
true,2,1,1,1,true,z,false,true,0.0-2.0-0.5-0.47-3.47,1,0,0,90,false,stim,false,0,945,0,0,1,53356,task3,397908,false,false,330,image-keyboard-response,23
true,2,2,1,2,true,d,false,true,0.0-2.0-0.5-0.48-3.48,1,0,0,68,false,stim,false,2,1123,0,0,0,53356,task3,400548,false,false,333,image-keyboard-response,24
true,2,1,1,1,true,z,false,true,0.0-2.0-0.5-0.49-3.49,1,0,0,90,false,stim,false,0,557,0,0,1,53356,task3,402626,false,false,336,image-keyboard-response,25
true,2,1,1,1,true,z,false,true,0.0-2.0-0.5-0.50-3.50,1,0,0,90,false,stim,false,0,1307,0,1,2,53356,task3,405450,false,false,339,image-keyboard-response,26
true,2,1,1,1,true,z,false,true,0.0-2.0-0.5-0.51-3.51,1,0,0,90,false,stim,false,0,1041,0,1,2,53356,task3,408007,false,false,342,image-keyboard-response,27
true,2,1,1,1,true,z,false,true,0.0-2.0-0.5-0.52-3.52,1,0,0,90,false,stim,false,0,779,0,1,2,53356,task3,410313,false,false,345,image-keyboard-response,28
true,3,1,1,0,false,q,false,false,0.0-2.0-0.5-0.53-3.53,0,0,1,90,true,stim,true,1,1384,0,0,1,53356,task3,413213,false,false,348,image-keyboard-response,1
true,3,2,1,0,false,q,true,false,0.0-2.0-0.6-0.54-3.54,0,0,1,68,false,stim,false,1,1136,0,0,1,53356,task3,415870,false,false,351,image-keyboard-response,2
true,3,0,1,0,true,q,false,true,0.0-2.0-0.6-0.55-3.55,0,0,1,81,false,stim,false,1,698,0,0,1,53356,task3,418096,false,false,354,image-keyboard-response,3
true,3,1,1,1,true,z,false,true,0.0-2.0-0.6-0.56-3.56,0,0,1,90,false,stim,false,1,1321,0,1,2,53356,task3,420939,false,false,357,image-keyboard-response,4
true,3,2,1,1,false,z,false,false,0.0-2.0-0.6-0.57-3.57,0,0,1,68,false,stim,true,2,1019,0,0,0,53356,task3,423466,false,false,360,image-keyboard-response,5
true,3,1,1,1,true,z,false,true,0.0-2.0-0.6-0.58-3.58,0,0,1,90,false,stim,false,1,930,0,1,2,53356,task3,425914,false,false,363,image-keyboard-response,6
true,3,1,1,1,true,z,false,true,0.0-2.0-0.6-0.59-3.59,0,0,1,90,false,stim,false,2,1117,0,0,0,53356,task3,428556,false,false,366,image-keyboard-response,7
true,3,1,1,1,true,z,false,true,0.0-2.0-0.6-0.60-3.60,0,0,1,90,false,stim,false,1,1161,0,1,2,53356,task3,431232,false,false,369,image-keyboard-response,8
true,3,1,1,1,true,z,false,true,0.0-2.0-0.6-0.61-3.61,0,0,1,90,false,stim,false,2,1017,0,0,0,53356,task3,433759,false,false,372,image-keyboard-response,9
true,3,0,1,0,true,q,false,true,0.0-2.0-0.6-0.62-3.62,0,0,1,81,false,stim,false,1,823,0,1,1,53356,task3,436106,false,false,375,image-keyboard-response,10
true,3,1,1,1,true,z,false,true,0.0-2.0-0.7-0.63-3.63,0,0,1,90,false,stim,false,2,669,0,1,0,53356,task3,438288,false,false,378,image-keyboard-response,11
true,3,1,1,1,true,z,false,true,0.0-2.0-0.7-0.64-3.64,0,0,1,90,false,stim,false,1,709,0,0,2,53356,task3,440527,false,false,381,image-keyboard-response,12
true,3,0,1,0,true,q,false,true,0.0-2.0-0.7-0.65-3.65,0,0,1,81,false,stim,false,1,637,0,1,1,53356,task3,442687,false,false,384,image-keyboard-response,13
true,3,1,1,1,true,z,false,true,0.0-2.0-0.7-0.66-3.66,0,0,1,90,false,stim,false,2,650,0,1,0,53356,task3,444859,false,false,387,image-keyboard-response,14
true,4,1,2,1,true,z,false,true,0.0-2.0-0.7-0.67-3.67,1,1,0,90,true,stim,false,1,716,0,1,0,53356,task3,447104,false,false,390,image-keyboard-response,1
true,4,0,2,0,true,q,false,false,0.0-2.0-0.7-0.68-3.68,1,1,0,81,false,stim,false,0,1765,0,1,1,53356,task3,450397,false,true,393,image-keyboard-response,2
true,4,1,2,2,false,d,false,false,0.0-2.0-0.7-0.69-3.69,1,1,0,90,false,stim,true,1,542,0,0,2,53356,task3,452456,false,false,396,image-keyboard-response,3
true,4,0,2,0,true,q,false,true,0.0-2.0-0.7-0.70-3.70,1,1,0,81,false,stim,false,0,347,0,1,1,53356,task3,454325,false,false,399,image-keyboard-response,4
true,4,1,2,2,false,d,false,false,0.0-2.0-0.7-0.71-3.71,1,1,0,90,false,stim,true,1,1978,0,0,2,53356,task3,457836,false,false,402,image-keyboard-response,5
true,4,1,2,1,true,z,false,true,0.0-2.0-0.8-0.72-3.72,1,1,0,90,false,stim,false,1,926,0,1,0,53356,task3,460278,false,false,405,image-keyboard-response,6
true,4,1,2,1,true,z,false,true,0.0-2.0-0.8-0.73-3.73,1,1,0,90,false,stim,false,1,721,0,1,0,53356,task3,462519,false,false,408,image-keyboard-response,7
true,4,1,2,2,false,d,false,false,0.0-2.0-0.8-0.74-3.74,1,1,0,90,false,stim,true,1,2216,0,0,2,53356,task3,466260,false,false,411,image-keyboard-response,8
true,4,0,2,0,true,q,false,true,0.0-2.0-0.8-0.75-3.75,1,1,0,81,false,stim,false,0,838,0,1,1,53356,task3,468614,false,false,414,image-keyboard-response,9
true,4,2,2,2,true,d,false,true,0.0-2.0-0.8-0.76-3.76,1,1,0,68,false,stim,false,1,2139,0,0,2,53356,task3,472261,false,false,417,image-keyboard-response,10
true,4,0,2,0,true,q,false,true,0.0-2.0-0.8-0.77-3.77,1,1,0,81,false,stim,false,0,764,0,1,1,53356,task3,474550,false,false,420,image-keyboard-response,11
true,4,0,2,0,true,q,false,true,0.0-2.0-0.8-0.78-3.78,1,1,0,81,false,stim,false,0,931,0,1,1,53356,task3,476995,false,false,423,image-keyboard-response,12
true,4,2,2,2,true,d,false,true,0.0-2.0-0.8-0.79-3.79,1,1,0,68,false,stim,false,1,504,0,0,2,53356,task3,479036,false,false,426,image-keyboard-response,13
true,4,1,2,1,true,z,false,true,0.0-2.0-0.8-0.80-3.80,1,1,0,90,false,stim,false,1,1172,0,1,0,53356,task3,481733,false,false,429,image-keyboard-response,14
true,4,2,2,0,false,q,true,false,0.0-2.0-0.9-0.81-3.81,1,1,0,68,false,stim,false,0,1126,0,1,1,53356,task3,484380,false,false,432,image-keyboard-response,15
true,4,0,2,1,false,z,true,false,0.0-2.0-0.9-0.82-3.82,1,1,0,81,false,stim,false,1,1370,0,1,0,53356,task3,487269,false,false,435,image-keyboard-response,16
true,4,2,2,2,true,d,false,true,0.0-2.0-0.9-0.83-3.83,1,1,0,68,false,stim,false,1,204,0,0,2,53356,task3,489002,false,false,438,image-keyboard-response,17
true,4,1,2,0,false,q,true,false,0.0-2.0-0.9-0.84-3.84,1,1,0,90,false,stim,false,0,1010,0,1,1,53356,task3,491532,false,false,441,image-keyboard-response,18
true,4,1,2,1,true,z,false,true,0.0-2.0-0.9-0.85-3.85,1,1,0,90,false,stim,false,1,1946,0,1,0,53356,task3,494990,false,false,444,image-keyboard-response,19
true,4,2,2,2,true,d,false,false,0.0-2.0-0.9-0.86-3.86,1,1,0,68,false,stim,false,1,497,0,0,2,53356,task3,497014,false,true,447,image-keyboard-response,20
true,4,1,2,2,false,d,false,false,0.0-2.0-0.9-0.87-3.87,1,1,0,90,false,stim,true,1,1132,0,0,2,53356,task3,499655,false,false,450,image-keyboard-response,21
true,4,0,2,0,true,q,false,true,0.0-2.0-0.9-0.88-3.88,1,1,0,81,false,stim,false,0,1488,0,1,1,53356,task3,502655,false,false,453,image-keyboard-response,22
true,4,1,2,1,true,z,false,true,0.0-2.0-0.9-0.89-3.89,1,1,0,90,false,stim,false,1,1710,0,1,0,53356,task3,505890,false,false,456,image-keyboard-response,23
true,4,0,2,2,false,d,true,false,0.0-2.0-0.10-0.90-3.90,1,1,0,81,false,stim,false,1,457,0,0,2,53356,task3,507876,false,false,459,image-keyboard-response,24
true,4,0,2,0,true,q,false,true,0.0-2.0-0.10-0.91-3.91,1,1,0,81,false,stim,false,0,939,0,1,1,53356,task3,510338,false,false,462,image-keyboard-response,25
true,5,2,2,0,false,q,false,false,0.0-2.0-0.10-0.92-3.92,1,1,0,68,true,stim,true,2,1368,0,0,2,53356,task3,513235,false,false,465,image-keyboard-response,1
true,5,1,2,1,true,z,false,true,0.0-2.0-0.10-0.93-3.93,1,1,0,90,false,stim,false,1,881,0,1,0,53356,task3,515635,false,false,468,image-keyboard-response,2
true,5,0,2,0,true,q,false,true,0.0-2.0-0.10-0.94-3.94,1,1,0,81,false,stim,false,0,660,0,1,1,53356,task3,517822,false,false,471,image-keyboard-response,3
true,5,1,2,0,false,q,true,false,0.0-2.0-0.10-0.95-3.95,1,1,0,90,false,stim,false,2,484,0,0,2,53356,task3,519832,false,false,474,image-keyboard-response,4
true,5,1,2,0,false,q,true,false,0.0-2.0-0.10-0.96-3.96,1,1,0,90,false,stim,false,0,1222,0,1,1,53356,task3,522569,false,false,477,image-keyboard-response,5
true,5,0,2,1,false,z,true,false,0.0-2.0-0.10-0.97-3.97,1,1,0,81,false,stim,false,1,1010,0,1,0,53356,task3,525108,false,false,480,image-keyboard-response,6
true,5,1,2,1,true,z,false,true,0.0-2.0-0.10-0.98-3.98,1,1,0,90,false,stim,false,1,640,0,1,0,53356,task3,527278,false,false,483,image-keyboard-response,7
true,5,0,2,0,true,q,false,true,0.0-2.0-0.11-0.99-3.99,1,1,0,81,false,stim,false,2,589,0,1,2,53356,task3,529392,false,false,486,image-keyboard-response,8
true,5,1,2,1,true,z,false,true,0.0-2.0-0.11-0.100-3.100,1,1,0,90,false,stim,false,1,923,0,1,0,53356,task3,531847,false,false,489,image-keyboard-response,9
true,5,2,2,0,false,q,true,false,0.0-2.0-0.11-0.101-3.101,1,1,0,68,false,stim,false,0,1196,0,0,1,53356,task3,534554,false,false,492,image-keyboard-response,10
true,5,1,2,1,true,z,false,false,0.0-2.0-0.11-0.102-3.102,1,1,0,90,false,stim,false,1,1027,0,1,0,53356,task3,537095,false,true,495,image-keyboard-response,11
true,6,1,2,2,false,d,true,false,0.0-2.0-0.11-0.103-3.103,1,0,1,90,true,stim,false,0,1348,0,0,1,53356,task3,539960,false,false,498,image-keyboard-response,1
true,6,0,2,2,false,d,false,false,0.0-2.0-0.11-0.104-3.104,1,0,1,81,false,stim,true,0,818,0,0,1,53356,task3,542310,false,false,501,image-keyboard-response,2
true,6,1,2,0,false,q,true,false,0.0-2.0-0.11-0.105-3.105,1,0,1,90,false,stim,false,0,1229,0,1,2,53356,task3,545052,false,false,504,image-keyboard-response,3
true,6,0,2,0,true,q,false,true,0.0-2.0-0.11-0.106-3.106,1,0,1,81,false,stim,false,0,749,0,1,2,53356,task3,547323,false,false,507,image-keyboard-response,4
true,6,1,2,1,true,z,false,true,0.0-2.0-0.11-0.107-3.107,1,0,1,90,false,stim,false,1,1484,0,1,0,53356,task3,550331,false,false,510,image-keyboard-response,5
true,6,2,2,2,true,d,false,true,0.0-2.0-0.12-0.108-3.108,1,0,1,68,false,stim,false,0,566,0,0,1,53356,task3,552415,false,false,513,image-keyboard-response,6
true,6,1,2,1,true,z,false,false,0.0-2.0-0.12-0.109-3.109,1,0,1,90,false,stim,false,1,932,0,1,0,53356,task3,554860,false,true,516,image-keyboard-response,7
true,6,0,2,1,false,z,true,false,0.0-2.0-0.12-0.110-3.110,1,0,1,81,false,stim,false,1,694,0,1,0,53356,task3,557062,false,false,519,image-keyboard-response,8
true,6,2,2,2,true,d,false,true,0.0-2.0-0.12-0.111-3.111,1,0,1,68,false,stim,false,0,491,0,0,1,53356,task3,559071,false,false,522,image-keyboard-response,9
true,6,0,2,0,true,q,false,true,0.0-2.0-0.12-0.112-3.112,1,0,1,81,false,stim,false,0,584,0,1,2,53356,task3,561168,false,false,525,image-keyboard-response,10
true,6,2,2,2,true,d,false,false,0.0-2.0-0.12-0.113-3.113,1,0,1,68,false,stim,false,0,719,0,1,1,53356,task3,563402,false,true,528,image-keyboard-response,11
true,6,1,2,0,false,q,true,false,0.0-2.0-0.12-0.114-3.114,1,0,1,90,false,stim,false,0,682,0,0,2,53356,task3,565601,false,false,531,image-keyboard-response,12
true,6,1,2,1,true,z,false,true,0.0-2.0-0.12-0.115-3.115,1,0,1,90,false,stim,false,1,1038,0,0,0,53356,task3,568162,false,false,534,image-keyboard-response,13
true,6,0,2,0,true,q,false,true,0.0-2.0-0.12-0.116-3.116,1,0,1,81,false,stim,false,0,653,0,0,2,53356,task3,570343,false,false,537,image-keyboard-response,14
true,6,2,2,2,true,d,false,true,0.0-2.0-0.13-0.117-3.117,1,0,1,68,false,stim,false,0,2415,0,1,1,53356,task3,574289,false,false,540,image-keyboard-response,15
true,7,0,1,0,true,q,false,true,0.0-2.0-0.13-0.118-3.118,0,1,0,81,true,stim,false,1,697,0,0,0,53356,task3,576506,false,false,543,image-keyboard-response,1
true,7,0,1,0,true,q,false,true,0.0-2.0-0.13-0.119-3.119,0,1,0,81,false,stim,false,1,920,0,0,0,53356,task3,578948,false,false,546,image-keyboard-response,2
true,7,0,1,0,true,q,false,true,0.0-2.0-0.13-0.120-3.120,0,1,0,81,false,stim,false,1,550,0,0,0,53356,task3,581025,false,false,549,image-keyboard-response,3
true,7,1,1,2,false,d,true,false,0.0-2.0-0.13-0.121-3.121,0,1,0,90,false,stim,false,0,823,0,0,2,53356,task3,583378,false,false,552,image-keyboard-response,4
true,7,2,1,2,true,d,false,true,0.0-2.0-0.13-0.122-3.122,0,1,0,68,false,stim,false,2,1310,0,1,1,53356,task3,586205,false,false,555,image-keyboard-response,5
true,7,2,1,2,true,d,false,true,0.0-2.0-0.13-0.123-3.123,0,1,0,68,false,stim,false,0,832,0,1,2,53356,task3,588560,false,false,558,image-keyboard-response,6
true,7,2,1,2,true,d,false,true,0.0-2.0-0.13-0.124-3.124,0,1,0,68,false,stim,false,0,750,0,1,2,53356,task3,590819,false,false,561,image-keyboard-response,7
true,7,2,1,2,true,d,false,true,0.0-2.0-0.13-0.125-3.125,0,1,0,68,false,stim,false,2,870,0,0,1,53356,task3,593219,false,false,564,image-keyboard-response,8
true,7,2,1,2,true,d,false,true,0.0-2.0-0.14-0.126-3.126,0,1,0,68,false,stim,false,0,639,0,1,2,53356,task3,595387,false,false,567,image-keyboard-response,9
true,7,2,1,2,true,d,false,true,0.0-2.0-0.14-0.127-3.127,0,1,0,68,false,stim,false,0,738,0,1,2,53356,task3,597647,false,false,570,image-keyboard-response,10
true,8,0,2,0,true,q,false,true,0.0-2.0-0.14-0.128-3.128,1,0,1,81,true,stim,false,0,918,0,1,0,53356,task3,600083,false,false,573,image-keyboard-response,1
true,8,2,2,0,false,q,false,true,0.0-2.0-0.14-0.129-3.129,1,0,1,68,false,stim,true,2,661,0,0,1,53356,task3,602260,false,true,576,image-keyboard-response,2
true,8,2,2,0,false,q,false,false,0.0-2.0-0.14-0.130-3.130,1,0,1,68,false,stim,true,2,952,0,0,1,53356,task3,604737,false,false,579,image-keyboard-response,3
true,8,2,2,2,true,d,false,true,0.0-2.0-0.14-0.131-3.131,1,0,1,68,false,stim,false,2,1930,0,1,2,53356,task3,608195,false,false,582,image-keyboard-response,4
true,8,1,2,0,false,q,true,false,0.0-2.0-0.14-0.132-3.132,1,0,1,90,false,stim,false,2,1397,0,0,1,53356,task3,611122,false,false,585,image-keyboard-response,5
true,8,0,2,0,true,q,false,true,0.0-2.0-0.14-0.133-3.133,1,0,1,81,false,stim,false,0,391,0,1,0,53356,task3,613034,false,false,588,image-keyboard-response,6
true,8,0,2,0,true,q,false,true,0.0-2.0-0.14-0.134-3.134,1,0,1,81,false,stim,false,0,585,0,1,0,53356,task3,615134,false,false,591,image-keyboard-response,7
true,8,2,2,2,true,d,false,false,0.0-2.0-0.15-0.135-3.135,1,0,1,68,false,stim,false,2,964,0,1,2,53356,task3,617618,false,true,594,image-keyboard-response,8
true,8,0,2,0,true,q,false,true,0.0-2.0-0.15-0.136-3.136,1,0,1,81,false,stim,false,2,464,0,0,1,53356,task3,619609,false,false,597,image-keyboard-response,9
true,8,0,2,0,true,q,false,true,0.0-2.0-0.15-0.137-3.137,1,0,1,81,false,stim,false,0,1054,0,1,0,53356,task3,622193,false,false,600,image-keyboard-response,10
true,8,0,2,2,false,d,true,false,0.0-2.0-0.15-0.138-3.138,1,0,1,81,false,stim,false,2,563,0,1,2,53356,task3,624288,false,false,603,image-keyboard-response,11
true,8,0,2,0,true,q,false,true,0.0-2.0-0.15-0.139-3.139,1,0,1,81,false,stim,false,2,437,0,0,1,53356,task3,626254,false,false,606,image-keyboard-response,12
true,8,1,2,2,false,d,true,false,0.0-2.0-0.15-0.140-3.140,1,0,1,90,false,stim,false,2,669,0,1,2,53356,task3,628444,false,false,609,image-keyboard-response,13
true,8,0,2,0,true,q,false,true,0.0-2.0-0.15-0.141-3.141,1,0,1,81,false,stim,false,2,916,0,0,1,53356,task3,630885,false,false,612,image-keyboard-response,14
true,8,2,2,0,false,q,true,false,0.0-2.0-0.15-0.142-3.142,1,0,1,68,false,stim,false,0,70,0,1,0,53356,task3,632490,false,false,615,image-keyboard-response,15
true,8,0,2,0,true,q,false,true,0.0-2.0-0.15-0.143-3.143,1,0,1,81,false,stim,false,0,495,0,1,0,53356,task3,634512,false,false,618,image-keyboard-response,16
true,8,0,2,0,true,q,false,true,0.0-2.0-0.16-0.144-3.144,1,0,1,81,false,stim,false,0,390,0,1,0,53356,task3,636428,false,false,621,image-keyboard-response,17
true,8,2,2,2,true,d,false,true,0.0-2.0-0.16-0.145-3.145,1,0,1,68,false,stim,false,2,555,0,1,2,53356,task3,638505,false,false,624,image-keyboard-response,18
true,8,2,2,2,true,d,false,true,0.0-2.0-0.16-0.146-3.146,1,0,1,68,false,stim,false,2,497,0,1,2,53356,task3,640514,false,false,627,image-keyboard-response,19
true,8,0,2,0,true,q,false,true,0.0-2.0-0.16-0.147-3.147,1,0,1,81,false,stim,false,0,567,0,1,0,53356,task3,642589,false,false,630,image-keyboard-response,20
true,8,0,2,0,true,q,false,true,0.0-2.0-0.16-0.148-3.148,1,0,1,81,false,stim,false,0,504,0,1,0,53356,task3,644618,false,false,633,image-keyboard-response,21
true,8,2,2,2,true,d,false,true,0.0-2.0-0.16-0.149-3.149,1,0,1,68,false,stim,false,2,1301,0,1,2,53356,task3,647430,false,false,636,image-keyboard-response,22
true,8,0,2,0,true,q,false,true,0.0-2.0-0.16-0.150-3.150,1,0,1,81,false,stim,false,2,585,0,0,1,53356,task3,649541,false,false,639,image-keyboard-response,23
true,8,0,2,0,true,q,false,true,0.0-2.0-0.16-0.151-3.151,1,0,1,81,false,stim,false,2,790,0,0,1,53356,task3,651840,false,false,642,image-keyboard-response,24
true,8,0,2,0,true,q,false,true,0.0-2.0-0.16-0.152-3.152,1,0,1,81,false,stim,false,2,570,0,0,1,53356,task3,653923,false,false,645,image-keyboard-response,25
true,8,2,2,2,true,d,false,true,0.0-2.0-0.17-0.153-3.153,1,0,1,68,false,stim,false,2,1379,0,1,2,53356,task3,656821,false,false,648,image-keyboard-response,26
true,8,0,2,0,true,q,false,false,0.0-2.0-0.17-0.154-3.154,1,0,1,81,false,stim,false,0,494,0,1,0,53356,task3,658832,false,true,651,image-keyboard-response,27
true,9,0,2,1,false,z,false,false,0.0-2.0-0.17-0.155-3.155,1,0,1,81,true,stim,true,0,2491,0,0,1,53356,task3,662842,false,false,654,image-keyboard-response,1
true,9,1,2,0,false,q,true,true,0.0-2.0-0.17-0.156-3.156,1,0,1,90,false,stim,false,0,1093,0,1,0,53356,task3,665463,false,true,657,image-keyboard-response,2
true,9,2,2,0,false,q,true,false,0.0-2.0-0.17-0.157-3.157,1,0,1,68,false,stim,false,0,715,0,1,0,53356,task3,667693,false,false,660,image-keyboard-response,3
true,9,1,2,1,true,z,false,true,0.0-2.0-0.17-0.158-3.158,1,0,1,90,false,stim,false,0,454,0,0,1,53356,task3,669667,false,false,663,image-keyboard-response,4
true,9,2,2,2,true,d,false,true,0.0-2.0-0.17-0.159-3.159,1,0,1,68,false,stim,false,2,1536,0,1,2,53356,task3,672728,false,false,666,image-keyboard-response,5
true,9,2,2,2,true,d,false,true,0.0-2.0-0.17-0.160-3.160,1,0,1,68,false,stim,false,2,477,0,1,2,53356,task3,674736,false,false,669,image-keyboard-response,6
true,9,1,2,1,true,z,false,true,0.0-2.0-0.17-0.161-3.161,1,0,1,90,false,stim,false,0,359,0,1,1,53356,task3,676612,false,false,672,image-keyboard-response,7
true,9,2,2,2,true,d,false,true,0.0-2.0-0.18-0.162-3.162,1,0,1,68,false,stim,false,2,584,0,1,2,53356,task3,678718,false,false,675,image-keyboard-response,8
true,9,1,2,0,false,q,true,false,0.0-2.0-0.18-0.163-3.163,1,0,1,90,false,stim,false,0,701,0,0,0,53356,task3,680936,false,false,678,image-keyboard-response,9
true,9,0,2,0,true,q,false,true,0.0-2.0-0.18-0.164-3.164,1,0,1,81,false,stim,false,0,1090,0,0,0,53356,task3,683552,false,false,681,image-keyboard-response,10
true,9,1,2,1,true,z,false,false,0.0-2.0-0.18-0.165-3.165,1,0,1,90,false,stim,false,0,442,0,1,1,53356,task3,685506,false,true,684,image-keyboard-response,11
true,10,2,2,2,true,d,false,true,0.0-2.0-0.18-0.166-3.166,0,1,1,68,true,stim,false,2,739,0,1,2,53356,task3,687772,false,false,687,image-keyboard-response,1
true,10,0,2,1,false,z,true,false,0.0-2.0-0.18-0.167-3.167,0,1,1,81,false,stim,false,1,773,0,1,1,53356,task3,690075,false,false,690,image-keyboard-response,2
true,10,0,2,1,false,z,false,false,0.0-2.0-0.18-0.168-3.168,0,1,1,81,false,stim,true,0,924,0,0,0,53356,task3,692529,false,false,693,image-keyboard-response,3
true,10,2,2,1,false,z,true,false,0.0-2.0-0.18-0.169-3.169,0,1,1,68,false,stim,false,1,1094,0,1,1,53356,task3,695153,false,false,696,image-keyboard-response,4
true,10,2,2,2,true,d,false,true,0.0-2.0-0.18-0.170-3.170,0,1,1,68,false,stim,false,2,472,0,1,2,53356,task3,697136,false,false,699,image-keyboard-response,5
true,10,1,2,1,true,z,false,true,0.0-2.0-0.19-0.171-3.171,0,1,1,90,false,stim,false,1,577,0,1,1,53356,task3,699247,false,false,702,image-keyboard-response,6
true,10,2,2,2,true,d,false,true,0.0-2.0-0.19-0.172-3.172,0,1,1,68,false,stim,false,2,608,0,1,2,53356,task3,701377,false,false,705,image-keyboard-response,7
true,10,1,2,2,false,d,true,false,0.0-2.0-0.19-0.173-3.173,0,1,1,90,false,stim,false,2,459,0,1,2,53356,task3,703363,false,false,708,image-keyboard-response,8
true,10,2,2,1,false,z,true,false,0.0-2.0-0.19-0.174-3.174,0,1,1,68,false,stim,false,0,710,0,0,0,53356,task3,705584,false,false,711,image-keyboard-response,9
true,10,0,2,1,false,z,false,false,0.0-2.0-0.19-0.175-3.175,0,1,1,81,false,stim,true,0,1116,0,0,0,53356,task3,708226,false,false,714,image-keyboard-response,10
true,10,1,2,1,true,z,false,true,0.0-2.0-0.19-0.176-3.176,0,1,1,90,false,stim,false,1,1286,0,1,1,53356,task3,711029,false,false,717,image-keyboard-response,11
true,10,1,2,1,true,z,false,true,0.0-2.0-0.19-0.177-3.177,0,1,1,90,false,stim,false,1,670,0,1,1,53356,task3,713212,false,false,720,image-keyboard-response,12
true,10,2,2,2,true,d,false,true,0.0-2.0-0.19-0.178-3.178,0,1,1,68,false,stim,false,2,498,0,1,2,53356,task3,715231,false,false,723,image-keyboard-response,13
true,10,2,2,1,false,z,true,false,0.0-2.0-0.19-0.179-3.179,0,1,1,68,false,stim,false,0,405,0,0,0,53356,task3,717157,false,false,726,image-keyboard-response,14
true,10,2,2,2,true,d,false,true,0.0-2.0-0.20-0.180-3.180,0,1,1,68,false,stim,false,2,437,0,1,2,53356,task3,719125,false,false,729,image-keyboard-response,15
true,10,2,2,2,true,d,false,true,0.0-2.0-0.20-0.181-3.181,0,1,1,68,false,stim,false,2,931,0,1,2,53356,task3,721584,false,false,732,image-keyboard-response,16
true,10,1,2,1,true,z,false,true,0.0-2.0-0.20-0.182-3.182,0,1,1,90,false,stim,false,1,427,0,1,1,53356,task3,723541,false,false,735,image-keyboard-response,17
true,10,0,2,1,false,z,false,true,0.0-2.0-0.20-0.183-3.183,0,1,1,81,false,stim,true,0,440,0,0,0,53356,task3,725508,false,true,738,image-keyboard-response,18
true,10,0,2,1,false,z,false,false,0.0-2.0-0.20-0.184-3.184,0,1,1,81,false,stim,true,0,443,0,0,0,53356,task3,727473,false,false,741,image-keyboard-response,19
true,10,2,2,2,true,d,false,true,0.0-2.0-0.20-0.185-3.185,0,1,1,68,false,stim,false,2,2287,0,1,2,53356,task3,731286,false,false,744,image-keyboard-response,20
true,10,1,2,1,true,z,false,false,0.0-2.0-0.20-0.186-3.186,0,1,1,90,false,stim,false,1,790,0,0,1,53356,task3,733595,false,true,747,image-keyboard-response,21
true,10,0,2,1,false,z,false,true,0.0-2.0-0.20-0.187-3.187,0,1,1,81,false,stim,true,0,2214,0,0,0,53356,task3,737333,false,true,750,image-keyboard-response,22
true,11,1,1,0,false,q,false,false,0.0-2.0-0.20-0.188-3.188,0,0,1,90,true,stim,true,1,1207,0,0,1,53356,task3,740073,false,false,753,image-keyboard-response,1
true,11,2,1,2,true,d,false,true,0.0-2.0-0.21-0.189-3.189,0,0,1,68,false,stim,false,2,446,0,1,2,53356,task3,742035,false,false,756,image-keyboard-response,2
true,11,2,1,2,true,d,false,true,0.0-2.0-0.21-0.190-3.190,0,0,1,68,false,stim,false,2,647,0,1,2,53356,task3,744205,false,false,759,image-keyboard-response,3
true,11,0,1,2,false,d,true,false,0.0-2.0-0.21-0.191-3.191,0,0,1,81,false,stim,false,1,444,0,0,0,53356,task3,746167,false,false,762,image-keyboard-response,4
true,11,1,1,2,false,d,false,false,0.0-2.0-0.21-0.192-3.192,0,0,1,90,false,stim,true,1,889,0,0,0,53356,task3,748582,false,false,765,image-keyboard-response,5
true,11,0,1,0,true,q,false,false,0.0-2.0-0.21-0.193-3.193,0,0,1,81,false,stim,false,1,952,0,0,1,53356,task3,751046,false,true,768,image-keyboard-response,6
true,11,2,1,2,true,d,false,true,0.0-2.0-0.21-0.194-3.194,0,0,1,68,false,stim,false,2,456,0,1,2,53356,task3,753024,false,false,771,image-keyboard-response,7
true,11,2,1,0,false,q,true,false,0.0-2.0-0.21-0.195-3.195,0,0,1,68,false,stim,false,1,1680,0,0,1,53356,task3,756228,false,false,774,image-keyboard-response,8
true,11,1,1,0,false,q,false,false,0.0-2.0-0.21-0.196-3.196,0,0,1,90,false,stim,true,1,747,0,0,1,53356,task3,758489,false,false,777,image-keyboard-response,9
true,11,2,1,2,true,d,false,false,0.0-2.0-0.21-0.197-3.197,0,0,1,68,false,stim,false,1,733,0,0,0,53356,task3,760751,false,true,780,image-keyboard-response,10
true,11,0,1,2,false,d,true,true,0.0-2.0-0.22-0.198-3.198,0,0,1,81,false,stim,false,1,735,0,0,0,53356,task3,763010,false,true,783,image-keyboard-response,11
true,11,2,1,2,true,d,false,true,0.0-2.0-0.22-0.199-3.199,0,0,1,68,false,stim,false,2,411,0,1,2,53356,task3,764948,false,false,786,image-keyboard-response,12
true,11,1,1,0,false,q,false,false,0.0-2.0-0.22-0.200-3.200,0,0,1,90,false,stim,true,1,894,0,0,1,53356,task3,767373,false,false,789,image-keyboard-response,13
true,11,0,1,0,true,q,false,true,0.0-2.0-0.22-0.201-3.201,0,0,1,81,false,stim,false,1,663,0,0,1,53356,task3,769569,false,false,792,image-keyboard-response,14
true,11,2,1,2,true,d,false,true,0.0-2.0-0.22-0.202-3.202,0,0,1,68,false,stim,false,2,477,0,1,2,53356,task3,771569,false,false,795,image-keyboard-response,15
true,11,0,1,2,false,d,true,false,0.0-2.0-0.22-0.203-3.203,0,0,1,81,false,stim,false,1,292,0,0,0,53356,task3,773383,false,false,798,image-keyboard-response,16
true,11,1,1,2,false,d,false,false,0.0-2.0-0.22-0.204-3.204,0,0,1,90,false,stim,true,1,913,0,0,0,53356,task3,775835,false,false,801,image-keyboard-response,17
true,11,2,1,0,false,q,true,true,0.0-2.0-0.22-0.205-3.205,0,0,1,68,false,stim,false,1,683,0,0,1,53356,task3,778031,false,true,804,image-keyboard-response,18
true,11,2,1,2,true,d,false,true,0.0-2.0-0.22-0.206-3.206,0,0,1,68,false,stim,false,2,407,0,1,2,53356,task3,779960,false,false,807,image-keyboard-response,19
true,11,2,1,2,true,d,false,true,0.0-2.0-0.23-0.207-3.207,0,0,1,68,false,stim,false,2,586,0,1,2,53356,task3,782064,false,false,810,image-keyboard-response,20
true,11,2,1,2,true,d,false,true,0.0-2.0-0.23-0.208-3.208,0,0,1,68,false,stim,false,2,2437,0,1,2,53356,task3,786021,false,false,813,image-keyboard-response,21
true,11,2,1,0,false,q,true,false,0.0-2.0-0.23-0.209-3.209,0,0,1,68,false,stim,false,1,467,0,0,1,53356,task3,788010,false,false,816,image-keyboard-response,22
true,11,2,1,2,true,d,false,true,0.0-2.0-0.23-0.210-3.210,0,0,1,68,false,stim,false,2,486,0,1,2,53356,task3,790016,false,false,819,image-keyboard-response,23
true,11,2,1,0,false,q,true,false,0.0-2.0-0.23-0.211-3.211,0,0,1,68,false,stim,false,1,818,0,0,1,53356,task3,792367,false,false,822,image-keyboard-response,24
true,12,2,2,2,true,d,false,true,0.0-2.0-0.23-0.212-3.212,1,0,1,68,true,stim,false,2,313,0,1,0,53356,task3,794212,false,false,825,image-keyboard-response,1
true,12,2,2,2,true,d,false,true,0.0-2.0-0.23-0.213-3.213,1,0,1,68,false,stim,false,2,913,0,1,0,53356,task3,796651,false,false,828,image-keyboard-response,2
true,12,0,2,1,false,z,false,true,0.0-2.0-0.23-0.214-3.214,1,0,1,81,false,stim,true,0,598,0,0,1,53356,task3,798771,false,true,831,image-keyboard-response,3
true,12,2,2,2,true,d,false,true,0.0-2.0-0.23-0.215-3.215,1,0,1,68,false,stim,false,2,1177,0,1,0,53356,task3,801476,false,false,834,image-keyboard-response,4
true,12,2,2,2,true,d,false,true,0.0-2.0-0.24-0.216-3.216,1,0,1,68,false,stim,false,2,709,0,1,2,53356,task3,803721,false,false,837,image-keyboard-response,5
true,12,0,2,1,false,z,false,false,0.0-2.0-0.24-0.217-3.217,1,0,1,81,false,stim,true,0,687,0,1,1,53356,task3,805936,false,false,840,image-keyboard-response,6
true,12,2,2,2,true,d,false,false,0.0-2.0-0.24-0.218-3.218,1,0,1,68,false,stim,false,2,476,0,0,2,53356,task3,807941,false,true,843,image-keyboard-response,7
true,12,2,2,2,true,d,false,true,0.0-2.0-0.24-0.219-3.219,1,0,1,68,false,stim,false,2,997,0,1,0,53356,task3,810450,false,false,846,image-keyboard-response,8
true,12,1,2,1,true,z,false,true,0.0-2.0-0.24-0.220-3.220,1,0,1,90,false,stim,false,0,638,0,1,1,53356,task3,812613,false,false,849,image-keyboard-response,9
true,12,0,2,2,false,d,true,false,0.0-2.0-0.24-0.221-3.221,1,0,1,81,false,stim,false,2,496,0,0,2,53356,task3,814639,false,false,852,image-keyboard-response,10
true,13,2,2,2,true,d,false,true,0.0-2.0-0.24-0.222-3.222,1,1,0,68,true,stim,false,2,1631,0,1,0,53356,task3,817785,false,false,855,image-keyboard-response,1
true,13,2,2,2,true,d,false,true,0.0-2.0-0.24-0.223-3.223,1,1,0,68,false,stim,false,2,668,0,1,0,53356,task3,819972,false,false,858,image-keyboard-response,2
true,13,1,2,1,true,z,false,true,0.0-2.0-0.24-0.224-3.224,1,1,0,90,false,stim,false,1,489,0,1,1,53356,task3,821986,false,false,861,image-keyboard-response,3
true,13,1,2,0,false,q,true,false,0.0-2.0-0.25-0.225-3.225,1,1,0,90,false,stim,false,2,813,0,0,2,53356,task3,824332,false,false,864,image-keyboard-response,4
true,13,2,2,0,false,q,false,false,0.0-2.0-0.25-0.226-3.226,1,1,0,68,false,stim,true,2,675,0,0,2,53356,task3,826530,false,false,867,image-keyboard-response,5
true,13,1,2,2,false,d,true,false,0.0-2.0-0.25-0.227-3.227,1,1,0,90,false,stim,false,2,466,0,1,0,53356,task3,828515,false,false,870,image-keyboard-response,6
true,13,0,2,0,true,q,false,true,0.0-2.0-0.25-0.228-3.228,1,1,0,81,false,stim,false,2,2128,0,0,2,53356,task3,832159,false,false,873,image-keyboard-response,7
true,13,2,2,2,true,d,false,true,0.0-2.0-0.25-0.229-3.229,1,1,0,68,false,stim,false,2,572,0,1,0,53356,task3,834246,false,false,876,image-keyboard-response,8
true,13,1,2,1,true,z,false,true,0.0-2.0-0.25-0.230-3.230,1,1,0,90,false,stim,false,1,1520,0,1,1,53356,task3,837295,false,false,879,image-keyboard-response,9
true,13,1,2,1,true,z,false,true,0.0-2.0-0.25-0.231-3.231,1,1,0,90,false,stim,false,1,920,0,1,1,53356,task3,839739,false,false,882,image-keyboard-response,10
true,13,2,2,2,true,d,false,true,0.0-2.0-0.25-0.232-3.232,1,1,0,68,false,stim,false,2,896,0,1,0,53356,task3,842148,false,false,885,image-keyboard-response,11
true,13,1,2,1,true,z,false,true,0.0-2.0-0.25-0.233-3.233,1,1,0,90,false,stim,false,1,727,0,1,1,53356,task3,844391,false,false,888,image-keyboard-response,12
true,13,1,2,1,true,z,false,false,0.0-2.0-0.26-0.234-3.234,1,1,0,90,false,stim,false,1,568,0,1,1,53356,task3,846468,false,true,891,image-keyboard-response,13
true,13,1,2,1,true,z,false,false,0.0-2.0-0.26-0.235-3.235,1,1,0,90,false,stim,false,1,690,0,1,1,53356,task3,848674,false,true,894,image-keyboard-response,14
true,13,2,2,2,true,d,false,true,0.0-2.0-0.26-0.236-3.236,1,1,0,68,false,stim,false,2,3,0,1,0,53356,task3,850208,false,false,897,image-keyboard-response,15
true,13,0,2,0,true,q,false,true,0.0-2.0-0.26-0.237-3.237,1,1,0,81,false,stim,false,2,1310,0,0,2,53356,task3,853055,false,false,900,image-keyboard-response,16
true,13,0,2,0,true,q,false,true,0.0-2.0-0.26-0.238-3.238,1,1,0,81,false,stim,false,2,1251,0,0,2,53356,task3,855854,false,false,903,image-keyboard-response,17
true,13,0,2,1,false,z,true,false,0.0-2.0-0.26-0.239-3.239,1,1,0,81,false,stim,false,1,1010,0,1,1,53356,task3,858380,false,false,906,image-keyboard-response,18
true,13,0,2,2,false,d,true,false,0.0-2.0-0.26-0.240-3.240,1,1,0,81,false,stim,false,2,1493,0,1,0,53356,task3,861397,false,false,909,image-keyboard-response,19
true,13,2,2,2,true,d,false,true,0.0-2.0-0.26-0.241-3.241,1,1,0,68,false,stim,false,2,724,0,1,0,53356,task3,863637,false,false,912,image-keyboard-response,20
true,13,0,2,0,true,q,false,true,0.0-2.0-0.26-0.242-3.242,1,1,0,81,false,stim,false,2,589,0,0,2,53356,task3,865754,false,false,915,image-keyboard-response,21
true,13,0,2,0,true,q,false,true,0.0-2.0-0.27-0.243-3.243,1,1,0,81,false,stim,false,2,992,0,0,2,53356,task3,868266,false,false,918,image-keyboard-response,22
true,13,0,2,0,true,q,false,true,0.0-2.0-0.27-0.244-3.244,1,1,0,81,false,stim,false,2,722,0,0,2,53356,task3,870518,false,false,921,image-keyboard-response,23
true,13,2,2,2,true,d,false,true,0.0-2.0-0.27-0.245-3.245,1,1,0,68,false,stim,false,2,482,0,1,0,53356,task3,872519,false,false,924,image-keyboard-response,24
true,13,2,2,1,false,z,true,false,0.0-2.0-0.27-0.246-3.246,1,1,0,68,false,stim,false,1,487,0,0,1,53356,task3,874533,false,false,927,image-keyboard-response,25
true,13,0,2,2,false,d,true,false,0.0-2.0-0.27-0.247-3.247,1,1,0,81,false,stim,false,2,1070,0,1,0,53356,task3,877132,false,false,930,image-keyboard-response,26
true,13,2,2,2,true,d,false,true,0.0-2.0-0.27-0.248-3.248,1,1,0,68,false,stim,false,2,585,0,1,0,53356,task3,879250,false,false,933,image-keyboard-response,27
true,13,1,2,1,true,z,false,true,0.0-2.0-0.27-0.249-3.249,1,1,0,90,false,stim,false,1,1822,0,0,1,53356,task3,882590,false,false,936,image-keyboard-response,28
true,13,0,2,0,true,q,false,true,0.0-2.0-0.27-0.250-3.250,1,1,0,81,false,stim,false,2,1417,0,0,2,53356,task3,885529,false,false,939,image-keyboard-response,29
true,14,1,1,2,false,d,false,false,0.0-2.0-0.27-0.251-3.251,1,0,0,90,true,stim,true,1,1517,0,0,1,53356,task3,888576,false,false,942,image-keyboard-response,1
true,14,0,1,2,false,d,true,false,0.0-2.0-0.28-0.252-3.252,1,0,0,81,false,stim,false,1,817,0,0,1,53356,task3,890912,false,false,945,image-keyboard-response,2
true,14,0,1,2,false,d,true,false,0.0-2.0-0.28-0.253-3.253,1,0,0,81,false,stim,false,2,1349,0,1,0,53356,task3,893778,false,false,948,image-keyboard-response,3
true,14,1,1,2,false,d,true,false,0.0-2.0-0.28-0.254-3.254,1,0,0,90,false,stim,false,2,313,0,1,0,53356,task3,895617,false,false,951,image-keyboard-response,4
true,14,2,1,2,true,d,false,true,0.0-2.0-0.28-0.255-3.255,1,0,0,68,false,stim,false,2,644,0,1,0,53356,task3,897794,false,false,954,image-keyboard-response,5
true,14,0,1,1,false,z,false,false,0.0-2.0-0.28-0.256-3.256,1,0,0,81,false,stim,true,0,865,0,0,2,53356,task3,900185,false,false,957,image-keyboard-response,6
true,14,0,1,2,false,d,true,false,0.0-2.0-0.28-0.257-3.257,1,0,0,81,false,stim,false,1,939,0,0,1,53356,task3,902644,false,false,960,image-keyboard-response,7
true,14,2,1,2,true,d,false,true,0.0-2.0-0.28-0.258-3.258,1,0,0,68,false,stim,false,1,441,0,0,1,53356,task3,904611,false,false,963,image-keyboard-response,8
true,14,1,1,1,true,z,false,true,0.0-2.0-0.28-0.259-3.259,1,0,0,90,false,stim,false,0,1232,0,0,2,53356,task3,907366,false,false,966,image-keyboard-response,9
true,14,1,1,1,true,z,false,true,0.0-2.0-0.28-0.260-3.260,1,0,0,90,false,stim,false,0,689,0,0,2,53356,task3,909579,false,false,969,image-keyboard-response,10
true,14,2,1,2,true,d,false,true,0.0-2.0-0.29-0.261-3.261,1,0,0,68,false,stim,false,1,842,0,0,1,53356,task3,911953,false,false,972,image-keyboard-response,11
true,14,2,1,2,true,d,false,true,0.0-2.0-0.29-0.262-3.262,1,0,0,68,false,stim,false,2,928,0,1,0,53356,task3,914399,false,false,975,image-keyboard-response,12
true,14,1,1,1,true,z,false,true,0.0-2.0-0.29-0.263-3.263,1,0,0,90,false,stim,false,0,1111,0,0,2,53356,task3,917024,false,false,978,image-keyboard-response,13
true,14,2,1,2,true,d,false,true,0.0-2.0-0.29-0.264-3.264,1,0,0,68,false,stim,false,2,1574,0,1,0,53356,task3,920117,false,false,981,image-keyboard-response,14
true,14,2,1,2,true,d,false,true,0.0-2.0-0.29-0.265-3.265,1,0,0,68,false,stim,false,1,449,0,0,1,53356,task3,922097,false,false,984,image-keyboard-response,15
true,14,2,1,2,true,d,false,true,0.0-2.0-0.29-0.266-3.266,1,0,0,68,false,stim,false,1,526,0,0,1,53356,task3,924149,false,false,987,image-keyboard-response,16
true,14,2,1,2,true,d,false,true,0.0-2.0-0.29-0.267-3.267,1,0,0,68,false,stim,false,2,815,0,1,0,53356,task3,926497,false,false,990,image-keyboard-response,17
true,14,1,1,1,true,z,false,true,0.0-2.0-0.29-0.268-3.268,1,0,0,90,false,stim,false,0,478,0,0,2,53356,task3,928498,false,false,993,image-keyboard-response,18
true,14,1,1,1,true,z,false,true,0.0-2.0-0.29-0.269-3.269,1,0,0,90,false,stim,false,0,657,0,0,2,53356,task3,930686,false,false,996,image-keyboard-response,19
true,14,1,1,1,true,z,false,true,0.0-2.0-0.30-0.270-3.270,1,0,0,90,false,stim,false,0,494,0,0,2,53356,task3,932708,false,false,999,image-keyboard-response,20
true,14,2,1,2,true,d,false,true,0.0-2.0-0.30-0.271-3.271,1,0,0,68,false,stim,false,1,628,0,0,1,53356,task3,934868,false,false,1002,image-keyboard-response,21
true,14,1,1,1,true,z,false,true,0.0-2.0-0.30-0.272-3.272,1,0,0,90,false,stim,false,0,667,0,1,2,53356,task3,937055,false,false,1005,image-keyboard-response,22
true,14,1,1,1,true,z,false,true,0.0-2.0-0.30-0.273-3.273,1,0,0,90,false,stim,false,0,609,0,1,2,53356,task3,939184,false,false,1008,image-keyboard-response,23
true,14,2,1,2,true,d,false,true,0.0-2.0-0.30-0.274-3.274,1,0,0,68,false,stim,false,1,564,0,0,1,53356,task3,941269,false,false,1011,image-keyboard-response,24
true,14,2,1,2,true,d,false,true,0.0-2.0-0.30-0.275-3.275,1,0,0,68,false,stim,false,2,440,0,0,0,53356,task3,943226,false,false,1014,image-keyboard-response,25
true,14,2,1,2,true,d,false,true,0.0-2.0-0.30-0.276-3.276,1,0,0,68,false,stim,false,2,734,0,0,0,53356,task3,945480,false,false,1017,image-keyboard-response,26
true,15,2,1,1,false,z,false,false,0.0-2.0-0.30-0.277-3.277,0,0,1,68,true,stim,true,2,1219,0,0,1,53356,task3,948215,false,false,1020,image-keyboard-response,1
true,15,2,1,0,false,q,false,false,0.0-2.0-0.30-0.278-3.278,0,0,1,68,false,stim,true,2,1471,0,0,0,53356,task3,951207,false,false,1023,image-keyboard-response,2
true,15,1,1,0,false,q,true,true,0.0-2.0-0.31-0.279-3.279,0,0,1,90,false,stim,false,2,950,0,0,0,53356,task3,953676,false,true,1026,image-keyboard-response,3
true,15,1,1,0,false,q,true,false,0.0-2.0-0.31-0.280-3.280,0,0,1,90,false,stim,false,2,506,0,0,0,53356,task3,955712,false,false,1029,image-keyboard-response,4
true,15,2,1,1,false,z,true,false,0.0-2.0-0.31-0.281-3.281,0,0,1,68,false,stim,false,1,1450,0,1,2,53356,task3,958696,false,false,1032,image-keyboard-response,5
true,15,1,1,1,true,z,false,true,0.0-2.0-0.31-0.282-3.282,0,0,1,90,false,stim,false,2,353,0,0,1,53356,task3,960571,false,false,1035,image-keyboard-response,6
true,15,2,1,0,false,q,false,false,0.0-2.0-0.31-0.283-3.283,0,0,1,68,false,stim,true,2,861,0,0,0,53356,task3,962955,false,false,1038,image-keyboard-response,7
true,15,0,1,1,false,z,true,false,0.0-2.0-0.31-0.284-3.284,0,0,1,81,false,stim,false,1,1890,0,1,2,53356,task3,966369,false,false,1041,image-keyboard-response,8
true,15,0,1,1,false,z,true,false,0.0-2.0-0.31-0.285-3.285,0,0,1,81,false,stim,false,2,999,0,0,1,53356,task3,968887,false,false,1044,image-keyboard-response,9
true,15,1,1,1,true,z,false,true,0.0-2.0-0.31-0.286-3.286,0,0,1,90,false,stim,false,2,416,0,0,1,53356,task3,970829,false,false,1047,image-keyboard-response,10
true,15,2,1,1,false,z,true,false,0.0-2.0-0.31-0.287-3.287,0,0,1,68,false,stim,false,1,900,0,1,2,53356,task3,973255,false,false,1050,image-keyboard-response,11
true,15,1,1,1,true,z,false,true,0.0-2.0-0.32-0.288-3.288,0,0,1,90,false,stim,false,2,439,0,0,1,53356,task3,975225,false,false,1053,image-keyboard-response,12
true,15,0,1,1,false,z,true,false,0.0-2.0-0.32-0.289-3.289,0,0,1,81,false,stim,false,1,1020,0,1,2,53356,task3,977765,false,false,1056,image-keyboard-response,13
true,15,1,1,0,false,q,true,false,0.0-2.0-0.32-0.290-3.290,0,0,1,90,false,stim,false,2,287,0,0,0,53356,task3,979581,false,false,1059,image-keyboard-response,14
true,15,1,1,1,true,z,false,true,0.0-2.0-0.32-0.291-3.291,0,0,1,90,false,stim,false,1,459,0,1,2,53356,task3,981565,false,false,1062,image-keyboard-response,15
true,15,1,1,1,true,z,false,true,0.0-2.0-0.32-0.292-3.292,0,0,1,90,false,stim,false,1,617,0,1,2,53356,task3,983695,false,false,1065,image-keyboard-response,16
true,15,1,1,1,true,z,false,false,0.0-2.0-0.32-0.293-3.293,0,0,1,90,false,stim,false,2,695,0,0,1,53356,task3,985909,false,true,1068,image-keyboard-response,17
true,15,0,1,0,true,q,false,true,0.0-2.0-0.32-0.294-3.294,0,0,1,81,false,stim,false,2,1596,0,0,0,53356,task3,989020,false,false,1071,image-keyboard-response,18
true,15,0,1,0,true,q,false,true,0.0-2.0-0.32-0.295-3.295,0,0,1,81,false,stim,false,2,1396,0,0,0,53356,task3,991946,false,false,1074,image-keyboard-response,19
true,15,1,1,1,true,z,false,true,0.0-2.0-0.32-0.296-3.296,0,0,1,90,false,stim,false,2,462,0,0,1,53356,task3,993931,false,false,1077,image-keyboard-response,20
true,15,1,1,1,true,z,false,true,0.0-2.0-0.33-0.297-3.297,0,0,1,90,false,stim,false,2,691,0,0,1,53356,task3,996155,false,false,1080,image-keyboard-response,21
true,15,1,1,0,false,q,true,false,0.0-2.0-0.33-0.298-3.298,0,0,1,90,false,stim,false,2,437,0,1,0,53356,task3,998109,false,false,1083,image-keyboard-response,22
true,15,2,1,1,false,z,true,false,0.0-2.0-0.33-0.299-3.299,0,0,1,68,false,stim,false,1,580,0,1,2,53356,task3,1000217,false,false,1086,image-keyboard-response,23
true,15,0,1,1,false,z,true,false,0.0-2.0-0.33-0.300-3.300,0,0,1,81,false,stim,false,2,1717,0,0,1,53356,task3,1003457,false,false,1089,image-keyboard-response,24
true,15,0,1,0,true,q,false,true,0.0-2.0-0.33-0.301-3.301,0,0,1,81,false,stim,false,2,933,0,1,0,53356,task3,1005918,false,false,1092,image-keyboard-response,25
true,16,0,2,0,true,q,false,true,0.0-2.0-0.33-0.302-3.302,1,0,1,81,true,stim,false,0,439,0,1,0,53356,task3,1007881,false,false,1095,image-keyboard-response,1
true,16,1,2,1,true,z,false,true,0.0-2.0-0.33-0.303-3.303,1,0,1,90,false,stim,false,1,795,0,1,2,53356,task3,1010203,false,false,1098,image-keyboard-response,2
true,16,1,2,2,false,d,false,false,0.0-2.0-0.33-0.304-3.304,1,0,1,90,false,stim,true,1,504,0,0,1,53356,task3,1012261,false,false,1101,image-keyboard-response,3
true,16,1,2,1,true,z,false,true,0.0-2.0-0.33-0.305-3.305,1,0,1,90,false,stim,false,1,753,0,1,2,53356,task3,1014534,false,false,1104,image-keyboard-response,4
true,16,0,2,2,false,d,true,false,0.0-2.0-0.34-0.306-3.306,1,0,1,81,false,stim,false,1,645,0,0,1,53356,task3,1016698,false,false,1107,image-keyboard-response,5
true,16,0,2,0,true,q,false,true,0.0-2.0-0.34-0.307-3.307,1,0,1,81,false,stim,false,0,954,0,1,0,53356,task3,1019179,false,false,1110,image-keyboard-response,6
true,16,0,2,0,true,q,false,true,0.0-2.0-0.34-0.308-3.308,1,0,1,81,false,stim,false,0,961,0,1,0,53356,task3,1021704,false,false,1113,image-keyboard-response,7
true,16,1,2,1,true,z,false,true,0.0-2.0-0.34-0.309-3.309,1,0,1,90,false,stim,false,1,581,0,1,2,53356,task3,1023805,false,false,1116,image-keyboard-response,8
true,16,2,2,2,true,d,false,false,0.0-2.0-0.34-0.310-3.310,1,0,1,68,false,stim,false,1,851,0,0,1,53356,task3,1026192,false,true,1119,image-keyboard-response,9
true,16,1,2,2,false,d,false,false,0.0-2.0-0.34-0.311-3.311,1,0,1,90,false,stim,true,1,1057,0,0,1,53356,task3,1028766,false,false,1122,image-keyboard-response,10
true,16,0,2,0,true,q,false,true,0.0-2.0-0.34-0.312-3.312,1,0,1,81,false,stim,false,0,926,0,0,0,53356,task3,1031221,false,false,1125,image-keyboard-response,11
true,16,1,2,1,true,z,false,false,0.0-2.0-0.34-0.313-3.313,1,0,1,90,false,stim,false,1,734,0,0,2,53356,task3,1033473,false,true,1128,image-keyboard-response,12
true,16,0,2,1,false,z,true,false,0.0-2.0-0.34-0.314-3.314,1,0,1,81,false,stim,false,1,994,0,0,2,53356,task3,1035992,false,false,1131,image-keyboard-response,13
true,16,0,2,0,true,q,false,true,0.0-2.0-0.35-0.315-3.315,1,0,1,81,false,stim,false,0,825,0,0,0,53356,task3,1038351,false,false,1134,image-keyboard-response,14
true,16,0,2,2,false,d,true,false,0.0-2.0-0.35-0.316-3.316,1,0,1,81,false,stim,false,1,598,0,1,1,53356,task3,1040469,false,false,1137,image-keyboard-response,15
true,17,2,1,2,true,d,false,true,0.0-2.0-0.35-0.317-3.317,0,1,0,68,true,stim,false,2,1304,0,1,1,53356,task3,1043303,false,false,1140,image-keyboard-response,1
true,17,2,1,2,true,d,false,true,0.0-2.0-0.35-0.318-3.318,0,1,0,68,false,stim,false,2,682,0,1,1,53356,task3,1045509,false,false,1143,image-keyboard-response,2
true,17,2,1,0,false,q,true,false,0.0-2.0-0.35-0.319-3.319,0,1,0,68,false,stim,false,1,432,0,0,2,53356,task3,1047455,false,false,1146,image-keyboard-response,3
true,17,0,1,2,false,d,false,false,0.0-2.0-0.35-0.320-3.320,0,1,0,81,false,stim,true,0,434,0,0,0,53356,task3,1049403,false,false,1149,image-keyboard-response,4
true,17,2,1,0,false,q,true,false,0.0-2.0-0.35-0.321-3.321,0,1,0,68,false,stim,false,1,395,0,0,2,53356,task3,1051325,false,false,1152,image-keyboard-response,5
true,17,1,1,2,false,d,true,false,0.0-2.0-0.35-0.322-3.322,0,1,0,90,false,stim,false,0,781,0,0,0,53356,task3,1053615,false,false,1155,image-keyboard-response,6
true,17,1,1,0,false,q,false,false,0.0-2.0-0.35-0.323-3.323,0,1,0,90,false,stim,true,1,1299,0,0,2,53356,task3,1056438,false,false,1158,image-keyboard-response,7
true,17,0,1,0,true,q,false,true,0.0-2.0-0.36-0.324-3.324,0,1,0,81,false,stim,false,1,1581,0,0,2,53356,task3,1059540,false,false,1161,image-keyboard-response,8
true,17,2,1,2,true,d,false,true,0.0-2.0-0.36-0.325-3.325,0,1,0,68,false,stim,false,0,675,0,0,0,53356,task3,1061739,false,false,1164,image-keyboard-response,9
true,17,2,1,2,true,d,false,true,0.0-2.0-0.36-0.326-3.326,0,1,0,68,false,stim,false,0,698,0,0,0,53356,task3,1063967,false,false,1167,image-keyboard-response,10
true,17,0,1,0,true,q,false,true,0.0-2.0-0.36-0.327-3.327,0,1,0,81,false,stim,false,1,455,0,0,2,53356,task3,1065951,false,false,1170,image-keyboard-response,11
true,17,0,1,0,true,q,false,true,0.0-2.0-0.36-0.328-3.328,0,1,0,81,false,stim,false,1,432,0,0,2,53356,task3,1067897,false,false,1173,image-keyboard-response,12
true,17,1,1,2,false,d,true,false,0.0-2.0-0.36-0.329-3.329,0,1,0,90,false,stim,false,2,2467,0,1,1,53356,task3,1071886,false,false,1176,image-keyboard-response,13
true,17,2,1,2,true,d,false,true,0.0-2.0-0.36-0.330-3.330,0,1,0,68,false,stim,false,0,1133,0,0,0,53356,task3,1074551,false,false,1179,image-keyboard-response,14
true,17,0,1,2,false,d,true,true,0.0-2.0-0.36-0.331-3.331,0,1,0,81,false,stim,false,2,524,0,1,1,53356,task3,1076605,false,true,1182,image-keyboard-response,15
true,17,0,1,2,false,d,true,false,0.0-2.0-0.36-0.332-3.332,0,1,0,81,false,stim,false,2,681,0,1,1,53356,task3,1078804,false,false,1185,image-keyboard-response,16
true,17,2,1,2,true,d,false,true,0.0-2.0-0.37-0.333-3.333,0,1,0,68,false,stim,false,2,1264,0,1,1,53356,task3,1081585,false,false,1188,image-keyboard-response,17
true,17,0,1,0,true,q,false,true,0.0-2.0-0.37-0.334-3.334,0,1,0,81,false,stim,false,1,789,0,1,2,53356,task3,1083908,false,false,1191,image-keyboard-response,18
true,17,2,1,2,true,d,false,false,0.0-2.0-0.37-0.335-3.335,0,1,0,68,false,stim,false,2,622,0,1,1,53356,task3,1086060,false,true,1194,image-keyboard-response,19
true,17,0,1,0,true,q,false,true,0.0-2.0-0.37-0.336-3.336,0,1,0,81,false,stim,false,1,615,0,1,2,53356,task3,1088201,false,false,1197,image-keyboard-response,20
true,17,1,1,2,false,d,true,false,0.0-2.0-0.37-0.337-3.337,0,1,0,90,false,stim,false,2,1743,0,1,1,53356,task3,1091464,false,false,1200,image-keyboard-response,21
true,17,2,1,2,true,d,false,true,0.0-2.0-0.37-0.338-3.338,0,1,0,68,false,stim,false,0,966,0,0,0,53356,task3,1093984,false,false,1203,image-keyboard-response,22
true,18,0,2,0,true,q,false,true,0.0-2.0-0.37-0.339-3.339,0,1,1,81,true,stim,false,0,667,0,1,2,53356,task3,1096174,false,false,1206,image-keyboard-response,1
true,18,2,2,0,false,q,false,false,0.0-2.0-0.37-0.340-3.340,0,1,1,68,false,stim,true,2,765,0,0,0,53356,task3,1098463,false,false,1209,image-keyboard-response,2
true,18,0,2,0,true,q,false,true,0.0-2.0-0.37-0.341-3.341,0,1,1,81,false,stim,false,2,793,0,0,0,53356,task3,1100791,false,false,1212,image-keyboard-response,3
true,18,0,2,0,true,q,false,true,0.0-2.0-0.38-0.342-3.342,0,1,1,81,false,stim,false,2,764,0,0,0,53356,task3,1103081,false,false,1215,image-keyboard-response,4
true,18,0,2,0,true,q,false,true,0.0-2.0-0.38-0.343-3.343,0,1,1,81,false,stim,false,2,862,0,0,0,53356,task3,1105478,false,false,1218,image-keyboard-response,5
true,18,0,2,0,true,q,false,true,0.0-2.0-0.38-0.344-3.344,0,1,1,81,false,stim,false,0,1135,0,1,2,53356,task3,1108128,false,false,1221,image-keyboard-response,6
true,18,0,2,0,true,q,false,true,0.0-2.0-0.38-0.345-3.345,0,1,1,81,false,stim,false,2,853,0,0,0,53356,task3,1110503,false,false,1224,image-keyboard-response,7
true,18,0,2,0,true,q,false,false,0.0-2.0-0.38-0.346-3.346,0,1,1,81,false,stim,false,0,724,0,1,2,53356,task3,1112754,false,true,1227,image-keyboard-response,8
true,18,1,2,0,false,q,true,false,0.0-2.0-0.38-0.347-3.347,0,1,1,90,false,stim,false,0,1032,0,1,2,53356,task3,1115315,false,false,1230,image-keyboard-response,9
true,18,1,2,2,false,d,true,false,0.0-2.0-0.38-0.348-3.348,0,1,1,90,false,stim,false,2,2049,0,1,1,53356,task3,1118875,false,false,1233,image-keyboard-response,10
true,18,2,2,2,true,d,false,true,0.0-2.0-0.38-0.349-3.349,0,1,1,68,false,stim,false,2,604,0,1,1,53356,task3,1120993,false,false,1236,image-keyboard-response,11
true,18,2,2,2,true,d,false,true,0.0-2.0-0.38-0.350-3.350,0,1,1,68,false,stim,false,2,581,0,1,1,53356,task3,1123101,false,false,1239,image-keyboard-response,12
true,18,2,2,2,true,d,false,true,0.0-2.0-0.39-0.351-3.351,0,1,1,68,false,stim,false,2,511,0,1,1,53356,task3,1125130,false,false,1242,image-keyboard-response,13
true,18,0,2,0,true,q,false,true,0.0-2.0-0.39-0.352-3.352,0,1,1,81,false,stim,false,2,1197,0,0,0,53356,task3,1127855,false,false,1245,image-keyboard-response,14
true,18,0,2,0,true,q,false,false,0.0-2.0-0.39-0.353-3.353,0,1,1,81,false,stim,false,2,547,0,0,0,53356,task3,1129928,false,true,1248,image-keyboard-response,15
true,18,2,2,2,true,d,false,false,0.0-2.0-0.39-0.354-3.354,0,1,1,68,false,stim,false,2,760,0,1,1,53356,task3,1132206,false,true,1251,image-keyboard-response,16
true,18,2,2,0,false,q,true,false,0.0-2.0-0.39-0.355-3.355,0,1,1,68,false,stim,false,0,1778,0,1,2,53356,task3,1135494,false,false,1254,image-keyboard-response,17
true,18,1,2,0,false,q,true,false,0.0-2.0-0.39-0.356-3.356,0,1,1,90,false,stim,false,0,1245,0,1,2,53356,task3,1138270,false,false,1257,image-keyboard-response,18
true,18,2,2,0,false,q,false,false,0.0-2.0-0.39-0.357-3.357,0,1,1,68,false,stim,true,2,1789,0,0,0,53356,task3,1141596,false,false,1260,image-keyboard-response,19
true,18,2,2,2,true,d,false,true,0.0-2.0-0.39-0.358-3.358,0,1,1,68,false,stim,false,2,1244,0,1,1,53356,task3,1144367,false,false,1263,image-keyboard-response,20
true,18,0,2,0,true,q,false,true,0.0-2.0-0.39-0.359-3.359,0,1,1,81,false,stim,false,0,507,0,0,2,53356,task3,1146396,false,false,1266,image-keyboard-response,21
true,18,2,2,2,true,d,false,true,0.0-2.0-0.40-0.360-3.360,0,1,1,68,false,stim,false,2,495,0,1,1,53356,task3,1148420,false,false,1269,image-keyboard-response,22
true,18,2,2,2,true,d,false,true,0.0-2.0-0.40-0.361-3.361,0,1,1,68,false,stim,false,2,529,0,1,1,53356,task3,1150468,false,false,1272,image-keyboard-response,23
true,18,0,2,0,true,q,false,true,0.0-2.0-0.40-0.362-3.362,0,1,1,81,false,stim,false,0,598,0,0,2,53356,task3,1152592,false,false,1275,image-keyboard-response,24
true,19,0,1,1,false,z,false,true,0.0-2.0-0.40-0.363-3.363,0,1,0,81,true,stim,true,0,1402,0,0,0,53356,task3,1155525,false,true,1278,image-keyboard-response,1
true,19,0,1,1,false,z,false,false,0.0-2.0-0.40-0.364-3.364,0,1,0,81,false,stim,true,0,583,0,0,0,53356,task3,1157633,false,false,1281,image-keyboard-response,2
true,19,2,1,1,false,z,true,false,0.0-2.0-0.40-0.365-3.365,0,1,0,68,false,stim,false,0,638,0,0,0,53356,task3,1159787,false,false,1284,image-keyboard-response,3
true,19,2,1,2,true,d,false,true,0.0-2.0-0.40-0.366-3.366,0,1,0,68,false,stim,false,2,671,0,1,1,53356,task3,1161987,false,false,1287,image-keyboard-response,4
true,19,0,1,2,false,d,false,false,0.0-2.0-0.40-0.367-3.367,0,1,0,81,false,stim,true,0,450,0,0,2,53356,task3,1163970,false,false,1290,image-keyboard-response,5
true,19,2,1,2,true,d,false,true,0.0-2.0-0.40-0.368-3.368,0,1,0,68,false,stim,false,0,438,0,0,2,53356,task3,1165933,false,false,1293,image-keyboard-response,6
true,19,2,1,2,true,d,false,true,0.0-2.0-0.41-0.369-3.369,0,1,0,68,false,stim,false,0,692,0,0,2,53356,task3,1168147,false,false,1296,image-keyboard-response,7
true,19,2,1,1,false,z,true,false,0.0-2.0-0.41-0.370-3.370,0,1,0,68,false,stim,false,0,2189,0,0,0,53356,task3,1171856,false,false,1299,image-keyboard-response,8
true,19,2,1,2,true,d,false,true,0.0-2.0-0.41-0.371-3.371,0,1,0,68,false,stim,false,0,459,0,0,2,53356,task3,1173861,false,false,1302,image-keyboard-response,9
true,19,2,1,2,true,d,false,false,0.0-2.0-0.41-0.372-3.372,0,1,0,68,false,stim,false,2,433,0,1,1,53356,task3,1175829,false,true,1305,image-keyboard-response,10
true,19,2,1,2,true,d,false,true,0.0-2.0-0.41-0.373-3.373,0,1,0,68,false,stim,false,0,558,0,0,2,53356,task3,1177907,false,false,1308,image-keyboard-response,11
false,19,-1,1,1,false,z,true,false,0.0-2.0-0.41-0.374-3.374,0,1,0,,false,stim,false,0,,0,0,0,53356,task3,1182433,false,false,1311,image-keyboard-response,12
true,19,1,1,2,false,d,true,false,0.0-2.0-0.41-0.375-3.375,0,1,0,90,false,stim,false,2,1711,0,1,1,53356,task3,1185661,false,false,1314,image-keyboard-response,13
true,19,0,1,2,false,d,true,false,0.0-2.0-0.41-0.376-3.376,0,1,0,81,false,stim,false,2,2810,0,1,1,53356,task3,1189996,false,false,1317,image-keyboard-response,14
true,19,2,1,1,false,z,true,false,0.0-2.0-0.41-0.377-3.377,0,1,0,68,false,stim,false,0,328,0,0,0,53356,task3,1191843,false,false,1320,image-keyboard-response,15
true,19,0,1,1,false,z,false,false,0.0-2.0-0.42-0.378-3.378,0,1,0,81,false,stim,true,0,595,0,0,0,53356,task3,1193958,false,false,1323,image-keyboard-response,16
true,19,1,1,1,true,z,false,true,0.0-2.0-0.42-0.379-3.379,0,1,0,90,false,stim,false,0,883,0,0,0,53356,task3,1196374,false,false,1326,image-keyboard-response,17
true,19,0,1,2,false,d,false,false,0.0-2.0-0.42-0.380-3.380,0,1,0,81,false,stim,true,0,522,0,0,2,53356,task3,1198421,false,false,1329,image-keyboard-response,18
true,19,1,1,1,true,z,false,false,0.0-2.0-0.42-0.381-3.381,0,1,0,90,false,stim,false,0,434,0,0,0,53356,task3,1200383,false,true,1332,image-keyboard-response,19
true,19,2,1,2,true,d,false,false,0.0-2.0-0.42-0.382-3.382,0,1,0,68,false,stim,false,0,1687,0,0,2,53356,task3,1203593,false,true,1335,image-keyboard-response,20
true,19,0,1,2,false,d,true,false,0.0-2.0-0.42-0.383-3.383,0,1,0,81,false,stim,false,2,727,0,1,1,53356,task3,1205850,false,false,1338,image-keyboard-response,21
true,19,0,1,2,false,d,false,false,0.0-2.0-0.42-0.384-3.384,0,1,0,81,false,stim,true,0,962,0,0,2,53356,task3,1208338,false,false,1341,image-keyboard-response,22
true,19,1,1,2,false,d,true,false,0.0-2.0-0.42-0.385-3.385,0,1,0,90,false,stim,false,2,2053,0,1,1,53356,task3,1211910,false,false,1344,image-keyboard-response,23
true,19,0,1,2,false,d,true,true,0.0-2.0-0.42-0.386-3.386,0,1,0,81,false,stim,false,2,724,0,1,1,53356,task3,1214163,false,true,1347,image-keyboard-response,24
true,19,2,1,2,true,d,false,true,0.0-2.0-0.43-0.387-3.387,0,1,0,68,false,stim,false,0,538,0,0,2,53356,task3,1216221,false,false,1350,image-keyboard-response,25
true,19,2,1,2,true,d,false,true,0.0-2.0-0.43-0.388-3.388,0,1,0,68,false,stim,false,0,631,0,0,2,53356,task3,1218375,false,false,1353,image-keyboard-response,26
true,20,0,2,2,false,d,true,false,0.0-2.0-0.43-0.389-3.389,1,1,0,81,true,stim,false,2,397,0,1,1,53356,task3,1220304,false,false,1356,image-keyboard-response,1
true,20,2,2,1,false,z,true,false,0.0-2.0-0.43-0.390-3.390,1,1,0,68,false,stim,false,1,1222,0,1,0,53356,task3,1223056,false,false,1359,image-keyboard-response,2
true,20,1,2,1,true,z,false,true,0.0-2.0-0.43-0.391-3.391,1,1,0,90,false,stim,false,1,1290,0,1,0,53356,task3,1225870,false,false,1362,image-keyboard-response,3
true,20,2,2,1,false,z,false,true,0.0-2.0-0.43-0.392-3.392,1,1,0,68,false,stim,true,2,491,0,0,2,53356,task3,1227876,false,true,1365,image-keyboard-response,4
true,20,2,2,2,true,d,false,true,0.0-2.0-0.43-0.393-3.393,1,1,0,68,false,stim,false,2,466,0,1,1,53356,task3,1229871,false,false,1368,image-keyboard-response,5
true,20,1,2,1,true,z,false,true,0.0-2.0-0.43-0.394-3.394,1,1,0,90,false,stim,false,1,2177,0,1,0,53356,task3,1233572,false,false,1371,image-keyboard-response,6
true,20,2,2,2,true,d,false,true,0.0-2.0-0.43-0.395-3.395,1,1,0,68,false,stim,false,2,707,0,1,1,53356,task3,1235811,false,false,1374,image-keyboard-response,7
true,20,2,2,1,false,z,false,false,0.0-2.0-0.44-0.396-3.396,1,1,0,68,false,stim,true,2,498,0,0,2,53356,task3,1237838,false,false,1377,image-keyboard-response,8
true,20,1,2,1,true,z,false,true,0.0-2.0-0.44-0.397-3.397,1,1,0,90,false,stim,false,2,1035,0,0,2,53356,task3,1240409,false,false,1380,image-keyboard-response,9
true,20,1,2,1,true,z,false,true,0.0-2.0-0.44-0.398-3.398,1,1,0,90,false,stim,false,1,666,0,1,0,53356,task3,1242606,false,false,1383,image-keyboard-response,10
true,20,2,2,2,true,d,false,true,0.0-2.0-0.44-0.399-3.399,1,1,0,68,false,stim,false,2,627,0,1,1,53356,task3,1244767,false,false,1386,image-keyboard-response,11
true,20,1,2,1,true,z,false,true,0.0-2.0-0.44-0.400-3.400,1,1,0,90,false,stim,false,2,918,0,0,2,53356,task3,1247202,false,false,1389,image-keyboard-response,12
true,20,1,2,1,true,z,false,true,0.0-2.0-0.44-0.401-3.401,1,1,0,90,false,stim,false,1,1008,0,1,0,53356,task3,1249730,false,false,1392,image-keyboard-response,13
true,20,1,2,1,true,z,false,true,0.0-2.0-0.44-0.402-3.402,1,1,0,90,false,stim,false,1,1188,0,1,0,53356,task3,1252447,false,false,1395,image-keyboard-response,14
true,20,2,2,2,true,d,false,true,0.0-2.0-0.44-0.403-3.403,1,1,0,68,false,stim,false,2,909,0,1,1,53356,task3,1254880,false,false,1398,image-keyboard-response,15
true,20,2,2,2,true,d,false,true,0.0-2.0-0.44-0.404-3.404,1,1,0,68,false,stim,false,2,778,0,1,1,53356,task3,1257210,false,false,1401,image-keyboard-response,16
true,20,1,2,1,true,z,false,true,0.0-2.0-0.45-0.405-3.405,1,1,0,90,false,stim,false,1,1224,0,1,0,53356,task3,1259957,false,false,1404,image-keyboard-response,17
true,20,1,2,1,true,z,false,true,0.0-2.0-0.45-0.406-3.406,1,1,0,90,false,stim,false,1,567,0,1,0,53356,task3,1262051,false,false,1407,image-keyboard-response,18
true,20,1,2,1,true,z,false,true,0.0-2.0-0.45-0.407-3.407,1,1,0,90,false,stim,false,1,579,0,1,0,53356,task3,1264165,false,false,1410,image-keyboard-response,19
true,20,2,2,2,true,d,false,true,0.0-2.0-0.45-0.408-3.408,1,1,0,68,false,stim,false,2,776,0,1,1,53356,task3,1266467,false,false,1413,image-keyboard-response,20
true,20,1,2,1,true,z,false,true,0.0-2.0-0.45-0.409-3.409,1,1,0,90,false,stim,false,2,1232,0,0,2,53356,task3,1269227,false,false,1416,image-keyboard-response,21
true,20,1,2,1,true,z,false,false,0.0-2.0-0.45-0.410-3.410,1,1,0,90,false,stim,false,2,550,0,0,2,53356,task3,1271305,false,true,1419,image-keyboard-response,22
true,20,2,2,2,true,d,false,true,0.0-2.0-0.45-0.411-3.411,1,1,0,68,false,stim,false,2,2489,0,1,1,53356,task3,1275314,false,false,1422,image-keyboard-response,23
true,20,0,2,1,false,z,true,false,0.0-2.0-0.45-0.412-3.412,1,1,0,81,false,stim,false,2,2401,0,0,2,53356,task3,1279241,false,false,1425,image-keyboard-response,24
true,20,2,2,2,true,d,false,true,0.0-2.0-0.45-0.413-3.413,1,1,0,68,false,stim,false,2,1212,0,0,1,53356,task3,1281981,false,false,1428,image-keyboard-response,25
true,20,1,2,2,false,d,true,false,0.0-2.0-0.46-0.414-3.414,1,1,0,90,false,stim,false,2,599,0,0,1,53356,task3,1284104,false,false,1431,image-keyboard-response,26
true,20,1,2,1,true,z,false,true,0.0-2.0-0.46-0.415-3.415,1,1,0,90,false,stim,false,1,847,0,1,0,53356,task3,1286482,false,false,1434,image-keyboard-response,27
true,20,1,2,1,true,z,false,true,0.0-2.0-0.46-0.416-3.416,1,1,0,90,false,stim,false,1,908,0,1,0,53356,task3,1288907,false,false,1437,image-keyboard-response,28
true,21,1,1,1,true,z,false,true,0.0-2.0-0.46-0.417-3.417,1,0,0,90,true,stim,false,1,819,0,1,0,53356,task3,1291253,false,false,1440,image-keyboard-response,1
true,21,2,1,0,false,q,true,false,0.0-2.0-0.46-0.418-3.418,1,0,0,68,false,stim,false,1,2462,0,0,2,53356,task3,1295235,false,false,1443,image-keyboard-response,2
true,21,2,1,1,false,z,false,false,0.0-2.0-0.46-0.419-3.419,1,0,0,68,false,stim,true,2,2415,0,0,1,53356,task3,1299165,false,false,1446,image-keyboard-response,3
true,21,1,1,0,false,q,false,false,0.0-2.0-0.46-0.420-3.420,1,0,0,90,false,stim,true,1,2008,0,0,2,53356,task3,1302697,false,false,1449,image-keyboard-response,4
true,21,0,1,0,true,q,false,false,0.0-2.0-0.46-0.421-3.421,1,0,0,81,false,stim,false,1,367,0,0,2,53356,task3,1304597,false,true,1452,image-keyboard-response,5
true,21,2,1,1,false,z,false,false,0.0-2.0-0.46-0.422-3.422,1,0,0,68,false,stim,true,2,368,0,0,1,53356,task3,1306500,false,false,1455,image-keyboard-response,6
true,21,2,1,0,false,q,true,false,0.0-2.0-0.47-0.423-3.423,1,0,0,68,false,stim,false,1,428,0,0,2,53356,task3,1308459,false,false,1458,image-keyboard-response,7
true,21,0,1,0,true,q,false,false,0.0-2.0-0.47-0.424-3.424,1,0,0,81,false,stim,false,1,405,0,0,2,53356,task3,1310377,false,true,1461,image-keyboard-response,8
true,21,2,1,1,false,z,true,false,0.0-2.0-0.47-0.425-3.425,1,0,0,68,false,stim,false,1,667,0,1,0,53356,task3,1312572,false,false,1464,image-keyboard-response,9
true,21,2,1,1,false,z,true,false,0.0-2.0-0.47-0.426-3.426,1,0,0,68,false,stim,false,1,446,0,1,0,53356,task3,1314541,false,false,1467,image-keyboard-response,10
true,21,1,1,0,false,q,false,false,0.0-2.0-0.47-0.427-3.427,1,0,0,90,false,stim,true,1,273,0,0,2,53356,task3,1316335,false,false,1470,image-keyboard-response,11
true,21,2,1,1,false,z,false,false,0.0-2.0-0.47-0.428-3.428,1,0,0,68,false,stim,true,2,308,0,0,1,53356,task3,1318173,false,false,1473,image-keyboard-response,12
true,21,2,1,1,false,z,false,false,0.0-2.0-0.47-0.429-3.429,1,0,0,68,false,stim,true,2,332,0,0,1,53356,task3,1320022,false,false,1476,image-keyboard-response,13
true,21,1,1,1,true,z,false,true,0.0-2.0-0.47-0.430-3.430,1,0,0,90,false,stim,false,1,328,0,1,0,53356,task3,1321880,false,false,1479,image-keyboard-response,14
true,21,2,1,1,false,z,false,false,0.0-2.0-0.47-0.431-3.431,1,0,0,68,false,stim,true,2,703,0,0,1,53356,task3,1324106,false,false,1482,image-keyboard-response,15
true,21,1,1,1,true,z,false,true,0.0-2.0-0.48-0.432-3.432,1,0,0,90,false,stim,false,1,530,0,1,0,53356,task3,1326155,false,false,1485,image-keyboard-response,16
true,21,1,1,1,true,z,false,true,0.0-2.0-0.48-0.433-3.433,1,0,0,90,false,stim,false,1,572,0,1,0,53356,task3,1328246,false,false,1488,image-keyboard-response,17
true,21,0,1,0,true,q,false,true,0.0-2.0-0.48-0.434-3.434,1,0,0,81,false,stim,false,1,1968,0,0,2,53356,task3,1331743,false,false,1491,image-keyboard-response,18
true,21,0,1,0,true,q,false,true,0.0-2.0-0.48-0.435-3.435,1,0,0,81,false,stim,false,1,576,0,0,2,53356,task3,1333842,false,false,1494,image-keyboard-response,19
true,21,2,1,1,false,z,false,false,0.0-2.0-0.48-0.436-3.436,1,0,0,68,false,stim,true,2,1686,0,0,1,53356,task3,1337055,false,false,1497,image-keyboard-response,20
true,21,1,1,1,true,z,false,true,0.0-2.0-0.48-0.437-3.437,1,0,0,90,false,stim,false,1,1005,0,1,0,53356,task3,1339589,false,false,1500,image-keyboard-response,21
true,21,0,1,0,true,q,false,true,0.0-2.0-0.48-0.438-3.438,1,0,0,81,false,stim,false,1,868,0,0,2,53356,task3,1342003,false,false,1503,image-keyboard-response,22
true,21,1,1,1,true,z,false,true,0.0-2.0-0.48-0.439-3.439,1,0,0,90,false,stim,false,2,1478,0,0,1,53356,task3,1345007,false,false,1506,image-keyboard-response,23
true,21,1,1,1,true,z,false,true,0.0-2.0-0.48-0.440-3.440,1,0,0,90,false,stim,false,2,930,0,0,1,53356,task3,1347460,false,false,1509,image-keyboard-response,24
true,21,1,1,1,true,z,false,false,0.0-2.0-0.49-0.441-3.441,1,0,0,90,false,stim,false,1,425,0,0,0,53356,task3,1349410,false,true,1512,image-keyboard-response,25
true,21,0,1,0,true,q,false,true,0.0-2.0-0.49-0.442-3.442,1,0,0,81,false,stim,false,1,1657,0,1,2,53356,task3,1352587,false,false,1515,image-keyboard-response,26
true,21,2,1,1,false,z,true,false,0.0-2.0-0.49-0.443-3.443,1,0,0,68,false,stim,false,1,790,0,0,0,53356,task3,1354910,false,false,1518,image-keyboard-response,27
true,22,0,1,0,true,q,false,false,0.0-2.0-0.49-0.444-3.444,0,0,1,81,true,stim,false,1,1368,0,0,1,53356,task3,1357808,false,true,1521,image-keyboard-response,1
true,22,0,1,0,true,q,false,true,0.0-2.0-0.49-0.445-3.445,0,0,1,81,false,stim,false,0,461,0,1,2,53356,task3,1359791,false,false,1524,image-keyboard-response,2
true,22,0,1,2,false,d,true,false,0.0-2.0-0.49-0.446-3.446,0,0,1,81,false,stim,false,1,1197,0,0,0,53356,task3,1362515,false,false,1527,image-keyboard-response,3
true,22,0,1,0,true,q,false,true,0.0-2.0-0.49-0.447-3.447,0,0,1,81,false,stim,false,0,1609,0,1,2,53356,task3,1365657,false,false,1530,image-keyboard-response,4
true,22,1,1,0,false,q,false,false,0.0-2.0-0.49-0.448-3.448,0,0,1,90,false,stim,true,1,641,0,0,1,53356,task3,1367820,false,false,1533,image-keyboard-response,5
true,22,2,1,0,false,q,true,false,0.0-2.0-0.49-0.449-3.449,0,0,1,68,false,stim,false,1,848,0,0,1,53356,task3,1370198,false,false,1536,image-keyboard-response,6
true,22,0,1,0,true,q,false,true,0.0-2.0-0.50-0.450-3.450,0,0,1,81,false,stim,false,0,1303,0,1,2,53356,task3,1373017,false,false,1539,image-keyboard-response,7
true,22,0,1,0,true,q,false,true,0.0-2.0-0.50-0.451-3.451,0,0,1,81,false,stim,false,1,801,0,0,1,53356,task3,1375336,false,false,1542,image-keyboard-response,8
true,22,0,1,0,true,q,false,true,0.0-2.0-0.50-0.452-3.452,0,0,1,81,false,stim,false,0,939,0,1,2,53356,task3,1377794,false,false,1545,image-keyboard-response,9
true,22,0,1,0,true,q,false,true,0.0-2.0-0.50-0.453-3.453,0,0,1,81,false,stim,false,1,994,0,0,1,53356,task3,1380319,false,false,1548,image-keyboard-response,10
true,22,0,1,0,true,q,false,true,0.0-2.0-0.50-0.454-3.454,0,0,1,81,false,stim,false,1,470,0,0,1,53356,task3,1382312,false,false,1551,image-keyboard-response,11
true,22,1,1,2,false,d,false,false,0.0-2.0-0.50-0.455-3.455,0,0,1,90,false,stim,true,1,1009,0,0,0,53356,task3,1384858,false,false,1554,image-keyboard-response,12
true,22,0,1,0,true,q,false,true,0.0-2.0-0.50-0.456-3.456,0,0,1,81,false,stim,false,0,404,0,1,2,53356,task3,1386786,false,false,1557,image-keyboard-response,13
true,22,2,1,2,true,d,false,true,0.0-2.0-0.50-0.457-3.457,0,0,1,68,false,stim,false,1,542,0,0,0,53356,task3,1388847,false,false,1560,image-keyboard-response,14
true,22,2,1,2,true,d,false,true,0.0-2.0-0.50-0.458-3.458,0,0,1,68,false,stim,false,1,538,0,0,0,53356,task3,1390922,false,false,1563,image-keyboard-response,15
true,22,2,1,2,true,d,false,false,0.0-2.0-0.51-0.459-3.459,0,0,1,68,false,stim,false,1,611,0,0,0,53356,task3,1393071,false,true,1566,image-keyboard-response,16
true,22,0,1,0,true,q,false,true,0.0-2.0-0.51-0.460-3.460,0,0,1,81,false,stim,false,0,965,0,1,2,53356,task3,1395569,false,false,1569,image-keyboard-response,17
true,22,1,1,2,false,d,false,false,0.0-2.0-0.51-0.461-3.461,0,0,1,90,false,stim,true,1,2282,0,0,0,53356,task3,1399370,false,false,1572,image-keyboard-response,18
true,22,0,1,0,true,q,false,true,0.0-2.0-0.51-0.462-3.462,0,0,1,81,false,stim,false,1,962,0,0,1,53356,task3,1401858,false,false,1575,image-keyboard-response,19
true,22,0,1,0,true,q,false,true,0.0-2.0-0.51-0.463-3.463,0,0,1,81,false,stim,false,1,688,0,0,1,53356,task3,1404072,false,false,1578,image-keyboard-response,20
true,22,0,1,0,true,q,false,true,0.0-2.0-0.51-0.464-3.464,0,0,1,81,false,stim,false,0,1687,0,1,2,53356,task3,1407291,false,false,1581,image-keyboard-response,21
true,22,0,1,2,false,d,true,true,0.0-2.0-0.51-0.465-3.465,0,0,1,81,false,stim,false,1,1842,0,0,0,53356,task3,1410647,false,true,1584,image-keyboard-response,22
true,22,0,1,0,true,q,false,true,0.0-2.0-0.51-0.466-3.466,0,0,1,81,false,stim,false,1,1061,0,0,1,53356,task3,1413232,false,false,1587,image-keyboard-response,23
true,22,0,1,0,true,q,false,true,0.0-2.0-0.51-0.467-3.467,0,0,1,81,false,stim,false,0,737,0,0,2,53356,task3,1415500,false,false,1590,image-keyboard-response,24
true,22,0,1,0,true,q,false,true,0.0-2.0-0.52-0.468-3.468,0,0,1,81,false,stim,false,0,832,0,0,2,53356,task3,1417862,false,false,1593,image-keyboard-response,25
true,22,0,1,0,true,q,false,false,0.0-2.0-0.52-0.469-3.469,0,0,1,81,false,stim,false,1,646,0,1,1,53356,task3,1420041,false,true,1596,image-keyboard-response,26
true,22,0,1,0,true,q,false,true,0.0-2.0-0.52-0.470-3.470,0,0,1,81,false,stim,false,0,699,0,0,2,53356,task3,1422273,false,false,1599,image-keyboard-response,27
true,22,1,1,0,false,q,false,false,0.0-2.0-0.52-0.471-3.471,0,0,1,90,false,stim,true,1,1778,0,1,1,53356,task3,1425602,false,false,1602,image-keyboard-response,28
true,23,0,1,0,true,q,false,true,0.0-2.0-0.52-0.472-3.472,0,1,0,81,true,stim,false,2,908,0,0,0,53356,task3,1428036,false,false,1605,image-keyboard-response,1
true,23,0,1,1,false,z,false,false,0.0-2.0-0.52-0.473-3.473,0,1,0,81,false,stim,true,0,607,0,0,2,53356,task3,1430162,false,false,1608,image-keyboard-response,2
true,23,2,1,0,false,q,true,false,0.0-2.0-0.52-0.474-3.474,0,1,0,68,false,stim,false,0,2498,0,1,1,53356,task3,1434183,false,false,1611,image-keyboard-response,3
true,23,0,1,0,true,q,false,true,0.0-2.0-0.52-0.475-3.475,0,1,0,81,false,stim,false,2,1233,0,0,0,53356,task3,1436947,false,false,1614,image-keyboard-response,4
true,23,0,1,0,true,q,false,true,0.0-2.0-0.52-0.476-3.476,0,1,0,81,false,stim,false,2,743,0,0,0,53356,task3,1439222,false,false,1617,image-keyboard-response,5
true,23,2,1,0,false,q,true,false,0.0-2.0-0.53-0.477-3.477,0,1,0,68,false,stim,false,0,1608,0,1,1,53356,task3,1442357,false,false,1620,image-keyboard-response,6
true,23,0,1,0,true,q,false,true,0.0-2.0-0.53-0.478-3.478,0,1,0,81,false,stim,false,2,592,0,0,0,53356,task3,1444480,false,false,1623,image-keyboard-response,7
true,23,1,1,0,false,q,true,false,0.0-2.0-0.53-0.479-3.479,0,1,0,90,false,stim,false,0,1314,0,1,1,53356,task3,1447324,false,false,1626,image-keyboard-response,8
true,23,0,1,0,true,q,false,true,0.0-2.0-0.53-0.480-3.480,0,1,0,81,false,stim,false,2,442,0,0,0,53356,task3,1449285,false,false,1629,image-keyboard-response,9
true,23,1,1,1,true,z,false,true,0.0-2.0-0.53-0.481-3.481,0,1,0,90,false,stim,false,0,1035,0,0,2,53356,task3,1451847,false,false,1632,image-keyboard-response,10
true,23,0,1,0,true,q,false,true,0.0-2.0-0.53-0.482-3.482,0,1,0,81,false,stim,false,2,657,0,0,0,53356,task3,1454028,false,false,1635,image-keyboard-response,11
true,23,1,1,1,true,z,false,false,0.0-2.0-0.53-0.483-3.483,0,1,0,90,false,stim,false,0,905,0,0,2,53356,task3,1456456,false,true,1638,image-keyboard-response,12
true,23,2,1,1,false,z,true,false,0.0-2.0-0.53-0.484-3.484,0,1,0,68,false,stim,false,0,2009,0,0,2,53356,task3,1459979,false,false,1641,image-keyboard-response,13
true,23,0,1,0,true,q,false,true,0.0-2.0-0.53-0.485-3.485,0,1,0,81,false,stim,false,0,435,0,1,1,53356,task3,1461937,false,false,1644,image-keyboard-response,14
true,23,0,1,1,false,z,false,false,0.0-2.0-0.54-0.486-3.486,0,1,0,81,false,stim,true,0,498,0,0,2,53356,task3,1463961,false,false,1647,image-keyboard-response,15
true,23,1,1,1,true,z,false,true,0.0-2.0-0.54-0.487-3.487,0,1,0,90,false,stim,false,0,828,0,0,2,53356,task3,1466327,false,false,1650,image-keyboard-response,16
true,23,0,1,0,true,q,false,true,0.0-2.0-0.54-0.488-3.488,0,1,0,81,false,stim,false,2,680,0,0,0,53356,task3,1468544,false,false,1653,image-keyboard-response,17
true,23,0,1,0,true,q,false,true,0.0-2.0-0.54-0.489-3.489,0,1,0,81,false,stim,false,0,552,0,1,1,53356,task3,1470613,false,false,1656,image-keyboard-response,18
true,23,0,1,0,true,q,false,true,0.0-2.0-0.54-0.490-3.490,0,1,0,81,false,stim,false,0,1646,0,1,1,53356,task3,1473790,false,false,1659,image-keyboard-response,19
true,23,1,1,1,true,z,false,true,0.0-2.0-0.54-0.491-3.491,0,1,0,90,false,stim,false,0,805,0,0,2,53356,task3,1476120,false,false,1662,image-keyboard-response,20
true,23,0,1,0,true,q,false,true,0.0-2.0-0.54-0.492-3.492,0,1,0,81,false,stim,false,2,629,0,0,0,53356,task3,1478268,false,false,1665,image-keyboard-response,21
true,23,0,1,0,true,q,false,true,0.0-2.0-0.54-0.493-3.493,0,1,0,81,false,stim,false,2,601,0,0,0,53356,task3,1480386,false,false,1668,image-keyboard-response,22
true,23,1,1,0,false,q,true,false,0.0-2.0-0.54-0.494-3.494,0,1,0,90,false,stim,false,0,856,0,0,1,53356,task3,1482757,false,false,1671,image-keyboard-response,23
true,23,0,1,1,false,z,false,false,0.0-2.0-0.55-0.495-3.495,0,1,0,81,false,stim,true,0,559,0,1,2,53356,task3,1484847,false,false,1674,image-keyboard-response,24
true,23,2,1,1,false,z,true,false,0.0-2.0-0.55-0.496-3.496,0,1,0,68,false,stim,false,0,1478,0,1,2,53356,task3,1487851,false,false,1677,image-keyboard-response,25
true,24,2,1,1,false,z,true,true,0.0-2.0-0.55-0.497-3.497,0,0,1,68,true,stim,false,0,962,0,0,1,53356,task3,1490333,false,true,1680,image-keyboard-response,1
true,24,0,1,2,false,d,false,false,0.0-2.0-0.55-0.498-3.498,0,0,1,81,false,stim,true,0,629,0,0,0,53356,task3,1492485,false,false,1683,image-keyboard-response,2
true,24,1,1,2,false,d,true,false,0.0-2.0-0.55-0.499-3.499,0,0,1,90,false,stim,false,0,1235,0,0,0,53356,task3,1495242,false,false,1686,image-keyboard-response,3
true,24,2,1,1,false,z,true,false,0.0-2.0-0.55-0.500-3.500,0,0,1,68,false,stim,false,0,606,0,0,1,53356,task3,1497369,false,false,1689,image-keyboard-response,4
true,24,2,1,2,true,d,false,true,0.0-2.0-0.55-0.501-3.501,0,0,1,68,false,stim,false,0,380,0,0,0,53356,task3,1499279,false,false,1692,image-keyboard-response,5
true,24,0,1,1,false,z,false,false,0.0-2.0-0.55-0.502-3.502,0,0,1,81,false,stim,true,0,382,0,0,1,53356,task3,1501180,false,false,1695,image-keyboard-response,6
true,24,0,1,1,false,z,true,true,0.0-2.0-0.55-0.503-3.503,0,0,1,81,false,stim,false,1,1504,0,1,2,53356,task3,1504212,false,true,1698,image-keyboard-response,7
true,24,1,1,1,true,z,false,true,0.0-2.0-0.56-0.504-3.504,0,0,1,90,false,stim,false,0,693,0,0,1,53356,task3,1506469,false,false,1701,image-keyboard-response,8
true,24,2,1,2,true,d,false,true,0.0-2.0-0.56-0.505-3.505,0,0,1,68,false,stim,false,0,305,0,0,0,53356,task3,1508304,false,false,1704,image-keyboard-response,9
true,24,0,1,1,false,z,true,false,0.0-2.0-0.56-0.506-3.506,0,0,1,81,false,stim,false,1,1957,0,1,2,53356,task3,1511786,false,false,1707,image-keyboard-response,10
true,24,1,1,1,true,z,false,true,0.0-2.0-0.56-0.507-3.507,0,0,1,90,false,stim,false,0,1057,0,0,1,53356,task3,1514357,false,false,1710,image-keyboard-response,11
true,24,2,1,1,false,z,true,false,0.0-2.0-0.56-0.508-3.508,0,0,1,68,false,stim,false,1,817,0,1,2,53356,task3,1516696,false,false,1713,image-keyboard-response,12
true,24,2,1,2,true,d,false,true,0.0-2.0-0.56-0.509-3.509,0,0,1,68,false,stim,false,0,932,0,0,0,53356,task3,1519163,false,false,1716,image-keyboard-response,13
true,24,0,1,1,false,z,true,false,0.0-2.0-0.56-0.510-3.510,0,0,1,81,false,stim,false,1,1122,0,1,2,53356,task3,1521812,false,false,1719,image-keyboard-response,14
true,24,2,1,2,true,d,false,true,0.0-2.0-0.56-0.511-3.511,0,0,1,68,false,stim,false,0,1178,0,0,0,53356,task3,1524518,false,false,1722,image-keyboard-response,15
true,24,1,1,1,true,z,false,true,0.0-2.0-0.56-0.512-3.512,0,0,1,90,false,stim,false,0,613,0,0,1,53356,task3,1526662,false,false,1725,image-keyboard-response,16
true,24,2,1,2,true,d,false,true,0.0-2.0-0.57-0.513-3.513,0,0,1,68,false,stim,false,0,1001,0,0,0,53356,task3,1529184,false,false,1728,image-keyboard-response,17
true,24,2,1,2,true,d,false,false,0.0-2.0-0.57-0.514-3.514,0,0,1,68,false,stim,false,0,484,0,0,0,53356,task3,1531199,false,true,1731,image-keyboard-response,18
true,24,1,1,1,true,z,false,true,0.0-2.0-0.57-0.515-3.515,0,0,1,90,false,stim,false,1,353,0,1,2,53356,task3,1533067,false,false,1734,image-keyboard-response,19
true,24,1,1,1,true,z,false,true,0.0-2.0-0.57-0.516-3.516,0,0,1,90,false,stim,false,1,719,0,1,2,53356,task3,1535302,false,false,1737,image-keyboard-response,20
true,24,1,1,1,true,z,false,true,0.0-2.0-0.57-0.517-3.517,0,0,1,90,false,stim,false,0,404,0,0,1,53356,task3,1537247,false,false,1740,image-keyboard-response,21
true,24,1,1,1,true,z,false,true,0.0-2.0-0.57-0.518-3.518,0,0,1,90,false,stim,false,1,639,0,1,2,53356,task3,1539425,false,false,1743,image-keyboard-response,22
true,24,1,1,1,true,z,false,true,0.0-2.0-0.57-0.519-3.519,0,0,1,90,false,stim,false,0,364,0,0,1,53356,task3,1541305,false,false,1746,image-keyboard-response,23
true,25,1,2,0,false,q,false,false,0.0-2.0-0.57-0.520-3.520,1,0,1,90,true,stim,true,1,320,0,0,1,53356,task3,1543153,false,false,1749,image-keyboard-response,1
true,25,1,2,2,false,d,true,false,0.0-2.0-0.57-0.521-3.521,1,0,1,90,false,stim,false,2,673,0,1,0,53356,task3,1545352,false,false,1752,image-keyboard-response,2
true,25,2,2,0,false,q,true,false,0.0-2.0-0.58-0.522-3.522,1,0,1,68,false,stim,false,1,1353,0,0,1,53356,task3,1548229,false,false,1755,image-keyboard-response,3
true,25,1,2,2,false,d,true,false,0.0-2.0-0.58-0.523-3.523,1,0,1,90,false,stim,false,2,803,0,1,0,53356,task3,1550557,false,false,1758,image-keyboard-response,4
true,25,0,2,0,true,q,false,true,0.0-2.0-0.58-0.524-3.524,1,0,1,81,false,stim,false,1,1360,0,0,1,53356,task3,1553434,false,false,1761,image-keyboard-response,5
true,25,0,2,0,true,q,false,true,0.0-2.0-0.58-0.525-3.525,1,0,1,81,false,stim,false,1,805,0,0,1,53356,task3,1555771,false,false,1764,image-keyboard-response,6
true,25,0,2,2,false,d,true,false,0.0-2.0-0.58-0.526-3.526,1,0,1,81,false,stim,false,2,560,0,1,0,53356,task3,1557865,false,false,1767,image-keyboard-response,7
true,25,1,2,1,true,z,false,true,0.0-2.0-0.58-0.527-3.527,1,0,1,90,false,stim,false,1,1413,0,1,2,53356,task3,1560817,false,false,1770,image-keyboard-response,8
true,25,1,2,1,true,z,false,true,0.0-2.0-0.58-0.528-3.528,1,0,1,90,false,stim,false,1,596,0,1,2,53356,task3,1562941,false,false,1773,image-keyboard-response,9
true,25,1,2,1,true,z,false,true,0.0-2.0-0.58-0.529-3.529,1,0,1,90,false,stim,false,1,419,0,1,2,53356,task3,1564889,false,false,1776,image-keyboard-response,10
true,25,2,2,2,true,d,false,true,0.0-2.0-0.58-0.530-3.530,1,0,1,68,false,stim,false,2,523,0,1,0,53356,task3,1566937,false,false,1779,image-keyboard-response,11
true,25,1,2,1,true,z,false,true,0.0-2.0-0.59-0.531-3.531,1,0,1,90,false,stim,false,1,629,0,1,2,53356,task3,1569089,false,false,1782,image-keyboard-response,12
true,25,1,2,1,true,z,false,false,0.0-2.0-0.59-0.532-3.532,1,0,1,90,false,stim,false,1,593,0,1,2,53356,task3,1571222,false,true,1785,image-keyboard-response,13
true,25,1,2,1,true,z,false,false,0.0-2.0-0.59-0.533-3.533,1,0,1,90,false,stim,false,1,505,0,1,2,53356,task3,1573249,false,true,1788,image-keyboard-response,14
false,26,-1,0,2,false,d,true,false,0.0-2.0-0.59-0.534-3.534,1,1,1,,true,stim,false,2,,0,1,0,53356,task3,1603134,false,false,1817,image-keyboard-response,1
false,26,-1,0,0,false,q,true,false,0.0-2.0-0.59-0.535-3.535,1,1,1,,false,stim,false,0,,0,1,1,53356,task3,1607667,false,false,1820,image-keyboard-response,2
true,26,0,0,0,true,q,false,true,0.0-2.0-0.59-0.536-3.536,1,1,1,81,false,stim,false,0,2288,0,1,1,53356,task3,1611482,false,false,1823,image-keyboard-response,3
true,26,0,0,0,true,q,false,true,0.0-2.0-0.59-0.537-3.537,1,1,1,81,false,stim,false,0,2953,0,1,1,53356,task3,1615962,false,false,1826,image-keyboard-response,4
true,26,1,0,2,false,d,true,false,0.0-2.0-0.59-0.538-3.538,1,1,1,90,false,stim,false,2,2167,0,1,0,53356,task3,1619657,false,false,1829,image-keyboard-response,5
true,26,2,0,2,true,d,false,true,0.0-2.0-0.59-0.539-3.539,1,1,1,68,false,stim,false,2,676,0,1,0,53356,task3,1621849,false,false,1832,image-keyboard-response,6
true,26,2,0,2,true,d,false,true,0.0-2.0-0.60-0.540-3.540,1,1,1,68,false,stim,false,2,720,0,1,0,53356,task3,1624103,false,false,1835,image-keyboard-response,7
true,26,0,0,0,true,q,false,true,0.0-2.0-0.60-0.541-3.541,1,1,1,81,false,stim,false,0,507,0,1,1,53356,task3,1626137,false,false,1838,image-keyboard-response,8
true,26,0,0,0,true,q,false,true,0.0-2.0-0.60-0.542-3.542,1,1,1,81,false,stim,false,0,473,0,1,1,53356,task3,1628138,false,false,1841,image-keyboard-response,9
true,26,0,0,0,true,q,false,true,0.0-2.0-0.60-0.543-3.543,1,1,1,81,false,stim,false,0,682,0,1,1,53356,task3,1630347,false,false,1844,image-keyboard-response,10
true,26,1,0,1,true,z,false,true,0.0-2.0-0.60-0.544-3.544,1,1,1,90,false,stim,false,1,1486,0,1,2,53356,task3,1633361,false,false,1847,image-keyboard-response,11
true,26,2,0,2,true,d,false,true,0.0-2.0-0.60-0.545-3.545,1,1,1,68,false,stim,false,2,1129,0,0,0,53356,task3,1636025,false,false,1850,image-keyboard-response,12
true,26,1,0,1,true,z,false,true,0.0-2.0-0.60-0.546-3.546,1,1,1,90,false,stim,false,1,1124,0,1,2,53356,task3,1638680,false,false,1853,image-keyboard-response,13
true,27,1,2,1,true,z,false,true,0.0-2.0-0.60-0.547-3.547,0,1,1,90,true,stim,false,1,561,0,1,2,53356,task3,1640757,false,false,1856,image-keyboard-response,1
true,27,2,2,1,false,z,false,false,0.0-2.0-0.60-0.548-3.548,0,1,1,68,false,stim,true,2,829,0,0,0,53356,task3,1643113,false,false,1859,image-keyboard-response,2
true,27,0,2,0,true,q,false,true,0.0-2.0-0.61-0.549-3.549,0,1,1,81,false,stim,false,0,1013,0,1,1,53356,task3,1645663,false,false,1862,image-keyboard-response,3
true,27,0,2,0,true,q,false,true,0.0-2.0-0.61-0.550-3.550,0,1,1,81,false,stim,false,0,599,0,1,1,53356,task3,1647799,false,false,1865,image-keyboard-response,4
true,27,1,2,1,true,z,false,true,0.0-2.0-0.61-0.551-3.551,0,1,1,90,false,stim,false,1,1177,0,1,2,53356,task3,1650501,false,false,1868,image-keyboard-response,5
true,27,0,2,1,false,z,true,false,0.0-2.0-0.61-0.552-3.552,0,1,1,81,false,stim,false,2,1693,0,0,0,53356,task3,1653713,false,false,1871,image-keyboard-response,6
true,27,1,2,1,true,z,false,true,0.0-2.0-0.61-0.553-3.553,0,1,1,90,false,stim,false,1,855,0,1,2,53356,task3,1656098,false,false,1874,image-keyboard-response,7
true,27,0,2,0,true,q,false,true,0.0-2.0-0.61-0.554-3.554,0,1,1,81,false,stim,false,0,1081,0,0,1,53356,task3,1658705,false,false,1877,image-keyboard-response,8
true,27,1,2,1,true,z,false,false,0.0-2.0-0.61-0.555-3.555,0,1,1,90,false,stim,false,2,1326,0,1,0,53356,task3,1661572,false,true,1880,image-keyboard-response,9
true,27,2,2,1,false,z,false,false,0.0-2.0-0.61-0.556-3.556,0,1,1,68,false,stim,true,2,857,0,1,0,53356,task3,1663955,false,false,1883,image-keyboard-response,10
true,27,0,2,1,false,z,true,false,0.0-2.0-0.61-0.557-3.557,0,1,1,81,false,stim,false,1,546,0,0,2,53356,task3,1666029,false,false,1886,image-keyboard-response,11
true,27,0,2,0,true,q,false,true,0.0-2.0-0.62-0.558-3.558,0,1,1,81,false,stim,false,0,384,0,0,1,53356,task3,1667937,false,false,1889,image-keyboard-response,12
true,28,0,1,2,false,d,false,false,0.0-2.0-0.62-0.559-3.559,1,0,0,81,true,stim,true,0,422,0,0,1,53356,task3,1669895,false,false,1892,image-keyboard-response,1
true,28,2,1,1,false,z,true,false,0.0-2.0-0.62-0.560-3.560,1,0,0,68,false,stim,false,1,1264,0,1,0,53356,task3,1672687,false,false,1895,image-keyboard-response,2
true,28,2,1,2,true,d,false,true,0.0-2.0-0.62-0.561-3.561,1,0,0,68,false,stim,false,0,382,0,0,1,53356,task3,1674596,false,false,1898,image-keyboard-response,3
true,28,1,1,1,true,z,false,true,0.0-2.0-0.62-0.562-3.562,1,0,0,90,false,stim,false,1,1426,0,1,0,53356,task3,1677590,false,false,1901,image-keyboard-response,4
true,28,1,1,1,true,z,false,true,0.0-2.0-0.62-0.563-3.563,1,0,0,90,false,stim,false,1,434,0,1,0,53356,task3,1679553,false,false,1904,image-keyboard-response,5
true,28,0,1,0,true,q,false,true,0.0-2.0-0.62-0.564-3.564,1,0,0,81,false,stim,false,1,2163,0,0,2,53356,task3,1683255,false,false,1907,image-keyboard-response,6
true,28,0,1,0,true,q,false,true,0.0-2.0-0.62-0.565-3.565,1,0,0,81,false,stim,false,1,655,0,0,2,53356,task3,1685445,false,false,1910,image-keyboard-response,7
true,28,0,1,0,true,q,false,true,0.0-2.0-0.62-0.566-3.566,1,0,0,81,false,stim,false,1,496,0,0,2,53356,task3,1687470,false,false,1913,image-keyboard-response,8
true,28,2,1,2,true,d,false,true,0.0-2.0-0.63-0.567-3.567,1,0,0,68,false,stim,false,0,960,0,0,1,53356,task3,1689963,false,false,1916,image-keyboard-response,9
true,28,1,1,1,true,z,false,true,0.0-2.0-0.63-0.568-3.568,1,0,0,90,false,stim,false,1,1063,0,1,0,53356,task3,1692547,false,false,1919,image-keyboard-response,10
true,28,0,1,2,false,d,false,false,0.0-2.0-0.63-0.569-3.569,1,0,0,81,false,stim,true,0,1275,0,0,1,53356,task3,1695344,false,false,1922,image-keyboard-response,11
true,28,1,1,1,true,z,false,true,0.0-2.0-0.63-0.570-3.570,1,0,0,90,false,stim,false,1,1364,0,1,0,53356,task3,1698243,false,false,1925,image-keyboard-response,12
true,28,2,1,2,true,d,false,false,0.0-2.0-0.63-0.571-3.571,1,0,0,68,false,stim,false,0,664,0,0,1,53356,task3,1700430,false,true,1928,image-keyboard-response,13
true,28,0,1,0,true,q,false,true,0.0-2.0-0.63-0.572-3.572,1,0,0,81,false,stim,false,1,1429,0,0,2,53356,task3,1703384,false,false,1931,image-keyboard-response,14
true,28,1,1,1,true,z,false,true,0.0-2.0-0.63-0.573-3.573,1,0,0,90,false,stim,false,1,977,0,1,0,53356,task3,1705892,false,false,1934,image-keyboard-response,15
true,28,0,1,0,true,q,false,true,0.0-2.0-0.63-0.574-3.574,1,0,0,81,false,stim,false,1,1246,0,0,2,53356,task3,1708660,false,false,1937,image-keyboard-response,16
true,28,0,1,0,true,q,false,true,0.0-2.0-0.63-0.575-3.575,1,0,0,81,false,stim,false,1,795,0,0,2,53356,task3,1710995,false,false,1940,image-keyboard-response,17
true,28,0,1,0,true,q,false,true,0.0-2.0-0.64-0.576-3.576,1,0,0,81,false,stim,false,1,428,0,0,2,53356,task3,1712955,false,false,1943,image-keyboard-response,18
true,28,1,1,1,true,z,false,true,0.0-2.0-0.64-0.577-3.577,1,0,0,90,false,stim,false,1,1026,0,1,0,53356,task3,1715507,false,false,1946,image-keyboard-response,19
true,28,1,1,2,false,d,true,false,0.0-2.0-0.64-0.578-3.578,1,0,0,90,false,stim,false,0,569,0,0,1,53356,task3,1717602,false,false,1949,image-keyboard-response,20
true,28,1,1,1,true,z,false,true,0.0-2.0-0.64-0.579-3.579,1,0,0,90,false,stim,false,1,1188,0,1,0,53356,task3,1720318,false,false,1952,image-keyboard-response,21
true,28,0,1,2,false,d,false,true,0.0-2.0-0.64-0.580-3.580,1,0,0,81,false,stim,true,0,1625,0,0,1,53356,task3,1723468,false,true,1955,image-keyboard-response,22
true,28,0,1,0,true,q,false,true,0.0-2.0-0.64-0.581-3.581,1,0,0,81,false,stim,false,1,388,0,1,2,53356,task3,1725385,false,false,1958,image-keyboard-response,23
true,28,0,1,2,false,d,false,false,0.0-2.0-0.64-0.582-3.582,1,0,0,81,false,stim,true,0,433,0,0,1,53356,task3,1727342,false,false,1961,image-keyboard-response,24
true,29,1,2,1,true,z,false,false,0.0-2.0-0.64-0.583-3.583,1,0,1,90,true,stim,false,1,999,0,1,0,53356,task3,1729872,false,true,1964,image-keyboard-response,1
true,29,0,2,0,true,q,false,true,0.0-2.0-0.64-0.584-3.584,1,0,1,81,false,stim,false,0,443,0,1,2,53356,task3,1731852,false,false,1967,image-keyboard-response,2
true,29,2,2,0,false,q,false,false,0.0-2.0-0.65-0.585-3.585,1,0,1,68,false,stim,true,2,680,0,0,1,53356,task3,1734068,false,false,1970,image-keyboard-response,3
true,29,1,2,0,false,q,true,false,0.0-2.0-0.65-0.586-3.586,1,0,1,90,false,stim,false,2,1823,0,0,1,53356,task3,1737425,false,false,1973,image-keyboard-response,4
true,29,0,2,0,true,q,false,false,0.0-2.0-0.65-0.587-3.587,1,0,1,81,false,stim,false,0,675,0,1,2,53356,task3,1739630,false,true,1976,image-keyboard-response,5
true,29,2,2,1,false,z,true,false,0.0-2.0-0.65-0.588-3.588,1,0,1,68,false,stim,false,1,611,0,1,0,53356,task3,1741774,false,false,1979,image-keyboard-response,6
true,29,0,2,1,false,z,true,false,0.0-2.0-0.65-0.589-3.589,1,0,1,81,false,stim,false,1,667,0,1,0,53356,task3,1743972,false,false,1982,image-keyboard-response,7
true,29,2,2,0,false,q,false,false,0.0-2.0-0.65-0.590-3.590,1,0,1,68,false,stim,true,2,1348,0,0,1,53356,task3,1746853,false,false,1985,image-keyboard-response,8
true,29,0,2,0,true,q,false,false,0.0-2.0-0.65-0.591-3.591,1,0,1,81,false,stim,false,0,353,0,1,2,53356,task3,1748744,false,true,1988,image-keyboard-response,9
true,29,1,2,1,true,z,false,true,0.0-2.0-0.65-0.592-3.592,1,0,1,90,false,stim,false,1,1211,0,1,0,53356,task3,1751486,false,false,1991,image-keyboard-response,10
true,29,2,2,0,false,q,true,false,0.0-2.0-0.65-0.593-3.593,1,0,1,68,false,stim,false,0,712,0,0,2,53356,task3,1753726,false,false,1994,image-keyboard-response,11
true,29,1,2,0,false,q,true,false,0.0-2.0-0.66-0.594-3.594,1,0,1,90,false,stim,false,2,932,0,1,1,53356,task3,1756195,false,false,1997,image-keyboard-response,12
true,29,1,2,1,true,z,false,true,0.0-2.0-0.66-0.595-3.595,1,0,1,90,false,stim,false,1,489,0,1,0,53356,task3,1758220,false,false,2000,image-keyboard-response,13
true,29,1,2,0,false,q,true,false,0.0-2.0-0.66-0.596-3.596,1,0,1,90,false,stim,false,0,762,0,0,2,53356,task3,1760542,false,false,2003,image-keyboard-response,14
true,30,1,2,1,true,z,false,true,0.0-2.0-0.66-0.597-3.597,1,1,0,90,true,stim,false,1,421,0,1,0,53356,task3,1762490,false,false,2006,image-keyboard-response,1
true,30,0,2,0,true,q,false,true,0.0-2.0-0.66-0.598-3.598,1,1,0,81,false,stim,false,0,608,0,1,1,53356,task3,1764632,false,false,2009,image-keyboard-response,2
true,30,0,2,2,false,d,false,false,0.0-2.0-0.66-0.599-3.599,1,1,0,81,false,stim,true,0,1009,0,0,2,53356,task3,1767170,false,false,2012,image-keyboard-response,3
true,30,0,2,0,true,q,false,true,0.0-2.0-0.66-0.600-3.600,1,1,0,81,false,stim,false,0,943,0,1,1,53356,task3,1769637,false,false,2015,image-keyboard-response,4
true,30,1,2,1,true,z,false,true,0.0-2.0-0.66-0.601-3.601,1,1,0,90,false,stim,false,1,979,0,1,0,53356,task3,1772141,false,false,2018,image-keyboard-response,5
true,30,2,2,2,true,d,false,true,0.0-2.0-0.66-0.602-3.602,1,1,0,68,false,stim,false,0,504,0,0,2,53356,task3,1774172,false,false,2021,image-keyboard-response,6
true,30,0,2,0,true,q,false,true,0.0-2.0-0.67-0.603-3.603,1,1,0,81,false,stim,false,0,2333,0,1,1,53356,task3,1778022,false,false,2024,image-keyboard-response,7
true,30,2,2,2,true,d,false,true,0.0-2.0-0.67-0.604-3.604,1,1,0,68,false,stim,false,0,581,0,0,2,53356,task3,1780136,false,false,2027,image-keyboard-response,8
true,30,0,2,0,true,q,false,false,0.0-2.0-0.67-0.605-3.605,1,1,0,81,false,stim,false,0,1237,0,0,1,53356,task3,1782893,false,true,2030,image-keyboard-response,9
true,30,1,2,1,true,z,false,true,0.0-2.0-0.67-0.606-3.606,1,1,0,90,false,stim,false,1,1194,0,1,0,53356,task3,1785609,false,false,2033,image-keyboard-response,10
true,30,1,2,1,true,z,false,true,0.0-2.0-0.67-0.607-3.607,1,1,0,90,false,stim,false,1,594,0,1,0,53356,task3,1787718,false,false,2036,image-keyboard-response,11
true,30,2,2,0,false,q,true,false,0.0-2.0-0.67-0.608-3.608,1,1,0,68,false,stim,false,0,886,0,0,1,53356,task3,1790137,false,false,2039,image-keyboard-response,12
true,30,2,2,2,true,d,false,true,0.0-2.0-0.67-0.609-3.609,1,1,0,68,false,stim,false,0,385,0,1,2,53356,task3,1792056,false,false,2042,image-keyboard-response,13
true,31,1,2,1,true,z,false,false,0.0-2.0-0.67-0.610-3.610,1,0,1,90,true,stim,false,1,571,0,1,0,53356,task3,1794157,false,true,2045,image-keyboard-response,1
true,31,2,2,2,true,d,false,true,0.0-2.0-0.67-0.611-3.611,1,0,1,68,false,stim,false,2,821,0,1,2,53356,task3,1796507,false,false,2048,image-keyboard-response,2
true,31,1,2,1,true,z,false,true,0.0-2.0-0.68-0.612-3.612,1,0,1,90,false,stim,false,0,1187,0,0,1,53356,task3,1799226,false,false,2051,image-keyboard-response,3
true,31,1,2,1,true,z,false,true,0.0-2.0-0.68-0.613-3.613,1,0,1,90,false,stim,false,0,687,0,0,1,53356,task3,1801447,false,false,2054,image-keyboard-response,4
true,31,0,2,1,false,z,true,true,0.0-2.0-0.68-0.614-3.614,1,0,1,81,false,stim,false,1,1497,0,1,0,53356,task3,1804461,false,true,2057,image-keyboard-response,5
true,31,2,2,2,true,d,false,true,0.0-2.0-0.68-0.615-3.615,1,0,1,68,false,stim,false,2,747,0,1,2,53356,task3,1806733,false,false,2060,image-keyboard-response,6
true,31,0,2,1,false,z,true,true,0.0-2.0-0.68-0.616-3.616,1,0,1,81,false,stim,false,1,1430,0,0,0,53356,task3,1809684,false,true,2063,image-keyboard-response,7
true,31,0,2,1,false,z,true,false,0.0-2.0-0.68-0.617-3.617,1,0,1,81,false,stim,false,1,609,0,0,0,53356,task3,1811811,false,false,2066,image-keyboard-response,8
false,31,-1,2,1,false,z,true,false,0.0-2.0-0.68-0.618-3.618,1,0,1,,false,stim,false,0,,0,1,1,53356,task3,1816352,false,false,2069,image-keyboard-response,9
true,31,2,2,2,true,d,false,false,0.0-2.0-0.68-0.619-3.619,1,0,1,68,false,stim,false,2,810,0,0,2,53356,task3,1818683,false,true,2072,image-keyboard-response,10
true,31,0,2,2,false,d,true,false,0.0-2.0-0.68-0.620-3.620,1,0,1,81,false,stim,false,2,1568,0,0,2,53356,task3,1821780,false,false,2075,image-keyboard-response,11
true,32,0,1,0,true,q,false,true,0.0-2.0-0.69-0.621-3.621,0,1,0,81,true,stim,false,1,1204,0,0,0,53356,task3,1824519,false,false,2078,image-keyboard-response,1
true,32,1,1,0,false,q,true,false,0.0-2.0-0.69-0.622-3.622,0,1,0,90,false,stim,false,2,2094,0,0,2,53356,task3,1828135,false,false,2081,image-keyboard-response,2
true,32,2,1,1,false,z,true,false,0.0-2.0-0.69-0.623-3.623,0,1,0,68,false,stim,false,1,674,0,1,1,53356,task3,1830330,false,false,2084,image-keyboard-response,3
true,32,1,1,1,true,z,false,true,0.0-2.0-0.69-0.624-3.624,0,1,0,90,false,stim,false,1,1616,0,1,1,53356,task3,1833473,false,false,2087,image-keyboard-response,4
true,32,0,1,0,true,q,false,true,0.0-2.0-0.69-0.625-3.625,0,1,0,81,false,stim,false,1,773,0,0,0,53356,task3,1835771,false,false,2090,image-keyboard-response,5
true,32,1,1,1,true,z,false,true,0.0-2.0-0.69-0.626-3.626,0,1,0,90,false,stim,false,1,1635,0,1,1,53356,task3,1838945,false,false,2093,image-keyboard-response,6
true,32,0,1,0,true,q,false,true,0.0-2.0-0.69-0.627-3.627,0,1,0,81,false,stim,false,1,773,0,0,0,53356,task3,1841258,false,false,2096,image-keyboard-response,7
true,32,2,1,0,false,q,false,true,0.0-2.0-0.69-0.628-3.628,0,1,0,68,false,stim,true,2,1588,0,0,2,53356,task3,1844375,false,true,2099,image-keyboard-response,8
true,32,2,1,0,false,q,false,false,0.0-2.0-0.69-0.629-3.629,0,1,0,68,false,stim,true,2,1035,0,0,2,53356,task3,1846971,false,false,2102,image-keyboard-response,9
false,32,-1,1,0,false,q,true,false,0.0-2.0-0.70-0.630-3.630,0,1,0,,false,stim,false,2,,0,0,2,53356,task3,1851517,false,false,2105,image-keyboard-response,10
true,32,1,1,0,false,q,true,false,0.0-2.0-0.70-0.631-3.631,0,1,0,90,false,stim,false,2,672,0,0,2,53356,task3,1853727,false,false,2108,image-keyboard-response,11
true,32,2,1,0,false,q,false,false,0.0-2.0-0.70-0.632-3.632,0,1,0,68,false,stim,true,2,377,0,0,2,53356,task3,1855629,false,false,2111,image-keyboard-response,12
