answered,blockNum,choice,condition,corResp,correct,correct_response,explo,fb,internal_node_id,isStable_1,isStable_2,isStable_3,key_press,newBlock,part,persev,persevResp,rt,sessNum,stableAS,stimulus,subject,task,time_elapsed,training,trap,trial_index,trial_type,trialsInBlock
true,1,1,0,1,true,z,false,true,0.0-2.0-0.0-0.0-3.0,0,0,0,90,true,stim,false,-1,1470,2,0,1,53356,task2,183388,false,false,184,image-keyboard-response,1
true,1,1,0,2,false,d,true,false,0.0-2.0-0.0-0.1-3.1,0,0,0,90,false,stim,false,-1,925,2,0,2,53356,task2,185841,false,false,187,image-keyboard-response,2
true,1,1,0,2,false,d,true,false,0.0-2.0-0.0-0.2-3.2,0,0,0,90,false,stim,false,-1,532,2,0,2,53356,task2,187909,false,false,190,image-keyboard-response,3
true,1,1,0,1,true,z,false,true,0.0-2.0-0.0-0.3-3.3,0,0,0,90,false,stim,false,-1,690,2,0,1,53356,task2,190125,false,false,193,image-keyboard-response,4
true,1,1,0,1,true,z,false,true,0.0-2.0-0.0-0.4-3.4,0,0,0,90,false,stim,false,-1,476,2,0,0,53356,task2,192127,false,false,196,image-keyboard-response,5
true,1,2,0,2,true,d,false,true,0.0-2.0-0.0-0.5-3.5,0,0,0,68,false,stim,false,-1,1001,2,0,2,53356,task2,194654,false,false,199,image-keyboard-response,6
true,1,1,0,1,true,z,false,true,0.0-2.0-0.0-0.6-3.6,0,0,0,90,false,stim,false,-1,390,2,0,0,53356,task2,196586,false,false,202,image-keyboard-response,7
true,1,1,0,1,true,z,false,true,0.0-2.0-0.0-0.7-3.7,0,0,0,90,false,stim,false,-1,1595,2,0,0,53356,task2,199721,false,false,205,image-keyboard-response,8
true,1,1,0,1,true,z,false,true,0.0-2.0-0.0-0.8-3.8,0,0,0,90,false,stim,false,-1,443,2,0,1,53356,task2,201694,false,false,208,image-keyboard-response,9
true,1,2,0,2,true,d,false,true,0.0-2.0-0.1-0.9-3.9,0,0,0,68,false,stim,false,-1,416,2,0,2,53356,task2,203652,false,false,211,image-keyboard-response,10
true,1,2,0,2,true,d,false,false,0.0-2.0-0.1-0.10-3.10,0,0,0,68,false,stim,false,-1,680,2,0,2,53356,task2,205877,false,true,214,image-keyboard-response,11
true,1,1,0,2,false,d,true,false,0.0-2.0-0.1-0.11-3.11,0,0,0,90,false,stim,false,-1,983,2,0,2,53356,task2,208399,false,false,217,image-keyboard-response,12
true,1,1,0,1,true,z,false,true,0.0-2.0-0.1-0.12-3.12,0,0,0,90,false,stim,false,-1,495,2,0,1,53356,task2,210432,false,false,220,image-keyboard-response,13
true,1,1,0,1,true,z,false,true,0.0-2.0-0.1-0.13-3.13,0,0,0,90,false,stim,false,-1,448,2,0,0,53356,task2,212401,false,false,223,image-keyboard-response,14
true,1,1,0,1,true,z,false,true,0.0-2.0-0.1-0.14-3.14,0,0,0,90,false,stim,false,-1,454,2,0,0,53356,task2,214390,false,false,226,image-keyboard-response,15
true,1,1,0,1,true,z,false,true,0.0-2.0-0.1-0.15-3.15,0,0,0,90,false,stim,false,-1,438,2,0,1,53356,task2,216355,false,false,229,image-keyboard-response,16
true,1,1,0,1,true,z,false,true,0.0-2.0-0.1-0.16-3.16,0,0,0,90,false,stim,false,-1,424,2,0,1,53356,task2,218310,false,false,232,image-keyboard-response,17
true,1,1,0,1,true,z,false,true,0.0-2.0-0.1-0.17-3.17,0,0,0,90,false,stim,false,-1,375,2,0,0,53356,task2,220221,false,false,235,image-keyboard-response,18
true,1,1,0,1,true,z,false,true,0.0-2.0-0.2-0.18-3.18,0,0,0,90,false,stim,false,-1,405,2,0,1,53356,task2,222157,false,false,238,image-keyboard-response,19
true,1,2,0,2,true,d,false,true,0.0-2.0-0.2-0.19-3.19,0,0,0,68,false,stim,false,-1,435,2,0,2,53356,task2,224131,false,false,241,image-keyboard-response,20
true,1,1,0,1,true,z,false,true,0.0-2.0-0.2-0.20-3.20,0,0,0,90,false,stim,false,-1,720,2,0,0,53356,task2,226372,false,false,244,image-keyboard-response,21
true,1,2,0,2,true,d,false,true,0.0-2.0-0.2-0.21-3.21,0,0,0,68,false,stim,false,-1,427,2,1,2,53356,task2,228333,false,false,247,image-keyboard-response,22
true,1,2,0,2,true,d,false,true,0.0-2.0-0.2-0.22-3.22,0,0,0,68,false,stim,false,-1,520,2,1,2,53356,task2,230387,false,false,250,image-keyboard-response,23
true,1,1,0,1,true,z,false,false,0.0-2.0-0.2-0.23-3.23,0,0,0,90,false,stim,false,-1,629,2,0,0,53356,task2,232535,false,true,253,image-keyboard-response,24
true,1,1,0,1,true,z,false,true,0.0-2.0-0.2-0.24-3.24,0,0,0,90,false,stim,false,-1,919,2,0,1,53356,task2,234995,false,false,256,image-keyboard-response,25
true,1,2,0,1,false,z,true,false,0.0-2.0-0.2-0.25-3.25,0,0,0,68,false,stim,false,-1,808,2,0,0,53356,task2,237344,false,false,259,image-keyboard-response,26
true,2,1,2,0,false,q,false,true,0.0-2.0-0.2-0.26-3.26,0,0,1,90,true,stim,true,1,680,2,0,1,53356,task2,239546,false,true,262,image-keyboard-response,1
true,2,1,2,0,false,q,false,false,0.0-2.0-0.3-0.27-3.27,0,0,1,90,false,stim,true,1,634,2,0,1,53356,task2,241720,false,false,265,image-keyboard-response,2
true,2,1,2,0,false,q,false,false,0.0-2.0-0.3-0.28-3.28,0,0,1,90,false,stim,true,1,942,2,0,0,53356,task2,244194,false,false,268,image-keyboard-response,3
true,2,1,2,2,false,d,true,false,0.0-2.0-0.3-0.29-3.29,0,0,1,90,false,stim,false,2,1162,2,1,2,53356,task2,246898,false,false,271,image-keyboard-response,4
true,2,2,2,2,true,d,false,true,0.0-2.0-0.3-0.30-3.30,0,0,1,68,false,stim,false,2,388,2,1,2,53356,task2,248824,false,false,274,image-keyboard-response,5
true,2,1,2,0,false,q,false,false,0.0-2.0-0.3-0.31-3.31,0,0,1,90,false,stim,true,1,277,2,0,1,53356,task2,250629,false,false,277,image-keyboard-response,6
true,2,2,2,2,true,d,false,true,0.0-2.0-0.3-0.32-3.32,0,0,1,68,false,stim,false,2,743,2,1,2,53356,task2,252895,false,false,280,image-keyboard-response,7
true,2,1,2,0,false,q,false,false,0.0-2.0-0.3-0.33-3.33,0,0,1,90,false,stim,true,1,492,2,0,0,53356,task2,254929,false,false,283,image-keyboard-response,8
true,2,2,2,0,false,q,true,true,0.0-2.0-0.3-0.34-3.34,0,0,1,68,false,stim,false,1,276,2,0,1,53356,task2,256726,false,true,286,image-keyboard-response,9
true,2,2,2,0,false,q,true,false,0.0-2.0-0.3-0.35-3.35,0,0,1,68,false,stim,false,1,280,2,0,0,53356,task2,258531,false,false,289,image-keyboard-response,10
true,2,2,2,0,false,q,true,false,0.0-2.0-0.4-0.36-3.36,0,0,1,68,false,stim,false,1,727,2,0,1,53356,task2,260778,false,false,292,image-keyboard-response,11
true,2,1,2,0,false,q,false,false,0.0-2.0-0.4-0.37-3.37,0,0,1,90,false,stim,true,1,393,2,0,1,53356,task2,262709,false,false,295,image-keyboard-response,12
true,2,2,2,0,false,q,true,false,0.0-2.0-0.4-0.38-3.38,0,0,1,68,false,stim,false,1,764,2,0,0,53356,task2,264999,false,false,298,image-keyboard-response,13
true,2,2,2,0,false,q,true,false,0.0-2.0-0.4-0.39-3.39,0,0,1,68,false,stim,false,1,324,2,0,1,53356,task2,266865,false,false,301,image-keyboard-response,14
true,2,2,2,2,true,d,false,true,0.0-2.0-0.4-0.40-3.40,0,0,1,68,false,stim,false,2,606,2,1,2,53356,task2,269002,false,false,304,image-keyboard-response,15
true,2,0,2,0,true,q,false,true,0.0-2.0-0.4-0.41-3.41,0,0,1,81,false,stim,false,1,283,2,0,0,53356,task2,270819,false,false,307,image-keyboard-response,16
true,2,0,2,2,false,d,true,false,0.0-2.0-0.4-0.42-3.42,0,0,1,81,false,stim,false,2,471,2,1,2,53356,task2,272822,false,false,310,image-keyboard-response,17
true,2,0,2,0,true,q,false,true,0.0-2.0-0.4-0.43-3.43,0,0,1,81,false,stim,false,1,411,2,0,0,53356,task2,274762,false,false,313,image-keyboard-response,18
true,2,2,2,2,true,d,false,true,0.0-2.0-0.4-0.44-3.44,0,0,1,68,false,stim,false,2,431,2,1,2,53356,task2,276728,false,false,316,image-keyboard-response,19
true,2,2,2,2,true,d,false,true,0.0-2.0-0.5-0.45-3.45,0,0,1,68,false,stim,false,2,488,2,1,2,53356,task2,278739,false,false,319,image-keyboard-response,20
true,2,0,2,0,true,q,false,true,0.0-2.0-0.5-0.46-3.46,0,0,1,81,false,stim,false,1,752,2,0,1,53356,task2,281027,false,false,322,image-keyboard-response,21
true,2,2,2,0,false,q,true,false,0.0-2.0-0.5-0.47-3.47,0,0,1,68,false,stim,false,1,442,2,0,1,53356,task2,283008,false,false,325,image-keyboard-response,22
true,2,2,2,2,true,d,false,true,0.0-2.0-0.5-0.48-3.48,0,0,1,68,false,stim,false,2,502,2,1,2,53356,task2,285048,false,false,328,image-keyboard-response,23
true,2,0,2,0,true,q,false,true,0.0-2.0-0.5-0.49-3.49,0,0,1,81,false,stim,false,1,555,2,0,0,53356,task2,287141,false,false,331,image-keyboard-response,24
true,2,0,2,0,true,q,false,true,0.0-2.0-0.5-0.50-3.50,0,0,1,81,false,stim,false,1,500,2,0,0,53356,task2,289167,false,false,334,image-keyboard-response,25
true,2,0,2,0,true,q,false,true,0.0-2.0-0.5-0.51-3.51,0,0,1,81,false,stim,false,1,434,2,0,0,53356,task2,291122,false,false,337,image-keyboard-response,26
true,2,0,2,0,true,q,false,true,0.0-2.0-0.5-0.52-3.52,0,0,1,81,false,stim,false,1,427,2,0,1,53356,task2,293079,false,false,340,image-keyboard-response,27
true,2,2,2,2,true,d,false,true,0.0-2.0-0.5-0.53-3.53,0,0,1,68,false,stim,false,2,405,2,1,2,53356,task2,295011,false,false,343,image-keyboard-response,28
true,2,0,2,0,true,q,false,true,0.0-2.0-0.6-0.54-3.54,0,0,1,81,false,stim,false,1,772,2,0,0,53356,task2,297318,false,false,346,image-keyboard-response,29
true,2,2,2,2,true,d,false,false,0.0-2.0-0.6-0.55-3.55,0,0,1,68,false,stim,false,2,645,2,0,2,53356,task2,299491,false,true,349,image-keyboard-response,30
true,2,0,2,0,true,q,false,false,0.0-2.0-0.6-0.56-3.56,0,0,1,81,false,stim,false,1,620,2,1,0,53356,task2,301637,false,true,352,image-keyboard-response,31
true,2,2,2,2,true,d,false,true,0.0-2.0-0.6-0.57-3.57,0,0,1,68,false,stim,false,2,943,2,0,2,53356,task2,304119,false,false,355,image-keyboard-response,32
true,2,0,2,0,true,q,false,true,0.0-2.0-0.6-0.58-3.58,0,0,1,81,false,stim,false,1,738,2,0,1,53356,task2,306390,false,false,358,image-keyboard-response,33
true,2,0,2,0,true,q,false,true,0.0-2.0-0.6-0.59-3.59,0,0,1,81,false,stim,false,1,379,2,1,0,53356,task2,308294,false,false,361,image-keyboard-response,34
true,3,0,2,1,false,z,false,false,0.0-2.0-0.6-0.60-3.60,1,0,0,81,true,stim,true,0,655,2,0,1,53356,task2,310491,false,false,364,image-keyboard-response,1
true,3,2,2,1,false,z,false,true,0.0-2.0-0.6-0.61-3.61,1,0,0,68,false,stim,true,2,666,2,0,2,53356,task2,312683,false,true,367,image-keyboard-response,2
true,3,0,2,1,false,z,false,false,0.0-2.0-0.6-0.62-3.62,1,0,0,81,false,stim,true,0,485,2,0,1,53356,task2,314700,false,false,370,image-keyboard-response,3
true,3,0,2,1,false,z,false,false,0.0-2.0-0.7-0.63-3.63,1,0,0,81,false,stim,true,0,1306,2,0,1,53356,task2,317542,false,false,373,image-keyboard-response,4
true,3,2,2,0,false,q,true,false,0.0-2.0-0.7-0.64-3.64,1,0,0,68,false,stim,false,0,479,2,1,0,53356,task2,319555,false,false,376,image-keyboard-response,5
true,3,2,2,1,false,z,false,false,0.0-2.0-0.7-0.65-3.65,1,0,0,68,false,stim,true,2,421,2,0,2,53356,task2,321517,false,false,379,image-keyboard-response,6
true,3,0,2,1,false,z,true,true,0.0-2.0-0.7-0.66-3.66,1,0,0,81,false,stim,false,2,845,2,0,2,53356,task2,323891,false,true,382,image-keyboard-response,7
true,3,2,2,1,false,z,true,false,0.0-2.0-0.7-0.67-3.67,1,0,0,68,false,stim,false,0,1112,2,0,1,53356,task2,326538,false,false,385,image-keyboard-response,8
true,3,0,2,1,false,z,false,false,0.0-2.0-0.7-0.68-3.68,1,0,0,81,false,stim,true,0,811,2,0,1,53356,task2,328877,false,false,388,image-keyboard-response,9
true,3,0,2,1,false,z,true,false,0.0-2.0-0.7-0.69-3.69,1,0,0,81,false,stim,false,2,381,2,0,2,53356,task2,330787,false,false,391,image-keyboard-response,10
true,3,0,2,0,true,q,false,true,0.0-2.0-0.7-0.70-3.70,1,0,0,81,false,stim,false,0,692,2,1,0,53356,task2,333018,false,false,394,image-keyboard-response,11
true,3,0,2,0,true,q,false,true,0.0-2.0-0.7-0.71-3.71,1,0,0,81,false,stim,false,0,632,2,1,0,53356,task2,335178,false,false,397,image-keyboard-response,12
true,3,0,2,0,true,q,false,true,0.0-2.0-0.8-0.72-3.72,1,0,0,81,false,stim,false,0,460,2,1,0,53356,task2,337166,false,false,400,image-keyboard-response,13
true,3,1,2,1,true,z,false,true,0.0-2.0-0.8-0.73-3.73,1,0,0,90,false,stim,false,0,947,2,0,1,53356,task2,339653,false,false,403,image-keyboard-response,14
true,3,1,2,1,true,z,false,true,0.0-2.0-0.8-0.74-3.74,1,0,0,90,false,stim,false,2,428,2,0,2,53356,task2,341624,false,false,406,image-keyboard-response,15
true,3,1,2,1,true,z,false,true,0.0-2.0-0.8-0.75-3.75,1,0,0,90,false,stim,false,0,726,2,0,1,53356,task2,343878,false,false,409,image-keyboard-response,16
true,3,1,2,1,true,z,false,true,0.0-2.0-0.8-0.76-3.76,1,0,0,90,false,stim,false,2,480,2,0,2,53356,task2,345896,false,false,412,image-keyboard-response,17
true,3,1,2,1,true,z,false,true,0.0-2.0-0.8-0.77-3.77,1,0,0,90,false,stim,false,2,608,2,0,2,53356,task2,348043,false,false,415,image-keyboard-response,18
true,3,0,2,0,true,q,false,true,0.0-2.0-0.8-0.78-3.78,1,0,0,81,false,stim,false,0,2310,2,1,0,53356,task2,351886,false,false,418,image-keyboard-response,19
true,3,1,2,1,true,z,false,false,0.0-2.0-0.8-0.79-3.79,1,0,0,90,false,stim,false,0,588,2,0,1,53356,task2,354005,false,true,421,image-keyboard-response,20
true,3,0,2,0,true,q,false,true,0.0-2.0-0.8-0.80-3.80,1,0,0,81,false,stim,false,0,755,2,1,0,53356,task2,356291,false,false,424,image-keyboard-response,21
true,3,1,2,1,true,z,false,true,0.0-2.0-0.9-0.81-3.81,1,0,0,90,false,stim,false,2,791,2,0,2,53356,task2,358606,false,false,427,image-keyboard-response,22
true,3,1,2,1,true,z,false,true,0.0-2.0-0.9-0.82-3.82,1,0,0,90,false,stim,false,2,623,2,0,2,53356,task2,360760,false,false,430,image-keyboard-response,23
true,3,1,2,1,true,z,false,true,0.0-2.0-0.9-0.83-3.83,1,0,0,90,false,stim,false,0,529,2,0,1,53356,task2,362816,false,false,433,image-keyboard-response,24
true,3,0,2,0,true,q,false,true,0.0-2.0-0.9-0.84-3.84,1,0,0,81,false,stim,false,0,925,2,1,0,53356,task2,365269,false,false,436,image-keyboard-response,25
true,3,0,2,0,true,q,false,true,0.0-2.0-0.9-0.85-3.85,1,0,0,81,false,stim,false,0,843,2,1,0,53356,task2,367649,false,false,439,image-keyboard-response,26
true,3,1,2,1,true,z,false,true,0.0-2.0-0.9-0.86-3.86,1,0,0,90,false,stim,false,0,492,2,0,1,53356,task2,369688,false,false,442,image-keyboard-response,27
true,3,1,2,1,true,z,false,true,0.0-2.0-0.9-0.87-3.87,1,0,0,90,false,stim,false,2,1008,2,0,2,53356,task2,372224,false,false,445,image-keyboard-response,28
true,3,0,2,0,true,q,false,true,0.0-2.0-0.9-0.88-3.88,1,0,0,81,false,stim,false,0,938,2,1,0,53356,task2,374689,false,false,448,image-keyboard-response,29
true,3,1,2,1,true,z,false,true,0.0-2.0-0.9-0.89-3.89,1,0,0,90,false,stim,false,0,833,2,0,1,53356,task2,377049,false,false,451,image-keyboard-response,30
true,3,1,2,1,true,z,false,true,0.0-2.0-0.10-0.90-3.90,1,0,0,90,false,stim,false,2,706,2,0,2,53356,task2,379302,false,false,454,image-keyboard-response,31
true,3,1,2,1,true,z,false,true,0.0-2.0-0.10-0.91-3.91,1,0,0,90,false,stim,false,2,677,2,0,2,53356,task2,381514,false,false,457,image-keyboard-response,32
true,3,0,2,0,true,q,false,true,0.0-2.0-0.10-0.92-3.92,1,0,0,81,false,stim,false,0,389,2,0,0,53356,task2,383440,false,false,460,image-keyboard-response,33
true,3,1,2,1,true,z,false,true,0.0-2.0-0.10-0.93-3.93,1,0,0,90,false,stim,false,0,591,2,0,1,53356,task2,385559,false,false,463,image-keyboard-response,34
true,4,0,1,1,false,z,false,false,0.0-2.0-0.10-0.94-3.94,0,0,0,81,true,stim,true,0,710,2,0,0,53356,task2,387786,false,false,466,image-keyboard-response,1
true,4,1,1,2,false,d,false,false,0.0-2.0-0.10-0.95-3.95,0,0,0,90,false,stim,true,1,676,2,0,2,53356,task2,390001,false,false,469,image-keyboard-response,2
true,4,1,1,0,false,q,false,false,0.0-2.0-0.10-0.96-3.96,0,0,0,90,false,stim,true,1,858,2,0,1,53356,task2,392384,false,false,472,image-keyboard-response,3
true,4,0,1,0,true,q,false,true,0.0-2.0-0.10-0.97-3.97,0,0,0,81,false,stim,false,1,691,2,0,1,53356,task2,394606,false,false,475,image-keyboard-response,4
true,4,1,1,1,true,z,false,true,0.0-2.0-0.10-0.98-3.98,0,0,0,90,false,stim,false,0,690,2,0,0,53356,task2,396835,false,false,478,image-keyboard-response,5
true,4,0,1,0,true,q,false,true,0.0-2.0-0.11-0.99-3.99,0,0,0,81,false,stim,false,1,795,2,0,1,53356,task2,399146,false,false,481,image-keyboard-response,6
true,4,0,1,2,false,d,true,false,0.0-2.0-0.11-0.100-3.100,0,0,0,81,false,stim,false,1,600,2,0,2,53356,task2,401283,false,false,484,image-keyboard-response,7
true,4,1,1,2,false,d,false,false,0.0-2.0-0.11-0.101-3.101,0,0,0,90,false,stim,true,1,932,2,0,2,53356,task2,403728,false,false,487,image-keyboard-response,8
true,4,0,1,0,true,q,false,true,0.0-2.0-0.11-0.102-3.102,0,0,0,81,false,stim,false,1,600,2,0,1,53356,task2,405846,false,false,490,image-keyboard-response,9
true,4,1,1,1,true,z,false,true,0.0-2.0-0.11-0.103-3.103,0,0,0,90,false,stim,false,0,690,2,0,0,53356,task2,408076,false,false,493,image-keyboard-response,10
true,4,0,1,0,true,q,false,true,0.0-2.0-0.11-0.104-3.104,0,0,0,81,false,stim,false,1,637,2,0,1,53356,task2,410233,false,false,496,image-keyboard-response,11
true,4,1,1,1,true,z,false,true,0.0-2.0-0.11-0.105-3.105,0,0,0,90,false,stim,false,0,712,2,0,0,53356,task2,412487,false,false,499,image-keyboard-response,12
true,4,0,1,2,false,d,true,false,0.0-2.0-0.11-0.106-3.106,0,0,0,81,false,stim,false,1,664,2,0,2,53356,task2,414679,false,false,502,image-keyboard-response,13
true,4,1,1,1,true,z,false,true,0.0-2.0-0.11-0.107-3.107,0,0,0,90,false,stim,false,0,1966,2,0,0,53356,task2,418171,false,false,505,image-keyboard-response,14
true,4,2,1,2,true,d,false,true,0.0-2.0-0.12-0.108-3.108,0,0,0,68,false,stim,false,1,2272,2,0,2,53356,task2,421977,false,false,508,image-keyboard-response,15
true,4,0,1,0,true,q,false,true,0.0-2.0-0.12-0.109-3.109,0,0,0,81,false,stim,false,1,772,2,0,1,53356,task2,424289,false,false,511,image-keyboard-response,16
true,4,1,1,1,true,z,false,true,0.0-2.0-0.12-0.110-3.110,0,0,0,90,false,stim,false,0,811,2,0,0,53356,task2,426628,false,false,514,image-keyboard-response,17
true,4,1,1,1,true,z,false,true,0.0-2.0-0.12-0.111-3.111,0,0,0,90,false,stim,false,0,591,2,0,0,53356,task2,428747,false,false,517,image-keyboard-response,18
true,4,1,1,1,true,z,false,true,0.0-2.0-0.12-0.112-3.112,0,0,0,90,false,stim,false,0,579,2,0,0,53356,task2,430866,false,false,520,image-keyboard-response,19
true,4,2,1,2,true,d,false,true,0.0-2.0-0.12-0.113-3.113,0,0,0,68,false,stim,false,1,1404,2,0,2,53356,task2,433809,false,false,523,image-keyboard-response,20
true,4,0,1,0,true,q,false,true,0.0-2.0-0.12-0.114-3.114,0,0,0,81,false,stim,false,1,512,2,0,1,53356,task2,435837,false,false,526,image-keyboard-response,21
true,4,2,1,2,true,d,false,true,0.0-2.0-0.12-0.115-3.115,0,0,0,68,false,stim,false,1,418,2,0,2,53356,task2,437767,false,false,529,image-keyboard-response,22
true,4,0,1,0,true,q,false,true,0.0-2.0-0.12-0.116-3.116,0,0,0,81,false,stim,false,1,641,2,0,1,53356,task2,439936,false,false,532,image-keyboard-response,23
true,4,2,1,2,true,d,false,true,0.0-2.0-0.13-0.117-3.117,0,0,0,68,false,stim,false,1,549,2,0,2,53356,task2,442016,false,false,535,image-keyboard-response,24
true,4,0,1,0,true,q,false,true,0.0-2.0-0.13-0.118-3.118,0,0,0,81,false,stim,false,1,627,2,0,1,53356,task2,444184,false,false,538,image-keyboard-response,25
true,4,2,1,2,true,d,false,true,0.0-2.0-0.13-0.119-3.119,0,0,0,68,false,stim,false,1,575,2,0,2,53356,task2,446291,false,false,541,image-keyboard-response,26
true,4,0,1,0,true,q,false,true,0.0-2.0-0.13-0.120-3.120,0,0,0,81,false,stim,false,1,430,2,0,1,53356,task2,448246,false,false,544,image-keyboard-response,27
true,4,1,1,1,true,z,false,true,0.0-2.0-0.13-0.121-3.121,0,0,0,90,false,stim,false,0,1027,2,0,0,53356,task2,450803,false,false,547,image-keyboard-response,28
true,4,1,1,1,true,z,false,true,0.0-2.0-0.13-0.122-3.122,0,0,0,90,false,stim,false,0,417,2,0,0,53356,task2,452753,false,false,550,image-keyboard-response,29
true,4,2,1,2,true,d,false,true,0.0-2.0-0.13-0.123-3.123,0,0,0,68,false,stim,false,1,1200,2,0,2,53356,task2,455495,false,false,553,image-keyboard-response,30
true,4,1,1,1,true,z,false,true,0.0-2.0-0.13-0.124-3.124,0,0,0,90,false,stim,false,0,957,2,0,0,53356,task2,457993,false,false,556,image-keyboard-response,31
true,4,0,1,0,true,q,false,true,0.0-2.0-0.13-0.125-3.125,0,0,0,81,false,stim,false,1,501,2,0,1,53356,task2,460036,false,false,559,image-keyboard-response,32
true,4,2,1,2,true,d,false,true,0.0-2.0-0.14-0.126-3.126,0,0,0,68,false,stim,false,1,950,2,0,2,53356,task2,462526,false,false,562,image-keyboard-response,33
true,4,2,1,2,true,d,false,true,0.0-2.0-0.14-0.127-3.127,0,0,0,68,false,stim,false,1,574,2,0,2,53356,task2,464630,false,false,565,image-keyboard-response,34
true,4,1,1,1,true,z,false,true,0.0-2.0-0.14-0.128-3.128,0,0,0,90,false,stim,false,0,815,2,0,0,53356,task2,466972,false,false,568,image-keyboard-response,35
true,4,1,1,1,true,z,false,true,0.0-2.0-0.14-0.129-3.129,0,0,0,90,false,stim,false,0,575,2,0,0,53356,task2,469072,false,false,571,image-keyboard-response,36
true,5,0,1,2,false,d,false,false,0.0-2.0-0.14-0.130-3.130,0,0,0,81,true,stim,true,0,725,2,0,1,53356,task2,471321,false,false,574,image-keyboard-response,1
true,5,2,1,0,false,q,false,false,0.0-2.0-0.14-0.131-3.131,0,0,0,68,false,stim,true,2,1280,2,0,2,53356,task2,474127,false,false,577,image-keyboard-response,2
true,5,2,1,2,true,d,false,true,0.0-2.0-0.14-0.132-3.132,0,0,0,68,false,stim,false,0,1061,2,0,1,53356,task2,476727,false,false,580,image-keyboard-response,3
true,5,1,1,2,false,d,false,false,0.0-2.0-0.14-0.133-3.133,0,0,0,90,false,stim,true,1,1106,2,0,0,53356,task2,479371,false,false,583,image-keyboard-response,4
true,5,2,1,2,true,d,false,true,0.0-2.0-0.14-0.134-3.134,0,0,0,68,false,stim,false,0,1495,2,0,1,53356,task2,482392,false,false,586,image-keyboard-response,5
true,5,1,1,0,false,q,true,false,0.0-2.0-0.15-0.135-3.135,0,0,0,90,false,stim,false,2,1103,2,0,2,53356,task2,485019,false,false,589,image-keyboard-response,6
true,5,1,1,2,false,d,false,false,0.0-2.0-0.15-0.136-3.136,0,0,0,90,false,stim,true,1,1157,2,0,0,53356,task2,487714,false,false,592,image-keyboard-response,7
true,5,0,1,2,false,d,true,false,0.0-2.0-0.15-0.137-3.137,0,0,0,81,false,stim,false,1,546,2,0,0,53356,task2,489803,false,false,595,image-keyboard-response,8
true,5,2,1,2,true,d,false,true,0.0-2.0-0.15-0.138-3.138,0,0,0,68,false,stim,false,0,1221,2,0,1,53356,task2,492557,false,false,598,image-keyboard-response,9
true,5,2,1,0,false,q,false,false,0.0-2.0-0.15-0.139-3.139,0,0,0,68,false,stim,true,2,739,2,0,2,53356,task2,494848,false,false,601,image-keyboard-response,10
true,5,2,1,2,true,d,false,true,0.0-2.0-0.15-0.140-3.140,0,0,0,68,false,stim,false,0,636,2,0,1,53356,task2,497012,false,false,604,image-keyboard-response,11
true,5,0,1,0,true,q,false,true,0.0-2.0-0.15-0.141-3.141,0,0,0,81,false,stim,false,2,1302,2,0,2,53356,task2,499838,false,false,607,image-keyboard-response,12
true,5,2,1,2,true,d,false,true,0.0-2.0-0.15-0.142-3.142,0,0,0,68,false,stim,false,0,563,2,0,1,53356,task2,501940,false,false,610,image-keyboard-response,13
true,5,2,1,2,true,d,false,true,0.0-2.0-0.15-0.143-3.143,0,0,0,68,false,stim,false,1,350,2,0,0,53356,task2,503825,false,false,613,image-keyboard-response,14
true,5,2,1,2,true,d,false,true,0.0-2.0-0.16-0.144-3.144,0,0,0,68,false,stim,false,1,422,2,0,0,53356,task2,505783,false,false,616,image-keyboard-response,15
true,5,2,1,2,true,d,false,true,0.0-2.0-0.16-0.145-3.145,0,0,0,68,false,stim,false,0,596,2,0,1,53356,task2,507913,false,false,619,image-keyboard-response,16
true,5,0,1,0,true,q,false,true,0.0-2.0-0.16-0.146-3.146,0,0,0,81,false,stim,false,2,639,2,0,2,53356,task2,510096,false,false,622,image-keyboard-response,17
true,5,2,1,2,true,d,false,true,0.0-2.0-0.16-0.147-3.147,0,0,0,68,false,stim,false,0,689,2,0,1,53356,task2,512325,false,false,625,image-keyboard-response,18
true,5,2,1,2,true,d,false,false,0.0-2.0-0.16-0.148-3.148,0,0,0,68,false,stim,false,0,605,2,0,1,53356,task2,514461,false,true,628,image-keyboard-response,19
true,5,0,1,2,false,d,true,false,0.0-2.0-0.16-0.149-3.149,0,0,0,81,false,stim,false,1,742,2,0,0,53356,task2,516728,false,false,631,image-keyboard-response,20
true,5,0,1,0,true,q,false,false,0.0-2.0-0.16-0.150-3.150,0,0,0,81,false,stim,false,2,838,2,0,2,53356,task2,519105,false,true,634,image-keyboard-response,21
true,5,2,1,2,true,d,false,true,0.0-2.0-0.16-0.151-3.151,0,0,0,68,false,stim,false,1,1016,2,0,0,53356,task2,521653,false,false,637,image-keyboard-response,22
true,5,1,1,0,false,q,true,false,0.0-2.0-0.16-0.152-3.152,0,0,0,90,false,stim,false,2,1110,2,0,2,53356,task2,524303,false,false,640,image-keyboard-response,23
true,5,1,1,2,false,d,true,false,0.0-2.0-0.17-0.153-3.153,0,0,0,90,false,stim,false,0,936,2,0,1,53356,task2,526772,false,false,643,image-keyboard-response,24
true,5,2,1,0,false,q,false,false,0.0-2.0-0.17-0.154-3.154,0,0,0,68,false,stim,true,2,760,2,0,2,53356,task2,529055,false,false,646,image-keyboard-response,25
true,5,2,1,2,true,d,false,true,0.0-2.0-0.17-0.155-3.155,0,0,0,68,false,stim,false,1,565,2,0,0,53356,task2,531159,false,false,649,image-keyboard-response,26
true,5,2,1,2,true,d,false,true,0.0-2.0-0.17-0.156-3.156,0,0,0,68,false,stim,false,1,804,2,0,0,53356,task2,533500,false,false,652,image-keyboard-response,27
true,5,2,1,2,true,d,false,true,0.0-2.0-0.17-0.157-3.157,0,0,0,68,false,stim,false,1,610,2,0,0,53356,task2,535646,false,false,655,image-keyboard-response,28
true,5,0,1,0,true,q,false,true,0.0-2.0-0.17-0.158-3.158,0,0,0,81,false,stim,false,2,442,2,0,2,53356,task2,537629,false,false,658,image-keyboard-response,29
true,5,0,1,2,false,d,false,false,0.0-2.0-0.17-0.159-3.159,0,0,0,81,false,stim,true,0,1610,2,0,1,53356,task2,540767,false,false,661,image-keyboard-response,30
true,5,0,1,0,true,q,false,true,0.0-2.0-0.17-0.160-3.160,0,0,0,81,false,stim,false,2,771,2,0,2,53356,task2,543067,false,false,664,image-keyboard-response,31
true,5,1,1,2,false,d,true,false,0.0-2.0-0.17-0.161-3.161,0,0,0,90,false,stim,false,0,372,2,0,1,53356,task2,544968,false,false,667,image-keyboard-response,32
true,5,2,1,2,true,d,false,true,0.0-2.0-0.18-0.162-3.162,0,0,0,68,false,stim,false,1,710,2,0,0,53356,task2,547207,false,false,670,image-keyboard-response,33
true,5,2,1,2,true,d,false,true,0.0-2.0-0.18-0.163-3.163,0,0,0,68,false,stim,false,0,423,2,0,1,53356,task2,549160,false,false,673,image-keyboard-response,34
true,6,0,1,2,false,d,false,true,0.0-2.0-0.18-0.164-3.164,0,0,0,81,true,stim,true,0,400,2,0,2,53356,task2,551096,false,true,676,image-keyboard-response,1
true,6,2,1,1,false,z,false,false,0.0-2.0-0.18-0.165-3.165,0,0,0,68,false,stim,true,2,569,2,0,1,53356,task2,553206,false,false,679,image-keyboard-response,2
true,6,0,1,2,false,d,false,false,0.0-2.0-0.18-0.166-3.166,0,0,0,81,false,stim,true,0,1654,2,0,2,53356,task2,556390,false,false,682,image-keyboard-response,3
true,6,2,1,0,false,q,false,false,0.0-2.0-0.18-0.167-3.167,0,0,0,68,false,stim,true,2,672,2,0,0,53356,task2,558588,false,false,685,image-keyboard-response,4
true,6,2,1,2,true,d,false,true,0.0-2.0-0.18-0.168-3.168,0,0,0,68,false,stim,false,0,1240,2,0,2,53356,task2,561356,false,false,688,image-keyboard-response,5
true,6,0,1,0,true,q,false,true,0.0-2.0-0.18-0.169-3.169,0,0,0,81,false,stim,false,2,469,2,0,0,53356,task2,563355,false,false,691,image-keyboard-response,6
true,6,1,1,1,true,z,false,true,0.0-2.0-0.18-0.170-3.170,0,0,0,90,false,stim,false,2,1917,2,0,1,53356,task2,566803,false,false,694,image-keyboard-response,7
true,6,1,1,1,true,z,false,true,0.0-2.0-0.19-0.171-3.171,0,0,0,90,false,stim,false,2,1001,2,0,1,53356,task2,569348,false,false,697,image-keyboard-response,8
true,6,0,1,0,true,q,false,true,0.0-2.0-0.19-0.172-3.172,0,0,0,81,false,stim,false,2,562,2,0,0,53356,task2,571448,false,false,700,image-keyboard-response,9
true,6,0,1,0,true,q,false,true,0.0-2.0-0.19-0.173-3.173,0,0,0,81,false,stim,false,2,526,2,0,0,53356,task2,573513,false,false,703,image-keyboard-response,10
true,6,1,1,1,true,z,false,true,0.0-2.0-0.19-0.174-3.174,0,0,0,90,false,stim,false,2,935,2,0,1,53356,task2,575970,false,false,706,image-keyboard-response,11
true,6,2,1,2,true,d,false,true,0.0-2.0-0.19-0.175-3.175,0,0,0,68,false,stim,false,0,1066,2,0,2,53356,task2,578563,false,false,709,image-keyboard-response,12
true,6,2,1,2,true,d,false,true,0.0-2.0-0.19-0.176-3.176,0,0,0,68,false,stim,false,0,719,2,0,2,53356,task2,580815,false,false,712,image-keyboard-response,13
true,6,2,1,2,true,d,false,true,0.0-2.0-0.19-0.177-3.177,0,0,0,68,false,stim,false,0,708,2,0,2,53356,task2,583064,false,false,715,image-keyboard-response,14
true,6,0,1,0,true,q,false,true,0.0-2.0-0.19-0.178-3.178,0,0,0,81,false,stim,false,2,381,2,0,0,53356,task2,584977,false,false,718,image-keyboard-response,15
true,6,1,1,1,true,z,false,true,0.0-2.0-0.19-0.179-3.179,0,0,0,90,false,stim,false,2,938,2,0,1,53356,task2,587455,false,false,721,image-keyboard-response,16
true,6,2,1,0,false,q,false,false,0.0-2.0-0.20-0.180-3.180,0,0,0,68,false,stim,true,2,1335,2,0,0,53356,task2,590333,false,false,724,image-keyboard-response,17
true,6,2,1,2,true,d,false,true,0.0-2.0-0.20-0.181-3.181,0,0,0,68,false,stim,false,0,2792,2,0,2,53356,task2,594649,false,false,727,image-keyboard-response,18
true,6,0,1,0,true,q,false,true,0.0-2.0-0.20-0.182-3.182,0,0,0,81,false,stim,false,2,427,2,0,0,53356,task2,596603,false,false,730,image-keyboard-response,19
true,6,0,1,0,true,q,false,true,0.0-2.0-0.20-0.183-3.183,0,0,0,81,false,stim,false,2,527,2,0,0,53356,task2,598663,false,false,733,image-keyboard-response,20
true,6,2,1,2,true,d,false,true,0.0-2.0-0.20-0.184-3.184,0,0,0,68,false,stim,false,0,1337,2,0,2,53356,task2,601533,false,false,736,image-keyboard-response,21
true,6,2,1,2,true,d,false,true,0.0-2.0-0.20-0.185-3.185,0,0,0,68,false,stim,false,0,657,2,0,2,53356,task2,603723,false,false,739,image-keyboard-response,22
true,6,1,1,1,true,z,false,true,0.0-2.0-0.20-0.186-3.186,0,0,0,90,false,stim,false,2,859,2,0,1,53356,task2,606126,false,false,742,image-keyboard-response,23
true,6,1,1,1,true,z,false,true,0.0-2.0-0.20-0.187-3.187,0,0,0,90,false,stim,false,2,829,2,0,1,53356,task2,608485,false,false,745,image-keyboard-response,24
true,6,1,1,1,true,z,false,true,0.0-2.0-0.20-0.188-3.188,0,0,0,90,false,stim,false,2,809,2,0,1,53356,task2,610826,false,false,748,image-keyboard-response,25
true,6,1,1,1,true,z,false,true,0.0-2.0-0.21-0.189-3.189,0,0,0,90,false,stim,false,2,719,2,0,1,53356,task2,613076,false,false,751,image-keyboard-response,26
true,6,0,1,0,true,q,false,true,0.0-2.0-0.21-0.190-3.190,0,0,0,81,false,stim,false,2,671,2,0,0,53356,task2,615287,false,false,754,image-keyboard-response,27
true,6,2,1,2,true,d,false,true,0.0-2.0-0.21-0.191-3.191,0,0,0,68,false,stim,false,0,854,2,0,2,53356,task2,617670,false,false,757,image-keyboard-response,28
true,6,1,1,1,true,z,false,false,0.0-2.0-0.21-0.192-3.192,0,0,0,90,false,stim,false,2,943,2,0,1,53356,task2,620139,false,true,760,image-keyboard-response,29
true,6,2,1,2,true,d,false,true,0.0-2.0-0.21-0.193-3.193,0,0,0,68,false,stim,false,0,727,2,0,2,53356,task2,622402,false,false,763,image-keyboard-response,30
true,6,0,1,0,true,q,false,true,0.0-2.0-0.21-0.194-3.194,0,0,0,81,false,stim,false,2,776,2,0,0,53356,task2,624713,false,false,766,image-keyboard-response,31
true,6,0,1,0,true,q,false,true,0.0-2.0-0.21-0.195-3.195,0,0,0,81,false,stim,false,2,671,2,0,0,53356,task2,626908,false,false,769,image-keyboard-response,32
true,6,2,1,2,true,d,false,true,0.0-2.0-0.21-0.196-3.196,0,0,0,68,false,stim,false,0,734,2,0,2,53356,task2,629170,false,false,772,image-keyboard-response,33
true,6,2,1,1,false,z,false,false,0.0-2.0-0.21-0.197-3.197,0,0,0,68,false,stim,true,2,737,2,0,1,53356,task2,631435,false,false,775,image-keyboard-response,34
true,6,1,1,1,true,z,false,false,0.0-2.0-0.22-0.198-3.198,0,0,0,90,false,stim,false,2,1056,2,0,1,53356,task2,634032,false,true,778,image-keyboard-response,35
true,6,2,1,2,true,d,false,true,0.0-2.0-0.22-0.199-3.199,0,0,0,68,false,stim,false,0,704,2,0,2,53356,task2,636260,false,false,781,image-keyboard-response,36
true,6,0,1,0,true,q,false,true,0.0-2.0-0.22-0.200-3.200,0,0,0,81,false,stim,false,2,530,2,0,0,53356,task2,638327,false,false,784,image-keyboard-response,37
true,6,0,1,1,false,z,true,false,0.0-2.0-0.22-0.201-3.201,0,0,0,81,false,stim,false,2,411,2,0,1,53356,task2,640267,false,false,787,image-keyboard-response,38
true,7,2,1,0,false,q,false,false,0.0-2.0-0.22-0.202-3.202,0,0,0,68,true,stim,true,2,553,2,0,2,53356,task2,642354,false,false,790,image-keyboard-response,1
true,7,2,1,0,false,q,false,false,0.0-2.0-0.22-0.203-3.203,0,0,0,68,false,stim,true,2,1365,2,0,2,53356,task2,645262,false,false,793,image-keyboard-response,2
true,7,0,1,1,false,z,false,false,0.0-2.0-0.22-0.204-3.204,0,0,0,81,false,stim,true,0,404,2,0,0,53356,task2,647191,false,false,796,image-keyboard-response,3
true,7,1,1,2,false,d,false,false,0.0-2.0-0.22-0.205-3.205,0,0,0,90,false,stim,true,1,1122,2,0,1,53356,task2,649848,false,false,799,image-keyboard-response,4
true,7,2,1,1,false,z,true,false,0.0-2.0-0.22-0.206-3.206,0,0,0,68,false,stim,false,0,1975,2,0,0,53356,task2,653372,false,false,802,image-keyboard-response,5
true,7,1,1,1,true,z,false,true,0.0-2.0-0.23-0.207-3.207,0,0,0,90,false,stim,false,0,2984,2,0,0,53356,task2,657899,false,false,805,image-keyboard-response,6
true,7,2,1,2,true,d,false,true,0.0-2.0-0.23-0.208-3.208,0,0,0,68,false,stim,false,1,1127,2,0,1,53356,task2,660575,false,false,808,image-keyboard-response,7
true,7,1,1,1,true,z,false,true,0.0-2.0-0.23-0.209-3.209,0,0,0,90,false,stim,false,0,744,2,0,0,53356,task2,662846,false,false,811,image-keyboard-response,8
true,7,2,1,2,true,d,false,false,0.0-2.0-0.23-0.210-3.210,0,0,0,68,false,stim,false,1,1173,2,0,1,53356,task2,665538,false,true,814,image-keyboard-response,9
true,7,0,1,0,true,q,false,true,0.0-2.0-0.23-0.211-3.211,0,0,0,81,false,stim,false,2,735,2,0,2,53356,task2,667811,false,false,817,image-keyboard-response,10
true,7,0,1,0,true,q,false,true,0.0-2.0-0.23-0.212-3.212,0,0,0,81,false,stim,false,2,698,2,0,2,53356,task2,670031,false,false,820,image-keyboard-response,11
true,7,0,1,0,true,q,false,true,0.0-2.0-0.23-0.213-3.213,0,0,0,81,false,stim,false,2,711,2,0,2,53356,task2,672288,false,false,823,image-keyboard-response,12
true,7,1,1,1,true,z,false,true,0.0-2.0-0.23-0.214-3.214,0,0,0,90,false,stim,false,0,749,2,0,0,53356,task2,674565,false,false,826,image-keyboard-response,13
true,7,2,1,2,true,d,false,false,0.0-2.0-0.23-0.215-3.215,0,0,0,68,false,stim,false,1,1253,2,0,1,53356,task2,677350,false,true,829,image-keyboard-response,14
true,7,1,1,1,true,z,false,true,0.0-2.0-0.24-0.216-3.216,0,0,0,90,false,stim,false,0,668,2,0,0,53356,task2,679545,false,false,832,image-keyboard-response,15
true,7,1,1,2,false,d,false,false,0.0-2.0-0.24-0.217-3.217,0,0,0,90,false,stim,true,1,1323,2,0,1,53356,task2,682400,false,false,835,image-keyboard-response,16
true,7,0,1,0,true,q,false,true,0.0-2.0-0.24-0.218-3.218,0,0,0,81,false,stim,false,2,859,2,0,2,53356,task2,684790,false,false,838,image-keyboard-response,17
true,7,1,1,1,true,z,false,false,0.0-2.0-0.24-0.219-3.219,0,0,0,90,false,stim,false,0,574,2,0,0,53356,task2,686890,false,true,841,image-keyboard-response,18
true,7,0,1,0,true,q,false,true,0.0-2.0-0.24-0.220-3.220,0,0,0,81,false,stim,false,2,507,2,0,2,53356,task2,688923,false,false,844,image-keyboard-response,19
true,7,1,1,1,true,z,false,true,0.0-2.0-0.24-0.221-3.221,0,0,0,90,false,stim,false,0,422,2,0,0,53356,task2,690879,false,false,847,image-keyboard-response,20
true,7,0,1,2,false,d,true,false,0.0-2.0-0.24-0.222-3.222,0,0,0,81,false,stim,false,1,479,2,0,1,53356,task2,692896,false,false,850,image-keyboard-response,21
true,7,0,1,0,true,q,false,true,0.0-2.0-0.24-0.223-3.223,0,0,0,81,false,stim,false,2,619,2,0,2,53356,task2,695046,false,false,853,image-keyboard-response,22
true,7,2,1,2,true,d,false,true,0.0-2.0-0.24-0.224-3.224,0,0,0,68,false,stim,false,1,874,2,0,1,53356,task2,697460,false,false,856,image-keyboard-response,23
true,7,1,1,1,true,z,false,true,0.0-2.0-0.25-0.225-3.225,0,0,0,90,false,stim,false,0,1398,2,0,0,53356,task2,700384,false,false,859,image-keyboard-response,24
true,7,2,1,2,true,d,false,true,0.0-2.0-0.25-0.226-3.226,0,0,0,68,false,stim,false,1,2429,2,0,1,53356,task2,704345,false,false,862,image-keyboard-response,25
true,7,1,1,1,true,z,false,true,0.0-2.0-0.25-0.227-3.227,0,0,0,90,false,stim,false,0,954,2,0,0,53356,task2,706840,false,false,865,image-keyboard-response,26
true,7,0,1,0,true,q,false,false,0.0-2.0-0.25-0.228-3.228,0,0,0,81,false,stim,false,2,429,2,0,2,53356,task2,708795,false,true,868,image-keyboard-response,27
true,7,1,1,0,false,q,true,false,0.0-2.0-0.25-0.229-3.229,0,0,0,90,false,stim,false,2,1115,2,0,2,53356,task2,711442,false,false,871,image-keyboard-response,28
true,7,2,1,2,true,d,false,true,0.0-2.0-0.25-0.230-3.230,0,0,0,68,false,stim,false,1,677,2,0,1,53356,task2,713643,false,false,874,image-keyboard-response,29
true,7,0,1,0,true,q,false,true,0.0-2.0-0.25-0.231-3.231,0,0,0,81,false,stim,false,2,417,2,1,2,53356,task2,715605,false,false,877,image-keyboard-response,30
true,7,2,1,2,true,d,false,true,0.0-2.0-0.25-0.232-3.232,0,0,0,68,false,stim,false,1,1146,2,0,1,53356,task2,718291,false,false,880,image-keyboard-response,31
true,7,1,1,1,true,z,false,true,0.0-2.0-0.25-0.233-3.233,0,0,0,90,false,stim,false,0,878,2,0,0,53356,task2,720704,false,false,883,image-keyboard-response,32
true,7,2,1,2,true,d,false,false,0.0-2.0-0.26-0.234-3.234,0,0,0,68,false,stim,false,1,1037,2,0,1,53356,task2,723268,false,true,886,image-keyboard-response,33
true,7,1,1,2,false,d,false,false,0.0-2.0-0.26-0.235-3.235,0,0,0,90,false,stim,true,1,1539,2,0,1,53356,task2,726335,false,false,889,image-keyboard-response,34
true,8,1,2,2,false,d,false,false,0.0-2.0-0.26-0.236-3.236,0,0,1,90,true,stim,true,1,935,2,0,0,53356,task2,728811,false,false,892,image-keyboard-response,1
true,8,2,2,2,true,d,false,true,0.0-2.0-0.26-0.237-3.237,0,0,1,68,false,stim,false,1,2154,2,0,0,53356,task2,732486,false,false,895,image-keyboard-response,2
true,8,2,2,2,true,d,false,true,0.0-2.0-0.26-0.238-3.238,0,0,1,68,false,stim,false,1,746,2,0,0,53356,task2,734763,false,false,898,image-keyboard-response,3
true,8,0,2,0,true,q,false,true,0.0-2.0-0.26-0.239-3.239,0,0,1,81,false,stim,false,0,397,2,1,2,53356,task2,736715,false,false,901,image-keyboard-response,4
true,8,0,2,0,true,q,false,true,0.0-2.0-0.26-0.240-3.240,0,0,1,81,false,stim,false,0,846,2,1,2,53356,task2,739102,false,false,904,image-keyboard-response,5
true,8,0,2,0,true,q,false,true,0.0-2.0-0.26-0.241-3.241,0,0,1,81,false,stim,false,0,610,2,1,2,53356,task2,741242,false,false,907,image-keyboard-response,6
true,8,2,2,0,false,q,false,false,0.0-2.0-0.26-0.242-3.242,0,0,1,68,false,stim,true,2,828,2,0,1,53356,task2,743593,false,false,910,image-keyboard-response,7
true,8,0,2,0,true,q,false,true,0.0-2.0-0.27-0.243-3.243,0,0,1,81,false,stim,false,2,1157,2,0,1,53356,task2,746289,false,false,913,image-keyboard-response,8
true,8,0,2,0,true,q,false,true,0.0-2.0-0.27-0.244-3.244,0,0,1,81,false,stim,false,2,681,2,0,1,53356,task2,748507,false,false,916,image-keyboard-response,9
true,8,2,2,2,true,d,false,true,0.0-2.0-0.27-0.245-3.245,0,0,1,68,false,stim,false,1,1539,2,0,0,53356,task2,751585,false,false,919,image-keyboard-response,10
true,8,0,2,0,true,q,false,true,0.0-2.0-0.27-0.246-3.246,0,0,1,81,false,stim,false,0,456,2,1,2,53356,task2,753582,false,false,922,image-keyboard-response,11
true,8,0,2,0,true,q,false,true,0.0-2.0-0.27-0.247-3.247,0,0,1,81,false,stim,false,2,569,2,0,1,53356,task2,755697,false,false,925,image-keyboard-response,12
true,8,0,2,0,true,q,false,true,0.0-2.0-0.27-0.248-3.248,0,0,1,81,false,stim,false,0,578,2,1,2,53356,task2,757804,false,false,928,image-keyboard-response,13
true,8,0,2,0,true,q,false,true,0.0-2.0-0.27-0.249-3.249,0,0,1,81,false,stim,false,0,441,2,1,2,53356,task2,759788,false,false,931,image-keyboard-response,14
true,8,2,2,2,true,d,false,true,0.0-2.0-0.27-0.250-3.250,0,0,1,68,false,stim,false,1,461,2,0,0,53356,task2,761787,false,false,934,image-keyboard-response,15
true,8,2,2,2,true,d,false,true,0.0-2.0-0.27-0.251-3.251,0,0,1,68,false,stim,false,1,427,2,0,0,53356,task2,763755,false,false,937,image-keyboard-response,16
true,8,0,2,0,true,q,false,true,0.0-2.0-0.28-0.252-3.252,0,0,1,81,false,stim,false,2,727,2,0,1,53356,task2,766012,false,false,940,image-keyboard-response,17
true,8,0,2,0,true,q,false,true,0.0-2.0-0.28-0.253-3.253,0,0,1,81,false,stim,false,0,585,2,1,2,53356,task2,768141,false,false,943,image-keyboard-response,18
true,8,0,2,0,true,q,false,true,0.0-2.0-0.28-0.254-3.254,0,0,1,81,false,stim,false,0,496,2,1,2,53356,task2,770174,false,false,946,image-keyboard-response,19
true,8,2,2,2,true,d,false,true,0.0-2.0-0.28-0.255-3.255,0,0,1,68,false,stim,false,1,565,2,0,0,53356,task2,772282,false,false,949,image-keyboard-response,20
true,8,0,2,0,true,q,false,false,0.0-2.0-0.28-0.256-3.256,0,0,1,81,false,stim,false,2,758,2,0,1,53356,task2,774576,false,true,952,image-keyboard-response,21
true,8,0,2,0,true,q,false,true,0.0-2.0-0.28-0.257-3.257,0,0,1,81,false,stim,false,0,648,2,1,2,53356,task2,776764,false,false,955,image-keyboard-response,22
true,8,2,2,2,true,d,false,true,0.0-2.0-0.28-0.258-3.258,0,0,1,68,false,stim,false,1,564,2,0,0,53356,task2,778872,false,false,958,image-keyboard-response,23
true,8,1,2,0,false,q,true,true,0.0-2.0-0.28-0.259-3.259,0,0,1,90,false,stim,false,2,1683,2,0,1,53356,task2,782090,false,true,961,image-keyboard-response,24
true,8,2,2,2,true,d,false,true,0.0-2.0-0.28-0.260-3.260,0,0,1,68,false,stim,false,1,1102,2,0,0,53356,task2,784720,false,false,964,image-keyboard-response,25
true,8,0,2,0,true,q,false,true,0.0-2.0-0.29-0.261-3.261,0,0,1,81,false,stim,false,0,581,2,1,2,53356,task2,786838,false,false,967,image-keyboard-response,26
true,8,2,2,2,true,d,false,true,0.0-2.0-0.29-0.262-3.262,0,0,1,68,false,stim,false,1,928,2,0,0,53356,task2,789306,false,false,970,image-keyboard-response,27
true,8,0,2,0,true,q,false,true,0.0-2.0-0.29-0.263-3.263,0,0,1,81,false,stim,false,0,716,2,1,2,53356,task2,791548,false,false,973,image-keyboard-response,28
true,8,0,2,0,true,q,false,true,0.0-2.0-0.29-0.264-3.264,0,0,1,81,false,stim,false,0,581,2,1,2,53356,task2,793657,false,false,976,image-keyboard-response,29
true,8,2,2,2,true,d,false,true,0.0-2.0-0.29-0.265-3.265,0,0,1,68,false,stim,false,1,490,2,0,0,53356,task2,795678,false,false,979,image-keyboard-response,30
true,8,1,2,0,false,q,true,false,0.0-2.0-0.29-0.266-3.266,0,0,1,90,false,stim,false,2,912,2,0,1,53356,task2,798118,false,false,982,image-keyboard-response,31
true,8,0,2,0,true,q,false,true,0.0-2.0-0.29-0.267-3.267,0,0,1,81,false,stim,false,2,924,2,0,1,53356,task2,800571,false,false,985,image-keyboard-response,32
true,8,2,2,2,true,d,false,true,0.0-2.0-0.29-0.268-3.268,0,0,1,68,false,stim,false,1,894,2,0,0,53356,task2,803000,false,false,988,image-keyboard-response,33
true,8,0,2,0,true,q,false,true,0.0-2.0-0.29-0.269-3.269,0,0,1,81,false,stim,false,2,487,2,0,1,53356,task2,805012,false,false,991,image-keyboard-response,34
true,9,0,1,2,false,d,false,false,0.0-2.0-0.30-0.270-3.270,0,0,0,81,true,stim,true,0,731,2,0,1,53356,task2,807278,false,false,994,image-keyboard-response,1
true,9,0,1,1,false,z,false,false,0.0-2.0-0.30-0.271-3.271,0,0,0,81,false,stim,true,0,706,2,0,2,53356,task2,809513,false,false,997,image-keyboard-response,2
true,9,2,1,0,false,q,false,false,0.0-2.0-0.30-0.272-3.272,0,0,0,68,false,stim,true,2,754,2,0,0,53356,task2,811801,false,false,1000,image-keyboard-response,3
true,9,1,1,2,false,d,true,false,0.0-2.0-0.30-0.273-3.273,0,0,0,90,false,stim,false,0,550,2,0,1,53356,task2,813916,false,false,1003,image-keyboard-response,4
true,9,1,1,0,false,q,true,false,0.0-2.0-0.30-0.274-3.274,0,0,0,90,false,stim,false,2,814,2,0,0,53356,task2,816261,false,false,1006,image-keyboard-response,5
true,9,0,1,2,false,d,false,false,0.0-2.0-0.30-0.275-3.275,0,0,0,81,false,stim,true,0,1074,2,0,1,53356,task2,818862,false,false,1009,image-keyboard-response,6
true,9,0,1,1,false,z,false,false,0.0-2.0-0.30-0.276-3.276,0,0,0,81,false,stim,true,0,762,2,0,2,53356,task2,821147,false,false,1012,image-keyboard-response,7
true,9,2,1,1,false,z,true,false,0.0-2.0-0.30-0.277-3.277,0,0,0,68,false,stim,false,0,636,2,0,2,53356,task2,823322,false,false,1015,image-keyboard-response,8
true,9,2,1,0,false,q,false,false,0.0-2.0-0.30-0.278-3.278,0,0,0,68,false,stim,true,2,347,2,0,0,53356,task2,825214,false,false,1018,image-keyboard-response,9
true,9,1,1,1,true,z,false,true,0.0-2.0-0.31-0.279-3.279,0,0,0,90,false,stim,false,0,777,2,0,2,53356,task2,827523,false,false,1021,image-keyboard-response,10
true,9,1,1,1,true,z,false,true,0.0-2.0-0.31-0.280-3.280,0,0,0,90,false,stim,false,0,639,2,0,2,53356,task2,829697,false,false,1024,image-keyboard-response,11
true,9,0,1,0,true,q,false,true,0.0-2.0-0.31-0.281-3.281,0,0,0,81,false,stim,false,2,379,2,0,0,53356,task2,831611,false,false,1027,image-keyboard-response,12
true,9,0,1,0,true,q,false,true,0.0-2.0-0.31-0.282-3.282,0,0,0,81,false,stim,false,2,656,2,0,0,53356,task2,833802,false,false,1030,image-keyboard-response,13
true,9,2,1,2,true,d,false,true,0.0-2.0-0.31-0.283-3.283,0,0,0,68,false,stim,false,0,918,2,0,1,53356,task2,836244,false,false,1033,image-keyboard-response,14
true,9,0,1,0,true,q,false,false,0.0-2.0-0.31-0.284-3.284,0,0,0,81,false,stim,false,2,550,2,0,0,53356,task2,838335,false,true,1036,image-keyboard-response,15
true,9,2,1,2,true,d,false,false,0.0-2.0-0.31-0.285-3.285,0,0,0,68,false,stim,false,0,724,2,0,1,53356,task2,840591,false,true,1039,image-keyboard-response,16
true,9,2,1,2,true,d,false,true,0.0-2.0-0.31-0.286-3.286,0,0,0,68,false,stim,false,0,794,2,0,1,53356,task2,842910,false,false,1042,image-keyboard-response,17
true,9,1,1,1,true,z,false,true,0.0-2.0-0.31-0.287-3.287,0,0,0,90,false,stim,false,0,1170,2,0,2,53356,task2,845603,false,false,1045,image-keyboard-response,18
true,9,0,1,0,true,q,false,true,0.0-2.0-0.32-0.288-3.288,0,0,0,81,false,stim,false,2,404,2,0,0,53356,task2,847531,false,false,1048,image-keyboard-response,19
false,9,-1,1,1,false,z,true,false,0.0-2.0-0.32-0.289-3.289,0,0,0,,false,stim,false,0,,2,0,2,53356,task2,852084,false,false,1051,image-keyboard-response,20
true,9,0,1,0,true,q,false,true,0.0-2.0-0.32-0.290-3.290,0,0,0,81,false,stim,false,2,636,2,0,0,53356,task2,854263,false,false,1054,image-keyboard-response,21
true,9,1,1,1,true,z,false,true,0.0-2.0-0.32-0.291-3.291,0,0,0,90,false,stim,false,0,535,2,0,2,53356,task2,856342,false,false,1057,image-keyboard-response,22
true,9,2,1,2,true,d,false,false,0.0-2.0-0.32-0.292-3.292,0,0,0,68,false,stim,false,0,401,2,0,1,53356,task2,858268,false,true,1060,image-keyboard-response,23
true,9,2,1,2,true,d,false,false,0.0-2.0-0.32-0.293-3.293,0,0,0,68,false,stim,false,0,898,2,0,1,53356,task2,860706,false,true,1063,image-keyboard-response,24
true,9,0,1,0,true,q,false,true,0.0-2.0-0.32-0.294-3.294,0,0,0,81,false,stim,false,2,483,2,0,0,53356,task2,862730,false,false,1066,image-keyboard-response,25
true,9,2,1,2,true,d,false,true,0.0-2.0-0.32-0.295-3.295,0,0,0,68,false,stim,false,0,1491,2,0,1,53356,task2,865757,false,false,1069,image-keyboard-response,26
true,9,1,1,1,true,z,false,true,0.0-2.0-0.32-0.296-3.296,0,0,0,90,false,stim,false,0,890,2,0,2,53356,task2,868177,false,false,1072,image-keyboard-response,27
true,9,2,1,2,true,d,false,true,0.0-2.0-0.33-0.297-3.297,0,0,0,68,false,stim,false,0,2568,2,0,1,53356,task2,872274,false,false,1075,image-keyboard-response,28
true,9,2,1,2,true,d,false,true,0.0-2.0-0.33-0.298-3.298,0,0,0,68,false,stim,false,0,858,2,0,1,53356,task2,874664,false,false,1078,image-keyboard-response,29
true,9,1,1,1,true,z,false,true,0.0-2.0-0.33-0.299-3.299,0,0,0,90,false,stim,false,0,815,2,0,2,53356,task2,877022,false,false,1081,image-keyboard-response,30
true,9,1,1,1,true,z,false,true,0.0-2.0-0.33-0.300-3.300,0,0,0,90,false,stim,false,0,976,2,0,2,53356,task2,879522,false,false,1084,image-keyboard-response,31
true,9,0,1,0,true,q,false,false,0.0-2.0-0.33-0.301-3.301,0,0,0,81,false,stim,false,2,559,2,0,0,53356,task2,881626,false,true,1087,image-keyboard-response,32
true,9,1,1,1,true,z,false,true,0.0-2.0-0.33-0.302-3.302,0,0,0,90,false,stim,false,0,1236,2,0,2,53356,task2,884404,false,false,1090,image-keyboard-response,33
true,9,0,1,0,true,q,false,false,0.0-2.0-0.33-0.303-3.303,0,0,0,81,false,stim,false,2,429,2,0,0,53356,task2,886361,false,true,1093,image-keyboard-response,34
true,9,2,1,2,true,d,false,true,0.0-2.0-0.33-0.304-3.304,0,0,0,68,false,stim,false,0,1017,2,0,1,53356,task2,888903,false,false,1096,image-keyboard-response,35
true,10,0,1,2,false,d,false,false,0.0-2.0-0.33-0.305-3.305,0,0,0,81,true,stim,true,0,831,2,0,0,53356,task2,891278,false,false,1099,image-keyboard-response,1
true,10,2,1,0,false,q,false,false,0.0-2.0-0.34-0.306-3.306,0,0,0,68,false,stim,true,2,1267,2,0,1,53356,task2,894093,false,false,1102,image-keyboard-response,2
true,10,1,1,2,false,d,true,true,0.0-2.0-0.34-0.307-3.307,0,0,0,90,false,stim,false,0,929,2,0,0,53356,task2,896556,false,true,1105,image-keyboard-response,3
true,10,1,1,0,false,q,true,true,0.0-2.0-0.34-0.308-3.308,0,0,0,90,false,stim,false,2,913,2,0,1,53356,task2,899001,false,true,1108,image-keyboard-response,4
true,10,1,1,2,false,d,false,false,0.0-2.0-0.34-0.309-3.309,0,0,0,90,false,stim,true,1,541,2,0,2,53356,task2,901066,false,false,1111,image-keyboard-response,5
true,10,0,1,2,false,d,true,false,0.0-2.0-0.34-0.310-3.310,0,0,0,81,false,stim,false,1,998,2,0,2,53356,task2,903605,false,false,1114,image-keyboard-response,6
true,10,1,1,0,false,q,true,false,0.0-2.0-0.34-0.311-3.311,0,0,0,90,false,stim,false,2,808,2,0,1,53356,task2,905940,false,false,1117,image-keyboard-response,7
true,10,1,1,2,false,d,true,false,0.0-2.0-0.34-0.312-3.312,0,0,0,90,false,stim,false,0,965,2,0,0,53356,task2,908441,false,false,1120,image-keyboard-response,8
true,10,0,1,2,false,d,true,false,0.0-2.0-0.34-0.313-3.313,0,0,0,81,false,stim,false,1,638,2,0,2,53356,task2,910614,false,false,1123,image-keyboard-response,9
true,10,2,1,2,true,d,false,true,0.0-2.0-0.34-0.314-3.314,0,0,0,68,false,stim,false,0,429,2,0,0,53356,task2,912585,false,false,1126,image-keyboard-response,10
true,10,2,1,0,false,q,false,false,0.0-2.0-0.35-0.315-3.315,0,0,0,68,false,stim,true,2,934,2,0,1,53356,task2,915050,false,false,1129,image-keyboard-response,11
true,10,0,1,0,true,q,false,true,0.0-2.0-0.35-0.316-3.316,0,0,0,81,false,stim,false,2,593,2,0,1,53356,task2,917169,false,false,1132,image-keyboard-response,12
true,10,2,1,2,true,d,false,true,0.0-2.0-0.35-0.317-3.317,0,0,0,68,false,stim,false,0,762,2,0,0,53356,task2,919470,false,false,1135,image-keyboard-response,13
true,10,2,1,2,true,d,false,false,0.0-2.0-0.35-0.318-3.318,0,0,0,68,false,stim,false,1,376,2,0,2,53356,task2,921382,false,true,1138,image-keyboard-response,14
true,10,0,1,2,false,d,true,false,0.0-2.0-0.35-0.319-3.319,0,0,0,81,false,stim,false,1,779,2,0,2,53356,task2,923687,false,false,1141,image-keyboard-response,15
true,10,2,1,2,true,d,false,true,0.0-2.0-0.35-0.320-3.320,0,0,0,68,false,stim,false,0,760,2,0,0,53356,task2,925989,false,false,1144,image-keyboard-response,16
true,10,1,1,2,false,d,false,false,0.0-2.0-0.35-0.321-3.321,0,0,0,90,false,stim,true,1,376,2,0,2,53356,task2,927903,false,false,1147,image-keyboard-response,17
true,10,0,1,0,true,q,false,true,0.0-2.0-0.35-0.322-3.322,0,0,0,81,false,stim,false,2,1324,2,0,1,53356,task2,930770,false,false,1150,image-keyboard-response,18
true,10,2,1,2,true,d,false,true,0.0-2.0-0.35-0.323-3.323,0,0,0,68,false,stim,false,0,667,2,0,0,53356,task2,932974,false,false,1153,image-keyboard-response,19
true,10,2,1,2,true,d,false,true,0.0-2.0-0.36-0.324-3.324,0,0,0,68,false,stim,false,1,493,2,0,2,53356,task2,935000,false,false,1156,image-keyboard-response,20
true,10,0,1,0,true,q,false,true,0.0-2.0-0.36-0.325-3.325,0,0,0,81,false,stim,false,2,786,2,0,1,53356,task2,937312,false,false,1159,image-keyboard-response,21
true,10,2,1,2,true,d,false,true,0.0-2.0-0.36-0.326-3.326,0,0,0,68,false,stim,false,0,639,2,0,0,53356,task2,939485,false,false,1162,image-keyboard-response,22
true,10,0,1,0,true,q,false,true,0.0-2.0-0.36-0.327-3.327,0,0,0,81,false,stim,false,2,903,2,0,1,53356,task2,941929,false,false,1165,image-keyboard-response,23
true,10,2,1,2,true,d,false,true,0.0-2.0-0.36-0.328-3.328,0,0,0,68,false,stim,false,0,751,2,0,0,53356,task2,944217,false,false,1168,image-keyboard-response,24
true,10,2,1,2,true,d,false,true,0.0-2.0-0.36-0.329-3.329,0,0,0,68,false,stim,false,0,909,2,0,0,53356,task2,946655,false,false,1171,image-keyboard-response,25
true,10,2,1,2,true,d,false,true,0.0-2.0-0.36-0.330-3.330,0,0,0,68,false,stim,false,1,1511,2,0,2,53356,task2,949697,false,false,1174,image-keyboard-response,26
true,10,2,1,2,true,d,false,true,0.0-2.0-0.36-0.331-3.331,0,0,0,68,false,stim,false,1,665,2,0,2,53356,task2,951892,false,false,1177,image-keyboard-response,27
true,10,0,1,0,true,q,false,false,0.0-2.0-0.36-0.332-3.332,0,0,0,81,false,stim,false,2,603,2,0,1,53356,task2,954030,false,true,1180,image-keyboard-response,28
true,10,2,1,2,true,d,false,true,0.0-2.0-0.37-0.333-3.333,0,0,0,68,false,stim,false,1,458,2,0,2,53356,task2,956024,false,false,1183,image-keyboard-response,29
true,10,2,1,2,true,d,false,true,0.0-2.0-0.37-0.334-3.334,0,0,0,68,false,stim,false,0,580,2,0,0,53356,task2,958147,false,false,1186,image-keyboard-response,30
true,10,2,1,2,true,d,false,true,0.0-2.0-0.37-0.335-3.335,0,0,0,68,false,stim,false,0,695,2,0,0,53356,task2,960382,false,false,1189,image-keyboard-response,31
true,10,1,1,0,false,q,true,false,0.0-2.0-0.37-0.336-3.336,0,0,0,90,false,stim,false,2,967,2,0,1,53356,task2,962885,false,false,1192,image-keyboard-response,32
true,10,2,1,2,true,d,false,true,0.0-2.0-0.37-0.337-3.337,0,0,0,68,false,stim,false,0,615,2,0,0,53356,task2,965031,false,false,1195,image-keyboard-response,33
true,10,2,1,2,true,d,false,false,0.0-2.0-0.37-0.338-3.338,0,0,0,68,false,stim,false,1,409,2,0,2,53356,task2,966977,false,true,1198,image-keyboard-response,34
true,11,0,1,2,false,d,false,false,0.0-2.0-0.37-0.339-3.339,0,0,0,81,true,stim,true,0,411,2,0,1,53356,task2,968944,false,false,1201,image-keyboard-response,1
true,11,2,1,0,false,q,false,false,0.0-2.0-0.37-0.340-3.340,0,0,0,68,false,stim,true,2,619,2,0,2,53356,task2,971095,false,false,1204,image-keyboard-response,2
true,11,1,1,2,false,d,true,false,0.0-2.0-0.37-0.341-3.341,0,0,0,90,false,stim,false,0,1185,2,0,1,53356,task2,973817,false,false,1207,image-keyboard-response,3
true,11,1,1,0,false,q,true,false,0.0-2.0-0.38-0.342-3.342,0,0,0,90,false,stim,false,2,1398,2,0,2,53356,task2,976755,false,false,1210,image-keyboard-response,4
true,11,2,1,2,true,d,false,true,0.0-2.0-0.38-0.343-3.343,0,0,0,68,false,stim,false,0,985,2,0,1,53356,task2,979282,false,false,1213,image-keyboard-response,5
true,11,0,1,0,true,q,false,true,0.0-2.0-0.38-0.344-3.344,0,0,0,81,false,stim,false,2,511,2,0,2,53356,task2,981318,false,false,1216,image-keyboard-response,6
true,11,2,1,0,false,q,false,false,0.0-2.0-0.38-0.345-3.345,0,0,0,68,false,stim,true,2,878,2,0,0,53356,task2,983726,false,false,1219,image-keyboard-response,7
true,11,2,1,2,true,d,false,true,0.0-2.0-0.38-0.346-3.346,0,0,0,68,false,stim,false,0,460,2,0,1,53356,task2,985749,false,false,1222,image-keyboard-response,8
true,11,1,1,0,false,q,true,false,0.0-2.0-0.38-0.347-3.347,0,0,0,90,false,stim,false,2,938,2,0,0,53356,task2,988213,false,false,1225,image-keyboard-response,9
true,11,0,1,0,true,q,false,true,0.0-2.0-0.38-0.348-3.348,0,0,0,81,false,stim,false,2,488,2,0,2,53356,task2,990236,false,false,1228,image-keyboard-response,10
true,11,0,1,0,true,q,false,true,0.0-2.0-0.38-0.349-3.349,0,0,0,81,false,stim,false,2,411,2,0,0,53356,task2,992175,false,false,1231,image-keyboard-response,11
true,11,2,1,2,true,d,false,true,0.0-2.0-0.38-0.350-3.350,0,0,0,68,false,stim,false,0,350,2,0,1,53356,task2,994072,false,false,1234,image-keyboard-response,12
true,11,0,1,0,true,q,false,true,0.0-2.0-0.39-0.351-3.351,0,0,0,81,false,stim,false,2,754,2,0,0,53356,task2,996346,false,false,1237,image-keyboard-response,13
true,11,0,1,0,true,q,false,true,0.0-2.0-0.39-0.352-3.352,0,0,0,81,false,stim,false,2,1110,2,0,2,53356,task2,998988,false,false,1240,image-keyboard-response,14
true,11,2,1,2,true,d,false,true,0.0-2.0-0.39-0.353-3.353,0,0,0,68,false,stim,false,0,461,2,0,1,53356,task2,1000977,false,false,1243,image-keyboard-response,15
true,11,2,1,2,true,d,false,true,0.0-2.0-0.39-0.354-3.354,0,0,0,68,false,stim,false,0,414,2,0,1,53356,task2,1002932,false,false,1246,image-keyboard-response,16
true,11,2,1,2,true,d,false,true,0.0-2.0-0.39-0.355-3.355,0,0,0,68,false,stim,false,0,450,2,0,1,53356,task2,1004906,false,false,1249,image-keyboard-response,17
true,11,0,1,0,true,q,false,true,0.0-2.0-0.39-0.356-3.356,0,0,0,81,false,stim,false,2,471,2,0,0,53356,task2,1006908,false,false,1252,image-keyboard-response,18
true,11,0,1,0,true,q,false,true,0.0-2.0-0.39-0.357-3.357,0,0,0,81,false,stim,false,2,709,2,0,0,53356,task2,1009146,false,false,1255,image-keyboard-response,19
true,11,0,1,0,true,q,false,true,0.0-2.0-0.39-0.358-3.358,0,0,0,81,false,stim,false,2,532,2,0,2,53356,task2,1011208,false,false,1258,image-keyboard-response,20
true,11,0,1,0,true,q,false,true,0.0-2.0-0.39-0.359-3.359,0,0,0,81,false,stim,false,2,695,2,0,2,53356,task2,1013431,false,false,1261,image-keyboard-response,21
true,11,0,1,0,true,q,false,true,0.0-2.0-0.40-0.360-3.360,0,0,0,81,false,stim,false,2,593,2,0,0,53356,task2,1015549,false,false,1264,image-keyboard-response,22
true,11,0,1,0,true,q,false,true,0.0-2.0-0.40-0.361-3.361,0,0,0,81,false,stim,false,2,1220,2,0,2,53356,task2,1018297,false,false,1267,image-keyboard-response,23
true,11,0,1,0,true,q,false,true,0.0-2.0-0.40-0.362-3.362,0,0,0,81,false,stim,false,2,1149,2,0,0,53356,task2,1020986,false,false,1270,image-keyboard-response,24
true,11,2,1,2,true,d,false,true,0.0-2.0-0.40-0.363-3.363,0,0,0,68,false,stim,false,0,1269,2,0,1,53356,task2,1023785,false,false,1273,image-keyboard-response,25
true,11,0,1,0,true,q,false,true,0.0-2.0-0.40-0.364-3.364,0,0,0,81,false,stim,false,2,1365,2,0,2,53356,task2,1026681,false,false,1276,image-keyboard-response,26
true,11,0,1,0,true,q,false,true,0.0-2.0-0.40-0.365-3.365,0,0,0,81,false,stim,false,2,1365,2,0,2,53356,task2,1029581,false,false,1279,image-keyboard-response,27
true,11,0,1,0,true,q,false,true,0.0-2.0-0.40-0.366-3.366,0,0,0,81,false,stim,false,2,794,2,0,0,53356,task2,1031911,false,false,1282,image-keyboard-response,28
true,11,2,1,2,true,d,false,true,0.0-2.0-0.40-0.367-3.367,0,0,0,68,false,stim,false,0,607,2,0,1,53356,task2,1034044,false,false,1285,image-keyboard-response,29
true,11,2,1,2,true,d,false,true,0.0-2.0-0.40-0.368-3.368,0,0,0,68,false,stim,false,0,794,2,0,1,53356,task2,1036371,false,false,1288,image-keyboard-response,30
true,11,0,1,0,true,q,false,false,0.0-2.0-0.41-0.369-3.369,0,0,0,81,false,stim,false,2,676,2,0,2,53356,task2,1038573,false,true,1291,image-keyboard-response,31
true,11,2,1,2,true,d,false,true,0.0-2.0-0.41-0.370-3.370,0,0,0,68,false,stim,false,0,813,2,0,1,53356,task2,1040930,false,false,1294,image-keyboard-response,32
true,11,0,1,0,true,q,false,true,0.0-2.0-0.41-0.371-3.371,0,0,0,81,false,stim,false,2,444,2,1,2,53356,task2,1042911,false,false,1297,image-keyboard-response,33
true,11,0,1,0,true,q,false,true,0.0-2.0-0.41-0.372-3.372,0,0,0,81,false,stim,false,2,802,2,0,0,53356,task2,1045249,false,false,1300,image-keyboard-response,34
true,11,0,1,0,true,q,false,true,0.0-2.0-0.41-0.373-3.373,0,0,0,81,false,stim,false,2,557,2,0,0,53356,task2,1047364,false,false,1303,image-keyboard-response,35
true,11,0,1,0,true,q,false,true,0.0-2.0-0.41-0.374-3.374,0,0,0,81,false,stim,false,2,512,2,0,0,53356,task2,1049420,false,false,1306,image-keyboard-response,36
true,11,0,1,0,true,q,false,true,0.0-2.0-0.41-0.375-3.375,0,0,0,81,false,stim,false,2,585,2,1,2,53356,task2,1051551,false,false,1309,image-keyboard-response,37
true,12,2,2,0,false,q,false,false,0.0-2.0-0.41-0.376-3.376,0,0,1,68,true,stim,true,2,375,2,0,1,53356,task2,1053461,false,false,1312,image-keyboard-response,1
true,12,1,2,0,false,q,true,true,0.0-2.0-0.41-0.377-3.377,0,0,1,90,false,stim,false,2,1604,2,0,1,53356,task2,1056592,false,true,1315,image-keyboard-response,2
true,12,0,2,0,true,q,false,true,0.0-2.0-0.42-0.378-3.378,0,0,1,81,false,stim,false,0,543,2,1,2,53356,task2,1058648,false,false,1318,image-keyboard-response,3
true,12,0,2,1,false,z,false,false,0.0-2.0-0.42-0.379-3.379,0,0,1,81,false,stim,true,0,639,2,0,0,53356,task2,1060826,false,false,1321,image-keyboard-response,4
true,12,1,2,1,true,z,false,true,0.0-2.0-0.42-0.380-3.380,0,0,1,90,false,stim,false,0,1011,2,0,0,53356,task2,1063368,false,false,1324,image-keyboard-response,5
true,12,1,2,1,true,z,false,false,0.0-2.0-0.42-0.381-3.381,0,0,1,90,false,stim,false,0,599,2,0,0,53356,task2,1065496,false,true,1327,image-keyboard-response,6
true,12,0,2,0,true,q,false,true,0.0-2.0-0.42-0.382-3.382,0,0,1,81,false,stim,false,0,676,2,1,2,53356,task2,1067698,false,false,1330,image-keyboard-response,7
true,12,0,2,0,true,q,false,true,0.0-2.0-0.42-0.383-3.383,0,0,1,81,false,stim,false,0,740,2,1,2,53356,task2,1069963,false,false,1333,image-keyboard-response,8
true,12,1,2,0,false,q,true,false,0.0-2.0-0.42-0.384-3.384,0,0,1,90,false,stim,false,2,743,2,0,1,53356,task2,1072250,false,false,1336,image-keyboard-response,9
true,12,2,2,0,false,q,false,false,0.0-2.0-0.42-0.385-3.385,0,0,1,68,false,stim,true,2,1233,2,0,1,53356,task2,1075010,false,false,1339,image-keyboard-response,10
true,12,1,2,0,false,q,true,false,0.0-2.0-0.42-0.386-3.386,0,0,1,90,false,stim,false,2,848,2,0,1,53356,task2,1077385,false,false,1342,image-keyboard-response,11
true,12,0,2,1,false,z,false,false,0.0-2.0-0.43-0.387-3.387,0,0,1,81,false,stim,true,0,513,2,0,0,53356,task2,1079430,false,false,1345,image-keyboard-response,12
true,12,1,2,1,true,z,false,true,0.0-2.0-0.43-0.388-3.388,0,0,1,90,false,stim,false,0,696,2,0,0,53356,task2,1081642,false,false,1348,image-keyboard-response,13
true,12,1,2,1,true,z,false,true,0.0-2.0-0.43-0.389-3.389,0,0,1,90,false,stim,false,0,673,2,0,0,53356,task2,1083859,false,false,1351,image-keyboard-response,14
true,12,1,2,0,false,q,true,false,0.0-2.0-0.43-0.390-3.390,0,0,1,90,false,stim,false,2,1656,2,0,1,53356,task2,1087043,false,false,1354,image-keyboard-response,15
true,12,1,2,0,false,q,true,false,0.0-2.0-0.43-0.391-3.391,0,0,1,90,false,stim,false,2,2053,2,0,1,53356,task2,1090640,false,false,1357,image-keyboard-response,16
true,12,0,2,0,true,q,false,true,0.0-2.0-0.43-0.392-3.392,0,0,1,81,false,stim,false,0,631,2,1,2,53356,task2,1092798,false,false,1360,image-keyboard-response,17
true,12,0,2,0,true,q,false,true,0.0-2.0-0.43-0.393-3.393,0,0,1,81,false,stim,false,0,688,2,1,2,53356,task2,1095011,false,false,1363,image-keyboard-response,18
true,12,0,2,0,true,q,false,true,0.0-2.0-0.43-0.394-3.394,0,0,1,81,false,stim,false,0,682,2,1,2,53356,task2,1097229,false,false,1366,image-keyboard-response,19
true,12,2,2,0,false,q,false,false,0.0-2.0-0.43-0.395-3.395,0,0,1,68,false,stim,true,2,1188,2,0,1,53356,task2,1099955,false,false,1369,image-keyboard-response,20
true,12,0,2,0,true,q,false,true,0.0-2.0-0.44-0.396-3.396,0,0,1,81,false,stim,false,0,643,2,1,2,53356,task2,1102130,false,false,1372,image-keyboard-response,21
true,12,1,2,1,true,z,false,true,0.0-2.0-0.44-0.397-3.397,0,0,1,90,false,stim,false,0,772,2,0,0,53356,task2,1104440,false,false,1375,image-keyboard-response,22
true,12,1,2,1,true,z,false,true,0.0-2.0-0.44-0.398-3.398,0,0,1,90,false,stim,false,0,750,2,0,0,53356,task2,1106718,false,false,1378,image-keyboard-response,23
true,12,1,2,1,true,z,false,true,0.0-2.0-0.44-0.399-3.399,0,0,1,90,false,stim,false,0,504,2,0,0,53356,task2,1108750,false,false,1381,image-keyboard-response,24
true,12,0,2,0,true,q,false,true,0.0-2.0-0.44-0.400-3.400,0,0,1,81,false,stim,false,2,459,2,0,1,53356,task2,1110745,false,false,1384,image-keyboard-response,25
true,12,0,2,0,true,q,false,true,0.0-2.0-0.44-0.401-3.401,0,0,1,81,false,stim,false,2,518,2,0,1,53356,task2,1112806,false,false,1387,image-keyboard-response,26
true,12,0,2,0,true,q,false,true,0.0-2.0-0.44-0.402-3.402,0,0,1,81,false,stim,false,0,668,2,1,2,53356,task2,1115005,false,false,1390,image-keyboard-response,27
true,12,0,2,0,true,q,false,true,0.0-2.0-0.44-0.403-3.403,0,0,1,81,false,stim,false,2,1270,2,0,1,53356,task2,1117807,false,false,1393,image-keyboard-response,28
true,12,0,2,0,true,q,false,true,0.0-2.0-0.44-0.404-3.404,0,0,1,81,false,stim,false,0,633,2,0,2,53356,task2,1119954,false,false,1396,image-keyboard-response,29
true,12,0,2,0,true,q,false,true,0.0-2.0-0.45-0.405-3.405,0,0,1,81,false,stim,false,2,634,2,1,1,53356,task2,1122129,false,false,1399,image-keyboard-response,30
true,12,1,2,1,true,z,false,true,0.0-2.0-0.45-0.406-3.406,0,0,1,90,false,stim,false,0,511,2,0,0,53356,task2,1124187,false,false,1402,image-keyboard-response,31
true,12,1,2,1,true,z,false,true,0.0-2.0-0.45-0.407-3.407,0,0,1,90,false,stim,false,0,568,2,0,0,53356,task2,1126284,false,false,1405,image-keyboard-response,32
true,12,0,2,0,true,q,false,true,0.0-2.0-0.45-0.408-3.408,0,0,1,81,false,stim,false,2,371,2,1,1,53356,task2,1128194,false,false,1408,image-keyboard-response,33
true,13,1,2,2,false,d,false,false,0.0-2.0-0.45-0.409-3.409,0,1,0,90,true,stim,true,1,476,2,0,0,53356,task2,1130197,false,false,1411,image-keyboard-response,1
true,13,0,2,1,false,z,false,false,0.0-2.0-0.45-0.410-3.410,0,1,0,81,false,stim,true,0,654,2,0,2,53356,task2,1132401,false,false,1414,image-keyboard-response,2
true,13,0,2,1,false,z,false,false,0.0-2.0-0.45-0.411-3.411,0,1,0,81,false,stim,true,0,1197,2,0,2,53356,task2,1135119,false,false,1417,image-keyboard-response,3
true,13,0,2,0,true,q,false,true,0.0-2.0-0.45-0.412-3.412,0,1,0,81,false,stim,false,0,761,2,1,1,53356,task2,1137428,false,false,1420,image-keyboard-response,4
true,13,1,2,1,true,z,false,true,0.0-2.0-0.45-0.413-3.413,0,1,0,90,false,stim,false,0,1810,2,0,2,53356,task2,1140777,false,false,1423,image-keyboard-response,5
true,13,0,2,0,true,q,false,true,0.0-2.0-0.46-0.414-3.414,0,1,0,81,false,stim,false,0,623,2,1,1,53356,task2,1142930,false,false,1426,image-keyboard-response,6
true,13,1,2,1,true,z,false,true,0.0-2.0-0.46-0.415-3.415,0,1,0,90,false,stim,false,0,770,2,0,2,53356,task2,1145237,false,false,1429,image-keyboard-response,7
true,13,1,2,2,false,d,false,false,0.0-2.0-0.46-0.416-3.416,0,1,0,90,false,stim,true,1,473,2,0,0,53356,task2,1147240,false,false,1432,image-keyboard-response,8
true,13,0,2,0,true,q,false,true,0.0-2.0-0.46-0.417-3.417,0,1,0,81,false,stim,false,0,907,2,1,1,53356,task2,1149673,false,false,1435,image-keyboard-response,9
true,13,0,2,2,false,d,true,false,0.0-2.0-0.46-0.418-3.418,0,1,0,81,false,stim,false,1,633,2,0,0,53356,task2,1151830,false,false,1438,image-keyboard-response,10
true,13,1,2,1,true,z,false,true,0.0-2.0-0.46-0.419-3.419,0,1,0,90,false,stim,false,0,1228,2,0,2,53356,task2,1154585,false,false,1441,image-keyboard-response,11
true,13,0,2,0,true,q,false,true,0.0-2.0-0.46-0.420-3.420,0,1,0,81,false,stim,false,0,619,2,1,1,53356,task2,1156736,false,false,1444,image-keyboard-response,12
true,13,2,2,2,true,d,false,true,0.0-2.0-0.46-0.421-3.421,0,1,0,68,false,stim,false,1,1093,2,0,0,53356,task2,1159370,false,false,1447,image-keyboard-response,13
true,13,1,2,1,true,z,false,true,0.0-2.0-0.46-0.422-3.422,0,1,0,90,false,stim,false,0,569,2,0,2,53356,task2,1161475,false,false,1450,image-keyboard-response,14
true,13,2,2,2,true,d,false,true,0.0-2.0-0.47-0.423-3.423,0,1,0,68,false,stim,false,1,1097,2,0,0,53356,task2,1164114,false,false,1453,image-keyboard-response,15
true,13,1,2,1,true,z,false,true,0.0-2.0-0.47-0.424-3.424,0,1,0,90,false,stim,false,0,475,2,0,2,53356,task2,1166122,false,false,1456,image-keyboard-response,16
true,13,2,2,2,true,d,false,true,0.0-2.0-0.47-0.425-3.425,0,1,0,68,false,stim,false,1,399,2,0,0,53356,task2,1168066,false,false,1459,image-keyboard-response,17
true,13,2,2,2,true,d,false,true,0.0-2.0-0.47-0.426-3.426,0,1,0,68,false,stim,false,1,1228,2,0,0,53356,task2,1170825,false,false,1462,image-keyboard-response,18
true,13,0,2,0,true,q,false,false,0.0-2.0-0.47-0.427-3.427,0,1,0,81,false,stim,false,0,476,2,1,1,53356,task2,1172834,false,true,1465,image-keyboard-response,19
true,13,1,2,1,true,z,false,true,0.0-2.0-0.47-0.428-3.428,0,1,0,90,false,stim,false,0,942,2,0,2,53356,task2,1175318,false,false,1468,image-keyboard-response,20
true,13,0,2,0,true,q,false,true,0.0-2.0-0.47-0.429-3.429,0,1,0,81,false,stim,false,0,613,2,1,1,53356,task2,1177469,false,false,1471,image-keyboard-response,21
true,13,1,2,1,true,z,false,true,0.0-2.0-0.47-0.430-3.430,0,1,0,90,false,stim,false,0,912,2,0,2,53356,task2,1179909,false,false,1474,image-keyboard-response,22
true,13,0,2,0,true,q,false,true,0.0-2.0-0.47-0.431-3.431,0,1,0,81,false,stim,false,0,789,2,1,1,53356,task2,1182225,false,false,1477,image-keyboard-response,23
true,13,2,2,2,true,d,false,true,0.0-2.0-0.48-0.432-3.432,0,1,0,68,false,stim,false,1,406,2,0,0,53356,task2,1184164,false,false,1480,image-keyboard-response,24
true,13,0,2,0,true,q,false,true,0.0-2.0-0.48-0.433-3.433,0,1,0,81,false,stim,false,0,856,2,1,1,53356,task2,1186552,false,false,1483,image-keyboard-response,25
true,13,2,2,2,true,d,false,true,0.0-2.0-0.48-0.434-3.434,0,1,0,68,false,stim,false,1,1469,2,0,0,53356,task2,1189546,false,false,1486,image-keyboard-response,26
true,13,0,2,0,true,q,false,true,0.0-2.0-0.48-0.435-3.435,0,1,0,81,false,stim,false,0,603,2,1,1,53356,task2,1191691,false,false,1489,image-keyboard-response,27
true,13,1,2,1,true,z,false,true,0.0-2.0-0.48-0.436-3.436,0,1,0,90,false,stim,false,0,887,2,0,2,53356,task2,1194108,false,false,1492,image-keyboard-response,28
true,13,1,2,1,true,z,false,true,0.0-2.0-0.48-0.437-3.437,0,1,0,90,false,stim,false,0,987,2,0,2,53356,task2,1196635,false,false,1495,image-keyboard-response,29
true,13,1,2,1,true,z,false,true,0.0-2.0-0.48-0.438-3.438,0,1,0,90,false,stim,false,0,835,2,0,2,53356,task2,1199001,false,false,1498,image-keyboard-response,30
true,13,2,2,2,true,d,false,true,0.0-2.0-0.48-0.439-3.439,0,1,0,68,false,stim,false,1,1151,2,0,0,53356,task2,1201690,false,false,1501,image-keyboard-response,31
true,13,0,2,0,true,q,false,true,0.0-2.0-0.48-0.440-3.440,0,1,0,81,false,stim,false,0,460,2,0,1,53356,task2,1203677,false,false,1504,image-keyboard-response,32
true,13,0,2,0,true,q,false,true,0.0-2.0-0.49-0.441-3.441,0,1,0,81,false,stim,false,0,873,2,0,1,53356,task2,1206089,false,false,1507,image-keyboard-response,33
true,13,1,2,1,true,z,false,true,0.0-2.0-0.49-0.442-3.442,0,1,0,90,false,stim,false,0,961,2,1,2,53356,task2,1208587,false,false,1510,image-keyboard-response,34
true,13,2,2,2,true,d,false,true,0.0-2.0-0.49-0.443-3.443,0,1,0,68,false,stim,false,1,876,2,0,0,53356,task2,1211002,false,false,1513,image-keyboard-response,35
true,14,0,2,2,false,d,false,false,0.0-2.0-0.49-0.444-3.444,0,0,1,81,true,stim,true,0,643,2,0,1,53356,task2,1213170,false,false,1516,image-keyboard-response,1
true,14,2,2,1,false,z,false,false,0.0-2.0-0.49-0.445-3.445,0,0,1,68,false,stim,true,2,995,2,0,0,53356,task2,1215702,false,false,1519,image-keyboard-response,2
true,14,1,2,1,true,z,false,true,0.0-2.0-0.49-0.446-3.446,0,0,1,90,false,stim,false,1,997,2,1,2,53356,task2,1218227,false,false,1522,image-keyboard-response,3
true,14,1,2,1,true,z,false,true,0.0-2.0-0.49-0.447-3.447,0,0,1,90,false,stim,false,1,1005,2,1,2,53356,task2,1220772,false,false,1525,image-keyboard-response,4
true,14,2,2,1,false,z,false,false,0.0-2.0-0.49-0.448-3.448,0,0,1,68,false,stim,true,2,684,2,0,0,53356,task2,1222982,false,false,1528,image-keyboard-response,5
true,14,0,2,2,false,d,false,false,0.0-2.0-0.49-0.449-3.449,0,0,1,81,false,stim,true,0,698,2,0,1,53356,task2,1225215,false,false,1531,image-keyboard-response,6
true,14,2,2,2,true,d,false,true,0.0-2.0-0.50-0.450-3.450,0,0,1,68,false,stim,false,0,1092,2,0,1,53356,task2,1227845,false,false,1534,image-keyboard-response,7
true,14,2,2,2,true,d,false,true,0.0-2.0-0.50-0.451-3.451,0,0,1,68,false,stim,false,0,791,2,0,1,53356,task2,1230178,false,false,1537,image-keyboard-response,8
true,14,1,2,1,true,z,false,true,0.0-2.0-0.50-0.452-3.452,0,0,1,90,false,stim,false,1,885,2,1,2,53356,task2,1232592,false,false,1540,image-keyboard-response,9
true,14,0,2,1,false,z,true,false,0.0-2.0-0.50-0.453-3.453,0,0,1,81,false,stim,false,2,408,2,0,0,53356,task2,1234536,false,false,1543,image-keyboard-response,10
true,14,1,2,1,true,z,false,true,0.0-2.0-0.50-0.454-3.454,0,0,1,90,false,stim,false,1,974,2,1,2,53356,task2,1237051,false,false,1546,image-keyboard-response,11
true,14,1,2,1,true,z,false,true,0.0-2.0-0.50-0.455-3.455,0,0,1,90,false,stim,false,2,440,2,0,0,53356,task2,1239037,false,false,1549,image-keyboard-response,12
true,14,1,2,1,true,z,false,true,0.0-2.0-0.50-0.456-3.456,0,0,1,90,false,stim,false,2,527,2,0,0,53356,task2,1241105,false,false,1552,image-keyboard-response,13
true,14,1,2,1,true,z,false,true,0.0-2.0-0.50-0.457-3.457,0,0,1,90,false,stim,false,1,754,2,1,2,53356,task2,1243391,false,false,1555,image-keyboard-response,14
true,14,2,2,2,true,d,false,true,0.0-2.0-0.50-0.458-3.458,0,0,1,68,false,stim,false,0,625,2,0,1,53356,task2,1245542,false,false,1558,image-keyboard-response,15
true,14,1,2,1,true,z,false,true,0.0-2.0-0.51-0.459-3.459,0,0,1,90,false,stim,false,1,714,2,1,2,53356,task2,1247791,false,false,1561,image-keyboard-response,16
true,14,2,2,2,true,d,false,true,0.0-2.0-0.51-0.460-3.460,0,0,1,68,false,stim,false,0,862,2,0,1,53356,task2,1250178,false,false,1564,image-keyboard-response,17
true,14,1,2,1,true,z,false,true,0.0-2.0-0.51-0.461-3.461,0,0,1,90,false,stim,false,2,552,2,0,0,53356,task2,1252269,false,false,1567,image-keyboard-response,18
true,14,1,2,1,true,z,false,true,0.0-2.0-0.51-0.462-3.462,0,0,1,90,false,stim,false,2,662,2,0,0,53356,task2,1254459,false,false,1570,image-keyboard-response,19
true,14,2,2,2,true,d,false,false,0.0-2.0-0.51-0.463-3.463,0,0,1,68,false,stim,false,0,885,2,0,1,53356,task2,1256883,false,true,1573,image-keyboard-response,20
true,14,1,2,1,true,z,false,true,0.0-2.0-0.51-0.464-3.464,0,0,1,90,false,stim,false,1,668,2,1,2,53356,task2,1259084,false,false,1576,image-keyboard-response,21
true,14,1,2,1,true,z,false,true,0.0-2.0-0.51-0.465-3.465,0,0,1,90,false,stim,false,2,704,2,0,0,53356,task2,1261319,false,false,1579,image-keyboard-response,22
true,14,2,2,2,true,d,false,true,0.0-2.0-0.51-0.466-3.466,0,0,1,68,false,stim,false,0,730,2,0,1,53356,task2,1263576,false,false,1582,image-keyboard-response,23
true,14,1,2,1,true,z,false,true,0.0-2.0-0.51-0.467-3.467,0,0,1,90,false,stim,false,1,782,2,1,2,53356,task2,1265890,false,false,1585,image-keyboard-response,24
true,14,1,2,1,true,z,false,true,0.0-2.0-0.52-0.468-3.468,0,0,1,90,false,stim,false,2,767,2,0,0,53356,task2,1268194,false,false,1588,image-keyboard-response,25
true,14,1,2,1,true,z,false,false,0.0-2.0-0.52-0.469-3.469,0,0,1,90,false,stim,false,2,763,2,0,0,53356,task2,1270489,false,true,1591,image-keyboard-response,26
true,14,2,2,2,true,d,false,true,0.0-2.0-0.52-0.470-3.470,0,0,1,68,false,stim,false,0,704,2,0,1,53356,task2,1272731,false,false,1594,image-keyboard-response,27
true,14,1,2,1,true,z,false,true,0.0-2.0-0.52-0.471-3.471,0,0,1,90,false,stim,false,1,774,2,1,2,53356,task2,1275041,false,false,1597,image-keyboard-response,28
true,14,2,2,2,true,d,false,true,0.0-2.0-0.52-0.472-3.472,0,0,1,68,false,stim,false,0,797,2,0,1,53356,task2,1277365,false,false,1600,image-keyboard-response,29
true,14,1,2,1,true,z,false,true,0.0-2.0-0.52-0.473-3.473,0,0,1,90,false,stim,false,2,502,2,0,0,53356,task2,1279448,false,false,1603,image-keyboard-response,30
true,14,1,2,1,true,z,false,true,0.0-2.0-0.52-0.474-3.474,0,0,1,90,false,stim,false,1,794,2,1,2,53356,task2,1281780,false,false,1606,image-keyboard-response,31
true,14,2,2,2,true,d,false,true,0.0-2.0-0.52-0.475-3.475,0,0,1,68,false,stim,false,0,786,2,0,1,53356,task2,1284093,false,false,1609,image-keyboard-response,32
true,15,1,2,1,true,z,false,true,0.0-2.0-0.52-0.476-3.476,0,0,1,90,true,stim,false,1,744,2,1,2,53356,task2,1286372,false,false,1612,image-keyboard-response,1
true,15,1,2,1,true,z,false,true,0.0-2.0-0.53-0.477-3.477,0,0,1,90,false,stim,false,1,694,2,1,2,53356,task2,1288602,false,false,1615,image-keyboard-response,2
true,15,1,2,1,true,z,false,true,0.0-2.0-0.53-0.478-3.478,0,0,1,90,false,stim,false,1,500,2,1,2,53356,task2,1290626,false,false,1618,image-keyboard-response,3
true,15,2,2,1,false,z,false,false,0.0-2.0-0.53-0.479-3.479,0,0,1,68,false,stim,true,2,905,2,0,1,53356,task2,1293072,false,false,1621,image-keyboard-response,4
true,15,1,2,2,false,d,false,true,0.0-2.0-0.53-0.480-3.480,0,0,1,90,false,stim,true,1,590,2,0,0,53356,task2,1295197,false,true,1624,image-keyboard-response,5
true,15,2,2,1,false,z,false,false,0.0-2.0-0.53-0.481-3.481,0,0,1,68,false,stim,true,2,1231,2,0,1,53356,task2,1297957,false,false,1627,image-keyboard-response,6
true,15,1,2,1,true,z,false,true,0.0-2.0-0.53-0.482-3.482,0,0,1,90,false,stim,false,2,941,2,0,1,53356,task2,1300428,false,false,1630,image-keyboard-response,7
true,15,1,2,2,false,d,false,false,0.0-2.0-0.53-0.483-3.483,0,0,1,90,false,stim,true,1,462,2,0,0,53356,task2,1302429,false,false,1633,image-keyboard-response,8
true,15,1,2,1,true,z,false,true,0.0-2.0-0.53-0.484-3.484,0,0,1,90,false,stim,false,1,720,2,1,2,53356,task2,1304688,false,false,1636,image-keyboard-response,9
true,15,2,2,2,true,d,false,true,0.0-2.0-0.53-0.485-3.485,0,0,1,68,false,stim,false,1,1041,2,0,0,53356,task2,1307267,false,false,1639,image-keyboard-response,10
true,15,1,2,1,true,z,false,true,0.0-2.0-0.54-0.486-3.486,0,0,1,90,false,stim,false,1,763,2,1,2,53356,task2,1309569,false,false,1642,image-keyboard-response,11
true,15,1,2,1,true,z,false,true,0.0-2.0-0.54-0.487-3.487,0,0,1,90,false,stim,false,2,551,2,0,1,53356,task2,1311658,false,false,1645,image-keyboard-response,12
true,15,1,2,1,true,z,false,true,0.0-2.0-0.54-0.488-3.488,0,0,1,90,false,stim,false,2,657,2,0,1,53356,task2,1313843,false,false,1648,image-keyboard-response,13
true,15,1,2,1,true,z,false,true,0.0-2.0-0.54-0.489-3.489,0,0,1,90,false,stim,false,1,539,2,1,2,53356,task2,1315926,false,false,1651,image-keyboard-response,14
true,15,1,2,1,true,z,false,false,0.0-2.0-0.54-0.490-3.490,0,0,1,90,false,stim,false,1,486,2,1,2,53356,task2,1317952,false,true,1654,image-keyboard-response,15
true,15,2,2,2,true,d,false,true,0.0-2.0-0.54-0.491-3.491,0,0,1,68,false,stim,false,1,506,2,0,0,53356,task2,1319994,false,false,1657,image-keyboard-response,16
true,15,2,2,2,true,d,false,true,0.0-2.0-0.54-0.492-3.492,0,0,1,68,false,stim,false,1,706,2,0,0,53356,task2,1322233,false,false,1660,image-keyboard-response,17
true,15,1,2,1,true,z,false,true,0.0-2.0-0.54-0.493-3.493,0,0,1,90,false,stim,false,2,685,2,0,1,53356,task2,1324452,false,false,1663,image-keyboard-response,18
true,15,2,2,2,true,d,false,true,0.0-2.0-0.54-0.494-3.494,0,0,1,68,false,stim,false,1,672,2,0,0,53356,task2,1326660,false,false,1666,image-keyboard-response,19
true,15,1,2,1,true,z,false,true,0.0-2.0-0.55-0.495-3.495,0,0,1,90,false,stim,false,2,666,2,0,1,53356,task2,1328853,false,false,1669,image-keyboard-response,20
true,15,1,2,1,true,z,false,true,0.0-2.0-0.55-0.496-3.496,0,0,1,90,false,stim,false,1,475,2,1,2,53356,task2,1330864,false,false,1672,image-keyboard-response,21
true,15,1,2,1,true,z,false,true,0.0-2.0-0.55-0.497-3.497,0,0,1,90,false,stim,false,2,682,2,0,1,53356,task2,1333088,false,false,1675,image-keyboard-response,22
true,15,1,2,1,true,z,false,true,0.0-2.0-0.55-0.498-3.498,0,0,1,90,false,stim,false,1,873,2,1,2,53356,task2,1335500,false,false,1678,image-keyboard-response,23
true,15,1,2,1,true,z,false,true,0.0-2.0-0.55-0.499-3.499,0,0,1,90,false,stim,false,1,789,2,1,2,53356,task2,1337815,false,false,1681,image-keyboard-response,24
true,15,2,2,2,true,d,false,true,0.0-2.0-0.55-0.500-3.500,0,0,1,68,false,stim,false,1,532,2,0,0,53356,task2,1339880,false,false,1684,image-keyboard-response,25
true,15,1,2,1,true,z,false,true,0.0-2.0-0.55-0.501-3.501,0,0,1,90,false,stim,false,2,631,2,0,1,53356,task2,1342039,false,false,1687,image-keyboard-response,26
true,15,2,2,2,true,d,false,true,0.0-2.0-0.55-0.502-3.502,0,0,1,68,false,stim,false,1,480,2,0,0,53356,task2,1344047,false,false,1690,image-keyboard-response,27
true,15,2,2,2,true,d,false,true,0.0-2.0-0.55-0.503-3.503,0,0,1,68,false,stim,false,1,516,2,0,0,53356,task2,1346102,false,false,1693,image-keyboard-response,28
true,15,1,2,1,true,z,false,true,0.0-2.0-0.56-0.504-3.504,0,0,1,90,false,stim,false,2,422,2,1,1,53356,task2,1348069,false,false,1696,image-keyboard-response,29
true,15,1,2,1,true,z,false,true,0.0-2.0-0.56-0.505-3.505,0,0,1,90,false,stim,false,1,411,2,0,2,53356,task2,1350017,false,false,1699,image-keyboard-response,30
true,15,1,2,1,true,z,false,true,0.0-2.0-0.56-0.506-3.506,0,0,1,90,false,stim,false,2,623,2,1,1,53356,task2,1352200,false,false,1702,image-keyboard-response,31
true,16,1,2,0,false,q,false,false,0.0-2.0-0.56-0.507-3.507,0,1,0,90,true,stim,true,1,591,2,0,2,53356,task2,1354329,false,false,1705,image-keyboard-response,1
true,16,1,2,1,true,z,false,true,0.0-2.0-0.56-0.508-3.508,0,1,0,90,false,stim,false,1,993,2,1,1,53356,task2,1356846,false,false,1708,image-keyboard-response,2
true,16,2,2,0,false,q,true,false,0.0-2.0-0.56-0.509-3.509,0,1,0,68,false,stim,false,1,1049,2,0,2,53356,task2,1359425,false,false,1711,image-keyboard-response,3
true,16,2,2,1,false,z,false,false,0.0-2.0-0.56-0.510-3.510,0,1,0,68,false,stim,true,2,1063,2,0,0,53356,task2,1362030,false,false,1714,image-keyboard-response,4
true,16,1,2,1,true,z,false,true,0.0-2.0-0.56-0.511-3.511,0,1,0,90,false,stim,false,2,769,2,0,0,53356,task2,1364336,false,false,1717,image-keyboard-response,5
true,16,1,2,1,true,z,false,true,0.0-2.0-0.56-0.512-3.512,0,1,0,90,false,stim,false,2,512,2,0,0,53356,task2,1366379,false,false,1720,image-keyboard-response,6
true,16,1,2,1,true,z,false,false,0.0-2.0-0.57-0.513-3.513,0,1,0,90,false,stim,false,1,585,2,1,1,53356,task2,1368492,false,true,1723,image-keyboard-response,7
true,16,1,2,0,false,q,false,true,0.0-2.0-0.57-0.514-3.514,0,1,0,90,false,stim,true,1,377,2,0,2,53356,task2,1370414,false,true,1726,image-keyboard-response,8
true,16,2,2,1,false,z,true,false,0.0-2.0-0.57-0.515-3.515,0,1,0,68,false,stim,false,1,865,2,1,1,53356,task2,1372818,false,false,1729,image-keyboard-response,9
true,16,1,2,1,true,z,false,true,0.0-2.0-0.57-0.516-3.516,0,1,0,90,false,stim,false,2,308,2,0,0,53356,task2,1374660,false,false,1732,image-keyboard-response,10
true,16,1,2,1,true,z,false,true,0.0-2.0-0.57-0.517-3.517,0,1,0,90,false,stim,false,2,497,2,0,0,53356,task2,1376694,false,false,1735,image-keyboard-response,11
true,16,1,2,0,false,q,false,false,0.0-2.0-0.57-0.518-3.518,0,1,0,90,false,stim,true,1,376,2,0,2,53356,task2,1378613,false,false,1738,image-keyboard-response,12
true,16,1,2,1,true,z,false,true,0.0-2.0-0.57-0.519-3.519,0,1,0,90,false,stim,false,2,488,2,0,0,53356,task2,1380640,false,false,1741,image-keyboard-response,13
true,16,1,2,1,true,z,false,true,0.0-2.0-0.57-0.520-3.520,0,1,0,90,false,stim,false,1,1161,2,1,1,53356,task2,1383328,false,false,1744,image-keyboard-response,14
true,16,0,2,0,true,q,false,true,0.0-2.0-0.57-0.521-3.521,0,1,0,81,false,stim,false,1,1780,2,0,2,53356,task2,1386647,false,false,1747,image-keyboard-response,15
true,16,0,2,0,true,q,false,true,0.0-2.0-0.58-0.522-3.522,0,1,0,81,false,stim,false,1,1056,2,0,2,53356,task2,1389244,false,false,1750,image-keyboard-response,16
true,16,1,2,1,true,z,false,true,0.0-2.0-0.58-0.523-3.523,0,1,0,90,false,stim,false,1,1206,2,1,1,53356,task2,1391993,false,false,1753,image-keyboard-response,17
true,16,1,2,1,true,z,false,true,0.0-2.0-0.58-0.524-3.524,0,1,0,90,false,stim,false,2,1559,2,0,0,53356,task2,1395088,false,false,1756,image-keyboard-response,18
true,16,0,2,0,true,q,false,true,0.0-2.0-0.58-0.525-3.525,0,1,0,81,false,stim,false,1,681,2,0,2,53356,task2,1397309,false,false,1759,image-keyboard-response,19
true,16,1,2,1,true,z,false,true,0.0-2.0-0.58-0.526-3.526,0,1,0,90,false,stim,false,2,849,2,0,0,53356,task2,1399696,false,false,1762,image-keyboard-response,20
true,16,1,2,1,true,z,false,false,0.0-2.0-0.58-0.527-3.527,0,1,0,90,false,stim,false,1,959,2,1,1,53356,task2,1402186,false,true,1765,image-keyboard-response,21
true,16,0,2,0,true,q,false,true,0.0-2.0-0.58-0.528-3.528,0,1,0,81,false,stim,false,1,1192,2,0,2,53356,task2,1404919,false,false,1768,image-keyboard-response,22
true,16,1,2,1,true,z,false,true,0.0-2.0-0.58-0.529-3.529,0,1,0,90,false,stim,false,2,882,2,0,0,53356,task2,1407330,false,false,1771,image-keyboard-response,23
true,16,1,2,1,true,z,false,true,0.0-2.0-0.58-0.530-3.530,0,1,0,90,false,stim,false,1,508,2,1,1,53356,task2,1409375,false,false,1774,image-keyboard-response,24
true,16,1,2,1,true,z,false,true,0.0-2.0-0.59-0.531-3.531,0,1,0,90,false,stim,false,1,694,2,1,1,53356,task2,1411601,false,false,1777,image-keyboard-response,25
true,16,0,2,0,true,q,false,true,0.0-2.0-0.59-0.532-3.532,0,1,0,81,false,stim,false,1,736,2,0,2,53356,task2,1413865,false,false,1780,image-keyboard-response,26
true,16,1,2,1,true,z,false,true,0.0-2.0-0.59-0.533-3.533,0,1,0,90,false,stim,false,2,661,2,0,0,53356,task2,1416068,false,false,1783,image-keyboard-response,27
true,16,1,2,1,true,z,false,false,0.0-2.0-0.59-0.534-3.534,0,1,0,90,false,stim,false,2,743,2,0,0,53356,task2,1418350,false,true,1786,image-keyboard-response,28
true,16,0,2,1,false,z,true,false,0.0-2.0-0.59-0.535-3.535,0,1,0,81,false,stim,false,2,1659,2,1,0,53356,task2,1421546,false,false,1789,image-keyboard-response,29
true,16,1,2,1,true,z,false,true,0.0-2.0-0.59-0.536-3.536,0,1,0,90,false,stim,false,1,1220,2,1,1,53356,task2,1424297,false,false,1792,image-keyboard-response,30
true,16,0,2,0,true,q,false,true,0.0-2.0-0.59-0.537-3.537,0,1,0,81,false,stim,false,1,718,2,1,2,53356,task2,1426546,false,false,1795,image-keyboard-response,31
true,16,1,2,1,true,z,false,true,0.0-2.0-0.59-0.538-3.538,0,1,0,90,false,stim,false,1,964,2,1,1,53356,task2,1429041,false,false,1798,image-keyboard-response,32
true,16,0,2,0,true,q,false,true,0.0-2.0-0.59-0.539-3.539,0,1,0,81,false,stim,false,1,721,2,1,2,53356,task2,1431341,false,false,1801,image-keyboard-response,33
true,17,1,0,1,true,z,false,true,0.0-2.0-0.60-0.540-3.540,1,1,1,90,true,stim,false,1,1535,2,1,1,53356,task2,1454322,false,false,1824,image-keyboard-response,1
true,17,0,0,0,true,q,false,true,0.0-2.0-0.60-0.541-3.541,1,1,1,81,false,stim,false,0,353,2,1,2,53356,task2,1456220,false,false,1827,image-keyboard-response,2
true,17,1,0,1,true,z,false,true,0.0-2.0-0.60-0.542-3.542,1,1,1,90,false,stim,false,1,487,2,1,1,53356,task2,1458228,false,false,1830,image-keyboard-response,3
true,17,1,0,1,true,z,false,true,0.0-2.0-0.60-0.543-3.543,1,1,1,90,false,stim,false,1,645,2,1,0,53356,task2,1460413,false,false,1833,image-keyboard-response,4
true,17,1,0,1,true,z,false,true,0.0-2.0-0.60-0.544-3.544,1,1,1,90,false,stim,false,1,676,2,1,0,53356,task2,1462634,false,false,1836,image-keyboard-response,5
true,17,1,0,1,true,z,false,true,0.0-2.0-0.60-0.545-3.545,1,1,1,90,false,stim,false,1,826,2,1,1,53356,task2,1465002,false,false,1839,image-keyboard-response,6
true,17,1,0,1,true,z,false,true,0.0-2.0-0.60-0.546-3.546,1,1,1,90,false,stim,false,1,962,2,1,0,53356,task2,1467499,false,false,1842,image-keyboard-response,7
true,17,0,0,0,true,q,false,true,0.0-2.0-0.60-0.547-3.547,1,1,1,81,false,stim,false,0,836,2,1,2,53356,task2,1469874,false,false,1845,image-keyboard-response,8
true,17,0,0,0,true,q,false,true,0.0-2.0-0.60-0.548-3.548,1,1,1,81,false,stim,false,0,609,2,0,2,53356,task2,1472026,false,false,1848,image-keyboard-response,9
true,17,1,0,1,true,z,false,false,0.0-2.0-0.61-0.549-3.549,1,1,1,90,false,stim,false,1,774,2,0,1,53356,task2,1474331,false,true,1851,image-keyboard-response,10
true,17,0,0,1,false,z,true,false,0.0-2.0-0.61-0.550-3.550,1,1,1,81,false,stim,false,1,1718,2,0,1,53356,task2,1477576,false,false,1854,image-keyboard-response,11
true,17,1,0,1,true,z,false,true,0.0-2.0-0.61-0.551-3.551,1,1,1,90,false,stim,false,1,1092,2,1,0,53356,task2,1480208,false,false,1857,image-keyboard-response,12
true,17,0,0,0,true,q,false,true,0.0-2.0-0.61-0.552-3.552,1,1,1,81,false,stim,false,0,669,2,0,2,53356,task2,1482406,false,false,1860,image-keyboard-response,13
true,18,0,2,1,false,z,false,false,0.0-2.0-0.61-0.553-3.553,1,0,0,81,true,stim,true,0,675,2,0,2,53356,task2,1484612,false,false,1863,image-keyboard-response,1
false,18,-1,2,0,false,q,true,false,0.0-2.0-0.61-0.554-3.554,1,0,0,,false,stim,false,1,,2,0,1,53356,task2,1489174,false,false,1866,image-keyboard-response,2
false,18,-1,2,1,false,z,true,false,0.0-2.0-0.61-0.555-3.555,1,0,0,,false,stim,false,1,,2,1,0,53356,task2,1493734,false,false,1869,image-keyboard-response,3
true,18,1,2,1,true,z,false,true,0.0-2.0-0.61-0.556-3.556,1,0,0,90,false,stim,false,1,590,2,1,0,53356,task2,1495866,false,false,1872,image-keyboard-response,4
true,18,2,2,1,false,z,true,false,0.0-2.0-0.61-0.557-3.557,1,0,0,68,false,stim,false,0,1870,2,0,2,53356,task2,1499267,false,false,1875,image-keyboard-response,5
true,18,1,2,0,false,q,false,false,0.0-2.0-0.62-0.558-3.558,1,0,0,90,false,stim,true,1,596,2,0,1,53356,task2,1501393,false,false,1878,image-keyboard-response,6
true,18,1,2,1,true,z,false,true,0.0-2.0-0.62-0.559-3.559,1,0,0,90,false,stim,false,0,416,2,0,2,53356,task2,1503354,false,false,1881,image-keyboard-response,7
true,18,1,2,1,true,z,false,true,0.0-2.0-0.62-0.560-3.560,1,0,0,90,false,stim,false,0,636,2,0,2,53356,task2,1505533,false,false,1884,image-keyboard-response,8
true,18,1,2,0,false,q,false,false,0.0-2.0-0.62-0.561-3.561,1,0,0,90,false,stim,true,1,1479,2,0,1,53356,task2,1508556,false,false,1887,image-keyboard-response,9
true,18,1,2,1,true,z,false,true,0.0-2.0-0.62-0.562-3.562,1,0,0,90,false,stim,false,0,425,2,0,2,53356,task2,1510522,false,false,1890,image-keyboard-response,10
true,18,0,2,0,true,q,false,false,0.0-2.0-0.62-0.563-3.563,1,0,0,81,false,stim,false,1,486,2,0,1,53356,task2,1512543,false,true,1893,image-keyboard-response,11
true,18,1,2,1,true,z,false,false,0.0-2.0-0.62-0.564-3.564,1,0,0,90,false,stim,false,1,922,2,1,0,53356,task2,1514999,false,true,1896,image-keyboard-response,12
true,18,2,2,1,false,z,true,false,0.0-2.0-0.62-0.565-3.565,1,0,0,68,false,stim,false,1,1399,2,1,0,53356,task2,1517935,false,false,1899,image-keyboard-response,13
true,18,0,2,1,false,z,true,false,0.0-2.0-0.62-0.566-3.566,1,0,0,81,false,stim,false,1,1523,2,1,0,53356,task2,1521039,false,false,1902,image-keyboard-response,14
true,18,2,2,0,false,q,true,false,0.0-2.0-0.63-0.567-3.567,1,0,0,68,false,stim,false,1,509,2,0,1,53356,task2,1523086,false,false,1905,image-keyboard-response,15
true,18,1,2,1,true,z,false,true,0.0-2.0-0.63-0.568-3.568,1,0,0,90,false,stim,false,0,419,2,0,2,53356,task2,1525035,false,false,1908,image-keyboard-response,16
true,18,1,2,1,true,z,false,true,0.0-2.0-0.63-0.569-3.569,1,0,0,90,false,stim,false,0,311,2,0,2,53356,task2,1526888,false,false,1911,image-keyboard-response,17
true,18,1,2,1,true,z,false,false,0.0-2.0-0.63-0.570-3.570,1,0,0,90,false,stim,false,0,273,2,0,2,53356,task2,1528690,false,true,1914,image-keyboard-response,18
true,18,0,2,1,false,z,true,false,0.0-2.0-0.63-0.571-3.571,1,0,0,81,false,stim,false,1,768,2,1,0,53356,task2,1530986,false,false,1917,image-keyboard-response,19
true,18,1,2,1,true,z,false,true,0.0-2.0-0.63-0.572-3.572,1,0,0,90,false,stim,false,1,290,2,1,0,53356,task2,1532808,false,false,1920,image-keyboard-response,20
true,18,1,2,0,false,q,false,false,0.0-2.0-0.63-0.573-3.573,1,0,0,90,false,stim,true,1,420,2,0,1,53356,task2,1534756,false,false,1923,image-keyboard-response,21
true,18,0,2,0,true,q,false,false,0.0-2.0-0.63-0.574-3.574,1,0,0,81,false,stim,false,1,1071,2,0,1,53356,task2,1537368,false,true,1926,image-keyboard-response,22
true,18,1,2,1,true,z,false,true,0.0-2.0-0.63-0.575-3.575,1,0,0,90,false,stim,false,1,411,2,1,0,53356,task2,1539308,false,false,1929,image-keyboard-response,23
true,18,1,2,1,true,z,false,true,0.0-2.0-0.64-0.576-3.576,1,0,0,90,false,stim,false,1,323,2,1,0,53356,task2,1541160,false,false,1932,image-keyboard-response,24
true,18,1,2,1,true,z,false,true,0.0-2.0-0.64-0.577-3.577,1,0,0,90,false,stim,false,0,497,2,0,2,53356,task2,1543195,false,false,1935,image-keyboard-response,25
true,18,1,2,0,false,q,false,false,0.0-2.0-0.64-0.578-3.578,1,0,0,90,false,stim,true,1,423,2,0,1,53356,task2,1545159,false,false,1938,image-keyboard-response,26
true,18,1,2,1,true,z,false,true,0.0-2.0-0.64-0.579-3.579,1,0,0,90,false,stim,false,0,346,2,0,2,53356,task2,1547043,false,false,1941,image-keyboard-response,27
true,18,1,2,1,true,z,false,true,0.0-2.0-0.64-0.580-3.580,1,0,0,90,false,stim,false,1,619,2,0,0,53356,task2,1549197,false,false,1944,image-keyboard-response,28
true,18,1,2,1,true,z,false,true,0.0-2.0-0.64-0.581-3.581,1,0,0,90,false,stim,false,1,465,2,0,0,53356,task2,1551202,false,false,1947,image-keyboard-response,29
true,18,2,2,0,false,q,true,false,0.0-2.0-0.64-0.582-3.582,1,0,0,68,false,stim,false,1,349,2,0,1,53356,task2,1553086,false,false,1950,image-keyboard-response,30
true,18,1,2,1,true,z,false,true,0.0-2.0-0.64-0.583-3.583,1,0,0,90,false,stim,false,0,371,2,0,2,53356,task2,1554988,false,false,1953,image-keyboard-response,31
true,18,1,2,0,false,q,false,false,0.0-2.0-0.64-0.584-3.584,1,0,0,90,false,stim,true,1,750,2,0,1,53356,task2,1557257,false,false,1956,image-keyboard-response,32
true,19,1,1,0,false,q,false,false,0.0-2.0-0.65-0.585-3.585,0,0,0,90,true,stim,true,1,330,2,0,0,53356,task2,1559117,false,false,1959,image-keyboard-response,1
true,19,2,1,0,false,q,true,false,0.0-2.0-0.65-0.586-3.586,0,0,0,68,false,stim,false,1,1064,2,0,0,53356,task2,1561719,false,false,1962,image-keyboard-response,2
true,19,1,1,0,false,q,false,false,0.0-2.0-0.65-0.587-3.587,0,0,0,90,false,stim,true,1,631,2,0,0,53356,task2,1563872,false,false,1965,image-keyboard-response,3
true,19,1,1,2,false,d,true,false,0.0-2.0-0.65-0.588-3.588,0,0,0,90,false,stim,false,0,869,2,0,1,53356,task2,1566256,false,false,1968,image-keyboard-response,4
true,19,1,1,2,false,d,false,false,0.0-2.0-0.65-0.589-3.589,0,0,0,90,false,stim,true,1,1001,2,0,2,53356,task2,1568787,false,false,1971,image-keyboard-response,5
true,19,0,1,2,false,d,false,false,0.0-2.0-0.65-0.590-3.590,0,0,0,81,false,stim,true,0,254,2,0,1,53356,task2,1570560,false,false,1974,image-keyboard-response,6
true,19,0,1,2,false,d,false,false,0.0-2.0-0.65-0.591-3.591,0,0,0,81,false,stim,true,0,580,2,0,1,53356,task2,1572666,false,false,1977,image-keyboard-response,7
true,19,0,1,2,false,d,true,false,0.0-2.0-0.65-0.592-3.592,0,0,0,81,false,stim,false,1,660,2,0,2,53356,task2,1574857,false,false,1980,image-keyboard-response,8
true,19,2,1,2,true,d,false,true,0.0-2.0-0.65-0.593-3.593,0,0,0,68,false,stim,false,1,485,2,0,2,53356,task2,1576872,false,false,1983,image-keyboard-response,9
true,19,2,1,2,true,d,false,true,0.0-2.0-0.66-0.594-3.594,0,0,0,68,false,stim,false,0,329,2,0,1,53356,task2,1578736,false,false,1986,image-keyboard-response,10
true,19,2,1,2,true,d,false,true,0.0-2.0-0.66-0.595-3.595,0,0,0,68,false,stim,false,1,704,2,0,2,53356,task2,1580981,false,false,1989,image-keyboard-response,11
true,19,1,1,0,false,q,false,false,0.0-2.0-0.66-0.596-3.596,0,0,0,90,false,stim,true,1,627,2,0,0,53356,task2,1583136,false,false,1992,image-keyboard-response,12
true,19,2,1,2,true,d,false,true,0.0-2.0-0.66-0.597-3.597,0,0,0,68,false,stim,false,1,450,2,0,2,53356,task2,1585135,false,false,1995,image-keyboard-response,13
true,19,2,1,2,true,d,false,true,0.0-2.0-0.66-0.598-3.598,0,0,0,68,false,stim,false,1,428,2,0,2,53356,task2,1587096,false,false,1998,image-keyboard-response,14
true,19,0,1,0,true,q,false,true,0.0-2.0-0.66-0.599-3.599,0,0,0,81,false,stim,false,1,518,2,0,0,53356,task2,1589179,false,false,2001,image-keyboard-response,15
true,19,2,1,2,true,d,false,true,0.0-2.0-0.66-0.600-3.600,0,0,0,68,false,stim,false,0,490,2,0,1,53356,task2,1591208,false,false,2004,image-keyboard-response,16
true,19,2,1,2,true,d,false,true,0.0-2.0-0.66-0.601-3.601,0,0,0,68,false,stim,false,0,672,2,0,1,53356,task2,1593416,false,false,2007,image-keyboard-response,17
true,19,0,1,0,true,q,false,true,0.0-2.0-0.66-0.602-3.602,0,0,0,81,false,stim,false,1,436,2,0,0,53356,task2,1595403,false,false,2010,image-keyboard-response,18
true,19,2,1,2,true,d,false,true,0.0-2.0-0.67-0.603-3.603,0,0,0,68,false,stim,false,0,623,2,0,1,53356,task2,1597567,false,false,2013,image-keyboard-response,19
true,19,0,1,0,true,q,false,true,0.0-2.0-0.67-0.604-3.604,0,0,0,81,false,stim,false,1,1333,2,0,0,53356,task2,1600439,false,false,2016,image-keyboard-response,20
true,19,2,1,2,true,d,false,true,0.0-2.0-0.67-0.605-3.605,0,0,0,68,false,stim,false,0,573,2,0,1,53356,task2,1602540,false,false,2019,image-keyboard-response,21
true,19,2,1,2,true,d,false,true,0.0-2.0-0.67-0.606-3.606,0,0,0,68,false,stim,false,0,374,2,0,1,53356,task2,1604461,false,false,2022,image-keyboard-response,22
true,19,0,1,0,true,q,false,true,0.0-2.0-0.67-0.607-3.607,0,0,0,81,false,stim,false,1,531,2,0,0,53356,task2,1606519,false,false,2025,image-keyboard-response,23
true,19,0,1,0,true,q,false,true,0.0-2.0-0.67-0.608-3.608,0,0,0,81,false,stim,false,1,522,2,0,0,53356,task2,1608567,false,false,2028,image-keyboard-response,24
true,19,2,1,2,true,d,false,true,0.0-2.0-0.67-0.609-3.609,0,0,0,68,false,stim,false,1,567,2,0,2,53356,task2,1610674,false,false,2031,image-keyboard-response,25
true,19,2,1,2,true,d,false,true,0.0-2.0-0.67-0.610-3.610,0,0,0,68,false,stim,false,1,522,2,0,2,53356,task2,1612729,false,false,2034,image-keyboard-response,26
true,19,2,1,2,true,d,false,true,0.0-2.0-0.67-0.611-3.611,0,0,0,68,false,stim,false,1,523,2,0,2,53356,task2,1614790,false,false,2037,image-keyboard-response,27
true,19,2,1,2,true,d,false,true,0.0-2.0-0.68-0.612-3.612,0,0,0,68,false,stim,false,0,722,2,0,1,53356,task2,1617048,false,false,2040,image-keyboard-response,28
true,19,0,1,0,true,q,false,true,0.0-2.0-0.68-0.613-3.613,0,0,0,81,false,stim,false,1,672,2,0,0,53356,task2,1619260,false,false,2043,image-keyboard-response,29
true,19,0,1,0,true,q,false,true,0.0-2.0-0.68-0.614-3.614,0,0,0,81,false,stim,false,1,566,2,0,0,53356,task2,1621344,false,false,2046,image-keyboard-response,30
true,19,2,1,2,true,d,false,true,0.0-2.0-0.68-0.615-3.615,0,0,0,68,false,stim,false,0,525,2,0,1,53356,task2,1623402,false,false,2049,image-keyboard-response,31
true,19,0,1,0,true,q,false,true,0.0-2.0-0.68-0.616-3.616,0,0,0,81,false,stim,false,1,611,2,0,0,53356,task2,1625549,false,false,2052,image-keyboard-response,32
true,19,2,1,2,true,d,false,true,0.0-2.0-0.68-0.617-3.617,0,0,0,68,false,stim,false,1,439,2,0,2,53356,task2,1627516,false,false,2055,image-keyboard-response,33
true,19,2,1,2,true,d,false,true,0.0-2.0-0.68-0.618-3.618,0,0,0,68,false,stim,false,0,573,2,0,1,53356,task2,1629630,false,false,2058,image-keyboard-response,34
true,19,2,1,2,true,d,false,false,0.0-2.0-0.68-0.619-3.619,0,0,0,68,false,stim,false,1,604,2,0,2,53356,task2,1631761,false,true,2061,image-keyboard-response,35
true,19,0,1,2,false,d,true,false,0.0-2.0-0.68-0.620-3.620,0,0,0,81,false,stim,false,1,1181,2,0,2,53356,task2,1634479,false,false,2064,image-keyboard-response,36
true,19,2,1,2,true,d,false,true,0.0-2.0-0.69-0.621-3.621,0,0,0,68,false,stim,false,0,460,2,0,1,53356,task2,1636477,false,false,2067,image-keyboard-response,37
true,20,2,1,0,false,q,false,false,0.0-2.0-0.69-0.622-3.622,0,0,0,68,true,stim,true,2,669,2,0,2,53356,task2,1638686,false,false,2070,image-keyboard-response,1
true,20,0,1,2,false,d,false,false,0.0-2.0-0.69-0.623-3.623,0,0,0,81,false,stim,true,0,703,2,0,0,53356,task2,1640921,false,false,2073,image-keyboard-response,2
true,20,2,1,1,false,z,false,true,0.0-2.0-0.69-0.624-3.624,0,0,0,68,false,stim,true,2,732,2,0,1,53356,task2,1643179,false,true,2076,image-keyboard-response,3
true,20,2,1,2,true,d,false,true,0.0-2.0-0.69-0.625-3.625,0,0,0,68,false,stim,false,0,300,2,0,0,53356,task2,1645008,false,false,2079,image-keyboard-response,4
true,20,2,1,1,false,z,false,false,0.0-2.0-0.69-0.626-3.626,0,0,0,68,false,stim,true,2,651,2,0,1,53356,task2,1647198,false,false,2082,image-keyboard-response,5
true,20,2,1,0,false,q,false,false,0.0-2.0-0.69-0.627-3.627,0,0,0,68,false,stim,true,2,391,2,0,2,53356,task2,1649118,false,false,2085,image-keyboard-response,6
true,20,0,1,0,true,q,false,true,0.0-2.0-0.69-0.628-3.628,0,0,0,81,false,stim,false,2,724,2,0,2,53356,task2,1651372,false,false,2088,image-keyboard-response,7
true,20,2,1,2,true,d,false,true,0.0-2.0-0.69-0.629-3.629,0,0,0,68,false,stim,false,0,461,2,0,0,53356,task2,1653358,false,false,2091,image-keyboard-response,8
true,20,1,1,2,false,d,true,false,0.0-2.0-0.70-0.630-3.630,0,0,0,90,false,stim,false,0,397,2,0,0,53356,task2,1655295,false,false,2094,image-keyboard-response,9
true,20,2,1,1,false,z,false,false,0.0-2.0-0.70-0.631-3.631,0,0,0,68,false,stim,true,2,677,2,0,1,53356,task2,1657515,false,false,2097,image-keyboard-response,10
true,20,2,1,2,true,d,false,true,0.0-2.0-0.70-0.632-3.632,0,0,0,68,false,stim,false,0,695,2,0,0,53356,task2,1659748,false,false,2100,image-keyboard-response,11
true,20,2,1,0,false,q,false,false,0.0-2.0-0.70-0.633-3.633,0,0,0,68,false,stim,true,2,364,2,0,2,53356,task2,1661681,false,false,2103,image-keyboard-response,12
