answered,blockNum,choice,condition,corResp,correct,correct_response,explo,fb,internal_node_id,isStable_1,isStable_2,isStable_3,key_press,newBlock,part,persev,persevResp,rt,sessNum,stableAS,stimulus,subject,task,time_elapsed,training,trap,trial_index,trial_type,trialsInBlock
true,1,0,0,1,false,z,true,false,0.0-2.0-0.0-0.0-3.0,0,0,0,81,true,stim,false,-1,1010.4000000000233,0,0,0,53495,task3,156761,false,false,83,image-keyboard-response,1
true,1,0,0,2,false,d,true,false,0.0-2.0-0.0-0.1-3.1,0,0,0,81,false,stim,false,-1,797.2999999999302,0,0,1,53495,task3,159066,false,false,86,image-keyboard-response,2
true,1,2,0,1,false,z,true,false,0.0-2.0-0.0-0.2-3.2,0,0,0,68,false,stim,false,-1,1063.5,0,0,0,53495,task3,161648,false,false,89,image-keyboard-response,3
true,1,2,0,2,true,d,false,true,0.0-2.0-0.0-0.3-3.3,0,0,0,68,false,stim,false,-1,1407.1999999999534,0,0,1,53495,task3,164567,false,false,92,image-keyboard-response,4
true,1,2,0,2,true,d,false,true,0.0-2.0-0.0-0.4-3.4,0,0,0,68,false,stim,false,-1,871.1999999999534,0,0,1,53495,task3,166946,false,false,95,image-keyboard-response,5
true,1,1,0,1,true,z,false,true,0.0-2.0-0.0-0.5-3.5,0,0,0,90,false,stim,false,-1,772.8999999999069,0,0,0,53495,task3,169234,false,false,98,image-keyboard-response,6
true,1,0,0,2,false,d,true,false,0.0-2.0-0.0-0.6-3.6,0,0,0,81,false,stim,false,-1,1375.0999999999767,0,0,2,53495,task3,172122,false,false,101,image-keyboard-response,7
true,1,1,0,2,false,d,true,false,0.0-2.0-0.0-0.7-3.7,0,0,0,90,false,stim,false,-1,1035.7000000000698,0,0,2,53495,task3,174668,false,false,104,image-keyboard-response,8
true,1,2,0,2,true,d,false,true,0.0-2.0-0.0-0.8-3.8,0,0,0,68,false,stim,false,-1,769.7000000000698,0,0,2,53495,task3,176963,false,false,107,image-keyboard-response,9
true,1,2,0,2,true,d,false,false,0.0-2.0-0.1-0.9-3.9,0,0,0,68,false,stim,false,-1,2063.0,0,0,1,53495,task3,180556,false,true,110,image-keyboard-response,10
true,1,1,0,1,true,z,false,true,0.0-2.0-0.1-0.10-3.10,0,0,0,90,false,stim,false,-1,1252.2999999999302,0,0,0,53495,task3,183349,false,false,113,image-keyboard-response,11
true,1,2,0,2,true,d,false,true,0.0-2.0-0.1-0.11-3.11,0,0,0,68,false,stim,false,-1,950.4000000000233,0,0,2,53495,task3,185820,false,false,116,image-keyboard-response,12
true,1,1,0,2,false,d,true,false,0.0-2.0-0.1-0.12-3.12,0,0,0,90,false,stim,false,-1,1315.0,0,0,1,53495,task3,188643,false,false,119,image-keyboard-response,13
true,1,1,0,1,true,z,false,true,0.0-2.0-0.1-0.13-3.13,0,0,0,90,false,stim,false,-1,1909.4000000000233,0,0,0,53495,task3,192066,false,false,122,image-keyboard-response,14
true,1,2,0,2,true,d,false,true,0.0-2.0-0.1-0.14-3.14,0,0,0,68,false,stim,false,-1,1425.1999999999534,0,0,1,53495,task3,195001,false,false,125,image-keyboard-response,15
true,1,0,0,2,false,d,true,false,0.0-2.0-0.1-0.15-3.15,0,0,0,81,false,stim,false,-1,939.6000000000931,0,0,2,53495,task3,197461,false,false,128,image-keyboard-response,16
true,1,1,0,2,false,d,true,false,0.0-2.0-0.1-0.16-3.16,0,0,0,90,false,stim,false,-1,1092.0999999999767,0,0,2,53495,task3,200091,false,false,131,image-keyboard-response,17
true,1,1,0,1,true,z,false,true,0.0-2.0-0.1-0.17-3.17,0,0,0,90,false,stim,false,-1,1310.4000000000233,0,0,0,53495,task3,202924,false,false,134,image-keyboard-response,18
false,1,-1,0,2,false,d,false,false,0.0-2.0-0.2-0.18-3.18,0,0,0,,false,stim,true,-1,,0,0,2,53495,task3,207440,false,false,137,image-keyboard-response,19
true,1,1,0,2,false,d,true,false,0.0-2.0-0.2-0.19-3.19,0,0,0,90,false,stim,false,-1,1495.0999999999767,0,0,1,53495,task3,210456,false,false,140,image-keyboard-response,20
true,1,2,0,2,true,d,false,true,0.0-2.0-0.2-0.20-3.20,0,0,0,68,false,stim,false,-1,1237.5999999999767,0,0,2,53495,task3,213223,false,false,143,image-keyboard-response,21
true,1,1,0,1,true,z,false,true,0.0-2.0-0.2-0.21-3.21,0,0,0,90,false,stim,false,-1,1192.3000000000466,0,0,0,53495,task3,215925,false,false,146,image-keyboard-response,22
true,1,2,0,2,true,d,false,true,0.0-2.0-0.2-0.22-3.22,0,0,0,68,false,stim,false,-1,869.0,0,0,1,53495,task3,218315,false,false,149,image-keyboard-response,23
true,1,2,0,2,true,d,false,true,0.0-2.0-0.2-0.23-3.23,0,0,0,68,false,stim,false,-1,1882.4000000000233,0,0,2,53495,task3,221717,false,false,152,image-keyboard-response,24
true,1,1,0,1,true,z,false,true,0.0-2.0-0.2-0.24-3.24,0,0,0,90,false,stim,false,-1,1287.0999999999767,0,0,0,53495,task3,224523,false,false,155,image-keyboard-response,25
true,1,1,0,1,true,z,false,true,0.0-2.0-0.2-0.25-3.25,0,0,0,90,false,stim,false,-1,977.5,0,0,0,53495,task3,227047,false,false,158,image-keyboard-response,26
true,1,2,0,2,true,d,false,true,0.0-2.0-0.2-0.26-3.26,0,0,0,68,false,stim,false,-1,844.3000000000466,0,1,1,53495,task3,229428,false,false,161,image-keyboard-response,27
true,1,2,0,2,true,d,false,true,0.0-2.0-0.3-0.27-3.27,0,0,0,68,false,stim,false,-1,759.3000000000466,0,1,1,53495,task3,231704,false,false,164,image-keyboard-response,28
true,1,1,0,1,true,z,false,true,0.0-2.0-0.3-0.28-3.28,0,0,0,90,false,stim,false,-1,882.5,0,0,0,53495,task3,234122,false,false,167,image-keyboard-response,29
true,1,2,0,2,true,d,false,true,0.0-2.0-0.3-0.29-3.29,0,0,0,68,false,stim,false,-1,1702.0,0,1,1,53495,task3,237333,false,false,170,image-keyboard-response,30
true,2,1,1,2,false,d,false,false,0.0-2.0-0.3-0.30-3.30,0,1,0,90,true,stim,true,1,956.5,0,0,0,53495,task3,239824,false,false,173,image-keyboard-response,1
true,2,2,1,0,false,q,false,false,0.0-2.0-0.3-0.31-3.31,0,1,0,68,false,stim,true,2,817.5,0,0,2,53495,task3,242162,false,false,176,image-keyboard-response,2
true,2,0,1,0,true,q,false,true,0.0-2.0-0.3-0.32-3.32,0,1,0,81,false,stim,false,2,994.1000000000931,0,0,2,53495,task3,244674,false,false,179,image-keyboard-response,3
true,2,0,1,2,false,d,true,false,0.0-2.0-0.3-0.33-3.33,0,1,0,81,false,stim,false,1,801.2000000000698,0,0,0,53495,task3,246990,false,false,182,image-keyboard-response,4
true,2,0,1,0,true,q,false,false,0.0-2.0-0.3-0.34-3.34,0,1,0,81,false,stim,false,2,850.8000000000466,0,0,2,53495,task3,249362,false,true,185,image-keyboard-response,5
true,2,0,1,2,false,d,true,false,0.0-2.0-0.3-0.35-3.35,0,1,0,81,false,stim,false,2,2178.899999999907,0,1,1,53495,task3,253062,false,false,188,image-keyboard-response,6
true,2,1,1,0,false,q,true,false,0.0-2.0-0.4-0.36-3.36,0,1,0,90,false,stim,false,2,1518.0,0,0,2,53495,task3,256089,false,false,191,image-keyboard-response,7
true,2,0,1,2,false,d,true,true,0.0-2.0-0.4-0.37-3.37,0,1,0,81,false,stim,false,1,1782.0,0,0,0,53495,task3,259405,false,true,194,image-keyboard-response,8
true,2,2,1,2,true,d,false,true,0.0-2.0-0.4-0.38-3.38,0,1,0,68,false,stim,false,2,1424.6999999999534,0,1,1,53495,task3,262351,false,false,197,image-keyboard-response,9
true,2,0,1,2,false,d,true,false,0.0-2.0-0.4-0.39-3.39,0,1,0,81,false,stim,false,1,1009.4000000000233,0,0,0,53495,task3,264879,false,false,200,image-keyboard-response,10
true,2,2,1,2,true,d,false,true,0.0-2.0-0.4-0.40-3.40,0,1,0,68,false,stim,false,2,1488.2999999999302,0,1,1,53495,task3,267889,false,false,203,image-keyboard-response,11
true,2,2,1,0,false,q,false,false,0.0-2.0-0.4-0.41-3.41,0,1,0,68,false,stim,true,2,933.7000000000698,0,0,2,53495,task3,270342,false,false,206,image-keyboard-response,12
true,2,1,1,0,false,q,true,false,0.0-2.0-0.4-0.42-3.42,0,1,0,90,false,stim,false,2,806.5999999999767,0,0,2,53495,task3,272667,false,false,209,image-keyboard-response,13
true,2,1,1,2,false,d,true,false,0.0-2.0-0.4-0.43-3.43,0,1,0,90,false,stim,false,2,1343.5,0,1,1,53495,task3,275534,false,false,212,image-keyboard-response,14
true,2,2,1,2,true,d,false,true,0.0-2.0-0.4-0.44-3.44,0,1,0,68,false,stim,false,1,1128.2000000000698,0,0,0,53495,task3,278181,false,false,215,image-keyboard-response,15
true,2,2,1,2,true,d,false,true,0.0-2.0-0.5-0.45-3.45,0,1,0,68,false,stim,false,1,836.0,0,0,0,53495,task3,280547,false,false,218,image-keyboard-response,16
true,2,0,1,2,false,d,true,false,0.0-2.0-0.5-0.46-3.46,0,1,0,81,false,stim,false,2,619.7999999999302,0,1,1,53495,task3,282702,false,false,221,image-keyboard-response,17
true,2,0,1,0,true,q,false,true,0.0-2.0-0.5-0.47-3.47,0,1,0,81,false,stim,false,2,876.9000000000233,0,0,2,53495,task3,285101,false,false,224,image-keyboard-response,18
true,2,1,1,2,false,d,true,false,0.0-2.0-0.5-0.48-3.48,0,1,0,90,false,stim,false,2,1052.5,0,1,1,53495,task3,287680,false,false,227,image-keyboard-response,19
true,2,0,1,0,true,q,false,true,0.0-2.0-0.5-0.49-3.49,0,1,0,81,false,stim,false,2,1132.9000000000233,0,0,2,53495,task3,290339,false,false,230,image-keyboard-response,20
true,2,0,1,0,true,q,false,true,0.0-2.0-0.5-0.50-3.50,0,1,0,81,false,stim,false,2,738.3000000000466,0,0,2,53495,task3,292590,false,false,233,image-keyboard-response,21
true,2,2,1,2,true,d,false,true,0.0-2.0-0.5-0.51-3.51,0,1,0,68,false,stim,false,1,1111.8000000000466,0,1,0,53495,task3,295220,false,false,236,image-keyboard-response,22
true,2,2,1,2,true,d,false,true,0.0-2.0-0.5-0.52-3.52,0,1,0,68,false,stim,false,1,665.7000000000698,0,1,0,53495,task3,297407,false,false,239,image-keyboard-response,23
true,2,2,1,2,true,d,false,true,0.0-2.0-0.5-0.53-3.53,0,1,0,68,false,stim,false,2,838.1999999999534,0,0,1,53495,task3,299757,false,false,242,image-keyboard-response,24
true,3,2,1,0,false,q,false,false,0.0-2.0-0.6-0.54-3.54,1,0,0,68,true,stim,true,2,628.3000000000466,0,0,1,53495,task3,301899,false,false,245,image-keyboard-response,1
true,3,2,1,2,true,d,false,true,0.0-2.0-0.6-0.55-3.55,1,0,0,68,false,stim,false,2,1924.0,0,1,0,53495,task3,305335,false,false,248,image-keyboard-response,2
true,3,0,1,2,false,d,false,true,0.0-2.0-0.6-0.56-3.56,1,0,0,81,false,stim,true,0,1019.1999999999534,0,0,2,53495,task3,307860,false,true,251,image-keyboard-response,3
true,3,1,1,0,false,q,true,false,0.0-2.0-0.6-0.57-3.57,1,0,0,90,false,stim,false,2,590.1999999999534,0,0,1,53495,task3,309968,false,false,254,image-keyboard-response,4
true,3,2,1,2,true,d,false,true,0.0-2.0-0.6-0.58-3.58,1,0,0,68,false,stim,false,2,1313.0,0,1,0,53495,task3,312804,false,false,257,image-keyboard-response,5
true,3,0,1,2,false,d,false,false,0.0-2.0-0.6-0.59-3.59,1,0,0,81,false,stim,true,0,1218.8000000000466,0,0,2,53495,task3,315540,false,false,260,image-keyboard-response,6
true,3,1,1,2,false,d,true,false,0.0-2.0-0.6-0.60-3.60,1,0,0,90,false,stim,false,0,822.8000000000466,0,0,2,53495,task3,317878,false,false,263,image-keyboard-response,7
true,3,2,1,2,true,d,false,true,0.0-2.0-0.6-0.61-3.61,1,0,0,68,false,stim,false,2,833.7000000000698,0,1,0,53495,task3,320224,false,false,266,image-keyboard-response,8
true,3,0,1,0,true,q,false,false,0.0-2.0-0.6-0.62-3.62,1,0,0,81,false,stim,false,2,604.5999999999767,0,0,1,53495,task3,322355,false,true,269,image-keyboard-response,9
true,3,2,1,2,true,d,false,false,0.0-2.0-0.7-0.63-3.63,1,0,0,68,false,stim,false,2,796.0,0,1,0,53495,task3,324660,false,true,272,image-keyboard-response,10
true,3,1,1,0,false,q,true,false,0.0-2.0-0.7-0.64-3.64,1,0,0,90,false,stim,false,2,1062.7000000000698,0,0,1,53495,task3,327243,false,false,275,image-keyboard-response,11
true,3,2,1,0,false,q,false,false,0.0-2.0-0.7-0.65-3.65,1,0,0,68,false,stim,true,2,884.0999999999767,0,0,1,53495,task3,329641,false,false,278,image-keyboard-response,12
true,3,0,1,2,false,d,true,false,0.0-2.0-0.7-0.66-3.66,1,0,0,81,false,stim,false,2,1641.9000000000233,0,1,0,53495,task3,332799,false,false,281,image-keyboard-response,13
true,3,2,1,2,true,d,false,true,0.0-2.0-0.7-0.67-3.67,1,0,0,68,false,stim,false,0,2265.6999999999534,0,0,2,53495,task3,336584,false,false,284,image-keyboard-response,14
true,3,2,1,2,true,d,false,true,0.0-2.0-0.7-0.68-3.68,1,0,0,68,false,stim,false,0,985.1999999999534,0,0,2,53495,task3,339081,false,false,287,image-keyboard-response,15
true,3,1,1,0,false,q,true,false,0.0-2.0-0.7-0.69-3.69,1,0,0,90,false,stim,false,2,695.2999999999302,0,0,1,53495,task3,341288,false,false,290,image-keyboard-response,16
true,3,0,1,2,false,d,true,false,0.0-2.0-0.7-0.70-3.70,1,0,0,81,false,stim,false,2,959.6999999999534,0,1,0,53495,task3,343777,false,false,293,image-keyboard-response,17
true,3,2,1,2,true,d,false,true,0.0-2.0-0.7-0.71-3.71,1,0,0,68,false,stim,false,0,1524.7000000000698,0,0,2,53495,task3,346812,false,false,296,image-keyboard-response,18
true,3,2,1,2,true,d,false,true,0.0-2.0-0.8-0.72-3.72,1,0,0,68,false,stim,false,0,675.5,0,0,2,53495,task3,349012,false,false,299,image-keyboard-response,19
true,3,2,1,2,true,d,false,true,0.0-2.0-0.8-0.73-3.73,1,0,0,68,false,stim,false,0,559.8000000000466,0,0,2,53495,task3,351093,false,false,302,image-keyboard-response,20
true,3,2,1,2,true,d,false,true,0.0-2.0-0.8-0.74-3.74,1,0,0,68,false,stim,false,0,507.29999999993015,0,0,2,53495,task3,353122,false,false,305,image-keyboard-response,21
true,3,2,1,2,true,d,false,true,0.0-2.0-0.8-0.75-3.75,1,0,0,68,false,stim,false,2,710.4000000000233,0,1,0,53495,task3,355360,false,false,308,image-keyboard-response,22
true,3,2,1,0,false,q,false,false,0.0-2.0-0.8-0.76-3.76,1,0,0,68,false,stim,true,2,700.5,0,0,1,53495,task3,357577,false,false,311,image-keyboard-response,23
true,3,2,1,2,true,d,false,true,0.0-2.0-0.8-0.77-3.77,1,0,0,68,false,stim,false,2,848.8000000000466,0,1,0,53495,task3,359955,false,false,314,image-keyboard-response,24
true,3,1,1,0,false,q,true,false,0.0-2.0-0.8-0.78-3.78,1,0,0,90,false,stim,false,2,666.4000000000233,0,1,1,53495,task3,362145,false,false,317,image-keyboard-response,25
true,3,2,1,2,true,d,false,false,0.0-2.0-0.8-0.79-3.79,1,0,0,68,false,stim,false,2,1648.5,0,1,0,53495,task3,365311,false,true,320,image-keyboard-response,26
true,3,0,1,0,true,q,false,true,0.0-2.0-0.8-0.80-3.80,1,0,0,81,false,stim,false,2,1424.5999999999767,0,1,1,53495,task3,368248,false,false,323,image-keyboard-response,27
true,3,2,1,2,true,d,false,true,0.0-2.0-0.9-0.81-3.81,1,0,0,68,false,stim,false,0,892.5999999999767,0,0,2,53495,task3,370650,false,false,326,image-keyboard-response,28
true,4,0,2,0,true,q,false,true,0.0-2.0-0.9-0.82-3.82,1,1,0,81,true,stim,false,0,920.9000000000233,0,1,1,53495,task3,373077,false,false,329,image-keyboard-response,1
true,4,0,2,0,true,q,false,true,0.0-2.0-0.9-0.83-3.83,1,1,0,81,false,stim,false,0,559.0,0,1,1,53495,task3,375146,false,false,332,image-keyboard-response,2
true,4,2,2,1,false,z,false,false,0.0-2.0-0.9-0.84-3.84,1,1,0,68,false,stim,true,2,1257.8000000000466,0,0,2,53495,task3,377925,false,false,335,image-keyboard-response,3
true,4,0,2,2,false,d,true,false,0.0-2.0-0.9-0.85-3.85,1,1,0,81,false,stim,false,2,1914.0,0,1,0,53495,task3,381367,false,false,338,image-keyboard-response,4
true,4,2,2,1,false,z,false,true,0.0-2.0-0.9-0.86-3.86,1,1,0,68,false,stim,true,2,2077.5,0,0,2,53495,task3,384960,false,true,341,image-keyboard-response,5
true,4,1,2,0,false,q,true,false,0.0-2.0-0.9-0.87-3.87,1,1,0,90,false,stim,false,0,1046.8000000000466,0,1,1,53495,task3,387526,false,false,344,image-keyboard-response,6
true,4,2,2,2,true,d,false,true,0.0-2.0-0.9-0.88-3.88,1,1,0,68,false,stim,false,2,1425.6999999999534,0,1,0,53495,task3,390462,false,false,347,image-keyboard-response,7
true,4,2,2,2,true,d,false,false,0.0-2.0-0.9-0.89-3.89,1,1,0,68,false,stim,false,2,1011.5999999999767,0,1,0,53495,task3,392986,false,true,350,image-keyboard-response,8
true,4,0,2,0,true,q,false,true,0.0-2.0-0.10-0.90-3.90,1,1,0,81,false,stim,false,0,1696.4000000000233,0,1,1,53495,task3,396195,false,false,353,image-keyboard-response,9
true,4,1,2,2,false,d,true,true,0.0-2.0-0.10-0.91-3.91,1,1,0,90,false,stim,false,2,1558.5999999999767,0,1,0,53495,task3,399267,false,true,356,image-keyboard-response,10
true,4,1,2,2,false,d,true,true,0.0-2.0-0.10-0.92-3.92,1,1,0,90,false,stim,false,2,656.0,0,1,0,53495,task3,401452,false,true,359,image-keyboard-response,11
true,4,0,2,0,true,q,false,true,0.0-2.0-0.10-0.93-3.93,1,1,0,81,false,stim,false,0,1121.2999999999302,0,1,1,53495,task3,404094,false,false,362,image-keyboard-response,12
true,4,2,2,1,false,z,false,false,0.0-2.0-0.10-0.94-3.94,1,1,0,68,false,stim,true,2,1401.2999999999302,0,0,2,53495,task3,407006,false,false,365,image-keyboard-response,13
true,4,1,2,2,false,d,true,false,0.0-2.0-0.10-0.95-3.95,1,1,0,90,false,stim,false,2,1897.5,0,1,0,53495,task3,410424,false,false,368,image-keyboard-response,14
true,4,0,2,1,false,z,true,false,0.0-2.0-0.10-0.96-3.96,1,1,0,81,false,stim,false,2,1484.6999999999534,0,0,2,53495,task3,413416,false,false,371,image-keyboard-response,15
true,4,0,2,0,true,q,false,true,0.0-2.0-0.10-0.97-3.97,1,1,0,81,false,stim,false,0,1094.1999999999534,0,1,1,53495,task3,416026,false,false,374,image-keyboard-response,16
true,4,1,2,1,true,z,false,true,0.0-2.0-0.10-0.98-3.98,1,1,0,90,false,stim,false,2,1311.0,0,0,2,53495,task3,418871,false,false,377,image-keyboard-response,17
true,4,0,2,0,true,q,false,true,0.0-2.0-0.11-0.99-3.99,1,1,0,81,false,stim,false,0,1091.7000000000698,0,1,1,53495,task3,421484,false,false,380,image-keyboard-response,18
true,4,2,2,2,true,d,false,true,0.0-2.0-0.11-0.100-3.100,1,1,0,68,false,stim,false,2,1332.3000000000466,0,1,0,53495,task3,424330,false,false,383,image-keyboard-response,19
true,4,0,2,0,true,q,false,false,0.0-2.0-0.11-0.101-3.101,1,1,0,81,false,stim,false,0,1192.1000000000931,0,1,1,53495,task3,427034,false,true,386,image-keyboard-response,20
true,4,1,2,1,true,z,false,true,0.0-2.0-0.11-0.102-3.102,1,1,0,90,false,stim,false,2,1280.0999999999767,0,0,2,53495,task3,429831,false,false,389,image-keyboard-response,21
true,4,1,2,1,true,z,false,true,0.0-2.0-0.11-0.103-3.103,1,1,0,90,false,stim,false,2,942.6000000000931,0,0,2,53495,task3,432310,false,false,392,image-keyboard-response,22
true,4,1,2,0,false,q,true,false,0.0-2.0-0.11-0.104-3.104,1,1,0,90,false,stim,false,0,709.0999999999767,0,1,1,53495,task3,434543,false,false,395,image-keyboard-response,23
true,4,2,2,2,true,d,false,true,0.0-2.0-0.11-0.105-3.105,1,1,0,68,false,stim,false,2,829.1000000000931,0,0,0,53495,task3,436885,false,false,398,image-keyboard-response,24
false,4,-1,2,1,false,z,true,false,0.0-2.0-0.11-0.106-3.106,1,1,0,,false,stim,false,2,,0,0,2,53495,task3,441429,false,false,401,image-keyboard-response,25
true,5,1,1,1,true,z,false,true,0.0-2.0-0.11-0.107-3.107,0,1,0,90,true,stim,false,2,1304.6999999999534,0,0,0,53495,task3,444249,false,false,404,image-keyboard-response,1
true,5,1,1,1,true,z,false,true,0.0-2.0-0.12-0.108-3.108,0,1,0,90,false,stim,false,2,837.0,0,0,0,53495,task3,446605,false,false,407,image-keyboard-response,2
true,5,1,1,1,true,z,false,true,0.0-2.0-0.12-0.109-3.109,0,1,0,90,false,stim,false,2,766.4000000000233,0,0,0,53495,task3,448897,false,false,410,image-keyboard-response,3
true,5,2,1,0,false,q,true,false,0.0-2.0-0.12-0.110-3.110,0,1,0,68,false,stim,false,1,746.0,0,0,2,53495,task3,451159,false,false,413,image-keyboard-response,4
true,5,2,1,0,false,q,true,false,0.0-2.0-0.12-0.111-3.111,0,1,0,68,false,stim,false,0,1242.5,0,1,1,53495,task3,453929,false,false,416,image-keyboard-response,5
true,5,1,1,0,false,q,false,false,0.0-2.0-0.12-0.112-3.112,0,1,0,90,false,stim,true,1,1001.8000000000466,0,0,2,53495,task3,456440,false,false,419,image-keyboard-response,6
true,5,0,1,0,true,q,false,true,0.0-2.0-0.12-0.113-3.113,0,1,0,81,false,stim,false,0,700.5999999999767,0,1,1,53495,task3,458656,false,false,422,image-keyboard-response,7
true,5,0,1,0,true,q,false,true,0.0-2.0-0.12-0.114-3.114,0,1,0,81,false,stim,false,0,425.30000000004657,0,1,1,53495,task3,460598,false,false,425,image-keyboard-response,8
true,5,1,1,1,true,z,false,true,0.0-2.0-0.12-0.115-3.115,0,1,0,90,false,stim,false,2,965.7999999999302,0,0,0,53495,task3,463087,false,false,428,image-keyboard-response,9
true,5,0,1,0,true,q,false,true,0.0-2.0-0.12-0.116-3.116,0,1,0,81,false,stim,false,1,880.4000000000233,0,0,2,53495,task3,465490,false,false,431,image-keyboard-response,10
true,5,0,1,0,true,q,false,true,0.0-2.0-0.13-0.117-3.117,0,1,0,81,false,stim,false,0,1118.3000000000466,0,1,1,53495,task3,468116,false,false,434,image-keyboard-response,11
true,5,1,1,1,true,z,false,true,0.0-2.0-0.13-0.118-3.118,0,1,0,90,false,stim,false,2,1048.0,0,0,0,53495,task3,470677,false,false,437,image-keyboard-response,12
true,5,1,1,1,true,z,false,true,0.0-2.0-0.13-0.119-3.119,0,1,0,90,false,stim,false,2,733.5,0,0,0,53495,task3,472923,false,false,440,image-keyboard-response,13
true,5,1,1,1,true,z,false,true,0.0-2.0-0.13-0.120-3.120,0,1,0,90,false,stim,false,2,670.6000000000931,0,0,0,53495,task3,475123,false,false,443,image-keyboard-response,14
true,5,0,1,0,true,q,false,true,0.0-2.0-0.13-0.121-3.121,0,1,0,81,false,stim,false,0,859.4000000000233,0,1,1,53495,task3,477493,false,false,446,image-keyboard-response,15
true,5,0,1,0,true,q,false,true,0.0-2.0-0.13-0.122-3.122,0,1,0,81,false,stim,false,0,735.5999999999767,0,1,1,53495,task3,479737,false,false,449,image-keyboard-response,16
true,5,0,1,0,true,q,false,true,0.0-2.0-0.13-0.123-3.123,0,1,0,81,false,stim,false,1,830.9000000000233,0,0,2,53495,task3,482078,false,false,452,image-keyboard-response,17
true,5,0,1,0,true,q,false,true,0.0-2.0-0.13-0.124-3.124,0,1,0,81,false,stim,false,1,803.5,0,0,2,53495,task3,484403,false,false,455,image-keyboard-response,18
true,5,0,1,0,true,q,false,true,0.0-2.0-0.13-0.125-3.125,0,1,0,81,false,stim,false,1,629.3000000000466,0,0,2,53495,task3,486562,false,false,458,image-keyboard-response,19
true,5,0,1,0,true,q,false,true,0.0-2.0-0.14-0.126-3.126,0,1,0,81,false,stim,false,1,543.3000000000466,0,0,2,53495,task3,488641,false,false,461,image-keyboard-response,20
true,5,0,1,0,true,q,false,true,0.0-2.0-0.14-0.127-3.127,0,1,0,81,false,stim,false,1,678.3000000000466,0,0,2,53495,task3,490827,false,false,464,image-keyboard-response,21
true,5,1,1,1,true,z,false,true,0.0-2.0-0.14-0.128-3.128,0,1,0,90,false,stim,false,2,1668.0999999999767,0,0,0,53495,task3,494011,false,false,467,image-keyboard-response,22
true,5,0,1,0,true,q,false,true,0.0-2.0-0.14-0.129-3.129,0,1,0,81,false,stim,false,1,2060.0,0,0,2,53495,task3,497613,false,false,470,image-keyboard-response,23
true,5,0,1,1,false,z,true,true,0.0-2.0-0.14-0.130-3.130,0,1,0,81,false,stim,false,2,1479.0999999999767,0,1,0,53495,task3,500621,false,true,473,image-keyboard-response,24
true,5,0,1,0,true,q,false,true,0.0-2.0-0.14-0.131-3.131,0,1,0,81,false,stim,false,0,990.0999999999767,0,0,1,53495,task3,503134,false,false,476,image-keyboard-response,25
true,5,0,1,0,true,q,false,true,0.0-2.0-0.14-0.132-3.132,0,1,0,81,false,stim,false,0,785.5,0,0,1,53495,task3,505441,false,false,479,image-keyboard-response,26
true,5,1,1,1,true,z,false,true,0.0-2.0-0.14-0.133-3.133,0,1,0,90,false,stim,false,2,1691.0999999999767,0,1,0,53495,task3,508673,false,false,482,image-keyboard-response,27
true,5,0,1,0,true,q,false,false,0.0-2.0-0.14-0.134-3.134,0,1,0,81,false,stim,false,0,1031.2999999999302,0,0,1,53495,task3,511225,false,true,485,image-keyboard-response,28
true,6,1,1,1,true,z,false,true,0.0-2.0-0.15-0.135-3.135,1,0,0,90,true,stim,false,0,1002.2000000000698,0,0,1,53495,task3,513735,false,false,488,image-keyboard-response,1
true,6,2,1,2,true,d,false,true,0.0-2.0-0.15-0.136-3.136,1,0,0,68,false,stim,false,0,1307.2999999999302,0,0,2,53495,task3,516566,false,false,491,image-keyboard-response,2
true,6,1,1,1,true,z,false,true,0.0-2.0-0.15-0.137-3.137,1,0,0,90,false,stim,false,1,799.0,0,1,0,53495,task3,518887,false,false,494,image-keyboard-response,3
true,6,1,1,1,true,z,false,true,0.0-2.0-0.15-0.138-3.138,1,0,0,90,false,stim,false,0,672.3000000000466,0,0,1,53495,task3,521085,false,false,497,image-keyboard-response,4
true,6,1,1,1,true,z,false,true,0.0-2.0-0.15-0.139-3.139,1,0,0,90,false,stim,false,1,1306.5,0,1,0,53495,task3,523901,false,false,500,image-keyboard-response,5
true,6,2,1,2,true,d,false,true,0.0-2.0-0.15-0.140-3.140,1,0,0,68,false,stim,false,0,815.1000000000931,0,0,2,53495,task3,526258,false,false,503,image-keyboard-response,6
true,6,2,1,2,true,d,false,true,0.0-2.0-0.15-0.141-3.141,1,0,0,68,false,stim,false,0,844.5,0,0,2,53495,task3,528616,false,false,506,image-keyboard-response,7
true,6,1,1,1,true,z,false,true,0.0-2.0-0.15-0.142-3.142,1,0,0,90,false,stim,false,1,833.3000000000466,0,1,0,53495,task3,530956,false,false,509,image-keyboard-response,8
true,6,1,1,1,true,z,false,true,0.0-2.0-0.15-0.143-3.143,1,0,0,90,false,stim,false,0,763.6999999999534,0,0,1,53495,task3,533238,false,false,512,image-keyboard-response,9
true,6,0,1,1,false,z,false,true,0.0-2.0-0.16-0.144-3.144,1,0,0,81,false,stim,true,0,2997.399999999907,0,0,1,53495,task3,537750,false,true,515,image-keyboard-response,10
true,6,0,1,1,false,z,false,false,0.0-2.0-0.16-0.145-3.145,1,0,0,81,false,stim,true,0,1404.8000000000466,0,0,1,53495,task3,540673,false,false,518,image-keyboard-response,11
true,6,2,1,2,true,d,false,true,0.0-2.0-0.16-0.146-3.146,1,0,0,68,false,stim,false,0,1670.2999999998137,0,0,2,53495,task3,543860,false,false,521,image-keyboard-response,12
true,6,2,1,2,true,d,false,true,0.0-2.0-0.16-0.147-3.147,1,0,0,68,false,stim,false,0,1052.6999999999534,0,0,2,53495,task3,546438,false,false,524,image-keyboard-response,13
true,6,2,1,1,false,z,true,false,0.0-2.0-0.16-0.148-3.148,1,0,0,68,false,stim,false,1,1524.1999999999534,0,1,0,53495,task3,549478,false,false,527,image-keyboard-response,14
true,6,1,1,1,true,z,false,true,0.0-2.0-0.16-0.149-3.149,1,0,0,90,false,stim,false,0,1741.0,0,0,1,53495,task3,552743,false,false,530,image-keyboard-response,15
true,6,1,1,1,true,z,false,true,0.0-2.0-0.16-0.150-3.150,1,0,0,90,false,stim,false,1,1876.8999999999069,0,1,0,53495,task3,556147,false,false,533,image-keyboard-response,16
true,6,2,1,2,true,d,false,true,0.0-2.0-0.16-0.151-3.151,1,0,0,68,false,stim,false,0,882.5999999998603,0,0,2,53495,task3,558555,false,false,536,image-keyboard-response,17
true,6,1,1,1,true,z,false,true,0.0-2.0-0.16-0.152-3.152,1,0,0,90,false,stim,false,1,952.4000000001397,0,1,0,53495,task3,561024,false,false,539,image-keyboard-response,18
true,6,1,1,1,true,z,false,true,0.0-2.0-0.17-0.153-3.153,1,0,0,90,false,stim,false,0,849.8000000000466,0,0,1,53495,task3,563404,false,false,542,image-keyboard-response,19
true,6,1,1,1,true,z,false,true,0.0-2.0-0.17-0.154-3.154,1,0,0,90,false,stim,false,1,891.1999999999534,0,1,0,53495,task3,565817,false,false,545,image-keyboard-response,20
true,6,1,1,1,true,z,false,true,0.0-2.0-0.17-0.155-3.155,1,0,0,90,false,stim,false,0,1022.8999999999069,0,0,1,53495,task3,568356,false,false,548,image-keyboard-response,21
true,6,1,1,1,true,z,false,true,0.0-2.0-0.17-0.156-3.156,1,0,0,90,false,stim,false,1,1610.0,0,1,0,53495,task3,571480,false,false,551,image-keyboard-response,22
true,6,1,1,1,true,z,false,true,0.0-2.0-0.17-0.157-3.157,1,0,0,90,false,stim,false,0,862.7999999998137,0,0,1,53495,task3,573870,false,false,554,image-keyboard-response,23
true,6,2,1,2,true,d,false,true,0.0-2.0-0.17-0.158-3.158,1,0,0,68,false,stim,false,0,886.8000000000466,0,0,2,53495,task3,576277,false,false,557,image-keyboard-response,24
true,6,2,1,2,true,d,false,true,0.0-2.0-0.17-0.159-3.159,1,0,0,68,false,stim,false,0,681.2999999998137,0,0,2,53495,task3,578497,false,false,560,image-keyboard-response,25
true,6,2,1,2,true,d,false,true,0.0-2.0-0.17-0.160-3.160,1,0,0,68,false,stim,false,0,850.3000000000466,0,0,2,53495,task3,580871,false,false,563,image-keyboard-response,26
true,6,1,1,1,true,z,false,true,0.0-2.0-0.17-0.161-3.161,1,0,0,90,false,stim,false,1,963.3999999999069,0,0,0,53495,task3,583369,false,false,566,image-keyboard-response,27
true,6,1,1,1,true,z,false,true,0.0-2.0-0.18-0.162-3.162,1,0,0,90,false,stim,false,1,721.0,0,0,0,53495,task3,585621,false,false,569,image-keyboard-response,28
true,7,1,1,1,true,z,false,true,0.0-2.0-0.18-0.163-3.163,0,1,0,90,true,stim,false,1,788.5,0,1,1,53495,task3,587934,false,false,572,image-keyboard-response,1
true,7,1,1,1,true,z,false,true,0.0-2.0-0.18-0.164-3.164,0,1,0,90,false,stim,false,1,551.3999999999069,0,1,1,53495,task3,589996,false,false,575,image-keyboard-response,2
true,7,1,1,0,false,q,false,false,0.0-2.0-0.18-0.165-3.165,0,1,0,90,false,stim,true,1,701.1000000000931,0,0,0,53495,task3,592215,false,false,578,image-keyboard-response,3
true,7,2,1,0,false,q,false,false,0.0-2.0-0.18-0.166-3.166,0,1,0,68,false,stim,true,2,1090.1999999999534,0,0,2,53495,task3,594840,false,false,581,image-keyboard-response,4
true,7,1,1,1,true,z,false,true,0.0-2.0-0.18-0.167-3.167,0,1,0,90,false,stim,false,1,2273.5999999998603,0,1,1,53495,task3,598637,false,false,584,image-keyboard-response,5
true,7,0,1,0,true,q,false,true,0.0-2.0-0.18-0.168-3.168,0,1,0,81,false,stim,false,2,736.5999999998603,0,0,2,53495,task3,600903,false,false,587,image-keyboard-response,6
true,7,0,1,0,true,q,false,true,0.0-2.0-0.18-0.169-3.169,0,1,0,81,false,stim,false,1,784.1000000000931,0,0,0,53495,task3,603212,false,false,590,image-keyboard-response,7
true,7,0,1,0,true,q,false,true,0.0-2.0-0.18-0.170-3.170,0,1,0,81,false,stim,false,2,1080.0999999998603,0,0,2,53495,task3,605814,false,false,593,image-keyboard-response,8
true,7,0,1,0,true,q,false,true,0.0-2.0-0.19-0.171-3.171,0,1,0,81,false,stim,false,1,507.5,0,0,0,53495,task3,607829,false,false,596,image-keyboard-response,9
true,7,1,1,1,true,z,false,true,0.0-2.0-0.19-0.172-3.172,0,1,0,90,false,stim,false,1,601.8000000000466,0,1,1,53495,task3,609952,false,false,599,image-keyboard-response,10
true,7,1,1,1,true,z,false,true,0.0-2.0-0.19-0.173-3.173,0,1,0,90,false,stim,false,1,453.0999999998603,0,1,1,53495,task3,611930,false,false,602,image-keyboard-response,11
true,7,0,1,0,true,q,false,true,0.0-2.0-0.19-0.174-3.174,0,1,0,81,false,stim,false,1,715.8999999999069,0,0,0,53495,task3,614170,false,false,605,image-keyboard-response,12
true,7,0,1,0,true,q,false,true,0.0-2.0-0.19-0.175-3.175,0,1,0,81,false,stim,false,2,1225.1000000000931,0,0,2,53495,task3,616911,false,false,608,image-keyboard-response,13
true,7,0,1,0,true,q,false,true,0.0-2.0-0.19-0.176-3.176,0,1,0,81,false,stim,false,1,1077.5,0,0,0,53495,task3,619524,false,false,611,image-keyboard-response,14
true,7,0,1,0,true,q,false,true,0.0-2.0-0.19-0.177-3.177,0,1,0,81,false,stim,false,2,761.4000000001397,0,0,2,53495,task3,621809,false,false,614,image-keyboard-response,15
true,7,1,1,1,true,z,false,true,0.0-2.0-0.19-0.178-3.178,0,1,0,90,false,stim,false,1,676.2999999998137,0,1,1,53495,task3,624006,false,false,617,image-keyboard-response,16
true,7,0,1,0,true,q,false,true,0.0-2.0-0.19-0.179-3.179,0,1,0,81,false,stim,false,2,813.8999999999069,0,0,2,53495,task3,626335,false,false,620,image-keyboard-response,17
true,7,0,1,1,false,z,true,false,0.0-2.0-0.20-0.180-3.180,0,1,0,81,false,stim,false,1,820.3000000000466,0,1,1,53495,task3,628686,false,false,623,image-keyboard-response,18
true,7,0,1,0,true,q,false,true,0.0-2.0-0.20-0.181-3.181,0,1,0,81,false,stim,false,1,2505.100000000093,0,0,0,53495,task3,632712,false,false,626,image-keyboard-response,19
true,7,0,1,0,true,q,false,true,0.0-2.0-0.20-0.182-3.182,0,1,0,81,false,stim,false,1,940.3999999999069,0,0,0,53495,task3,635177,false,false,629,image-keyboard-response,20
true,7,0,1,0,true,q,false,true,0.0-2.0-0.20-0.183-3.183,0,1,0,81,false,stim,false,1,729.6999999999534,0,0,0,53495,task3,637433,false,false,632,image-keyboard-response,21
true,7,2,1,0,false,q,false,false,0.0-2.0-0.20-0.184-3.184,0,1,0,68,false,stim,true,2,890.5,0,0,2,53495,task3,639842,false,false,635,image-keyboard-response,22
true,7,2,1,1,false,z,true,false,0.0-2.0-0.20-0.185-3.185,0,1,0,68,false,stim,false,1,1536.4000000001397,0,0,1,53495,task3,642890,false,false,638,image-keyboard-response,23
true,7,1,1,1,true,z,false,true,0.0-2.0-0.20-0.186-3.186,0,1,0,90,false,stim,false,1,1077.1000000000931,0,0,1,53495,task3,645487,false,false,641,image-keyboard-response,24
true,7,0,1,0,true,q,false,true,0.0-2.0-0.20-0.187-3.187,0,1,0,81,false,stim,false,2,1304.5,0,0,2,53495,task3,648320,false,false,644,image-keyboard-response,25
true,7,0,1,0,true,q,false,true,0.0-2.0-0.20-0.188-3.188,0,1,0,81,false,stim,false,2,752.9000000001397,0,0,2,53495,task3,650609,false,false,647,image-keyboard-response,26
true,8,0,1,0,true,q,false,true,0.0-2.0-0.21-0.189-3.189,1,0,0,81,true,stim,false,0,833.0,0,1,0,53495,task3,652976,false,false,650,image-keyboard-response,1
true,8,1,1,2,false,d,false,false,0.0-2.0-0.21-0.190-3.190,1,0,0,90,false,stim,true,1,1984.6000000000931,0,0,1,53495,task3,656483,false,false,653,image-keyboard-response,2
true,8,0,1,0,true,q,false,true,0.0-2.0-0.21-0.191-3.191,1,0,0,81,false,stim,false,0,1496.3000000000466,0,1,0,53495,task3,659503,false,false,656,image-keyboard-response,3
true,8,0,1,1,false,z,false,false,0.0-2.0-0.21-0.192-3.192,1,0,0,81,false,stim,true,0,1008.5,0,0,2,53495,task3,662049,false,false,659,image-keyboard-response,4
true,8,0,1,0,true,q,false,true,0.0-2.0-0.21-0.193-3.193,1,0,0,81,false,stim,false,0,1275.8000000000466,0,1,0,53495,task3,664852,false,false,662,image-keyboard-response,5
true,8,2,1,1,false,z,true,false,0.0-2.0-0.21-0.194-3.194,1,0,0,68,false,stim,false,0,696.0,0,0,2,53495,task3,667067,false,false,665,image-keyboard-response,6
true,8,2,1,2,true,d,false,true,0.0-2.0-0.21-0.195-3.195,1,0,0,68,false,stim,false,1,1596.7999999998137,0,0,1,53495,task3,670175,false,false,668,image-keyboard-response,7
true,8,1,1,1,true,z,false,true,0.0-2.0-0.21-0.196-3.196,1,0,0,90,false,stim,false,0,875.3000000000466,0,0,2,53495,task3,672581,false,false,671,image-keyboard-response,8
true,8,2,1,2,true,d,false,true,0.0-2.0-0.21-0.197-3.197,1,0,0,68,false,stim,false,1,859.8999999999069,0,0,1,53495,task3,674954,false,false,674,image-keyboard-response,9
true,8,0,1,0,true,q,false,true,0.0-2.0-0.22-0.198-3.198,1,0,0,81,false,stim,false,0,743.1000000000931,0,1,0,53495,task3,677218,false,false,677,image-keyboard-response,10
true,8,2,1,2,true,d,false,true,0.0-2.0-0.22-0.199-3.199,1,0,0,68,false,stim,false,1,589.1999999999534,0,0,1,53495,task3,679329,false,false,680,image-keyboard-response,11
true,8,0,1,0,true,q,false,false,0.0-2.0-0.22-0.200-3.200,1,0,0,81,false,stim,false,0,1291.6999999999534,0,1,0,53495,task3,682138,false,true,683,image-keyboard-response,12
true,8,1,1,1,true,z,false,true,0.0-2.0-0.22-0.201-3.201,1,0,0,90,false,stim,false,0,1755.3000000000466,0,0,2,53495,task3,685419,false,false,686,image-keyboard-response,13
true,8,1,1,1,true,z,false,true,0.0-2.0-0.22-0.202-3.202,1,0,0,90,false,stim,false,0,805.2999999998137,0,0,2,53495,task3,687743,false,false,689,image-keyboard-response,14
true,8,1,1,1,true,z,false,true,0.0-2.0-0.22-0.203-3.203,1,0,0,90,false,stim,false,0,708.0999999998603,0,0,2,53495,task3,689986,false,false,692,image-keyboard-response,15
true,8,1,1,2,false,d,false,false,0.0-2.0-0.22-0.204-3.204,1,0,0,90,false,stim,true,1,708.3000000000466,0,0,1,53495,task3,692215,false,false,695,image-keyboard-response,16
true,8,2,1,2,true,d,false,true,0.0-2.0-0.22-0.205-3.205,1,0,0,68,false,stim,false,1,823.5,0,0,1,53495,task3,694546,false,false,698,image-keyboard-response,17
true,8,2,1,0,false,q,true,false,0.0-2.0-0.22-0.206-3.206,1,0,0,68,false,stim,false,0,1439.8000000000466,0,1,0,53495,task3,697511,false,false,701,image-keyboard-response,18
true,8,2,1,2,true,d,false,false,0.0-2.0-0.23-0.207-3.207,1,0,0,68,false,stim,false,1,600.0,0,0,1,53495,task3,699635,false,true,704,image-keyboard-response,19
true,8,1,1,0,false,q,true,false,0.0-2.0-0.23-0.208-3.208,1,0,0,90,false,stim,false,0,1175.7999999998137,0,0,0,53495,task3,702327,false,false,707,image-keyboard-response,20
true,8,1,1,2,false,d,false,false,0.0-2.0-0.23-0.209-3.209,1,0,0,90,false,stim,true,1,1326.7000000001863,0,1,1,53495,task3,705172,false,false,710,image-keyboard-response,21
true,8,0,1,2,false,d,true,false,0.0-2.0-0.23-0.210-3.210,1,0,0,81,false,stim,false,1,777.2999999998137,0,1,1,53495,task3,707472,false,false,713,image-keyboard-response,22
true,8,1,1,0,false,q,true,false,0.0-2.0-0.23-0.211-3.211,1,0,0,90,false,stim,false,0,1374.3999999999069,0,0,0,53495,task3,710357,false,false,716,image-keyboard-response,23
true,8,2,1,1,false,z,true,false,0.0-2.0-0.23-0.212-3.212,1,0,0,68,false,stim,false,0,1063.4000000001397,0,0,2,53495,task3,712960,false,false,719,image-keyboard-response,24
true,9,0,1,1,false,z,false,false,0.0-2.0-0.23-0.213-3.213,0,1,0,81,true,stim,true,0,940.1000000000931,0,0,0,53495,task3,715413,false,false,722,image-keyboard-response,1
true,9,1,1,0,false,q,false,false,0.0-2.0-0.23-0.214-3.214,0,1,0,90,false,stim,true,1,1734.3999999999069,0,0,2,53495,task3,718663,false,false,725,image-keyboard-response,2
true,9,0,1,0,true,q,false,true,0.0-2.0-0.23-0.215-3.215,0,1,0,81,false,stim,false,1,784.5,0,0,2,53495,task3,720969,false,false,728,image-keyboard-response,3
true,9,0,1,1,false,z,false,false,0.0-2.0-0.24-0.216-3.216,0,1,0,81,false,stim,true,0,1131.3000000000466,0,0,0,53495,task3,723634,false,false,731,image-keyboard-response,4
true,9,2,1,2,true,d,false,true,0.0-2.0-0.24-0.217-3.217,0,1,0,68,false,stim,false,2,1115.7000000001863,0,1,1,53495,task3,726271,false,false,734,image-keyboard-response,5
true,9,2,1,0,false,q,true,false,0.0-2.0-0.24-0.218-3.218,0,1,0,68,false,stim,false,1,2352.600000000093,0,0,2,53495,task3,730138,false,false,737,image-keyboard-response,6
true,9,0,1,1,false,z,false,false,0.0-2.0-0.24-0.219-3.219,0,1,0,81,false,stim,true,0,925.1999999999534,0,0,0,53495,task3,732610,false,false,740,image-keyboard-response,7
true,9,1,1,1,true,z,false,true,0.0-2.0-0.24-0.220-3.220,0,1,0,90,false,stim,false,0,1536.2000000001863,0,0,0,53495,task3,735661,false,false,743,image-keyboard-response,8
true,9,2,1,2,true,d,false,true,0.0-2.0-0.24-0.221-3.221,0,1,0,68,false,stim,false,2,604.0,0,1,1,53495,task3,737778,false,false,746,image-keyboard-response,9
true,9,2,1,0,false,q,true,false,0.0-2.0-0.24-0.222-3.222,0,1,0,68,false,stim,false,1,1421.5,0,0,2,53495,task3,740722,false,false,749,image-keyboard-response,10
true,9,1,1,2,false,d,true,false,0.0-2.0-0.24-0.223-3.223,0,1,0,90,false,stim,false,2,797.8000000000466,0,1,1,53495,task3,743038,false,false,752,image-keyboard-response,11
true,9,1,1,0,false,q,false,false,0.0-2.0-0.24-0.224-3.224,0,1,0,90,false,stim,true,1,884.5,0,0,2,53495,task3,745430,false,false,755,image-keyboard-response,12
true,9,2,1,1,false,z,true,false,0.0-2.0-0.25-0.225-3.225,0,1,0,68,false,stim,false,0,1128.3000000000466,0,0,0,53495,task3,748093,false,false,758,image-keyboard-response,13
true,9,2,1,0,false,q,true,false,0.0-2.0-0.25-0.226-3.226,0,1,0,68,false,stim,false,1,938.0,0,0,2,53495,task3,750539,false,false,761,image-keyboard-response,14
true,9,2,1,2,true,d,false,true,0.0-2.0-0.25-0.227-3.227,0,1,0,68,false,stim,false,2,1035.3000000000466,0,1,1,53495,task3,753103,false,false,764,image-keyboard-response,15
true,9,1,1,1,true,z,false,false,0.0-2.0-0.25-0.228-3.228,0,1,0,90,false,stim,false,0,953.8999999999069,0,0,0,53495,task3,755589,false,true,767,image-keyboard-response,16
true,9,0,1,1,false,z,false,true,0.0-2.0-0.25-0.229-3.229,0,1,0,81,false,stim,true,0,730.8999999999069,0,0,0,53495,task3,757847,false,true,770,image-keyboard-response,17
true,9,2,1,2,true,d,false,true,0.0-2.0-0.25-0.230-3.230,0,1,0,68,false,stim,false,2,789.0,0,1,1,53495,task3,760153,false,false,773,image-keyboard-response,18
true,9,2,1,2,true,d,false,true,0.0-2.0-0.25-0.231-3.231,0,1,0,68,false,stim,false,2,785.2000000001863,0,1,1,53495,task3,762478,false,false,776,image-keyboard-response,19
true,9,1,1,0,false,q,false,false,0.0-2.0-0.25-0.232-3.232,0,1,0,90,false,stim,true,1,1641.4000000001397,0,0,2,53495,task3,765637,false,false,779,image-keyboard-response,20
true,9,0,1,0,true,q,false,true,0.0-2.0-0.25-0.233-3.233,0,1,0,81,false,stim,false,1,795.5,0,1,2,53495,task3,767947,false,false,782,image-keyboard-response,21
true,9,0,1,1,false,z,false,false,0.0-2.0-0.26-0.234-3.234,0,1,0,81,false,stim,true,0,2081.6999999999534,0,0,0,53495,task3,771551,false,false,785,image-keyboard-response,22
true,9,0,1,2,false,d,true,false,0.0-2.0-0.26-0.235-3.235,0,1,0,81,false,stim,false,2,1818.5999999998603,0,0,1,53495,task3,774897,false,false,788,image-keyboard-response,23
true,9,2,1,1,false,z,true,false,0.0-2.0-0.26-0.236-3.236,0,1,0,68,false,stim,false,0,972.1999999999534,0,0,0,53495,task3,777384,false,false,791,image-keyboard-response,24
true,9,2,1,2,true,d,false,true,0.0-2.0-0.26-0.237-3.237,0,1,0,68,false,stim,false,2,1025.1999999999534,0,0,1,53495,task3,779945,false,false,794,image-keyboard-response,25
true,10,2,1,0,false,q,true,false,0.0-2.0-0.26-0.238-3.238,0,0,1,68,true,stim,false,0,1477.0999999998603,0,1,2,53495,task3,782943,false,false,797,image-keyboard-response,1
true,10,0,1,0,true,q,false,true,0.0-2.0-0.26-0.239-3.239,0,0,1,81,false,stim,false,0,1660.0,0,1,2,53495,task3,786127,false,false,800,image-keyboard-response,2
true,10,2,1,0,false,q,false,false,0.0-2.0-0.26-0.240-3.240,0,0,1,68,false,stim,true,2,1035.5,0,0,1,53495,task3,788703,false,false,803,image-keyboard-response,3
true,10,0,1,2,false,d,true,false,0.0-2.0-0.26-0.241-3.241,0,0,1,81,false,stim,false,1,955.0,0,0,0,53495,task3,791169,false,false,806,image-keyboard-response,4
true,10,1,1,0,false,q,true,false,0.0-2.0-0.26-0.242-3.242,0,0,1,90,false,stim,false,0,819.1999999999534,0,1,2,53495,task3,793506,false,false,809,image-keyboard-response,5
true,10,2,1,0,false,q,true,true,0.0-2.0-0.27-0.243-3.243,0,0,1,68,false,stim,false,0,1012.4000000001397,0,1,2,53495,task3,796036,false,true,812,image-keyboard-response,6
true,10,1,1,0,false,q,true,false,0.0-2.0-0.27-0.244-3.244,0,0,1,90,false,stim,false,2,1454.5,0,0,1,53495,task3,799010,false,false,815,image-keyboard-response,7
true,10,2,1,0,false,q,false,false,0.0-2.0-0.27-0.245-3.245,0,0,1,68,false,stim,true,2,893.3999999999069,0,0,1,53495,task3,801412,false,false,818,image-keyboard-response,8
true,10,1,1,2,false,d,false,false,0.0-2.0-0.27-0.246-3.246,0,0,1,90,false,stim,true,1,1012.6999999999534,0,0,0,53495,task3,803945,false,false,821,image-keyboard-response,9
true,10,0,1,0,true,q,false,true,0.0-2.0-0.27-0.247-3.247,0,0,1,81,false,stim,false,2,871.5999999998603,0,0,1,53495,task3,806352,false,false,824,image-keyboard-response,10
true,10,2,1,2,true,d,false,true,0.0-2.0-0.27-0.248-3.248,0,0,1,68,false,stim,false,1,783.3000000000466,0,0,0,53495,task3,808658,false,false,827,image-keyboard-response,11
true,10,2,1,0,false,q,true,false,0.0-2.0-0.27-0.249-3.249,0,0,1,68,false,stim,false,0,1552.1000000000931,0,1,2,53495,task3,811723,false,false,830,image-keyboard-response,12
true,10,1,1,0,false,q,true,false,0.0-2.0-0.27-0.250-3.250,0,0,1,90,false,stim,false,0,1299.1999999999534,0,1,2,53495,task3,814539,false,false,833,image-keyboard-response,13
true,10,2,1,2,true,d,false,true,0.0-2.0-0.27-0.251-3.251,0,0,1,68,false,stim,false,1,1037.2999999998137,0,0,0,53495,task3,817104,false,false,836,image-keyboard-response,14
true,10,2,1,2,true,d,false,true,0.0-2.0-0.28-0.252-3.252,0,0,1,68,false,stim,false,1,562.3000000000466,0,0,0,53495,task3,819217,false,false,839,image-keyboard-response,15
true,10,0,1,0,true,q,false,true,0.0-2.0-0.28-0.253-3.253,0,0,1,81,false,stim,false,0,838.6999999999534,0,1,2,53495,task3,821567,false,false,842,image-keyboard-response,16
true,10,0,1,0,true,q,false,true,0.0-2.0-0.28-0.254-3.254,0,0,1,81,false,stim,false,2,748.8000000000466,0,0,1,53495,task3,823832,false,false,845,image-keyboard-response,17
true,10,0,1,0,true,q,false,true,0.0-2.0-0.28-0.255-3.255,0,0,1,81,false,stim,false,0,919.7999999998137,0,1,2,53495,task3,826276,false,false,848,image-keyboard-response,18
true,10,0,1,0,true,q,false,true,0.0-2.0-0.28-0.256-3.256,0,0,1,81,false,stim,false,0,569.5,0,1,2,53495,task3,828374,false,false,851,image-keyboard-response,19
true,10,0,1,2,false,d,true,false,0.0-2.0-0.28-0.257-3.257,0,0,1,81,false,stim,false,1,1521.8000000000466,0,0,0,53495,task3,831409,false,false,854,image-keyboard-response,20
true,10,0,1,0,true,q,false,true,0.0-2.0-0.28-0.258-3.258,0,0,1,81,false,stim,false,2,1095.5,0,0,1,53495,task3,834017,false,false,857,image-keyboard-response,21
true,10,0,1,0,true,q,false,true,0.0-2.0-0.28-0.259-3.259,0,0,1,81,false,stim,false,2,887.6999999999534,0,0,1,53495,task3,836441,false,false,860,image-keyboard-response,22
true,10,2,1,2,true,d,false,true,0.0-2.0-0.28-0.260-3.260,0,0,1,68,false,stim,false,1,1139.4000000001397,0,0,0,53495,task3,839090,false,false,863,image-keyboard-response,23
true,10,2,1,2,true,d,false,true,0.0-2.0-0.29-0.261-3.261,0,0,1,68,false,stim,false,1,658.8000000000466,0,0,0,53495,task3,841286,false,false,866,image-keyboard-response,24
true,10,0,1,0,true,q,false,true,0.0-2.0-0.29-0.262-3.262,0,0,1,81,false,stim,false,0,1473.8000000000466,0,1,2,53495,task3,844282,false,false,869,image-keyboard-response,25
true,11,0,1,0,true,q,false,true,0.0-2.0-0.29-0.263-3.263,0,0,1,81,true,stim,false,0,876.1000000000931,0,1,2,53495,task3,846688,false,false,872,image-keyboard-response,1
true,11,0,1,0,true,q,false,true,0.0-2.0-0.29-0.264-3.264,0,0,1,81,false,stim,false,0,706.5,0,1,2,53495,task3,848919,false,false,875,image-keyboard-response,2
true,11,2,1,1,false,z,false,false,0.0-2.0-0.29-0.265-3.265,0,0,1,68,false,stim,true,2,768.2000000001863,0,0,0,53495,task3,851204,false,false,878,image-keyboard-response,3
true,11,1,1,1,true,z,false,true,0.0-2.0-0.29-0.266-3.266,0,0,1,90,false,stim,false,0,2347.5,0,0,1,53495,task3,855070,false,false,881,image-keyboard-response,4
true,11,1,1,1,true,z,false,true,0.0-2.0-0.29-0.267-3.267,0,0,1,90,false,stim,false,0,502.0,0,0,1,53495,task3,857112,false,false,884,image-keyboard-response,5
true,11,0,1,1,false,z,true,false,0.0-2.0-0.29-0.268-3.268,0,0,1,81,false,stim,false,2,930.0,0,0,0,53495,task3,859556,false,false,887,image-keyboard-response,6
true,11,1,1,1,true,z,false,true,0.0-2.0-0.29-0.269-3.269,0,0,1,90,false,stim,false,0,703.0,0,0,1,53495,task3,861786,false,false,890,image-keyboard-response,7
true,11,2,1,1,false,z,false,true,0.0-2.0-0.30-0.270-3.270,0,0,1,68,false,stim,true,2,486.79999999981374,0,0,0,53495,task3,863814,false,true,893,image-keyboard-response,8
true,11,0,1,0,true,q,false,true,0.0-2.0-0.30-0.271-3.271,0,0,1,81,false,stim,false,0,1114.5999999998603,0,1,2,53495,task3,866453,false,false,896,image-keyboard-response,9
true,11,2,1,1,false,z,true,false,0.0-2.0-0.30-0.272-3.272,0,0,1,68,false,stim,false,0,1174.9000000001397,0,0,1,53495,task3,869146,false,false,899,image-keyboard-response,10
true,11,1,1,1,true,z,false,true,0.0-2.0-0.30-0.273-3.273,0,0,1,90,false,stim,false,0,735.3999999999069,0,0,1,53495,task3,871407,false,false,902,image-keyboard-response,11
true,11,2,1,1,false,z,false,false,0.0-2.0-0.30-0.274-3.274,0,0,1,68,false,stim,true,2,723.6999999999534,0,0,0,53495,task3,873645,false,false,905,image-keyboard-response,12
true,11,0,1,0,true,q,false,true,0.0-2.0-0.30-0.275-3.275,0,0,1,81,false,stim,false,0,1238.1999999999534,0,1,2,53495,task3,876408,false,false,908,image-keyboard-response,13
true,11,0,1,1,false,z,true,false,0.0-2.0-0.30-0.276-3.276,0,0,1,81,false,stim,false,2,739.8000000000466,0,0,0,53495,task3,878661,false,false,911,image-keyboard-response,14
true,11,0,1,0,true,q,false,true,0.0-2.0-0.30-0.277-3.277,0,0,1,81,false,stim,false,0,1168.7000000001863,0,1,2,53495,task3,881345,false,false,914,image-keyboard-response,15
true,11,1,1,1,true,z,false,true,0.0-2.0-0.30-0.278-3.278,0,0,1,90,false,stim,false,0,417.89999999990687,0,0,1,53495,task3,883280,false,false,917,image-keyboard-response,16
true,11,1,1,1,true,z,false,false,0.0-2.0-0.31-0.279-3.279,0,0,1,90,false,stim,false,0,542.0,0,0,1,53495,task3,885360,false,true,920,image-keyboard-response,17
true,11,1,1,1,true,z,false,true,0.0-2.0-0.31-0.280-3.280,0,0,1,90,false,stim,false,2,1481.7999999998137,0,0,0,53495,task3,888363,false,false,923,image-keyboard-response,18
true,11,2,1,1,false,z,true,false,0.0-2.0-0.31-0.281-3.281,0,0,1,68,false,stim,false,0,913.8999999999069,0,0,1,53495,task3,890788,false,false,926,image-keyboard-response,19
true,11,1,1,1,true,z,false,true,0.0-2.0-0.31-0.282-3.282,0,0,1,90,false,stim,false,2,1055.3999999999069,0,0,0,53495,task3,893364,false,false,929,image-keyboard-response,20
true,11,0,1,0,true,q,false,true,0.0-2.0-0.31-0.283-3.283,0,0,1,81,false,stim,false,0,640.8000000000466,0,1,2,53495,task3,895529,false,false,932,image-keyboard-response,21
true,11,1,1,1,true,z,false,true,0.0-2.0-0.31-0.284-3.284,0,0,1,90,false,stim,false,0,1704.0999999998603,0,0,1,53495,task3,898760,false,false,935,image-keyboard-response,22
true,11,0,1,1,false,z,true,false,0.0-2.0-0.31-0.285-3.285,0,0,1,81,false,stim,false,2,761.3999999999069,0,0,0,53495,task3,901031,false,false,938,image-keyboard-response,23
true,11,0,1,0,true,q,false,true,0.0-2.0-0.31-0.286-3.286,0,0,1,81,false,stim,false,0,2433.0999999998603,0,0,2,53495,task3,904993,false,false,941,image-keyboard-response,24
true,11,2,1,0,false,q,true,false,0.0-2.0-0.31-0.287-3.287,0,0,1,68,false,stim,false,0,1380.3000000000466,0,0,2,53495,task3,907918,false,false,944,image-keyboard-response,25
true,11,1,1,0,false,q,true,true,0.0-2.0-0.32-0.288-3.288,0,0,1,90,false,stim,false,0,744.1999999999534,0,0,2,53495,task3,910181,false,true,947,image-keyboard-response,26
true,11,1,1,1,true,z,false,true,0.0-2.0-0.32-0.289-3.289,0,0,1,90,false,stim,false,2,1355.0999999998603,0,0,0,53495,task3,913087,false,false,950,image-keyboard-response,27
true,12,1,1,1,true,z,false,true,0.0-2.0-0.32-0.290-3.290,0,1,0,90,true,stim,false,0,732.3999999999069,0,0,2,53495,task3,915330,false,false,953,image-keyboard-response,1
true,12,1,1,1,true,z,false,true,0.0-2.0-0.32-0.291-3.291,0,1,0,90,false,stim,false,1,1683.3999999999069,0,1,1,53495,task3,918533,false,false,956,image-keyboard-response,2
true,12,1,1,1,true,z,false,true,0.0-2.0-0.32-0.292-3.292,0,1,0,90,false,stim,false,0,963.5,0,0,2,53495,task3,921018,false,false,959,image-keyboard-response,3
true,12,1,1,1,true,z,false,true,0.0-2.0-0.32-0.293-3.293,0,1,0,90,false,stim,false,1,845.5,0,1,1,53495,task3,923375,false,false,962,image-keyboard-response,4
true,12,1,1,1,true,z,false,true,0.0-2.0-0.32-0.294-3.294,0,1,0,90,false,stim,false,1,729.1999999999534,0,1,1,53495,task3,925641,false,false,965,image-keyboard-response,5
true,12,0,1,0,true,q,false,true,0.0-2.0-0.32-0.295-3.295,0,1,0,81,false,stim,false,1,1189.8000000000466,0,0,0,53495,task3,928367,false,false,968,image-keyboard-response,6
true,12,0,1,0,true,q,false,true,0.0-2.0-0.32-0.296-3.296,0,1,0,81,false,stim,false,1,561.9000000001397,0,0,0,53495,task3,930460,false,false,971,image-keyboard-response,7
true,12,0,1,0,true,q,false,false,0.0-2.0-0.33-0.297-3.297,0,1,0,81,false,stim,false,1,737.1000000000931,0,0,0,53495,task3,932705,false,true,974,image-keyboard-response,8
true,12,1,1,1,true,z,false,true,0.0-2.0-0.33-0.298-3.298,0,1,0,90,false,stim,false,1,1051.5,0,1,1,53495,task3,935269,false,false,977,image-keyboard-response,9
true,12,1,1,1,true,z,false,true,0.0-2.0-0.33-0.299-3.299,0,1,0,90,false,stim,false,1,493.29999999981374,0,1,1,53495,task3,937284,false,false,980,image-keyboard-response,10
true,12,2,1,0,false,q,true,false,0.0-2.0-0.33-0.300-3.300,0,1,0,68,false,stim,false,1,724.3000000000466,0,0,0,53495,task3,939525,false,false,983,image-keyboard-response,11
true,12,1,1,1,true,z,false,true,0.0-2.0-0.33-0.301-3.301,0,1,0,90,false,stim,false,0,1357.5999999998603,0,0,2,53495,task3,942391,false,false,986,image-keyboard-response,12
true,12,1,1,1,true,z,false,true,0.0-2.0-0.33-0.302-3.302,0,1,0,90,false,stim,false,0,652.1999999999534,0,0,2,53495,task3,944582,false,false,989,image-keyboard-response,13
true,12,1,1,0,false,q,false,false,0.0-2.0-0.33-0.303-3.303,0,1,0,90,false,stim,true,1,729.1999999999534,0,0,0,53495,task3,946838,false,false,992,image-keyboard-response,14
true,12,1,1,1,true,z,false,true,0.0-2.0-0.33-0.304-3.304,0,1,0,90,false,stim,false,1,787.0,0,1,1,53495,task3,949140,false,false,995,image-keyboard-response,15
true,12,1,1,1,true,z,false,true,0.0-2.0-0.33-0.305-3.305,0,1,0,90,false,stim,false,0,726.1000000000931,0,0,2,53495,task3,951390,false,false,998,image-keyboard-response,16
true,12,1,1,1,true,z,false,true,0.0-2.0-0.34-0.306-3.306,0,1,0,90,false,stim,false,0,585.6000000000931,0,0,2,53495,task3,953513,false,false,1001,image-keyboard-response,17
true,12,2,1,0,false,q,true,false,0.0-2.0-0.34-0.307-3.307,0,1,0,68,false,stim,false,1,551.6000000000931,0,0,0,53495,task3,955584,false,false,1004,image-keyboard-response,18
true,12,1,1,1,true,z,false,true,0.0-2.0-0.34-0.308-3.308,0,1,0,90,false,stim,false,1,533.8999999999069,0,0,1,53495,task3,957646,false,false,1007,image-keyboard-response,19
true,12,1,1,1,true,z,false,true,0.0-2.0-0.34-0.309-3.309,0,1,0,90,false,stim,false,0,469.70000000018626,0,0,2,53495,task3,959649,false,false,1010,image-keyboard-response,20
true,12,1,1,1,true,z,false,true,0.0-2.0-0.34-0.310-3.310,0,1,0,90,false,stim,false,1,471.0,0,0,1,53495,task3,961644,false,false,1013,image-keyboard-response,21
true,12,0,1,0,true,q,false,true,0.0-2.0-0.34-0.311-3.311,0,1,0,81,false,stim,false,1,480.0,0,1,0,53495,task3,963652,false,false,1016,image-keyboard-response,22
true,12,1,1,1,true,z,false,true,0.0-2.0-0.34-0.312-3.312,0,1,0,90,false,stim,false,0,849.5999999998603,0,0,2,53495,task3,966018,false,false,1019,image-keyboard-response,23
true,13,1,1,2,false,d,false,false,0.0-2.0-0.34-0.313-3.313,1,0,0,90,true,stim,true,1,1096.3999999999069,0,0,1,53495,task3,968640,false,false,1022,image-keyboard-response,1
true,13,0,1,0,true,q,false,true,0.0-2.0-0.34-0.314-3.314,1,0,0,81,false,stim,false,0,724.5999999998603,0,1,0,53495,task3,970890,false,false,1025,image-keyboard-response,2
true,13,1,1,0,false,q,false,false,0.0-2.0-0.35-0.315-3.315,1,0,0,90,false,stim,true,1,1088.1999999999534,0,0,2,53495,task3,973507,false,false,1028,image-keyboard-response,3
true,13,2,1,0,false,q,true,true,0.0-2.0-0.35-0.316-3.316,1,0,0,68,false,stim,false,1,814.6000000000931,0,0,2,53495,task3,975848,false,true,1031,image-keyboard-response,4
true,13,0,1,2,false,d,true,false,0.0-2.0-0.35-0.317-3.317,1,0,0,81,false,stim,false,1,1443.6999999999534,0,0,1,53495,task3,978823,false,false,1034,image-keyboard-response,5
true,13,0,1,0,true,q,false,true,0.0-2.0-0.35-0.318-3.318,1,0,0,81,false,stim,false,0,902.3000000000466,0,1,0,53495,task3,981246,false,false,1037,image-keyboard-response,6
true,13,1,1,2,false,d,false,false,0.0-2.0-0.35-0.319-3.319,1,0,0,90,false,stim,true,1,715.3000000000466,0,0,1,53495,task3,983490,false,false,1040,image-keyboard-response,7
true,13,2,1,0,false,q,true,false,0.0-2.0-0.35-0.320-3.320,1,0,0,68,false,stim,false,1,566.0,0,0,2,53495,task3,985570,false,false,1043,image-keyboard-response,8
true,13,0,1,2,false,d,true,false,0.0-2.0-0.35-0.321-3.321,1,0,0,81,false,stim,false,1,1255.8000000000466,0,0,1,53495,task3,988356,false,false,1046,image-keyboard-response,9
true,13,0,1,0,true,q,false,true,0.0-2.0-0.35-0.322-3.322,1,0,0,81,false,stim,false,0,890.9000000001397,0,1,0,53495,task3,990766,false,false,1049,image-keyboard-response,10
true,13,0,1,0,true,q,false,true,0.0-2.0-0.35-0.323-3.323,1,0,0,81,false,stim,false,0,748.0,0,1,0,53495,task3,993039,false,false,1052,image-keyboard-response,11
true,13,2,1,0,false,q,true,false,0.0-2.0-0.36-0.324-3.324,1,0,0,68,false,stim,false,1,719.5,0,0,2,53495,task3,995296,false,false,1055,image-keyboard-response,12
true,13,1,1,0,false,q,true,true,0.0-2.0-0.36-0.325-3.325,1,0,0,90,false,stim,false,0,1500.6000000000931,0,1,0,53495,task3,998321,false,true,1058,image-keyboard-response,13
true,13,1,1,0,false,q,false,false,0.0-2.0-0.36-0.326-3.326,1,0,0,90,false,stim,true,1,534.6000000000931,0,0,2,53495,task3,1000373,false,false,1061,image-keyboard-response,14
true,13,0,1,2,false,d,true,false,0.0-2.0-0.36-0.327-3.327,1,0,0,81,false,stim,false,1,1189.0,0,0,1,53495,task3,1003093,false,false,1064,image-keyboard-response,15
true,13,0,1,0,true,q,false,true,0.0-2.0-0.36-0.328-3.328,1,0,0,81,false,stim,false,0,772.2999999998137,0,1,0,53495,task3,1005399,false,false,1067,image-keyboard-response,16
true,13,2,1,2,true,d,false,true,0.0-2.0-0.36-0.329-3.329,1,0,0,68,false,stim,false,1,1158.1000000000931,0,0,1,53495,task3,1008075,false,false,1070,image-keyboard-response,17
true,13,2,1,0,false,q,true,false,0.0-2.0-0.36-0.330-3.330,1,0,0,68,false,stim,false,1,903.1000000000931,0,0,2,53495,task3,1010491,false,false,1073,image-keyboard-response,18
true,13,0,1,0,true,q,false,true,0.0-2.0-0.36-0.331-3.331,1,0,0,81,false,stim,false,0,711.5,0,1,0,53495,task3,1012729,false,false,1076,image-keyboard-response,19
true,13,2,1,2,true,d,false,true,0.0-2.0-0.36-0.332-3.332,1,0,0,68,false,stim,false,1,953.0,0,0,1,53495,task3,1015213,false,false,1079,image-keyboard-response,20
true,13,0,1,0,true,q,false,true,0.0-2.0-0.37-0.333-3.333,1,0,0,81,false,stim,false,0,846.3000000000466,0,1,0,53495,task3,1017590,false,false,1082,image-keyboard-response,21
true,13,2,1,2,true,d,false,false,0.0-2.0-0.37-0.334-3.334,1,0,0,68,false,stim,false,1,1095.6000000000931,0,0,1,53495,task3,1020209,false,true,1085,image-keyboard-response,22
true,13,0,1,0,true,q,false,true,0.0-2.0-0.37-0.335-3.335,1,0,0,81,false,stim,false,0,847.5,0,1,0,53495,task3,1022581,false,false,1088,image-keyboard-response,23
true,13,0,1,0,true,q,false,true,0.0-2.0-0.37-0.336-3.336,1,0,0,81,false,stim,false,1,853.0,0,0,2,53495,task3,1024965,false,false,1091,image-keyboard-response,24
true,13,2,1,2,true,d,false,true,0.0-2.0-0.37-0.337-3.337,1,0,0,68,false,stim,false,1,1361.3000000000466,0,0,1,53495,task3,1027864,false,false,1094,image-keyboard-response,25
true,13,2,1,2,true,d,false,true,0.0-2.0-0.37-0.338-3.338,1,0,0,68,false,stim,false,1,678.0,0,0,1,53495,task3,1030081,false,false,1097,image-keyboard-response,26
true,13,0,1,0,true,q,false,true,0.0-2.0-0.37-0.339-3.339,1,0,0,81,false,stim,false,0,683.3999999999069,0,1,0,53495,task3,1032284,false,false,1100,image-keyboard-response,27
true,13,0,1,0,true,q,false,true,0.0-2.0-0.37-0.340-3.340,1,0,0,81,false,stim,false,1,1295.6000000000931,0,0,2,53495,task3,1035103,false,false,1103,image-keyboard-response,28
true,13,0,1,0,true,q,false,true,0.0-2.0-0.37-0.341-3.341,1,0,0,81,false,stim,false,1,701.0999999998603,0,0,2,53495,task3,1037350,false,false,1106,image-keyboard-response,29
true,14,0,1,0,true,q,false,true,0.0-2.0-0.38-0.342-3.342,1,0,0,81,true,stim,false,0,764.8000000000466,0,1,0,53495,task3,1039626,false,false,1109,image-keyboard-response,1
true,14,0,1,2,false,d,false,true,0.0-2.0-0.38-0.343-3.343,1,0,0,81,false,stim,true,0,900.1000000000931,0,0,2,53495,task3,1042054,false,true,1112,image-keyboard-response,2
true,14,0,1,0,true,q,false,true,0.0-2.0-0.38-0.344-3.344,1,0,0,81,false,stim,false,0,997.6000000000931,0,1,0,53495,task3,1044572,false,false,1115,image-keyboard-response,3
true,14,0,1,2,false,d,false,false,0.0-2.0-0.38-0.345-3.345,1,0,0,81,false,stim,true,0,696.3000000000466,0,0,2,53495,task3,1046807,false,false,1118,image-keyboard-response,4
true,14,2,1,1,false,z,false,false,0.0-2.0-0.38-0.346-3.346,1,0,0,68,false,stim,true,2,952.6999999999534,0,0,1,53495,task3,1049276,false,false,1121,image-keyboard-response,5
true,14,1,1,2,false,d,true,false,0.0-2.0-0.38-0.347-3.347,1,0,0,90,false,stim,false,0,742.9000000001397,0,0,2,53495,task3,1051547,false,false,1124,image-keyboard-response,6
true,14,0,1,0,true,q,false,true,0.0-2.0-0.38-0.348-3.348,1,0,0,81,false,stim,false,0,1219.0999999998603,0,1,0,53495,task3,1054274,false,false,1127,image-keyboard-response,7
true,14,1,1,1,true,z,false,true,0.0-2.0-0.38-0.349-3.349,1,0,0,90,false,stim,false,2,790.0999999998603,0,1,1,53495,task3,1056593,false,false,1130,image-keyboard-response,8
true,14,1,1,1,true,z,false,true,0.0-2.0-0.38-0.350-3.350,1,0,0,90,false,stim,false,2,621.1999999999534,0,1,1,53495,task3,1058751,false,false,1133,image-keyboard-response,9
true,14,0,1,0,true,q,false,true,0.0-2.0-0.39-0.351-3.351,1,0,0,81,false,stim,false,0,1178.8000000000466,0,0,0,53495,task3,1061444,false,false,1136,image-keyboard-response,10
true,14,0,1,2,false,d,false,false,0.0-2.0-0.39-0.352-3.352,1,0,0,81,false,stim,true,0,775.5999999998603,0,1,2,53495,task3,1063732,false,false,1139,image-keyboard-response,11
true,14,0,1,0,true,q,false,true,0.0-2.0-0.39-0.353-3.353,1,0,0,81,false,stim,false,0,1316.7000000001863,0,0,0,53495,task3,1066587,false,false,1142,image-keyboard-response,12
true,15,1,2,1,true,z,false,true,0.0-2.0-0.39-0.354-3.354,0,1,1,90,true,stim,false,1,1264.5,0,1,1,53495,task3,1069377,false,false,1145,image-keyboard-response,1
true,15,1,2,1,true,z,false,true,0.0-2.0-0.39-0.355-3.355,0,1,1,90,false,stim,false,1,928.1999999999534,0,1,1,53495,task3,1071849,false,false,1148,image-keyboard-response,2
true,15,0,2,2,false,d,false,false,0.0-2.0-0.39-0.356-3.356,0,1,1,81,false,stim,true,0,1471.5,0,0,0,53495,task3,1074833,false,false,1151,image-keyboard-response,3
true,15,1,2,2,false,d,true,true,0.0-2.0-0.39-0.357-3.357,0,1,1,90,false,stim,false,2,996.6000000000931,0,1,2,53495,task3,1077355,false,true,1154,image-keyboard-response,4
true,15,1,2,1,true,z,false,true,0.0-2.0-0.39-0.358-3.358,0,1,1,90,false,stim,false,1,771.1999999999534,0,1,1,53495,task3,1079651,false,false,1157,image-keyboard-response,5
true,15,1,2,2,false,d,true,false,0.0-2.0-0.39-0.359-3.359,0,1,1,90,false,stim,false,2,872.3000000000466,0,1,2,53495,task3,1082048,false,false,1160,image-keyboard-response,6
true,15,1,2,1,true,z,false,true,0.0-2.0-0.40-0.360-3.360,0,1,1,90,false,stim,false,1,719.2000000001863,0,1,1,53495,task3,1084286,false,false,1163,image-keyboard-response,7
true,15,2,2,2,true,d,false,true,0.0-2.0-0.40-0.361-3.361,0,1,1,68,false,stim,false,2,663.0,0,1,2,53495,task3,1086464,false,false,1166,image-keyboard-response,8
true,15,1,2,1,true,z,false,true,0.0-2.0-0.40-0.362-3.362,0,1,1,90,false,stim,false,1,1310.1999999999534,0,1,1,53495,task3,1089313,false,false,1169,image-keyboard-response,9
true,15,2,2,2,true,d,false,true,0.0-2.0-0.40-0.363-3.363,0,1,1,68,false,stim,false,0,731.1999999999534,0,1,0,53495,task3,1091574,false,false,1172,image-keyboard-response,10
true,15,2,2,2,true,d,false,true,0.0-2.0-0.40-0.364-3.364,0,1,1,68,false,stim,false,2,670.6000000000931,0,0,2,53495,task3,1093764,false,false,1175,image-keyboard-response,11
true,15,2,2,2,true,d,false,true,0.0-2.0-0.40-0.365-3.365,0,1,1,68,false,stim,false,0,742.1000000000931,0,1,0,53495,task3,1096047,false,false,1178,image-keyboard-response,12
true,15,2,2,2,true,d,false,true,0.0-2.0-0.40-0.366-3.366,0,1,1,68,false,stim,false,0,508.69999999995343,0,1,0,53495,task3,1098079,false,false,1181,image-keyboard-response,13
true,15,1,2,1,true,z,false,false,0.0-2.0-0.40-0.367-3.367,0,1,1,90,false,stim,false,1,1467.7000000001863,0,1,1,53495,task3,1101083,false,true,1184,image-keyboard-response,14
true,16,1,2,0,false,q,true,true,0.0-2.0-0.40-0.368-3.368,1,1,0,90,true,stim,false,2,1173.6000000000931,0,0,2,53495,task3,1103781,false,true,1187,image-keyboard-response,1
true,16,2,2,1,false,z,true,true,0.0-2.0-0.41-0.369-3.369,1,1,0,68,false,stim,false,1,576.1999999999534,0,1,1,53495,task3,1105889,false,true,1190,image-keyboard-response,2
true,16,2,2,2,true,d,false,true,0.0-2.0-0.41-0.370-3.370,1,1,0,68,false,stim,false,2,476.60000000009313,0,1,0,53495,task3,1107902,false,false,1193,image-keyboard-response,3
true,16,2,2,0,false,q,false,false,0.0-2.0-0.41-0.371-3.371,1,1,0,68,false,stim,true,2,784.0,0,0,2,53495,task3,1110200,false,false,1196,image-keyboard-response,4
true,16,2,2,1,false,z,true,false,0.0-2.0-0.41-0.372-3.372,1,1,0,68,false,stim,false,1,1091.1000000000931,0,1,1,53495,task3,1112804,false,false,1199,image-keyboard-response,5
true,16,1,2,0,false,q,true,false,0.0-2.0-0.41-0.373-3.373,1,1,0,90,false,stim,false,2,846.5999999998603,0,0,2,53495,task3,1115183,false,false,1202,image-keyboard-response,6
true,16,2,2,2,true,d,false,true,0.0-2.0-0.41-0.374-3.374,1,1,0,68,false,stim,false,2,1773.0,0,1,0,53495,task3,1118495,false,false,1205,image-keyboard-response,7
true,16,0,2,0,true,q,false,true,0.0-2.0-0.41-0.375-3.375,1,1,0,81,false,stim,false,2,955.5999999998603,0,0,2,53495,task3,1120974,false,false,1208,image-keyboard-response,8
true,16,2,2,1,false,z,true,false,0.0-2.0-0.41-0.376-3.376,1,1,0,68,false,stim,false,1,823.0,0,1,1,53495,task3,1123321,false,false,1211,image-keyboard-response,9
true,16,2,2,2,true,d,false,true,0.0-2.0-0.41-0.377-3.377,1,1,0,68,false,stim,false,2,868.6000000000931,0,1,0,53495,task3,1125711,false,false,1214,image-keyboard-response,10
true,16,0,2,0,true,q,false,true,0.0-2.0-0.42-0.378-3.378,1,1,0,81,false,stim,false,2,914.8000000000466,0,0,2,53495,task3,1128170,false,false,1217,image-keyboard-response,11
true,16,0,2,0,true,q,false,true,0.0-2.0-0.42-0.379-3.379,1,1,0,81,false,stim,false,2,611.1999999999534,0,0,2,53495,task3,1130312,false,false,1220,image-keyboard-response,12
true,16,0,2,1,false,z,true,false,0.0-2.0-0.42-0.380-3.380,1,1,0,81,false,stim,false,1,630.5,0,1,1,53495,task3,1132469,false,false,1223,image-keyboard-response,13
true,16,1,2,1,true,z,false,true,0.0-2.0-0.42-0.381-3.381,1,1,0,90,false,stim,false,1,600.6999999999534,0,1,1,53495,task3,1134582,false,false,1226,image-keyboard-response,14
true,16,0,2,0,true,q,false,true,0.0-2.0-0.42-0.382-3.382,1,1,0,81,false,stim,false,2,1377.1000000000931,0,0,2,53495,task3,1137474,false,false,1229,image-keyboard-response,15
true,16,1,2,1,true,z,false,true,0.0-2.0-0.42-0.383-3.383,1,1,0,90,false,stim,false,1,1438.3999999999069,0,1,1,53495,task3,1140430,false,false,1232,image-keyboard-response,16
true,16,2,2,2,true,d,false,true,0.0-2.0-0.42-0.384-3.384,1,1,0,68,false,stim,false,2,630.5,0,1,0,53495,task3,1142576,false,false,1235,image-keyboard-response,17
true,16,2,2,2,true,d,false,true,0.0-2.0-0.42-0.385-3.385,1,1,0,68,false,stim,false,2,545.2000000001863,0,1,0,53495,task3,1144650,false,false,1238,image-keyboard-response,18
true,16,2,2,2,true,d,false,false,0.0-2.0-0.42-0.386-3.386,1,1,0,68,false,stim,false,2,1115.2000000001863,0,1,0,53495,task3,1147288,false,true,1241,image-keyboard-response,19
true,16,1,2,0,false,q,true,false,0.0-2.0-0.43-0.387-3.387,1,1,0,90,false,stim,false,2,647.9000000001397,0,0,2,53495,task3,1149456,false,false,1244,image-keyboard-response,20
true,16,0,2,2,false,d,true,false,0.0-2.0-0.43-0.388-3.388,1,1,0,81,false,stim,false,2,717.0999999998603,0,1,0,53495,task3,1151695,false,false,1247,image-keyboard-response,21
true,16,1,2,2,false,d,true,false,0.0-2.0-0.43-0.389-3.389,1,1,0,90,false,stim,false,2,855.2999999998137,0,1,0,53495,task3,1154081,false,false,1250,image-keyboard-response,22
true,16,2,2,2,true,d,false,true,0.0-2.0-0.43-0.390-3.390,1,1,0,68,false,stim,false,2,662.3999999999069,0,1,0,53495,task3,1156262,false,false,1253,image-keyboard-response,23
true,16,0,2,0,true,q,false,true,0.0-2.0-0.43-0.391-3.391,1,1,0,81,false,stim,false,2,1349.1999999999534,0,0,2,53495,task3,1159150,false,false,1256,image-keyboard-response,24
true,16,0,2,0,true,q,false,true,0.0-2.0-0.43-0.392-3.392,1,1,0,81,false,stim,false,2,691.3000000000466,0,0,2,53495,task3,1161358,false,false,1259,image-keyboard-response,25
true,16,1,2,1,true,z,false,true,0.0-2.0-0.43-0.393-3.393,1,1,0,90,false,stim,false,1,1216.0999999998603,0,1,1,53495,task3,1164112,false,false,1262,image-keyboard-response,26
true,16,1,2,1,true,z,false,true,0.0-2.0-0.43-0.394-3.394,1,1,0,90,false,stim,false,1,627.0999999998603,0,1,1,53495,task3,1166268,false,false,1265,image-keyboard-response,27
true,16,1,2,1,true,z,false,true,0.0-2.0-0.43-0.395-3.395,1,1,0,90,false,stim,false,1,565.3000000000466,0,1,1,53495,task3,1168377,false,false,1268,image-keyboard-response,28
true,17,2,2,2,true,d,false,true,0.0-2.0-0.44-0.396-3.396,1,1,0,68,true,stim,false,2,947.5,0,1,0,53495,task3,1170863,false,false,1271,image-keyboard-response,1
true,17,1,2,1,true,z,false,true,0.0-2.0-0.44-0.397-3.397,1,1,0,90,false,stim,false,1,804.0,0,1,1,53495,task3,1173200,false,false,1274,image-keyboard-response,2
true,17,2,2,2,true,d,false,true,0.0-2.0-0.44-0.398-3.398,1,1,0,68,false,stim,false,2,889.0,0,1,0,53495,task3,1175631,false,false,1277,image-keyboard-response,3
true,17,1,2,1,true,z,false,true,0.0-2.0-0.44-0.399-3.399,1,1,0,90,false,stim,false,1,766.6000000000931,0,1,1,53495,task3,1177919,false,false,1280,image-keyboard-response,4
true,17,0,2,1,false,z,false,false,0.0-2.0-0.44-0.400-3.400,1,1,0,81,false,stim,true,0,808.8999999999069,0,0,2,53495,task3,1180246,false,false,1283,image-keyboard-response,5
true,17,1,2,1,true,z,false,true,0.0-2.0-0.44-0.401-3.401,1,1,0,90,false,stim,false,0,444.30000000004657,0,0,2,53495,task3,1182222,false,false,1286,image-keyboard-response,6
true,17,1,2,1,true,z,false,true,0.0-2.0-0.44-0.402-3.402,1,1,0,90,false,stim,false,1,660.3000000000466,0,1,1,53495,task3,1184402,false,false,1289,image-keyboard-response,7
true,17,2,2,2,true,d,false,true,0.0-2.0-0.44-0.403-3.403,1,1,0,68,false,stim,false,2,659.3000000000466,0,1,0,53495,task3,1186576,false,false,1292,image-keyboard-response,8
true,17,1,2,1,true,z,false,true,0.0-2.0-0.44-0.404-3.404,1,1,0,90,false,stim,false,0,601.9000000001397,0,1,2,53495,task3,1188704,false,false,1295,image-keyboard-response,9
true,17,2,2,2,true,d,false,true,0.0-2.0-0.45-0.405-3.405,1,1,0,68,false,stim,false,2,806.3000000000466,0,1,0,53495,task3,1191040,false,false,1298,image-keyboard-response,10
true,17,1,2,1,true,z,false,true,0.0-2.0-0.45-0.406-3.406,1,1,0,90,false,stim,false,0,1041.8999999999069,0,1,2,53495,task3,1193616,false,false,1301,image-keyboard-response,11
true,17,1,2,1,true,z,false,false,0.0-2.0-0.45-0.407-3.407,1,1,0,90,false,stim,false,0,755.8999999999069,0,1,2,53495,task3,1195903,false,true,1304,image-keyboard-response,12
true,18,1,2,2,false,d,false,false,0.0-2.0-0.45-0.408-3.408,1,0,1,90,true,stim,true,1,1043.0,0,0,1,53495,task3,1198460,false,false,1307,image-keyboard-response,1
true,18,2,2,2,true,d,false,false,0.0-2.0-0.45-0.409-3.409,1,0,1,68,false,stim,false,1,566.5,0,0,1,53495,task3,1200555,false,true,1310,image-keyboard-response,2
true,18,2,2,2,true,d,false,true,0.0-2.0-0.45-0.410-3.410,1,0,1,68,false,stim,false,2,907.5999999998603,0,1,0,53495,task3,1203001,false,false,1313,image-keyboard-response,3
true,18,2,2,2,true,d,false,true,0.0-2.0-0.45-0.411-3.411,1,0,1,68,false,stim,false,2,590.6999999999534,0,1,0,53495,task3,1205113,false,false,1316,image-keyboard-response,4
true,18,0,2,2,false,d,true,false,0.0-2.0-0.45-0.412-3.412,1,0,1,81,false,stim,false,1,568.0,0,0,1,53495,task3,1207201,false,false,1319,image-keyboard-response,5
true,18,0,2,1,false,z,true,false,0.0-2.0-0.45-0.413-3.413,1,0,1,81,false,stim,false,1,988.7999999998137,0,1,2,53495,task3,1209720,false,false,1322,image-keyboard-response,6
true,18,1,2,2,false,d,false,false,0.0-2.0-0.46-0.414-3.414,1,0,1,90,false,stim,true,1,939.5,0,0,1,53495,task3,1212172,false,false,1325,image-keyboard-response,7
true,18,2,2,2,true,d,false,true,0.0-2.0-0.46-0.415-3.415,1,0,1,68,false,stim,false,2,776.3999999999069,0,1,0,53495,task3,1214465,false,false,1328,image-keyboard-response,8
true,18,2,2,1,false,z,true,false,0.0-2.0-0.46-0.416-3.416,1,0,1,68,false,stim,false,1,797.6999999999534,0,1,2,53495,task3,1216795,false,false,1331,image-keyboard-response,9
true,18,1,2,1,true,z,false,true,0.0-2.0-0.46-0.417-3.417,1,0,1,90,false,stim,false,1,660.8999999999069,0,1,2,53495,task3,1218970,false,false,1334,image-keyboard-response,10
true,18,2,2,2,true,d,false,true,0.0-2.0-0.46-0.418-3.418,1,0,1,68,false,stim,false,2,732.2999999998137,0,0,0,53495,task3,1221227,false,false,1337,image-keyboard-response,11
true,18,1,2,1,true,z,false,true,0.0-2.0-0.46-0.419-3.419,1,0,1,90,false,stim,false,1,508.39999999990687,0,1,2,53495,task3,1223276,false,false,1340,image-keyboard-response,12
true,18,2,2,2,true,d,false,true,0.0-2.0-0.46-0.420-3.420,1,0,1,68,false,stim,false,1,605.9000000001397,0,1,1,53495,task3,1225427,false,false,1343,image-keyboard-response,13
true,18,2,2,2,true,d,false,true,0.0-2.0-0.46-0.421-3.421,1,0,1,68,false,stim,false,2,924.0,0,0,0,53495,task3,1227879,false,false,1346,image-keyboard-response,14
true,18,2,2,2,true,d,false,true,0.0-2.0-0.46-0.422-3.422,1,0,1,68,false,stim,false,1,743.8000000000466,0,1,1,53495,task3,1230148,false,false,1349,image-keyboard-response,15
true,19,1,2,1,true,z,false,true,0.0-2.0-0.47-0.423-3.423,0,1,1,90,true,stim,false,1,757.4000000001397,0,1,2,53495,task3,1232443,false,false,1352,image-keyboard-response,1
true,19,2,2,2,true,d,false,true,0.0-2.0-0.47-0.424-3.424,0,1,1,68,false,stim,false,2,805.1000000000931,0,1,1,53495,task3,1234794,false,false,1355,image-keyboard-response,2
true,19,1,2,1,true,z,false,true,0.0-2.0-0.47-0.425-3.425,0,1,1,90,false,stim,false,1,900.0999999998603,0,1,2,53495,task3,1237218,false,false,1358,image-keyboard-response,3
true,19,2,2,1,false,z,false,false,0.0-2.0-0.47-0.426-3.426,0,1,1,68,false,stim,true,2,1138.6000000000931,0,0,0,53495,task3,1239880,false,false,1361,image-keyboard-response,4
true,19,1,2,2,false,d,true,false,0.0-2.0-0.47-0.427-3.427,0,1,1,90,false,stim,false,2,935.5999999998603,0,1,1,53495,task3,1242345,false,false,1364,image-keyboard-response,5
true,19,2,2,2,true,d,false,false,0.0-2.0-0.47-0.428-3.428,0,1,1,68,false,stim,false,2,804.6000000000931,0,1,1,53495,task3,1244669,false,true,1367,image-keyboard-response,6
true,19,0,2,1,false,z,true,false,0.0-2.0-0.47-0.429-3.429,0,1,1,81,false,stim,false,2,810.0,0,0,0,53495,task3,1247000,false,false,1370,image-keyboard-response,7
true,19,1,2,1,true,z,false,true,0.0-2.0-0.47-0.430-3.430,0,1,1,90,false,stim,false,2,555.5,0,0,0,53495,task3,1249080,false,false,1373,image-keyboard-response,8
true,19,1,2,1,true,z,false,true,0.0-2.0-0.47-0.431-3.431,0,1,1,90,false,stim,false,1,818.0,0,1,2,53495,task3,1251431,false,false,1376,image-keyboard-response,9
true,19,1,2,1,true,z,false,true,0.0-2.0-0.48-0.432-3.432,0,1,1,90,false,stim,false,2,964.0,0,1,0,53495,task3,1253926,false,false,1379,image-keyboard-response,10
true,19,1,2,1,true,z,false,true,0.0-2.0-0.48-0.433-3.433,0,1,1,90,false,stim,false,1,631.8000000000466,0,1,2,53495,task3,1256082,false,false,1382,image-keyboard-response,11
true,19,0,2,2,false,d,true,false,0.0-2.0-0.48-0.434-3.434,0,1,1,81,false,stim,false,2,533.6999999999534,0,0,1,53495,task3,1258155,false,false,1385,image-keyboard-response,12
true,19,1,2,2,false,d,true,false,0.0-2.0-0.48-0.435-3.435,0,1,1,90,false,stim,false,2,622.1999999999534,0,0,1,53495,task3,1260308,false,false,1388,image-keyboard-response,13
true,20,1,2,1,true,z,false,true,0.0-2.0-0.48-0.436-3.436,1,0,1,90,true,stim,false,1,1104.2000000001863,0,1,0,53495,task3,1262955,false,false,1391,image-keyboard-response,1
true,20,2,2,0,false,q,false,false,0.0-2.0-0.48-0.437-3.437,1,0,1,68,false,stim,true,2,688.4000000001397,0,0,1,53495,task3,1265161,false,false,1394,image-keyboard-response,2
true,20,1,2,1,true,z,false,true,0.0-2.0-0.48-0.438-3.438,1,0,1,90,false,stim,false,1,851.6000000000931,0,1,0,53495,task3,1267537,false,false,1397,image-keyboard-response,3
true,20,1,2,1,true,z,false,true,0.0-2.0-0.48-0.439-3.439,1,0,1,90,false,stim,false,1,1008.6999999999534,0,1,2,53495,task3,1270084,false,false,1400,image-keyboard-response,4
true,20,1,2,1,true,z,false,true,0.0-2.0-0.48-0.440-3.440,1,0,1,90,false,stim,false,1,630.6000000000931,0,1,2,53495,task3,1272242,false,false,1403,image-keyboard-response,5
true,20,1,2,0,false,q,true,false,0.0-2.0-0.49-0.441-3.441,1,0,1,90,false,stim,false,2,614.5,0,0,1,53495,task3,1274389,false,false,1406,image-keyboard-response,6
true,20,1,2,1,true,z,false,true,0.0-2.0-0.49-0.442-3.442,1,0,1,90,false,stim,false,1,680.0999999998603,0,1,2,53495,task3,1276599,false,false,1409,image-keyboard-response,7
true,20,1,2,1,true,z,false,true,0.0-2.0-0.49-0.443-3.443,1,0,1,90,false,stim,false,1,565.7999999998137,0,0,2,53495,task3,1278699,false,false,1412,image-keyboard-response,8
true,20,0,2,0,true,q,false,true,0.0-2.0-0.49-0.444-3.444,1,0,1,81,false,stim,false,2,771.7000000001863,0,1,1,53495,task3,1280979,false,false,1415,image-keyboard-response,9
true,20,0,2,0,true,q,false,true,0.0-2.0-0.49-0.445-3.445,1,0,1,81,false,stim,false,2,557.0,0,1,1,53495,task3,1283052,false,false,1418,image-keyboard-response,10
true,20,1,2,1,true,z,false,true,0.0-2.0-0.49-0.446-3.446,1,0,1,90,false,stim,false,1,724.1000000000931,0,1,0,53495,task3,1285317,false,false,1421,image-keyboard-response,11
true,20,1,2,1,true,z,false,true,0.0-2.0-0.49-0.447-3.447,1,0,1,90,false,stim,false,1,389.5,0,1,0,53495,task3,1287249,false,false,1424,image-keyboard-response,12
true,21,1,2,1,true,z,false,true,0.0-2.0-0.49-0.448-3.448,1,1,0,90,true,stim,false,1,542.6999999999534,0,1,0,53495,task3,1289331,false,false,1427,image-keyboard-response,1
true,21,1,2,2,false,d,false,false,0.0-2.0-0.49-0.449-3.449,1,1,0,90,false,stim,true,1,792.6000000000931,0,0,2,53495,task3,1291641,false,false,1430,image-keyboard-response,2
true,21,0,2,0,true,q,false,true,0.0-2.0-0.50-0.450-3.450,1,1,0,81,false,stim,false,0,483.5,0,1,1,53495,task3,1293652,false,false,1433,image-keyboard-response,3
true,21,0,2,0,true,q,false,true,0.0-2.0-0.50-0.451-3.451,1,1,0,81,false,stim,false,0,552.6000000000931,0,1,1,53495,task3,1295733,false,false,1436,image-keyboard-response,4
true,21,0,2,2,false,d,true,false,0.0-2.0-0.50-0.452-3.452,1,1,0,81,false,stim,false,1,758.6000000000931,0,0,2,53495,task3,1298017,false,false,1439,image-keyboard-response,5
true,21,0,2,0,true,q,false,true,0.0-2.0-0.50-0.453-3.453,1,1,0,81,false,stim,false,0,656.8000000000466,0,1,1,53495,task3,1300191,false,false,1442,image-keyboard-response,6
true,21,2,2,2,true,d,false,true,0.0-2.0-0.50-0.454-3.454,1,1,0,68,false,stim,false,1,519.0,0,0,2,53495,task3,1302237,false,false,1445,image-keyboard-response,7
true,21,1,2,1,true,z,false,true,0.0-2.0-0.50-0.455-3.455,1,1,0,90,false,stim,false,1,491.69999999995343,0,1,0,53495,task3,1304257,false,false,1448,image-keyboard-response,8
true,21,1,2,1,true,z,false,true,0.0-2.0-0.50-0.456-3.456,1,1,0,90,false,stim,false,1,552.5,0,1,0,53495,task3,1306343,false,false,1451,image-keyboard-response,9
true,21,2,2,2,true,d,false,true,0.0-2.0-0.50-0.457-3.457,1,1,0,68,false,stim,false,1,774.1999999999534,0,1,2,53495,task3,1308637,false,false,1454,image-keyboard-response,10
true,21,1,2,1,true,z,false,true,0.0-2.0-0.50-0.458-3.458,1,1,0,90,false,stim,false,1,1075.1999999999534,0,1,0,53495,task3,1311253,false,false,1457,image-keyboard-response,11
true,21,0,2,0,true,q,false,false,0.0-2.0-0.51-0.459-3.459,1,1,0,81,false,stim,false,0,695.0,0,0,1,53495,task3,1313488,false,true,1460,image-keyboard-response,12
true,22,1,2,2,false,d,true,false,0.0-2.0-0.51-0.460-3.460,1,0,1,90,true,stim,false,0,593.8000000000466,0,0,1,53495,task3,1315603,false,false,1463,image-keyboard-response,1
true,22,2,2,2,true,d,false,true,0.0-2.0-0.51-0.461-3.461,1,0,1,68,false,stim,false,2,405.80000000004657,0,1,2,53495,task3,1317524,false,false,1466,image-keyboard-response,2
true,22,2,2,2,true,d,false,true,0.0-2.0-0.51-0.462-3.462,1,0,1,68,false,stim,false,2,489.39999999990687,0,1,2,53495,task3,1319542,false,false,1469,image-keyboard-response,3
true,22,1,2,1,true,z,false,true,0.0-2.0-0.51-0.463-3.463,1,0,1,90,false,stim,false,1,470.30000000004657,0,1,0,53495,task3,1321530,false,false,1472,image-keyboard-response,4
true,22,1,2,1,true,z,false,true,0.0-2.0-0.51-0.464-3.464,1,0,1,90,false,stim,false,1,585.6000000000931,0,1,0,53495,task3,1323631,false,false,1475,image-keyboard-response,5
true,22,1,2,1,true,z,false,true,0.0-2.0-0.51-0.465-3.465,1,0,1,90,false,stim,false,1,594.1999999999534,0,1,0,53495,task3,1325767,false,false,1478,image-keyboard-response,6
true,22,2,2,2,true,d,false,true,0.0-2.0-0.51-0.466-3.466,1,0,1,68,false,stim,false,2,742.6000000000931,0,1,2,53495,task3,1328040,false,false,1481,image-keyboard-response,7
true,22,2,2,2,true,d,false,true,0.0-2.0-0.51-0.467-3.467,1,0,1,68,false,stim,false,0,648.1999999999534,0,0,1,53495,task3,1330227,false,false,1484,image-keyboard-response,8
true,22,1,2,1,true,z,false,true,0.0-2.0-0.52-0.468-3.468,1,0,1,90,false,stim,false,1,1313.4000000001397,0,1,0,53495,task3,1333065,false,false,1487,image-keyboard-response,9
true,22,1,2,1,true,z,false,true,0.0-2.0-0.52-0.469-3.469,1,0,1,90,false,stim,false,1,696.0999999998603,0,1,0,53495,task3,1335295,false,false,1490,image-keyboard-response,10
true,22,2,2,2,true,d,false,true,0.0-2.0-0.52-0.470-3.470,1,0,1,68,false,stim,false,0,743.6999999999534,0,1,1,53495,task3,1337557,false,false,1493,image-keyboard-response,11
true,22,2,2,2,true,d,false,true,0.0-2.0-0.52-0.471-3.471,1,0,1,68,false,stim,false,2,595.8000000000466,0,1,2,53495,task3,1339682,false,false,1496,image-keyboard-response,12
true,22,2,2,2,true,d,false,true,0.0-2.0-0.52-0.472-3.472,1,0,1,68,false,stim,false,2,572.6000000000931,0,1,2,53495,task3,1341779,false,false,1499,image-keyboard-response,13
true,22,2,2,2,true,d,false,true,0.0-2.0-0.52-0.473-3.473,1,0,1,68,false,stim,false,0,570.5,0,1,1,53495,task3,1343888,false,false,1502,image-keyboard-response,14
true,22,1,2,1,true,z,false,true,0.0-2.0-0.52-0.474-3.474,1,0,1,90,false,stim,false,1,755.1000000000931,0,0,0,53495,task3,1346162,false,false,1505,image-keyboard-response,15
true,23,2,2,2,true,d,false,true,0.0-2.0-0.52-0.475-3.475,0,1,1,68,true,stim,false,2,1220.3000000000466,0,1,2,53495,task3,1348921,false,false,1508,image-keyboard-response,1
true,23,2,2,2,true,d,false,true,0.0-2.0-0.52-0.476-3.476,0,1,1,68,false,stim,false,2,750.3999999999069,0,1,1,53495,task3,1351204,false,false,1511,image-keyboard-response,2
true,23,1,2,0,false,q,false,false,0.0-2.0-0.53-0.477-3.477,0,1,1,90,false,stim,true,1,966.2000000001863,0,0,0,53495,task3,1353693,false,false,1514,image-keyboard-response,3
true,23,2,2,2,true,d,false,true,0.0-2.0-0.53-0.478-3.478,0,1,1,68,false,stim,false,2,1503.7999999998137,0,1,1,53495,task3,1356714,false,false,1517,image-keyboard-response,4
true,23,0,2,0,true,q,false,true,0.0-2.0-0.53-0.479-3.479,0,1,1,81,false,stim,false,1,602.0,0,0,0,53495,task3,1358858,false,false,1520,image-keyboard-response,5
true,23,2,2,2,true,d,false,true,0.0-2.0-0.53-0.480-3.480,0,1,1,68,false,stim,false,2,692.1999999999534,0,1,2,53495,task3,1361076,false,false,1523,image-keyboard-response,6
true,23,2,2,2,true,d,false,true,0.0-2.0-0.53-0.481-3.481,0,1,1,68,false,stim,false,2,586.1000000000931,0,1,1,53495,task3,1363188,false,false,1526,image-keyboard-response,7
true,23,2,2,2,true,d,false,true,0.0-2.0-0.53-0.482-3.482,0,1,1,68,false,stim,false,2,560.9000000001397,0,1,1,53495,task3,1365279,false,false,1529,image-keyboard-response,8
true,23,2,2,2,true,d,false,false,0.0-2.0-0.53-0.483-3.483,0,1,1,68,false,stim,false,2,824.4000000001397,0,1,2,53495,task3,1367637,false,true,1532,image-keyboard-response,9
true,23,0,2,0,true,q,false,true,0.0-2.0-0.53-0.484-3.484,0,1,1,81,false,stim,false,1,660.1999999999534,0,1,0,53495,task3,1369819,false,false,1535,image-keyboard-response,10
true,23,0,2,2,false,d,true,false,0.0-2.0-0.53-0.485-3.485,0,1,1,81,false,stim,false,2,499.5,0,1,2,53495,task3,1371855,false,false,1538,image-keyboard-response,11
true,23,2,2,2,true,d,false,false,0.0-2.0-0.54-0.486-3.486,0,1,1,68,false,stim,false,2,1492.2999999998137,0,0,1,53495,task3,1374859,false,true,1541,image-keyboard-response,12
true,23,1,2,2,false,d,true,false,0.0-2.0-0.54-0.487-3.487,0,1,1,90,false,stim,false,2,707.7999999998137,0,0,1,53495,task3,1377081,false,false,1544,image-keyboard-response,13
true,23,0,2,0,true,q,false,false,0.0-2.0-0.54-0.488-3.488,0,1,1,81,false,stim,false,1,788.0,0,1,0,53495,task3,1379395,false,true,1547,image-keyboard-response,14
true,24,1,2,2,false,d,true,true,0.0-2.0-0.54-0.489-3.489,1,0,1,90,true,stim,false,2,990.6999999999534,0,1,2,53495,task3,1381909,false,true,1550,image-keyboard-response,1
true,24,1,2,0,false,q,true,false,0.0-2.0-0.54-0.490-3.490,1,0,1,90,false,stim,false,0,851.1000000000931,0,1,0,53495,task3,1384285,false,false,1553,image-keyboard-response,2
true,24,2,2,0,false,q,true,false,0.0-2.0-0.54-0.491-3.491,1,0,1,68,false,stim,false,0,583.6999999999534,0,1,0,53495,task3,1386397,false,false,1556,image-keyboard-response,3
true,24,0,2,0,true,q,false,true,0.0-2.0-0.54-0.492-3.492,1,0,1,81,false,stim,false,2,855.5,0,0,1,53495,task3,1388776,false,false,1559,image-keyboard-response,4
true,24,1,2,2,false,d,true,false,0.0-2.0-0.54-0.493-3.493,1,0,1,90,false,stim,false,2,835.5,0,1,2,53495,task3,1391154,false,false,1562,image-keyboard-response,5
true,24,2,2,2,true,d,false,true,0.0-2.0-0.54-0.494-3.494,1,0,1,68,false,stim,false,2,1002.3999999999069,0,1,2,53495,task3,1393691,false,false,1565,image-keyboard-response,6
true,24,2,2,2,true,d,false,true,0.0-2.0-0.55-0.495-3.495,1,0,1,68,false,stim,false,2,419.30000000004657,0,1,2,53495,task3,1395624,false,false,1568,image-keyboard-response,7
true,24,0,2,0,true,q,false,true,0.0-2.0-0.55-0.496-3.496,1,0,1,81,false,stim,false,2,673.3000000000466,0,0,1,53495,task3,1397809,false,false,1571,image-keyboard-response,8
true,24,0,2,0,true,q,false,true,0.0-2.0-0.55-0.497-3.497,1,0,1,81,false,stim,false,0,534.0,0,1,0,53495,task3,1399882,false,false,1574,image-keyboard-response,9
true,24,0,2,0,true,q,false,true,0.0-2.0-0.55-0.498-3.498,1,0,1,81,false,stim,false,0,584.1000000000931,0,1,0,53495,task3,1401982,false,false,1577,image-keyboard-response,10
true,24,2,2,0,false,q,false,false,0.0-2.0-0.55-0.499-3.499,1,0,1,68,false,stim,true,2,997.5,0,1,1,53495,task3,1404508,false,false,1580,image-keyboard-response,11
true,24,2,2,2,true,d,false,true,0.0-2.0-0.55-0.500-3.500,1,0,1,68,false,stim,false,2,963.5999999998603,0,1,2,53495,task3,1407005,false,false,1583,image-keyboard-response,12
true,24,0,2,0,true,q,false,true,0.0-2.0-0.55-0.501-3.501,1,0,1,81,false,stim,false,0,424.39999999990687,0,0,0,53495,task3,1408962,false,false,1586,image-keyboard-response,13
true,24,2,2,2,true,d,false,true,0.0-2.0-0.55-0.502-3.502,1,0,1,68,false,stim,false,2,927.5999999998603,0,1,2,53495,task3,1411427,false,false,1589,image-keyboard-response,14
true,24,0,2,0,true,q,false,true,0.0-2.0-0.55-0.503-3.503,1,0,1,81,false,stim,false,2,615.5,0,1,1,53495,task3,1413569,false,false,1592,image-keyboard-response,15
true,25,0,2,2,false,d,true,true,0.0-2.0-0.56-0.504-3.504,0,1,1,81,true,stim,false,2,580.6999999999534,0,1,2,53495,task3,1415687,false,true,1595,image-keyboard-response,1
true,25,0,2,0,true,q,false,true,0.0-2.0-0.56-0.505-3.505,0,1,1,81,false,stim,false,0,1358.8000000000466,0,1,1,53495,task3,1418572,false,false,1598,image-keyboard-response,2
true,25,0,2,2,false,d,false,false,0.0-2.0-0.56-0.506-3.506,0,1,1,81,false,stim,true,0,1291.5,0,0,0,53495,task3,1421381,false,false,1601,image-keyboard-response,3
true,25,2,2,2,true,d,false,true,0.0-2.0-0.56-0.507-3.507,0,1,1,68,false,stim,false,2,823.5,0,1,2,53495,task3,1423734,false,false,1604,image-keyboard-response,4
true,25,1,2,2,false,d,true,false,0.0-2.0-0.56-0.508-3.508,0,1,1,90,false,stim,false,0,746.8999999999069,0,0,0,53495,task3,1426012,false,false,1607,image-keyboard-response,5
true,25,0,2,0,true,q,false,true,0.0-2.0-0.56-0.509-3.509,0,1,1,81,false,stim,false,0,874.3999999999069,0,1,1,53495,task3,1428404,false,false,1610,image-keyboard-response,6
true,25,2,2,2,true,d,false,true,0.0-2.0-0.56-0.510-3.510,0,1,1,68,false,stim,false,0,459.80000000004657,0,0,0,53495,task3,1430401,false,false,1613,image-keyboard-response,7
true,25,2,2,0,false,q,true,false,0.0-2.0-0.56-0.511-3.511,0,1,1,68,false,stim,false,0,1318.1999999999534,0,1,1,53495,task3,1433251,false,false,1616,image-keyboard-response,8
true,25,2,2,2,true,d,false,true,0.0-2.0-0.56-0.512-3.512,0,1,1,68,false,stim,false,2,874.4000000001397,0,1,2,53495,task3,1435648,false,false,1619,image-keyboard-response,9
true,25,2,2,2,true,d,false,true,0.0-2.0-0.57-0.513-3.513,0,1,1,68,false,stim,false,2,547.5,0,1,2,53495,task3,1437710,false,false,1622,image-keyboard-response,10
true,25,2,2,2,true,d,false,true,0.0-2.0-0.57-0.514-3.514,0,1,1,68,false,stim,false,0,926.0,0,1,0,53495,task3,1440153,false,false,1625,image-keyboard-response,11
true,25,2,2,2,true,d,false,true,0.0-2.0-0.57-0.515-3.515,0,1,1,68,false,stim,false,0,493.80000000004657,0,1,0,53495,task3,1442188,false,false,1628,image-keyboard-response,12
true,25,2,2,2,true,d,false,true,0.0-2.0-0.57-0.516-3.516,0,1,1,68,false,stim,false,2,562.6999999999534,0,1,2,53495,task3,1444282,false,false,1631,image-keyboard-response,13
true,25,0,2,0,true,q,false,true,0.0-2.0-0.57-0.517-3.517,0,1,1,81,false,stim,false,0,922.0,0,1,1,53495,task3,1446737,false,false,1634,image-keyboard-response,14
true,25,2,2,2,true,d,false,true,0.0-2.0-0.57-0.518-3.518,0,1,1,68,false,stim,false,0,619.0,0,1,0,53495,task3,1448872,false,false,1637,image-keyboard-response,15
true,26,2,0,0,false,q,true,false,0.0-2.0-0.57-0.519-3.519,1,1,1,68,true,stim,false,0,1595.0,0,1,1,53495,task3,1573013,false,false,1760,image-keyboard-response,1
true,26,1,0,0,false,q,true,false,0.0-2.0-0.57-0.520-3.520,1,1,1,90,false,stim,false,0,512.7999999998137,0,1,1,53495,task3,1575053,false,false,1763,image-keyboard-response,2
true,26,2,0,2,true,d,false,true,0.0-2.0-0.57-0.521-3.521,1,1,1,68,false,stim,false,2,1449.6999999999534,0,1,2,53495,task3,1578032,false,false,1766,image-keyboard-response,3
true,26,0,0,0,true,q,false,true,0.0-2.0-0.58-0.522-3.522,1,1,1,81,false,stim,false,0,420.60000000009313,0,1,1,53495,task3,1579988,false,false,1769,image-keyboard-response,4
true,26,2,0,2,true,d,false,true,0.0-2.0-0.58-0.523-3.523,1,1,1,68,false,stim,false,2,670.0,0,1,2,53495,task3,1582181,false,false,1772,image-keyboard-response,5
true,26,1,0,2,false,d,true,true,0.0-2.0-0.58-0.524-3.524,1,1,1,90,false,stim,false,2,638.0,0,1,0,53495,task3,1584358,false,true,1775,image-keyboard-response,6
true,26,1,0,2,false,d,true,false,0.0-2.0-0.58-0.525-3.525,1,1,1,90,false,stim,false,2,592.0,0,1,0,53495,task3,1586480,false,false,1778,image-keyboard-response,7
true,26,2,0,2,true,d,false,true,0.0-2.0-0.58-0.526-3.526,1,1,1,68,false,stim,false,2,599.0,0,1,0,53495,task3,1588599,false,false,1781,image-keyboard-response,8
true,26,2,0,2,true,d,false,true,0.0-2.0-0.58-0.527-3.527,1,1,1,68,false,stim,false,2,641.1000000000931,0,0,2,53495,task3,1590752,false,false,1784,image-keyboard-response,9
true,26,0,0,0,true,q,false,true,0.0-2.0-0.58-0.528-3.528,1,1,1,81,false,stim,false,0,497.20000000018626,0,1,1,53495,task3,1592766,false,false,1787,image-keyboard-response,10
true,26,2,0,2,true,d,false,true,0.0-2.0-0.58-0.529-3.529,1,1,1,68,false,stim,false,2,537.0,0,0,2,53495,task3,1594822,false,false,1790,image-keyboard-response,11
true,27,0,2,0,true,q,false,true,0.0-2.0-0.58-0.530-3.530,1,1,0,81,true,stim,false,0,751.1000000000931,0,1,1,53495,task3,1597119,false,false,1793,image-keyboard-response,1
true,27,2,2,2,true,d,false,false,0.0-2.0-0.59-0.531-3.531,1,1,0,68,false,stim,false,2,682.5,0,1,0,53495,task3,1599332,false,true,1796,image-keyboard-response,2
true,27,1,2,2,false,d,true,false,0.0-2.0-0.59-0.532-3.532,1,1,0,90,false,stim,false,2,658.8000000000466,0,1,0,53495,task3,1601525,false,false,1799,image-keyboard-response,3
true,27,0,2,0,true,q,false,false,0.0-2.0-0.59-0.533-3.533,1,1,0,81,false,stim,false,0,1481.1000000000931,0,1,1,53495,task3,1604534,false,true,1802,image-keyboard-response,4
true,27,2,2,1,false,z,false,false,0.0-2.0-0.59-0.534-3.534,1,1,0,68,false,stim,true,2,800.3999999999069,0,0,2,53495,task3,1606865,false,false,1805,image-keyboard-response,5
true,27,1,2,1,true,z,false,true,0.0-2.0-0.59-0.535-3.535,1,1,0,90,false,stim,false,2,891.8000000000466,0,0,2,53495,task3,1609285,false,false,1808,image-keyboard-response,6
true,27,1,2,0,false,q,true,true,0.0-2.0-0.59-0.536-3.536,1,1,0,90,false,stim,false,0,1137.1999999999534,0,1,1,53495,task3,1611954,false,true,1811,image-keyboard-response,7
true,27,0,2,2,false,d,true,false,0.0-2.0-0.59-0.537-3.537,1,1,0,81,false,stim,false,2,659.3000000000466,0,0,0,53495,task3,1614146,false,false,1814,image-keyboard-response,8
true,27,1,2,0,false,q,true,false,0.0-2.0-0.59-0.538-3.538,1,1,0,90,false,stim,false,0,738.0,0,1,1,53495,task3,1616419,false,false,1817,image-keyboard-response,9
true,27,2,2,1,false,z,false,false,0.0-2.0-0.59-0.539-3.539,1,1,0,68,false,stim,true,2,638.1999999999534,0,1,2,53495,task3,1618584,false,false,1820,image-keyboard-response,10
true,27,2,2,0,false,q,true,false,0.0-2.0-0.60-0.540-3.540,1,1,0,68,false,stim,false,0,1539.2999999998137,0,1,1,53495,task3,1621640,false,false,1823,image-keyboard-response,11
true,28,1,2,1,true,z,false,true,0.0-2.0-0.60-0.541-3.541,0,1,1,90,true,stim,false,1,1077.9000000001397,0,1,2,53495,task3,1624245,false,false,1826,image-keyboard-response,1
true,28,1,2,1,true,z,false,true,0.0-2.0-0.60-0.542-3.542,0,1,1,90,false,stim,false,1,477.0999999998603,0,1,2,53495,task3,1626244,false,false,1829,image-keyboard-response,2
true,28,1,2,0,false,q,true,true,0.0-2.0-0.60-0.543-3.543,0,1,1,90,false,stim,false,2,796.5999999998603,0,0,0,53495,task3,1628560,false,true,1832,image-keyboard-response,3
true,28,1,2,0,false,q,true,false,0.0-2.0-0.60-0.544-3.544,0,1,1,90,false,stim,false,2,504.5,0,0,0,53495,task3,1630587,false,false,1835,image-keyboard-response,4
true,28,1,2,0,false,q,true,false,0.0-2.0-0.60-0.545-3.545,0,1,1,90,false,stim,false,0,1476.6000000000931,0,1,1,53495,task3,1633583,false,false,1838,image-keyboard-response,5
true,28,1,2,1,true,z,false,true,0.0-2.0-0.60-0.546-3.546,0,1,1,90,false,stim,false,1,1022.8000000000466,0,1,2,53495,task3,1636132,false,false,1841,image-keyboard-response,6
true,28,2,2,0,false,q,false,false,0.0-2.0-0.60-0.547-3.547,0,1,1,68,false,stim,true,2,937.3000000000466,0,0,0,53495,task3,1638595,false,false,1844,image-keyboard-response,7
true,28,2,2,0,false,q,true,false,0.0-2.0-0.60-0.548-3.548,0,1,1,68,false,stim,false,0,1610.3999999999069,0,1,1,53495,task3,1641732,false,false,1847,image-keyboard-response,8
true,28,0,2,0,true,q,false,true,0.0-2.0-0.61-0.549-3.549,0,1,1,81,false,stim,false,2,925.3999999999069,0,0,0,53495,task3,1644195,false,false,1850,image-keyboard-response,9
true,28,1,2,1,true,z,false,true,0.0-2.0-0.61-0.550-3.550,0,1,1,90,false,stim,false,1,695.1999999999534,0,1,2,53495,task3,1646427,false,false,1853,image-keyboard-response,10
true,28,0,2,0,true,q,false,true,0.0-2.0-0.61-0.551-3.551,0,1,1,81,false,stim,false,2,530.3000000000466,0,0,0,53495,task3,1648474,false,false,1856,image-keyboard-response,11
true,28,0,2,0,true,q,false,true,0.0-2.0-0.61-0.552-3.552,0,1,1,81,false,stim,false,0,685.1999999999534,0,1,1,53495,task3,1650680,false,false,1859,image-keyboard-response,12
true,28,0,2,0,true,q,false,true,0.0-2.0-0.61-0.553-3.553,0,1,1,81,false,stim,false,0,480.10000000009313,0,1,1,53495,task3,1652699,false,false,1862,image-keyboard-response,13
true,28,0,2,0,true,q,false,false,0.0-2.0-0.61-0.554-3.554,0,1,1,81,false,stim,false,2,1109.4000000001397,0,0,0,53495,task3,1655340,false,true,1865,image-keyboard-response,14
true,28,1,2,1,true,z,false,true,0.0-2.0-0.61-0.555-3.555,0,1,1,90,false,stim,false,1,576.0,0,1,2,53495,task3,1657455,false,false,1868,image-keyboard-response,15
true,28,1,2,0,false,q,true,false,0.0-2.0-0.61-0.556-3.556,0,1,1,90,false,stim,false,0,675.0,0,1,1,53495,task3,1659643,false,false,1871,image-keyboard-response,16
true,28,1,2,1,true,z,false,true,0.0-2.0-0.61-0.557-3.557,0,1,1,90,false,stim,false,1,799.8999999999069,0,1,2,53495,task3,1661955,false,false,1874,image-keyboard-response,17
true,28,2,2,0,false,q,false,false,0.0-2.0-0.62-0.558-3.558,0,1,1,68,false,stim,true,2,449.20000000018626,0,0,0,53495,task3,1663917,false,false,1877,image-keyboard-response,18
true,28,2,2,0,false,q,true,false,0.0-2.0-0.62-0.559-3.559,0,1,1,68,false,stim,false,0,1472.6000000000931,0,1,1,53495,task3,1666916,false,false,1880,image-keyboard-response,19
true,28,0,2,0,true,q,false,true,0.0-2.0-0.62-0.560-3.560,0,1,1,81,false,stim,false,0,518.8000000002794,0,1,1,53495,task3,1668957,false,false,1883,image-keyboard-response,20
true,28,1,2,1,true,z,false,true,0.0-2.0-0.62-0.561-3.561,0,1,1,90,false,stim,false,1,608.3999999999069,0,1,2,53495,task3,1671096,false,false,1886,image-keyboard-response,21
true,28,0,2,0,true,q,false,true,0.0-2.0-0.62-0.562-3.562,0,1,1,81,false,stim,false,2,778.5,0,0,0,53495,task3,1673389,false,false,1889,image-keyboard-response,22
true,28,0,2,0,true,q,false,true,0.0-2.0-0.62-0.563-3.563,0,1,1,81,false,stim,false,0,619.7999999998137,0,1,1,53495,task3,1675534,false,false,1892,image-keyboard-response,23
true,28,0,2,0,true,q,false,true,0.0-2.0-0.62-0.564-3.564,0,1,1,81,false,stim,false,2,869.7999999998137,0,0,0,53495,task3,1677938,false,false,1895,image-keyboard-response,24
true,28,1,2,1,true,z,false,true,0.0-2.0-0.62-0.565-3.565,0,1,1,90,false,stim,false,1,711.6999999997206,0,0,2,53495,task3,1680176,false,false,1898,image-keyboard-response,25
true,28,1,2,1,true,z,false,true,0.0-2.0-0.62-0.566-3.566,0,1,1,90,false,stim,false,1,435.60000000009313,0,0,2,53495,task3,1682141,false,false,1901,image-keyboard-response,26
true,28,0,2,0,true,q,false,true,0.0-2.0-0.63-0.567-3.567,0,1,1,81,false,stim,false,2,867.1999999997206,0,0,0,53495,task3,1684525,false,false,1904,image-keyboard-response,27
true,28,1,2,1,true,z,false,true,0.0-2.0-0.63-0.568-3.568,0,1,1,90,false,stim,false,1,1003.4000000003725,0,0,2,53495,task3,1687060,false,false,1907,image-keyboard-response,28
true,28,0,2,0,true,q,false,true,0.0-2.0-0.63-0.569-3.569,0,1,1,81,false,stim,false,0,1189.2999999998137,0,1,1,53495,task3,1689799,false,false,1910,image-keyboard-response,29
true,29,0,1,0,true,q,false,true,0.0-2.0-0.63-0.570-3.570,0,1,0,81,true,stim,false,0,570.3999999999069,0,1,1,53495,task3,1691911,false,false,1913,image-keyboard-response,1
true,29,0,1,1,false,z,false,false,0.0-2.0-0.63-0.571-3.571,0,1,0,81,false,stim,true,0,795.1000000000931,0,0,0,53495,task3,1694248,false,false,1916,image-keyboard-response,2
true,29,0,1,0,true,q,false,false,0.0-2.0-0.63-0.572-3.572,0,1,0,81,false,stim,false,0,1217.1999999997206,0,1,1,53495,task3,1696993,false,true,1919,image-keyboard-response,3
true,29,1,1,1,true,z,false,true,0.0-2.0-0.63-0.573-3.573,0,1,0,90,false,stim,false,0,543.8999999999069,0,0,0,53495,task3,1699053,false,false,1922,image-keyboard-response,4
true,29,1,1,0,false,q,false,false,0.0-2.0-0.63-0.574-3.574,0,1,0,90,false,stim,true,1,564.0,0,0,2,53495,task3,1701138,false,false,1925,image-keyboard-response,5
true,29,2,1,0,false,q,true,false,0.0-2.0-0.63-0.575-3.575,0,1,0,68,false,stim,false,1,888.6999999997206,0,0,2,53495,task3,1703564,false,false,1928,image-keyboard-response,6
true,29,0,1,0,true,q,false,false,0.0-2.0-0.64-0.576-3.576,0,1,0,81,false,stim,false,1,642.5999999996275,0,0,2,53495,task3,1705746,false,true,1931,image-keyboard-response,7
true,29,0,1,0,true,q,false,true,0.0-2.0-0.64-0.577-3.577,0,1,0,81,false,stim,false,1,795.5,0,0,2,53495,task3,1708061,false,false,1934,image-keyboard-response,8
true,29,1,1,1,true,z,false,true,0.0-2.0-0.64-0.578-3.578,0,1,0,90,false,stim,false,0,845.2999999998137,0,0,0,53495,task3,1710430,false,false,1937,image-keyboard-response,9
true,29,0,1,0,true,q,false,true,0.0-2.0-0.64-0.579-3.579,0,1,0,81,false,stim,false,0,871.1000000000931,0,1,1,53495,task3,1712846,false,false,1940,image-keyboard-response,10
true,29,1,1,1,true,z,false,true,0.0-2.0-0.64-0.580-3.580,0,1,0,90,false,stim,false,0,673.3999999999069,0,0,0,53495,task3,1715062,false,false,1943,image-keyboard-response,11
true,29,0,1,0,true,q,false,true,0.0-2.0-0.64-0.581-3.581,0,1,0,81,false,stim,false,0,497.79999999981374,0,1,1,53495,task3,1717090,false,false,1946,image-keyboard-response,12
true,29,0,1,0,true,q,false,true,0.0-2.0-0.64-0.582-3.582,0,1,0,81,false,stim,false,1,588.0999999996275,0,0,2,53495,task3,1719197,false,false,1949,image-keyboard-response,13
true,29,0,1,0,true,q,false,true,0.0-2.0-0.64-0.583-3.583,0,1,0,81,false,stim,false,0,1237.8999999999069,0,1,1,53495,task3,1721958,false,false,1952,image-keyboard-response,14
true,29,1,1,1,true,z,false,true,0.0-2.0-0.64-0.584-3.584,0,1,0,90,false,stim,false,0,1248.8999999999069,0,0,0,53495,task3,1724747,false,false,1955,image-keyboard-response,15
true,29,1,1,1,true,z,false,true,0.0-2.0-0.65-0.585-3.585,0,1,0,90,false,stim,false,0,459.79999999981374,0,0,0,53495,task3,1726729,false,false,1958,image-keyboard-response,16
true,29,1,1,1,true,z,false,true,0.0-2.0-0.65-0.586-3.586,0,1,0,90,false,stim,false,0,384.0,0,0,0,53495,task3,1728656,false,false,1961,image-keyboard-response,17
true,29,0,1,0,true,q,false,true,0.0-2.0-0.65-0.587-3.587,0,1,0,81,false,stim,false,0,592.7000000001863,0,1,1,53495,task3,1730783,false,false,1964,image-keyboard-response,18
true,29,0,1,0,true,q,false,true,0.0-2.0-0.65-0.588-3.588,0,1,0,81,false,stim,false,1,1176.7999999998137,0,0,2,53495,task3,1733487,false,false,1967,image-keyboard-response,19
true,29,0,1,0,true,q,false,true,0.0-2.0-0.65-0.589-3.589,0,1,0,81,false,stim,false,0,539.3999999999069,0,1,1,53495,task3,1735556,false,false,1970,image-keyboard-response,20
true,29,0,1,0,true,q,false,true,0.0-2.0-0.65-0.590-3.590,0,1,0,81,false,stim,false,1,1088.7000000001863,0,0,2,53495,task3,1738171,false,false,1973,image-keyboard-response,21
true,29,1,1,1,true,z,false,true,0.0-2.0-0.65-0.591-3.591,0,1,0,90,false,stim,false,0,854.2999999998137,0,0,0,53495,task3,1740559,false,false,1976,image-keyboard-response,22
