answered,blockNum,choice,condition,corResp,correct,correct_response,explo,fb,internal_node_id,isStable_1,isStable_2,isStable_3,key_press,newBlock,part,persev,persevResp,rt,sessNum,stableAS,stimulus,subject,task,time_elapsed,training,trap,trial_index,trial_type,trialsInBlock
true,1,0,0,0,true,q,false,true,0.0-2.0-0.0-0.0-3.0,0,0,0,81,true,stim,false,-1,644.8999999999651,1,0,1,53495,task2,130149,false,false,94,image-keyboard-response,1
true,1,0,0,1,false,z,true,false,0.0-2.0-0.0-0.1-3.1,0,0,0,81,false,stim,false,-1,915.7000000000116,1,0,2,53495,task2,132578,false,false,97,image-keyboard-response,2
true,1,1,0,2,false,d,true,false,0.0-2.0-0.0-0.2-3.2,0,0,0,90,false,stim,false,-1,1599.7999999999884,1,0,0,53495,task2,135706,false,false,100,image-keyboard-response,3
true,1,0,0,2,false,d,true,false,0.0-2.0-0.0-0.3-3.3,0,0,0,81,false,stim,false,-1,723.5,1,0,0,53495,task2,137946,false,false,103,image-keyboard-response,4
true,1,2,0,2,true,d,false,true,0.0-2.0-0.0-0.4-3.4,0,0,0,68,false,stim,false,-1,469.20000000001164,1,0,0,53495,task2,139932,false,false,106,image-keyboard-response,5
true,1,0,0,0,true,q,false,true,0.0-2.0-0.0-0.5-3.5,0,0,0,81,false,stim,false,-1,804.2999999999884,1,0,1,53495,task2,142247,false,false,109,image-keyboard-response,6
true,1,0,0,0,true,q,false,true,0.0-2.0-0.0-0.6-3.6,0,0,0,81,false,stim,false,-1,549.4000000000233,1,0,1,53495,task2,144326,false,false,112,image-keyboard-response,7
true,1,0,0,1,false,z,true,false,0.0-2.0-0.0-0.7-3.7,0,0,0,81,false,stim,false,-1,1010.0999999999767,1,0,2,53495,task2,146852,false,false,115,image-keyboard-response,8
true,1,1,0,1,true,z,false,true,0.0-2.0-0.0-0.8-3.8,0,0,0,90,false,stim,false,-1,648.2999999999884,1,0,2,53495,task2,149021,false,false,118,image-keyboard-response,9
true,1,2,0,2,true,d,false,true,0.0-2.0-0.1-0.9-3.9,0,0,0,68,false,stim,false,-1,999.3000000000466,1,0,0,53495,task2,151541,false,false,121,image-keyboard-response,10
true,1,1,0,1,true,z,false,false,0.0-2.0-0.1-0.10-3.10,0,0,0,90,false,stim,false,-1,732.0999999999767,1,0,2,53495,task2,153784,false,true,124,image-keyboard-response,11
true,1,2,0,2,true,d,false,true,0.0-2.0-0.1-0.11-3.11,0,0,0,68,false,stim,false,-1,2166.5999999999767,1,0,0,53495,task2,157482,false,false,127,image-keyboard-response,12
true,1,2,0,2,true,d,false,true,0.0-2.0-0.1-0.12-3.12,0,0,0,68,false,stim,false,-1,756.3000000000466,1,0,0,53495,task2,159750,false,false,130,image-keyboard-response,13
true,1,0,0,0,true,q,false,true,0.0-2.0-0.1-0.13-3.13,0,0,0,81,false,stim,false,-1,535.8999999999651,1,0,1,53495,task2,161810,false,false,133,image-keyboard-response,14
true,1,0,0,1,false,z,true,false,0.0-2.0-0.1-0.14-3.14,0,0,0,81,false,stim,false,-1,699.0999999999767,1,0,2,53495,task2,164028,false,false,136,image-keyboard-response,15
true,1,1,0,1,true,z,false,true,0.0-2.0-0.1-0.15-3.15,0,0,0,90,false,stim,false,-1,622.0,1,0,2,53495,task2,166170,false,false,139,image-keyboard-response,16
true,1,2,0,0,false,q,true,false,0.0-2.0-0.1-0.16-3.16,0,0,0,68,false,stim,false,-1,1200.2999999999884,1,0,1,53495,task2,168889,false,false,142,image-keyboard-response,17
true,1,0,0,0,true,q,false,true,0.0-2.0-0.1-0.17-3.17,0,0,0,81,false,stim,false,-1,704.4000000000233,1,0,1,53495,task2,171120,false,false,145,image-keyboard-response,18
true,1,0,0,0,true,q,false,true,0.0-2.0-0.2-0.18-3.18,0,0,0,81,false,stim,false,-1,671.5999999999767,1,0,1,53495,task2,173321,false,false,148,image-keyboard-response,19
true,1,1,0,1,true,z,false,true,0.0-2.0-0.2-0.19-3.19,0,0,0,90,false,stim,false,-1,960.7000000000116,1,0,2,53495,task2,175807,false,false,151,image-keyboard-response,20
true,1,2,0,2,true,d,false,true,0.0-2.0-0.2-0.20-3.20,0,0,0,68,false,stim,false,-1,672.5,1,0,0,53495,task2,178006,false,false,154,image-keyboard-response,21
true,1,0,0,1,false,z,true,false,0.0-2.0-0.2-0.21-3.21,0,0,0,81,false,stim,false,-1,1683.3000000000466,1,0,2,53495,task2,181217,false,false,157,image-keyboard-response,22
true,1,0,0,0,true,q,false,true,0.0-2.0-0.2-0.22-3.22,0,0,0,81,false,stim,false,-1,754.7000000000116,1,0,1,53495,task2,183502,false,false,160,image-keyboard-response,23
true,1,1,0,1,true,z,false,true,0.0-2.0-0.2-0.23-3.23,0,0,0,90,false,stim,false,-1,485.79999999998836,1,0,2,53495,task2,185515,false,false,163,image-keyboard-response,24
true,1,0,0,0,true,q,false,false,0.0-2.0-0.2-0.24-3.24,0,0,0,81,false,stim,false,-1,635.0,1,0,1,53495,task2,187675,false,true,166,image-keyboard-response,25
true,1,2,0,2,true,d,false,true,0.0-2.0-0.2-0.25-3.25,0,0,0,68,false,stim,false,-1,740.4000000000233,1,0,0,53495,task2,189927,false,false,169,image-keyboard-response,26
true,2,2,1,1,false,z,false,false,0.0-2.0-0.2-0.26-3.26,0,0,0,68,true,stim,true,2,923.7000000000116,1,0,0,53495,task2,192376,false,false,172,image-keyboard-response,1
true,2,0,1,1,false,z,true,false,0.0-2.0-0.3-0.27-3.27,0,0,0,81,false,stim,false,2,1079.8000000000466,1,0,0,53495,task2,194970,false,false,175,image-keyboard-response,2
true,2,1,1,0,false,q,false,true,0.0-2.0-0.3-0.28-3.28,0,0,0,90,false,stim,true,1,1811.1999999999534,1,0,2,53495,task2,198307,false,true,178,image-keyboard-response,3
true,2,1,1,2,false,d,true,true,0.0-2.0-0.3-0.29-3.29,0,0,0,90,false,stim,false,0,1438.2999999999884,1,0,1,53495,task2,201263,false,true,181,image-keyboard-response,4
true,2,1,1,2,false,d,true,false,0.0-2.0-0.3-0.30-3.30,0,0,0,90,false,stim,false,0,560.0,1,0,1,53495,task2,203338,false,false,184,image-keyboard-response,5
true,2,0,1,1,false,z,true,false,0.0-2.0-0.3-0.31-3.31,0,0,0,81,false,stim,false,2,845.5999999999767,1,0,0,53495,task2,205701,false,false,187,image-keyboard-response,6
true,2,0,1,2,false,d,false,false,0.0-2.0-0.3-0.32-3.32,0,0,0,81,false,stim,true,0,967.7999999999884,1,0,1,53495,task2,208201,false,false,190,image-keyboard-response,7
true,2,1,1,1,true,z,false,true,0.0-2.0-0.3-0.33-3.33,0,0,0,90,false,stim,false,2,1438.7999999999884,1,0,0,53495,task2,211159,false,false,193,image-keyboard-response,8
true,2,1,1,0,false,q,false,false,0.0-2.0-0.3-0.34-3.34,0,0,0,90,false,stim,true,1,572.7000000000116,1,0,2,53495,task2,213261,false,false,196,image-keyboard-response,9
true,2,2,1,0,false,q,true,false,0.0-2.0-0.3-0.35-3.35,0,0,0,68,false,stim,false,1,872.7999999999884,1,0,2,53495,task2,215657,false,false,199,image-keyboard-response,10
true,2,0,1,0,true,q,false,true,0.0-2.0-0.4-0.36-3.36,0,0,0,81,false,stim,false,1,739.2000000000116,1,0,2,53495,task2,217920,false,false,202,image-keyboard-response,11
true,2,1,1,2,false,d,true,false,0.0-2.0-0.4-0.37-3.37,0,0,0,90,false,stim,false,0,1942.9000000000233,1,0,1,53495,task2,221379,false,false,205,image-keyboard-response,12
true,2,0,1,0,true,q,false,true,0.0-2.0-0.4-0.38-3.38,0,0,0,81,false,stim,false,1,931.0999999999767,1,0,2,53495,task2,223831,false,false,208,image-keyboard-response,13
true,2,2,1,1,false,z,false,false,0.0-2.0-0.4-0.39-3.39,0,0,0,68,false,stim,true,2,824.0,1,0,0,53495,task2,226171,false,false,211,image-keyboard-response,14
true,2,0,1,2,false,d,false,false,0.0-2.0-0.4-0.40-3.40,0,0,0,81,false,stim,true,0,1140.5,1,0,1,53495,task2,228833,false,false,214,image-keyboard-response,15
true,2,0,1,0,true,q,false,true,0.0-2.0-0.4-0.41-3.41,0,0,0,81,false,stim,false,1,727.7000000000116,1,0,2,53495,task2,231074,false,false,217,image-keyboard-response,16
true,2,0,1,1,false,z,true,false,0.0-2.0-0.4-0.42-3.42,0,0,0,81,false,stim,false,2,965.7999999999884,1,0,0,53495,task2,233557,false,false,220,image-keyboard-response,17
true,2,1,1,2,false,d,true,false,0.0-2.0-0.4-0.43-3.43,0,0,0,90,false,stim,false,0,1501.9000000000233,1,0,1,53495,task2,236568,false,false,223,image-keyboard-response,18
true,2,2,1,1,false,z,false,false,0.0-2.0-0.4-0.44-3.44,0,0,0,68,false,stim,true,2,1055.5999999999767,1,0,0,53495,task2,239126,false,false,226,image-keyboard-response,19
true,2,2,1,2,true,d,false,true,0.0-2.0-0.5-0.45-3.45,0,0,0,68,false,stim,false,0,622.5999999999767,1,0,1,53495,task2,241269,false,false,229,image-keyboard-response,20
true,2,2,1,1,false,z,false,false,0.0-2.0-0.5-0.46-3.46,0,0,0,68,false,stim,true,2,1014.8999999999651,1,0,0,53495,task2,243817,false,false,232,image-keyboard-response,21
true,2,0,1,1,false,z,true,false,0.0-2.0-0.5-0.47-3.47,0,0,0,81,false,stim,false,2,1029.9000000000233,1,0,0,53495,task2,246360,false,false,235,image-keyboard-response,22
true,2,0,1,0,true,q,false,true,0.0-2.0-0.5-0.48-3.48,0,0,0,81,false,stim,false,1,870.3999999999651,1,0,2,53495,task2,248746,false,false,238,image-keyboard-response,23
true,2,1,1,1,true,z,false,false,0.0-2.0-0.5-0.49-3.49,0,0,0,90,false,stim,false,2,1977.7999999999884,1,0,0,53495,task2,252247,false,true,241,image-keyboard-response,24
true,2,2,1,2,true,d,false,true,0.0-2.0-0.5-0.50-3.50,0,0,0,68,false,stim,false,0,915.7000000000116,1,0,1,53495,task2,254697,false,false,244,image-keyboard-response,25
true,2,0,1,0,true,q,false,true,0.0-2.0-0.5-0.51-3.51,0,0,0,81,false,stim,false,1,756.2999999999884,1,0,2,53495,task2,256964,false,false,247,image-keyboard-response,26
true,2,2,1,2,true,d,false,true,0.0-2.0-0.5-0.52-3.52,0,0,0,68,false,stim,false,0,620.2000000000116,1,0,1,53495,task2,259101,false,false,250,image-keyboard-response,27
true,2,0,1,0,true,q,false,true,0.0-2.0-0.5-0.53-3.53,0,0,0,81,false,stim,false,1,873.0999999999767,1,0,2,53495,task2,261503,false,false,253,image-keyboard-response,28
true,2,2,1,1,false,z,false,false,0.0-2.0-0.6-0.54-3.54,0,0,0,68,false,stim,true,2,913.2000000000116,1,0,0,53495,task2,263941,false,false,256,image-keyboard-response,29
true,2,0,1,0,true,q,false,true,0.0-2.0-0.6-0.55-3.55,0,0,0,81,false,stim,false,1,1463.0999999999767,1,0,2,53495,task2,266932,false,false,259,image-keyboard-response,30
true,2,0,1,0,true,q,false,true,0.0-2.0-0.6-0.56-3.56,0,0,0,81,false,stim,false,1,1034.399999999965,1,0,2,53495,task2,269500,false,false,262,image-keyboard-response,31
true,2,2,1,2,true,d,false,false,0.0-2.0-0.6-0.57-3.57,0,0,0,68,false,stim,false,0,725.9000000000233,1,0,1,53495,task2,271740,false,true,265,image-keyboard-response,32
true,2,0,1,1,false,z,true,false,0.0-2.0-0.6-0.58-3.58,0,0,0,81,false,stim,false,2,1051.0,1,1,0,53495,task2,274308,false,false,268,image-keyboard-response,33
true,2,1,1,2,false,d,true,false,0.0-2.0-0.6-0.59-3.59,0,0,0,90,false,stim,false,0,800.3999999999069,1,0,1,53495,task2,276631,false,false,271,image-keyboard-response,34
true,2,0,1,0,true,q,false,true,0.0-2.0-0.6-0.60-3.60,0,0,0,81,false,stim,false,1,916.8000000000466,1,0,2,53495,task2,279069,false,false,274,image-keyboard-response,35
true,2,0,1,1,false,z,true,false,0.0-2.0-0.6-0.61-3.61,0,0,0,81,false,stim,false,2,1139.8000000000466,1,1,0,53495,task2,281735,false,false,277,image-keyboard-response,36
true,3,1,2,0,false,q,true,true,0.0-2.0-0.6-0.62-3.62,1,0,0,90,true,stim,false,2,2005.5,1,0,1,53495,task2,285261,false,true,280,image-keyboard-response,1
true,3,1,2,0,false,q,true,false,0.0-2.0-0.7-0.63-3.63,1,0,0,90,false,stim,false,2,573.0999999999767,1,0,1,53495,task2,287358,false,false,283,image-keyboard-response,2
true,3,0,2,1,false,z,false,false,0.0-2.0-0.7-0.64-3.64,1,0,0,81,false,stim,true,0,774.5999999999767,1,0,2,53495,task2,289653,false,false,286,image-keyboard-response,3
true,3,2,2,1,false,z,true,false,0.0-2.0-0.7-0.65-3.65,1,0,0,68,false,stim,false,0,751.8000000000466,1,0,2,53495,task2,291929,false,false,289,image-keyboard-response,4
true,3,1,2,0,false,q,true,true,0.0-2.0-0.7-0.66-3.66,1,0,0,90,false,stim,false,2,769.1999999999534,1,0,1,53495,task2,294227,false,true,292,image-keyboard-response,5
true,3,2,2,1,false,z,true,false,0.0-2.0-0.7-0.67-3.67,1,0,0,68,false,stim,false,1,1256.0,1,1,0,53495,task2,297002,false,false,295,image-keyboard-response,6
true,3,1,2,0,false,q,true,false,0.0-2.0-0.7-0.68-3.68,1,0,0,90,false,stim,false,2,699.5999999999767,1,0,1,53495,task2,299204,false,false,298,image-keyboard-response,7
true,3,0,2,1,false,z,true,true,0.0-2.0-0.7-0.69-3.69,1,0,0,81,false,stim,false,1,947.7999999999302,1,1,0,53495,task2,301678,false,true,301,image-keyboard-response,8
true,3,0,2,1,false,z,true,false,0.0-2.0-0.7-0.70-3.70,1,0,0,81,false,stim,false,1,464.9000000000233,1,1,0,53495,task2,303671,false,false,304,image-keyboard-response,9
true,3,1,2,1,true,z,false,true,0.0-2.0-0.7-0.71-3.71,1,0,0,90,false,stim,false,0,880.4000000000233,1,0,2,53495,task2,306059,false,false,307,image-keyboard-response,10
true,3,0,2,1,false,z,true,false,0.0-2.0-0.8-0.72-3.72,1,0,0,81,false,stim,false,1,1345.1999999999534,1,1,0,53495,task2,308914,false,false,310,image-keyboard-response,11
true,3,1,2,1,true,z,false,true,0.0-2.0-0.8-0.73-3.73,1,0,0,90,false,stim,false,0,872.9000000000233,1,0,2,53495,task2,311307,false,false,313,image-keyboard-response,12
true,3,1,2,1,true,z,false,true,0.0-2.0-0.8-0.74-3.74,1,0,0,90,false,stim,false,1,426.9000000000233,1,1,0,53495,task2,313261,false,false,316,image-keyboard-response,13
true,3,2,2,0,false,q,false,false,0.0-2.0-0.8-0.75-3.75,1,0,0,68,false,stim,true,2,1402.5999999999767,1,0,1,53495,task2,316194,false,false,319,image-keyboard-response,14
true,3,1,2,1,true,z,false,true,0.0-2.0-0.8-0.76-3.76,1,0,0,90,false,stim,false,1,763.2000000000698,1,1,0,53495,task2,318465,false,false,322,image-keyboard-response,15
true,3,1,2,0,false,q,true,false,0.0-2.0-0.8-0.77-3.77,1,0,0,90,false,stim,false,2,823.0,1,0,1,53495,task2,320808,false,false,325,image-keyboard-response,16
true,3,1,2,1,true,z,false,true,0.0-2.0-0.8-0.78-3.78,1,0,0,90,false,stim,false,0,994.3000000000466,1,0,2,53495,task2,323330,false,false,328,image-keyboard-response,17
true,3,1,2,1,true,z,false,false,0.0-2.0-0.8-0.79-3.79,1,0,0,90,false,stim,false,0,471.5,1,0,2,53495,task2,325334,false,true,331,image-keyboard-response,18
true,3,0,2,0,true,q,false,true,0.0-2.0-0.8-0.80-3.80,1,0,0,81,false,stim,false,2,778.2000000000698,1,0,1,53495,task2,327633,false,false,334,image-keyboard-response,19
true,3,1,2,1,true,z,false,true,0.0-2.0-0.9-0.81-3.81,1,0,0,90,false,stim,false,1,530.2999999999302,1,1,0,53495,task2,329695,false,false,337,image-keyboard-response,20
true,3,0,2,1,false,z,false,false,0.0-2.0-0.9-0.82-3.82,1,0,0,81,false,stim,true,0,1051.5999999999767,1,0,2,53495,task2,332266,false,false,340,image-keyboard-response,21
true,3,2,2,1,false,z,true,false,0.0-2.0-0.9-0.83-3.83,1,0,0,68,false,stim,false,0,523.6999999999534,1,0,2,53495,task2,334309,false,false,343,image-keyboard-response,22
true,3,1,2,0,false,q,true,false,0.0-2.0-0.9-0.84-3.84,1,0,0,90,false,stim,false,2,1615.8999999999069,1,0,1,53495,task2,337443,false,false,346,image-keyboard-response,23
true,3,0,2,1,false,z,true,false,0.0-2.0-0.9-0.85-3.85,1,0,0,81,false,stim,false,1,1276.8000000000466,1,1,0,53495,task2,340232,false,false,349,image-keyboard-response,24
true,3,0,2,1,false,z,false,false,0.0-2.0-0.9-0.86-3.86,1,0,0,81,false,stim,true,0,1162.6999999999534,1,0,2,53495,task2,342911,false,false,352,image-keyboard-response,25
true,3,1,2,0,false,q,true,false,0.0-2.0-0.9-0.87-3.87,1,0,0,90,false,stim,false,2,676.0999999999767,1,0,1,53495,task2,345112,false,false,355,image-keyboard-response,26
true,3,0,2,0,true,q,false,true,0.0-2.0-0.9-0.88-3.88,1,0,0,81,false,stim,false,2,941.5999999999767,1,0,1,53495,task2,347570,false,false,358,image-keyboard-response,27
true,3,0,2,1,false,z,true,false,0.0-2.0-0.9-0.89-3.89,1,0,0,81,false,stim,false,1,916.3000000000466,1,1,0,53495,task2,350010,false,false,361,image-keyboard-response,28
true,3,1,2,1,true,z,false,true,0.0-2.0-0.10-0.90-3.90,1,0,0,90,false,stim,false,1,1068.8999999999069,1,1,0,53495,task2,352594,false,false,364,image-keyboard-response,29
true,3,1,2,1,true,z,false,true,0.0-2.0-0.10-0.91-3.91,1,0,0,90,false,stim,false,1,656.9000000000233,1,1,0,53495,task2,354758,false,false,367,image-keyboard-response,30
true,3,1,2,1,true,z,false,true,0.0-2.0-0.10-0.92-3.92,1,0,0,90,false,stim,false,1,503.0,1,0,0,53495,task2,356793,false,false,370,image-keyboard-response,31
true,3,0,2,0,true,q,false,true,0.0-2.0-0.10-0.93-3.93,1,0,0,81,false,stim,false,2,990.0,1,0,1,53495,task2,359306,false,false,373,image-keyboard-response,32
true,3,0,2,0,true,q,false,true,0.0-2.0-0.10-0.94-3.94,1,0,0,81,false,stim,false,2,690.0999999999767,1,0,1,53495,task2,361526,false,false,376,image-keyboard-response,33
true,3,0,2,0,true,q,false,true,0.0-2.0-0.10-0.95-3.95,1,0,0,81,false,stim,false,2,979.8000000000466,1,0,1,53495,task2,364038,false,false,379,image-keyboard-response,34
true,3,1,2,1,true,z,false,true,0.0-2.0-0.10-0.96-3.96,1,0,0,90,false,stim,false,0,1374.8000000000466,1,0,2,53495,task2,366923,false,false,382,image-keyboard-response,35
true,4,1,1,0,false,q,false,false,0.0-2.0-0.10-0.97-3.97,0,0,0,90,true,stim,true,1,514.0,1,0,2,53495,task2,368963,false,false,385,image-keyboard-response,1
true,4,2,1,0,false,q,true,false,0.0-2.0-0.10-0.98-3.98,0,0,0,68,false,stim,false,1,954.5999999999767,1,0,2,53495,task2,371431,false,false,388,image-keyboard-response,2
true,4,0,1,0,true,q,false,true,0.0-2.0-0.11-0.99-3.99,0,0,0,81,false,stim,false,1,692.7000000000698,1,0,2,53495,task2,373649,false,false,391,image-keyboard-response,3
true,4,0,1,0,true,q,false,true,0.0-2.0-0.11-0.100-3.100,0,0,0,81,false,stim,false,1,600.0,1,0,2,53495,task2,375766,false,false,394,image-keyboard-response,4
true,4,0,1,1,false,z,false,false,0.0-2.0-0.11-0.101-3.101,0,0,0,81,false,stim,true,0,413.69999999995343,1,0,1,53495,task2,377695,false,false,397,image-keyboard-response,5
true,4,1,1,2,false,d,false,false,0.0-2.0-0.11-0.102-3.102,0,0,0,90,false,stim,true,1,877.9000000000233,1,0,0,53495,task2,380105,false,false,400,image-keyboard-response,6
true,4,0,1,0,true,q,false,true,0.0-2.0-0.11-0.103-3.103,0,0,0,81,false,stim,false,1,1066.4000000000233,1,0,2,53495,task2,382701,false,false,403,image-keyboard-response,7
true,4,0,1,1,false,z,false,false,0.0-2.0-0.11-0.104-3.104,0,0,0,81,false,stim,true,0,666.3000000000466,1,0,1,53495,task2,384880,false,false,406,image-keyboard-response,8
true,4,0,1,2,false,d,true,false,0.0-2.0-0.11-0.105-3.105,0,0,0,81,false,stim,false,1,1204.0999999999767,1,0,0,53495,task2,387610,false,false,409,image-keyboard-response,9
true,4,2,1,1,false,z,true,false,0.0-2.0-0.11-0.106-3.106,0,0,0,68,false,stim,false,0,598.4000000000233,1,0,1,53495,task2,389732,false,false,412,image-keyboard-response,10
true,4,1,1,2,false,d,false,false,0.0-2.0-0.11-0.107-3.107,0,0,0,90,false,stim,true,1,1255.6999999999534,1,0,0,53495,task2,392507,false,false,415,image-keyboard-response,11
true,4,2,1,2,true,d,false,false,0.0-2.0-0.12-0.108-3.108,0,0,0,68,false,stim,false,1,743.0,1,0,0,53495,task2,394772,false,true,418,image-keyboard-response,12
true,4,1,1,1,true,z,false,true,0.0-2.0-0.12-0.109-3.109,0,0,0,90,false,stim,false,0,1232.5,1,0,1,53495,task2,397520,false,false,421,image-keyboard-response,13
true,4,1,1,1,true,z,false,true,0.0-2.0-0.12-0.110-3.110,0,0,0,90,false,stim,false,0,425.30000000004657,1,0,1,53495,task2,399466,false,false,424,image-keyboard-response,14
true,4,0,1,0,true,q,false,true,0.0-2.0-0.12-0.111-3.111,0,0,0,81,false,stim,false,1,590.1000000000931,1,0,2,53495,task2,401565,false,false,427,image-keyboard-response,15
true,4,1,1,2,false,d,false,false,0.0-2.0-0.12-0.112-3.112,0,0,0,90,false,stim,true,1,1290.9000000000233,1,0,0,53495,task2,404372,false,false,430,image-keyboard-response,16
true,4,0,1,0,true,q,false,true,0.0-2.0-0.12-0.113-3.113,0,0,0,81,false,stim,false,1,779.0999999999767,1,0,2,53495,task2,406666,false,false,433,image-keyboard-response,17
true,4,0,1,1,false,z,false,false,0.0-2.0-0.12-0.114-3.114,0,0,0,81,false,stim,true,0,574.0,1,0,1,53495,task2,408770,false,false,436,image-keyboard-response,18
true,4,0,1,0,true,q,false,false,0.0-2.0-0.12-0.115-3.115,0,0,0,81,false,stim,false,1,642.0999999999767,1,0,2,53495,task2,410938,false,true,439,image-keyboard-response,19
true,4,1,1,2,false,d,false,false,0.0-2.0-0.12-0.116-3.116,0,0,0,90,false,stim,true,1,659.0,1,0,0,53495,task2,413124,false,false,442,image-keyboard-response,20
true,4,1,1,0,false,q,false,false,0.0-2.0-0.13-0.117-3.117,0,0,0,90,false,stim,true,1,980.7999999999302,1,0,2,53495,task2,415625,false,false,445,image-keyboard-response,21
true,4,2,1,0,false,q,true,false,0.0-2.0-0.13-0.118-3.118,0,0,0,68,false,stim,false,1,574.3000000000466,1,0,2,53495,task2,417721,false,false,448,image-keyboard-response,22
true,4,0,1,2,false,d,true,false,0.0-2.0-0.13-0.119-3.119,0,0,0,81,false,stim,false,1,1367.3999999999069,1,0,0,53495,task2,420609,false,false,451,image-keyboard-response,23
true,4,0,1,1,false,z,false,false,0.0-2.0-0.13-0.120-3.120,0,0,0,81,false,stim,true,0,731.9000000000233,1,0,1,53495,task2,422854,false,false,454,image-keyboard-response,24
true,4,1,1,1,true,z,false,true,0.0-2.0-0.13-0.121-3.121,0,0,0,90,false,stim,false,0,617.8000000000466,1,0,1,53495,task2,424993,false,false,457,image-keyboard-response,25
true,4,1,1,2,false,d,false,false,0.0-2.0-0.13-0.122-3.122,0,0,0,90,false,stim,true,1,713.0,1,0,0,53495,task2,427235,false,false,460,image-keyboard-response,26
true,4,1,1,1,true,z,false,true,0.0-2.0-0.13-0.123-3.123,0,0,0,90,false,stim,false,0,432.0,1,0,1,53495,task2,429188,false,false,463,image-keyboard-response,27
true,4,2,1,2,true,d,false,true,0.0-2.0-0.13-0.124-3.124,0,0,0,68,false,stim,false,1,1107.4000000000233,1,0,0,53495,task2,431821,false,false,466,image-keyboard-response,28
true,4,2,1,0,false,q,true,false,0.0-2.0-0.13-0.125-3.125,0,0,0,68,false,stim,false,1,978.4000000000233,1,0,2,53495,task2,434319,false,false,469,image-keyboard-response,29
true,4,2,1,2,true,d,false,true,0.0-2.0-0.14-0.126-3.126,0,0,0,68,false,stim,false,1,640.2999999999302,1,0,0,53495,task2,436480,false,false,472,image-keyboard-response,30
true,4,1,1,1,true,z,false,true,0.0-2.0-0.14-0.127-3.127,0,0,0,90,false,stim,false,0,785.7000000000698,1,0,1,53495,task2,438798,false,false,475,image-keyboard-response,31
true,4,1,1,1,true,z,false,true,0.0-2.0-0.14-0.128-3.128,0,0,0,90,false,stim,false,0,566.7000000000698,1,0,1,53495,task2,440894,false,false,478,image-keyboard-response,32
true,4,0,1,0,true,q,false,true,0.0-2.0-0.14-0.129-3.129,0,0,0,81,false,stim,false,1,1396.6000000000931,1,0,2,53495,task2,443814,false,false,481,image-keyboard-response,33
true,4,0,1,0,true,q,false,true,0.0-2.0-0.14-0.130-3.130,0,0,0,81,false,stim,false,1,541.5999999999767,1,0,2,53495,task2,445878,false,false,484,image-keyboard-response,34
true,4,1,1,1,true,z,false,true,0.0-2.0-0.14-0.131-3.131,0,0,0,90,false,stim,false,0,1047.4000000000233,1,0,1,53495,task2,448438,false,false,487,image-keyboard-response,35
true,5,0,1,2,false,d,false,false,0.0-2.0-0.14-0.132-3.132,0,0,0,81,true,stim,true,0,863.7000000000698,1,0,2,53495,task2,450836,false,false,490,image-keyboard-response,1
true,5,2,1,1,false,z,false,true,0.0-2.0-0.14-0.133-3.133,0,0,0,68,false,stim,true,2,634.1000000000931,1,0,0,53495,task2,452991,false,true,493,image-keyboard-response,2
true,5,2,1,1,false,z,false,false,0.0-2.0-0.14-0.134-3.134,0,0,0,68,false,stim,true,2,561.7999999999302,1,0,0,53495,task2,455067,false,false,496,image-keyboard-response,3
true,5,1,1,2,false,d,true,true,0.0-2.0-0.15-0.135-3.135,0,0,0,90,false,stim,false,0,868.3000000000466,1,0,2,53495,task2,457456,false,true,499,image-keyboard-response,4
true,5,0,1,0,true,q,false,false,0.0-2.0-0.15-0.136-3.136,0,0,0,81,false,stim,false,1,790.5,1,0,1,53495,task2,459772,false,true,502,image-keyboard-response,5
true,5,1,1,2,false,d,true,false,0.0-2.0-0.15-0.137-3.137,0,0,0,90,false,stim,false,0,809.4000000000233,1,0,2,53495,task2,462091,false,false,505,image-keyboard-response,6
true,5,2,1,0,false,q,true,false,0.0-2.0-0.15-0.138-3.138,0,0,0,68,false,stim,false,1,1554.6000000000931,1,0,1,53495,task2,465165,false,false,508,image-keyboard-response,7
true,5,0,1,1,false,z,true,false,0.0-2.0-0.15-0.139-3.139,0,0,0,81,false,stim,false,2,862.0,1,0,0,53495,task2,467554,false,false,511,image-keyboard-response,8
true,5,1,1,1,true,z,false,true,0.0-2.0-0.15-0.140-3.140,0,0,0,90,false,stim,false,2,778.4000000000233,1,0,0,53495,task2,469848,false,false,514,image-keyboard-response,9
true,5,1,1,0,false,q,false,false,0.0-2.0-0.15-0.141-3.141,0,0,0,90,false,stim,true,1,862.3000000000466,1,0,1,53495,task2,472235,false,false,517,image-keyboard-response,10
true,5,0,1,2,false,d,false,false,0.0-2.0-0.15-0.142-3.142,0,0,0,81,false,stim,true,0,1329.4000000000233,1,0,2,53495,task2,475089,false,false,520,image-keyboard-response,11
true,5,1,1,1,true,z,false,true,0.0-2.0-0.15-0.143-3.143,0,0,0,90,false,stim,false,2,721.6999999999534,1,0,0,53495,task2,477330,false,false,523,image-keyboard-response,12
true,5,2,1,0,false,q,true,false,0.0-2.0-0.16-0.144-3.144,0,0,0,68,false,stim,false,1,744.4000000000233,1,0,1,53495,task2,479593,false,false,526,image-keyboard-response,13
true,5,1,1,1,true,z,false,true,0.0-2.0-0.16-0.145-3.145,0,0,0,90,false,stim,false,2,1333.6000000000931,1,0,0,53495,task2,482440,false,false,529,image-keyboard-response,14
true,5,1,1,2,false,d,true,false,0.0-2.0-0.16-0.146-3.146,0,0,0,90,false,stim,false,0,1261.0,1,0,2,53495,task2,485226,false,false,532,image-keyboard-response,15
true,5,0,1,1,false,z,true,false,0.0-2.0-0.16-0.147-3.147,0,0,0,81,false,stim,false,2,768.5999999999767,1,0,0,53495,task2,487516,false,false,535,image-keyboard-response,16
true,5,1,1,0,false,q,false,false,0.0-2.0-0.16-0.148-3.148,0,0,0,90,false,stim,true,1,869.1999999999534,1,0,1,53495,task2,489917,false,false,538,image-keyboard-response,17
true,5,2,1,0,false,q,true,true,0.0-2.0-0.16-0.149-3.149,0,0,0,68,false,stim,false,1,433.9000000000233,1,0,1,53495,task2,491882,false,true,541,image-keyboard-response,18
true,5,2,1,1,false,z,false,false,0.0-2.0-0.16-0.150-3.150,0,0,0,68,false,stim,true,2,1017.0,1,0,0,53495,task2,494415,false,false,544,image-keyboard-response,19
true,5,2,1,2,true,d,false,true,0.0-2.0-0.16-0.151-3.151,0,0,0,68,false,stim,false,0,986.3000000000466,1,0,2,53495,task2,496933,false,false,547,image-keyboard-response,20
true,5,2,1,2,true,d,false,true,0.0-2.0-0.16-0.152-3.152,0,0,0,68,false,stim,false,0,1033.0999999999767,1,0,2,53495,task2,499493,false,false,550,image-keyboard-response,21
true,5,2,1,1,false,z,false,false,0.0-2.0-0.17-0.153-3.153,0,0,0,68,false,stim,true,2,1203.0999999999767,1,0,0,53495,task2,502231,false,false,553,image-keyboard-response,22
true,5,1,1,1,true,z,false,true,0.0-2.0-0.17-0.154-3.154,0,0,0,90,false,stim,false,2,847.7000000000698,1,0,0,53495,task2,504596,false,false,556,image-keyboard-response,23
true,5,2,1,0,false,q,true,false,0.0-2.0-0.17-0.155-3.155,0,0,0,68,false,stim,false,1,756.5,1,0,1,53495,task2,506884,false,false,559,image-keyboard-response,24
true,5,2,1,2,true,d,false,true,0.0-2.0-0.17-0.156-3.156,0,0,0,68,false,stim,false,0,784.5999999999767,1,0,2,53495,task2,509189,false,false,562,image-keyboard-response,25
true,5,2,1,2,true,d,false,true,0.0-2.0-0.17-0.157-3.157,0,0,0,68,false,stim,false,0,663.0999999999767,1,0,2,53495,task2,511371,false,false,565,image-keyboard-response,26
true,5,0,1,0,true,q,false,true,0.0-2.0-0.17-0.158-3.158,0,0,0,81,false,stim,false,1,812.3000000000466,1,0,1,53495,task2,513701,false,false,568,image-keyboard-response,27
true,5,0,1,0,true,q,false,true,0.0-2.0-0.17-0.159-3.159,0,0,0,81,false,stim,false,1,499.89999999990687,1,0,1,53495,task2,515718,false,false,571,image-keyboard-response,28
true,5,1,1,1,true,z,false,true,0.0-2.0-0.17-0.160-3.160,0,0,0,90,false,stim,false,2,967.7999999999302,1,0,0,53495,task2,518216,false,false,574,image-keyboard-response,29
true,5,2,1,2,true,d,false,true,0.0-2.0-0.17-0.161-3.161,0,0,0,68,false,stim,false,0,717.7999999999302,1,0,2,53495,task2,520456,false,false,577,image-keyboard-response,30
true,5,1,1,1,true,z,false,true,0.0-2.0-0.18-0.162-3.162,0,0,0,90,false,stim,false,2,934.2999999999884,1,0,0,53495,task2,522911,false,false,580,image-keyboard-response,31
true,5,2,1,2,true,d,false,true,0.0-2.0-0.18-0.163-3.163,0,0,0,68,false,stim,false,0,531.3999999999069,1,0,2,53495,task2,524963,false,false,583,image-keyboard-response,32
true,5,2,1,2,true,d,false,true,0.0-2.0-0.18-0.164-3.164,0,0,0,68,false,stim,false,0,665.3000000000466,1,0,2,53495,task2,527142,false,false,586,image-keyboard-response,33
true,5,0,1,0,true,q,false,true,0.0-2.0-0.18-0.165-3.165,0,0,0,81,false,stim,false,1,807.8000000000466,1,0,1,53495,task2,529461,false,false,589,image-keyboard-response,34
true,5,2,1,2,true,d,false,true,0.0-2.0-0.18-0.166-3.166,0,0,0,68,false,stim,false,0,657.0,1,0,2,53495,task2,531644,false,false,592,image-keyboard-response,35
true,5,0,1,0,true,q,false,false,0.0-2.0-0.18-0.167-3.167,0,0,0,81,false,stim,false,1,1364.3000000000466,1,0,1,53495,task2,534521,false,true,595,image-keyboard-response,36
true,5,0,1,1,false,z,true,false,0.0-2.0-0.18-0.168-3.168,0,0,0,81,false,stim,false,2,2007.0999999998603,1,0,0,53495,task2,538061,false,false,598,image-keyboard-response,37
true,5,1,1,1,true,z,false,true,0.0-2.0-0.18-0.169-3.169,0,0,0,90,false,stim,false,2,504.0,1,0,0,53495,task2,540097,false,false,601,image-keyboard-response,38
true,6,2,1,2,true,d,false,true,0.0-2.0-0.18-0.170-3.170,0,0,0,68,true,stim,false,0,1359.2999999998137,1,0,1,53495,task2,542984,false,false,604,image-keyboard-response,1
true,6,2,1,2,true,d,false,true,0.0-2.0-0.19-0.171-3.171,0,0,0,68,false,stim,false,0,560.0,1,0,1,53495,task2,545081,false,false,607,image-keyboard-response,2
true,6,2,1,0,false,q,false,false,0.0-2.0-0.19-0.172-3.172,0,0,0,68,false,stim,true,2,555.2000000001863,1,0,2,53495,task2,547159,false,false,610,image-keyboard-response,3
true,6,0,1,0,true,q,false,true,0.0-2.0-0.19-0.173-3.173,0,0,0,81,false,stim,false,2,400.5,1,0,2,53495,task2,549078,false,false,613,image-keyboard-response,4
true,6,1,1,2,false,d,false,false,0.0-2.0-0.19-0.174-3.174,0,0,0,90,false,stim,true,1,1245.6000000000931,1,0,0,53495,task2,551838,false,false,616,image-keyboard-response,5
true,6,0,1,2,false,d,true,true,0.0-2.0-0.19-0.175-3.175,0,0,0,81,false,stim,false,1,958.4000000001397,1,0,0,53495,task2,554310,false,true,619,image-keyboard-response,6
true,6,0,1,0,true,q,false,true,0.0-2.0-0.19-0.176-3.176,0,0,0,81,false,stim,false,2,634.3000000000466,1,0,2,53495,task2,556469,false,false,622,image-keyboard-response,7
true,6,0,1,2,false,d,true,false,0.0-2.0-0.19-0.177-3.177,0,0,0,81,false,stim,false,1,1759.3999999999069,1,0,0,53495,task2,559773,false,false,625,image-keyboard-response,8
true,6,2,1,2,true,d,false,true,0.0-2.0-0.19-0.178-3.178,0,0,0,68,false,stim,false,0,1089.1000000000931,1,0,1,53495,task2,562384,false,false,628,image-keyboard-response,9
true,6,2,1,2,true,d,false,true,0.0-2.0-0.19-0.179-3.179,0,0,0,68,false,stim,false,0,496.69999999995343,1,0,1,53495,task2,564405,false,false,631,image-keyboard-response,10
true,6,0,1,0,true,q,false,true,0.0-2.0-0.20-0.180-3.180,0,0,0,81,false,stim,false,2,724.0999999998603,1,0,2,53495,task2,566661,false,false,634,image-keyboard-response,11
true,6,1,1,2,false,d,false,false,0.0-2.0-0.20-0.181-3.181,0,0,0,90,false,stim,true,1,540.1999999999534,1,0,0,53495,task2,568721,false,false,637,image-keyboard-response,12
true,6,2,1,2,true,d,false,true,0.0-2.0-0.20-0.182-3.182,0,0,0,68,false,stim,false,0,1057.1000000000931,1,0,1,53495,task2,571299,false,false,640,image-keyboard-response,13
true,6,2,1,2,true,d,false,true,0.0-2.0-0.20-0.183-3.183,0,0,0,68,false,stim,false,0,981.0,1,0,1,53495,task2,573795,false,false,643,image-keyboard-response,14
true,6,0,1,0,true,q,false,true,0.0-2.0-0.20-0.184-3.184,0,0,0,81,false,stim,false,2,858.9000000001397,1,0,2,53495,task2,576181,false,false,646,image-keyboard-response,15
true,6,2,1,2,true,d,false,true,0.0-2.0-0.20-0.185-3.185,0,0,0,68,false,stim,false,0,1219.9000000001397,1,0,1,53495,task2,578918,false,false,649,image-keyboard-response,16
true,6,2,1,2,true,d,false,true,0.0-2.0-0.20-0.186-3.186,0,0,0,68,false,stim,false,1,554.4000000001397,1,0,0,53495,task2,580993,false,false,652,image-keyboard-response,17
true,6,0,1,0,true,q,false,true,0.0-2.0-0.20-0.187-3.187,0,0,0,81,false,stim,false,2,672.1999999999534,1,0,2,53495,task2,583197,false,false,655,image-keyboard-response,18
true,6,2,1,2,true,d,false,true,0.0-2.0-0.20-0.188-3.188,0,0,0,68,false,stim,false,1,658.6000000000931,1,0,0,53495,task2,585380,false,false,658,image-keyboard-response,19
true,6,0,1,2,false,d,false,false,0.0-2.0-0.21-0.189-3.189,0,0,0,81,false,stim,true,0,935.8999999999069,1,0,1,53495,task2,587840,false,false,661,image-keyboard-response,20
true,6,0,1,0,true,q,false,true,0.0-2.0-0.21-0.190-3.190,0,0,0,81,false,stim,false,2,1293.8000000000466,1,0,2,53495,task2,590656,false,false,664,image-keyboard-response,21
true,6,0,1,0,true,q,false,true,0.0-2.0-0.21-0.191-3.191,0,0,0,81,false,stim,false,2,616.8000000000466,1,0,2,53495,task2,592787,false,false,667,image-keyboard-response,22
true,6,0,1,0,true,q,false,false,0.0-2.0-0.21-0.192-3.192,0,0,0,81,false,stim,false,2,602.6000000000931,1,0,2,53495,task2,594915,false,true,670,image-keyboard-response,23
true,6,2,1,2,true,d,false,true,0.0-2.0-0.21-0.193-3.193,0,0,0,68,false,stim,false,1,946.8999999999069,1,0,0,53495,task2,597374,false,false,673,image-keyboard-response,24
true,6,2,1,2,true,d,false,true,0.0-2.0-0.21-0.194-3.194,0,0,0,68,false,stim,false,0,709.6999999999534,1,0,1,53495,task2,599608,false,false,676,image-keyboard-response,25
true,6,2,1,2,true,d,false,true,0.0-2.0-0.21-0.195-3.195,0,0,0,68,false,stim,false,1,977.2999999998137,1,0,0,53495,task2,602104,false,false,679,image-keyboard-response,26
true,6,2,1,2,true,d,false,false,0.0-2.0-0.21-0.196-3.196,0,0,0,68,false,stim,false,0,557.1000000000931,1,0,1,53495,task2,604178,false,true,682,image-keyboard-response,27
true,6,2,1,2,true,d,false,true,0.0-2.0-0.21-0.197-3.197,0,0,0,68,false,stim,false,1,1117.2000000001863,1,0,0,53495,task2,606821,false,false,685,image-keyboard-response,28
true,6,1,1,0,false,q,true,false,0.0-2.0-0.22-0.198-3.198,0,0,0,90,false,stim,false,2,993.3000000000466,1,0,2,53495,task2,609345,false,false,688,image-keyboard-response,29
true,6,2,1,0,false,q,false,false,0.0-2.0-0.22-0.199-3.199,0,0,0,68,false,stim,true,2,584.5,1,0,2,53495,task2,611465,false,false,691,image-keyboard-response,30
true,6,0,1,2,false,d,true,false,0.0-2.0-0.22-0.200-3.200,0,0,0,81,false,stim,false,1,1265.5,1,0,0,53495,task2,614240,false,false,694,image-keyboard-response,31
true,6,2,1,2,true,d,false,false,0.0-2.0-0.22-0.201-3.201,0,0,0,68,false,stim,false,1,696.0,1,0,0,53495,task2,616461,false,true,697,image-keyboard-response,32
true,6,1,1,0,false,q,true,false,0.0-2.0-0.22-0.202-3.202,0,0,0,90,false,stim,false,2,772.6000000000931,1,0,2,53495,task2,618746,false,false,700,image-keyboard-response,33
true,6,2,1,2,true,d,false,true,0.0-2.0-0.22-0.203-3.203,0,0,0,68,false,stim,false,0,1548.2999999998137,1,0,1,53495,task2,621806,false,false,703,image-keyboard-response,34
true,6,2,1,2,true,d,false,true,0.0-2.0-0.22-0.204-3.204,0,0,0,68,false,stim,false,0,605.4000000001397,1,0,1,53495,task2,623939,false,false,706,image-keyboard-response,35
true,6,2,1,2,true,d,false,true,0.0-2.0-0.22-0.205-3.205,0,0,0,68,false,stim,false,0,450.0999999998603,1,0,1,53495,task2,625909,false,false,709,image-keyboard-response,36
true,6,2,1,2,true,d,false,true,0.0-2.0-0.22-0.206-3.206,0,0,0,68,false,stim,false,1,1004.0,1,0,0,53495,task2,628433,false,false,712,image-keyboard-response,37
true,7,2,1,1,false,z,false,false,0.0-2.0-0.23-0.207-3.207,0,0,0,68,true,stim,true,2,601.5,1,0,1,53495,task2,630549,false,false,715,image-keyboard-response,1
true,7,2,1,2,true,d,false,true,0.0-2.0-0.23-0.208-3.208,0,0,0,68,false,stim,false,0,1725.7999999998137,1,0,2,53495,task2,633806,false,false,718,image-keyboard-response,2
true,7,2,1,1,false,z,false,false,0.0-2.0-0.23-0.209-3.209,0,0,0,68,false,stim,true,2,844.6999999999534,1,0,0,53495,task2,636162,false,false,721,image-keyboard-response,3
true,7,1,1,1,true,z,false,true,0.0-2.0-0.23-0.210-3.210,0,0,0,90,false,stim,false,2,975.3999999999069,1,0,0,53495,task2,638650,false,false,724,image-keyboard-response,4
true,7,1,1,1,true,z,false,true,0.0-2.0-0.23-0.211-3.211,0,0,0,90,false,stim,false,2,942.6999999999534,1,0,1,53495,task2,641109,false,false,727,image-keyboard-response,5
true,7,2,1,2,true,d,false,true,0.0-2.0-0.23-0.212-3.212,0,0,0,68,false,stim,false,0,1102.3000000000466,1,0,2,53495,task2,643728,false,false,730,image-keyboard-response,6
true,7,1,1,1,true,z,false,true,0.0-2.0-0.23-0.213-3.213,0,0,0,90,false,stim,false,2,470.10000000009313,1,0,0,53495,task2,645715,false,false,733,image-keyboard-response,7
true,7,1,1,1,true,z,false,true,0.0-2.0-0.23-0.214-3.214,0,0,0,90,false,stim,false,2,1301.1000000000931,1,0,1,53495,task2,648533,false,false,736,image-keyboard-response,8
true,7,2,1,2,true,d,false,true,0.0-2.0-0.23-0.215-3.215,0,0,0,68,false,stim,false,0,702.9000000001397,1,0,2,53495,task2,650769,false,false,739,image-keyboard-response,9
true,7,2,1,2,true,d,false,true,0.0-2.0-0.24-0.216-3.216,0,0,0,68,false,stim,false,0,580.1000000000931,1,0,2,53495,task2,652866,false,false,742,image-keyboard-response,10
true,7,2,1,2,true,d,false,true,0.0-2.0-0.24-0.217-3.217,0,0,0,68,false,stim,false,0,460.0999999998603,1,0,2,53495,task2,654837,false,false,745,image-keyboard-response,11
true,7,1,1,1,true,z,false,true,0.0-2.0-0.24-0.218-3.218,0,0,0,90,false,stim,false,2,609.6999999999534,1,0,0,53495,task2,656972,false,false,748,image-keyboard-response,12
true,7,1,1,1,true,z,false,false,0.0-2.0-0.24-0.219-3.219,0,0,0,90,false,stim,false,2,353.9000000001397,1,0,0,53495,task2,658845,false,true,751,image-keyboard-response,13
true,7,1,1,1,true,z,false,true,0.0-2.0-0.24-0.220-3.220,0,0,0,90,false,stim,false,2,887.5999999998603,1,0,1,53495,task2,661254,false,false,754,image-keyboard-response,14
true,7,2,1,1,false,z,false,false,0.0-2.0-0.24-0.221-3.221,0,0,0,68,false,stim,true,2,558.8000000000466,1,0,0,53495,task2,663329,false,false,757,image-keyboard-response,15
true,7,2,1,2,true,d,false,true,0.0-2.0-0.24-0.222-3.222,0,0,0,68,false,stim,false,0,706.3000000000466,1,0,2,53495,task2,665553,false,false,760,image-keyboard-response,16
true,7,1,1,1,true,z,false,true,0.0-2.0-0.24-0.223-3.223,0,0,0,90,false,stim,false,2,722.9000000001397,1,0,1,53495,task2,667809,false,false,763,image-keyboard-response,17
true,7,1,1,1,true,z,false,true,0.0-2.0-0.24-0.224-3.224,0,0,0,90,false,stim,false,2,592.5,1,0,1,53495,task2,669932,false,false,766,image-keyboard-response,18
true,7,1,1,1,true,z,false,true,0.0-2.0-0.25-0.225-3.225,0,0,0,90,false,stim,false,2,418.10000000009313,1,0,1,53495,task2,671883,false,false,769,image-keyboard-response,19
true,7,1,1,1,true,z,false,true,0.0-2.0-0.25-0.226-3.226,0,0,0,90,false,stim,false,2,391.9000000001397,1,0,1,53495,task2,673800,false,false,772,image-keyboard-response,20
true,7,2,1,2,true,d,false,true,0.0-2.0-0.25-0.227-3.227,0,0,0,68,false,stim,false,0,942.3000000000466,1,0,2,53495,task2,676256,false,false,775,image-keyboard-response,21
true,7,0,1,1,false,z,true,false,0.0-2.0-0.25-0.228-3.228,0,0,0,81,false,stim,false,2,440.69999999995343,1,0,0,53495,task2,678220,false,false,778,image-keyboard-response,22
true,7,1,1,1,true,z,false,true,0.0-2.0-0.25-0.229-3.229,0,0,0,90,false,stim,false,2,717.8999999999069,1,0,1,53495,task2,680462,false,false,781,image-keyboard-response,23
true,7,1,1,1,true,z,false,true,0.0-2.0-0.25-0.230-3.230,0,0,0,90,false,stim,false,2,636.0,1,0,0,53495,task2,682620,false,false,784,image-keyboard-response,24
true,7,2,1,2,true,d,false,true,0.0-2.0-0.25-0.231-3.231,0,0,0,68,false,stim,false,0,612.4000000001397,1,0,2,53495,task2,684770,false,false,787,image-keyboard-response,25
true,7,2,1,2,true,d,false,true,0.0-2.0-0.25-0.232-3.232,0,0,0,68,false,stim,false,0,948.3000000000466,1,0,2,53495,task2,687227,false,false,790,image-keyboard-response,26
true,7,1,1,1,true,z,false,true,0.0-2.0-0.25-0.233-3.233,0,0,0,90,false,stim,false,2,815.1000000000931,1,0,0,53495,task2,689558,false,false,793,image-keyboard-response,27
true,7,1,1,1,true,z,false,false,0.0-2.0-0.26-0.234-3.234,0,0,0,90,false,stim,false,2,526.8999999999069,1,0,0,53495,task2,691599,false,true,796,image-keyboard-response,28
true,7,1,1,1,true,z,false,false,0.0-2.0-0.26-0.235-3.235,0,0,0,90,false,stim,false,2,830.5,1,0,1,53495,task2,693960,false,true,799,image-keyboard-response,29
true,7,2,1,2,true,d,false,true,0.0-2.0-0.26-0.236-3.236,0,0,0,68,false,stim,false,0,757.0,1,0,2,53495,task2,696250,false,false,802,image-keyboard-response,30
true,7,2,1,2,true,d,false,true,0.0-2.0-0.26-0.237-3.237,0,0,0,68,false,stim,false,0,519.5999999998603,1,0,2,53495,task2,698283,false,false,805,image-keyboard-response,31
true,7,0,1,1,false,z,true,false,0.0-2.0-0.26-0.238-3.238,0,0,0,81,false,stim,false,2,910.3999999999069,1,0,1,53495,task2,700712,false,false,808,image-keyboard-response,32
true,7,2,1,2,true,d,false,true,0.0-2.0-0.26-0.239-3.239,0,0,0,68,false,stim,false,0,996.3999999999069,1,0,2,53495,task2,703233,false,false,811,image-keyboard-response,33
true,7,2,1,1,false,z,false,false,0.0-2.0-0.26-0.240-3.240,0,0,0,68,false,stim,true,2,683.6000000000931,1,0,0,53495,task2,705429,false,false,814,image-keyboard-response,34
true,7,2,1,1,false,z,false,false,0.0-2.0-0.26-0.241-3.241,0,0,0,68,false,stim,true,2,1319.3999999999069,1,0,1,53495,task2,708278,false,false,817,image-keyboard-response,35
true,7,1,1,1,true,z,false,true,0.0-2.0-0.26-0.242-3.242,0,0,0,90,false,stim,false,2,826.5999999998603,1,0,0,53495,task2,710629,false,false,820,image-keyboard-response,36
true,8,2,1,0,false,q,false,false,0.0-2.0-0.27-0.243-3.243,0,0,0,68,true,stim,true,2,709.0999999998603,1,0,2,53495,task2,712846,false,false,823,image-keyboard-response,1
true,8,1,1,0,false,q,true,false,0.0-2.0-0.27-0.244-3.244,0,0,0,90,false,stim,false,2,847.0,1,0,2,53495,task2,715214,false,false,826,image-keyboard-response,2
true,8,0,1,0,true,q,false,true,0.0-2.0-0.27-0.245-3.245,0,0,0,81,false,stim,false,1,1325.2000000001863,1,0,1,53495,task2,718054,false,false,829,image-keyboard-response,3
true,8,0,1,0,true,q,false,true,0.0-2.0-0.27-0.246-3.246,0,0,0,81,false,stim,false,1,545.0,1,0,1,53495,task2,720126,false,false,832,image-keyboard-response,4
true,8,1,1,2,false,d,false,false,0.0-2.0-0.27-0.247-3.247,0,0,0,90,false,stim,true,1,778.5,1,0,0,53495,task2,722426,false,false,835,image-keyboard-response,5
true,8,0,1,2,false,d,true,false,0.0-2.0-0.27-0.248-3.248,0,0,0,81,false,stim,false,1,1324.3999999999069,1,0,0,53495,task2,725264,false,false,838,image-keyboard-response,6
true,8,0,1,0,true,q,false,true,0.0-2.0-0.27-0.249-3.249,0,0,0,81,false,stim,false,1,1041.1000000000931,1,0,1,53495,task2,727824,false,false,841,image-keyboard-response,7
true,8,0,1,0,true,q,false,true,0.0-2.0-0.27-0.250-3.250,0,0,0,81,false,stim,false,2,961.6000000000931,1,0,2,53495,task2,730301,false,false,844,image-keyboard-response,8
true,8,2,1,2,true,d,false,true,0.0-2.0-0.27-0.251-3.251,0,0,0,68,false,stim,false,1,694.5,1,0,0,53495,task2,732529,false,false,847,image-keyboard-response,9
true,8,0,1,0,true,q,false,true,0.0-2.0-0.28-0.252-3.252,0,0,0,81,false,stim,false,1,739.0999999998603,1,0,1,53495,task2,734789,false,false,850,image-keyboard-response,10
true,8,2,1,2,true,d,false,true,0.0-2.0-0.28-0.253-3.253,0,0,0,68,false,stim,false,1,619.3999999999069,1,0,0,53495,task2,736943,false,false,853,image-keyboard-response,11
true,8,0,1,0,true,q,false,true,0.0-2.0-0.28-0.254-3.254,0,0,0,81,false,stim,false,1,642.0,1,0,1,53495,task2,739106,false,false,856,image-keyboard-response,12
true,8,2,1,2,true,d,false,true,0.0-2.0-0.28-0.255-3.255,0,0,0,68,false,stim,false,1,1099.6999999999534,1,0,0,53495,task2,741716,false,false,859,image-keyboard-response,13
true,8,0,1,0,true,q,false,true,0.0-2.0-0.28-0.256-3.256,0,0,0,81,false,stim,false,2,688.3000000000466,1,0,2,53495,task2,743921,false,false,862,image-keyboard-response,14
true,8,0,1,0,true,q,false,true,0.0-2.0-0.28-0.257-3.257,0,0,0,81,false,stim,false,1,738.9000000001397,1,0,1,53495,task2,746184,false,false,865,image-keyboard-response,15
true,8,0,1,0,true,q,false,false,0.0-2.0-0.28-0.258-3.258,0,0,0,81,false,stim,false,2,1279.6999999999534,1,0,2,53495,task2,748979,false,true,868,image-keyboard-response,16
true,8,2,1,2,true,d,false,true,0.0-2.0-0.28-0.259-3.259,0,0,0,68,false,stim,false,1,753.1999999999534,1,0,0,53495,task2,751247,false,false,871,image-keyboard-response,17
true,8,2,1,0,false,q,false,true,0.0-2.0-0.28-0.260-3.260,0,0,0,68,false,stim,true,2,525.3000000000466,1,0,2,53495,task2,753295,false,true,874,image-keyboard-response,18
true,8,0,1,0,true,q,false,true,0.0-2.0-0.29-0.261-3.261,0,0,0,81,false,stim,false,1,698.6000000000931,1,0,1,53495,task2,755511,false,false,877,image-keyboard-response,19
true,8,2,1,0,false,q,false,false,0.0-2.0-0.29-0.262-3.262,0,0,0,68,false,stim,true,2,790.3000000000466,1,0,2,53495,task2,757826,false,false,880,image-keyboard-response,20
true,8,0,1,0,true,q,false,true,0.0-2.0-0.29-0.263-3.263,0,0,0,81,false,stim,false,1,1674.8000000000466,1,0,1,53495,task2,761019,false,false,883,image-keyboard-response,21
true,8,2,1,2,true,d,false,true,0.0-2.0-0.29-0.264-3.264,0,0,0,68,false,stim,false,1,687.5,1,0,0,53495,task2,763229,false,false,886,image-keyboard-response,22
true,8,2,1,2,true,d,false,true,0.0-2.0-0.29-0.265-3.265,0,0,0,68,false,stim,false,1,800.4000000001397,1,0,0,53495,task2,765545,false,false,889,image-keyboard-response,23
true,8,0,1,0,true,q,false,true,0.0-2.0-0.29-0.266-3.266,0,0,0,81,false,stim,false,1,763.7000000001863,1,0,1,53495,task2,767837,false,false,892,image-keyboard-response,24
true,8,2,1,2,true,d,false,true,0.0-2.0-0.29-0.267-3.267,0,0,0,68,false,stim,false,1,756.0999999998603,1,0,0,53495,task2,770102,false,false,895,image-keyboard-response,25
true,8,1,1,0,false,q,true,false,0.0-2.0-0.29-0.268-3.268,0,0,0,90,false,stim,false,2,977.6999999999534,1,0,2,53495,task2,772612,false,false,898,image-keyboard-response,26
true,8,0,1,0,true,q,false,true,0.0-2.0-0.29-0.269-3.269,0,0,0,81,false,stim,false,2,508.5999999998603,1,0,2,53495,task2,774652,false,false,901,image-keyboard-response,27
true,8,0,1,2,false,d,true,false,0.0-2.0-0.30-0.270-3.270,0,0,0,81,false,stim,false,1,640.3000000000466,1,0,0,53495,task2,776816,false,false,904,image-keyboard-response,28
true,8,0,1,0,true,q,false,true,0.0-2.0-0.30-0.271-3.271,0,0,0,81,false,stim,false,2,937.9000000001397,1,0,2,53495,task2,779270,false,false,907,image-keyboard-response,29
true,8,2,1,0,false,q,true,false,0.0-2.0-0.30-0.272-3.272,0,0,0,68,false,stim,false,1,1436.4000000001397,1,0,1,53495,task2,782220,false,false,910,image-keyboard-response,30
true,8,1,1,0,false,q,false,false,0.0-2.0-0.30-0.273-3.273,0,0,0,90,false,stim,true,1,732.0,1,0,1,53495,task2,784474,false,false,913,image-keyboard-response,31
true,8,0,1,0,true,q,false,true,0.0-2.0-0.30-0.274-3.274,0,0,0,81,false,stim,false,2,979.5,1,0,2,53495,task2,786975,false,false,916,image-keyboard-response,32
true,8,2,1,2,true,d,false,true,0.0-2.0-0.30-0.275-3.275,0,0,0,68,false,stim,false,1,984.5,1,0,0,53495,task2,789481,false,false,919,image-keyboard-response,33
true,8,0,1,0,true,q,false,true,0.0-2.0-0.30-0.276-3.276,0,0,0,81,false,stim,false,1,561.8999999999069,1,0,1,53495,task2,791554,false,false,922,image-keyboard-response,34
true,9,0,1,1,false,z,false,false,0.0-2.0-0.30-0.277-3.277,0,0,0,81,true,stim,true,0,655.5,1,0,2,53495,task2,793730,false,false,925,image-keyboard-response,1
true,9,2,1,0,false,q,false,false,0.0-2.0-0.30-0.278-3.278,0,0,0,68,false,stim,true,2,715.1999999999534,1,0,0,53495,task2,795970,false,false,928,image-keyboard-response,2
true,9,1,1,0,false,q,true,false,0.0-2.0-0.31-0.279-3.279,0,0,0,90,false,stim,false,2,905.5,1,0,0,53495,task2,798390,false,false,931,image-keyboard-response,3
true,9,0,1,0,true,q,false,true,0.0-2.0-0.31-0.280-3.280,0,0,0,81,false,stim,false,2,516.9000000001397,1,0,0,53495,task2,800428,false,false,934,image-keyboard-response,4
true,9,0,1,0,true,q,false,true,0.0-2.0-0.31-0.281-3.281,0,0,0,81,false,stim,false,2,587.6999999999534,1,0,0,53495,task2,802550,false,false,937,image-keyboard-response,5
true,9,0,1,2,false,d,false,false,0.0-2.0-0.31-0.282-3.282,0,0,0,81,false,stim,true,0,608.1999999999534,1,0,1,53495,task2,804684,false,false,940,image-keyboard-response,6
true,9,2,1,2,true,d,false,true,0.0-2.0-0.31-0.283-3.283,0,0,0,68,false,stim,false,0,1097.6999999999534,1,0,1,53495,task2,807300,false,false,943,image-keyboard-response,7
true,9,1,1,1,true,z,false,true,0.0-2.0-0.31-0.284-3.284,0,0,0,90,false,stim,false,0,929.1999999999534,1,0,2,53495,task2,809745,false,false,946,image-keyboard-response,8
true,9,2,1,2,true,d,false,true,0.0-2.0-0.31-0.285-3.285,0,0,0,68,false,stim,false,0,884.1999999999534,1,0,1,53495,task2,812159,false,false,949,image-keyboard-response,9
true,9,1,1,1,true,z,false,false,0.0-2.0-0.31-0.286-3.286,0,0,0,90,false,stim,false,0,554.1000000000931,1,0,2,53495,task2,814238,false,true,952,image-keyboard-response,10
true,9,0,1,1,false,z,false,false,0.0-2.0-0.31-0.287-3.287,0,0,0,81,false,stim,true,0,775.1999999999534,1,0,2,53495,task2,816526,false,false,955,image-keyboard-response,11
true,9,0,1,0,true,q,false,true,0.0-2.0-0.32-0.288-3.288,0,0,0,81,false,stim,false,2,960.2999999998137,1,0,0,53495,task2,819007,false,false,958,image-keyboard-response,12
true,9,0,1,0,true,q,false,false,0.0-2.0-0.32-0.289-3.289,0,0,0,81,false,stim,false,2,521.1000000000931,1,0,0,53495,task2,821051,false,true,961,image-keyboard-response,13
true,9,2,1,2,true,d,false,true,0.0-2.0-0.32-0.290-3.290,0,0,0,68,false,stim,false,0,604.6999999999534,1,0,1,53495,task2,823179,false,false,964,image-keyboard-response,14
true,9,2,1,2,true,d,false,true,0.0-2.0-0.32-0.291-3.291,0,0,0,68,false,stim,false,0,439.10000000009313,1,0,1,53495,task2,825146,false,false,967,image-keyboard-response,15
true,9,2,1,1,false,z,true,false,0.0-2.0-0.32-0.292-3.292,0,0,0,68,false,stim,false,0,834.3999999999069,1,0,2,53495,task2,827489,false,false,970,image-keyboard-response,16
true,9,1,1,1,true,z,false,true,0.0-2.0-0.32-0.293-3.293,0,0,0,90,false,stim,false,0,1459.0,1,0,2,53495,task2,830461,false,false,973,image-keyboard-response,17
true,9,1,1,1,true,z,false,true,0.0-2.0-0.32-0.294-3.294,0,0,0,90,false,stim,false,0,738.7999999998137,1,0,2,53495,task2,832727,false,false,976,image-keyboard-response,18
true,9,2,1,2,true,d,false,true,0.0-2.0-0.32-0.295-3.295,0,0,0,68,false,stim,false,0,912.0,1,0,1,53495,task2,835158,false,false,979,image-keyboard-response,19
true,9,2,1,0,false,q,false,false,0.0-2.0-0.32-0.296-3.296,0,0,0,68,false,stim,true,2,977.0,1,0,0,53495,task2,837645,false,false,982,image-keyboard-response,20
true,9,1,1,1,true,z,false,true,0.0-2.0-0.33-0.297-3.297,0,0,0,90,false,stim,false,0,1120.5,1,0,2,53495,task2,840291,false,false,985,image-keyboard-response,21
true,9,1,1,0,false,q,true,false,0.0-2.0-0.33-0.298-3.298,0,0,0,90,false,stim,false,2,774.7000000001863,1,0,0,53495,task2,842593,false,false,988,image-keyboard-response,22
true,9,2,1,2,true,d,false,true,0.0-2.0-0.33-0.299-3.299,0,0,0,68,false,stim,false,0,925.0,1,0,1,53495,task2,845044,false,false,991,image-keyboard-response,23
true,9,1,1,1,true,z,false,true,0.0-2.0-0.33-0.300-3.300,0,0,0,90,false,stim,false,0,1071.2000000001863,1,0,2,53495,task2,847645,false,false,994,image-keyboard-response,24
true,9,0,1,2,false,d,false,false,0.0-2.0-0.33-0.301-3.301,0,0,0,81,false,stim,true,0,691.3999999999069,1,0,1,53495,task2,849880,false,false,997,image-keyboard-response,25
true,9,1,1,0,false,q,true,false,0.0-2.0-0.33-0.302-3.302,0,0,0,90,false,stim,false,2,1600.7000000001863,1,0,0,53495,task2,853002,false,false,1000,image-keyboard-response,26
true,9,2,1,2,true,d,false,true,0.0-2.0-0.33-0.303-3.303,0,0,0,68,false,stim,false,0,633.9000000001397,1,0,1,53495,task2,855167,false,false,1003,image-keyboard-response,27
true,9,2,1,0,false,q,false,false,0.0-2.0-0.33-0.304-3.304,0,0,0,68,false,stim,true,2,1084.1999999999534,1,0,0,53495,task2,857773,false,false,1006,image-keyboard-response,28
true,9,1,1,1,true,z,false,true,0.0-2.0-0.33-0.305-3.305,0,0,0,90,false,stim,false,0,936.1999999999534,1,0,2,53495,task2,860236,false,false,1009,image-keyboard-response,29
true,9,1,1,1,true,z,false,true,0.0-2.0-0.34-0.306-3.306,0,0,0,90,false,stim,false,0,649.6000000000931,1,0,2,53495,task2,862406,false,false,1012,image-keyboard-response,30
true,9,1,1,2,false,d,true,true,0.0-2.0-0.34-0.307-3.307,0,0,0,90,false,stim,false,0,682.0,1,0,1,53495,task2,864618,false,true,1015,image-keyboard-response,31
true,9,2,1,0,false,q,false,false,0.0-2.0-0.34-0.308-3.308,0,0,0,68,false,stim,true,2,1449.0,1,0,0,53495,task2,867596,false,false,1018,image-keyboard-response,32
true,9,1,1,0,false,q,true,false,0.0-2.0-0.34-0.309-3.309,0,0,0,90,false,stim,false,2,795.0,1,1,0,53495,task2,869919,false,false,1021,image-keyboard-response,33
true,9,2,1,2,true,d,false,true,0.0-2.0-0.34-0.310-3.310,0,0,0,68,false,stim,false,0,1029.5,1,0,1,53495,task2,872460,false,false,1024,image-keyboard-response,34
true,9,2,1,2,true,d,false,false,0.0-2.0-0.34-0.311-3.311,0,0,0,68,false,stim,false,0,571.6999999999534,1,0,1,53495,task2,874562,false,true,1027,image-keyboard-response,35
true,9,1,1,1,true,z,false,true,0.0-2.0-0.34-0.312-3.312,0,0,0,90,false,stim,false,0,863.8000000000466,1,0,2,53495,task2,876947,false,false,1030,image-keyboard-response,36
true,9,1,1,1,true,z,false,false,0.0-2.0-0.34-0.313-3.313,0,0,0,90,false,stim,false,0,719.3999999999069,1,0,2,53495,task2,879184,false,true,1033,image-keyboard-response,37
true,10,0,2,0,true,q,false,true,0.0-2.0-0.34-0.314-3.314,1,0,0,81,true,stim,false,0,797.6999999999534,1,1,0,53495,task2,881506,false,false,1036,image-keyboard-response,1
true,10,0,2,0,true,q,false,true,0.0-2.0-0.35-0.315-3.315,1,0,0,81,false,stim,false,2,639.1999999999534,1,0,1,53495,task2,883671,false,false,1039,image-keyboard-response,2
true,10,2,2,2,true,d,false,true,0.0-2.0-0.35-0.316-3.316,1,0,0,68,false,stim,false,1,1184.4000000001397,1,0,2,53495,task2,886372,false,false,1042,image-keyboard-response,3
true,10,0,2,0,true,q,false,true,0.0-2.0-0.35-0.317-3.317,1,0,0,81,false,stim,false,0,680.3000000000466,1,1,0,53495,task2,888575,false,false,1045,image-keyboard-response,4
true,10,0,2,0,true,q,false,true,0.0-2.0-0.35-0.318-3.318,1,0,0,81,false,stim,false,2,1247.2000000001863,1,0,1,53495,task2,891343,false,false,1048,image-keyboard-response,5
true,10,2,2,2,true,d,false,true,0.0-2.0-0.35-0.319-3.319,1,0,0,68,false,stim,false,1,583.5999999998603,1,0,2,53495,task2,893457,false,false,1051,image-keyboard-response,6
true,10,0,2,0,true,q,false,false,0.0-2.0-0.35-0.320-3.320,1,0,0,81,false,stim,false,0,588.8999999999069,1,1,0,53495,task2,895569,false,true,1054,image-keyboard-response,7
true,10,2,2,2,true,d,false,true,0.0-2.0-0.35-0.321-3.321,1,0,0,68,false,stim,false,1,642.6999999999534,1,0,2,53495,task2,897736,false,false,1057,image-keyboard-response,8
true,10,1,2,0,false,q,true,false,0.0-2.0-0.35-0.322-3.322,1,0,0,90,false,stim,false,0,780.7000000001863,1,1,0,53495,task2,900047,false,false,1060,image-keyboard-response,9
true,10,0,2,0,true,q,false,true,0.0-2.0-0.35-0.323-3.323,1,0,0,81,false,stim,false,2,989.1999999999534,1,0,1,53495,task2,902566,false,false,1063,image-keyboard-response,10
true,10,2,2,2,true,d,false,true,0.0-2.0-0.36-0.324-3.324,1,0,0,68,false,stim,false,1,704.0,1,0,2,53495,task2,904795,false,false,1066,image-keyboard-response,11
true,10,0,2,0,true,q,false,true,0.0-2.0-0.36-0.325-3.325,1,0,0,81,false,stim,false,2,1144.5,1,0,1,53495,task2,907453,false,false,1069,image-keyboard-response,12
true,10,2,2,0,false,q,true,false,0.0-2.0-0.36-0.326-3.326,1,0,0,68,false,stim,false,0,856.3999999999069,1,1,0,53495,task2,909843,false,false,1072,image-keyboard-response,13
true,10,2,2,2,true,d,false,true,0.0-2.0-0.36-0.327-3.327,1,0,0,68,false,stim,false,1,892.8000000000466,1,0,2,53495,task2,912261,false,false,1075,image-keyboard-response,14
true,10,0,2,0,true,q,false,true,0.0-2.0-0.36-0.328-3.328,1,0,0,81,false,stim,false,2,600.6999999999534,1,0,1,53495,task2,914390,false,false,1078,image-keyboard-response,15
true,10,2,2,2,true,d,false,true,0.0-2.0-0.36-0.329-3.329,1,0,0,68,false,stim,false,1,766.5,1,0,2,53495,task2,916687,false,false,1081,image-keyboard-response,16
true,10,0,2,0,true,q,false,true,0.0-2.0-0.36-0.330-3.330,1,0,0,81,false,stim,false,0,799.6000000000931,1,1,0,53495,task2,919001,false,false,1084,image-keyboard-response,17
true,10,0,2,0,true,q,false,true,0.0-2.0-0.36-0.331-3.331,1,0,0,81,false,stim,false,0,675.5,1,1,0,53495,task2,921194,false,false,1087,image-keyboard-response,18
true,10,0,2,0,true,q,false,true,0.0-2.0-0.36-0.332-3.332,1,0,0,81,false,stim,false,2,689.1999999999534,1,0,1,53495,task2,923408,false,false,1090,image-keyboard-response,19
true,10,0,2,0,true,q,false,true,0.0-2.0-0.37-0.333-3.333,1,0,0,81,false,stim,false,0,508.79999999981374,1,1,0,53495,task2,925448,false,false,1093,image-keyboard-response,20
true,10,2,2,2,true,d,false,true,0.0-2.0-0.37-0.334-3.334,1,0,0,68,false,stim,false,1,584.8000000000466,1,0,2,53495,task2,927563,false,false,1096,image-keyboard-response,21
true,10,2,2,2,true,d,false,true,0.0-2.0-0.37-0.335-3.335,1,0,0,68,false,stim,false,1,549.1999999999534,1,0,2,53495,task2,929643,false,false,1099,image-keyboard-response,22
true,10,0,2,0,true,q,false,true,0.0-2.0-0.37-0.336-3.336,1,0,0,81,false,stim,false,2,756.3000000000466,1,0,1,53495,task2,931934,false,false,1102,image-keyboard-response,23
true,10,0,2,0,true,q,false,true,0.0-2.0-0.37-0.337-3.337,1,0,0,81,false,stim,false,0,613.5,1,1,0,53495,task2,934075,false,false,1105,image-keyboard-response,24
true,10,2,2,2,true,d,false,true,0.0-2.0-0.37-0.338-3.338,1,0,0,68,false,stim,false,1,562.8999999999069,1,0,2,53495,task2,936157,false,false,1108,image-keyboard-response,25
true,10,0,2,0,true,q,false,true,0.0-2.0-0.37-0.339-3.339,1,0,0,81,false,stim,false,2,578.0999999998603,1,0,1,53495,task2,938254,false,false,1111,image-keyboard-response,26
true,10,2,2,0,false,q,true,false,0.0-2.0-0.37-0.340-3.340,1,0,0,68,false,stim,false,0,1529.5999999998603,1,1,0,53495,task2,941308,false,false,1114,image-keyboard-response,27
true,10,0,2,0,true,q,false,true,0.0-2.0-0.37-0.341-3.341,1,0,0,81,false,stim,false,2,700.0,1,0,1,53495,task2,943522,false,false,1117,image-keyboard-response,28
true,10,0,2,0,true,q,false,true,0.0-2.0-0.38-0.342-3.342,1,0,0,81,false,stim,false,2,492.10000000009313,1,0,1,53495,task2,945537,false,false,1120,image-keyboard-response,29
true,10,2,2,2,true,d,false,true,0.0-2.0-0.38-0.343-3.343,1,0,0,68,false,stim,false,1,543.6000000000931,1,0,2,53495,task2,947601,false,false,1123,image-keyboard-response,30
true,10,0,2,0,true,q,false,true,0.0-2.0-0.38-0.344-3.344,1,0,0,81,false,stim,false,0,493.80000000004657,1,1,0,53495,task2,949617,false,false,1126,image-keyboard-response,31
true,11,0,2,1,false,z,false,true,0.0-2.0-0.38-0.345-3.345,1,0,0,81,true,stim,true,0,831.1999999999534,1,0,1,53495,task2,951974,false,true,1129,image-keyboard-response,1
true,11,0,2,0,true,q,false,true,0.0-2.0-0.38-0.346-3.346,1,0,0,81,false,stim,false,0,525.0,1,1,0,53495,task2,954011,false,false,1132,image-keyboard-response,2
true,11,0,2,1,false,z,false,false,0.0-2.0-0.38-0.347-3.347,1,0,0,81,false,stim,true,0,628.0,1,0,1,53495,task2,956159,false,false,1135,image-keyboard-response,3
true,11,2,2,0,false,q,false,true,0.0-2.0-0.38-0.348-3.348,1,0,0,68,false,stim,true,2,850.3000000000466,1,0,2,53495,task2,958524,false,true,1138,image-keyboard-response,4
true,11,2,2,0,false,q,false,false,0.0-2.0-0.38-0.349-3.349,1,0,0,68,false,stim,true,2,675.6000000000931,1,0,2,53495,task2,960719,false,false,1141,image-keyboard-response,5
true,11,2,2,0,false,q,true,false,0.0-2.0-0.38-0.350-3.350,1,0,0,68,false,stim,false,0,1166.8999999999069,1,1,0,53495,task2,963404,false,false,1144,image-keyboard-response,6
true,11,1,2,0,false,q,true,false,0.0-2.0-0.39-0.351-3.351,1,0,0,90,false,stim,false,0,1015.3000000000466,1,1,0,53495,task2,965943,false,false,1147,image-keyboard-response,7
true,11,0,2,0,true,q,false,true,0.0-2.0-0.39-0.352-3.352,1,0,0,81,false,stim,false,0,393.19999999995343,1,1,0,53495,task2,967856,false,false,1150,image-keyboard-response,8
true,11,0,2,0,true,q,false,true,0.0-2.0-0.39-0.353-3.353,1,0,0,81,false,stim,false,2,936.1999999999534,1,0,2,53495,task2,970305,false,false,1153,image-keyboard-response,9
true,11,2,2,1,false,z,true,false,0.0-2.0-0.39-0.354-3.354,1,0,0,68,false,stim,false,0,570.7000000001863,1,0,1,53495,task2,972406,false,false,1156,image-keyboard-response,10
true,11,0,2,0,true,q,false,true,0.0-2.0-0.39-0.355-3.355,1,0,0,81,false,stim,false,2,869.8000000000466,1,0,2,53495,task2,974790,false,false,1159,image-keyboard-response,11
true,11,1,2,1,true,z,false,true,0.0-2.0-0.39-0.356-3.356,1,0,0,90,false,stim,false,0,1175.6000000000931,1,0,1,53495,task2,977486,false,false,1162,image-keyboard-response,12
true,11,0,2,0,true,q,false,true,0.0-2.0-0.39-0.357-3.357,1,0,0,81,false,stim,false,0,665.6000000000931,1,1,0,53495,task2,979682,false,false,1165,image-keyboard-response,13
true,11,0,2,0,true,q,false,true,0.0-2.0-0.39-0.358-3.358,1,0,0,81,false,stim,false,2,622.3000000000466,1,0,2,53495,task2,981821,false,false,1168,image-keyboard-response,14
true,11,1,2,1,true,z,false,true,0.0-2.0-0.39-0.359-3.359,1,0,0,90,false,stim,false,0,505.60000000009313,1,0,1,53495,task2,983841,false,false,1171,image-keyboard-response,15
true,11,0,2,0,true,q,false,true,0.0-2.0-0.40-0.360-3.360,1,0,0,81,false,stim,false,0,680.0999999998603,1,1,0,53495,task2,986055,false,false,1174,image-keyboard-response,16
true,11,1,2,0,false,q,true,false,0.0-2.0-0.40-0.361-3.361,1,0,0,90,false,stim,false,2,1102.3000000000466,1,0,2,53495,task2,988682,false,false,1177,image-keyboard-response,17
true,11,0,2,0,true,q,false,true,0.0-2.0-0.40-0.362-3.362,1,0,0,81,false,stim,false,2,693.8000000000466,1,0,2,53495,task2,990893,false,false,1180,image-keyboard-response,18
true,11,1,2,1,true,z,false,true,0.0-2.0-0.40-0.363-3.363,1,0,0,90,false,stim,false,0,942.8999999999069,1,0,1,53495,task2,993368,false,false,1183,image-keyboard-response,19
true,11,1,2,1,true,z,false,true,0.0-2.0-0.40-0.364-3.364,1,0,0,90,false,stim,false,0,616.3000000000466,1,0,1,53495,task2,995516,false,false,1186,image-keyboard-response,20
true,11,0,2,0,true,q,false,true,0.0-2.0-0.40-0.365-3.365,1,0,0,81,false,stim,false,2,478.89999999990687,1,0,2,53495,task2,997505,false,false,1189,image-keyboard-response,21
true,11,0,2,0,true,q,false,true,0.0-2.0-0.40-0.366-3.366,1,0,0,81,false,stim,false,0,721.0,1,1,0,53495,task2,999751,false,false,1192,image-keyboard-response,22
true,11,0,2,0,true,q,false,true,0.0-2.0-0.40-0.367-3.367,1,0,0,81,false,stim,false,0,495.30000000004657,1,1,0,53495,task2,1001767,false,false,1195,image-keyboard-response,23
true,11,0,2,1,false,z,false,true,0.0-2.0-0.40-0.368-3.368,1,0,0,81,false,stim,true,0,793.0999999998603,1,0,1,53495,task2,1004079,false,true,1198,image-keyboard-response,24
true,11,0,2,1,false,z,false,false,0.0-2.0-0.41-0.369-3.369,1,0,0,81,false,stim,true,0,449.69999999995343,1,0,1,53495,task2,1006065,false,false,1201,image-keyboard-response,25
true,11,0,2,0,true,q,false,false,0.0-2.0-0.41-0.370-3.370,1,0,0,81,false,stim,false,0,1068.0,1,1,0,53495,task2,1008663,false,true,1204,image-keyboard-response,26
true,11,1,2,0,false,q,true,false,0.0-2.0-0.41-0.371-3.371,1,0,0,90,false,stim,false,0,544.7999999998137,1,1,0,53495,task2,1010739,false,false,1207,image-keyboard-response,27
true,11,1,2,1,true,z,false,true,0.0-2.0-0.41-0.372-3.372,1,0,0,90,false,stim,false,0,1081.9000000001397,1,1,1,53495,task2,1013337,false,false,1210,image-keyboard-response,28
true,11,2,2,0,false,q,true,false,0.0-2.0-0.41-0.373-3.373,1,0,0,68,false,stim,false,0,923.3000000000466,1,0,0,53495,task2,1015784,false,false,1213,image-keyboard-response,29
true,11,0,2,0,true,q,false,true,0.0-2.0-0.41-0.374-3.374,1,0,0,81,false,stim,false,2,1299.0999999998603,1,0,2,53495,task2,1018615,false,false,1216,image-keyboard-response,30
true,11,0,2,0,true,q,false,true,0.0-2.0-0.41-0.375-3.375,1,0,0,81,false,stim,false,2,535.9000000001397,1,0,2,53495,task2,1020675,false,false,1219,image-keyboard-response,31
true,11,1,2,1,true,z,false,true,0.0-2.0-0.41-0.376-3.376,1,0,0,90,false,stim,false,0,546.8999999999069,1,1,1,53495,task2,1022745,false,false,1222,image-keyboard-response,32
true,12,0,2,1,false,z,false,false,0.0-2.0-0.41-0.377-3.377,0,1,0,81,true,stim,true,0,604.7999999998137,1,0,2,53495,task2,1024867,false,false,1225,image-keyboard-response,1
true,12,1,2,2,false,d,true,false,0.0-2.0-0.42-0.378-3.378,0,1,0,90,false,stim,false,0,804.5,1,0,0,53495,task2,1027194,false,false,1228,image-keyboard-response,2
true,12,0,2,1,false,z,true,false,0.0-2.0-0.42-0.379-3.379,0,1,0,81,false,stim,false,1,1164.1999999999534,1,1,1,53495,task2,1029885,false,false,1231,image-keyboard-response,3
true,12,1,2,1,true,z,false,true,0.0-2.0-0.42-0.380-3.380,0,1,0,90,false,stim,false,1,1042.6000000000931,1,1,1,53495,task2,1032450,false,false,1234,image-keyboard-response,4
true,12,1,2,1,true,z,false,true,0.0-2.0-0.42-0.381-3.381,0,1,0,90,false,stim,false,1,476.0999999998603,1,1,1,53495,task2,1034461,false,false,1237,image-keyboard-response,5
true,12,2,2,2,true,d,false,true,0.0-2.0-0.42-0.382-3.382,0,1,0,68,false,stim,false,0,1029.1000000000931,1,0,0,53495,task2,1037002,false,false,1240,image-keyboard-response,6
true,12,2,2,1,false,z,true,false,0.0-2.0-0.42-0.383-3.383,0,1,0,68,false,stim,false,0,886.3000000000466,1,0,2,53495,task2,1039414,false,false,1243,image-keyboard-response,7
true,12,2,2,2,true,d,false,true,0.0-2.0-0.42-0.384-3.384,0,1,0,68,false,stim,false,0,1030.1999999999534,1,0,0,53495,task2,1041960,false,false,1246,image-keyboard-response,8
true,12,1,2,1,true,z,false,true,0.0-2.0-0.42-0.385-3.385,0,1,0,90,false,stim,false,0,979.0,1,0,2,53495,task2,1044468,false,false,1249,image-keyboard-response,9
true,12,1,2,1,true,z,false,true,0.0-2.0-0.42-0.386-3.386,0,1,0,90,false,stim,false,0,475.0,1,0,2,53495,task2,1046457,false,false,1252,image-keyboard-response,10
true,12,1,2,1,true,z,false,true,0.0-2.0-0.43-0.387-3.387,0,1,0,90,false,stim,false,0,446.70000000018626,1,0,2,53495,task2,1048427,false,false,1255,image-keyboard-response,11
true,12,2,2,2,true,d,false,true,0.0-2.0-0.43-0.388-3.388,0,1,0,68,false,stim,false,0,725.7000000001863,1,0,0,53495,task2,1050688,false,false,1258,image-keyboard-response,12
true,12,1,2,1,true,z,false,true,0.0-2.0-0.43-0.389-3.389,0,1,0,90,false,stim,false,0,816.1999999999534,1,0,2,53495,task2,1053037,false,false,1261,image-keyboard-response,13
true,12,1,2,1,true,z,false,true,0.0-2.0-0.43-0.390-3.390,0,1,0,90,false,stim,false,0,545.3000000000466,1,0,2,53495,task2,1055092,false,false,1264,image-keyboard-response,14
true,12,2,2,2,true,d,false,true,0.0-2.0-0.43-0.391-3.391,0,1,0,68,false,stim,false,0,668.1999999999534,1,0,0,53495,task2,1057286,false,false,1267,image-keyboard-response,15
true,12,1,2,1,true,z,false,true,0.0-2.0-0.43-0.392-3.392,0,1,0,90,false,stim,false,1,660.3000000000466,1,1,1,53495,task2,1059471,false,false,1270,image-keyboard-response,16
true,12,1,2,1,true,z,false,true,0.0-2.0-0.43-0.393-3.393,0,1,0,90,false,stim,false,1,564.3999999999069,1,1,1,53495,task2,1061566,false,false,1273,image-keyboard-response,17
true,12,1,2,2,false,d,true,false,0.0-2.0-0.43-0.394-3.394,0,1,0,90,false,stim,false,0,959.6000000000931,1,0,0,53495,task2,1064042,false,false,1276,image-keyboard-response,18
true,12,1,2,1,true,z,false,true,0.0-2.0-0.43-0.395-3.395,0,1,0,90,false,stim,false,1,908.1999999999534,1,1,1,53495,task2,1066467,false,false,1279,image-keyboard-response,19
true,12,2,2,1,false,z,true,false,0.0-2.0-0.44-0.396-3.396,0,1,0,68,false,stim,false,0,862.6000000000931,1,0,2,53495,task2,1068845,false,false,1282,image-keyboard-response,20
true,12,0,2,2,false,d,false,false,0.0-2.0-0.44-0.397-3.397,0,1,0,81,false,stim,true,0,490.39999999990687,1,0,0,53495,task2,1070863,false,false,1285,image-keyboard-response,21
true,12,2,2,2,true,d,false,true,0.0-2.0-0.44-0.398-3.398,0,1,0,68,false,stim,false,0,665.9000000001397,1,0,0,53495,task2,1073059,false,false,1288,image-keyboard-response,22
true,12,0,2,1,false,z,false,false,0.0-2.0-0.44-0.399-3.399,0,1,0,81,false,stim,true,0,947.0,1,0,2,53495,task2,1075528,false,false,1291,image-keyboard-response,23
true,12,1,2,1,true,z,false,true,0.0-2.0-0.44-0.400-3.400,0,1,0,90,false,stim,false,0,516.7999999998137,1,0,2,53495,task2,1077579,false,false,1294,image-keyboard-response,24
true,12,1,2,1,true,z,false,true,0.0-2.0-0.44-0.401-3.401,0,1,0,90,false,stim,false,1,992.6000000000931,1,1,1,53495,task2,1080098,false,false,1297,image-keyboard-response,25
true,12,2,2,2,true,d,false,true,0.0-2.0-0.44-0.402-3.402,0,1,0,68,false,stim,false,0,447.69999999995343,1,0,0,53495,task2,1082077,false,false,1300,image-keyboard-response,26
true,12,1,2,1,true,z,false,true,0.0-2.0-0.44-0.403-3.403,0,1,0,90,false,stim,false,1,686.2999999998137,1,1,1,53495,task2,1084288,false,false,1303,image-keyboard-response,27
true,12,1,2,1,true,z,false,true,0.0-2.0-0.44-0.404-3.404,0,1,0,90,false,stim,false,1,792.1999999999534,1,1,1,53495,task2,1086623,false,false,1306,image-keyboard-response,28
true,12,1,2,1,true,z,false,true,0.0-2.0-0.45-0.405-3.405,0,1,0,90,false,stim,false,1,628.6000000000931,1,0,1,53495,task2,1088786,false,false,1309,image-keyboard-response,29
true,12,2,2,2,true,d,false,true,0.0-2.0-0.45-0.406-3.406,0,1,0,68,false,stim,false,0,1069.7000000001863,1,1,0,53495,task2,1091383,false,false,1312,image-keyboard-response,30
true,12,2,2,2,true,d,false,true,0.0-2.0-0.45-0.407-3.407,0,1,0,68,false,stim,false,0,444.89999999990687,1,1,0,53495,task2,1093348,false,false,1315,image-keyboard-response,31
true,12,2,2,2,true,d,false,false,0.0-2.0-0.45-0.408-3.408,0,1,0,68,false,stim,false,0,505.19999999995343,1,1,0,53495,task2,1095385,false,true,1318,image-keyboard-response,32
true,12,1,2,1,true,z,false,true,0.0-2.0-0.45-0.409-3.409,0,1,0,90,false,stim,false,0,836.3999999999069,1,0,2,53495,task2,1097740,false,false,1321,image-keyboard-response,33
true,13,1,2,2,false,d,false,false,0.0-2.0-0.45-0.410-3.410,1,0,0,90,true,stim,true,1,578.5,1,0,2,53495,task2,1099837,false,false,1324,image-keyboard-response,1
true,13,0,2,2,false,d,true,false,0.0-2.0-0.45-0.411-3.411,1,0,0,81,false,stim,false,1,948.6000000000931,1,0,2,53495,task2,1102310,false,false,1327,image-keyboard-response,2
true,13,1,2,0,false,q,false,false,0.0-2.0-0.45-0.412-3.412,1,0,0,90,false,stim,true,1,1078.1000000000931,1,0,1,53495,task2,1104914,false,false,1330,image-keyboard-response,3
true,13,0,2,0,true,q,false,true,0.0-2.0-0.45-0.413-3.413,1,0,0,81,false,stim,false,1,785.1999999999534,1,0,1,53495,task2,1107211,false,false,1333,image-keyboard-response,4
true,13,0,2,2,false,d,true,false,0.0-2.0-0.46-0.414-3.414,1,0,0,81,false,stim,false,1,595.0999999998603,1,0,2,53495,task2,1109331,false,false,1336,image-keyboard-response,5
true,13,0,2,2,false,d,true,true,0.0-2.0-0.46-0.415-3.415,1,0,0,81,false,stim,false,2,620.1999999999534,1,1,0,53495,task2,1111465,false,true,1339,image-keyboard-response,6
true,13,0,2,0,true,q,false,true,0.0-2.0-0.46-0.416-3.416,1,0,0,81,false,stim,false,1,815.2999999998137,1,0,1,53495,task2,1113789,false,false,1342,image-keyboard-response,7
true,13,0,2,2,false,d,true,false,0.0-2.0-0.46-0.417-3.417,1,0,0,81,false,stim,false,2,729.6999999999534,1,1,0,53495,task2,1116038,false,false,1345,image-keyboard-response,8
true,13,0,2,0,true,q,false,true,0.0-2.0-0.46-0.418-3.418,1,0,0,81,false,stim,false,1,862.0999999998603,1,0,1,53495,task2,1118427,false,false,1348,image-keyboard-response,9
true,13,2,2,2,true,d,false,true,0.0-2.0-0.46-0.419-3.419,1,0,0,68,false,stim,false,2,843.1000000000931,1,1,0,53495,task2,1120801,false,false,1351,image-keyboard-response,10
true,13,1,2,2,false,d,false,false,0.0-2.0-0.46-0.420-3.420,1,0,0,90,false,stim,true,1,764.9000000001397,1,0,2,53495,task2,1123095,false,false,1354,image-keyboard-response,11
true,13,0,2,0,true,q,false,false,0.0-2.0-0.46-0.421-3.421,1,0,0,81,false,stim,false,1,1021.4000000001397,1,0,1,53495,task2,1125629,false,true,1357,image-keyboard-response,12
true,13,2,2,2,true,d,false,true,0.0-2.0-0.46-0.422-3.422,1,0,0,68,false,stim,false,1,1037.1000000000931,1,0,2,53495,task2,1128178,false,false,1360,image-keyboard-response,13
true,13,2,2,2,true,d,false,true,0.0-2.0-0.47-0.423-3.423,1,0,0,68,false,stim,false,2,501.60000000009313,1,1,0,53495,task2,1130207,false,false,1363,image-keyboard-response,14
true,13,2,2,2,true,d,false,true,0.0-2.0-0.47-0.424-3.424,1,0,0,68,false,stim,false,2,854.1000000000931,1,1,0,53495,task2,1132583,false,false,1366,image-keyboard-response,15
true,13,2,2,2,true,d,false,true,0.0-2.0-0.47-0.425-3.425,1,0,0,68,false,stim,false,2,458.4000000001397,1,1,0,53495,task2,1134579,false,false,1369,image-keyboard-response,16
true,13,1,2,0,false,q,false,false,0.0-2.0-0.47-0.426-3.426,1,0,0,90,false,stim,true,1,887.5999999998603,1,0,1,53495,task2,1136981,false,false,1372,image-keyboard-response,17
true,13,2,2,2,true,d,false,true,0.0-2.0-0.47-0.427-3.427,1,0,0,68,false,stim,false,1,510.4000000001397,1,0,2,53495,task2,1139014,false,false,1375,image-keyboard-response,18
true,13,2,2,2,true,d,false,true,0.0-2.0-0.47-0.428-3.428,1,0,0,68,false,stim,false,1,437.5,1,0,2,53495,task2,1140976,false,false,1378,image-keyboard-response,19
true,13,0,2,0,true,q,false,true,0.0-2.0-0.47-0.429-3.429,1,0,0,81,false,stim,false,1,893.0,1,0,1,53495,task2,1143396,false,false,1381,image-keyboard-response,20
true,13,2,2,2,true,d,false,false,0.0-2.0-0.47-0.430-3.430,1,0,0,68,false,stim,false,1,606.6999999999534,1,0,2,53495,task2,1145525,false,true,1384,image-keyboard-response,21
true,13,0,2,0,true,q,false,true,0.0-2.0-0.47-0.431-3.431,1,0,0,81,false,stim,false,1,716.5999999998603,1,0,1,53495,task2,1147763,false,false,1387,image-keyboard-response,22
true,13,0,2,0,true,q,false,true,0.0-2.0-0.48-0.432-3.432,1,0,0,81,false,stim,false,1,380.5,1,0,1,53495,task2,1149672,false,false,1390,image-keyboard-response,23
true,13,0,2,0,true,q,false,true,0.0-2.0-0.48-0.433-3.433,1,0,0,81,false,stim,false,1,441.89999999990687,1,0,1,53495,task2,1151650,false,false,1393,image-keyboard-response,24
true,13,1,2,2,false,d,false,false,0.0-2.0-0.48-0.434-3.434,1,0,0,90,false,stim,true,1,896.0,1,0,2,53495,task2,1154078,false,false,1396,image-keyboard-response,25
true,13,0,2,2,false,d,true,false,0.0-2.0-0.48-0.435-3.435,1,0,0,81,false,stim,false,1,413.9000000001397,1,0,2,53495,task2,1156014,false,false,1399,image-keyboard-response,26
true,13,0,2,0,true,q,false,true,0.0-2.0-0.48-0.436-3.436,1,0,0,81,false,stim,false,1,852.6000000000931,1,0,1,53495,task2,1158392,false,false,1402,image-keyboard-response,27
true,13,1,2,2,false,d,true,false,0.0-2.0-0.48-0.437-3.437,1,0,0,90,false,stim,false,2,1101.6999999999534,1,1,0,53495,task2,1161013,false,false,1405,image-keyboard-response,28
true,13,2,2,2,true,d,false,true,0.0-2.0-0.48-0.438-3.438,1,0,0,68,false,stim,false,1,851.1999999999534,1,0,2,53495,task2,1163386,false,false,1408,image-keyboard-response,29
true,13,0,2,2,false,d,true,false,0.0-2.0-0.48-0.439-3.439,1,0,0,81,false,stim,false,2,723.0,1,0,0,53495,task2,1165640,false,false,1411,image-keyboard-response,30
true,13,2,2,2,true,d,false,true,0.0-2.0-0.48-0.440-3.440,1,0,0,68,false,stim,false,2,1115.0,1,0,0,53495,task2,1168286,false,false,1414,image-keyboard-response,31
true,13,2,2,2,true,d,false,true,0.0-2.0-0.49-0.441-3.441,1,0,0,68,false,stim,false,2,571.9000000001397,1,0,0,53495,task2,1170385,false,false,1417,image-keyboard-response,32
true,13,2,2,2,true,d,false,true,0.0-2.0-0.49-0.442-3.442,1,0,0,68,false,stim,false,2,551.1999999999534,1,0,0,53495,task2,1172449,false,false,1420,image-keyboard-response,33
true,13,0,2,0,true,q,false,true,0.0-2.0-0.49-0.443-3.443,1,0,0,81,false,stim,false,1,493.0999999998603,1,1,1,53495,task2,1174458,false,false,1423,image-keyboard-response,34
true,14,2,2,1,false,z,false,true,0.0-2.0-0.49-0.444-3.444,0,1,0,68,true,stim,true,2,593.8999999999069,1,0,0,53495,task2,1176569,false,true,1426,image-keyboard-response,1
true,14,0,2,0,true,q,false,true,0.0-2.0-0.49-0.445-3.445,0,1,0,81,false,stim,false,0,922.6000000000931,1,1,1,53495,task2,1179023,false,false,1429,image-keyboard-response,2
true,14,0,2,0,true,q,false,false,0.0-2.0-0.49-0.446-3.446,0,1,0,81,false,stim,false,0,476.39999999990687,1,1,1,53495,task2,1181034,false,true,1432,image-keyboard-response,3
true,14,2,2,0,false,q,false,false,0.0-2.0-0.49-0.447-3.447,0,1,0,68,false,stim,true,2,718.4000000001397,1,0,2,53495,task2,1183283,false,false,1435,image-keyboard-response,4
true,14,1,2,0,false,q,true,false,0.0-2.0-0.49-0.448-3.448,0,1,0,90,false,stim,false,2,1029.7000000001863,1,0,2,53495,task2,1185839,false,false,1438,image-keyboard-response,5
true,14,0,2,0,true,q,false,false,0.0-2.0-0.49-0.449-3.449,0,1,0,81,false,stim,false,2,528.5,1,0,2,53495,task2,1187895,false,true,1441,image-keyboard-response,6
true,14,1,2,0,false,q,true,false,0.0-2.0-0.50-0.450-3.450,0,1,0,90,false,stim,false,0,1451.5999999998603,1,1,1,53495,task2,1190873,false,false,1444,image-keyboard-response,7
true,14,0,2,1,false,z,true,false,0.0-2.0-0.50-0.451-3.451,0,1,0,81,false,stim,false,2,735.6000000000931,1,0,0,53495,task2,1193132,false,false,1447,image-keyboard-response,8
true,14,2,2,0,false,q,false,false,0.0-2.0-0.50-0.452-3.452,0,1,0,68,false,stim,true,2,739.5,1,0,2,53495,task2,1195394,false,false,1450,image-keyboard-response,9
true,14,1,2,0,false,q,true,false,0.0-2.0-0.50-0.453-3.453,0,1,0,90,false,stim,false,2,596.6999999999534,1,0,2,53495,task2,1197513,false,false,1453,image-keyboard-response,10
true,14,1,2,1,true,z,false,true,0.0-2.0-0.50-0.454-3.454,0,1,0,90,false,stim,false,2,926.6000000000931,1,0,0,53495,task2,1199969,false,false,1456,image-keyboard-response,11
true,14,1,2,0,false,q,true,false,0.0-2.0-0.50-0.455-3.455,0,1,0,90,false,stim,false,0,481.60000000009313,1,1,1,53495,task2,1201984,false,false,1459,image-keyboard-response,12
true,14,0,2,0,true,q,false,false,0.0-2.0-0.50-0.456-3.456,0,1,0,81,false,stim,false,0,943.7999999998137,1,1,1,53495,task2,1204448,false,true,1462,image-keyboard-response,13
true,14,1,2,1,true,z,false,true,0.0-2.0-0.50-0.457-3.457,0,1,0,90,false,stim,false,2,853.6000000000931,1,0,0,53495,task2,1206828,false,false,1465,image-keyboard-response,14
true,14,1,2,0,false,q,true,false,0.0-2.0-0.50-0.458-3.458,0,1,0,90,false,stim,false,2,743.8000000000466,1,0,2,53495,task2,1209095,false,false,1468,image-keyboard-response,15
true,14,2,2,0,false,q,false,false,0.0-2.0-0.51-0.459-3.459,0,1,0,68,false,stim,true,2,431.30000000004657,1,0,2,53495,task2,1211053,false,false,1471,image-keyboard-response,16
true,14,1,2,1,true,z,false,false,0.0-2.0-0.51-0.460-3.460,0,1,0,90,false,stim,false,2,806.3999999999069,1,0,0,53495,task2,1213384,false,true,1474,image-keyboard-response,17
true,14,0,2,0,true,q,false,true,0.0-2.0-0.51-0.461-3.461,0,1,0,81,false,stim,false,2,732.0,1,0,2,53495,task2,1215629,false,false,1477,image-keyboard-response,18
true,14,0,2,0,true,q,false,true,0.0-2.0-0.51-0.462-3.462,0,1,0,81,false,stim,false,0,703.1999999999534,1,1,1,53495,task2,1217852,false,false,1480,image-keyboard-response,19
true,14,0,2,0,true,q,false,true,0.0-2.0-0.51-0.463-3.463,0,1,0,81,false,stim,false,0,691.6000000000931,1,1,1,53495,task2,1220065,false,false,1483,image-keyboard-response,20
true,14,0,2,0,true,q,false,false,0.0-2.0-0.51-0.464-3.464,0,1,0,81,false,stim,false,0,416.5,1,1,1,53495,task2,1221999,false,true,1486,image-keyboard-response,21
true,14,0,2,0,true,q,false,true,0.0-2.0-0.51-0.465-3.465,0,1,0,81,false,stim,false,2,648.6999999999534,1,0,2,53495,task2,1224165,false,false,1489,image-keyboard-response,22
true,14,2,2,1,false,z,false,false,0.0-2.0-0.51-0.466-3.466,0,1,0,68,false,stim,true,2,939.1999999999534,1,0,0,53495,task2,1226624,false,false,1492,image-keyboard-response,23
true,14,1,2,1,true,z,false,true,0.0-2.0-0.51-0.467-3.467,0,1,0,90,false,stim,false,2,583.6000000000931,1,0,0,53495,task2,1228721,false,false,1495,image-keyboard-response,24
true,14,1,2,0,false,q,true,false,0.0-2.0-0.52-0.468-3.468,0,1,0,90,false,stim,false,0,490.69999999995343,1,1,1,53495,task2,1230735,false,false,1498,image-keyboard-response,25
true,14,0,2,0,true,q,false,true,0.0-2.0-0.52-0.469-3.469,0,1,0,81,false,stim,false,2,678.9000000001397,1,0,2,53495,task2,1232939,false,false,1501,image-keyboard-response,26
true,14,2,2,0,false,q,true,false,0.0-2.0-0.52-0.470-3.470,0,1,0,68,false,stim,false,0,689.6999999999534,1,1,1,53495,task2,1235157,false,false,1504,image-keyboard-response,27
true,14,1,2,0,false,q,true,false,0.0-2.0-0.52-0.471-3.471,0,1,0,90,false,stim,false,2,1126.5,1,0,2,53495,task2,1237809,false,false,1507,image-keyboard-response,28
true,14,1,2,1,true,z,false,true,0.0-2.0-0.52-0.472-3.472,0,1,0,90,false,stim,false,2,789.3999999999069,1,0,0,53495,task2,1240112,false,false,1510,image-keyboard-response,29
true,14,1,2,1,true,z,false,true,0.0-2.0-0.52-0.473-3.473,0,1,0,90,false,stim,false,2,426.9000000001397,1,0,0,53495,task2,1242059,false,false,1513,image-keyboard-response,30
true,14,0,2,0,true,q,false,true,0.0-2.0-0.52-0.474-3.474,0,1,0,81,false,stim,false,2,486.30000000004657,1,1,2,53495,task2,1244069,false,false,1516,image-keyboard-response,31
true,14,0,2,1,false,z,true,false,0.0-2.0-0.52-0.475-3.475,0,1,0,81,false,stim,false,2,743.3999999999069,1,0,0,53495,task2,1246331,false,false,1519,image-keyboard-response,32
true,14,1,2,0,false,q,true,false,0.0-2.0-0.52-0.476-3.476,0,1,0,90,false,stim,false,0,742.6000000000931,1,0,1,53495,task2,1248595,false,false,1522,image-keyboard-response,33
true,14,0,2,0,true,q,false,true,0.0-2.0-0.53-0.477-3.477,0,1,0,81,false,stim,false,2,676.6000000000931,1,1,2,53495,task2,1250787,false,false,1525,image-keyboard-response,34
true,14,2,2,0,false,q,true,false,0.0-2.0-0.53-0.478-3.478,0,1,0,68,false,stim,false,0,950.1000000000931,1,0,1,53495,task2,1253259,false,false,1528,image-keyboard-response,35
true,15,1,2,0,false,q,false,false,0.0-2.0-0.53-0.479-3.479,0,0,1,90,true,stim,true,1,1143.7000000001863,1,0,0,53495,task2,1255917,false,false,1531,image-keyboard-response,1
true,15,0,2,2,false,d,false,false,0.0-2.0-0.53-0.480-3.480,0,0,1,81,false,stim,true,0,813.2000000001863,1,0,1,53495,task2,1258266,false,false,1534,image-keyboard-response,2
true,15,2,2,0,false,q,true,false,0.0-2.0-0.53-0.481-3.481,0,0,1,68,false,stim,false,1,658.6000000000931,1,0,0,53495,task2,1260440,false,false,1537,image-keyboard-response,3
true,15,1,2,0,false,q,false,false,0.0-2.0-0.53-0.482-3.482,0,0,1,90,false,stim,true,1,579.8000000000466,1,0,0,53495,task2,1262544,false,false,1540,image-keyboard-response,4
true,15,0,2,0,true,q,false,true,0.0-2.0-0.53-0.483-3.483,0,0,1,81,false,stim,false,0,839.0999999998603,1,1,2,53495,task2,1264916,false,false,1543,image-keyboard-response,5
true,15,0,2,0,true,q,false,true,0.0-2.0-0.53-0.484-3.484,0,0,1,81,false,stim,false,0,440.5,1,1,2,53495,task2,1266885,false,false,1546,image-keyboard-response,6
true,15,0,2,2,false,d,false,true,0.0-2.0-0.53-0.485-3.485,0,0,1,81,false,stim,true,0,810.7000000001863,1,0,1,53495,task2,1269227,false,true,1549,image-keyboard-response,7
true,15,2,2,0,false,q,true,true,0.0-2.0-0.54-0.486-3.486,0,0,1,68,false,stim,false,1,803.3000000000466,1,0,0,53495,task2,1271548,false,true,1552,image-keyboard-response,8
true,15,0,2,2,false,d,false,false,0.0-2.0-0.54-0.487-3.487,0,0,1,81,false,stim,true,0,744.1000000000931,1,0,1,53495,task2,1273813,false,false,1555,image-keyboard-response,9
true,15,0,2,0,true,q,false,true,0.0-2.0-0.54-0.488-3.488,0,0,1,81,false,stim,false,0,800.5999999998603,1,1,2,53495,task2,1276138,false,false,1558,image-keyboard-response,10
true,15,2,2,2,true,d,false,true,0.0-2.0-0.54-0.489-3.489,0,0,1,68,false,stim,false,0,563.2999999998137,1,0,1,53495,task2,1278229,false,false,1561,image-keyboard-response,11
true,15,0,2,0,true,q,false,true,0.0-2.0-0.54-0.490-3.490,0,0,1,81,false,stim,false,0,836.7999999998137,1,1,2,53495,task2,1280605,false,false,1564,image-keyboard-response,12
true,15,2,2,2,true,d,false,true,0.0-2.0-0.54-0.491-3.491,0,0,1,68,false,stim,false,0,468.30000000004657,1,0,1,53495,task2,1282603,false,false,1567,image-keyboard-response,13
true,15,0,2,0,true,q,false,true,0.0-2.0-0.54-0.492-3.492,0,0,1,81,false,stim,false,0,852.3999999999069,1,1,2,53495,task2,1284984,false,false,1570,image-keyboard-response,14
true,15,2,2,0,false,q,true,false,0.0-2.0-0.54-0.493-3.493,0,0,1,68,false,stim,false,1,745.0999999998603,1,0,0,53495,task2,1287255,false,false,1573,image-keyboard-response,15
true,15,0,2,0,true,q,false,true,0.0-2.0-0.54-0.494-3.494,0,0,1,81,false,stim,false,1,769.6000000000931,1,0,0,53495,task2,1289553,false,false,1576,image-keyboard-response,16
true,15,0,2,0,true,q,false,true,0.0-2.0-0.55-0.495-3.495,0,0,1,81,false,stim,false,1,606.7000000001863,1,0,0,53495,task2,1291690,false,false,1579,image-keyboard-response,17
true,15,0,2,0,true,q,false,true,0.0-2.0-0.55-0.496-3.496,0,0,1,81,false,stim,false,0,624.2999999998137,1,1,2,53495,task2,1293832,false,false,1582,image-keyboard-response,18
true,15,0,2,0,true,q,false,true,0.0-2.0-0.55-0.497-3.497,0,0,1,81,false,stim,false,1,961.2999999998137,1,0,0,53495,task2,1296319,false,false,1585,image-keyboard-response,19
true,15,0,2,0,true,q,false,true,0.0-2.0-0.55-0.498-3.498,0,0,1,81,false,stim,false,0,807.8999999999069,1,1,2,53495,task2,1298664,false,false,1588,image-keyboard-response,20
true,15,0,2,0,true,q,false,true,0.0-2.0-0.55-0.499-3.499,0,0,1,81,false,stim,false,1,917.0999999998603,1,0,0,53495,task2,1301109,false,false,1591,image-keyboard-response,21
true,15,0,2,0,true,q,false,true,0.0-2.0-0.55-0.500-3.500,0,0,1,81,false,stim,false,0,580.5999999998603,1,1,2,53495,task2,1303210,false,false,1594,image-keyboard-response,22
true,15,2,2,2,true,d,false,true,0.0-2.0-0.55-0.501-3.501,0,0,1,68,false,stim,false,0,718.5999999998603,1,0,1,53495,task2,1305458,false,false,1597,image-keyboard-response,23
true,15,2,2,2,true,d,false,true,0.0-2.0-0.55-0.502-3.502,0,0,1,68,false,stim,false,0,603.8000000000466,1,0,1,53495,task2,1307582,false,false,1600,image-keyboard-response,24
true,15,2,2,2,true,d,false,true,0.0-2.0-0.55-0.503-3.503,0,0,1,68,false,stim,false,0,745.3000000000466,1,0,1,53495,task2,1309843,false,false,1603,image-keyboard-response,25
true,15,2,2,2,true,d,false,true,0.0-2.0-0.56-0.504-3.504,0,0,1,68,false,stim,false,0,1274.1000000000931,1,0,1,53495,task2,1312652,false,false,1606,image-keyboard-response,26
true,15,0,2,0,true,q,false,true,0.0-2.0-0.56-0.505-3.505,0,0,1,81,false,stim,false,0,547.3000000000466,1,1,2,53495,task2,1314725,false,false,1609,image-keyboard-response,27
true,15,0,2,0,true,q,false,true,0.0-2.0-0.56-0.506-3.506,0,0,1,81,false,stim,false,1,659.8000000000466,1,0,0,53495,task2,1316912,false,false,1612,image-keyboard-response,28
true,15,2,2,2,true,d,false,true,0.0-2.0-0.56-0.507-3.507,0,0,1,68,false,stim,false,0,510.79999999981374,1,0,1,53495,task2,1318949,false,false,1615,image-keyboard-response,29
true,15,0,2,0,true,q,false,true,0.0-2.0-0.56-0.508-3.508,0,0,1,81,false,stim,false,0,639.3000000000466,1,0,2,53495,task2,1321104,false,false,1618,image-keyboard-response,30
true,15,2,2,2,true,d,false,true,0.0-2.0-0.56-0.509-3.509,0,0,1,68,false,stim,false,0,804.6999999999534,1,0,1,53495,task2,1323434,false,false,1621,image-keyboard-response,31
true,15,0,2,0,true,q,false,true,0.0-2.0-0.56-0.510-3.510,0,0,1,81,false,stim,false,1,715.3000000000466,1,1,0,53495,task2,1325667,false,false,1624,image-keyboard-response,32
true,15,0,2,0,true,q,false,true,0.0-2.0-0.56-0.511-3.511,0,0,1,81,false,stim,false,0,632.1000000000931,1,0,2,53495,task2,1327828,false,false,1627,image-keyboard-response,33
true,15,0,2,0,true,q,false,true,0.0-2.0-0.56-0.512-3.512,0,0,1,81,false,stim,false,1,589.6000000000931,1,1,0,53495,task2,1329953,false,false,1630,image-keyboard-response,34
true,16,0,2,0,true,q,false,false,0.0-2.0-0.57-0.513-3.513,1,0,0,81,true,stim,false,0,518.3000000000466,1,1,0,53495,task2,1331991,false,true,1633,image-keyboard-response,1
true,16,2,2,1,false,z,false,false,0.0-2.0-0.57-0.514-3.514,1,0,0,68,false,stim,true,2,820.1000000000931,1,0,1,53495,task2,1334337,false,false,1636,image-keyboard-response,2
true,16,0,2,0,true,q,false,true,0.0-2.0-0.57-0.515-3.515,1,0,0,81,false,stim,false,0,908.3000000000466,1,1,0,53495,task2,1336775,false,false,1639,image-keyboard-response,3
true,16,0,2,1,false,z,false,false,0.0-2.0-0.57-0.516-3.516,1,0,0,81,false,stim,true,0,614.3000000000466,1,0,2,53495,task2,1338904,false,false,1642,image-keyboard-response,4
true,16,1,2,1,true,z,false,true,0.0-2.0-0.57-0.517-3.517,1,0,0,90,false,stim,false,0,656.5,1,0,2,53495,task2,1341079,false,false,1645,image-keyboard-response,5
true,16,1,2,1,true,z,false,true,0.0-2.0-0.57-0.518-3.518,1,0,0,90,false,stim,false,2,475.30000000004657,1,0,1,53495,task2,1343085,false,false,1648,image-keyboard-response,6
true,16,1,2,1,true,z,false,true,0.0-2.0-0.57-0.519-3.519,1,0,0,90,false,stim,false,0,741.2000000001863,1,0,2,53495,task2,1345357,false,false,1651,image-keyboard-response,7
true,16,0,2,0,true,q,false,true,0.0-2.0-0.57-0.520-3.520,1,0,0,81,false,stim,false,0,840.5,1,1,0,53495,task2,1347716,false,false,1654,image-keyboard-response,8
true,16,1,2,1,true,z,false,true,0.0-2.0-0.57-0.521-3.521,1,0,0,90,false,stim,false,2,593.0,1,0,1,53495,task2,1349827,false,false,1657,image-keyboard-response,9
true,16,1,2,1,true,z,false,true,0.0-2.0-0.58-0.522-3.522,1,0,0,90,false,stim,false,2,484.9000000001397,1,0,1,53495,task2,1351834,false,false,1660,image-keyboard-response,10
true,16,0,2,0,true,q,false,true,0.0-2.0-0.58-0.523-3.523,1,0,0,81,false,stim,false,0,498.69999999995343,1,1,0,53495,task2,1353851,false,false,1663,image-keyboard-response,11
true,16,1,2,1,true,z,false,true,0.0-2.0-0.58-0.524-3.524,1,0,0,90,false,stim,false,2,661.8999999999069,1,0,1,53495,task2,1356046,false,false,1666,image-keyboard-response,12
true,16,0,2,1,false,z,false,false,0.0-2.0-0.58-0.525-3.525,1,0,0,81,false,stim,true,0,608.4000000001397,1,0,2,53495,task2,1358180,false,false,1669,image-keyboard-response,13
true,16,1,2,0,false,q,true,false,0.0-2.0-0.58-0.526-3.526,1,0,0,90,false,stim,false,0,1134.0,1,1,0,53495,task2,1360845,false,false,1672,image-keyboard-response,14
true,16,1,2,1,true,z,false,true,0.0-2.0-0.58-0.527-3.527,1,0,0,90,false,stim,false,0,1016.1000000000931,1,0,2,53495,task2,1363391,false,false,1675,image-keyboard-response,15
true,16,0,2,0,true,q,false,true,0.0-2.0-0.58-0.528-3.528,1,0,0,81,false,stim,false,0,1045.8000000000466,1,1,0,53495,task2,1365961,false,false,1678,image-keyboard-response,16
true,16,1,2,1,true,z,false,true,0.0-2.0-0.58-0.529-3.529,1,0,0,90,false,stim,false,2,953.2999999998137,1,0,1,53495,task2,1368439,false,false,1681,image-keyboard-response,17
true,16,1,2,1,true,z,false,true,0.0-2.0-0.58-0.530-3.530,1,0,0,90,false,stim,false,0,726.1999999999534,1,0,2,53495,task2,1370685,false,false,1684,image-keyboard-response,18
true,16,1,2,0,false,q,true,false,0.0-2.0-0.59-0.531-3.531,1,0,0,90,false,stim,false,0,1254.8999999999069,1,1,0,53495,task2,1373462,false,false,1687,image-keyboard-response,19
true,16,1,2,1,true,z,false,true,0.0-2.0-0.59-0.532-3.532,1,0,0,90,false,stim,false,2,1032.8000000000466,1,0,1,53495,task2,1376023,false,false,1690,image-keyboard-response,20
true,16,1,2,1,true,z,false,true,0.0-2.0-0.59-0.533-3.533,1,0,0,90,false,stim,false,0,555.0999999998603,1,0,2,53495,task2,1378098,false,false,1693,image-keyboard-response,21
true,16,0,2,0,true,q,false,true,0.0-2.0-0.59-0.534-3.534,1,0,0,81,false,stim,false,0,445.80000000004657,1,1,0,53495,task2,1380077,false,false,1696,image-keyboard-response,22
true,16,0,2,0,true,q,false,false,0.0-2.0-0.59-0.535-3.535,1,0,0,81,false,stim,false,0,522.6000000000931,1,1,0,53495,task2,1382127,false,true,1699,image-keyboard-response,23
true,16,2,2,1,false,z,false,false,0.0-2.0-0.59-0.536-3.536,1,0,0,68,false,stim,true,2,1156.2000000001863,1,0,1,53495,task2,1384813,false,false,1702,image-keyboard-response,24
true,16,1,2,1,true,z,false,false,0.0-2.0-0.59-0.537-3.537,1,0,0,90,false,stim,false,0,802.4000000001397,1,0,2,53495,task2,1387137,false,true,1705,image-keyboard-response,25
true,16,0,2,1,false,z,true,true,0.0-2.0-0.59-0.538-3.538,1,0,0,81,false,stim,false,2,783.8000000000466,1,0,1,53495,task2,1389444,false,true,1708,image-keyboard-response,26
true,16,0,2,1,false,z,false,false,0.0-2.0-0.59-0.539-3.539,1,0,0,81,false,stim,true,0,764.3000000000466,1,1,2,53495,task2,1391731,false,false,1711,image-keyboard-response,27
true,16,2,2,1,false,z,true,false,0.0-2.0-0.60-0.540-3.540,1,0,0,68,false,stim,false,0,1015.0,1,1,2,53495,task2,1394266,false,false,1714,image-keyboard-response,28
true,16,0,2,1,false,z,true,false,0.0-2.0-0.60-0.541-3.541,1,0,0,81,false,stim,false,2,892.5,1,1,1,53495,task2,1396696,false,false,1717,image-keyboard-response,29
true,16,0,2,0,true,q,false,true,0.0-2.0-0.60-0.542-3.542,1,0,0,81,false,stim,false,0,1017.0,1,1,0,53495,task2,1399243,false,false,1720,image-keyboard-response,30
true,16,0,2,1,false,z,false,false,0.0-2.0-0.60-0.543-3.543,1,0,0,81,false,stim,true,0,626.6000000000931,1,1,2,53495,task2,1401381,false,false,1723,image-keyboard-response,31
true,17,2,0,1,false,z,true,false,0.0-2.0-0.60-0.544-3.544,1,1,1,68,true,stim,false,1,540.1999999999534,1,1,2,53495,task2,1524657,false,false,1846,image-keyboard-response,1
true,17,0,0,1,false,z,true,false,0.0-2.0-0.60-0.545-3.545,1,1,1,81,false,stim,false,1,690.4000000001397,1,1,1,53495,task2,1526868,false,false,1849,image-keyboard-response,2
true,17,1,0,1,true,z,false,false,0.0-2.0-0.60-0.546-3.546,1,1,1,90,false,stim,false,1,846.5,1,1,1,53495,task2,1529238,false,true,1852,image-keyboard-response,3
true,17,1,0,0,false,q,true,false,0.0-2.0-0.60-0.547-3.547,1,1,1,90,false,stim,false,0,958.9000000001397,1,1,0,53495,task2,1531727,false,false,1855,image-keyboard-response,4
true,17,2,0,0,false,q,true,false,0.0-2.0-0.60-0.548-3.548,1,1,1,68,false,stim,false,0,688.6999999999534,1,1,0,53495,task2,1533940,false,false,1858,image-keyboard-response,5
true,17,2,0,1,false,z,true,false,0.0-2.0-0.61-0.549-3.549,1,1,1,68,false,stim,false,1,910.6999999999534,1,1,1,53495,task2,1536379,false,false,1861,image-keyboard-response,6
true,17,0,0,1,false,z,true,false,0.0-2.0-0.61-0.550-3.550,1,1,1,81,false,stim,false,1,519.0,1,1,2,53495,task2,1538424,false,false,1864,image-keyboard-response,7
true,17,0,0,1,false,z,true,false,0.0-2.0-0.61-0.551-3.551,1,1,1,81,false,stim,false,1,618.6000000000931,1,1,1,53495,task2,1540569,false,false,1867,image-keyboard-response,8
true,17,0,0,0,true,q,false,true,0.0-2.0-0.61-0.552-3.552,1,1,1,81,false,stim,false,0,498.69999999995343,1,0,0,53495,task2,1542599,false,false,1870,image-keyboard-response,9
true,17,0,0,1,false,z,true,false,0.0-2.0-0.61-0.553-3.553,1,1,1,81,false,stim,false,1,671.9000000001397,1,0,2,53495,task2,1544787,false,false,1873,image-keyboard-response,10
true,17,0,0,0,true,q,false,true,0.0-2.0-0.61-0.554-3.554,1,1,1,81,false,stim,false,0,769.2999999998137,1,0,0,53495,task2,1547078,false,false,1876,image-keyboard-response,11
true,17,0,0,1,false,z,true,false,0.0-2.0-0.61-0.555-3.555,1,1,1,81,false,stim,false,1,585.5,1,0,1,53495,task2,1549196,false,false,1879,image-keyboard-response,12
true,17,2,0,1,false,z,true,false,0.0-2.0-0.61-0.556-3.556,1,1,1,68,false,stim,false,1,502.69999999995343,1,0,2,53495,task2,1551214,false,false,1882,image-keyboard-response,13
true,18,0,1,1,false,z,false,false,0.0-2.0-0.61-0.557-3.557,0,0,0,81,true,stim,true,0,714.0,1,0,0,53495,task2,1553461,false,false,1885,image-keyboard-response,1
true,18,1,1,1,true,z,false,true,0.0-2.0-0.62-0.558-3.558,0,0,0,90,false,stim,false,0,598.0999999998603,1,0,0,53495,task2,1555587,false,false,1888,image-keyboard-response,2
true,18,1,1,1,true,z,false,true,0.0-2.0-0.62-0.559-3.559,0,0,0,90,false,stim,false,0,668.4000000001397,1,0,0,53495,task2,1557780,false,false,1891,image-keyboard-response,3
true,18,1,1,2,false,d,false,false,0.0-2.0-0.62-0.560-3.560,0,0,0,90,false,stim,true,1,946.3000000000466,1,0,2,53495,task2,1560259,false,false,1894,image-keyboard-response,4
true,18,1,1,2,false,d,false,false,0.0-2.0-0.62-0.561-3.561,0,0,0,90,false,stim,true,1,773.4000000001397,1,0,1,53495,task2,1562549,false,false,1897,image-keyboard-response,5
true,18,1,1,1,true,z,false,true,0.0-2.0-0.62-0.562-3.562,0,0,0,90,false,stim,false,0,901.1999999999534,1,0,0,53495,task2,1564976,false,false,1900,image-keyboard-response,6
true,18,0,1,2,false,d,true,true,0.0-2.0-0.62-0.563-3.563,0,0,0,81,false,stim,false,1,479.80000000004657,1,0,2,53495,task2,1566986,false,true,1903,image-keyboard-response,7
true,18,0,1,2,false,d,true,false,0.0-2.0-0.62-0.564-3.564,0,0,0,81,false,stim,false,1,472.9000000001397,1,0,2,53495,task2,1568973,false,false,1906,image-keyboard-response,8
true,18,0,1,2,false,d,true,false,0.0-2.0-0.62-0.565-3.565,0,0,0,81,false,stim,false,1,1153.6999999999534,1,0,1,53495,task2,1571638,false,false,1909,image-keyboard-response,9
true,18,1,1,2,false,d,false,false,0.0-2.0-0.62-0.566-3.566,0,0,0,90,false,stim,true,1,727.1000000000931,1,0,1,53495,task2,1573890,false,false,1912,image-keyboard-response,10
true,18,1,1,2,false,d,false,false,0.0-2.0-0.63-0.567-3.567,0,0,0,90,false,stim,true,1,1057.8000000000466,1,0,2,53495,task2,1576484,false,false,1915,image-keyboard-response,11
true,18,2,1,2,true,d,false,false,0.0-2.0-0.63-0.568-3.568,0,0,0,68,false,stim,false,1,919.1999999999534,1,0,1,53495,task2,1578921,false,true,1918,image-keyboard-response,12
true,18,0,1,2,false,d,true,false,0.0-2.0-0.63-0.569-3.569,0,0,0,81,false,stim,false,1,1011.0,1,0,2,53495,task2,1581463,false,false,1921,image-keyboard-response,13
true,18,2,1,2,true,d,false,true,0.0-2.0-0.63-0.570-3.570,0,0,0,68,false,stim,false,1,1336.0999999998603,1,0,1,53495,task2,1584322,false,false,1924,image-keyboard-response,14
true,18,1,1,1,true,z,false,true,0.0-2.0-0.63-0.571-3.571,0,0,0,90,false,stim,false,0,743.6000000000931,1,0,0,53495,task2,1586578,false,false,1927,image-keyboard-response,15
true,18,1,1,1,true,z,false,false,0.0-2.0-0.63-0.572-3.572,0,0,0,90,false,stim,false,0,473.19999999995343,1,0,0,53495,task2,1588579,false,true,1930,image-keyboard-response,16
true,18,2,1,2,true,d,false,true,0.0-2.0-0.63-0.573-3.573,0,0,0,68,false,stim,false,1,528.1000000000931,1,0,1,53495,task2,1590643,false,false,1933,image-keyboard-response,17
true,18,2,1,2,true,d,false,true,0.0-2.0-0.63-0.574-3.574,0,0,0,68,false,stim,false,1,547.0999999998603,1,0,2,53495,task2,1592706,false,false,1936,image-keyboard-response,18
true,18,0,1,1,false,z,false,false,0.0-2.0-0.63-0.575-3.575,0,0,0,81,false,stim,true,0,864.9000000001397,1,0,0,53495,task2,1595096,false,false,1939,image-keyboard-response,19
true,18,2,1,2,true,d,false,true,0.0-2.0-0.64-0.576-3.576,0,0,0,68,false,stim,false,1,589.5,1,0,2,53495,task2,1597211,false,false,1942,image-keyboard-response,20
true,18,2,1,2,true,d,false,true,0.0-2.0-0.64-0.577-3.577,0,0,0,68,false,stim,false,1,373.5,1,0,2,53495,task2,1599104,false,false,1945,image-keyboard-response,21
true,18,2,1,2,true,d,false,true,0.0-2.0-0.64-0.578-3.578,0,0,0,68,false,stim,false,1,802.5,1,0,1,53495,task2,1601424,false,false,1948,image-keyboard-response,22
true,18,1,1,1,true,z,false,true,0.0-2.0-0.64-0.579-3.579,0,0,0,90,false,stim,false,0,504.30000000004657,1,0,0,53495,task2,1603450,false,false,1951,image-keyboard-response,23
true,18,1,1,1,true,z,false,true,0.0-2.0-0.64-0.580-3.580,0,0,0,90,false,stim,false,0,431.69999999995343,1,0,0,53495,task2,1605418,false,false,1954,image-keyboard-response,24
true,18,2,1,2,true,d,false,true,0.0-2.0-0.64-0.581-3.581,0,0,0,68,false,stim,false,1,430.29999999981374,1,0,2,53495,task2,1607366,false,false,1957,image-keyboard-response,25
true,18,1,1,1,true,z,false,true,0.0-2.0-0.64-0.582-3.582,0,0,0,90,false,stim,false,0,646.0,1,0,0,53495,task2,1609533,false,false,1960,image-keyboard-response,26
true,18,2,1,2,true,d,false,true,0.0-2.0-0.64-0.583-3.583,0,0,0,68,false,stim,false,1,833.0,1,0,1,53495,task2,1611885,false,false,1963,image-keyboard-response,27
true,18,2,1,2,true,d,false,true,0.0-2.0-0.64-0.584-3.584,0,0,0,68,false,stim,false,1,566.6000000000931,1,0,1,53495,task2,1613981,false,false,1966,image-keyboard-response,28
true,18,1,1,1,true,z,false,true,0.0-2.0-0.65-0.585-3.585,0,0,0,90,false,stim,false,0,443.30000000004657,1,0,0,53495,task2,1615942,false,false,1969,image-keyboard-response,29
true,18,2,1,2,true,d,false,false,0.0-2.0-0.65-0.586-3.586,0,0,0,68,false,stim,false,1,570.5,1,0,2,53495,task2,1618033,false,true,1972,image-keyboard-response,30
true,18,1,1,2,false,d,false,false,0.0-2.0-0.65-0.587-3.587,0,0,0,90,false,stim,true,1,551.6000000000931,1,0,2,53495,task2,1620107,false,false,1975,image-keyboard-response,31
true,18,0,1,2,false,d,true,false,0.0-2.0-0.65-0.588-3.588,0,0,0,81,false,stim,false,1,505.5,1,0,2,53495,task2,1622133,false,false,1978,image-keyboard-response,32
true,18,1,1,1,true,z,false,true,0.0-2.0-0.65-0.589-3.589,0,0,0,90,false,stim,false,0,847.5,1,0,0,53495,task2,1624508,false,false,1981,image-keyboard-response,33
