answered,blockNum,choice,condition,corResp,correct,correct_response,explo,fb,internal_node_id,isStable_1,isStable_2,isStable_3,key_press,newBlock,part,persev,persevResp,rt,sessNum,stableAS,stimulus,subject,task,time_elapsed,training,trap,trial_index,trial_type,trialsInBlock
true,1,1,0,1,true,z,false,true,0.0-2.0-0.0-0.0-3.0,0,0,0,90,true,stim,false,-1,2604,0,0,0,56472,task1,315146,false,false,101,image-keyboard-response,1
true,1,2,0,0,false,q,true,false,0.0-2.0-0.0-0.1-3.1,0,0,0,68,false,stim,false,-1,1137,0,0,1,56472,task1,317807,false,false,104,image-keyboard-response,2
true,1,1,0,1,true,z,false,true,0.0-2.0-0.0-0.2-3.2,0,0,0,90,false,stim,false,-1,1529,0,0,0,56472,task1,320869,false,false,107,image-keyboard-response,3
true,1,0,0,0,true,q,false,true,0.0-2.0-0.0-0.3-3.3,0,0,0,81,false,stim,false,-1,996,0,0,1,56472,task1,323386,false,false,110,image-keyboard-response,4
true,1,1,0,0,false,q,true,false,0.0-2.0-0.0-0.4-3.4,0,0,0,90,false,stim,false,-1,877,0,0,2,56472,task1,325778,false,false,113,image-keyboard-response,5
true,1,2,0,0,false,q,true,false,0.0-2.0-0.0-0.5-3.5,0,0,0,68,false,stim,false,-1,1339,0,0,2,56472,task1,328639,false,false,116,image-keyboard-response,6
true,1,0,0,0,true,q,false,true,0.0-2.0-0.0-0.6-3.6,0,0,0,81,false,stim,false,-1,491,0,0,2,56472,task1,330641,false,false,119,image-keyboard-response,7
true,1,1,0,1,true,z,false,true,0.0-2.0-0.0-0.7-3.7,0,0,0,90,false,stim,false,-1,1297,0,0,0,56472,task1,333458,false,false,122,image-keyboard-response,8
true,1,1,0,0,false,q,true,false,0.0-2.0-0.0-0.8-3.8,0,0,0,90,false,stim,false,-1,1015,0,0,1,56472,task1,335990,false,false,125,image-keyboard-response,9
true,1,0,0,0,true,q,false,true,0.0-2.0-0.1-0.9-3.9,0,0,0,81,false,stim,false,-1,975,0,0,1,56472,task1,338487,false,false,128,image-keyboard-response,10
true,1,1,0,1,true,z,false,true,0.0-2.0-0.1-0.10-3.10,0,0,0,90,false,stim,false,-1,1547,0,0,0,56472,task1,341558,false,false,131,image-keyboard-response,11
true,1,2,0,0,false,q,true,false,0.0-2.0-0.1-0.11-3.11,0,0,0,68,false,stim,false,-1,504,0,0,2,56472,task1,343586,false,false,134,image-keyboard-response,12
true,1,1,0,1,true,z,false,true,0.0-2.0-0.1-0.12-3.12,0,0,0,90,false,stim,false,-1,1263,0,0,0,56472,task1,346363,false,false,137,image-keyboard-response,13
true,1,0,0,0,true,q,false,true,0.0-2.0-0.1-0.13-3.13,0,0,0,81,false,stim,false,-1,1171,0,0,2,56472,task1,349064,false,false,140,image-keyboard-response,14
true,1,0,0,0,true,q,false,false,0.0-2.0-0.1-0.14-3.14,0,0,0,81,false,stim,false,-1,1130,0,0,1,56472,task1,351731,false,true,143,image-keyboard-response,15
true,1,0,0,0,true,q,false,true,0.0-2.0-0.1-0.15-3.15,0,0,0,81,false,stim,false,-1,1389,0,0,2,56472,task1,354658,false,false,146,image-keyboard-response,16
true,1,1,0,1,true,z,false,true,0.0-2.0-0.1-0.16-3.16,0,0,0,90,false,stim,false,-1,1199,0,0,0,56472,task1,357389,false,false,149,image-keyboard-response,17
true,1,2,0,0,false,q,true,false,0.0-2.0-0.1-0.17-3.17,0,0,0,68,false,stim,false,-1,1415,0,0,1,56472,task1,360326,false,false,152,image-keyboard-response,18
true,1,1,0,0,false,q,true,false,0.0-2.0-0.2-0.18-3.18,0,0,0,90,false,stim,false,-1,1541,0,0,2,56472,task1,363392,false,false,155,image-keyboard-response,19
true,1,1,0,1,true,z,false,true,0.0-2.0-0.2-0.19-3.19,0,0,0,90,false,stim,false,-1,1058,0,0,0,56472,task1,365988,false,false,158,image-keyboard-response,20
true,1,1,0,1,true,z,false,true,0.0-2.0-0.2-0.20-3.20,0,0,0,90,false,stim,false,-1,1165,0,0,0,56472,task1,368696,false,false,161,image-keyboard-response,21
true,1,0,0,0,true,q,false,true,0.0-2.0-0.2-0.21-3.21,0,0,0,81,false,stim,false,-1,1152,0,0,2,56472,task1,371382,false,false,164,image-keyboard-response,22
true,1,0,0,0,true,q,false,true,0.0-2.0-0.2-0.22-3.22,0,0,0,81,false,stim,false,-1,884,0,0,1,56472,task1,373805,false,false,167,image-keyboard-response,23
true,1,0,0,0,true,q,false,false,0.0-2.0-0.2-0.23-3.23,0,0,0,81,false,stim,false,-1,811,0,0,1,56472,task1,376142,false,true,170,image-keyboard-response,24
true,1,2,0,1,false,z,true,false,0.0-2.0-0.2-0.24-3.24,0,0,0,68,false,stim,false,-1,1203,0,0,0,56472,task1,378873,false,false,173,image-keyboard-response,25
true,1,1,0,0,false,q,true,false,0.0-2.0-0.2-0.25-3.25,0,0,0,90,false,stim,false,-1,817,0,0,1,56472,task1,381214,false,false,176,image-keyboard-response,26
true,2,0,1,2,false,d,false,false,0.0-2.0-0.2-0.26-3.26,0,0,0,81,true,stim,true,0,1486,0,0,2,56472,task1,384236,false,false,179,image-keyboard-response,1
true,2,0,1,0,true,q,false,true,0.0-2.0-0.3-0.27-3.27,0,0,0,81,false,stim,false,1,1602,0,0,0,56472,task1,387362,false,false,182,image-keyboard-response,2
true,2,2,1,2,true,d,false,true,0.0-2.0-0.3-0.28-3.28,0,0,0,68,false,stim,false,0,1843,0,0,2,56472,task1,390742,false,false,185,image-keyboard-response,3
true,2,2,1,2,true,d,false,true,0.0-2.0-0.3-0.29-3.29,0,0,0,68,false,stim,false,0,580,0,0,2,56472,task1,392839,false,false,188,image-keyboard-response,4
true,2,0,1,2,false,d,false,false,0.0-2.0-0.3-0.30-3.30,0,0,0,81,false,stim,true,0,1538,0,0,1,56472,task1,395887,false,false,191,image-keyboard-response,5
true,2,1,1,2,false,d,true,false,0.0-2.0-0.3-0.31-3.31,0,0,0,90,false,stim,false,0,1103,0,0,1,56472,task1,398523,false,false,194,image-keyboard-response,6
true,2,0,1,2,false,d,false,false,0.0-2.0-0.3-0.32-3.32,0,0,0,81,false,stim,true,0,1539,0,0,2,56472,task1,401599,false,false,197,image-keyboard-response,7
true,2,1,1,0,false,q,false,false,0.0-2.0-0.3-0.33-3.33,0,0,0,90,false,stim,true,1,1805,0,0,0,56472,task1,404925,false,false,200,image-keyboard-response,8
true,2,2,1,2,true,d,false,false,0.0-2.0-0.3-0.34-3.34,0,0,0,68,false,stim,false,0,1904,0,0,1,56472,task1,408346,false,true,203,image-keyboard-response,9
true,2,1,1,0,false,q,false,false,0.0-2.0-0.3-0.35-3.35,0,0,0,90,false,stim,true,1,1602,0,0,0,56472,task1,411467,false,false,206,image-keyboard-response,10
true,2,2,1,0,false,q,true,false,0.0-2.0-0.4-0.36-3.36,0,0,0,68,false,stim,false,1,1600,0,0,0,56472,task1,414597,false,false,209,image-keyboard-response,11
true,2,2,1,2,true,d,false,true,0.0-2.0-0.4-0.37-3.37,0,0,0,68,false,stim,false,0,1713,0,0,1,56472,task1,417843,false,false,212,image-keyboard-response,12
true,2,2,1,2,true,d,false,true,0.0-2.0-0.4-0.38-3.38,0,0,0,68,false,stim,false,0,863,0,0,1,56472,task1,420230,false,false,215,image-keyboard-response,13
true,2,1,1,2,false,d,true,false,0.0-2.0-0.4-0.39-3.39,0,0,0,90,false,stim,false,0,1947,0,0,2,56472,task1,423696,false,false,218,image-keyboard-response,14
true,2,0,1,0,true,q,false,true,0.0-2.0-0.4-0.40-3.40,0,0,0,81,false,stim,false,1,2687,0,0,0,56472,task1,427891,false,false,221,image-keyboard-response,15
true,2,2,1,2,true,d,false,true,0.0-2.0-0.4-0.41-3.41,0,0,0,68,false,stim,false,0,1916,0,0,2,56472,task1,431316,false,false,224,image-keyboard-response,16
true,2,2,1,2,true,d,false,true,0.0-2.0-0.4-0.42-3.42,0,0,0,68,false,stim,false,0,1122,0,0,1,56472,task1,433948,false,false,227,image-keyboard-response,17
true,2,1,1,0,false,q,false,false,0.0-2.0-0.4-0.43-3.43,0,0,0,90,false,stim,true,1,1556,0,0,0,56472,task1,437025,false,false,230,image-keyboard-response,18
true,2,0,1,2,false,d,false,false,0.0-2.0-0.4-0.44-3.44,0,0,0,81,false,stim,true,0,1621,0,0,2,56472,task1,440165,false,false,233,image-keyboard-response,19
true,2,2,1,2,true,d,false,true,0.0-2.0-0.5-0.45-3.45,0,0,0,68,false,stim,false,0,1114,0,0,1,56472,task1,442796,false,false,236,image-keyboard-response,20
true,2,2,1,2,true,d,false,true,0.0-2.0-0.5-0.46-3.46,0,0,0,68,false,stim,false,0,1092,0,0,2,56472,task1,445413,false,false,239,image-keyboard-response,21
true,2,2,1,2,true,d,false,true,0.0-2.0-0.5-0.47-3.47,0,0,0,68,false,stim,false,0,1634,0,0,1,56472,task1,448555,false,false,242,image-keyboard-response,22
true,2,2,1,2,true,d,false,true,0.0-2.0-0.5-0.48-3.48,0,0,0,68,false,stim,false,0,883,0,0,2,56472,task1,450951,false,false,245,image-keyboard-response,23
true,2,2,1,2,true,d,false,true,0.0-2.0-0.5-0.49-3.49,0,0,0,68,false,stim,false,0,829,0,0,1,56472,task1,453288,false,false,248,image-keyboard-response,24
true,2,0,1,0,true,q,false,true,0.0-2.0-0.5-0.50-3.50,0,0,0,81,false,stim,false,1,1338,0,0,0,56472,task1,456138,false,false,251,image-keyboard-response,25
true,2,0,1,0,true,q,false,true,0.0-2.0-0.5-0.51-3.51,0,0,0,81,false,stim,false,1,789,0,0,0,56472,task1,458437,false,false,254,image-keyboard-response,26
true,2,0,1,0,true,q,false,true,0.0-2.0-0.5-0.52-3.52,0,0,0,81,false,stim,false,1,777,0,0,0,56472,task1,460740,false,false,257,image-keyboard-response,27
true,2,2,1,2,true,d,false,true,0.0-2.0-0.5-0.53-3.53,0,0,0,68,false,stim,false,0,998,0,0,2,56472,task1,463252,false,false,260,image-keyboard-response,28
true,2,0,1,0,true,q,false,true,0.0-2.0-0.6-0.54-3.54,0,0,0,81,false,stim,false,1,1209,0,0,0,56472,task1,465988,false,false,263,image-keyboard-response,29
true,2,2,1,2,true,d,false,true,0.0-2.0-0.6-0.55-3.55,0,0,0,68,false,stim,false,0,776,0,0,2,56472,task1,468280,false,false,266,image-keyboard-response,30
true,2,2,1,2,true,d,false,true,0.0-2.0-0.6-0.56-3.56,0,0,0,68,false,stim,false,0,1803,0,0,1,56472,task1,471606,false,false,269,image-keyboard-response,31
true,2,0,1,0,true,q,false,true,0.0-2.0-0.6-0.57-3.57,0,0,0,81,false,stim,false,1,632,0,0,0,56472,task1,473748,false,false,272,image-keyboard-response,32
true,2,0,1,0,true,q,false,true,0.0-2.0-0.6-0.58-3.58,0,0,0,81,false,stim,false,1,751,0,0,0,56472,task1,476017,false,false,275,image-keyboard-response,33
true,2,2,1,2,true,d,false,true,0.0-2.0-0.6-0.59-3.59,0,0,0,68,false,stim,false,0,839,0,0,1,56472,task1,478373,false,false,278,image-keyboard-response,34
true,2,2,1,2,true,d,false,true,0.0-2.0-0.6-0.60-3.60,0,0,0,68,false,stim,false,0,712,0,0,2,56472,task1,480611,false,false,281,image-keyboard-response,35
true,2,2,1,2,true,d,false,true,0.0-2.0-0.6-0.61-3.61,0,0,0,68,false,stim,false,0,1023,0,0,1,56472,task1,483167,false,false,284,image-keyboard-response,36
true,2,2,1,2,true,d,false,true,0.0-2.0-0.6-0.62-3.62,0,0,0,68,false,stim,false,0,640,0,0,2,56472,task1,485329,false,false,287,image-keyboard-response,37
true,2,2,1,2,true,d,false,true,0.0-2.0-0.7-0.63-3.63,0,0,0,68,false,stim,false,0,1154,0,0,1,56472,task1,488006,false,false,290,image-keyboard-response,38
true,2,0,1,0,true,q,false,true,0.0-2.0-0.7-0.64-3.64,0,0,0,81,false,stim,false,1,561,0,0,0,56472,task1,490090,false,false,293,image-keyboard-response,39
true,2,2,1,2,true,d,false,true,0.0-2.0-0.7-0.65-3.65,0,0,0,68,false,stim,false,0,671,0,0,1,56472,task1,492271,false,false,296,image-keyboard-response,40
true,2,0,1,0,true,q,false,true,0.0-2.0-0.7-0.66-3.66,0,0,0,81,false,stim,false,1,728,0,0,0,56472,task1,494528,false,false,299,image-keyboard-response,41
true,2,2,1,2,true,d,false,true,0.0-2.0-0.7-0.67-3.67,0,0,0,68,false,stim,false,0,387,0,0,1,56472,task1,496440,false,false,302,image-keyboard-response,42
true,2,2,1,2,true,d,false,true,0.0-2.0-0.7-0.68-3.68,0,0,0,68,false,stim,false,0,782,0,0,2,56472,task1,498742,false,false,305,image-keyboard-response,43
true,2,2,1,2,true,d,false,true,0.0-2.0-0.7-0.69-3.69,0,0,0,68,false,stim,false,0,772,0,0,2,56472,task1,501041,false,false,308,image-keyboard-response,44
true,3,0,1,2,false,d,false,true,0.0-2.0-0.7-0.70-3.70,0,0,0,81,true,stim,true,0,473,0,0,0,56472,task1,503029,false,true,311,image-keyboard-response,1
true,3,2,1,0,false,q,false,false,0.0-2.0-0.7-0.71-3.71,0,0,0,68,false,stim,true,2,636,0,0,2,56472,task1,505189,false,false,314,image-keyboard-response,2
true,3,2,1,1,false,z,false,false,0.0-2.0-0.8-0.72-3.72,0,0,0,68,false,stim,true,2,1892,0,0,1,56472,task1,508600,false,false,317,image-keyboard-response,3
true,3,0,1,2,false,d,false,false,0.0-2.0-0.8-0.73-3.73,0,0,0,81,false,stim,true,0,1545,0,0,0,56472,task1,511667,false,false,320,image-keyboard-response,4
true,3,2,1,0,false,q,false,false,0.0-2.0-0.8-0.74-3.74,0,0,0,68,false,stim,true,2,2955,0,0,2,56472,task1,516137,false,false,323,image-keyboard-response,5
true,3,0,1,2,false,d,false,false,0.0-2.0-0.8-0.75-3.75,0,0,0,81,false,stim,true,0,2320,0,0,0,56472,task1,519987,false,false,326,image-keyboard-response,6
true,3,2,1,1,false,z,false,true,0.0-2.0-0.8-0.76-3.76,0,0,0,68,false,stim,true,2,2551,0,0,1,56472,task1,524071,false,true,329,image-keyboard-response,7
false,3,-1,1,2,false,d,true,false,0.0-2.0-0.8-0.77-3.77,0,0,0,,false,stim,false,0,,0,0,0,56472,task1,528593,false,false,332,image-keyboard-response,8
true,3,1,1,0,false,q,true,false,0.0-2.0-0.8-0.78-3.78,0,0,0,90,false,stim,false,2,1852,0,0,2,56472,task1,531967,false,false,335,image-keyboard-response,9
true,3,2,1,1,false,z,false,true,0.0-2.0-0.8-0.79-3.79,0,0,0,68,false,stim,true,2,1468,0,0,1,56472,task1,534948,false,true,338,image-keyboard-response,10
true,3,1,1,0,false,q,true,false,0.0-2.0-0.8-0.80-3.80,0,0,0,90,false,stim,false,2,1868,0,0,2,56472,task1,538338,false,false,341,image-keyboard-response,11
true,3,1,1,2,false,d,true,false,0.0-2.0-0.9-0.81-3.81,0,0,0,90,false,stim,false,0,1091,0,0,0,56472,task1,540951,false,false,344,image-keyboard-response,12
true,3,0,1,0,true,q,false,true,0.0-2.0-0.9-0.82-3.82,0,0,0,81,false,stim,false,2,1514,0,0,2,56472,task1,543982,false,false,347,image-keyboard-response,13
true,3,0,1,0,true,q,false,true,0.0-2.0-0.9-0.83-3.83,0,0,0,81,false,stim,false,2,993,0,0,2,56472,task1,546482,false,false,350,image-keyboard-response,14
true,3,0,1,0,true,q,false,true,0.0-2.0-0.9-0.84-3.84,0,0,0,81,false,stim,false,2,765,0,0,2,56472,task1,548765,false,false,353,image-keyboard-response,15
true,3,2,1,1,false,z,false,false,0.0-2.0-0.9-0.85-3.85,0,0,0,68,false,stim,true,2,1426,0,0,1,56472,task1,551721,false,false,356,image-keyboard-response,16
true,3,2,1,2,true,d,false,false,0.0-2.0-0.9-0.86-3.86,0,0,0,68,false,stim,false,0,1577,0,0,0,56472,task1,554808,false,true,359,image-keyboard-response,17
true,3,1,1,1,true,z,false,true,0.0-2.0-0.9-0.87-3.87,0,0,0,90,false,stim,false,2,1736,0,0,1,56472,task1,558072,false,false,362,image-keyboard-response,18
true,3,1,1,2,false,d,true,false,0.0-2.0-0.9-0.88-3.88,0,0,0,90,false,stim,false,0,1449,0,0,0,56472,task1,561050,false,false,365,image-keyboard-response,19
true,3,0,1,1,false,z,true,false,0.0-2.0-0.9-0.89-3.89,0,0,0,81,false,stim,false,2,1706,0,0,1,56472,task1,564281,false,false,368,image-keyboard-response,20
true,3,0,1,0,true,q,false,true,0.0-2.0-0.10-0.90-3.90,0,0,0,81,false,stim,false,2,1543,0,0,2,56472,task1,567332,false,false,371,image-keyboard-response,21
true,3,0,1,0,true,q,false,true,0.0-2.0-0.10-0.91-3.91,0,0,0,81,false,stim,false,2,637,0,0,2,56472,task1,569494,false,false,374,image-keyboard-response,22
true,3,2,1,1,false,z,false,false,0.0-2.0-0.10-0.92-3.92,0,0,0,68,false,stim,true,2,1015,0,0,1,56472,task1,572021,false,false,377,image-keyboard-response,23
true,3,1,1,1,true,z,false,true,0.0-2.0-0.10-0.93-3.93,0,0,0,90,false,stim,false,2,753,0,0,1,56472,task1,574292,false,false,380,image-keyboard-response,24
true,3,2,1,2,true,d,false,true,0.0-2.0-0.10-0.94-3.94,0,0,0,68,false,stim,false,0,2409,0,0,0,56472,task1,578217,false,false,383,image-keyboard-response,25
true,3,2,1,2,true,d,false,true,0.0-2.0-0.10-0.95-3.95,0,0,0,68,false,stim,false,0,707,0,0,0,56472,task1,580458,false,false,386,image-keyboard-response,26
true,3,1,1,1,true,z,false,false,0.0-2.0-0.10-0.96-3.96,0,0,0,90,false,stim,false,2,1136,0,0,1,56472,task1,583116,false,true,389,image-keyboard-response,27
true,3,0,1,0,true,q,false,true,0.0-2.0-0.10-0.97-3.97,0,0,0,81,false,stim,false,2,1512,0,0,2,56472,task1,586151,false,false,392,image-keyboard-response,28
true,3,2,1,2,true,d,false,true,0.0-2.0-0.10-0.98-3.98,0,0,0,68,false,stim,false,0,1571,0,0,0,56472,task1,589243,false,false,395,image-keyboard-response,29
true,3,0,1,0,true,q,false,true,0.0-2.0-0.11-0.99-3.99,0,0,0,81,false,stim,false,2,1654,0,0,2,56472,task1,592414,false,false,398,image-keyboard-response,30
true,3,2,1,2,true,d,false,true,0.0-2.0-0.11-0.100-3.100,0,0,0,68,false,stim,false,0,1404,0,0,0,56472,task1,595335,false,false,401,image-keyboard-response,31
true,3,0,1,0,true,q,false,true,0.0-2.0-0.11-0.101-3.101,0,0,0,81,false,stim,false,2,1119,0,0,2,56472,task1,597967,false,false,404,image-keyboard-response,32
true,3,1,1,1,true,z,false,true,0.0-2.0-0.11-0.102-3.102,0,0,0,90,false,stim,false,2,1452,0,0,1,56472,task1,600948,false,false,407,image-keyboard-response,33
true,3,2,1,2,true,d,false,true,0.0-2.0-0.11-0.103-3.103,0,0,0,68,false,stim,false,0,1479,0,0,0,56472,task1,603970,false,false,410,image-keyboard-response,34
true,3,1,1,1,true,z,false,true,0.0-2.0-0.11-0.104-3.104,0,0,0,90,false,stim,false,2,1291,0,0,1,56472,task1,606800,false,false,413,image-keyboard-response,35
true,3,1,1,1,true,z,false,true,0.0-2.0-0.11-0.105-3.105,0,0,0,90,false,stim,false,2,868,0,0,1,56472,task1,609197,false,false,416,image-keyboard-response,36
true,3,2,1,2,true,d,false,true,0.0-2.0-0.11-0.106-3.106,0,0,0,68,false,stim,false,0,944,0,0,0,56472,task1,611664,false,false,419,image-keyboard-response,37
true,3,0,1,0,true,q,false,true,0.0-2.0-0.11-0.107-3.107,0,0,0,81,false,stim,false,2,1864,0,0,2,56472,task1,615065,false,false,422,image-keyboard-response,38
true,3,0,1,0,true,q,false,true,0.0-2.0-0.12-0.108-3.108,0,0,0,81,false,stim,false,2,656,0,0,2,56472,task1,617257,false,false,425,image-keyboard-response,39
true,3,1,1,1,true,z,false,true,0.0-2.0-0.12-0.109-3.109,0,0,0,90,false,stim,false,2,1265,0,0,1,56472,task1,620054,false,false,428,image-keyboard-response,40
true,3,2,1,2,true,d,false,false,0.0-2.0-0.12-0.110-3.110,0,0,0,68,false,stim,false,0,636,0,0,0,56472,task1,622210,false,true,431,image-keyboard-response,41
true,3,0,1,0,true,q,false,true,0.0-2.0-0.12-0.111-3.111,0,0,0,81,false,stim,false,2,1662,0,0,2,56472,task1,625392,false,false,434,image-keyboard-response,42
true,3,1,1,2,false,d,true,false,0.0-2.0-0.12-0.112-3.112,0,0,0,90,false,stim,false,0,2787,0,0,0,56472,task1,629706,false,false,437,image-keyboard-response,43
true,4,1,1,0,false,q,false,false,0.0-2.0-0.12-0.113-3.113,0,0,0,90,true,stim,true,1,1782,0,0,1,56472,task1,633006,false,false,440,image-keyboard-response,1
true,4,0,1,1,false,z,false,false,0.0-2.0-0.12-0.114-3.114,0,0,0,81,false,stim,true,0,1957,0,0,2,56472,task1,636477,false,false,443,image-keyboard-response,2
true,4,1,1,0,false,q,false,false,0.0-2.0-0.12-0.115-3.115,0,0,0,90,false,stim,true,1,1973,0,0,1,56472,task1,639972,false,false,446,image-keyboard-response,3
true,4,2,1,0,false,q,false,false,0.0-2.0-0.12-0.116-3.116,0,0,0,68,false,stim,true,2,1269,0,0,0,56472,task1,642780,false,false,449,image-keyboard-response,4
true,4,0,1,1,false,z,false,false,0.0-2.0-0.13-0.117-3.117,0,0,0,81,false,stim,true,0,1811,0,0,2,56472,task1,646121,false,false,452,image-keyboard-response,5
true,4,0,1,0,true,q,false,true,0.0-2.0-0.13-0.118-3.118,0,0,0,81,false,stim,false,2,1331,0,0,0,56472,task1,648981,false,false,455,image-keyboard-response,6
false,4,-1,1,0,false,q,true,false,0.0-2.0-0.13-0.119-3.119,0,0,0,,false,stim,false,1,,0,0,1,56472,task1,653520,false,false,458,image-keyboard-response,7
true,4,2,1,0,false,q,true,false,0.0-2.0-0.13-0.120-3.120,0,0,0,68,false,stim,false,1,532,0,0,1,56472,task1,655562,false,false,461,image-keyboard-response,8
true,4,1,1,1,true,z,false,true,0.0-2.0-0.13-0.121-3.121,0,0,0,90,false,stim,false,0,1041,0,0,2,56472,task1,658119,false,false,464,image-keyboard-response,9
true,4,1,1,1,true,z,false,true,0.0-2.0-0.13-0.122-3.122,0,0,0,90,false,stim,false,0,923,0,0,2,56472,task1,660582,false,false,467,image-keyboard-response,10
true,4,0,1,0,true,q,false,true,0.0-2.0-0.13-0.123-3.123,0,0,0,81,false,stim,false,1,1268,0,0,1,56472,task1,663389,false,false,470,image-keyboard-response,11
true,4,2,1,0,false,q,false,false,0.0-2.0-0.13-0.124-3.124,0,0,0,68,false,stim,true,2,1064,0,0,0,56472,task1,665985,false,false,473,image-keyboard-response,12
true,4,1,1,0,false,q,true,false,0.0-2.0-0.13-0.125-3.125,0,0,0,90,false,stim,false,2,952,0,0,0,56472,task1,668462,false,false,476,image-keyboard-response,13
true,4,0,1,0,true,q,false,true,0.0-2.0-0.14-0.126-3.126,0,0,0,81,false,stim,false,2,460,0,0,0,56472,task1,670450,false,false,479,image-keyboard-response,14
true,4,1,1,0,false,q,false,false,0.0-2.0-0.14-0.127-3.127,0,0,0,90,false,stim,true,1,1900,0,0,1,56472,task1,673890,false,false,482,image-keyboard-response,15
true,4,1,1,1,true,z,false,false,0.0-2.0-0.14-0.128-3.128,0,0,0,90,false,stim,false,0,527,0,0,2,56472,task1,675947,false,true,485,image-keyboard-response,16
true,4,0,1,0,true,q,false,true,0.0-2.0-0.14-0.129-3.129,0,0,0,81,false,stim,false,2,614,0,0,0,56472,task1,678094,false,false,488,image-keyboard-response,17
true,4,0,1,0,true,q,false,true,0.0-2.0-0.14-0.130-3.130,0,0,0,81,false,stim,false,2,721,0,0,0,56472,task1,680352,false,false,491,image-keyboard-response,18
true,4,2,1,1,false,z,true,false,0.0-2.0-0.14-0.131-3.131,0,0,0,68,false,stim,false,0,1039,0,0,2,56472,task1,682929,false,false,494,image-keyboard-response,19
true,4,1,1,0,false,q,false,false,0.0-2.0-0.14-0.132-3.132,0,0,0,90,false,stim,true,1,327,0,0,1,56472,task1,684777,false,false,497,image-keyboard-response,20
true,4,1,1,1,true,z,false,true,0.0-2.0-0.14-0.133-3.133,0,0,0,90,false,stim,false,0,1726,0,0,2,56472,task1,688027,false,false,500,image-keyboard-response,21
true,4,2,1,0,false,q,true,false,0.0-2.0-0.14-0.134-3.134,0,0,0,68,false,stim,false,1,1408,0,0,1,56472,task1,690959,false,false,503,image-keyboard-response,22
true,4,1,1,1,true,z,false,true,0.0-2.0-0.15-0.135-3.135,0,0,0,90,false,stim,false,0,660,0,0,2,56472,task1,693150,false,false,506,image-keyboard-response,23
true,4,1,1,1,true,z,false,true,0.0-2.0-0.15-0.136-3.136,0,0,0,90,false,stim,false,0,741,0,0,2,56472,task1,695431,false,false,509,image-keyboard-response,24
true,4,0,1,0,true,q,false,true,0.0-2.0-0.15-0.137-3.137,0,0,0,81,false,stim,false,2,733,0,0,0,56472,task1,697684,false,false,512,image-keyboard-response,25
true,4,1,1,0,false,q,false,false,0.0-2.0-0.15-0.138-3.138,0,0,0,90,false,stim,true,1,786,0,0,1,56472,task1,700002,false,false,515,image-keyboard-response,26
true,4,0,1,0,true,q,false,true,0.0-2.0-0.15-0.139-3.139,0,0,0,81,false,stim,false,1,523,0,0,1,56472,task1,702063,false,false,518,image-keyboard-response,27
true,4,0,1,1,false,z,false,false,0.0-2.0-0.15-0.140-3.140,0,0,0,81,false,stim,true,0,720,0,0,2,56472,task1,704321,false,false,521,image-keyboard-response,28
true,4,2,1,0,false,q,true,false,0.0-2.0-0.15-0.141-3.141,0,0,0,68,false,stim,false,1,264,0,0,1,56472,task1,706108,false,false,524,image-keyboard-response,29
true,4,1,1,0,false,q,true,false,0.0-2.0-0.15-0.142-3.142,0,0,0,90,false,stim,false,2,405,0,0,0,56472,task1,708036,false,false,527,image-keyboard-response,30
true,4,0,1,0,true,q,false,true,0.0-2.0-0.15-0.143-3.143,0,0,0,81,false,stim,false,2,1024,0,0,0,56472,task1,710582,false,false,530,image-keyboard-response,31
true,4,0,1,0,true,q,false,true,0.0-2.0-0.16-0.144-3.144,0,0,0,81,false,stim,false,2,649,0,0,0,56472,task1,712746,false,false,533,image-keyboard-response,32
true,4,1,1,1,true,z,false,true,0.0-2.0-0.16-0.145-3.145,0,0,0,90,false,stim,false,0,1446,0,0,2,56472,task1,715700,false,false,536,image-keyboard-response,33
true,4,2,1,0,false,q,true,false,0.0-2.0-0.16-0.146-3.146,0,0,0,68,false,stim,false,1,1152,0,0,1,56472,task1,718382,false,false,539,image-keyboard-response,34
true,4,1,1,0,false,q,false,false,0.0-2.0-0.16-0.147-3.147,0,0,0,90,false,stim,true,1,922,0,0,1,56472,task1,720818,false,false,542,image-keyboard-response,35
true,4,0,1,1,false,z,false,false,0.0-2.0-0.16-0.148-3.148,0,0,0,81,false,stim,true,0,421,0,0,2,56472,task1,722772,false,false,545,image-keyboard-response,36
true,4,0,1,0,true,q,false,true,0.0-2.0-0.16-0.149-3.149,0,0,0,81,false,stim,false,2,2384,0,0,0,56472,task1,726672,false,false,548,image-keyboard-response,37
true,4,0,1,0,true,q,false,true,0.0-2.0-0.16-0.150-3.150,0,0,0,81,false,stim,false,2,599,0,0,0,56472,task1,728799,false,false,551,image-keyboard-response,38
true,4,1,1,1,true,z,false,true,0.0-2.0-0.16-0.151-3.151,0,0,0,90,false,stim,false,0,1350,0,0,2,56472,task1,731691,false,false,554,image-keyboard-response,39
true,4,0,1,0,true,q,false,true,0.0-2.0-0.16-0.152-3.152,0,0,0,81,false,stim,false,1,1496,0,0,1,56472,task1,734727,false,false,557,image-keyboard-response,40
true,4,0,1,0,true,q,false,true,0.0-2.0-0.17-0.153-3.153,0,0,0,81,false,stim,false,1,578,0,0,1,56472,task1,736828,false,false,560,image-keyboard-response,41
true,4,0,1,0,true,q,false,true,0.0-2.0-0.17-0.154-3.154,0,0,0,81,false,stim,false,2,1144,0,0,0,56472,task1,739486,false,false,563,image-keyboard-response,42
true,5,0,1,2,false,d,false,false,0.0-2.0-0.17-0.155-3.155,0,0,0,81,true,stim,true,0,911,0,0,1,56472,task1,741932,false,false,566,image-keyboard-response,1
true,5,0,1,1,false,z,false,false,0.0-2.0-0.17-0.156-3.156,0,0,0,81,false,stim,true,0,799,0,0,0,56472,task1,744250,false,false,569,image-keyboard-response,2
true,5,1,1,2,false,d,false,false,0.0-2.0-0.17-0.157-3.157,0,0,0,90,false,stim,true,1,1222,0,0,2,56472,task1,747011,false,false,572,image-keyboard-response,3
true,5,2,1,1,false,z,true,false,0.0-2.0-0.17-0.158-3.158,0,0,0,68,false,stim,false,0,887,0,0,0,56472,task1,749428,false,false,575,image-keyboard-response,4
true,5,0,1,2,false,d,true,false,0.0-2.0-0.17-0.159-3.159,0,0,0,81,false,stim,false,1,1258,0,0,2,56472,task1,752199,false,false,578,image-keyboard-response,5
true,5,1,1,2,false,d,true,false,0.0-2.0-0.17-0.160-3.160,0,0,0,90,false,stim,false,0,350,0,0,1,56472,task1,754081,false,false,581,image-keyboard-response,6
true,5,2,1,2,true,d,false,false,0.0-2.0-0.17-0.161-3.161,0,0,0,68,false,stim,false,1,883,0,0,2,56472,task1,756493,false,true,584,image-keyboard-response,7
true,5,1,1,2,false,d,true,false,0.0-2.0-0.18-0.162-3.162,0,0,0,90,false,stim,false,0,1999,0,0,1,56472,task1,760029,false,false,587,image-keyboard-response,8
true,5,1,1,1,true,z,false,false,0.0-2.0-0.18-0.163-3.163,0,0,0,90,false,stim,false,0,1290,0,0,0,56472,task1,762850,false,true,590,image-keyboard-response,9
true,5,2,1,2,true,d,false,true,0.0-2.0-0.18-0.164-3.164,0,0,0,68,false,stim,false,0,1341,0,0,1,56472,task1,765721,false,false,593,image-keyboard-response,10
true,5,1,1,2,false,d,false,true,0.0-2.0-0.18-0.165-3.165,0,0,0,90,false,stim,true,1,1592,0,0,2,56472,task1,768842,false,true,596,image-keyboard-response,11
true,5,2,1,2,true,d,false,true,0.0-2.0-0.18-0.166-3.166,0,0,0,68,false,stim,false,0,1234,0,0,1,56472,task1,771603,false,false,599,image-keyboard-response,12
true,5,0,1,1,false,z,false,true,0.0-2.0-0.18-0.167-3.167,0,0,0,81,false,stim,true,0,995,0,0,0,56472,task1,774125,false,true,602,image-keyboard-response,13
true,5,2,1,2,true,d,false,true,0.0-2.0-0.18-0.168-3.168,0,0,0,68,false,stim,false,1,655,0,0,2,56472,task1,776292,false,false,605,image-keyboard-response,14
true,5,2,1,2,true,d,false,true,0.0-2.0-0.18-0.169-3.169,0,0,0,68,false,stim,false,1,916,0,0,2,56472,task1,778727,false,false,608,image-keyboard-response,15
true,5,0,1,1,false,z,false,false,0.0-2.0-0.18-0.170-3.170,0,0,0,81,false,stim,true,0,884,0,0,0,56472,task1,781135,false,false,611,image-keyboard-response,16
true,5,0,1,2,false,d,false,false,0.0-2.0-0.19-0.171-3.171,0,0,0,81,false,stim,true,0,622,0,0,1,56472,task1,783283,false,false,614,image-keyboard-response,17
true,5,1,1,1,true,z,false,true,0.0-2.0-0.19-0.172-3.172,0,0,0,90,false,stim,false,0,1413,0,0,0,56472,task1,786224,false,false,617,image-keyboard-response,18
true,5,0,1,2,false,d,false,true,0.0-2.0-0.19-0.173-3.173,0,0,0,81,false,stim,true,0,796,0,0,1,56472,task1,788557,false,true,620,image-keyboard-response,19
true,5,0,1,2,false,d,false,false,0.0-2.0-0.19-0.174-3.174,0,0,0,81,false,stim,true,0,828,0,0,1,56472,task1,790898,false,false,623,image-keyboard-response,20
true,5,0,1,1,false,z,false,false,0.0-2.0-0.19-0.175-3.175,0,0,0,81,false,stim,true,0,2384,0,0,0,56472,task1,794788,false,false,626,image-keyboard-response,21
true,5,2,1,2,true,d,false,true,0.0-2.0-0.19-0.176-3.176,0,0,0,68,false,stim,false,1,1205,0,0,2,56472,task1,797514,false,false,629,image-keyboard-response,22
true,5,2,1,2,true,d,false,true,0.0-2.0-0.19-0.177-3.177,0,0,0,68,false,stim,false,1,813,0,0,2,56472,task1,799851,false,false,632,image-keyboard-response,23
true,5,2,1,2,true,d,false,true,0.0-2.0-0.19-0.178-3.178,0,0,0,68,false,stim,false,1,715,0,0,2,56472,task1,802080,false,false,635,image-keyboard-response,24
true,5,2,1,1,false,z,true,false,0.0-2.0-0.19-0.179-3.179,0,0,0,68,false,stim,false,0,461,0,0,0,56472,task1,804071,false,false,638,image-keyboard-response,25
true,5,2,1,2,true,d,false,true,0.0-2.0-0.20-0.180-3.180,0,0,0,68,false,stim,false,1,780,0,0,2,56472,task1,806369,false,false,641,image-keyboard-response,26
true,5,1,1,2,false,d,true,false,0.0-2.0-0.20-0.181-3.181,0,0,0,90,false,stim,false,0,554,0,0,1,56472,task1,808451,false,false,644,image-keyboard-response,27
true,5,2,1,1,false,z,true,false,0.0-2.0-0.20-0.182-3.182,0,0,0,68,false,stim,false,0,658,0,0,0,56472,task1,810634,false,false,647,image-keyboard-response,28
true,5,1,1,1,true,z,false,true,0.0-2.0-0.20-0.183-3.183,0,0,0,90,false,stim,false,0,563,0,0,0,56472,task1,812706,false,false,650,image-keyboard-response,29
true,5,2,1,2,true,d,false,true,0.0-2.0-0.20-0.184-3.184,0,0,0,68,false,stim,false,0,1895,0,0,1,56472,task1,816117,false,false,653,image-keyboard-response,30
true,5,1,1,1,true,z,false,false,0.0-2.0-0.20-0.185-3.185,0,0,0,90,false,stim,false,0,949,0,0,0,56472,task1,818598,false,true,656,image-keyboard-response,31
true,5,2,1,2,true,d,false,true,0.0-2.0-0.20-0.186-3.186,0,0,0,68,false,stim,false,1,386,0,0,2,56472,task1,820516,false,false,659,image-keyboard-response,32
true,5,2,1,2,true,d,false,true,0.0-2.0-0.20-0.187-3.187,0,0,0,68,false,stim,false,0,1567,0,0,1,56472,task1,823618,false,false,662,image-keyboard-response,33
true,5,2,1,2,true,d,false,true,0.0-2.0-0.20-0.188-3.188,0,0,0,68,false,stim,false,1,1233,0,0,2,56472,task1,826364,false,false,665,image-keyboard-response,34
true,5,2,1,2,true,d,false,false,0.0-2.0-0.21-0.189-3.189,0,0,0,68,false,stim,false,1,590,0,0,2,56472,task1,828491,false,true,668,image-keyboard-response,35
true,5,2,1,2,true,d,false,true,0.0-2.0-0.21-0.190-3.190,0,0,0,68,false,stim,false,0,1247,0,0,1,56472,task1,831267,false,false,671,image-keyboard-response,36
true,5,2,1,1,false,z,true,false,0.0-2.0-0.21-0.191-3.191,0,0,0,68,false,stim,false,0,879,0,0,0,56472,task1,833669,false,false,674,image-keyboard-response,37
true,5,2,1,2,true,d,false,true,0.0-2.0-0.21-0.192-3.192,0,0,0,68,false,stim,false,0,1495,0,0,1,56472,task1,836706,false,false,677,image-keyboard-response,38
true,5,2,1,2,true,d,false,true,0.0-2.0-0.21-0.193-3.193,0,0,0,68,false,stim,false,1,642,0,0,2,56472,task1,838863,false,false,680,image-keyboard-response,39
true,5,2,1,1,false,z,true,false,0.0-2.0-0.21-0.194-3.194,0,0,0,68,false,stim,false,0,565,0,0,0,56472,task1,840965,false,false,683,image-keyboard-response,40
true,5,1,1,2,false,d,true,true,0.0-2.0-0.21-0.195-3.195,0,0,0,90,false,stim,false,0,393,0,0,1,56472,task1,842882,false,true,686,image-keyboard-response,41
true,5,2,1,2,true,d,false,false,0.0-2.0-0.21-0.196-3.196,0,0,0,68,false,stim,false,1,256,0,0,2,56472,task1,844646,false,true,689,image-keyboard-response,42
true,5,1,1,1,true,z,false,true,0.0-2.0-0.21-0.197-3.197,0,0,0,90,false,stim,false,0,288,0,0,0,56472,task1,846449,false,false,692,image-keyboard-response,43
true,6,0,2,1,false,z,true,false,0.0-2.0-0.22-0.198-3.198,0,0,0,81,true,stim,false,2,341,0,0,1,56472,task1,848310,false,false,695,image-keyboard-response,1
true,6,2,2,1,false,z,false,false,0.0-2.0-0.22-0.199-3.199,0,0,0,68,false,stim,true,2,458,0,0,1,56472,task1,850289,false,false,698,image-keyboard-response,2
true,6,1,2,0,false,q,true,false,0.0-2.0-0.22-0.200-3.200,0,0,0,90,false,stim,false,2,348,0,0,2,56472,task1,852182,false,false,701,image-keyboard-response,3
true,6,2,2,2,true,d,false,false,0.0-2.0-0.22-0.201-3.201,0,0,0,68,false,stim,false,1,323,0,0,0,56472,task1,854023,false,true,704,image-keyboard-response,4
true,6,0,2,0,true,q,false,true,0.0-2.0-0.22-0.202-3.202,0,0,0,81,false,stim,false,2,880,0,0,2,56472,task1,856426,false,false,707,image-keyboard-response,5
true,6,1,2,2,false,d,false,false,0.0-2.0-0.22-0.203-3.203,0,0,0,90,false,stim,true,1,1346,0,0,0,56472,task1,859282,false,false,710,image-keyboard-response,6
true,6,0,2,0,true,q,false,true,0.0-2.0-0.22-0.204-3.204,0,0,0,81,false,stim,false,2,1064,0,0,2,56472,task1,861854,false,false,713,image-keyboard-response,7
true,6,2,2,2,true,d,false,true,0.0-2.0-0.22-0.205-3.205,0,0,0,68,false,stim,false,1,989,0,0,0,56472,task1,864366,false,false,716,image-keyboard-response,8
true,6,1,2,1,true,z,false,true,0.0-2.0-0.22-0.206-3.206,0,0,0,90,false,stim,false,2,821,0,0,1,56472,task1,866703,false,false,719,image-keyboard-response,9
true,6,0,2,0,true,q,false,true,0.0-2.0-0.23-0.207-3.207,0,0,0,81,false,stim,false,2,1209,0,0,2,56472,task1,869449,false,false,722,image-keyboard-response,10
true,6,1,2,1,true,z,false,true,0.0-2.0-0.23-0.208-3.208,0,0,0,90,false,stim,false,2,662,0,0,1,56472,task1,871632,false,false,725,image-keyboard-response,11
true,6,2,2,2,true,d,false,true,0.0-2.0-0.23-0.209-3.209,0,0,0,68,false,stim,false,1,1063,0,0,0,56472,task1,874233,false,false,728,image-keyboard-response,12
true,6,1,2,0,false,q,true,false,0.0-2.0-0.23-0.210-3.210,0,0,0,90,false,stim,false,2,1624,0,0,2,56472,task1,877375,false,false,731,image-keyboard-response,13
true,6,1,2,2,false,d,false,false,0.0-2.0-0.23-0.211-3.211,0,0,0,90,false,stim,true,1,1573,0,0,0,56472,task1,880456,false,false,734,image-keyboard-response,14
true,6,0,2,1,false,z,true,false,0.0-2.0-0.23-0.212-3.212,0,0,0,81,false,stim,false,2,1192,0,0,1,56472,task1,883162,false,false,737,image-keyboard-response,15
true,6,1,2,1,true,z,false,true,0.0-2.0-0.23-0.213-3.213,0,0,0,90,false,stim,false,2,1283,0,0,1,56472,task1,885954,false,false,740,image-keyboard-response,16
true,6,0,2,0,true,q,false,true,0.0-2.0-0.23-0.214-3.214,0,0,0,81,false,stim,false,2,1290,0,0,2,56472,task1,888760,false,false,743,image-keyboard-response,17
true,6,2,2,2,true,d,false,true,0.0-2.0-0.23-0.215-3.215,0,0,0,68,false,stim,false,1,1376,0,0,0,56472,task1,891677,false,false,746,image-keyboard-response,18
true,6,2,2,2,true,d,false,true,0.0-2.0-0.24-0.216-3.216,0,0,0,68,false,stim,false,1,573,0,0,0,56472,task1,893774,false,false,749,image-keyboard-response,19
true,6,1,2,1,true,z,false,true,0.0-2.0-0.24-0.217-3.217,0,0,0,90,false,stim,false,2,2023,0,0,1,56472,task1,897324,false,false,752,image-keyboard-response,20
true,6,0,2,0,true,q,false,true,0.0-2.0-0.24-0.218-3.218,0,0,0,81,false,stim,false,2,1090,0,0,2,56472,task1,899936,false,false,755,image-keyboard-response,21
true,6,2,2,1,false,z,false,false,0.0-2.0-0.24-0.219-3.219,0,0,0,68,false,stim,true,2,1626,0,0,1,56472,task1,903097,false,false,758,image-keyboard-response,22
true,6,0,2,0,true,q,false,true,0.0-2.0-0.24-0.220-3.220,0,0,0,81,false,stim,false,2,700,0,0,2,56472,task1,905320,false,false,761,image-keyboard-response,23
true,6,1,2,0,false,q,true,false,0.0-2.0-0.24-0.221-3.221,0,0,0,90,false,stim,false,2,422,0,0,2,56472,task1,907256,false,false,764,image-keyboard-response,24
true,6,2,2,2,true,d,false,false,0.0-2.0-0.24-0.222-3.222,0,0,0,68,false,stim,false,1,580,0,0,0,56472,task1,909369,false,true,767,image-keyboard-response,25
true,6,0,2,2,false,d,true,false,0.0-2.0-0.24-0.223-3.223,0,0,0,81,false,stim,false,1,1001,0,0,0,56472,task1,911911,false,false,770,image-keyboard-response,26
true,6,1,2,1,true,z,false,false,0.0-2.0-0.24-0.224-3.224,0,0,0,90,false,stim,false,2,2077,0,0,1,56472,task1,915528,false,true,773,image-keyboard-response,27
true,6,0,2,1,false,z,true,false,0.0-2.0-0.25-0.225-3.225,0,0,0,81,false,stim,false,2,863,0,0,1,56472,task1,917923,false,false,776,image-keyboard-response,28
true,6,0,2,0,true,q,false,true,0.0-2.0-0.25-0.226-3.226,0,0,0,81,false,stim,false,2,914,0,0,2,56472,task1,920365,false,false,779,image-keyboard-response,29
true,6,2,2,1,false,z,false,false,0.0-2.0-0.25-0.227-3.227,0,0,0,68,false,stim,true,2,502,0,0,1,56472,task1,922392,false,false,782,image-keyboard-response,30
true,6,1,2,1,true,z,false,true,0.0-2.0-0.25-0.228-3.228,0,0,0,90,false,stim,false,2,2098,0,0,1,56472,task1,926028,false,false,785,image-keyboard-response,31
true,6,0,2,0,true,q,false,true,0.0-2.0-0.25-0.229-3.229,0,0,0,81,false,stim,false,2,950,0,0,2,56472,task1,928510,false,false,788,image-keyboard-response,32
true,6,2,2,2,true,d,false,true,0.0-2.0-0.25-0.230-3.230,0,0,0,68,false,stim,false,1,1076,0,0,0,56472,task1,931116,false,false,791,image-keyboard-response,33
true,6,2,2,2,true,d,false,true,0.0-2.0-0.25-0.231-3.231,0,0,0,68,false,stim,false,1,663,0,0,0,56472,task1,933303,false,false,794,image-keyboard-response,34
true,6,2,2,2,true,d,false,true,0.0-2.0-0.25-0.232-3.232,0,0,0,68,false,stim,false,1,650,0,0,0,56472,task1,935482,false,false,797,image-keyboard-response,35
true,6,1,2,0,false,q,true,false,0.0-2.0-0.25-0.233-3.233,0,0,0,90,false,stim,false,2,1251,0,0,2,56472,task1,938262,false,false,800,image-keyboard-response,36
true,6,2,2,2,true,d,false,false,0.0-2.0-0.26-0.234-3.234,0,0,0,68,false,stim,false,1,1494,0,0,0,56472,task1,941282,false,true,803,image-keyboard-response,37
true,6,1,2,1,true,z,false,true,0.0-2.0-0.26-0.235-3.235,0,0,0,90,false,stim,false,2,1595,0,0,1,56472,task1,944410,false,false,806,image-keyboard-response,38
true,6,0,2,2,false,d,true,false,0.0-2.0-0.26-0.236-3.236,0,0,0,81,false,stim,false,1,1356,0,0,0,56472,task1,947296,false,false,809,image-keyboard-response,39
true,6,0,2,0,true,q,false,false,0.0-2.0-0.26-0.237-3.237,0,0,0,81,false,stim,false,2,848,0,0,2,56472,task1,949657,false,true,812,image-keyboard-response,40
true,6,1,2,1,true,z,false,true,0.0-2.0-0.26-0.238-3.238,0,0,0,90,false,stim,false,2,1588,0,0,1,56472,task1,952759,false,false,815,image-keyboard-response,41
true,7,0,2,1,false,z,false,false,0.0-2.0-0.26-0.239-3.239,0,0,0,81,true,stim,true,0,745,0,0,2,56472,task1,955045,false,false,818,image-keyboard-response,1
true,7,1,2,0,false,q,false,false,0.0-2.0-0.26-0.240-3.240,0,0,0,90,false,stim,true,1,728,0,0,1,56472,task1,957307,false,false,821,image-keyboard-response,2
true,7,2,2,0,false,q,false,false,0.0-2.0-0.26-0.241-3.241,0,0,0,68,false,stim,true,2,1986,0,0,0,56472,task1,960828,false,false,824,image-keyboard-response,3
true,7,0,2,1,false,z,false,false,0.0-2.0-0.26-0.242-3.242,0,0,0,81,false,stim,true,0,1154,0,0,2,56472,task1,963505,false,false,827,image-keyboard-response,4
true,7,1,2,0,false,q,false,false,0.0-2.0-0.27-0.243-3.243,0,0,0,90,false,stim,true,1,697,0,0,1,56472,task1,965737,false,false,830,image-keyboard-response,5
true,7,0,2,1,false,z,false,false,0.0-2.0-0.27-0.244-3.244,0,0,0,81,false,stim,true,0,1113,0,0,2,56472,task1,968373,false,false,833,image-keyboard-response,6
true,7,2,2,0,false,q,false,false,0.0-2.0-0.27-0.245-3.245,0,0,0,68,false,stim,true,2,625,0,0,0,56472,task1,970525,false,false,836,image-keyboard-response,7
true,7,1,2,0,false,q,false,false,0.0-2.0-0.27-0.246-3.246,0,0,0,90,false,stim,true,1,902,0,0,1,56472,task1,972953,false,false,839,image-keyboard-response,8
true,7,2,2,1,false,z,true,false,0.0-2.0-0.27-0.247-3.247,0,0,0,68,false,stim,false,0,665,0,0,2,56472,task1,975154,false,false,842,image-keyboard-response,9
true,7,2,2,0,false,q,true,true,0.0-2.0-0.27-0.248-3.248,0,0,0,68,false,stim,false,1,2080,0,0,1,56472,task1,978761,false,true,845,image-keyboard-response,10
true,7,0,2,0,true,q,false,true,0.0-2.0-0.27-0.249-3.249,0,0,0,81,false,stim,false,2,1915,0,0,0,56472,task1,982216,false,false,848,image-keyboard-response,11
true,7,0,2,0,true,q,false,true,0.0-2.0-0.27-0.250-3.250,0,0,0,81,false,stim,false,2,578,0,0,0,56472,task1,984329,false,false,851,image-keyboard-response,12
true,7,2,2,1,false,z,true,false,0.0-2.0-0.27-0.251-3.251,0,0,0,68,false,stim,false,0,1484,0,0,2,56472,task1,987335,false,false,854,image-keyboard-response,13
true,7,0,2,0,true,q,false,true,0.0-2.0-0.28-0.252-3.252,0,0,0,81,false,stim,false,2,986,0,0,0,56472,task1,989847,false,false,857,image-keyboard-response,14
true,7,1,2,0,false,q,false,false,0.0-2.0-0.28-0.253-3.253,0,0,0,90,false,stim,true,1,883,0,0,1,56472,task1,992243,false,false,860,image-keyboard-response,15
true,7,2,2,0,false,q,true,false,0.0-2.0-0.28-0.254-3.254,0,0,0,68,false,stim,false,1,1100,0,0,1,56472,task1,994881,false,false,863,image-keyboard-response,16
true,7,0,2,0,true,q,false,true,0.0-2.0-0.28-0.255-3.255,0,0,0,81,false,stim,false,2,938,0,0,0,56472,task1,997357,false,false,866,image-keyboard-response,17
true,7,0,2,0,true,q,false,true,0.0-2.0-0.28-0.256-3.256,0,0,0,81,false,stim,false,2,1423,0,0,0,56472,task1,1000314,false,false,869,image-keyboard-response,18
true,7,1,2,1,true,z,false,true,0.0-2.0-0.28-0.257-3.257,0,0,0,90,false,stim,false,0,1029,0,0,2,56472,task1,1002865,false,false,872,image-keyboard-response,19
true,7,1,2,1,true,z,false,false,0.0-2.0-0.28-0.258-3.258,0,0,0,90,false,stim,false,0,1252,0,0,2,56472,task1,1005652,false,true,875,image-keyboard-response,20
true,7,1,2,1,true,z,false,true,0.0-2.0-0.28-0.259-3.259,0,0,0,90,false,stim,false,0,2231,0,0,2,56472,task1,1009403,false,false,878,image-keyboard-response,21
true,7,0,2,0,true,q,false,true,0.0-2.0-0.28-0.260-3.260,0,0,0,81,false,stim,false,1,2735,0,0,1,56472,task1,1013676,false,false,881,image-keyboard-response,22
true,7,1,2,1,true,z,false,true,0.0-2.0-0.29-0.261-3.261,0,0,0,90,false,stim,false,0,744,0,0,2,56472,task1,1015943,false,false,884,image-keyboard-response,23
true,7,0,2,0,true,q,false,true,0.0-2.0-0.29-0.262-3.262,0,0,0,81,false,stim,false,1,521,0,0,1,56472,task1,1018002,false,false,887,image-keyboard-response,24
true,7,0,2,0,true,q,false,true,0.0-2.0-0.29-0.263-3.263,0,0,0,81,false,stim,false,1,779,0,0,1,56472,task1,1020309,false,false,890,image-keyboard-response,25
true,7,0,2,0,true,q,false,true,0.0-2.0-0.29-0.264-3.264,0,0,0,81,false,stim,false,1,614,0,0,1,56472,task1,1022446,false,false,893,image-keyboard-response,26
true,7,1,2,1,true,z,false,true,0.0-2.0-0.29-0.265-3.265,0,0,0,90,false,stim,false,0,728,0,0,2,56472,task1,1024698,false,false,896,image-keyboard-response,27
true,7,2,2,0,false,q,false,false,0.0-2.0-0.29-0.266-3.266,0,0,0,68,false,stim,true,2,1819,0,0,0,56472,task1,1028039,false,false,899,image-keyboard-response,28
true,7,1,2,0,false,q,true,true,0.0-2.0-0.29-0.267-3.267,0,0,0,90,false,stim,false,2,875,0,0,0,56472,task1,1030456,false,true,902,image-keyboard-response,29
true,7,1,2,1,true,z,false,true,0.0-2.0-0.29-0.268-3.268,0,0,0,90,false,stim,false,0,548,0,0,2,56472,task1,1032528,false,false,905,image-keyboard-response,30
true,7,1,2,0,false,q,true,false,0.0-2.0-0.29-0.269-3.269,0,0,0,90,false,stim,false,2,501,0,0,0,56472,task1,1034551,false,false,908,image-keyboard-response,31
true,7,1,2,0,false,q,true,false,0.0-2.0-0.30-0.270-3.270,0,0,0,90,false,stim,false,2,1582,0,0,0,56472,task1,1037671,false,false,911,image-keyboard-response,32
true,7,1,2,0,false,q,false,false,0.0-2.0-0.30-0.271-3.271,0,0,0,90,false,stim,true,1,1128,0,0,1,56472,task1,1040328,false,false,914,image-keyboard-response,33
true,7,1,2,1,true,z,false,true,0.0-2.0-0.30-0.272-3.272,0,0,0,90,false,stim,false,0,1177,0,0,2,56472,task1,1043029,false,false,917,image-keyboard-response,34
true,7,0,2,0,true,q,false,true,0.0-2.0-0.30-0.273-3.273,0,0,0,81,false,stim,false,1,682,0,0,1,56472,task1,1045242,false,false,920,image-keyboard-response,35
true,7,0,2,0,true,q,false,true,0.0-2.0-0.30-0.274-3.274,0,0,0,81,false,stim,false,1,1288,0,0,1,56472,task1,1048058,false,false,923,image-keyboard-response,36
true,7,1,2,1,true,z,false,true,0.0-2.0-0.30-0.275-3.275,0,0,0,90,false,stim,false,0,1055,0,0,2,56472,task1,1050636,false,false,926,image-keyboard-response,37
true,7,1,2,1,true,z,false,true,0.0-2.0-0.30-0.276-3.276,0,0,0,90,false,stim,false,0,860,0,0,2,56472,task1,1053012,false,false,929,image-keyboard-response,38
true,7,0,2,0,true,q,false,true,0.0-2.0-0.30-0.277-3.277,0,0,0,81,false,stim,false,2,765,0,0,0,56472,task1,1055302,false,false,932,image-keyboard-response,39
true,7,0,2,0,true,q,false,true,0.0-2.0-0.30-0.278-3.278,0,0,0,81,false,stim,false,2,627,0,0,0,56472,task1,1057447,false,false,935,image-keyboard-response,40
true,7,0,2,0,true,q,false,true,0.0-2.0-0.31-0.279-3.279,0,0,0,81,false,stim,false,1,1064,0,0,1,56472,task1,1060023,false,false,938,image-keyboard-response,41
true,7,0,2,0,true,q,false,true,0.0-2.0-0.31-0.280-3.280,0,0,0,81,false,stim,false,2,775,0,0,0,56472,task1,1062326,false,false,941,image-keyboard-response,42
true,7,1,2,1,true,z,false,true,0.0-2.0-0.31-0.281-3.281,0,0,0,90,false,stim,false,0,946,0,0,2,56472,task1,1064797,false,false,944,image-keyboard-response,43
true,7,0,2,0,true,q,false,true,0.0-2.0-0.31-0.282-3.282,0,0,0,81,false,stim,false,1,1643,0,0,1,56472,task1,1067963,false,false,947,image-keyboard-response,44
true,7,1,2,1,true,z,false,true,0.0-2.0-0.31-0.283-3.283,0,0,0,90,false,stim,false,0,1388,0,0,2,56472,task1,1070871,false,false,950,image-keyboard-response,45
true,8,0,2,1,false,z,false,true,0.0-2.0-0.31-0.284-3.284,0,0,0,81,true,stim,true,0,518,0,0,1,56472,task1,1072918,false,true,953,image-keyboard-response,1
true,8,0,2,2,false,d,false,false,0.0-2.0-0.31-0.285-3.285,0,0,0,81,false,stim,true,0,561,0,0,0,56472,task1,1075010,false,false,956,image-keyboard-response,2
true,8,0,2,2,false,d,false,false,0.0-2.0-0.31-0.286-3.286,0,0,0,81,false,stim,true,0,512,0,0,0,56472,task1,1077058,false,false,959,image-keyboard-response,3
true,8,1,2,0,false,q,false,false,0.0-2.0-0.31-0.287-3.287,0,0,0,90,false,stim,true,1,1240,0,0,2,56472,task1,1079820,false,false,962,image-keyboard-response,4
true,8,0,2,2,false,d,false,true,0.0-2.0-0.32-0.288-3.288,0,0,0,81,false,stim,true,0,995,0,0,0,56472,task1,1082356,false,true,965,image-keyboard-response,5
true,8,1,2,0,false,q,false,false,0.0-2.0-0.32-0.289-3.289,0,0,0,90,false,stim,true,1,1491,0,0,2,56472,task1,1085372,false,false,968,image-keyboard-response,6
true,8,0,2,1,false,z,false,true,0.0-2.0-0.32-0.290-3.290,0,0,0,81,false,stim,true,0,854,0,0,1,56472,task1,1087764,false,true,971,image-keyboard-response,7
true,8,2,2,2,true,d,false,true,0.0-2.0-0.32-0.291-3.291,0,0,0,68,false,stim,false,0,852,0,0,0,56472,task1,1090151,false,false,974,image-keyboard-response,8
true,8,2,2,2,true,d,false,true,0.0-2.0-0.32-0.292-3.292,0,0,0,68,false,stim,false,0,718,0,0,0,56472,task1,1092398,false,false,977,image-keyboard-response,9
true,8,2,2,0,false,q,true,false,0.0-2.0-0.32-0.293-3.293,0,0,0,68,false,stim,false,1,2332,0,0,2,56472,task1,1096254,false,false,980,image-keyboard-response,10
true,8,0,2,1,false,z,false,false,0.0-2.0-0.32-0.294-3.294,0,0,0,81,false,stim,true,0,1383,0,0,1,56472,task1,1099164,false,false,983,image-keyboard-response,11
true,8,2,2,1,false,z,true,true,0.0-2.0-0.32-0.295-3.295,0,0,0,68,false,stim,false,0,2079,0,0,1,56472,task1,1102771,false,true,986,image-keyboard-response,12
true,8,2,2,0,false,q,true,false,0.0-2.0-0.32-0.296-3.296,0,0,0,68,false,stim,false,1,1187,0,0,2,56472,task1,1105487,false,false,989,image-keyboard-response,13
true,8,1,2,0,false,q,false,false,0.0-2.0-0.33-0.297-3.297,0,0,0,90,false,stim,true,1,863,0,0,2,56472,task1,1107884,false,false,992,image-keyboard-response,14
true,8,2,2,1,false,z,true,false,0.0-2.0-0.33-0.298-3.298,0,0,0,68,false,stim,false,0,1141,0,0,1,56472,task1,1110551,false,false,995,image-keyboard-response,15
true,8,2,2,0,false,q,true,false,0.0-2.0-0.33-0.299-3.299,0,0,0,68,false,stim,false,1,1907,0,0,2,56472,task1,1113996,false,false,998,image-keyboard-response,16
true,8,2,2,1,false,z,true,false,0.0-2.0-0.33-0.300-3.300,0,0,0,68,false,stim,false,0,1914,0,0,1,56472,task1,1117432,false,false,1001,image-keyboard-response,17
true,8,1,2,1,true,z,false,true,0.0-2.0-0.33-0.301-3.301,0,0,0,90,false,stim,false,0,1103,0,0,1,56472,task1,1120049,false,false,1004,image-keyboard-response,18
true,8,2,2,0,false,q,true,false,0.0-2.0-0.33-0.302-3.302,0,0,0,68,false,stim,false,1,1989,0,0,2,56472,task1,1123580,false,false,1007,image-keyboard-response,19
true,8,0,2,2,false,d,false,true,0.0-2.0-0.33-0.303-3.303,0,0,0,81,false,stim,true,0,897,0,0,0,56472,task1,1125997,false,true,1010,image-keyboard-response,20
true,8,0,2,2,false,d,false,false,0.0-2.0-0.33-0.304-3.304,0,0,0,81,false,stim,true,0,480,0,0,0,56472,task1,1128000,false,false,1013,image-keyboard-response,21
true,8,0,2,2,false,d,false,false,0.0-2.0-0.33-0.305-3.305,0,0,0,81,false,stim,true,0,512,0,0,0,56472,task1,1130052,false,false,1016,image-keyboard-response,22
true,8,2,2,0,false,q,true,false,0.0-2.0-0.34-0.306-3.306,0,0,0,68,false,stim,false,1,1443,0,0,2,56472,task1,1133012,false,false,1019,image-keyboard-response,23
true,8,1,2,0,false,q,false,false,0.0-2.0-0.34-0.307-3.307,0,0,0,90,false,stim,true,1,685,0,0,2,56472,task1,1135226,false,false,1022,image-keyboard-response,24
true,8,0,2,0,true,q,false,true,0.0-2.0-0.34-0.308-3.308,0,0,0,81,false,stim,false,1,407,0,0,2,56472,task1,1137157,false,false,1025,image-keyboard-response,25
true,8,2,2,2,true,d,false,true,0.0-2.0-0.34-0.309-3.309,0,0,0,68,false,stim,false,0,1154,0,0,0,56472,task1,1139833,false,false,1028,image-keyboard-response,26
true,8,2,2,2,true,d,false,true,0.0-2.0-0.34-0.310-3.310,0,0,0,68,false,stim,false,0,675,0,0,0,56472,task1,1142021,false,false,1031,image-keyboard-response,27
true,8,1,2,1,true,z,false,true,0.0-2.0-0.34-0.311-3.311,0,0,0,90,false,stim,false,0,911,0,0,1,56472,task1,1144463,false,false,1034,image-keyboard-response,28
true,8,1,2,1,true,z,false,true,0.0-2.0-0.34-0.312-3.312,0,0,0,90,false,stim,false,0,590,0,0,1,56472,task1,1146590,false,false,1037,image-keyboard-response,29
true,8,2,2,2,true,d,false,true,0.0-2.0-0.34-0.313-3.313,0,0,0,68,false,stim,false,0,661,0,0,0,56472,task1,1148772,false,false,1040,image-keyboard-response,30
true,8,1,2,1,true,z,false,true,0.0-2.0-0.34-0.314-3.314,0,0,0,90,false,stim,false,0,550,0,0,1,56472,task1,1150860,false,false,1043,image-keyboard-response,31
true,8,1,2,1,true,z,false,true,0.0-2.0-0.35-0.315-3.315,0,0,0,90,false,stim,false,0,542,0,0,1,56472,task1,1152932,false,false,1046,image-keyboard-response,32
true,8,1,2,1,true,z,false,true,0.0-2.0-0.35-0.316-3.316,0,0,0,90,false,stim,false,0,404,0,0,1,56472,task1,1154865,false,false,1049,image-keyboard-response,33
true,8,2,2,2,true,d,false,true,0.0-2.0-0.35-0.317-3.317,0,0,0,68,false,stim,false,0,1170,0,0,0,56472,task1,1157572,false,false,1052,image-keyboard-response,34
true,8,2,2,2,true,d,false,true,0.0-2.0-0.35-0.318-3.318,0,0,0,68,false,stim,false,0,738,0,0,0,56472,task1,1159828,false,false,1055,image-keyboard-response,35
true,8,0,2,0,true,q,false,true,0.0-2.0-0.35-0.319-3.319,0,0,0,81,false,stim,false,1,1668,0,0,2,56472,task1,1163039,false,false,1058,image-keyboard-response,36
true,8,0,2,0,true,q,false,true,0.0-2.0-0.35-0.320-3.320,0,0,0,81,false,stim,false,1,705,0,0,2,56472,task1,1165286,false,false,1061,image-keyboard-response,37
true,8,2,2,2,true,d,false,true,0.0-2.0-0.35-0.321-3.321,0,0,0,68,false,stim,false,0,1191,0,0,0,56472,task1,1168012,false,false,1064,image-keyboard-response,38
true,8,1,2,1,true,z,false,true,0.0-2.0-0.35-0.322-3.322,0,0,0,90,false,stim,false,0,1228,0,0,1,56472,task1,1170769,false,false,1067,image-keyboard-response,39
true,9,0,2,1,false,z,false,false,0.0-2.0-0.35-0.323-3.323,0,0,0,81,true,stim,true,0,1501,0,0,2,56472,task1,1173800,false,false,1070,image-keyboard-response,1
true,9,1,2,0,false,q,false,false,0.0-2.0-0.36-0.324-3.324,0,0,0,90,false,stim,true,1,1082,0,0,1,56472,task1,1176413,false,false,1073,image-keyboard-response,2
true,9,2,2,0,false,q,false,true,0.0-2.0-0.36-0.325-3.325,0,0,0,68,false,stim,true,2,638,0,0,0,56472,task1,1178580,false,true,1076,image-keyboard-response,3
true,9,1,2,1,true,z,false,true,0.0-2.0-0.36-0.326-3.326,0,0,0,90,false,stim,false,0,2129,0,0,2,56472,task1,1182249,false,false,1079,image-keyboard-response,4
true,9,2,2,0,false,q,false,false,0.0-2.0-0.36-0.327-3.327,0,0,0,68,false,stim,true,2,1371,0,0,0,56472,task1,1185152,false,false,1082,image-keyboard-response,5
true,9,1,2,1,true,z,false,true,0.0-2.0-0.36-0.328-3.328,0,0,0,90,false,stim,false,0,1012,0,0,2,56472,task1,1187703,false,false,1085,image-keyboard-response,6
true,9,0,2,0,true,q,false,true,0.0-2.0-0.36-0.329-3.329,0,0,0,81,false,stim,false,1,1041,0,0,1,56472,task1,1190269,false,false,1088,image-keyboard-response,7
true,9,0,2,0,true,q,false,false,0.0-2.0-0.36-0.330-3.330,0,0,0,81,false,stim,false,1,689,0,0,1,56472,task1,1192501,false,true,1091,image-keyboard-response,8
true,9,1,2,0,false,q,true,false,0.0-2.0-0.36-0.331-3.331,0,0,0,90,false,stim,false,2,1896,0,0,0,56472,task1,1195938,false,false,1094,image-keyboard-response,9
true,9,1,2,1,true,z,false,true,0.0-2.0-0.36-0.332-3.332,0,0,0,90,false,stim,false,0,1307,0,0,2,56472,task1,1198768,false,false,1097,image-keyboard-response,10
true,9,1,2,1,true,z,false,true,0.0-2.0-0.37-0.333-3.333,0,0,0,90,false,stim,false,0,755,0,0,2,56472,task1,1201066,false,false,1100,image-keyboard-response,11
true,9,1,2,1,true,z,false,true,0.0-2.0-0.37-0.334-3.334,0,0,0,90,false,stim,false,0,502,0,0,2,56472,task1,1203104,false,false,1103,image-keyboard-response,12
true,9,0,2,0,true,q,false,true,0.0-2.0-0.37-0.335-3.335,0,0,0,81,false,stim,false,2,1575,0,0,0,56472,task1,1206205,false,false,1106,image-keyboard-response,13
true,9,0,2,0,true,q,false,true,0.0-2.0-0.37-0.336-3.336,0,0,0,81,false,stim,false,1,1683,0,0,1,56472,task1,1209416,false,false,1109,image-keyboard-response,14
true,9,1,2,0,false,q,true,false,0.0-2.0-0.37-0.337-3.337,0,0,0,90,false,stim,false,2,2051,0,0,0,56472,task1,1212992,false,false,1112,image-keyboard-response,15
true,9,2,2,0,false,q,false,false,0.0-2.0-0.37-0.338-3.338,0,0,0,68,false,stim,true,2,796,0,0,0,56472,task1,1215328,false,false,1115,image-keyboard-response,16
true,9,1,2,0,false,q,false,true,0.0-2.0-0.37-0.339-3.339,0,0,0,90,false,stim,true,1,1839,0,0,1,56472,task1,1218689,false,true,1118,image-keyboard-response,17
true,9,1,2,0,false,q,false,false,0.0-2.0-0.37-0.340-3.340,0,0,0,90,false,stim,true,1,472,0,0,1,56472,task1,1220691,false,false,1121,image-keyboard-response,18
true,9,0,2,1,false,z,false,false,0.0-2.0-0.37-0.341-3.341,0,0,0,81,false,stim,true,0,1222,0,0,2,56472,task1,1223443,false,false,1124,image-keyboard-response,19
true,9,1,2,0,false,q,false,false,0.0-2.0-0.38-0.342-3.342,0,0,0,90,false,stim,true,1,1939,0,0,1,56472,task1,1226899,false,false,1127,image-keyboard-response,20
true,9,2,2,0,false,q,false,true,0.0-2.0-0.38-0.343-3.343,0,0,0,68,false,stim,true,2,1481,0,0,0,56472,task1,1229911,false,true,1130,image-keyboard-response,21
true,9,0,2,1,false,z,false,false,0.0-2.0-0.38-0.344-3.344,0,0,0,81,false,stim,true,0,1007,0,0,2,56472,task1,1232427,false,false,1133,image-keyboard-response,22
true,9,2,2,1,false,z,true,false,0.0-2.0-0.38-0.345-3.345,0,0,0,68,false,stim,false,0,617,0,0,2,56472,task1,1234560,false,false,1136,image-keyboard-response,23
true,9,1,2,0,false,q,true,false,0.0-2.0-0.38-0.346-3.346,0,0,0,90,false,stim,false,2,583,0,0,0,56472,task1,1236677,false,false,1139,image-keyboard-response,24
true,9,1,2,1,true,z,false,true,0.0-2.0-0.38-0.347-3.347,0,0,0,90,false,stim,false,0,1612,0,0,2,56472,task1,1239813,false,false,1142,image-keyboard-response,25
true,9,0,2,0,true,q,false,true,0.0-2.0-0.38-0.348-3.348,0,0,0,81,false,stim,false,2,1221,0,0,0,56472,task1,1242545,false,false,1145,image-keyboard-response,26
true,9,0,2,0,true,q,false,true,0.0-2.0-0.38-0.349-3.349,0,0,0,81,false,stim,false,1,1564,0,0,1,56472,task1,1245636,false,false,1148,image-keyboard-response,27
true,9,0,2,0,true,q,false,true,0.0-2.0-0.38-0.350-3.350,0,0,0,81,false,stim,false,1,629,0,0,1,56472,task1,1247784,false,false,1151,image-keyboard-response,28
true,9,1,2,0,false,q,true,false,0.0-2.0-0.39-0.351-3.351,0,0,0,90,false,stim,false,2,2332,0,0,0,56472,task1,1251629,false,false,1154,image-keyboard-response,29
true,9,1,2,1,true,z,false,false,0.0-2.0-0.39-0.352-3.352,0,0,0,90,false,stim,false,0,887,0,0,2,56472,task1,1254028,false,true,1157,image-keyboard-response,30
true,9,0,2,0,true,q,false,true,0.0-2.0-0.39-0.353-3.353,0,0,0,81,false,stim,false,2,1265,0,0,0,56472,task1,1256817,false,false,1160,image-keyboard-response,31
true,9,2,2,0,false,q,true,true,0.0-2.0-0.39-0.354-3.354,0,0,0,68,false,stim,false,1,1338,0,0,1,56472,task1,1259678,false,true,1163,image-keyboard-response,32
true,9,0,2,1,false,z,false,false,0.0-2.0-0.39-0.355-3.355,0,0,0,81,false,stim,true,0,1497,0,0,2,56472,task1,1262686,false,false,1166,image-keyboard-response,33
true,9,1,2,0,false,q,true,false,0.0-2.0-0.39-0.356-3.356,0,0,0,90,false,stim,false,2,956,0,0,0,56472,task1,1265167,false,false,1169,image-keyboard-response,34
true,9,2,2,0,false,q,true,false,0.0-2.0-0.39-0.357-3.357,0,0,0,68,false,stim,false,1,1019,0,0,1,56472,task1,1267695,false,false,1172,image-keyboard-response,35
true,9,0,2,1,false,z,false,false,0.0-2.0-0.39-0.358-3.358,0,0,0,81,false,stim,true,0,1448,0,0,2,56472,task1,1270670,false,false,1175,image-keyboard-response,36
true,9,1,2,0,false,q,false,false,0.0-2.0-0.39-0.359-3.359,0,0,0,90,false,stim,true,1,381,0,0,1,56472,task1,1272579,false,false,1178,image-keyboard-response,37
true,9,2,2,0,false,q,false,false,0.0-2.0-0.40-0.360-3.360,0,0,0,68,false,stim,true,2,2178,0,0,0,56472,task1,1276279,false,false,1181,image-keyboard-response,38
true,9,1,2,1,true,z,false,true,0.0-2.0-0.40-0.361-3.361,0,0,0,90,false,stim,false,0,1804,0,0,2,56472,task1,1279594,false,false,1184,image-keyboard-response,39
true,9,2,2,0,false,q,false,false,0.0-2.0-0.40-0.362-3.362,0,0,0,68,false,stim,true,2,675,0,0,0,56472,task1,1281797,false,false,1187,image-keyboard-response,40
true,9,0,2,0,true,q,false,true,0.0-2.0-0.40-0.363-3.363,0,0,0,81,false,stim,false,1,958,0,0,1,56472,task1,1284278,false,false,1190,image-keyboard-response,41
true,9,2,2,0,false,q,false,false,0.0-2.0-0.40-0.364-3.364,0,0,0,68,false,stim,true,2,1459,0,0,0,56472,task1,1287281,false,false,1193,image-keyboard-response,42
true,9,0,2,0,true,q,false,false,0.0-2.0-0.40-0.365-3.365,0,0,0,81,false,stim,false,1,921,0,0,1,56472,task1,1289732,false,true,1196,image-keyboard-response,43
true,9,1,2,1,true,z,false,true,0.0-2.0-0.40-0.366-3.366,0,0,0,90,false,stim,false,0,1077,0,0,2,56472,task1,1292349,false,false,1199,image-keyboard-response,44
true,10,2,1,2,true,d,false,true,0.0-2.0-0.40-0.367-3.367,0,0,0,68,true,stim,false,0,1584,0,0,1,56472,task1,1295475,false,false,1202,image-keyboard-response,1
true,10,1,1,0,false,q,false,false,0.0-2.0-0.40-0.368-3.368,0,0,0,90,false,stim,true,1,866,0,0,2,56472,task1,1297867,false,false,1205,image-keyboard-response,2
true,10,1,1,2,false,d,true,false,0.0-2.0-0.41-0.369-3.369,0,0,0,90,false,stim,false,0,2206,0,0,0,56472,task1,1301588,false,false,1208,image-keyboard-response,3
true,10,2,1,0,false,q,true,false,0.0-2.0-0.41-0.370-3.370,0,0,0,68,false,stim,false,1,977,0,0,2,56472,task1,1304084,false,false,1211,image-keyboard-response,4
true,10,2,1,2,true,d,false,true,0.0-2.0-0.41-0.371-3.371,0,0,0,68,false,stim,false,0,1245,0,0,0,56472,task1,1306846,false,false,1214,image-keyboard-response,5
true,10,0,1,2,false,d,false,false,0.0-2.0-0.41-0.372-3.372,0,0,0,81,false,stim,true,0,1837,0,0,1,56472,task1,1310217,false,false,1217,image-keyboard-response,6
true,10,1,1,2,false,d,true,false,0.0-2.0-0.41-0.373-3.373,0,0,0,90,false,stim,false,0,1148,0,0,0,56472,task1,1312888,false,false,1220,image-keyboard-response,7
true,10,2,1,0,false,q,true,false,0.0-2.0-0.41-0.374-3.374,0,0,0,68,false,stim,false,1,1149,0,0,2,56472,task1,1315580,false,false,1223,image-keyboard-response,8
true,10,1,1,2,false,d,true,false,0.0-2.0-0.41-0.375-3.375,0,0,0,90,false,stim,false,0,781,0,0,1,56472,task1,1317892,false,false,1226,image-keyboard-response,9
true,10,0,1,2,false,d,false,false,0.0-2.0-0.41-0.376-3.376,0,0,0,81,false,stim,true,0,934,0,0,1,56472,task1,1320364,false,false,1229,image-keyboard-response,10
true,10,1,1,0,false,q,false,false,0.0-2.0-0.41-0.377-3.377,0,0,0,90,false,stim,true,1,1389,0,0,2,56472,task1,1323260,false,false,1232,image-keyboard-response,11
true,10,2,1,2,true,d,false,true,0.0-2.0-0.42-0.378-3.378,0,0,0,68,false,stim,false,0,1550,0,0,0,56472,task1,1326352,false,false,1235,image-keyboard-response,12
true,10,0,1,2,false,d,false,false,0.0-2.0-0.42-0.379-3.379,0,0,0,81,false,stim,true,0,2102,0,0,1,56472,task1,1329993,false,false,1238,image-keyboard-response,13
true,10,0,1,0,true,q,false,true,0.0-2.0-0.42-0.380-3.380,0,0,0,81,false,stim,false,1,2231,0,0,2,56472,task1,1333762,false,false,1241,image-keyboard-response,14
true,10,0,1,0,true,q,false,true,0.0-2.0-0.42-0.381-3.381,0,0,0,81,false,stim,false,1,660,0,0,2,56472,task1,1335961,false,false,1244,image-keyboard-response,15
true,10,1,1,2,false,d,true,true,0.0-2.0-0.42-0.382-3.382,0,0,0,90,false,stim,false,0,1034,0,0,1,56472,task1,1338525,false,true,1247,image-keyboard-response,16
true,10,0,1,0,true,q,false,true,0.0-2.0-0.42-0.383-3.383,0,0,0,81,false,stim,false,1,954,0,0,2,56472,task1,1341015,false,false,1250,image-keyboard-response,17
true,10,1,1,2,false,d,true,false,0.0-2.0-0.42-0.384-3.384,0,0,0,90,false,stim,false,0,950,0,0,1,56472,task1,1343500,false,false,1253,image-keyboard-response,18
true,10,2,1,2,true,d,false,true,0.0-2.0-0.42-0.385-3.385,0,0,0,68,false,stim,false,0,1071,0,0,0,56472,task1,1346102,false,false,1256,image-keyboard-response,19
true,10,2,1,2,true,d,false,true,0.0-2.0-0.42-0.386-3.386,0,0,0,68,false,stim,false,0,505,0,0,0,56472,task1,1348145,false,false,1259,image-keyboard-response,20
true,10,2,1,2,true,d,false,true,0.0-2.0-0.43-0.387-3.387,0,0,0,68,false,stim,false,0,456,0,0,0,56472,task1,1350137,false,false,1262,image-keyboard-response,21
true,10,2,1,2,true,d,false,false,0.0-2.0-0.43-0.388-3.388,0,0,0,68,false,stim,false,0,624,0,0,0,56472,task1,1352294,false,true,1265,image-keyboard-response,22
true,10,0,1,2,false,d,false,false,0.0-2.0-0.43-0.389-3.389,0,0,0,81,false,stim,true,0,1065,0,0,0,56472,task1,1354892,false,false,1268,image-keyboard-response,23
true,10,0,1,2,false,d,false,false,0.0-2.0-0.43-0.390-3.390,0,0,0,81,false,stim,true,0,2381,0,0,1,56472,task1,1358801,false,false,1271,image-keyboard-response,24
true,10,0,1,0,true,q,false,true,0.0-2.0-0.43-0.391-3.391,0,0,0,81,false,stim,false,1,2370,0,0,2,56472,task1,1362712,false,false,1274,image-keyboard-response,25
true,10,2,1,2,true,d,false,true,0.0-2.0-0.43-0.392-3.392,0,0,0,68,false,stim,false,0,1175,0,0,1,56472,task1,1365413,false,false,1277,image-keyboard-response,26
true,10,0,1,0,true,q,false,true,0.0-2.0-0.43-0.393-3.393,0,0,0,81,false,stim,false,1,765,0,0,2,56472,task1,1367715,false,false,1280,image-keyboard-response,27
true,10,2,1,2,true,d,false,true,0.0-2.0-0.43-0.394-3.394,0,0,0,68,false,stim,false,0,496,0,0,1,56472,task1,1369728,false,false,1283,image-keyboard-response,28
true,10,0,1,0,true,q,false,true,0.0-2.0-0.43-0.395-3.395,0,0,0,81,false,stim,false,1,722,0,0,2,56472,task1,1371983,false,false,1286,image-keyboard-response,29
true,10,2,1,2,true,d,false,true,0.0-2.0-0.44-0.396-3.396,0,0,0,68,false,stim,false,0,470,0,0,1,56472,task1,1373992,false,false,1289,image-keyboard-response,30
true,10,1,1,2,false,d,true,false,0.0-2.0-0.44-0.397-3.397,0,0,0,90,false,stim,false,0,1497,0,0,0,56472,task1,1377029,false,false,1292,image-keyboard-response,31
true,10,2,1,2,true,d,false,true,0.0-2.0-0.44-0.398-3.398,0,0,0,68,false,stim,false,0,1673,0,0,1,56472,task1,1380245,false,false,1295,image-keyboard-response,32
true,10,0,1,0,true,q,false,true,0.0-2.0-0.44-0.399-3.399,0,0,0,81,false,stim,false,1,871,0,0,2,56472,task1,1382631,false,false,1298,image-keyboard-response,33
true,10,2,1,2,true,d,false,true,0.0-2.0-0.44-0.400-3.400,0,0,0,68,false,stim,false,0,798,0,0,0,56472,task1,1384967,false,false,1301,image-keyboard-response,34
true,10,0,1,0,true,q,false,true,0.0-2.0-0.44-0.401-3.401,0,0,0,81,false,stim,false,1,771,0,0,2,56472,task1,1387261,false,false,1304,image-keyboard-response,35
true,10,2,1,2,true,d,false,true,0.0-2.0-0.44-0.402-3.402,0,0,0,68,false,stim,false,0,475,0,0,0,56472,task1,1389258,false,false,1307,image-keyboard-response,36
true,10,0,1,0,true,q,false,true,0.0-2.0-0.44-0.403-3.403,0,0,0,81,false,stim,false,1,416,0,0,2,56472,task1,1391187,false,false,1310,image-keyboard-response,37
true,10,2,1,2,true,d,false,true,0.0-2.0-0.44-0.404-3.404,0,0,0,68,false,stim,false,0,589,0,0,1,56472,task1,1393298,false,false,1313,image-keyboard-response,38
true,10,2,1,2,true,d,false,true,0.0-2.0-0.45-0.405-3.405,0,0,0,68,false,stim,false,0,1090,0,0,0,56472,task1,1395911,false,false,1316,image-keyboard-response,39
true,11,0,2,1,false,z,false,false,0.0-2.0-0.45-0.406-3.406,0,0,0,81,true,stim,true,0,526,0,0,2,56472,task1,1397968,false,false,1319,image-keyboard-response,1
true,11,1,2,1,true,z,false,true,0.0-2.0-0.45-0.407-3.407,0,0,0,90,false,stim,false,0,994,0,0,2,56472,task1,1400473,false,false,1322,image-keyboard-response,2
true,11,2,2,0,false,q,false,false,0.0-2.0-0.45-0.408-3.408,0,0,0,68,false,stim,true,2,1585,0,0,1,56472,task1,1403581,false,false,1325,image-keyboard-response,3
true,11,1,2,1,true,z,false,true,0.0-2.0-0.45-0.409-3.409,0,0,0,90,false,stim,false,0,647,0,0,2,56472,task1,1405768,false,false,1328,image-keyboard-response,4
true,11,2,2,0,false,q,false,false,0.0-2.0-0.45-0.410-3.410,0,0,0,68,false,stim,true,2,2818,0,0,0,56472,task1,1410108,false,false,1331,image-keyboard-response,5
true,11,0,2,0,true,q,false,true,0.0-2.0-0.45-0.411-3.411,0,0,0,81,false,stim,false,2,2010,0,0,1,56472,task1,1413643,false,false,1334,image-keyboard-response,6
true,11,0,2,0,true,q,false,true,0.0-2.0-0.45-0.412-3.412,0,0,0,81,false,stim,false,2,2575,0,0,0,56472,task1,1417743,false,false,1337,image-keyboard-response,7
true,11,0,2,0,true,q,false,true,0.0-2.0-0.45-0.413-3.413,0,0,0,81,false,stim,false,2,832,0,0,1,56472,task1,1420095,false,false,1340,image-keyboard-response,8
true,11,1,2,1,true,z,false,true,0.0-2.0-0.46-0.414-3.414,0,0,0,90,false,stim,false,0,810,0,0,2,56472,task1,1422418,false,false,1343,image-keyboard-response,9
true,11,0,2,0,true,q,false,true,0.0-2.0-0.46-0.415-3.415,0,0,0,81,false,stim,false,2,788,0,0,1,56472,task1,1424735,false,false,1346,image-keyboard-response,10
true,11,1,2,1,true,z,false,true,0.0-2.0-0.46-0.416-3.416,0,0,0,90,false,stim,false,0,659,0,0,2,56472,task1,1426915,false,false,1349,image-keyboard-response,11
true,11,0,2,0,true,q,false,true,0.0-2.0-0.46-0.417-3.417,0,0,0,81,false,stim,false,2,620,0,0,0,56472,task1,1429049,false,false,1352,image-keyboard-response,12
true,11,0,2,0,true,q,false,true,0.0-2.0-0.46-0.418-3.418,0,0,0,81,false,stim,false,2,1256,0,0,1,56472,task1,1431837,false,false,1355,image-keyboard-response,13
true,11,0,2,0,true,q,false,true,0.0-2.0-0.46-0.419-3.419,0,0,0,81,false,stim,false,2,750,0,0,0,56472,task1,1434103,false,false,1358,image-keyboard-response,14
true,11,0,2,0,true,q,false,true,0.0-2.0-0.46-0.420-3.420,0,0,0,81,false,stim,false,2,805,0,0,1,56472,task1,1436440,false,false,1361,image-keyboard-response,15
true,11,0,2,0,true,q,false,true,0.0-2.0-0.46-0.421-3.421,0,0,0,81,false,stim,false,2,635,0,0,0,56472,task1,1438598,false,false,1364,image-keyboard-response,16
true,11,1,2,1,true,z,false,true,0.0-2.0-0.46-0.422-3.422,0,0,0,90,false,stim,false,0,429,0,0,2,56472,task1,1440540,false,false,1367,image-keyboard-response,17
true,11,0,2,0,true,q,false,true,0.0-2.0-0.47-0.423-3.423,0,0,0,81,false,stim,false,2,492,0,0,0,56472,task1,1442552,false,false,1370,image-keyboard-response,18
true,11,1,2,1,true,z,false,true,0.0-2.0-0.47-0.424-3.424,0,0,0,90,false,stim,false,0,379,0,0,2,56472,task1,1444451,false,false,1373,image-keyboard-response,19
true,11,0,2,0,true,q,false,false,0.0-2.0-0.47-0.425-3.425,0,0,0,81,false,stim,false,2,521,0,0,1,56472,task1,1446492,false,true,1376,image-keyboard-response,20
true,11,0,2,0,true,q,false,false,0.0-2.0-0.47-0.426-3.426,0,0,0,81,false,stim,false,2,1726,0,0,0,56472,task1,1449729,false,true,1379,image-keyboard-response,21
true,11,2,2,0,false,q,false,false,0.0-2.0-0.47-0.427-3.427,0,0,0,68,false,stim,true,2,1281,0,0,1,56472,task1,1452530,false,false,1382,image-keyboard-response,22
true,11,1,2,0,false,q,true,false,0.0-2.0-0.47-0.428-3.428,0,0,0,90,false,stim,false,2,1100,0,0,0,56472,task1,1455147,false,false,1385,image-keyboard-response,23
true,11,1,2,1,true,z,false,true,0.0-2.0-0.47-0.429-3.429,0,0,0,90,false,stim,false,0,1177,0,0,2,56472,task1,1457840,false,false,1388,image-keyboard-response,24
true,11,2,2,0,false,q,false,false,0.0-2.0-0.47-0.430-3.430,0,0,0,68,false,stim,true,2,997,0,0,1,56472,task1,1460346,false,false,1391,image-keyboard-response,25
true,11,1,2,1,true,z,false,true,0.0-2.0-0.47-0.431-3.431,0,0,0,90,false,stim,false,0,761,0,0,2,56472,task1,1462623,false,false,1394,image-keyboard-response,26
true,11,0,2,0,true,q,false,true,0.0-2.0-0.48-0.432-3.432,0,0,0,81,false,stim,false,2,461,0,0,1,56472,task1,1464612,false,false,1397,image-keyboard-response,27
true,11,1,2,1,true,z,false,true,0.0-2.0-0.48-0.433-3.433,0,0,0,90,false,stim,false,0,812,0,0,2,56472,task1,1466952,false,false,1400,image-keyboard-response,28
true,11,0,2,0,true,q,false,true,0.0-2.0-0.48-0.434-3.434,0,0,0,81,false,stim,false,2,1049,0,0,0,56472,task1,1469540,false,false,1403,image-keyboard-response,29
true,11,0,2,0,true,q,false,true,0.0-2.0-0.48-0.435-3.435,0,0,0,81,false,stim,false,2,1092,0,0,0,56472,task1,1472146,false,false,1406,image-keyboard-response,30
true,11,1,2,1,true,z,false,true,0.0-2.0-0.48-0.436-3.436,0,0,0,90,false,stim,false,0,524,0,0,2,56472,task1,1474209,false,false,1409,image-keyboard-response,31
true,11,0,2,0,true,q,false,true,0.0-2.0-0.48-0.437-3.437,0,0,0,81,false,stim,false,2,675,0,0,0,56472,task1,1476412,false,false,1412,image-keyboard-response,32
true,11,0,2,0,true,q,false,true,0.0-2.0-0.48-0.438-3.438,0,0,0,81,false,stim,false,2,777,0,0,1,56472,task1,1478713,false,false,1415,image-keyboard-response,33
true,11,0,2,0,true,q,false,true,0.0-2.0-0.48-0.439-3.439,0,0,0,81,false,stim,false,2,695,0,0,1,56472,task1,1480927,false,false,1418,image-keyboard-response,34
true,11,1,2,1,true,z,false,true,0.0-2.0-0.48-0.440-3.440,0,0,0,90,false,stim,false,0,396,0,0,2,56472,task1,1482847,false,false,1421,image-keyboard-response,35
true,11,0,2,1,false,z,false,false,0.0-2.0-0.49-0.441-3.441,0,0,0,81,false,stim,true,0,375,0,0,2,56472,task1,1484746,false,false,1424,image-keyboard-response,36
true,11,0,2,0,true,q,false,true,0.0-2.0-0.49-0.442-3.442,0,0,0,81,false,stim,false,2,950,0,0,1,56472,task1,1487218,false,false,1427,image-keyboard-response,37
true,11,0,2,0,true,q,false,true,0.0-2.0-0.49-0.443-3.443,0,0,0,81,false,stim,false,2,789,0,0,0,56472,task1,1489541,false,false,1430,image-keyboard-response,38
true,11,0,2,0,true,q,false,true,0.0-2.0-0.49-0.444-3.444,0,0,0,81,false,stim,false,2,612,0,0,0,56472,task1,1491683,false,false,1433,image-keyboard-response,39
true,11,1,2,1,true,z,false,true,0.0-2.0-0.49-0.445-3.445,0,0,0,90,false,stim,false,0,410,0,0,2,56472,task1,1493631,false,false,1436,image-keyboard-response,40
true,12,0,2,2,false,d,false,false,0.0-2.0-0.49-0.446-3.446,0,0,0,81,true,stim,true,0,498,0,0,0,56472,task1,1495668,false,false,1439,image-keyboard-response,1
true,12,0,2,1,false,z,false,false,0.0-2.0-0.49-0.447-3.447,0,0,0,81,false,stim,true,0,1536,0,0,1,56472,task1,1498727,false,false,1442,image-keyboard-response,2
true,12,1,2,0,false,q,false,false,0.0-2.0-0.49-0.448-3.448,0,0,0,90,false,stim,true,1,382,0,0,2,56472,task1,1500642,false,false,1445,image-keyboard-response,3
true,12,2,2,1,false,z,true,false,0.0-2.0-0.49-0.449-3.449,0,0,0,68,false,stim,false,0,1584,0,0,1,56472,task1,1503765,false,false,1448,image-keyboard-response,4
true,12,0,2,0,true,q,false,true,0.0-2.0-0.50-0.450-3.450,0,0,0,81,false,stim,false,1,806,0,0,2,56472,task1,1506106,false,false,1451,image-keyboard-response,5
true,12,0,2,0,true,q,false,true,0.0-2.0-0.50-0.451-3.451,0,0,0,81,false,stim,false,1,1087,0,0,2,56472,task1,1508719,false,false,1454,image-keyboard-response,6
true,12,1,2,2,false,d,true,false,0.0-2.0-0.50-0.452-3.452,0,0,0,90,false,stim,false,0,649,0,0,0,56472,task1,1510900,false,false,1457,image-keyboard-response,7
true,12,2,2,1,false,z,true,false,0.0-2.0-0.50-0.453-3.453,0,0,0,68,false,stim,false,0,921,0,0,1,56472,task1,1513353,false,false,1460,image-keyboard-response,8
true,12,0,2,0,true,q,false,true,0.0-2.0-0.50-0.454-3.454,0,0,0,81,false,stim,false,1,424,0,0,2,56472,task1,1515304,false,false,1463,image-keyboard-response,9
true,12,1,2,1,true,z,false,true,0.0-2.0-0.50-0.455-3.455,0,0,0,90,false,stim,false,0,427,0,0,1,56472,task1,1517268,false,false,1466,image-keyboard-response,10
true,12,1,2,2,false,d,true,false,0.0-2.0-0.50-0.456-3.456,0,0,0,90,false,stim,false,0,1818,0,0,0,56472,task1,1520608,false,false,1469,image-keyboard-response,11
true,12,2,2,2,true,d,false,true,0.0-2.0-0.50-0.457-3.457,0,0,0,68,false,stim,false,0,790,0,0,0,56472,task1,1522941,false,false,1472,image-keyboard-response,12
true,12,1,2,1,true,z,false,true,0.0-2.0-0.50-0.458-3.458,0,0,0,90,false,stim,false,0,2187,0,0,1,56472,task1,1526667,false,false,1475,image-keyboard-response,13
true,12,0,2,0,true,q,false,true,0.0-2.0-0.51-0.459-3.459,0,0,0,81,false,stim,false,1,479,0,0,2,56472,task1,1528681,false,false,1478,image-keyboard-response,14
true,12,0,2,0,true,q,false,true,0.0-2.0-0.51-0.460-3.460,0,0,0,81,false,stim,false,1,651,0,0,2,56472,task1,1530862,false,false,1481,image-keyboard-response,15
true,12,1,2,1,true,z,false,true,0.0-2.0-0.51-0.461-3.461,0,0,0,90,false,stim,false,0,563,0,0,1,56472,task1,1532954,false,false,1484,image-keyboard-response,16
true,12,0,2,2,false,d,false,true,0.0-2.0-0.51-0.462-3.462,0,0,0,81,false,stim,true,0,641,0,0,0,56472,task1,1535132,false,true,1487,image-keyboard-response,17
true,12,0,2,2,false,d,false,false,0.0-2.0-0.51-0.463-3.463,0,0,0,81,false,stim,true,0,583,0,0,0,56472,task1,1537255,false,false,1490,image-keyboard-response,18
true,12,1,2,0,false,q,false,false,0.0-2.0-0.51-0.464-3.464,0,0,0,90,false,stim,true,1,586,0,0,2,56472,task1,1539367,false,false,1493,image-keyboard-response,19
true,12,2,2,1,false,z,true,false,0.0-2.0-0.51-0.465-3.465,0,0,0,68,false,stim,false,0,1382,0,0,1,56472,task1,1542283,false,false,1496,image-keyboard-response,20
true,12,0,2,2,false,d,false,false,0.0-2.0-0.51-0.466-3.466,0,0,0,81,false,stim,true,0,481,0,0,0,56472,task1,1544281,false,false,1499,image-keyboard-response,21
true,12,0,2,1,false,z,false,false,0.0-2.0-0.51-0.467-3.467,0,0,0,81,false,stim,true,0,557,0,0,1,56472,task1,1546369,false,false,1502,image-keyboard-response,22
true,12,2,2,1,false,z,true,false,0.0-2.0-0.52-0.468-3.468,0,0,0,68,false,stim,false,0,2172,0,0,1,56472,task1,1550073,false,false,1505,image-keyboard-response,23
true,12,1,2,1,true,z,false,true,0.0-2.0-0.52-0.469-3.469,0,0,0,90,false,stim,false,0,770,0,0,1,56472,task1,1552371,false,false,1508,image-keyboard-response,24
true,12,0,2,0,true,q,false,true,0.0-2.0-0.52-0.470-3.470,0,0,0,81,false,stim,false,1,1616,0,0,2,56472,task1,1555517,false,false,1511,image-keyboard-response,25
true,12,2,2,2,true,d,false,true,0.0-2.0-0.52-0.471-3.471,0,0,0,68,false,stim,false,0,1632,0,0,0,56472,task1,1558671,false,false,1514,image-keyboard-response,26
true,12,0,2,0,true,q,false,true,0.0-2.0-0.52-0.472-3.472,0,0,0,81,false,stim,false,1,1026,0,0,2,56472,task1,1561237,false,false,1517,image-keyboard-response,27
true,12,1,2,1,true,z,false,true,0.0-2.0-0.52-0.473-3.473,0,0,0,90,false,stim,false,0,913,0,0,1,56472,task1,1563675,false,false,1520,image-keyboard-response,28
true,12,2,2,2,true,d,false,true,0.0-2.0-0.52-0.474-3.474,0,0,0,68,false,stim,false,0,751,0,0,0,56472,task1,1565951,false,false,1523,image-keyboard-response,29
true,12,2,2,2,true,d,false,true,0.0-2.0-0.52-0.475-3.475,0,0,0,68,false,stim,false,0,878,0,0,0,56472,task1,1568359,false,false,1526,image-keyboard-response,30
true,12,0,2,0,true,q,false,true,0.0-2.0-0.52-0.476-3.476,0,0,0,81,false,stim,false,1,1105,0,0,2,56472,task1,1570996,false,false,1529,image-keyboard-response,31
true,12,1,2,1,true,z,false,true,0.0-2.0-0.53-0.477-3.477,0,0,0,90,false,stim,false,0,487,0,0,1,56472,task1,1573019,false,false,1532,image-keyboard-response,32
true,12,1,2,1,true,z,false,true,0.0-2.0-0.53-0.478-3.478,0,0,0,90,false,stim,false,0,755,0,0,1,56472,task1,1575286,false,false,1535,image-keyboard-response,33
true,12,2,2,2,true,d,false,true,0.0-2.0-0.53-0.479-3.479,0,0,0,68,false,stim,false,0,863,0,0,0,56472,task1,1577684,false,false,1538,image-keyboard-response,34
true,12,0,2,0,true,q,false,true,0.0-2.0-0.53-0.480-3.480,0,0,0,81,false,stim,false,1,550,0,0,2,56472,task1,1579752,false,false,1541,image-keyboard-response,35
true,12,1,2,2,false,d,true,false,0.0-2.0-0.53-0.481-3.481,0,0,0,90,false,stim,false,0,602,0,0,0,56472,task1,1581873,false,false,1544,image-keyboard-response,36
true,12,2,2,1,false,z,true,false,0.0-2.0-0.53-0.482-3.482,0,0,0,68,false,stim,false,0,575,0,0,1,56472,task1,1583987,false,false,1547,image-keyboard-response,37
true,12,0,2,0,true,q,false,true,0.0-2.0-0.53-0.483-3.483,0,0,0,81,false,stim,false,1,642,0,0,2,56472,task1,1586153,false,false,1550,image-keyboard-response,38
true,12,0,2,0,true,q,false,true,0.0-2.0-0.53-0.484-3.484,0,0,0,81,false,stim,false,1,745,0,0,2,56472,task1,1588427,false,false,1553,image-keyboard-response,39
true,12,2,2,2,true,d,false,true,0.0-2.0-0.53-0.485-3.485,0,0,0,68,false,stim,false,0,2658,0,0,0,56472,task1,1592618,false,false,1556,image-keyboard-response,40
true,12,0,2,0,true,q,false,true,0.0-2.0-0.54-0.486-3.486,0,0,0,81,false,stim,false,1,857,0,0,2,56472,task1,1595007,false,false,1559,image-keyboard-response,41
true,12,0,2,0,true,q,false,true,0.0-2.0-0.54-0.487-3.487,0,0,0,81,false,stim,false,1,751,0,0,2,56472,task1,1597281,false,false,1562,image-keyboard-response,42
true,13,1,1,0,false,q,false,false,0.0-2.0-0.54-0.488-3.488,0,0,0,90,true,stim,true,1,1305,0,0,1,56472,task1,1600117,false,false,1565,image-keyboard-response,1
true,13,2,1,1,false,z,false,true,0.0-2.0-0.54-0.489-3.489,0,0,0,68,false,stim,true,2,853,0,0,0,56472,task1,1602494,false,true,1568,image-keyboard-response,2
true,13,1,1,0,false,q,false,false,0.0-2.0-0.54-0.490-3.490,0,0,0,90,false,stim,true,1,2089,0,0,1,56472,task1,1606111,false,false,1571,image-keyboard-response,3
true,13,2,1,1,false,z,false,false,0.0-2.0-0.54-0.491-3.491,0,0,0,68,false,stim,true,2,1181,0,0,0,56472,task1,1608832,false,false,1574,image-keyboard-response,4
true,13,0,1,1,false,z,true,false,0.0-2.0-0.54-0.492-3.492,0,0,0,81,false,stim,false,2,658,0,0,0,56472,task1,1611029,false,false,1577,image-keyboard-response,5
true,13,0,1,2,false,d,false,false,0.0-2.0-0.54-0.493-3.493,0,0,0,81,false,stim,true,0,860,0,0,2,56472,task1,1613416,false,false,1580,image-keyboard-response,6
true,13,1,1,0,false,q,false,true,0.0-2.0-0.54-0.494-3.494,0,0,0,90,false,stim,true,1,758,0,0,1,56472,task1,1615698,false,true,1583,image-keyboard-response,7
true,13,2,1,2,true,d,false,true,0.0-2.0-0.55-0.495-3.495,0,0,0,68,false,stim,false,0,1094,0,0,2,56472,task1,1618306,false,false,1586,image-keyboard-response,8
true,13,2,1,2,true,d,false,true,0.0-2.0-0.55-0.496-3.496,0,0,0,68,false,stim,false,0,796,0,0,2,56472,task1,1620629,false,false,1589,image-keyboard-response,9
true,13,1,1,0,false,q,false,false,0.0-2.0-0.55-0.497-3.497,0,0,0,90,false,stim,true,1,823,0,0,1,56472,task1,1622985,false,false,1592,image-keyboard-response,10
true,13,0,1,1,false,z,true,false,0.0-2.0-0.55-0.498-3.498,0,0,0,81,false,stim,false,2,1773,0,0,0,56472,task1,1626282,false,false,1595,image-keyboard-response,11
true,13,1,1,0,false,q,false,false,0.0-2.0-0.55-0.499-3.499,0,0,0,90,false,stim,true,1,1248,0,0,1,56472,task1,1629069,false,false,1598,image-keyboard-response,12
true,13,2,1,1,false,z,false,false,0.0-2.0-0.55-0.500-3.500,0,0,0,68,false,stim,true,2,814,0,0,0,56472,task1,1631430,false,false,1601,image-keyboard-response,13
true,13,0,1,1,false,z,true,false,0.0-2.0-0.55-0.501-3.501,0,0,0,81,false,stim,false,2,937,0,0,0,56472,task1,1633888,false,false,1604,image-keyboard-response,14
true,13,2,1,0,false,q,true,false,0.0-2.0-0.55-0.502-3.502,0,0,0,68,false,stim,false,1,1727,0,0,1,56472,task1,1637124,false,false,1607,image-keyboard-response,15
true,13,2,1,2,true,d,false,true,0.0-2.0-0.55-0.503-3.503,0,0,0,68,false,stim,false,0,795,0,0,2,56472,task1,1639436,false,false,1610,image-keyboard-response,16
true,13,2,1,2,true,d,false,true,0.0-2.0-0.56-0.504-3.504,0,0,0,68,false,stim,false,0,679,0,0,2,56472,task1,1641639,false,false,1613,image-keyboard-response,17
true,13,2,1,2,true,d,false,true,0.0-2.0-0.56-0.505-3.505,0,0,0,68,false,stim,false,0,411,0,0,2,56472,task1,1643563,false,false,1616,image-keyboard-response,18
true,13,2,1,1,false,z,false,false,0.0-2.0-0.56-0.506-3.506,0,0,0,68,false,stim,true,2,658,0,0,0,56472,task1,1645749,false,false,1619,image-keyboard-response,19
true,13,1,1,1,true,z,false,false,0.0-2.0-0.56-0.507-3.507,0,0,0,90,false,stim,false,2,1304,0,0,0,56472,task1,1648597,false,true,1622,image-keyboard-response,20
true,13,2,1,0,false,q,true,false,0.0-2.0-0.56-0.508-3.508,0,0,0,68,false,stim,false,1,1122,0,0,1,56472,task1,1651232,false,false,1625,image-keyboard-response,21
true,13,2,1,2,true,d,false,true,0.0-2.0-0.56-0.509-3.509,0,0,0,68,false,stim,false,0,464,0,0,2,56472,task1,1653225,false,false,1628,image-keyboard-response,22
true,13,0,1,0,true,q,false,true,0.0-2.0-0.56-0.510-3.510,0,0,0,81,false,stim,false,1,2410,0,0,1,56472,task1,1657172,false,false,1631,image-keyboard-response,23
true,13,0,1,0,true,q,false,false,0.0-2.0-0.56-0.511-3.511,0,0,0,81,false,stim,false,1,848,0,0,1,56472,task1,1659559,false,true,1634,image-keyboard-response,24
true,13,0,1,1,false,z,true,false,0.0-2.0-0.56-0.512-3.512,0,0,0,81,false,stim,false,2,2553,0,0,0,56472,task1,1663636,false,false,1637,image-keyboard-response,25
true,13,2,1,1,false,z,false,false,0.0-2.0-0.57-0.513-3.513,0,0,0,68,false,stim,true,2,1119,0,0,0,56472,task1,1666280,false,false,1640,image-keyboard-response,26
true,13,1,1,0,false,q,false,false,0.0-2.0-0.57-0.514-3.514,0,0,0,90,false,stim,true,1,1255,0,0,1,56472,task1,1669077,false,false,1643,image-keyboard-response,27
true,13,2,1,0,false,q,true,false,0.0-2.0-0.57-0.515-3.515,0,0,0,68,false,stim,false,1,747,0,0,1,56472,task1,1671349,false,false,1646,image-keyboard-response,28
true,13,0,1,1,false,z,true,false,0.0-2.0-0.57-0.516-3.516,0,0,0,81,false,stim,false,2,510,0,0,0,56472,task1,1673401,false,false,1649,image-keyboard-response,29
true,13,2,1,2,true,d,false,true,0.0-2.0-0.57-0.517-3.517,0,0,0,68,false,stim,false,0,588,0,0,2,56472,task1,1675510,false,false,1652,image-keyboard-response,30
true,13,0,1,1,false,z,true,true,0.0-2.0-0.57-0.518-3.518,0,0,0,81,false,stim,false,2,2593,0,0,0,56472,task1,1679634,false,true,1655,image-keyboard-response,31
true,13,2,1,0,false,q,true,false,0.0-2.0-0.57-0.519-3.519,0,0,0,68,false,stim,false,1,1420,0,0,1,56472,task1,1682581,false,false,1658,image-keyboard-response,32
true,13,0,1,2,false,d,false,false,0.0-2.0-0.57-0.520-3.520,0,0,0,81,false,stim,true,0,1021,0,0,2,56472,task1,1685133,false,false,1661,image-keyboard-response,33
true,13,2,1,2,true,d,false,true,0.0-2.0-0.57-0.521-3.521,0,0,0,68,false,stim,false,0,1263,0,0,2,56472,task1,1687934,false,false,1664,image-keyboard-response,34
true,13,1,1,2,false,d,true,false,0.0-2.0-0.58-0.522-3.522,0,0,0,90,false,stim,false,0,830,0,0,2,56472,task1,1690302,false,false,1667,image-keyboard-response,35
true,13,0,1,1,false,z,true,false,0.0-2.0-0.58-0.523-3.523,0,0,0,81,false,stim,false,2,689,0,0,0,56472,task1,1692511,false,false,1670,image-keyboard-response,36
true,13,2,1,0,false,q,true,false,0.0-2.0-0.58-0.524-3.524,0,0,0,68,false,stim,false,1,400,0,1,1,56472,task1,1694442,false,false,1673,image-keyboard-response,37
true,13,2,1,2,true,d,false,true,0.0-2.0-0.58-0.525-3.525,0,0,0,68,false,stim,false,0,772,0,1,2,56472,task1,1696753,false,false,1676,image-keyboard-response,38
true,13,0,1,1,false,z,true,false,0.0-2.0-0.58-0.526-3.526,0,0,0,81,false,stim,false,2,1144,0,1,0,56472,task1,1699436,false,false,1679,image-keyboard-response,39
true,13,1,1,0,false,q,false,false,0.0-2.0-0.58-0.527-3.527,0,0,0,90,false,stim,true,1,578,0,1,1,56472,task1,1701549,false,false,1682,image-keyboard-response,40
true,13,2,1,1,false,z,false,false,0.0-2.0-0.58-0.528-3.528,0,0,0,68,false,stim,true,2,314,0,1,0,56472,task1,1703382,false,false,1685,image-keyboard-response,41
true,14,0,0,0,true,q,false,false,0.0-2.0-0.58-0.529-3.529,1,1,1,81,true,stim,false,0,1149,0,1,1,56472,task1,1827777,false,true,1808,image-keyboard-response,1
true,14,2,0,2,true,d,false,true,0.0-2.0-0.58-0.530-3.530,1,1,1,68,false,stim,false,2,1065,0,1,2,56472,task1,1830360,false,false,1811,image-keyboard-response,2
true,14,1,0,0,false,q,true,false,0.0-2.0-0.59-0.531-3.531,1,1,1,90,false,stim,false,0,1275,0,1,1,56472,task1,1833166,false,false,1814,image-keyboard-response,3
true,14,2,0,2,true,d,false,true,0.0-2.0-0.59-0.532-3.532,1,1,1,68,false,stim,false,2,477,0,1,2,56472,task1,1835178,false,false,1817,image-keyboard-response,4
true,14,0,0,1,false,z,true,false,0.0-2.0-0.59-0.533-3.533,1,1,1,81,false,stim,false,1,780,0,1,0,56472,task1,1837491,false,false,1820,image-keyboard-response,5
true,14,1,0,0,false,q,true,false,0.0-2.0-0.59-0.534-3.534,1,1,1,90,false,stim,false,0,711,0,1,1,56472,task1,1839743,false,false,1823,image-keyboard-response,6
true,14,2,0,2,true,d,false,false,0.0-2.0-0.59-0.535-3.535,1,1,1,68,false,stim,false,2,523,0,1,2,56472,task1,1841785,false,true,1826,image-keyboard-response,7
true,14,0,0,0,true,q,false,true,0.0-2.0-0.59-0.536-3.536,1,1,1,81,false,stim,false,0,1411,0,1,1,56472,task1,1844732,false,false,1829,image-keyboard-response,8
true,14,0,0,1,false,z,true,false,0.0-2.0-0.59-0.537-3.537,1,1,1,81,false,stim,false,1,1877,0,0,0,56472,task1,1848138,false,false,1832,image-keyboard-response,9
true,14,0,0,2,false,d,true,false,0.0-2.0-0.59-0.538-3.538,1,1,1,81,false,stim,false,2,1063,0,0,2,56472,task1,1850724,false,false,1835,image-keyboard-response,10
true,14,1,0,1,true,z,false,true,0.0-2.0-0.59-0.539-3.539,1,1,1,90,false,stim,false,1,1148,0,0,0,56472,task1,1853411,false,false,1838,image-keyboard-response,11
true,14,0,0,0,true,q,false,true,0.0-2.0-0.60-0.540-3.540,1,1,1,81,false,stim,false,0,1336,0,0,1,56472,task1,1856278,false,false,1841,image-keyboard-response,12
true,14,2,0,2,true,d,false,true,0.0-2.0-0.60-0.541-3.541,1,1,1,68,false,stim,false,2,1473,0,0,2,56472,task1,1859294,false,false,1844,image-keyboard-response,13
true,15,0,2,1,false,z,false,false,0.0-2.0-0.60-0.542-3.542,0,0,0,81,true,stim,true,0,1161,0,0,1,56472,task1,1861992,false,false,1847,image-keyboard-response,1
true,15,2,2,0,false,q,false,false,0.0-2.0-0.60-0.543-3.543,0,0,0,68,false,stim,true,2,897,0,0,2,56472,task1,1864428,false,false,1850,image-keyboard-response,2
true,15,1,2,2,false,d,false,false,0.0-2.0-0.60-0.544-3.544,0,0,0,90,false,stim,true,1,1303,0,0,0,56472,task1,1867265,false,false,1853,image-keyboard-response,3
true,15,0,2,1,false,z,false,false,0.0-2.0-0.60-0.545-3.545,0,0,0,81,false,stim,true,0,1144,0,0,1,56472,task1,1869947,false,false,1856,image-keyboard-response,4
true,15,2,2,0,false,q,false,false,0.0-2.0-0.60-0.546-3.546,0,0,0,68,false,stim,true,2,532,0,0,2,56472,task1,1872003,false,false,1859,image-keyboard-response,5
true,15,1,2,2,false,d,false,false,0.0-2.0-0.60-0.547-3.547,0,0,0,90,false,stim,true,1,520,0,0,0,56472,task1,1874052,false,false,1862,image-keyboard-response,6
true,15,0,2,2,false,d,true,false,0.0-2.0-0.60-0.548-3.548,0,0,0,81,false,stim,false,1,1058,0,0,0,56472,task1,1876648,false,false,1865,image-keyboard-response,7
true,15,0,2,0,true,q,false,true,0.0-2.0-0.61-0.549-3.549,0,0,0,81,false,stim,false,2,2199,0,0,2,56472,task1,1880360,false,false,1868,image-keyboard-response,8
true,15,1,2,1,true,z,false,true,0.0-2.0-0.61-0.550-3.550,0,0,0,90,false,stim,false,0,1035,0,0,1,56472,task1,1882927,false,false,1871,image-keyboard-response,9
true,15,1,2,1,true,z,false,true,0.0-2.0-0.61-0.551-3.551,0,0,0,90,false,stim,false,0,691,0,0,1,56472,task1,1885143,false,false,1874,image-keyboard-response,10
true,15,2,2,2,true,d,false,false,0.0-2.0-0.61-0.552-3.552,0,0,0,68,false,stim,false,1,1453,0,0,0,56472,task1,1888115,false,true,1877,image-keyboard-response,11
true,15,0,2,0,true,q,false,false,0.0-2.0-0.61-0.553-3.553,0,0,0,81,false,stim,false,2,760,0,0,2,56472,task1,1890412,false,true,1880,image-keyboard-response,12
true,15,1,2,1,true,z,false,false,0.0-2.0-0.61-0.554-3.554,0,0,0,90,false,stim,false,0,687,0,0,1,56472,task1,1892629,false,true,1883,image-keyboard-response,13
true,15,2,2,2,true,d,false,true,0.0-2.0-0.61-0.555-3.555,0,0,0,68,false,stim,false,1,1074,0,0,0,56472,task1,1895220,false,false,1886,image-keyboard-response,14
true,15,1,2,0,false,q,true,false,0.0-2.0-0.61-0.556-3.556,0,0,0,90,false,stim,false,2,1710,0,0,2,56472,task1,1898472,false,false,1889,image-keyboard-response,15
true,15,0,2,2,false,d,true,false,0.0-2.0-0.61-0.557-3.557,0,0,0,81,false,stim,false,1,782,0,0,0,56472,task1,1900794,false,false,1892,image-keyboard-response,16
true,15,1,2,2,false,d,false,false,0.0-2.0-0.62-0.558-3.558,0,0,0,90,false,stim,true,1,965,0,0,0,56472,task1,1903297,false,false,1895,image-keyboard-response,17
true,15,2,2,1,false,z,true,false,0.0-2.0-0.62-0.559-3.559,0,0,0,68,false,stim,false,0,1266,0,0,1,56472,task1,1906077,false,false,1898,image-keyboard-response,18
true,15,2,2,0,false,q,false,false,0.0-2.0-0.62-0.560-3.560,0,0,0,68,false,stim,true,2,1508,0,0,2,56472,task1,1909118,false,false,1901,image-keyboard-response,19
true,15,0,2,1,false,z,false,false,0.0-2.0-0.62-0.561-3.561,0,0,0,81,false,stim,true,0,578,0,0,1,56472,task1,1911221,false,false,1904,image-keyboard-response,20
true,15,1,2,2,false,d,false,false,0.0-2.0-0.62-0.562-3.562,0,0,0,90,false,stim,true,1,624,0,0,0,56472,task1,1913368,false,false,1907,image-keyboard-response,21
true,15,2,2,0,false,q,false,false,0.0-2.0-0.62-0.563-3.563,0,0,0,68,false,stim,true,2,725,0,0,2,56472,task1,1915616,false,false,1910,image-keyboard-response,22
true,15,1,2,0,false,q,true,false,0.0-2.0-0.62-0.564-3.564,0,0,0,90,false,stim,false,2,821,0,0,2,56472,task1,1917949,false,false,1913,image-keyboard-response,23
true,15,0,2,1,false,z,false,false,0.0-2.0-0.62-0.565-3.565,0,0,0,81,false,stim,true,0,845,0,0,1,56472,task1,1920316,false,false,1916,image-keyboard-response,24
true,15,1,2,2,false,d,false,false,0.0-2.0-0.62-0.566-3.566,0,0,0,90,false,stim,true,1,1595,0,0,0,56472,task1,1923431,false,false,1919,image-keyboard-response,25
true,15,0,2,0,true,q,false,true,0.0-2.0-0.63-0.567-3.567,0,0,0,81,false,stim,false,2,2641,0,0,2,56472,task1,1927592,false,false,1922,image-keyboard-response,26
true,15,0,2,0,true,q,false,true,0.0-2.0-0.63-0.568-3.568,0,0,0,81,false,stim,false,2,441,0,0,2,56472,task1,1929574,false,false,1925,image-keyboard-response,27
true,15,1,2,1,true,z,false,true,0.0-2.0-0.63-0.569-3.569,0,0,0,90,false,stim,false,0,2458,0,0,1,56472,task1,1933549,false,false,1928,image-keyboard-response,28
true,15,1,2,1,true,z,false,true,0.0-2.0-0.63-0.570-3.570,0,0,0,90,false,stim,false,0,534,0,0,1,56472,task1,1935616,false,false,1931,image-keyboard-response,29
true,15,0,2,0,true,q,false,true,0.0-2.0-0.63-0.571-3.571,0,0,0,81,false,stim,false,2,711,0,0,2,56472,task1,1937839,false,false,1934,image-keyboard-response,30
true,15,2,2,2,true,d,false,true,0.0-2.0-0.63-0.572-3.572,0,0,0,68,false,stim,false,1,1533,0,0,0,56472,task1,1940881,false,false,1937,image-keyboard-response,31
true,15,2,2,2,true,d,false,true,0.0-2.0-0.63-0.573-3.573,0,0,0,68,false,stim,false,1,652,0,0,0,56472,task1,1943052,false,false,1940,image-keyboard-response,32
true,15,1,2,1,true,z,false,true,0.0-2.0-0.63-0.574-3.574,0,0,0,90,false,stim,false,0,631,0,0,1,56472,task1,1945206,false,false,1943,image-keyboard-response,33
true,15,2,2,2,true,d,false,true,0.0-2.0-0.63-0.575-3.575,0,0,0,68,false,stim,false,1,1150,0,0,0,56472,task1,1947872,false,false,1946,image-keyboard-response,34
true,15,2,2,2,true,d,false,true,0.0-2.0-0.64-0.576-3.576,0,0,0,68,false,stim,false,1,404,0,0,0,56472,task1,1949804,false,false,1949,image-keyboard-response,35
true,15,0,2,0,true,q,false,true,0.0-2.0-0.64-0.577-3.577,0,0,0,81,false,stim,false,2,599,0,0,2,56472,task1,1951927,false,false,1952,image-keyboard-response,36
true,15,0,2,0,true,q,false,true,0.0-2.0-0.64-0.578-3.578,0,0,0,81,false,stim,false,2,568,0,0,2,56472,task1,1954019,false,false,1955,image-keyboard-response,37
true,15,1,2,1,true,z,false,true,0.0-2.0-0.64-0.579-3.579,0,0,0,90,false,stim,false,0,1054,0,0,1,56472,task1,1956601,false,false,1958,image-keyboard-response,38
true,15,2,2,1,false,z,true,false,0.0-2.0-0.64-0.580-3.580,0,0,0,68,false,stim,false,0,2885,0,0,1,56472,task1,1961017,false,false,1961,image-keyboard-response,39
true,15,2,2,2,true,d,false,true,0.0-2.0-0.64-0.581-3.581,0,0,0,68,false,stim,false,1,1210,0,0,0,56472,task1,1963752,false,false,1964,image-keyboard-response,40
true,15,2,2,2,true,d,false,true,0.0-2.0-0.64-0.582-3.582,0,0,0,68,false,stim,false,1,624,0,0,0,56472,task1,1965896,false,false,1967,image-keyboard-response,41
true,15,0,2,0,true,q,false,true,0.0-2.0-0.64-0.583-3.583,0,0,0,81,false,stim,false,2,777,0,0,2,56472,task1,1968208,false,false,1970,image-keyboard-response,42
true,15,1,2,1,true,z,false,true,0.0-2.0-0.64-0.584-3.584,0,0,0,90,false,stim,false,0,769,0,0,1,56472,task1,1970510,false,false,1973,image-keyboard-response,43
true,15,1,2,1,true,z,false,true,0.0-2.0-0.65-0.585-3.585,0,0,0,90,false,stim,false,0,725,0,0,1,56472,task1,1972766,false,false,1976,image-keyboard-response,44
true,15,0,2,0,true,q,false,true,0.0-2.0-0.65-0.586-3.586,0,0,0,81,false,stim,false,2,898,0,0,2,56472,task1,1975200,false,false,1979,image-keyboard-response,45
true,16,2,2,0,false,q,false,false,0.0-2.0-0.65-0.587-3.587,0,0,0,68,true,stim,true,2,1229,0,0,0,56472,task1,1977960,false,false,1982,image-keyboard-response,1
true,16,0,2,1,false,z,false,false,0.0-2.0-0.65-0.588-3.588,0,0,0,81,false,stim,true,0,785,0,0,2,56472,task1,1980278,false,false,1985,image-keyboard-response,2
true,16,1,2,0,false,q,true,false,0.0-2.0-0.65-0.589-3.589,0,0,0,90,false,stim,false,2,1143,0,0,0,56472,task1,1982945,false,false,1988,image-keyboard-response,3
true,16,2,2,0,false,q,true,false,0.0-2.0-0.65-0.590-3.590,0,0,0,68,false,stim,false,1,676,0,0,1,56472,task1,1985158,false,false,1991,image-keyboard-response,4
true,16,0,2,0,true,q,false,true,0.0-2.0-0.65-0.591-3.591,0,0,0,81,false,stim,false,2,353,0,0,0,56472,task1,1987025,false,false,1994,image-keyboard-response,5
true,16,2,2,1,false,z,true,false,0.0-2.0-0.65-0.592-3.592,0,0,0,68,false,stim,false,0,1576,0,0,2,56472,task1,1990127,false,false,1997,image-keyboard-response,6
true,16,0,2,0,true,q,false,true,0.0-2.0-0.65-0.593-3.593,0,0,0,81,false,stim,false,1,1637,0,0,1,56472,task1,1993287,false,false,2000,image-keyboard-response,7
true,16,0,2,0,true,q,false,true,0.0-2.0-0.66-0.594-3.594,0,0,0,81,false,stim,false,2,1067,0,0,0,56472,task1,1995889,false,false,2003,image-keyboard-response,8
true,16,0,2,0,true,q,false,true,0.0-2.0-0.66-0.595-3.595,0,0,0,81,false,stim,false,2,565,0,0,0,56472,task1,1997986,false,false,2006,image-keyboard-response,9
true,16,0,2,0,true,q,false,false,0.0-2.0-0.66-0.596-3.596,0,0,0,81,false,stim,false,1,738,0,0,1,56472,task1,2000248,false,true,2009,image-keyboard-response,10
true,16,0,2,1,false,z,false,false,0.0-2.0-0.66-0.597-3.597,0,0,0,81,false,stim,true,0,814,0,0,2,56472,task1,2002586,false,false,2012,image-keyboard-response,11
true,16,2,2,0,false,q,false,false,0.0-2.0-0.66-0.598-3.598,0,0,0,68,false,stim,true,2,587,0,0,0,56472,task1,2004699,false,false,2015,image-keyboard-response,12
true,16,1,2,0,false,q,false,false,0.0-2.0-0.66-0.599-3.599,0,0,0,90,false,stim,true,1,300,0,0,1,56472,task1,2006532,false,false,2018,image-keyboard-response,13
true,16,0,2,1,false,z,false,false,0.0-2.0-0.66-0.600-3.600,0,0,0,81,false,stim,true,0,631,0,0,2,56472,task1,2008694,false,false,2021,image-keyboard-response,14
true,16,2,2,1,false,z,true,false,0.0-2.0-0.66-0.601-3.601,0,0,0,68,false,stim,false,0,1538,0,0,2,56472,task1,2011760,false,false,2024,image-keyboard-response,15
true,16,1,2,0,false,q,false,false,0.0-2.0-0.66-0.602-3.602,0,0,0,90,false,stim,true,1,301,0,0,1,56472,task1,2013602,false,false,2027,image-keyboard-response,16
true,16,0,2,0,true,q,false,true,0.0-2.0-0.67-0.603-3.603,0,0,0,81,false,stim,false,1,348,0,0,1,56472,task1,2015480,false,false,2030,image-keyboard-response,17
true,16,2,2,0,false,q,false,false,0.0-2.0-0.67-0.604-3.604,0,0,0,68,false,stim,true,2,1204,0,0,0,56472,task1,2018217,false,false,2033,image-keyboard-response,18
true,16,1,2,0,false,q,true,false,0.0-2.0-0.67-0.605-3.605,0,0,0,90,false,stim,false,2,608,0,0,0,56472,task1,2020350,false,false,2036,image-keyboard-response,19
true,16,0,2,1,false,z,false,false,0.0-2.0-0.67-0.606-3.606,0,0,0,81,false,stim,true,0,565,0,0,2,56472,task1,2022447,false,false,2039,image-keyboard-response,20
true,16,1,2,0,false,q,false,false,0.0-2.0-0.67-0.607-3.607,0,0,0,90,false,stim,true,1,292,0,0,1,56472,task1,2024264,false,false,2042,image-keyboard-response,21
true,16,0,2,1,false,z,false,false,0.0-2.0-0.67-0.608-3.608,0,0,0,81,false,stim,true,0,1191,0,0,2,56472,task1,2026982,false,false,2045,image-keyboard-response,22
true,16,1,2,0,false,q,false,false,0.0-2.0-0.67-0.609-3.609,0,0,0,90,false,stim,true,1,477,0,0,1,56472,task1,2028989,false,false,2048,image-keyboard-response,23
true,16,2,2,1,false,z,true,false,0.0-2.0-0.67-0.610-3.610,0,0,0,68,false,stim,false,0,395,0,0,2,56472,task1,2030927,false,false,2051,image-keyboard-response,24
true,16,0,2,0,true,q,false,false,0.0-2.0-0.67-0.611-3.611,0,0,0,81,false,stim,false,2,986,0,0,0,56472,task1,2033438,false,true,2054,image-keyboard-response,25
true,16,1,2,0,false,q,true,false,0.0-2.0-0.68-0.612-3.612,0,0,0,90,false,stim,false,2,620,0,0,0,56472,task1,2035582,false,false,2057,image-keyboard-response,26
false,16,-1,2,1,false,z,true,false,0.0-2.0-0.68-0.613-3.613,0,0,0,,false,stim,false,0,,0,0,2,56472,task1,2040130,false,false,2060,image-keyboard-response,27
true,16,1,2,0,false,q,false,false,0.0-2.0-0.68-0.614-3.614,0,0,0,90,false,stim,true,1,727,0,0,1,56472,task1,2042399,false,false,2063,image-keyboard-response,28
true,16,2,2,0,false,q,false,false,0.0-2.0-0.68-0.615-3.615,0,0,0,68,false,stim,true,2,319,0,0,0,56472,task1,2044241,false,false,2066,image-keyboard-response,29
true,16,0,2,0,true,q,false,true,0.0-2.0-0.68-0.616-3.616,0,0,0,81,false,stim,false,1,277,0,0,1,56472,task1,2046039,false,false,2069,image-keyboard-response,30
true,16,0,2,0,true,q,false,true,0.0-2.0-0.68-0.617-3.617,0,0,0,81,false,stim,false,1,570,0,0,1,56472,task1,2048152,false,false,2072,image-keyboard-response,31
true,16,2,2,0,false,q,false,false,0.0-2.0-0.68-0.618-3.618,0,0,0,68,false,stim,true,2,1671,0,0,0,56472,task1,2051342,false,false,2075,image-keyboard-response,32
true,16,1,2,1,true,z,false,true,0.0-2.0-0.68-0.619-3.619,0,0,0,90,false,stim,false,0,627,0,0,2,56472,task1,2053490,false,false,2078,image-keyboard-response,33
true,16,1,2,1,true,z,false,true,0.0-2.0-0.68-0.620-3.620,0,0,0,90,false,stim,false,0,437,0,0,2,56472,task1,2055467,false,false,2081,image-keyboard-response,34
true,16,0,2,0,true,q,false,true,0.0-2.0-0.69-0.621-3.621,0,0,0,81,false,stim,false,1,459,0,0,1,56472,task1,2057435,false,false,2084,image-keyboard-response,35
true,16,1,2,1,true,z,false,true,0.0-2.0-0.69-0.622-3.622,0,0,0,90,false,stim,false,0,502,0,0,2,56472,task1,2059463,false,false,2087,image-keyboard-response,36
true,16,1,2,1,true,z,false,true,0.0-2.0-0.69-0.623-3.623,0,0,0,90,false,stim,false,0,434,0,0,2,56472,task1,2061421,false,false,2090,image-keyboard-response,37
true,16,0,2,0,true,q,false,true,0.0-2.0-0.69-0.624-3.624,0,0,0,81,false,stim,false,2,601,0,0,0,56472,task1,2063553,false,false,2093,image-keyboard-response,38
true,16,0,2,0,true,q,false,true,0.0-2.0-0.69-0.625-3.625,0,0,0,81,false,stim,false,1,730,0,0,1,56472,task1,2065800,false,false,2096,image-keyboard-response,39
true,16,1,2,1,true,z,false,true,0.0-2.0-0.69-0.626-3.626,0,0,0,90,false,stim,false,0,470,0,0,2,56472,task1,2067789,false,false,2099,image-keyboard-response,40
true,16,0,2,0,true,q,false,true,0.0-2.0-0.69-0.627-3.627,0,0,0,81,false,stim,false,2,509,0,0,0,56472,task1,2069841,false,false,2102,image-keyboard-response,41
true,16,0,2,0,true,q,false,true,0.0-2.0-0.69-0.628-3.628,0,0,0,81,false,stim,false,2,647,0,0,0,56472,task1,2072028,false,false,2105,image-keyboard-response,42
true,16,0,2,0,true,q,false,true,0.0-2.0-0.69-0.629-3.629,0,0,0,81,false,stim,false,1,1108,0,0,1,56472,task1,2074670,false,false,2108,image-keyboard-response,43
true,16,0,2,0,true,q,false,false,0.0-2.0-0.70-0.630-3.630,0,0,0,81,false,stim,false,2,896,0,0,0,56472,task1,2077089,false,true,2111,image-keyboard-response,44
true,16,1,2,1,true,z,false,true,0.0-2.0-0.70-0.631-3.631,0,0,0,90,false,stim,false,0,370,0,0,2,56472,task1,2079000,false,false,2114,image-keyboard-response,45
