answered,blockNum,choice,condition,corResp,correct,correct_response,explo,fb,internal_node_id,isStable_1,isStable_2,isStable_3,key_press,newBlock,part,persev,persevResp,rt,sessNum,stableAS,stimulus,subject,task,time_elapsed,training,trap,trial_index,trial_type,trialsInBlock
true,1,0,0,0,true,q,false,true,0.0-2.0-0.0-0.0-3.0,0,0,0,81,true,stim,false,-1,1017,2,0,0,56472,task3,76063,false,false,79,image-keyboard-response,1
true,1,0,0,2,false,d,true,false,0.0-2.0-0.0-0.1-3.1,0,0,0,81,false,stim,false,-1,311,2,0,1,56472,task3,77907,false,false,82,image-keyboard-response,2
true,1,1,0,2,false,d,true,true,0.0-2.0-0.0-0.2-3.2,0,0,0,90,false,stim,false,-1,218,2,0,1,56472,task3,79655,false,true,85,image-keyboard-response,3
true,1,2,0,2,true,d,false,true,0.0-2.0-0.0-0.3-3.3,0,0,0,68,false,stim,false,-1,201,2,0,1,56472,task3,81398,false,false,88,image-keyboard-response,4
true,1,1,0,0,false,q,true,false,0.0-2.0-0.0-0.4-3.4,0,0,0,90,false,stim,false,-1,320,2,0,2,56472,task3,83246,false,false,91,image-keyboard-response,5
true,1,0,0,0,true,q,false,true,0.0-2.0-0.0-0.5-3.5,0,0,0,81,false,stim,false,-1,123,2,0,2,56472,task3,84900,false,false,94,image-keyboard-response,6
true,1,1,0,0,false,q,true,false,0.0-2.0-0.0-0.6-3.6,0,0,0,90,false,stim,false,-1,582,2,0,0,56472,task3,87007,false,false,97,image-keyboard-response,7
true,1,0,0,0,true,q,false,true,0.0-2.0-0.0-0.7-3.7,0,0,0,81,false,stim,false,-1,331,2,0,2,56472,task3,88866,false,false,100,image-keyboard-response,8
true,1,2,0,0,false,q,true,false,0.0-2.0-0.0-0.8-3.8,0,0,0,68,false,stim,false,-1,354,2,0,0,56472,task3,90749,false,false,103,image-keyboard-response,9
true,1,0,0,0,true,q,false,true,0.0-2.0-0.1-0.9-3.9,0,0,0,81,false,stim,false,-1,172,2,0,2,56472,task3,92447,false,false,106,image-keyboard-response,10
true,1,1,0,0,false,q,true,false,0.0-2.0-0.1-0.10-3.10,0,0,0,90,false,stim,false,-1,509,2,0,0,56472,task3,94495,false,false,109,image-keyboard-response,11
true,1,0,0,0,true,q,false,false,0.0-2.0-0.1-0.11-3.11,0,0,0,81,false,stim,false,-1,327,2,0,2,56472,task3,96353,false,true,112,image-keyboard-response,12
true,1,2,0,2,true,d,false,true,0.0-2.0-0.1-0.12-3.12,0,0,0,68,false,stim,false,-1,261,2,0,1,56472,task3,98137,false,false,115,image-keyboard-response,13
true,1,0,0,0,true,q,false,true,0.0-2.0-0.1-0.13-3.13,0,0,0,81,false,stim,false,-1,246,2,0,2,56472,task3,99901,false,false,118,image-keyboard-response,14
true,1,1,0,0,false,q,true,false,0.0-2.0-0.1-0.14-3.14,0,0,0,90,false,stim,false,-1,1147,2,0,0,56472,task3,102572,false,false,121,image-keyboard-response,15
true,1,2,0,0,false,q,true,false,0.0-2.0-0.1-0.15-3.15,0,0,0,68,false,stim,false,-1,824,2,0,0,56472,task3,104919,false,false,124,image-keyboard-response,16
true,1,2,0,2,true,d,false,true,0.0-2.0-0.1-0.16-3.16,0,0,0,68,false,stim,false,-1,692,2,0,1,56472,task3,107148,false,false,127,image-keyboard-response,17
true,1,2,0,2,true,d,false,true,0.0-2.0-0.1-0.17-3.17,0,0,0,68,false,stim,false,-1,720,2,0,1,56472,task3,109406,false,false,130,image-keyboard-response,18
true,1,2,0,2,true,d,false,true,0.0-2.0-0.2-0.18-3.18,0,0,0,68,false,stim,false,-1,432,2,0,1,56472,task3,111379,false,false,133,image-keyboard-response,19
true,1,0,0,0,true,q,false,true,0.0-2.0-0.2-0.19-3.19,0,0,0,81,false,stim,false,-1,502,2,0,0,56472,task3,113418,false,false,136,image-keyboard-response,20
true,1,0,0,0,true,q,false,true,0.0-2.0-0.2-0.20-3.20,0,0,0,81,false,stim,false,-1,450,2,0,2,56472,task3,115406,false,false,139,image-keyboard-response,21
true,1,0,0,0,true,q,false,true,0.0-2.0-0.2-0.21-3.21,0,0,0,81,false,stim,false,-1,503,2,0,0,56472,task3,117438,false,false,142,image-keyboard-response,22
true,1,2,0,0,false,q,true,false,0.0-2.0-0.2-0.22-3.22,0,0,0,68,false,stim,false,-1,395,2,1,2,56472,task3,119371,false,false,145,image-keyboard-response,23
true,1,2,0,0,false,q,true,false,0.0-2.0-0.2-0.23-3.23,0,0,0,68,false,stim,false,-1,385,2,1,2,56472,task3,121290,false,false,148,image-keyboard-response,24
true,1,0,0,0,true,q,false,true,0.0-2.0-0.2-0.24-3.24,0,0,0,81,false,stim,false,-1,520,2,0,0,56472,task3,123337,false,false,151,image-keyboard-response,25
true,1,2,0,2,true,d,false,true,0.0-2.0-0.2-0.25-3.25,0,0,0,68,false,stim,false,-1,576,2,0,1,56472,task3,125431,false,false,154,image-keyboard-response,26
true,2,2,1,1,false,z,false,false,0.0-2.0-0.2-0.26-3.26,0,0,1,68,true,stim,true,2,473,2,0,1,56472,task3,127429,false,false,157,image-keyboard-response,1
true,2,0,1,0,true,q,false,true,0.0-2.0-0.3-0.27-3.27,0,0,1,81,false,stim,false,0,587,2,1,2,56472,task3,129542,false,false,160,image-keyboard-response,2
true,2,0,1,2,false,d,false,false,0.0-2.0-0.3-0.28-3.28,0,0,1,81,false,stim,true,0,1094,2,0,0,56472,task3,132160,false,false,163,image-keyboard-response,3
true,2,2,1,1,false,z,false,false,0.0-2.0-0.3-0.29-3.29,0,0,1,68,false,stim,true,2,461,2,0,1,56472,task3,134147,false,false,166,image-keyboard-response,4
true,2,2,1,0,false,q,true,false,0.0-2.0-0.3-0.30-3.30,0,0,1,68,false,stim,false,0,399,2,1,2,56472,task3,136085,false,false,169,image-keyboard-response,5
true,2,0,1,2,false,d,false,false,0.0-2.0-0.3-0.31-3.31,0,0,1,81,false,stim,true,0,323,2,0,0,56472,task3,137938,false,false,172,image-keyboard-response,6
true,2,1,1,1,true,z,false,false,0.0-2.0-0.3-0.32-3.32,0,0,1,90,false,stim,false,2,328,2,0,1,56472,task3,139803,false,true,175,image-keyboard-response,7
true,2,2,1,1,false,z,false,false,0.0-2.0-0.3-0.33-3.33,0,0,1,68,false,stim,true,2,250,2,0,1,56472,task3,141576,false,false,178,image-keyboard-response,8
true,2,0,1,0,true,q,false,true,0.0-2.0-0.3-0.34-3.34,0,0,1,81,false,stim,false,0,418,2,1,2,56472,task3,143523,false,false,181,image-keyboard-response,9
true,2,0,1,2,false,d,false,false,0.0-2.0-0.3-0.35-3.35,0,0,1,81,false,stim,true,0,783,2,0,0,56472,task3,145812,false,false,184,image-keyboard-response,10
true,2,0,1,0,true,q,false,true,0.0-2.0-0.4-0.36-3.36,0,0,1,81,false,stim,false,0,1992,2,1,2,56472,task3,149338,false,false,187,image-keyboard-response,11
true,2,0,1,1,false,z,true,true,0.0-2.0-0.4-0.37-3.37,0,0,1,81,false,stim,false,2,1944,2,0,1,56472,task3,152820,false,true,190,image-keyboard-response,12
true,2,0,1,2,false,d,false,false,0.0-2.0-0.4-0.38-3.38,0,0,1,81,false,stim,true,0,1545,2,0,0,56472,task3,155891,false,false,193,image-keyboard-response,13
true,2,0,1,1,false,z,true,false,0.0-2.0-0.4-0.39-3.39,0,0,1,81,false,stim,false,2,288,2,0,1,56472,task3,157714,false,false,196,image-keyboard-response,14
true,2,1,1,0,false,q,true,false,0.0-2.0-0.4-0.40-3.40,0,0,1,90,false,stim,false,0,161,2,1,2,56472,task3,159407,false,false,199,image-keyboard-response,15
true,2,2,1,0,false,q,true,true,0.0-2.0-0.4-0.41-3.41,0,0,1,68,false,stim,false,0,237,2,1,2,56472,task3,161172,false,true,202,image-keyboard-response,16
true,2,2,1,2,true,d,false,true,0.0-2.0-0.4-0.42-3.42,0,0,1,68,false,stim,false,0,303,2,0,0,56472,task3,162999,false,false,205,image-keyboard-response,17
true,2,0,1,2,false,d,false,false,0.0-2.0-0.4-0.43-3.43,0,0,1,81,false,stim,true,0,966,2,0,0,56472,task3,165501,false,false,208,image-keyboard-response,18
true,2,1,1,1,true,z,false,true,0.0-2.0-0.4-0.44-3.44,0,0,1,90,false,stim,false,2,250,2,0,1,56472,task3,167275,false,false,211,image-keyboard-response,19
true,2,2,1,0,false,q,true,false,0.0-2.0-0.5-0.45-3.45,0,0,1,68,false,stim,false,0,299,2,1,2,56472,task3,169103,false,false,214,image-keyboard-response,20
true,2,0,1,2,false,d,false,false,0.0-2.0-0.5-0.46-3.46,0,0,1,81,false,stim,true,0,247,2,0,0,56472,task3,170883,false,false,217,image-keyboard-response,21
true,2,1,1,2,false,d,true,false,0.0-2.0-0.5-0.47-3.47,0,0,1,90,false,stim,false,0,274,2,1,0,56472,task3,172690,false,false,220,image-keyboard-response,22
true,2,1,1,1,true,z,false,true,0.0-2.0-0.5-0.48-3.48,0,0,1,90,false,stim,false,2,268,2,0,1,56472,task3,174484,false,false,223,image-keyboard-response,23
true,2,2,1,2,true,d,false,false,0.0-2.0-0.5-0.49-3.49,0,0,1,68,false,stim,false,0,446,2,1,0,56472,task3,176461,false,true,226,image-keyboard-response,24
true,2,0,1,1,false,z,true,false,0.0-2.0-0.5-0.50-3.50,0,0,1,81,false,stim,false,2,145,2,0,1,56472,task3,178130,false,false,229,image-keyboard-response,25
true,2,1,1,0,false,q,true,false,0.0-2.0-0.5-0.51-3.51,0,0,1,90,false,stim,false,0,63,2,0,2,56472,task3,179729,false,false,232,image-keyboard-response,26
true,3,2,1,2,true,d,false,false,0.0-2.0-0.5-0.52-3.52,1,0,0,68,true,stim,false,1,76,2,0,1,56472,task3,181342,false,true,235,image-keyboard-response,1
true,3,0,1,1,false,z,false,false,0.0-2.0-0.5-0.53-3.53,1,0,0,81,false,stim,true,0,294,2,0,2,56472,task3,183170,false,false,238,image-keyboard-response,2
true,3,0,1,2,false,d,true,false,0.0-2.0-0.6-0.54-3.54,1,0,0,81,false,stim,false,2,124,2,1,0,56472,task3,184819,false,false,241,image-keyboard-response,3
true,3,1,1,2,false,d,true,true,0.0-2.0-0.6-0.55-3.55,1,0,0,90,false,stim,false,2,671,2,1,0,56472,task3,187027,false,true,244,image-keyboard-response,4
true,3,2,1,1,false,z,true,false,0.0-2.0-0.6-0.56-3.56,1,0,0,68,false,stim,false,0,520,2,0,2,56472,task3,189075,false,false,247,image-keyboard-response,5
true,3,0,1,2,false,d,true,false,0.0-2.0-0.6-0.57-3.57,1,0,0,81,false,stim,false,1,276,2,0,1,56472,task3,190883,false,false,250,image-keyboard-response,6
true,3,1,1,2,false,d,false,false,0.0-2.0-0.6-0.58-3.58,1,0,0,90,false,stim,true,1,175,2,0,1,56472,task3,192581,false,false,253,image-keyboard-response,7
true,3,2,1,2,true,d,false,true,0.0-2.0-0.6-0.59-3.59,1,0,0,68,false,stim,false,2,244,2,1,0,56472,task3,194339,false,false,256,image-keyboard-response,8
true,3,0,1,2,false,d,true,false,0.0-2.0-0.6-0.60-3.60,1,0,0,81,false,stim,false,1,736,2,0,1,56472,task3,196612,false,false,259,image-keyboard-response,9
true,3,0,1,1,false,z,false,false,0.0-2.0-0.6-0.61-3.61,1,0,0,81,false,stim,true,0,304,2,0,2,56472,task3,198440,false,false,262,image-keyboard-response,10
true,3,1,1,1,true,z,false,true,0.0-2.0-0.6-0.62-3.62,1,0,0,90,false,stim,false,0,938,2,0,2,56472,task3,200914,false,false,265,image-keyboard-response,11
true,3,2,1,2,true,d,false,false,0.0-2.0-0.7-0.63-3.63,1,0,0,68,false,stim,false,1,294,2,0,1,56472,task3,202732,false,true,268,image-keyboard-response,12
true,3,0,1,1,false,z,false,false,0.0-2.0-0.7-0.64-3.64,1,0,0,81,false,stim,true,0,213,2,0,2,56472,task3,204480,false,false,271,image-keyboard-response,13
true,3,1,1,1,true,z,false,true,0.0-2.0-0.7-0.65-3.65,1,0,0,90,false,stim,false,0,108,2,0,2,56472,task3,206113,false,false,274,image-keyboard-response,14
true,3,2,1,2,true,d,false,true,0.0-2.0-0.7-0.66-3.66,1,0,0,68,false,stim,false,1,1359,2,0,1,56472,task3,208995,false,false,277,image-keyboard-response,15
true,3,0,1,1,false,z,false,false,0.0-2.0-0.7-0.67-3.67,1,0,0,81,false,stim,true,0,276,2,0,2,56472,task3,210811,false,false,280,image-keyboard-response,16
true,3,1,1,2,false,d,true,false,0.0-2.0-0.7-0.68-3.68,1,0,0,90,false,stim,false,2,561,2,1,0,56472,task3,212886,false,false,283,image-keyboard-response,17
true,3,2,1,2,true,d,false,true,0.0-2.0-0.7-0.69-3.69,1,0,0,68,false,stim,false,2,403,2,1,0,56472,task3,214829,false,false,286,image-keyboard-response,18
true,3,2,1,2,true,d,false,true,0.0-2.0-0.7-0.70-3.70,1,0,0,68,false,stim,false,1,202,2,0,1,56472,task3,216568,false,false,289,image-keyboard-response,19
true,3,0,1,2,false,d,true,false,0.0-2.0-0.7-0.71-3.71,1,0,0,81,false,stim,false,2,359,2,1,0,56472,task3,218465,false,false,292,image-keyboard-response,20
true,3,1,1,1,true,z,false,true,0.0-2.0-0.8-0.72-3.72,1,0,0,90,false,stim,false,0,182,2,0,2,56472,task3,220178,false,false,295,image-keyboard-response,21
true,3,2,1,2,true,d,false,true,0.0-2.0-0.8-0.73-3.73,1,0,0,68,false,stim,false,2,260,2,1,0,56472,task3,221975,false,false,298,image-keyboard-response,22
true,3,0,1,1,false,z,false,false,0.0-2.0-0.8-0.74-3.74,1,0,0,81,false,stim,true,0,76,2,0,2,56472,task3,223595,false,false,301,image-keyboard-response,23
true,3,2,1,1,false,z,true,false,0.0-2.0-0.8-0.75-3.75,1,0,0,68,false,stim,false,0,358,2,0,2,56472,task3,225483,false,false,304,image-keyboard-response,24
true,3,0,1,2,false,d,true,false,0.0-2.0-0.8-0.76-3.76,1,0,0,81,false,stim,false,1,587,2,1,1,56472,task3,227590,false,false,307,image-keyboard-response,25
true,3,1,1,2,false,d,true,false,0.0-2.0-0.8-0.77-3.77,1,0,0,90,false,stim,false,2,168,2,1,0,56472,task3,229284,false,false,310,image-keyboard-response,26
true,3,2,1,2,true,d,false,true,0.0-2.0-0.8-0.78-3.78,1,0,0,68,false,stim,false,1,301,2,1,1,56472,task3,231117,false,false,313,image-keyboard-response,27
true,3,0,1,2,false,d,true,false,0.0-2.0-0.8-0.79-3.79,1,0,0,81,false,stim,false,1,440,2,1,1,56472,task3,233095,false,false,316,image-keyboard-response,28
true,3,2,1,2,true,d,false,true,0.0-2.0-0.8-0.80-3.80,1,0,0,68,false,stim,false,2,247,2,1,0,56472,task3,234883,false,false,319,image-keyboard-response,29
true,4,0,2,2,false,d,true,false,0.0-2.0-0.9-0.81-3.81,1,1,0,81,true,stim,false,2,2367,2,1,1,56472,task3,238782,false,false,322,image-keyboard-response,1
true,4,1,2,0,false,q,false,true,0.0-2.0-0.9-0.82-3.82,1,1,0,90,false,stim,true,1,1695,2,0,2,56472,task3,242001,false,true,325,image-keyboard-response,2
true,4,2,2,2,true,d,false,true,0.0-2.0-0.9-0.83-3.83,1,1,0,68,false,stim,false,2,398,2,1,0,56472,task3,243934,false,false,328,image-keyboard-response,3
true,4,0,2,0,true,q,false,true,0.0-2.0-0.9-0.84-3.84,1,1,0,81,false,stim,false,1,472,2,0,2,56472,task3,245947,false,false,331,image-keyboard-response,4
true,4,2,2,2,true,d,false,true,0.0-2.0-0.9-0.85-3.85,1,1,0,68,false,stim,false,2,384,2,1,0,56472,task3,247844,false,false,334,image-keyboard-response,5
true,4,2,2,2,true,d,false,true,0.0-2.0-0.9-0.86-3.86,1,1,0,68,false,stim,false,2,480,2,1,0,56472,task3,249841,false,false,337,image-keyboard-response,6
true,4,0,2,0,true,q,false,true,0.0-2.0-0.9-0.87-3.87,1,1,0,81,false,stim,false,1,330,2,0,2,56472,task3,251691,false,false,340,image-keyboard-response,7
true,4,0,2,2,false,d,true,false,0.0-2.0-0.9-0.88-3.88,1,1,0,81,false,stim,false,2,904,2,1,1,56472,task3,254122,false,false,343,image-keyboard-response,8
true,4,0,2,2,false,d,true,false,0.0-2.0-0.9-0.89-3.89,1,1,0,81,false,stim,false,2,780,2,0,1,56472,task3,256424,false,false,346,image-keyboard-response,9
true,4,1,2,2,false,d,true,true,0.0-2.0-0.10-0.90-3.90,1,1,0,90,false,stim,false,2,578,2,0,1,56472,task3,258533,false,true,349,image-keyboard-response,10
true,4,0,2,2,false,d,true,false,0.0-2.0-0.10-0.91-3.91,1,1,0,81,false,stim,false,2,831,2,1,0,56472,task3,260889,false,false,352,image-keyboard-response,11
true,4,2,2,2,true,d,false,true,0.0-2.0-0.10-0.92-3.92,1,1,0,68,false,stim,false,2,362,2,0,1,56472,task3,262779,false,false,355,image-keyboard-response,12
true,4,0,2,2,false,d,true,false,0.0-2.0-0.10-0.93-3.93,1,1,0,81,false,stim,false,2,487,2,1,0,56472,task3,264802,false,false,358,image-keyboard-response,13
true,5,2,2,0,false,q,false,false,0.0-2.0-0.10-0.94-3.94,1,0,1,68,true,stim,true,2,675,2,0,1,56472,task3,267009,false,false,361,image-keyboard-response,1
true,5,0,2,0,true,q,false,true,0.0-2.0-0.10-0.95-3.95,1,0,1,81,false,stim,false,0,231,2,1,2,56472,task3,268777,false,false,364,image-keyboard-response,2
true,5,1,2,0,false,q,true,false,0.0-2.0-0.10-0.96-3.96,1,0,1,90,false,stim,false,0,244,2,1,2,56472,task3,270550,false,false,367,image-keyboard-response,3
true,5,0,2,0,true,q,false,true,0.0-2.0-0.10-0.97-3.97,1,0,1,81,false,stim,false,0,378,2,1,2,56472,task3,272454,false,false,370,image-keyboard-response,4
true,5,2,2,2,true,d,false,true,0.0-2.0-0.10-0.98-3.98,1,0,1,68,false,stim,false,2,441,2,1,0,56472,task3,274436,false,false,373,image-keyboard-response,5
true,5,0,2,0,true,q,false,true,0.0-2.0-0.11-0.99-3.99,1,0,1,81,false,stim,false,0,489,2,1,2,56472,task3,276464,false,false,376,image-keyboard-response,6
true,5,2,2,2,true,d,false,true,0.0-2.0-0.11-0.100-3.100,1,0,1,68,false,stim,false,2,596,2,1,0,56472,task3,278601,false,false,379,image-keyboard-response,7
true,5,0,2,2,false,d,true,false,0.0-2.0-0.11-0.101-3.101,1,0,1,81,false,stim,false,2,449,2,0,0,56472,task3,280575,false,false,382,image-keyboard-response,8
true,5,2,2,0,false,q,true,false,0.0-2.0-0.11-0.102-3.102,1,0,1,68,false,stim,false,0,403,2,0,2,56472,task3,282518,false,false,385,image-keyboard-response,9
true,5,1,2,0,false,q,true,false,0.0-2.0-0.11-0.103-3.103,1,0,1,90,false,stim,false,2,206,2,1,1,56472,task3,284251,false,false,388,image-keyboard-response,10
true,5,0,2,0,true,q,false,false,0.0-2.0-0.11-0.104-3.104,1,0,1,81,false,stim,false,2,219,2,1,1,56472,task3,285994,false,true,391,image-keyboard-response,11
true,5,0,2,0,true,q,false,true,0.0-2.0-0.11-0.105-3.105,1,0,1,81,false,stim,false,0,392,2,0,2,56472,task3,287917,false,false,394,image-keyboard-response,12
true,6,2,1,0,false,q,false,false,0.0-2.0-0.11-0.106-3.106,0,1,0,68,true,stim,true,2,519,2,0,0,56472,task3,289965,false,false,397,image-keyboard-response,1
true,6,0,1,0,true,q,false,true,0.0-2.0-0.11-0.107-3.107,0,1,0,81,false,stim,false,0,343,2,1,1,56472,task3,291848,false,false,400,image-keyboard-response,2
true,6,1,1,1,true,z,false,true,0.0-2.0-0.12-0.108-3.108,0,1,0,90,false,stim,false,0,366,2,0,2,56472,task3,293751,false,false,403,image-keyboard-response,3
true,6,0,1,0,true,q,false,true,0.0-2.0-0.12-0.109-3.109,0,1,0,81,false,stim,false,2,754,2,0,0,56472,task3,296039,false,false,406,image-keyboard-response,4
true,6,1,1,0,false,q,true,false,0.0-2.0-0.12-0.110-3.110,0,1,0,90,false,stim,false,0,595,2,1,1,56472,task3,298172,false,false,409,image-keyboard-response,5
true,6,0,1,0,true,q,false,true,0.0-2.0-0.12-0.111-3.111,0,1,0,81,false,stim,false,0,514,2,1,1,56472,task3,300209,false,false,412,image-keyboard-response,6
true,6,2,1,0,false,q,false,false,0.0-2.0-0.12-0.112-3.112,0,1,0,68,false,stim,true,2,342,2,0,0,56472,task3,302087,false,false,415,image-keyboard-response,7
true,6,0,1,1,false,z,false,false,0.0-2.0-0.12-0.113-3.113,0,1,0,81,false,stim,true,0,280,2,1,2,56472,task3,303906,false,false,418,image-keyboard-response,8
true,6,1,1,1,true,z,false,true,0.0-2.0-0.12-0.114-3.114,0,1,0,90,false,stim,false,0,269,2,1,2,56472,task3,305705,false,false,421,image-keyboard-response,9
true,6,0,1,0,true,q,false,true,0.0-2.0-0.12-0.115-3.115,0,1,0,81,false,stim,false,2,601,2,1,0,56472,task3,307837,false,false,424,image-keyboard-response,10
true,6,1,1,0,false,q,true,false,0.0-2.0-0.12-0.116-3.116,0,1,0,90,false,stim,false,0,1003,2,0,1,56472,task3,310379,false,false,427,image-keyboard-response,11
true,6,1,1,1,true,z,false,true,0.0-2.0-0.13-0.117-3.117,0,1,0,90,false,stim,false,0,366,2,1,2,56472,task3,312272,false,false,430,image-keyboard-response,12
true,7,0,2,1,false,z,false,false,0.0-2.0-0.13-0.118-3.118,1,0,1,81,true,stim,true,0,510,2,0,1,56472,task3,314315,false,false,433,image-keyboard-response,1
true,7,1,2,1,true,z,false,true,0.0-2.0-0.13-0.119-3.119,1,0,1,90,false,stim,false,0,778,2,0,1,56472,task3,316613,false,false,436,image-keyboard-response,2
true,7,1,2,0,false,q,true,false,0.0-2.0-0.13-0.120-3.120,1,0,1,90,false,stim,false,0,900,2,1,0,56472,task3,319035,false,false,439,image-keyboard-response,3
true,7,1,2,1,true,z,false,true,0.0-2.0-0.13-0.121-3.121,1,0,1,90,false,stim,false,1,597,2,1,2,56472,task3,321173,false,false,442,image-keyboard-response,4
true,7,1,2,0,false,q,true,false,0.0-2.0-0.13-0.122-3.122,1,0,1,90,false,stim,false,0,575,2,1,0,56472,task3,323270,false,false,445,image-keyboard-response,5
true,7,1,2,1,true,z,false,true,0.0-2.0-0.13-0.123-3.123,1,0,1,90,false,stim,false,0,309,2,0,1,56472,task3,325104,false,false,448,image-keyboard-response,6
true,7,1,2,1,true,z,false,true,0.0-2.0-0.13-0.124-3.124,1,0,1,90,false,stim,false,1,476,2,1,2,56472,task3,327122,false,false,451,image-keyboard-response,7
true,7,2,2,0,false,q,true,false,0.0-2.0-0.13-0.125-3.125,1,0,1,68,false,stim,false,0,1258,2,1,0,56472,task3,329894,false,false,454,image-keyboard-response,8
true,7,1,2,1,true,z,false,false,0.0-2.0-0.14-0.126-3.126,1,0,1,90,false,stim,false,1,431,2,1,2,56472,task3,331866,false,true,457,image-keyboard-response,9
true,7,1,2,1,true,z,false,true,0.0-2.0-0.14-0.127-3.127,1,0,1,90,false,stim,false,1,400,2,1,2,56472,task3,333795,false,false,460,image-keyboard-response,10
true,7,1,2,0,false,q,true,false,0.0-2.0-0.14-0.128-3.128,1,0,1,90,false,stim,false,0,408,2,1,0,56472,task3,335733,false,false,463,image-keyboard-response,11
true,7,1,2,1,true,z,false,true,0.0-2.0-0.14-0.129-3.129,1,0,1,90,false,stim,false,0,342,2,0,1,56472,task3,337606,false,false,466,image-keyboard-response,12
true,7,1,2,1,true,z,false,true,0.0-2.0-0.14-0.130-3.130,1,0,1,90,false,stim,false,0,697,2,0,1,56472,task3,339843,false,false,469,image-keyboard-response,13
true,7,1,2,1,true,z,false,true,0.0-2.0-0.14-0.131-3.131,1,0,1,90,false,stim,false,1,416,2,1,2,56472,task3,341792,false,false,472,image-keyboard-response,14
true,7,1,2,1,true,z,false,true,0.0-2.0-0.14-0.132-3.132,1,0,1,90,false,stim,false,0,439,2,0,1,56472,task3,343754,false,false,475,image-keyboard-response,15
true,7,1,2,0,false,q,true,false,0.0-2.0-0.14-0.133-3.133,1,0,1,90,false,stim,false,0,302,2,1,0,56472,task3,345598,false,false,478,image-keyboard-response,16
true,7,0,2,0,true,q,false,true,0.0-2.0-0.14-0.134-3.134,1,0,1,81,false,stim,false,0,595,2,1,0,56472,task3,347720,false,false,481,image-keyboard-response,17
true,7,1,2,1,true,z,false,false,0.0-2.0-0.15-0.135-3.135,1,0,1,90,false,stim,false,0,547,2,0,1,56472,task3,349791,false,true,484,image-keyboard-response,18
true,7,0,2,0,true,q,false,true,0.0-2.0-0.15-0.136-3.136,1,0,1,81,false,stim,false,0,705,2,1,0,56472,task3,352020,false,false,487,image-keyboard-response,19
true,7,1,2,1,true,z,false,true,0.0-2.0-0.15-0.137-3.137,1,0,1,90,false,stim,false,1,562,2,1,2,56472,task3,354108,false,false,490,image-keyboard-response,20
true,7,1,2,1,true,z,false,true,0.0-2.0-0.15-0.138-3.138,1,0,1,90,false,stim,false,1,780,2,1,2,56472,task3,356416,false,false,493,image-keyboard-response,21
true,7,1,2,1,true,z,false,true,0.0-2.0-0.15-0.139-3.139,1,0,1,90,false,stim,false,1,703,2,1,2,56472,task3,358648,false,false,496,image-keyboard-response,22
true,7,1,2,0,false,q,true,false,0.0-2.0-0.15-0.140-3.140,1,0,1,90,false,stim,false,0,1221,2,1,0,56472,task3,361399,false,false,499,image-keyboard-response,23
true,7,1,2,1,true,z,false,true,0.0-2.0-0.15-0.141-3.141,1,0,1,90,false,stim,false,0,658,2,0,1,56472,task3,363572,false,false,502,image-keyboard-response,24
true,7,1,2,1,true,z,false,true,0.0-2.0-0.15-0.142-3.142,1,0,1,90,false,stim,false,0,834,2,0,1,56472,task3,365938,false,false,505,image-keyboard-response,25
true,7,0,2,0,true,q,false,true,0.0-2.0-0.15-0.143-3.143,1,0,1,81,false,stim,false,0,397,2,0,0,56472,task3,367857,false,false,508,image-keyboard-response,26
true,7,0,2,0,true,q,false,true,0.0-2.0-0.16-0.144-3.144,1,0,1,81,false,stim,false,0,494,2,0,0,56472,task3,369866,false,false,511,image-keyboard-response,27
true,7,1,2,1,true,z,false,true,0.0-2.0-0.16-0.145-3.145,1,0,1,90,false,stim,false,0,428,2,0,1,56472,task3,371812,false,false,514,image-keyboard-response,28
true,7,1,2,1,true,z,false,true,0.0-2.0-0.16-0.146-3.146,1,0,1,90,false,stim,false,1,1202,2,1,2,56472,task3,374530,false,false,517,image-keyboard-response,29
true,8,1,1,1,true,z,false,true,0.0-2.0-0.16-0.147-3.147,0,0,1,90,true,stim,false,1,643,2,1,2,56472,task3,376699,false,false,520,image-keyboard-response,1
true,8,0,1,0,true,q,false,true,0.0-2.0-0.16-0.148-3.148,0,0,1,81,false,stim,false,1,851,2,0,1,56472,task3,379076,false,false,523,image-keyboard-response,2
true,8,1,1,1,true,z,false,false,0.0-2.0-0.16-0.149-3.149,0,0,1,90,false,stim,false,0,473,2,0,0,56472,task3,381089,false,true,526,image-keyboard-response,3
true,8,0,1,0,true,q,false,true,0.0-2.0-0.16-0.150-3.150,0,0,1,81,false,stim,false,1,491,2,0,1,56472,task3,383097,false,false,529,image-keyboard-response,4
true,8,1,1,1,true,z,false,true,0.0-2.0-0.16-0.151-3.151,0,0,1,90,false,stim,false,1,469,2,1,2,56472,task3,385095,false,false,532,image-keyboard-response,5
true,8,0,1,1,false,z,false,false,0.0-2.0-0.16-0.152-3.152,0,0,1,81,false,stim,true,0,687,2,0,0,56472,task3,387312,false,false,535,image-keyboard-response,6
true,8,0,1,0,true,q,false,true,0.0-2.0-0.17-0.153-3.153,0,0,1,81,false,stim,false,1,376,2,0,1,56472,task3,389211,false,false,538,image-keyboard-response,7
true,8,0,1,0,true,q,false,true,0.0-2.0-0.17-0.154-3.154,0,0,1,81,false,stim,false,1,828,2,0,1,56472,task3,391563,false,false,541,image-keyboard-response,8
true,8,1,1,1,true,z,false,true,0.0-2.0-0.17-0.155-3.155,0,0,1,90,false,stim,false,0,795,2,1,0,56472,task3,393889,false,false,544,image-keyboard-response,9
true,8,1,1,1,true,z,false,true,0.0-2.0-0.17-0.156-3.156,0,0,1,90,false,stim,false,1,727,2,0,2,56472,task3,396133,false,false,547,image-keyboard-response,10
true,8,1,1,1,true,z,false,true,0.0-2.0-0.17-0.157-3.157,0,0,1,90,false,stim,false,0,610,2,1,0,56472,task3,398276,false,false,550,image-keyboard-response,11
true,8,1,1,1,true,z,false,true,0.0-2.0-0.17-0.158-3.158,0,0,1,90,false,stim,false,1,338,2,0,2,56472,task3,400144,false,false,553,image-keyboard-response,12
true,8,1,1,1,true,z,false,true,0.0-2.0-0.17-0.159-3.159,0,0,1,90,false,stim,false,0,467,2,1,0,56472,task3,402141,false,false,556,image-keyboard-response,13
true,9,1,2,0,false,q,false,false,0.0-2.0-0.17-0.160-3.160,1,1,0,90,true,stim,true,1,535,2,0,2,56472,task3,404209,false,false,559,image-keyboard-response,1
true,9,1,2,0,false,q,true,false,0.0-2.0-0.17-0.161-3.161,1,1,0,90,false,stim,false,0,432,2,1,1,56472,task3,406167,false,false,562,image-keyboard-response,2
true,9,0,2,0,true,q,false,true,0.0-2.0-0.18-0.162-3.162,1,1,0,81,false,stim,false,0,380,2,1,1,56472,task3,408066,false,false,565,image-keyboard-response,3
true,9,1,2,0,false,q,false,false,0.0-2.0-0.18-0.163-3.163,1,1,0,90,false,stim,true,1,538,2,0,2,56472,task3,410143,false,false,568,image-keyboard-response,4
true,9,1,2,1,true,z,false,true,0.0-2.0-0.18-0.164-3.164,1,1,0,90,false,stim,false,1,1022,2,1,0,56472,task3,412670,false,false,571,image-keyboard-response,5
true,9,0,2,0,true,q,false,false,0.0-2.0-0.18-0.165-3.165,1,1,0,81,false,stim,false,0,489,2,1,1,56472,task3,414684,false,true,574,image-keyboard-response,6
true,9,0,2,0,true,q,false,true,0.0-2.0-0.18-0.166-3.166,1,1,0,81,false,stim,false,0,482,2,1,1,56472,task3,416696,false,false,577,image-keyboard-response,7
true,9,1,2,1,true,z,false,true,0.0-2.0-0.18-0.167-3.167,1,1,0,90,false,stim,false,1,793,2,1,0,56472,task3,419019,false,false,580,image-keyboard-response,8
true,9,1,2,1,true,z,false,true,0.0-2.0-0.18-0.168-3.168,1,1,0,90,false,stim,false,1,642,2,1,0,56472,task3,421197,false,false,583,image-keyboard-response,9
true,9,0,2,0,true,q,false,true,0.0-2.0-0.18-0.169-3.169,1,1,0,81,false,stim,false,1,695,2,0,2,56472,task3,423420,false,false,586,image-keyboard-response,10
true,9,0,2,0,true,q,false,true,0.0-2.0-0.18-0.170-3.170,1,1,0,81,false,stim,false,1,385,2,0,2,56472,task3,425327,false,false,589,image-keyboard-response,11
true,9,1,2,0,false,q,true,false,0.0-2.0-0.19-0.171-3.171,1,1,0,90,false,stim,false,0,891,2,1,1,56472,task3,427755,false,false,592,image-keyboard-response,12
true,9,1,2,0,false,q,true,false,0.0-2.0-0.19-0.172-3.172,1,1,0,90,false,stim,false,0,274,2,1,1,56472,task3,429549,false,false,595,image-keyboard-response,13
true,9,0,2,0,true,q,false,true,0.0-2.0-0.19-0.173-3.173,1,1,0,81,false,stim,false,1,270,2,0,2,56472,task3,431332,false,false,598,image-keyboard-response,14
true,9,1,2,1,true,z,false,true,0.0-2.0-0.19-0.174-3.174,1,1,0,90,false,stim,false,1,634,2,1,0,56472,task3,433495,false,false,601,image-keyboard-response,15
true,9,0,2,0,true,q,false,true,0.0-2.0-0.19-0.175-3.175,1,1,0,81,false,stim,false,1,367,2,0,2,56472,task3,435392,false,false,604,image-keyboard-response,16
true,9,1,2,1,true,z,false,true,0.0-2.0-0.19-0.176-3.176,1,1,0,90,false,stim,false,1,275,2,1,0,56472,task3,437200,false,false,607,image-keyboard-response,17
true,9,0,2,1,false,z,true,false,0.0-2.0-0.19-0.177-3.177,1,1,0,81,false,stim,false,1,217,2,1,0,56472,task3,438952,false,false,610,image-keyboard-response,18
true,9,1,2,0,false,q,false,false,0.0-2.0-0.19-0.178-3.178,1,1,0,90,false,stim,true,1,730,2,0,2,56472,task3,441206,false,false,613,image-keyboard-response,19
true,9,0,2,0,true,q,false,true,0.0-2.0-0.19-0.179-3.179,1,1,0,81,false,stim,false,0,958,2,1,1,56472,task3,443694,false,false,616,image-keyboard-response,20
true,9,0,2,0,true,q,false,true,0.0-2.0-0.20-0.180-3.180,1,1,0,81,false,stim,false,0,562,2,1,1,56472,task3,445796,false,false,619,image-keyboard-response,21
true,9,0,2,0,true,q,false,true,0.0-2.0-0.20-0.181-3.181,1,1,0,81,false,stim,false,0,520,2,1,1,56472,task3,447844,false,false,622,image-keyboard-response,22
true,9,0,2,0,true,q,false,true,0.0-2.0-0.20-0.182-3.182,1,1,0,81,false,stim,false,1,462,2,0,2,56472,task3,449847,false,false,625,image-keyboard-response,23
true,9,1,2,1,true,z,false,true,0.0-2.0-0.20-0.183-3.183,1,1,0,90,false,stim,false,1,696,2,1,0,56472,task3,452070,false,false,628,image-keyboard-response,24
true,9,0,2,0,true,q,false,true,0.0-2.0-0.20-0.184-3.184,1,1,0,81,false,stim,false,0,562,2,1,1,56472,task3,454158,false,false,631,image-keyboard-response,25
true,10,1,2,1,true,z,false,true,0.0-2.0-0.20-0.185-3.185,1,1,0,90,true,stim,false,1,709,2,1,0,56472,task3,456405,false,false,634,image-keyboard-response,1
true,10,0,2,2,false,d,false,false,0.0-2.0-0.20-0.186-3.186,1,1,0,81,false,stim,true,0,692,2,0,2,56472,task3,458639,false,false,637,image-keyboard-response,2
true,10,0,2,2,false,d,false,false,0.0-2.0-0.20-0.187-3.187,1,1,0,81,false,stim,true,0,1185,2,0,2,56472,task3,461350,false,false,640,image-keyboard-response,3
true,10,1,2,1,true,z,false,true,0.0-2.0-0.20-0.188-3.188,1,1,0,90,false,stim,false,1,599,2,1,0,56472,task3,463474,false,false,643,image-keyboard-response,4
true,10,2,2,2,true,d,false,true,0.0-2.0-0.21-0.189-3.189,1,1,0,68,false,stim,false,0,831,2,0,2,56472,task3,465836,false,false,646,image-keyboard-response,5
true,10,0,2,0,true,q,false,true,0.0-2.0-0.21-0.190-3.190,1,1,0,81,false,stim,false,0,874,2,1,1,56472,task3,468248,false,false,649,image-keyboard-response,6
true,10,1,2,1,true,z,false,true,0.0-2.0-0.21-0.191-3.191,1,1,0,90,false,stim,false,1,402,2,1,0,56472,task3,470176,false,false,652,image-keyboard-response,7
true,10,2,2,2,true,d,false,true,0.0-2.0-0.21-0.192-3.192,1,1,0,68,false,stim,false,0,535,2,1,2,56472,task3,472219,false,false,655,image-keyboard-response,8
true,10,2,2,2,true,d,false,true,0.0-2.0-0.21-0.193-3.193,1,1,0,68,false,stim,false,0,399,2,1,2,56472,task3,474132,false,false,658,image-keyboard-response,9
true,10,0,2,0,true,q,false,true,0.0-2.0-0.21-0.194-3.194,1,1,0,81,false,stim,false,0,496,2,0,1,56472,task3,476150,false,false,661,image-keyboard-response,10
true,10,0,2,0,true,q,false,true,0.0-2.0-0.21-0.195-3.195,1,1,0,81,false,stim,false,0,419,2,0,1,56472,task3,478093,false,false,664,image-keyboard-response,11
true,11,1,2,1,true,z,false,true,0.0-2.0-0.21-0.196-3.196,1,0,1,90,true,stim,false,1,488,2,1,0,56472,task3,480096,false,false,667,image-keyboard-response,1
true,11,1,2,1,true,z,false,true,0.0-2.0-0.21-0.197-3.197,1,0,1,90,false,stim,false,1,458,2,1,0,56472,task3,482074,false,false,670,image-keyboard-response,2
true,11,0,2,2,false,d,false,false,0.0-2.0-0.22-0.198-3.198,1,0,1,81,false,stim,true,0,648,2,0,1,56472,task3,484252,false,false,673,image-keyboard-response,3
true,11,2,2,1,false,z,true,false,0.0-2.0-0.22-0.199-3.199,1,0,1,68,false,stim,false,1,590,2,1,0,56472,task3,486364,false,false,676,image-keyboard-response,4
true,11,0,2,1,false,z,true,false,0.0-2.0-0.22-0.200-3.200,1,0,1,81,false,stim,false,1,137,2,1,0,56472,task3,488032,false,false,679,image-keyboard-response,5
true,11,1,2,1,true,z,false,true,0.0-2.0-0.22-0.201-3.201,1,0,1,90,false,stim,false,1,238,2,1,0,56472,task3,489786,false,false,682,image-keyboard-response,6
true,11,2,2,2,true,d,false,true,0.0-2.0-0.22-0.202-3.202,1,0,1,68,false,stim,false,2,354,2,1,2,56472,task3,491670,false,false,685,image-keyboard-response,7
true,11,2,2,2,true,d,false,true,0.0-2.0-0.22-0.203-3.203,1,0,1,68,false,stim,false,2,423,2,1,2,56472,task3,493628,false,false,688,image-keyboard-response,8
true,11,2,2,2,true,d,false,false,0.0-2.0-0.22-0.204-3.204,1,0,1,68,false,stim,false,2,250,2,1,2,56472,task3,495405,false,true,691,image-keyboard-response,9
true,11,0,2,2,false,d,false,false,0.0-2.0-0.22-0.205-3.205,1,0,1,81,false,stim,true,0,587,2,0,1,56472,task3,497523,false,false,694,image-keyboard-response,10
true,11,1,2,2,false,d,true,false,0.0-2.0-0.22-0.206-3.206,1,0,1,90,false,stim,false,0,331,2,0,1,56472,task3,499387,false,false,697,image-keyboard-response,11
true,11,2,2,2,true,d,false,false,0.0-2.0-0.23-0.207-3.207,1,0,1,68,false,stim,false,0,134,2,0,1,56472,task3,501050,false,true,700,image-keyboard-response,12
true,11,0,2,1,false,z,true,false,0.0-2.0-0.23-0.208-3.208,1,0,1,81,false,stim,false,1,467,2,1,0,56472,task3,503043,false,false,703,image-keyboard-response,13
true,11,0,2,1,false,z,true,false,0.0-2.0-0.23-0.209-3.209,1,0,1,81,false,stim,false,1,245,2,1,0,56472,task3,504805,false,false,706,image-keyboard-response,14
true,11,1,2,2,false,d,true,false,0.0-2.0-0.23-0.210-3.210,1,0,1,90,false,stim,false,0,139,2,0,1,56472,task3,506466,false,false,709,image-keyboard-response,15
true,11,2,2,2,true,d,false,true,0.0-2.0-0.23-0.211-3.211,1,0,1,68,false,stim,false,0,23,2,0,1,56472,task3,508018,false,false,712,image-keyboard-response,16
true,11,2,2,2,true,d,false,true,0.0-2.0-0.23-0.212-3.212,1,0,1,68,false,stim,false,2,304,2,1,2,56472,task3,509851,false,false,715,image-keyboard-response,17
true,11,0,2,1,false,z,true,false,0.0-2.0-0.23-0.213-3.213,1,0,1,81,false,stim,false,1,269,2,1,0,56472,task3,511635,false,false,718,image-keyboard-response,18
true,11,1,2,2,false,d,true,false,0.0-2.0-0.23-0.214-3.214,1,0,1,90,false,stim,false,2,277,2,1,2,56472,task3,513448,false,false,721,image-keyboard-response,19
true,11,2,2,2,true,d,false,false,0.0-2.0-0.23-0.215-3.215,1,0,1,68,false,stim,false,2,220,2,1,2,56472,task3,515196,false,true,724,image-keyboard-response,20
true,11,1,2,2,false,d,true,true,0.0-2.0-0.24-0.216-3.216,1,0,1,90,false,stim,false,2,123,2,1,2,56472,task3,516848,false,true,727,image-keyboard-response,21
true,11,0,2,2,false,d,false,false,0.0-2.0-0.24-0.217-3.217,1,0,1,81,false,stim,true,0,477,2,0,1,56472,task3,518851,false,false,730,image-keyboard-response,22
true,11,1,2,2,false,d,true,false,0.0-2.0-0.24-0.218-3.218,1,0,1,90,false,stim,false,2,420,2,1,2,56472,task3,520785,false,false,733,image-keyboard-response,23
true,11,0,2,1,false,z,true,false,0.0-2.0-0.24-0.219-3.219,1,0,1,81,false,stim,false,1,1082,2,0,0,56472,task3,523388,false,false,736,image-keyboard-response,24
true,11,1,2,2,false,d,true,false,0.0-2.0-0.24-0.220-3.220,1,0,1,90,false,stim,false,2,175,2,1,2,56472,task3,525091,false,false,739,image-keyboard-response,25
true,11,2,2,2,true,d,false,true,0.0-2.0-0.24-0.221-3.221,1,0,1,68,false,stim,false,0,348,2,0,1,56472,task3,526954,false,false,742,image-keyboard-response,26
true,12,2,1,2,true,d,false,true,0.0-2.0-0.24-0.222-3.222,0,0,1,68,true,stim,false,1,1326,2,0,0,56472,task3,529801,false,false,745,image-keyboard-response,1
true,12,2,1,2,true,d,false,true,0.0-2.0-0.24-0.223-3.223,0,0,1,68,false,stim,false,1,538,2,0,0,56472,task3,531864,false,false,748,image-keyboard-response,2
true,12,2,1,0,false,q,false,false,0.0-2.0-0.24-0.224-3.224,0,0,1,68,false,stim,true,2,671,2,0,1,56472,task3,534057,false,false,751,image-keyboard-response,3
true,12,2,1,2,true,d,false,true,0.0-2.0-0.25-0.225-3.225,0,0,1,68,false,stim,false,2,624,2,1,2,56472,task3,536199,false,false,754,image-keyboard-response,4
true,12,2,1,2,true,d,false,true,0.0-2.0-0.25-0.226-3.226,0,0,1,68,false,stim,false,1,342,2,0,0,56472,task3,538077,false,false,757,image-keyboard-response,5
true,12,2,1,0,false,q,false,true,0.0-2.0-0.25-0.227-3.227,0,0,1,68,false,stim,true,2,350,2,0,1,56472,task3,539965,false,true,760,image-keyboard-response,6
true,12,2,1,2,true,d,false,false,0.0-2.0-0.25-0.228-3.228,0,0,1,68,false,stim,false,1,264,2,0,0,56472,task3,541759,false,true,763,image-keyboard-response,7
true,12,2,1,2,true,d,false,true,0.0-2.0-0.25-0.229-3.229,0,0,1,68,false,stim,false,2,83,2,1,2,56472,task3,543368,false,false,766,image-keyboard-response,8
true,12,2,1,2,true,d,false,false,0.0-2.0-0.25-0.230-3.230,0,0,1,68,false,stim,false,2,260,2,1,2,56472,task3,545166,false,true,769,image-keyboard-response,9
true,12,2,1,0,false,q,false,false,0.0-2.0-0.25-0.231-3.231,0,0,1,68,false,stim,true,2,443,2,0,1,56472,task3,547139,false,false,772,image-keyboard-response,10
true,12,2,1,0,false,q,false,true,0.0-2.0-0.25-0.232-3.232,0,0,1,68,false,stim,true,2,282,2,0,1,56472,task3,548956,false,true,775,image-keyboard-response,11
true,12,2,1,2,true,d,false,true,0.0-2.0-0.25-0.233-3.233,0,0,1,68,false,stim,false,1,234,2,0,0,56472,task3,550730,false,false,778,image-keyboard-response,12
true,12,2,1,0,false,q,false,false,0.0-2.0-0.26-0.234-3.234,0,0,1,68,false,stim,true,2,208,2,0,1,56472,task3,552463,false,false,781,image-keyboard-response,13
true,12,2,1,0,false,q,false,true,0.0-2.0-0.26-0.235-3.235,0,0,1,68,false,stim,true,2,251,2,0,1,56472,task3,554257,false,true,784,image-keyboard-response,14
true,12,2,1,2,true,d,false,true,0.0-2.0-0.26-0.236-3.236,0,0,1,68,false,stim,false,1,219,2,0,0,56472,task3,556004,false,false,787,image-keyboard-response,15
true,12,2,1,2,true,d,false,true,0.0-2.0-0.26-0.237-3.237,0,0,1,68,false,stim,false,1,147,2,0,0,56472,task3,557693,false,false,790,image-keyboard-response,16
true,12,2,1,2,true,d,false,true,0.0-2.0-0.26-0.238-3.238,0,0,1,68,false,stim,false,2,104,2,1,2,56472,task3,559325,false,false,793,image-keyboard-response,17
true,12,2,1,2,true,d,false,true,0.0-2.0-0.26-0.239-3.239,0,0,1,68,false,stim,false,1,148,2,0,0,56472,task3,560994,false,false,796,image-keyboard-response,18
true,12,2,1,2,true,d,false,true,0.0-2.0-0.26-0.240-3.240,0,0,1,68,false,stim,false,2,532,2,1,2,56472,task3,563063,false,false,799,image-keyboard-response,19
true,12,2,1,0,false,q,false,false,0.0-2.0-0.26-0.241-3.241,0,0,1,68,false,stim,true,2,184,2,0,1,56472,task3,564780,false,false,802,image-keyboard-response,20
true,12,2,1,2,true,d,false,true,0.0-2.0-0.26-0.242-3.242,0,0,1,68,false,stim,false,2,179,2,1,2,56472,task3,566494,false,false,805,image-keyboard-response,21
true,12,2,1,0,false,q,false,false,0.0-2.0-0.27-0.243-3.243,0,0,1,68,false,stim,true,2,377,2,0,1,56472,task3,568393,false,false,808,image-keyboard-response,22
true,12,2,1,2,true,d,false,true,0.0-2.0-0.27-0.244-3.244,0,0,1,68,false,stim,false,2,145,2,1,2,56472,task3,570071,false,false,811,image-keyboard-response,23
true,12,2,1,2,true,d,false,true,0.0-2.0-0.27-0.245-3.245,0,0,1,68,false,stim,false,1,153,2,0,0,56472,task3,571754,false,false,814,image-keyboard-response,24
true,12,2,1,0,false,q,false,false,0.0-2.0-0.27-0.246-3.246,0,0,1,68,false,stim,true,2,127,2,1,1,56472,task3,573413,false,false,817,image-keyboard-response,25
true,12,2,1,0,false,q,false,false,0.0-2.0-0.27-0.247-3.247,0,0,1,68,false,stim,true,2,240,2,1,1,56472,task3,575176,false,false,820,image-keyboard-response,26
true,12,1,1,2,false,d,true,false,0.0-2.0-0.27-0.248-3.248,0,0,1,90,false,stim,false,2,299,2,1,2,56472,task3,577014,false,false,823,image-keyboard-response,27
true,12,1,1,2,false,d,true,false,0.0-2.0-0.27-0.249-3.249,0,0,1,90,false,stim,false,2,82,2,1,2,56472,task3,578636,false,false,826,image-keyboard-response,28
true,12,2,1,2,true,d,false,true,0.0-2.0-0.27-0.250-3.250,0,0,1,68,false,stim,false,1,549,2,0,0,56472,task3,580715,false,false,829,image-keyboard-response,29
true,13,2,2,0,false,q,false,false,0.0-2.0-0.27-0.251-3.251,0,1,1,68,true,stim,true,2,373,2,0,0,56472,task3,582617,false,false,832,image-keyboard-response,1
true,13,2,2,0,false,q,true,false,0.0-2.0-0.28-0.252-3.252,0,1,1,68,false,stim,false,0,441,2,1,1,56472,task3,584586,false,false,835,image-keyboard-response,2
true,13,0,2,0,true,q,false,true,0.0-2.0-0.28-0.253-3.253,0,1,1,81,false,stim,false,2,439,2,0,0,56472,task3,586564,false,false,838,image-keyboard-response,3
true,13,0,2,0,true,q,false,true,0.0-2.0-0.28-0.254-3.254,0,1,1,81,false,stim,false,2,396,2,0,0,56472,task3,588491,false,false,841,image-keyboard-response,4
true,13,2,2,2,true,d,false,false,0.0-2.0-0.28-0.255-3.255,0,1,1,68,false,stim,false,2,1450,2,1,2,56472,task3,591465,false,true,844,image-keyboard-response,5
true,13,0,2,0,true,q,false,true,0.0-2.0-0.28-0.256-3.256,0,1,1,81,false,stim,false,2,339,2,0,0,56472,task3,593324,false,false,847,image-keyboard-response,6
true,13,0,2,2,false,d,true,false,0.0-2.0-0.28-0.257-3.257,0,1,1,81,false,stim,false,2,1433,2,1,2,56472,task3,596300,false,false,850,image-keyboard-response,7
true,13,0,2,0,true,q,false,false,0.0-2.0-0.28-0.258-3.258,0,1,1,81,false,stim,false,0,13,2,1,1,56472,task3,597838,false,true,853,image-keyboard-response,8
true,13,1,2,2,false,d,true,false,0.0-2.0-0.28-0.259-3.259,0,1,1,90,false,stim,false,2,25,2,1,2,56472,task3,599391,false,false,856,image-keyboard-response,9
true,13,2,2,0,false,q,true,false,0.0-2.0-0.28-0.260-3.260,0,1,1,68,false,stim,false,0,90,2,1,1,56472,task3,601005,false,false,859,image-keyboard-response,10
true,13,0,2,0,true,q,false,true,0.0-2.0-0.29-0.261-3.261,0,1,1,81,false,stim,false,2,99,2,1,0,56472,task3,602634,false,false,862,image-keyboard-response,11
true,13,0,2,0,true,q,false,true,0.0-2.0-0.29-0.262-3.262,0,1,1,81,false,stim,false,0,567,2,0,1,56472,task3,604735,false,false,865,image-keyboard-response,12
true,13,0,2,0,true,q,false,true,0.0-2.0-0.29-0.263-3.263,0,1,1,81,false,stim,false,0,233,2,0,1,56472,task3,606499,false,false,868,image-keyboard-response,13
true,13,0,2,0,true,q,false,true,0.0-2.0-0.29-0.264-3.264,0,1,1,81,false,stim,false,2,639,2,1,0,56472,task3,608661,false,false,871,image-keyboard-response,14
true,13,0,2,0,true,q,false,true,0.0-2.0-0.29-0.265-3.265,0,1,1,81,false,stim,false,2,31,2,1,0,56472,task3,610216,false,false,874,image-keyboard-response,15
true,14,1,2,2,false,d,true,true,0.0-2.0-0.29-0.266-3.266,1,0,1,90,true,stim,false,2,790,2,1,2,56472,task3,612534,false,true,877,image-keyboard-response,1
true,14,1,2,2,false,d,true,false,0.0-2.0-0.29-0.267-3.267,1,0,1,90,false,stim,false,2,679,2,1,2,56472,task3,614731,false,false,880,image-keyboard-response,2
true,14,0,2,2,false,d,false,false,0.0-2.0-0.29-0.268-3.268,1,0,1,81,false,stim,true,0,902,2,0,1,56472,task3,617168,false,false,883,image-keyboard-response,3
true,14,1,2,2,false,d,true,false,0.0-2.0-0.29-0.269-3.269,1,0,1,90,false,stim,false,2,331,2,1,2,56472,task3,619037,false,false,886,image-keyboard-response,4
true,14,0,2,2,false,d,false,false,0.0-2.0-0.30-0.270-3.270,1,0,1,81,false,stim,true,0,245,2,0,1,56472,task3,620805,false,false,889,image-keyboard-response,5
true,14,1,2,0,false,q,true,false,0.0-2.0-0.30-0.271-3.271,1,0,1,90,false,stim,false,0,274,2,1,0,56472,task3,622608,false,false,892,image-keyboard-response,6
true,14,2,2,2,true,d,false,true,0.0-2.0-0.30-0.272-3.272,1,0,1,68,false,stim,false,0,131,2,0,1,56472,task3,624276,false,false,895,image-keyboard-response,7
true,14,1,2,2,false,d,true,false,0.0-2.0-0.30-0.273-3.273,1,0,1,90,false,stim,false,0,190,2,0,1,56472,task3,625994,false,false,898,image-keyboard-response,8
true,14,0,2,0,true,q,false,true,0.0-2.0-0.30-0.274-3.274,1,0,1,81,false,stim,false,0,142,2,1,0,56472,task3,627662,false,false,901,image-keyboard-response,9
true,14,0,2,2,false,d,true,false,0.0-2.0-0.30-0.275-3.275,1,0,1,81,false,stim,false,2,612,2,0,2,56472,task3,629797,false,false,904,image-keyboard-response,10
true,14,2,2,2,true,d,false,true,0.0-2.0-0.30-0.276-3.276,1,0,1,68,false,stim,false,2,299,2,0,2,56472,task3,631608,false,false,907,image-keyboard-response,11
true,14,0,2,0,true,q,false,true,0.0-2.0-0.30-0.277-3.277,1,0,1,81,false,stim,false,0,677,2,1,0,56472,task3,633811,false,false,910,image-keyboard-response,12
true,14,2,2,2,true,d,false,true,0.0-2.0-0.30-0.278-3.278,1,0,1,68,false,stim,false,2,351,2,0,2,56472,task3,635685,false,false,913,image-keyboard-response,13
true,15,2,2,1,false,z,false,false,0.0-2.0-0.31-0.279-3.279,1,1,0,68,true,stim,true,2,509,2,0,2,56472,task3,637724,false,false,916,image-keyboard-response,1
true,15,2,2,1,false,z,false,false,0.0-2.0-0.31-0.280-3.280,1,1,0,68,false,stim,true,2,417,2,0,2,56472,task3,639663,false,false,919,image-keyboard-response,2
true,15,1,2,2,false,d,true,false,0.0-2.0-0.31-0.281-3.281,1,1,0,90,false,stim,false,2,436,2,1,1,56472,task3,641630,false,false,922,image-keyboard-response,3
true,15,0,2,0,true,q,false,true,0.0-2.0-0.31-0.282-3.282,1,1,0,81,false,stim,false,0,548,2,1,0,56472,task3,643703,false,false,925,image-keyboard-response,4
true,15,1,2,2,false,d,true,true,0.0-2.0-0.31-0.283-3.283,1,1,0,90,false,stim,false,2,770,2,1,1,56472,task3,645997,false,true,928,image-keyboard-response,5
true,15,0,2,1,false,z,true,false,0.0-2.0-0.31-0.284-3.284,1,1,0,81,false,stim,false,2,1068,2,0,2,56472,task3,648593,false,false,931,image-keyboard-response,6
true,15,1,2,2,false,d,true,false,0.0-2.0-0.31-0.285-3.285,1,1,0,90,false,stim,false,2,872,2,1,1,56472,task3,650976,false,false,934,image-keyboard-response,7
true,15,0,2,0,true,q,false,true,0.0-2.0-0.31-0.286-3.286,1,1,0,81,false,stim,false,0,388,2,1,0,56472,task3,652903,false,false,937,image-keyboard-response,8
true,15,0,2,0,true,q,false,true,0.0-2.0-0.31-0.287-3.287,1,1,0,81,false,stim,false,0,441,2,1,0,56472,task3,654877,false,false,940,image-keyboard-response,9
true,15,1,2,2,false,d,true,false,0.0-2.0-0.32-0.288-3.288,1,1,0,90,false,stim,false,2,692,2,1,1,56472,task3,657095,false,false,943,image-keyboard-response,10
true,15,0,2,0,true,q,false,true,0.0-2.0-0.32-0.289-3.289,1,1,0,81,false,stim,false,0,937,2,0,0,56472,task3,659552,false,false,946,image-keyboard-response,11
true,15,0,2,1,false,z,true,false,0.0-2.0-0.32-0.290-3.290,1,1,0,81,false,stim,false,2,560,2,1,2,56472,task3,661626,false,false,949,image-keyboard-response,12
true,15,2,2,2,true,d,false,true,0.0-2.0-0.32-0.291-3.291,1,1,0,68,false,stim,false,2,85,2,1,1,56472,task3,663250,false,false,952,image-keyboard-response,13
true,15,2,2,0,false,q,true,false,0.0-2.0-0.32-0.292-3.292,1,1,0,68,false,stim,false,0,332,2,0,0,56472,task3,665117,false,false,955,image-keyboard-response,14
true,15,0,2,1,false,z,true,false,0.0-2.0-0.32-0.293-3.293,1,1,0,81,false,stim,false,2,430,2,1,2,56472,task3,667086,false,false,958,image-keyboard-response,15
true,16,1,2,1,true,z,false,true,0.0-2.0-0.32-0.294-3.294,0,1,1,90,true,stim,false,0,529,2,0,0,56472,task3,669143,false,false,961,image-keyboard-response,1
true,16,2,2,2,true,d,false,true,0.0-2.0-0.32-0.295-3.295,0,1,1,68,false,stim,false,2,541,2,1,1,56472,task3,671216,false,false,964,image-keyboard-response,2
true,16,0,2,1,false,z,true,false,0.0-2.0-0.32-0.296-3.296,0,1,1,81,false,stim,false,1,491,2,1,2,56472,task3,673236,false,false,967,image-keyboard-response,3
true,16,2,2,1,false,z,true,false,0.0-2.0-0.33-0.297-3.297,0,1,1,68,false,stim,false,1,373,2,1,2,56472,task3,675137,false,false,970,image-keyboard-response,4
true,16,1,2,1,true,z,false,false,0.0-2.0-0.33-0.298-3.298,0,1,1,90,false,stim,false,0,576,2,0,0,56472,task3,677251,false,true,973,image-keyboard-response,5
true,16,0,2,1,false,z,false,false,0.0-2.0-0.33-0.299-3.299,0,1,1,81,false,stim,true,0,244,2,0,0,56472,task3,679019,false,false,976,image-keyboard-response,6
true,16,1,2,2,false,d,true,true,0.0-2.0-0.33-0.300-3.300,0,1,1,90,false,stim,false,2,252,2,1,1,56472,task3,680807,false,true,979,image-keyboard-response,7
true,16,2,2,1,false,z,true,false,0.0-2.0-0.33-0.301-3.301,0,1,1,68,false,stim,false,1,225,2,0,2,56472,task3,682560,false,false,982,image-keyboard-response,8
true,16,0,2,2,false,d,true,false,0.0-2.0-0.33-0.302-3.302,0,1,1,81,false,stim,false,2,663,2,1,1,56472,task3,684747,false,false,985,image-keyboard-response,9
true,16,1,2,1,true,z,false,true,0.0-2.0-0.33-0.303-3.303,0,1,1,90,false,stim,false,1,1185,2,0,2,56472,task3,687471,false,false,988,image-keyboard-response,10
true,16,1,2,1,true,z,false,true,0.0-2.0-0.33-0.304-3.304,0,1,1,90,false,stim,false,0,892,2,1,0,56472,task3,689887,false,false,991,image-keyboard-response,11
true,16,2,2,2,true,d,false,true,0.0-2.0-0.33-0.305-3.305,0,1,1,68,false,stim,false,2,407,2,1,1,56472,task3,691821,false,false,994,image-keyboard-response,12
true,17,1,2,1,true,z,false,true,0.0-2.0-0.34-0.306-3.306,1,1,0,90,true,stim,false,1,394,2,1,0,56472,task3,693749,false,false,997,image-keyboard-response,1
true,17,1,2,1,true,z,false,true,0.0-2.0-0.34-0.307-3.307,1,1,0,90,false,stim,false,1,407,2,1,0,56472,task3,695681,false,false,1000,image-keyboard-response,2
true,17,1,2,1,true,z,false,true,0.0-2.0-0.34-0.308-3.308,1,1,0,90,false,stim,false,1,391,2,1,0,56472,task3,697616,false,false,1003,image-keyboard-response,3
true,17,2,2,0,false,q,true,false,0.0-2.0-0.34-0.309-3.309,1,1,0,68,false,stim,false,1,543,2,0,2,56472,task3,699688,false,false,1006,image-keyboard-response,4
true,17,1,2,0,false,q,false,false,0.0-2.0-0.34-0.310-3.310,1,1,0,90,false,stim,true,1,406,2,0,2,56472,task3,701621,false,false,1009,image-keyboard-response,5
true,17,0,2,0,true,q,false,true,0.0-2.0-0.34-0.311-3.311,1,1,0,81,false,stim,false,1,304,2,0,2,56472,task3,703459,false,false,1012,image-keyboard-response,6
true,17,2,2,2,true,d,false,true,0.0-2.0-0.34-0.312-3.312,1,1,0,68,false,stim,false,2,1262,2,1,1,56472,task3,706256,false,false,1015,image-keyboard-response,7
true,17,2,2,2,true,d,false,true,0.0-2.0-0.34-0.313-3.313,1,1,0,68,false,stim,false,2,399,2,1,1,56472,task3,708184,false,false,1018,image-keyboard-response,8
true,17,2,2,2,true,d,false,true,0.0-2.0-0.34-0.314-3.314,1,1,0,68,false,stim,false,2,502,2,1,1,56472,task3,710228,false,false,1021,image-keyboard-response,9
true,17,1,2,0,false,q,false,false,0.0-2.0-0.35-0.315-3.315,1,1,0,90,false,stim,true,1,335,2,0,2,56472,task3,712090,false,false,1024,image-keyboard-response,10
true,17,2,2,0,false,q,true,false,0.0-2.0-0.35-0.316-3.316,1,1,0,68,false,stim,false,1,229,2,0,2,56472,task3,713843,false,false,1027,image-keyboard-response,11
true,17,0,2,1,false,z,true,false,0.0-2.0-0.35-0.317-3.317,1,1,0,81,false,stim,false,1,233,2,1,0,56472,task3,715606,false,false,1030,image-keyboard-response,12
true,17,1,2,2,false,d,true,false,0.0-2.0-0.35-0.318-3.318,1,1,0,90,false,stim,false,2,241,2,1,1,56472,task3,717376,false,false,1033,image-keyboard-response,13
true,17,2,2,2,true,d,false,true,0.0-2.0-0.35-0.319-3.319,1,1,0,68,false,stim,false,2,424,2,1,1,56472,task3,719338,false,false,1036,image-keyboard-response,14
true,17,2,2,1,false,z,true,false,0.0-2.0-0.35-0.320-3.320,1,1,0,68,false,stim,false,1,555,2,1,0,56472,task3,721429,false,false,1039,image-keyboard-response,15
true,17,1,2,1,true,z,false,true,0.0-2.0-0.35-0.321-3.321,1,1,0,90,false,stim,false,1,439,2,1,0,56472,task3,723399,false,false,1042,image-keyboard-response,16
true,17,2,2,2,true,d,false,true,0.0-2.0-0.35-0.322-3.322,1,1,0,68,false,stim,false,2,825,2,1,1,56472,task3,725747,false,false,1045,image-keyboard-response,17
true,17,0,2,0,true,q,false,true,0.0-2.0-0.35-0.323-3.323,1,1,0,81,false,stim,false,1,358,2,0,2,56472,task3,727621,false,false,1048,image-keyboard-response,18
true,17,1,2,2,false,d,true,false,0.0-2.0-0.36-0.324-3.324,1,1,0,90,false,stim,false,2,662,2,1,1,56472,task3,729801,false,false,1051,image-keyboard-response,19
true,17,2,2,1,false,z,true,false,0.0-2.0-0.36-0.325-3.325,1,1,0,68,false,stim,false,1,2357,2,1,0,56472,task3,733673,false,false,1054,image-keyboard-response,20
true,17,0,2,1,false,z,true,false,0.0-2.0-0.36-0.326-3.326,1,1,0,81,false,stim,false,1,657,2,1,0,56472,task3,735851,false,false,1057,image-keyboard-response,21
true,17,2,2,2,true,d,false,false,0.0-2.0-0.36-0.327-3.327,1,1,0,68,false,stim,false,2,1818,2,1,1,56472,task3,739204,false,true,1060,image-keyboard-response,22
true,17,0,2,0,true,q,false,false,0.0-2.0-0.36-0.328-3.328,1,1,0,81,false,stim,false,1,106,2,0,2,56472,task3,740851,false,true,1063,image-keyboard-response,23
true,17,1,2,0,false,q,false,false,0.0-2.0-0.36-0.329-3.329,1,1,0,90,false,stim,true,1,1134,2,0,2,56472,task3,743509,false,false,1066,image-keyboard-response,24
true,17,2,2,2,true,d,false,true,0.0-2.0-0.36-0.330-3.330,1,1,0,68,false,stim,false,2,1271,2,0,1,56472,task3,746296,false,false,1069,image-keyboard-response,25
true,17,0,2,0,true,q,false,true,0.0-2.0-0.36-0.331-3.331,1,1,0,81,false,stim,false,1,1518,2,0,2,56472,task3,749353,false,false,1072,image-keyboard-response,26
true,17,0,2,1,false,z,true,false,0.0-2.0-0.36-0.332-3.332,1,1,0,81,false,stim,false,1,446,2,1,0,56472,task3,751331,false,false,1075,image-keyboard-response,27
true,17,2,2,1,false,z,true,false,0.0-2.0-0.37-0.333-3.333,1,1,0,68,false,stim,false,1,648,2,1,0,56472,task3,753513,false,false,1078,image-keyboard-response,28
true,18,1,1,2,false,d,true,false,0.0-2.0-0.37-0.334-3.334,1,0,0,90,true,stim,false,0,747,2,0,2,56472,task3,755791,false,false,1081,image-keyboard-response,1
true,18,0,1,1,false,z,true,false,0.0-2.0-0.37-0.335-3.335,1,0,0,81,false,stim,false,2,435,2,0,1,56472,task3,757749,false,false,1084,image-keyboard-response,2
true,18,2,1,1,false,z,false,false,0.0-2.0-0.37-0.336-3.336,1,0,0,68,false,stim,true,2,213,2,0,1,56472,task3,759487,false,false,1087,image-keyboard-response,3
true,18,1,1,2,false,d,true,true,0.0-2.0-0.37-0.337-3.337,1,0,0,90,false,stim,false,0,316,2,0,2,56472,task3,761340,false,true,1090,image-keyboard-response,4
true,18,0,1,1,false,z,true,false,0.0-2.0-0.37-0.338-3.338,1,0,0,81,false,stim,false,1,209,2,1,0,56472,task3,763074,false,false,1093,image-keyboard-response,5
true,18,1,1,2,false,d,true,false,0.0-2.0-0.37-0.339-3.339,1,0,0,90,false,stim,false,0,7,2,0,2,56472,task3,764613,false,false,1096,image-keyboard-response,6
true,18,2,1,1,false,z,false,false,0.0-2.0-0.37-0.340-3.340,1,0,0,68,false,stim,true,2,1967,2,0,1,56472,task3,768103,false,false,1099,image-keyboard-response,7
true,18,2,1,1,false,z,true,false,0.0-2.0-0.37-0.341-3.341,1,0,0,68,false,stim,false,1,381,2,1,0,56472,task3,770017,false,false,1102,image-keyboard-response,8
true,18,0,1,1,false,z,true,false,0.0-2.0-0.38-0.342-3.342,1,0,0,81,false,stim,false,1,314,2,1,0,56472,task3,771870,false,false,1105,image-keyboard-response,9
true,18,1,1,1,true,z,false,true,0.0-2.0-0.38-0.343-3.343,1,0,0,90,false,stim,false,2,923,2,0,1,56472,task3,774317,false,false,1108,image-keyboard-response,10
true,18,2,1,1,false,z,false,false,0.0-2.0-0.38-0.344-3.344,1,0,0,68,false,stim,true,2,1039,2,0,1,56472,task3,776885,false,false,1111,image-keyboard-response,11
true,18,1,1,2,false,d,true,false,0.0-2.0-0.38-0.345-3.345,1,0,0,90,false,stim,false,0,18,2,0,2,56472,task3,778443,false,false,1114,image-keyboard-response,12
true,18,0,1,2,false,d,false,false,0.0-2.0-0.38-0.346-3.346,1,0,0,81,false,stim,true,0,125,2,0,2,56472,task3,780101,false,false,1117,image-keyboard-response,13
false,18,-1,1,1,false,z,true,false,0.0-2.0-0.38-0.347-3.347,1,0,0,,false,stim,false,1,,2,1,0,56472,task3,784654,false,false,1120,image-keyboard-response,14
true,18,2,1,1,false,z,true,false,0.0-2.0-0.38-0.348-3.348,1,0,0,68,false,stim,false,1,200,2,1,0,56472,task3,786395,false,false,1123,image-keyboard-response,15
true,18,1,1,1,true,z,false,true,0.0-2.0-0.38-0.349-3.349,1,0,0,90,false,stim,false,2,250,2,0,1,56472,task3,788174,false,false,1126,image-keyboard-response,16
true,18,1,1,2,false,d,true,false,0.0-2.0-0.38-0.350-3.350,1,0,0,90,false,stim,false,0,566,2,0,2,56472,task3,790270,false,false,1129,image-keyboard-response,17
true,18,0,1,2,false,d,false,false,0.0-2.0-0.39-0.351-3.351,1,0,0,81,false,stim,true,0,264,2,0,2,56472,task3,792059,false,false,1132,image-keyboard-response,18
true,18,2,1,1,false,z,false,true,0.0-2.0-0.39-0.352-3.352,1,0,0,68,false,stim,true,2,258,2,0,1,56472,task3,793852,false,true,1135,image-keyboard-response,19
true,18,2,1,1,false,z,true,true,0.0-2.0-0.39-0.353-3.353,1,0,0,68,false,stim,false,1,430,2,1,0,56472,task3,795805,false,true,1138,image-keyboard-response,20
true,18,2,1,1,false,z,false,false,0.0-2.0-0.39-0.354-3.354,1,0,0,68,false,stim,true,2,629,2,0,1,56472,task3,797963,false,false,1141,image-keyboard-response,21
true,18,0,1,1,false,z,true,true,0.0-2.0-0.39-0.355-3.355,1,0,0,81,false,stim,false,1,315,2,1,0,56472,task3,799801,false,true,1144,image-keyboard-response,22
true,18,0,1,1,false,z,true,false,0.0-2.0-0.39-0.356-3.356,1,0,0,81,false,stim,false,1,398,2,1,0,56472,task3,801723,false,false,1147,image-keyboard-response,23
true,18,1,1,2,false,d,true,false,0.0-2.0-0.39-0.357-3.357,1,0,0,90,false,stim,false,0,555,2,0,2,56472,task3,803821,false,false,1150,image-keyboard-response,24
true,18,2,1,2,true,d,false,true,0.0-2.0-0.39-0.358-3.358,1,0,0,68,false,stim,false,0,558,2,0,2,56472,task3,805904,false,false,1153,image-keyboard-response,25
true,18,0,1,1,false,z,true,false,0.0-2.0-0.39-0.359-3.359,1,0,0,81,false,stim,false,2,463,2,1,1,56472,task3,807897,false,false,1156,image-keyboard-response,26
true,18,0,1,1,false,z,true,false,0.0-2.0-0.40-0.360-3.360,1,0,0,81,false,stim,false,2,400,2,1,1,56472,task3,809825,false,false,1159,image-keyboard-response,27
true,18,1,1,2,false,d,true,false,0.0-2.0-0.40-0.361-3.361,1,0,0,90,false,stim,false,0,328,2,0,2,56472,task3,811672,false,false,1162,image-keyboard-response,28
true,18,2,1,1,false,z,false,false,0.0-2.0-0.40-0.362-3.362,1,0,0,68,false,stim,true,2,361,2,1,1,56472,task3,813566,false,false,1165,image-keyboard-response,29
true,18,0,1,1,false,z,true,false,0.0-2.0-0.40-0.363-3.363,1,0,0,81,false,stim,false,1,344,2,0,0,56472,task3,815449,false,false,1168,image-keyboard-response,30
true,19,1,1,2,false,d,false,false,0.0-2.0-0.40-0.364-3.364,0,1,0,90,true,stim,true,1,341,2,0,0,56472,task3,817317,false,false,1171,image-keyboard-response,1
true,19,2,1,1,false,z,false,false,0.0-2.0-0.40-0.365-3.365,0,1,0,68,false,stim,true,2,154,2,0,2,56472,task3,819010,false,false,1174,image-keyboard-response,2
true,19,0,1,1,false,z,true,false,0.0-2.0-0.40-0.366-3.366,0,1,0,81,false,stim,false,2,38,2,0,2,56472,task3,820573,false,false,1177,image-keyboard-response,3
true,19,1,1,1,true,z,false,true,0.0-2.0-0.40-0.367-3.367,0,1,0,90,false,stim,false,1,236,2,1,1,56472,task3,822351,false,false,1180,image-keyboard-response,4
true,19,2,1,2,true,d,false,true,0.0-2.0-0.40-0.368-3.368,0,1,0,68,false,stim,false,1,529,2,0,0,56472,task3,824415,false,false,1183,image-keyboard-response,5
true,19,1,1,1,true,z,false,true,0.0-2.0-0.41-0.369-3.369,0,1,0,90,false,stim,false,1,586,2,1,1,56472,task3,826531,false,false,1186,image-keyboard-response,6
true,19,2,1,1,false,z,false,false,0.0-2.0-0.41-0.370-3.370,0,1,0,68,false,stim,true,2,534,2,0,2,56472,task3,828589,false,false,1189,image-keyboard-response,7
true,19,1,1,1,true,z,false,true,0.0-2.0-0.41-0.371-3.371,0,1,0,90,false,stim,false,1,383,2,1,1,56472,task3,830507,false,false,1192,image-keyboard-response,8
true,19,2,1,2,true,d,false,true,0.0-2.0-0.41-0.372-3.372,0,1,0,68,false,stim,false,1,724,2,0,0,56472,task3,832759,false,false,1195,image-keyboard-response,9
true,19,1,1,1,true,z,false,true,0.0-2.0-0.41-0.373-3.373,0,1,0,90,false,stim,false,2,608,2,0,2,56472,task3,834903,false,false,1198,image-keyboard-response,10
true,19,2,1,2,true,d,false,true,0.0-2.0-0.41-0.374-3.374,0,1,0,68,false,stim,false,1,538,2,0,0,56472,task3,836985,false,false,1201,image-keyboard-response,11
true,19,1,1,1,true,z,false,true,0.0-2.0-0.41-0.375-3.375,0,1,0,90,false,stim,false,1,303,2,0,1,56472,task3,838829,false,false,1204,image-keyboard-response,12
true,19,2,1,1,false,z,false,false,0.0-2.0-0.41-0.376-3.376,0,1,0,68,false,stim,true,2,475,2,1,2,56472,task3,840842,false,false,1207,image-keyboard-response,13
true,19,2,1,2,true,d,false,true,0.0-2.0-0.41-0.377-3.377,0,1,0,68,false,stim,false,1,904,2,1,0,56472,task3,843258,false,false,1210,image-keyboard-response,14
true,19,1,1,1,true,z,false,true,0.0-2.0-0.42-0.378-3.378,0,1,0,90,false,stim,false,2,391,2,1,2,56472,task3,845186,false,false,1213,image-keyboard-response,15
true,19,1,1,2,false,d,false,false,0.0-2.0-0.42-0.379-3.379,0,1,0,90,false,stim,true,1,346,2,1,0,56472,task3,847062,false,false,1216,image-keyboard-response,16
true,20,1,2,1,true,z,false,true,0.0-2.0-0.42-0.380-3.380,1,0,1,90,true,stim,false,1,352,2,1,2,56472,task3,848937,false,false,1219,image-keyboard-response,1
true,20,1,2,0,false,q,false,false,0.0-2.0-0.42-0.381-3.381,1,0,1,90,false,stim,true,1,516,2,0,1,56472,task3,850980,false,false,1222,image-keyboard-response,2
true,20,2,2,0,false,q,true,false,0.0-2.0-0.42-0.382-3.382,1,0,1,68,false,stim,false,1,640,2,0,1,56472,task3,853145,false,false,1225,image-keyboard-response,3
true,20,2,2,2,true,d,false,true,0.0-2.0-0.42-0.383-3.383,1,0,1,68,false,stim,false,2,506,2,1,0,56472,task3,855192,false,false,1228,image-keyboard-response,4
true,20,1,2,1,true,z,false,true,0.0-2.0-0.42-0.384-3.384,1,0,1,90,false,stim,false,1,520,2,1,2,56472,task3,857234,false,false,1231,image-keyboard-response,5
true,20,1,2,0,false,q,false,false,0.0-2.0-0.42-0.385-3.385,1,0,1,90,false,stim,true,1,412,2,0,1,56472,task3,859187,false,false,1234,image-keyboard-response,6
true,20,1,2,2,false,d,true,false,0.0-2.0-0.42-0.386-3.386,1,0,1,90,false,stim,false,2,305,2,1,0,56472,task3,861020,false,false,1237,image-keyboard-response,7
true,20,1,2,1,true,z,false,true,0.0-2.0-0.43-0.387-3.387,1,0,1,90,false,stim,false,1,853,2,1,2,56472,task3,863398,false,false,1240,image-keyboard-response,8
true,20,1,2,0,false,q,false,false,0.0-2.0-0.43-0.388-3.388,1,0,1,90,false,stim,true,1,615,2,0,1,56472,task3,865541,false,false,1243,image-keyboard-response,9
true,20,1,2,1,true,z,false,true,0.0-2.0-0.43-0.389-3.389,1,0,1,90,false,stim,false,1,1043,2,1,2,56472,task3,868098,false,false,1246,image-keyboard-response,10
true,20,2,2,2,true,d,false,true,0.0-2.0-0.43-0.390-3.390,1,0,1,68,false,stim,false,2,431,2,1,0,56472,task3,870067,false,false,1249,image-keyboard-response,11
true,20,2,2,2,true,d,false,true,0.0-2.0-0.43-0.391-3.391,1,0,1,68,false,stim,false,2,578,2,1,0,56472,task3,872173,false,false,1252,image-keyboard-response,12
true,20,2,2,2,true,d,false,true,0.0-2.0-0.43-0.392-3.392,1,0,1,68,false,stim,false,2,436,2,1,0,56472,task3,874151,false,false,1255,image-keyboard-response,13
true,20,1,2,1,true,z,false,true,0.0-2.0-0.43-0.393-3.393,1,0,1,90,false,stim,false,1,1103,2,1,2,56472,task3,876788,false,false,1258,image-keyboard-response,14
true,20,1,2,0,false,q,false,false,0.0-2.0-0.43-0.394-3.394,1,0,1,90,false,stim,true,1,836,2,0,1,56472,task3,879161,false,false,1261,image-keyboard-response,15
true,20,2,2,0,false,q,true,false,0.0-2.0-0.43-0.395-3.395,1,0,1,68,false,stim,false,1,604,2,0,1,56472,task3,881299,false,false,1264,image-keyboard-response,16
true,20,1,2,1,true,z,false,true,0.0-2.0-0.44-0.396-3.396,1,0,1,90,false,stim,false,1,776,2,1,2,56472,task3,883611,false,false,1267,image-keyboard-response,17
true,20,1,2,1,true,z,false,true,0.0-2.0-0.44-0.397-3.397,1,0,1,90,false,stim,false,1,533,2,1,2,56472,task3,885658,false,false,1270,image-keyboard-response,18
true,20,1,2,1,true,z,false,true,0.0-2.0-0.44-0.398-3.398,1,0,1,90,false,stim,false,1,528,2,1,2,56472,task3,887712,false,false,1273,image-keyboard-response,19
true,20,0,2,0,true,q,false,true,0.0-2.0-0.44-0.399-3.399,1,0,1,81,false,stim,false,1,1033,2,0,1,56472,task3,890279,false,false,1276,image-keyboard-response,20
true,20,0,2,0,true,q,false,true,0.0-2.0-0.44-0.400-3.400,1,0,1,81,false,stim,false,1,406,2,0,1,56472,task3,892222,false,false,1279,image-keyboard-response,21
true,20,2,2,2,true,d,false,true,0.0-2.0-0.44-0.401-3.401,1,0,1,68,false,stim,false,2,759,2,1,0,56472,task3,894515,false,false,1282,image-keyboard-response,22
true,20,2,2,2,true,d,false,true,0.0-2.0-0.44-0.402-3.402,1,0,1,68,false,stim,false,2,413,2,1,0,56472,task3,896467,false,false,1285,image-keyboard-response,23
true,20,2,2,2,true,d,false,false,0.0-2.0-0.44-0.403-3.403,1,0,1,68,false,stim,false,2,406,2,1,0,56472,task3,898411,false,true,1288,image-keyboard-response,24
true,20,0,2,0,true,q,false,true,0.0-2.0-0.44-0.404-3.404,1,0,1,81,false,stim,false,1,563,2,0,1,56472,task3,900508,false,false,1291,image-keyboard-response,25
true,20,2,2,1,false,z,true,false,0.0-2.0-0.45-0.405-3.405,1,0,1,68,false,stim,false,1,622,2,0,2,56472,task3,902666,false,false,1294,image-keyboard-response,26
true,21,1,1,2,false,d,false,false,0.0-2.0-0.45-0.406-3.406,1,0,0,90,true,stim,true,1,643,2,0,2,56472,task3,904849,false,false,1297,image-keyboard-response,1
true,21,0,1,2,false,d,true,false,0.0-2.0-0.45-0.407-3.407,1,0,0,81,false,stim,false,2,427,2,1,0,56472,task3,906802,false,false,1300,image-keyboard-response,2
true,21,2,1,2,true,d,false,true,0.0-2.0-0.45-0.408-3.408,1,0,0,68,false,stim,false,2,330,2,1,0,56472,task3,908664,false,false,1303,image-keyboard-response,3
true,21,1,1,2,false,d,false,false,0.0-2.0-0.45-0.409-3.409,1,0,0,90,false,stim,true,1,711,2,0,2,56472,task3,910897,false,false,1306,image-keyboard-response,4
true,21,0,1,2,false,d,true,false,0.0-2.0-0.45-0.410-3.410,1,0,0,81,false,stim,false,2,470,2,1,0,56472,task3,912895,false,false,1309,image-keyboard-response,5
true,21,2,1,1,false,z,true,false,0.0-2.0-0.45-0.411-3.411,1,0,0,68,false,stim,false,0,154,2,0,1,56472,task3,914579,false,false,1312,image-keyboard-response,6
true,21,1,1,1,true,z,false,true,0.0-2.0-0.45-0.412-3.412,1,0,0,90,false,stim,false,0,286,2,0,1,56472,task3,916401,false,false,1315,image-keyboard-response,7
true,21,1,1,1,true,z,false,true,0.0-2.0-0.45-0.413-3.413,1,0,0,90,false,stim,false,0,390,2,0,1,56472,task3,918325,false,false,1318,image-keyboard-response,8
true,21,2,1,2,true,d,false,true,0.0-2.0-0.46-0.414-3.414,1,0,0,68,false,stim,false,1,677,2,0,2,56472,task3,920531,false,false,1321,image-keyboard-response,9
true,21,1,1,1,true,z,false,true,0.0-2.0-0.46-0.415-3.415,1,0,0,90,false,stim,false,0,405,2,0,1,56472,task3,922450,false,false,1324,image-keyboard-response,10
true,21,2,1,2,true,d,false,true,0.0-2.0-0.46-0.416-3.416,1,0,0,68,false,stim,false,1,333,2,0,2,56472,task3,924318,false,false,1327,image-keyboard-response,11
true,21,0,1,2,false,d,true,false,0.0-2.0-0.46-0.417-3.417,1,0,0,81,false,stim,false,2,386,2,1,0,56472,task3,926230,false,false,1330,image-keyboard-response,12
true,21,1,1,2,false,d,true,false,0.0-2.0-0.46-0.418-3.418,1,0,0,90,false,stim,false,2,658,2,1,0,56472,task3,928414,false,false,1333,image-keyboard-response,13
true,21,2,1,2,true,d,false,true,0.0-2.0-0.46-0.419-3.419,1,0,0,68,false,stim,false,2,431,2,1,0,56472,task3,930386,false,false,1336,image-keyboard-response,14
true,21,2,1,1,false,z,true,false,0.0-2.0-0.46-0.420-3.420,1,0,0,68,false,stim,false,0,729,2,0,1,56472,task3,932644,false,false,1339,image-keyboard-response,15
true,21,1,1,1,true,z,false,true,0.0-2.0-0.46-0.421-3.421,1,0,0,90,false,stim,false,0,427,2,0,1,56472,task3,934602,false,false,1342,image-keyboard-response,16
true,21,2,1,2,true,d,false,true,0.0-2.0-0.46-0.422-3.422,1,0,0,68,false,stim,false,1,440,2,0,2,56472,task3,936566,false,false,1345,image-keyboard-response,17
true,21,1,1,1,true,z,false,true,0.0-2.0-0.47-0.423-3.423,1,0,0,90,false,stim,false,0,888,2,0,1,56472,task3,938994,false,false,1348,image-keyboard-response,18
true,21,2,1,2,true,d,false,false,0.0-2.0-0.47-0.424-3.424,1,0,0,68,false,stim,false,1,481,2,0,2,56472,task3,941007,false,true,1351,image-keyboard-response,19
true,21,2,1,2,true,d,false,true,0.0-2.0-0.47-0.425-3.425,1,0,0,68,false,stim,false,2,898,2,1,0,56472,task3,943433,false,false,1354,image-keyboard-response,20
true,21,2,1,2,true,d,false,true,0.0-2.0-0.47-0.426-3.426,1,0,0,68,false,stim,false,2,515,2,0,0,56472,task3,945481,false,false,1357,image-keyboard-response,21
true,21,1,1,2,false,d,false,false,0.0-2.0-0.47-0.427-3.427,1,0,0,90,false,stim,true,1,630,2,0,2,56472,task3,947634,false,false,1360,image-keyboard-response,22
true,21,2,1,2,true,d,false,true,0.0-2.0-0.47-0.428-3.428,1,0,0,68,false,stim,false,1,492,2,0,2,56472,task3,949656,false,false,1363,image-keyboard-response,23
true,21,1,1,1,true,z,false,true,0.0-2.0-0.47-0.429-3.429,1,0,0,90,false,stim,false,0,435,2,1,1,56472,task3,951620,false,false,1366,image-keyboard-response,24
true,21,1,1,1,true,z,false,false,0.0-2.0-0.47-0.430-3.430,1,0,0,90,false,stim,false,0,633,2,1,1,56472,task3,953778,false,true,1369,image-keyboard-response,25
true,22,2,1,1,false,z,false,false,0.0-2.0-0.47-0.431-3.431,0,1,0,68,true,stim,true,2,530,2,0,0,56472,task3,955845,false,false,1372,image-keyboard-response,1
true,22,2,1,0,false,q,false,false,0.0-2.0-0.48-0.432-3.432,0,1,0,68,false,stim,true,2,1123,2,0,2,56472,task3,958498,false,false,1375,image-keyboard-response,2
true,22,2,1,0,false,q,false,true,0.0-2.0-0.48-0.433-3.433,0,1,0,68,false,stim,true,2,610,2,0,2,56472,task3,960645,false,true,1378,image-keyboard-response,3
true,22,1,1,1,true,z,false,true,0.0-2.0-0.48-0.434-3.434,0,1,0,90,false,stim,false,1,838,2,1,1,56472,task3,963024,false,false,1381,image-keyboard-response,4
true,22,1,1,1,true,z,false,true,0.0-2.0-0.48-0.435-3.435,0,1,0,90,false,stim,false,1,545,2,1,1,56472,task3,965111,false,false,1384,image-keyboard-response,5
true,22,2,1,0,false,q,false,false,0.0-2.0-0.48-0.436-3.436,0,1,0,68,false,stim,true,2,677,2,0,2,56472,task3,967314,false,false,1387,image-keyboard-response,6
true,22,2,1,1,false,z,false,false,0.0-2.0-0.48-0.437-3.437,0,1,0,68,false,stim,true,2,552,2,0,0,56472,task3,969387,false,false,1390,image-keyboard-response,7
true,22,1,1,1,true,z,false,true,0.0-2.0-0.48-0.438-3.438,0,1,0,90,false,stim,false,1,538,2,1,1,56472,task3,971454,false,false,1393,image-keyboard-response,8
true,22,2,1,1,false,z,false,false,0.0-2.0-0.48-0.439-3.439,0,1,0,68,false,stim,true,2,473,2,0,0,56472,task3,973467,false,false,1396,image-keyboard-response,9
true,22,0,1,1,false,z,true,false,0.0-2.0-0.48-0.440-3.440,0,1,0,81,false,stim,false,2,555,2,0,0,56472,task3,975560,false,false,1399,image-keyboard-response,10
true,22,1,1,1,true,z,false,true,0.0-2.0-0.49-0.441-3.441,0,1,0,90,false,stim,false,1,912,2,1,1,56472,task3,977998,false,false,1402,image-keyboard-response,11
true,22,2,1,0,false,q,false,false,0.0-2.0-0.49-0.442-3.442,0,1,0,68,false,stim,true,2,1120,2,0,2,56472,task3,980655,false,false,1405,image-keyboard-response,12
true,22,1,1,0,false,q,true,false,0.0-2.0-0.49-0.443-3.443,0,1,0,90,false,stim,false,2,512,2,0,2,56472,task3,982707,false,false,1408,image-keyboard-response,13
true,22,1,1,1,true,z,false,true,0.0-2.0-0.49-0.444-3.444,0,1,0,90,false,stim,false,1,1235,2,1,1,56472,task3,985470,false,false,1411,image-keyboard-response,14
true,22,1,1,1,true,z,false,true,0.0-2.0-0.49-0.445-3.445,0,1,0,90,false,stim,false,2,617,2,0,0,56472,task3,987612,false,false,1414,image-keyboard-response,15
true,22,0,1,0,true,q,false,true,0.0-2.0-0.49-0.446-3.446,0,1,0,81,false,stim,false,2,481,2,0,2,56472,task3,989625,false,false,1417,image-keyboard-response,16
true,22,1,1,1,true,z,false,true,0.0-2.0-0.49-0.447-3.447,0,1,0,90,false,stim,false,2,398,2,0,0,56472,task3,991563,false,false,1420,image-keyboard-response,17
true,22,1,1,1,true,z,false,true,0.0-2.0-0.49-0.448-3.448,0,1,0,90,false,stim,false,1,501,2,1,1,56472,task3,993606,false,false,1423,image-keyboard-response,18
true,22,1,1,1,true,z,false,true,0.0-2.0-0.49-0.449-3.449,0,1,0,90,false,stim,false,2,494,2,0,0,56472,task3,995629,false,false,1426,image-keyboard-response,19
true,22,1,1,1,true,z,false,true,0.0-2.0-0.50-0.450-3.450,0,1,0,90,false,stim,false,2,491,2,0,0,56472,task3,997646,false,false,1429,image-keyboard-response,20
true,22,0,1,0,true,q,false,true,0.0-2.0-0.50-0.451-3.451,0,1,0,81,false,stim,false,2,510,2,0,2,56472,task3,999685,false,false,1432,image-keyboard-response,21
true,22,1,1,1,true,z,false,true,0.0-2.0-0.50-0.452-3.452,0,1,0,90,false,stim,false,1,1021,2,1,1,56472,task3,1002247,false,false,1435,image-keyboard-response,22
true,22,1,1,0,false,q,true,false,0.0-2.0-0.50-0.453-3.453,0,1,0,90,false,stim,false,2,591,2,0,2,56472,task3,1004375,false,false,1438,image-keyboard-response,23
true,22,0,1,1,false,z,true,false,0.0-2.0-0.50-0.454-3.454,0,1,0,81,false,stim,false,1,418,2,1,1,56472,task3,1006323,false,false,1441,image-keyboard-response,24
true,22,1,1,1,true,z,false,true,0.0-2.0-0.50-0.455-3.455,0,1,0,90,false,stim,false,2,755,2,0,0,56472,task3,1008620,false,false,1444,image-keyboard-response,25
true,22,1,1,1,true,z,false,true,0.0-2.0-0.50-0.456-3.456,0,1,0,90,false,stim,false,1,833,2,1,1,56472,task3,1010989,false,false,1447,image-keyboard-response,26
true,22,0,1,0,true,q,false,false,0.0-2.0-0.50-0.457-3.457,0,1,0,81,false,stim,false,2,342,2,0,2,56472,task3,1012856,false,true,1450,image-keyboard-response,27
true,23,1,1,0,false,q,false,false,0.0-2.0-0.50-0.458-3.458,0,1,0,90,true,stim,true,1,559,2,0,0,56472,task3,1014955,false,false,1453,image-keyboard-response,1
true,23,1,1,1,true,z,false,true,0.0-2.0-0.51-0.459-3.459,0,1,0,90,false,stim,false,1,352,2,1,1,56472,task3,1016837,false,false,1456,image-keyboard-response,2
true,23,1,1,0,false,q,false,false,0.0-2.0-0.51-0.460-3.460,0,1,0,90,false,stim,true,1,881,2,0,0,56472,task3,1019245,false,false,1459,image-keyboard-response,3
true,23,1,1,1,true,z,false,true,0.0-2.0-0.51-0.461-3.461,0,1,0,90,false,stim,false,1,378,2,1,1,56472,task3,1021158,false,false,1462,image-keyboard-response,4
true,23,0,1,0,true,q,false,true,0.0-2.0-0.51-0.462-3.462,0,1,0,81,false,stim,false,1,430,2,0,0,56472,task3,1023126,false,false,1465,image-keyboard-response,5
true,23,1,1,2,false,d,true,false,0.0-2.0-0.51-0.463-3.463,0,1,0,90,false,stim,false,0,640,2,0,2,56472,task3,1025294,false,false,1468,image-keyboard-response,6
true,23,1,1,2,false,d,true,false,0.0-2.0-0.51-0.464-3.464,0,1,0,90,false,stim,false,0,702,2,0,2,56472,task3,1027526,false,false,1471,image-keyboard-response,7
true,23,0,1,0,true,q,false,true,0.0-2.0-0.51-0.465-3.465,0,1,0,81,false,stim,false,1,1623,2,0,0,56472,task3,1030688,false,false,1474,image-keyboard-response,8
true,23,1,1,1,true,z,false,true,0.0-2.0-0.51-0.466-3.466,0,1,0,90,false,stim,false,1,535,2,1,1,56472,task3,1032761,false,false,1477,image-keyboard-response,9
true,23,0,1,2,false,d,false,false,0.0-2.0-0.51-0.467-3.467,0,1,0,81,false,stim,true,0,369,2,0,2,56472,task3,1034664,false,false,1480,image-keyboard-response,10
true,23,1,1,0,false,q,false,false,0.0-2.0-0.52-0.468-3.468,0,1,0,90,false,stim,true,1,637,2,0,0,56472,task3,1036832,false,false,1483,image-keyboard-response,11
true,23,1,1,1,true,z,false,false,0.0-2.0-0.52-0.469-3.469,0,1,0,90,false,stim,false,1,360,2,1,1,56472,task3,1038715,false,true,1486,image-keyboard-response,12
true,23,2,1,2,true,d,false,true,0.0-2.0-0.52-0.470-3.470,0,1,0,68,false,stim,false,0,393,2,0,2,56472,task3,1040638,false,false,1489,image-keyboard-response,13
true,23,1,1,0,false,q,false,false,0.0-2.0-0.52-0.471-3.471,0,1,0,90,false,stim,true,1,689,2,0,0,56472,task3,1042853,false,false,1492,image-keyboard-response,14
true,23,2,1,2,true,d,false,false,0.0-2.0-0.52-0.472-3.472,0,1,0,68,false,stim,false,0,654,2,0,2,56472,task3,1045038,false,true,1495,image-keyboard-response,15
true,23,1,1,1,true,z,false,true,0.0-2.0-0.52-0.473-3.473,0,1,0,90,false,stim,false,1,201,2,1,1,56472,task3,1046776,false,false,1498,image-keyboard-response,16
true,23,0,1,0,true,q,false,true,0.0-2.0-0.52-0.474-3.474,0,1,0,81,false,stim,false,1,332,2,0,0,56472,task3,1048660,false,false,1501,image-keyboard-response,17
true,23,1,1,1,true,z,false,false,0.0-2.0-0.52-0.475-3.475,0,1,0,90,false,stim,false,1,853,2,1,1,56472,task3,1051047,false,true,1504,image-keyboard-response,18
true,23,2,1,2,true,d,false,true,0.0-2.0-0.52-0.476-3.476,0,1,0,68,false,stim,false,0,950,2,0,2,56472,task3,1053535,false,false,1507,image-keyboard-response,19
true,23,0,1,0,true,q,false,true,0.0-2.0-0.53-0.477-3.477,0,1,0,81,false,stim,false,1,477,2,0,0,56472,task3,1055542,false,false,1510,image-keyboard-response,20
true,23,0,1,0,true,q,false,true,0.0-2.0-0.53-0.478-3.478,0,1,0,81,false,stim,false,1,530,2,0,0,56472,task3,1057605,false,false,1513,image-keyboard-response,21
true,23,2,1,2,true,d,false,true,0.0-2.0-0.53-0.479-3.479,0,1,0,68,false,stim,false,0,773,2,0,2,56472,task3,1059909,false,false,1516,image-keyboard-response,22
true,23,1,1,1,true,z,false,true,0.0-2.0-0.53-0.480-3.480,0,1,0,90,false,stim,false,1,491,2,1,1,56472,task3,1061926,false,false,1519,image-keyboard-response,23
true,23,0,1,2,false,d,false,false,0.0-2.0-0.53-0.481-3.481,0,1,0,81,false,stim,true,0,400,2,0,2,56472,task3,1063865,false,false,1522,image-keyboard-response,24
true,23,2,1,1,false,z,true,false,0.0-2.0-0.53-0.482-3.482,0,1,0,68,false,stim,false,1,417,2,1,1,56472,task3,1065822,false,false,1525,image-keyboard-response,25
true,23,1,1,1,true,z,false,true,0.0-2.0-0.53-0.483-3.483,0,1,0,90,false,stim,false,1,324,2,0,1,56472,task3,1067670,false,false,1528,image-keyboard-response,26
true,23,0,1,0,true,q,false,false,0.0-2.0-0.53-0.484-3.484,0,1,0,81,false,stim,false,1,302,2,1,0,56472,task3,1069498,false,true,1531,image-keyboard-response,27
true,23,1,1,2,false,d,true,false,0.0-2.0-0.53-0.485-3.485,0,1,0,90,false,stim,false,0,241,2,0,2,56472,task3,1071276,false,false,1534,image-keyboard-response,28
true,23,2,1,0,false,q,true,false,0.0-2.0-0.54-0.486-3.486,0,1,0,68,false,stim,false,1,153,2,1,0,56472,task3,1072968,false,false,1537,image-keyboard-response,29
true,23,1,1,1,true,z,false,false,0.0-2.0-0.54-0.487-3.487,0,1,0,90,false,stim,false,1,287,2,0,1,56472,task3,1074772,false,true,1540,image-keyboard-response,30
true,24,2,1,0,false,q,false,true,0.0-2.0-0.54-0.488-3.488,1,0,0,68,true,stim,true,2,414,2,0,2,56472,task3,1076720,false,true,1543,image-keyboard-response,1
true,24,0,1,0,true,q,false,true,0.0-2.0-0.54-0.489-3.489,1,0,0,81,false,stim,false,0,448,2,1,0,56472,task3,1078693,false,false,1546,image-keyboard-response,2
true,24,0,1,0,true,q,false,true,0.0-2.0-0.54-0.490-3.490,1,0,0,81,false,stim,false,0,439,2,1,0,56472,task3,1080655,false,false,1549,image-keyboard-response,3
true,24,2,1,0,false,q,false,false,0.0-2.0-0.54-0.491-3.491,1,0,0,68,false,stim,true,2,483,2,0,2,56472,task3,1082678,false,false,1552,image-keyboard-response,4
true,24,2,1,0,false,q,false,false,0.0-2.0-0.54-0.492-3.492,1,0,0,68,false,stim,true,2,1166,2,0,2,56472,task3,1085381,false,false,1555,image-keyboard-response,5
true,24,1,1,2,false,d,false,false,0.0-2.0-0.54-0.493-3.493,1,0,0,90,false,stim,true,1,528,2,0,1,56472,task3,1087433,false,false,1558,image-keyboard-response,6
true,24,0,1,2,false,d,true,false,0.0-2.0-0.54-0.494-3.494,1,0,0,81,false,stim,false,1,461,2,0,1,56472,task3,1089416,false,false,1561,image-keyboard-response,7
true,24,2,1,2,true,d,false,true,0.0-2.0-0.55-0.495-3.495,1,0,0,68,false,stim,false,1,584,2,0,1,56472,task3,1091529,false,false,1564,image-keyboard-response,8
true,24,1,1,0,false,q,true,false,0.0-2.0-0.55-0.496-3.496,1,0,0,90,false,stim,false,2,706,2,0,2,56472,task3,1093762,false,false,1567,image-keyboard-response,9
true,24,2,1,0,false,q,true,false,0.0-2.0-0.55-0.497-3.497,1,0,0,68,false,stim,false,0,1014,2,1,0,56472,task3,1096308,false,false,1570,image-keyboard-response,10
true,24,2,1,0,false,q,true,false,0.0-2.0-0.55-0.498-3.498,1,0,0,68,false,stim,false,0,358,2,1,0,56472,task3,1098202,false,false,1573,image-keyboard-response,11
true,24,1,1,0,false,q,true,false,0.0-2.0-0.55-0.499-3.499,1,0,0,90,false,stim,false,0,254,2,1,0,56472,task3,1099980,false,false,1576,image-keyboard-response,12
true,24,0,1,0,true,q,false,true,0.0-2.0-0.55-0.500-3.500,1,0,0,81,false,stim,false,2,342,2,0,2,56472,task3,1101849,false,false,1579,image-keyboard-response,13
true,24,2,1,2,true,d,false,true,0.0-2.0-0.55-0.501-3.501,1,0,0,68,false,stim,false,1,866,2,0,1,56472,task3,1104240,false,false,1582,image-keyboard-response,14
true,24,2,1,2,true,d,false,true,0.0-2.0-0.55-0.502-3.502,1,0,0,68,false,stim,false,1,512,2,0,1,56472,task3,1106288,false,false,1585,image-keyboard-response,15
true,24,0,1,0,true,q,false,true,0.0-2.0-0.55-0.503-3.503,1,0,0,81,false,stim,false,2,441,2,0,2,56472,task3,1108256,false,false,1588,image-keyboard-response,16
true,24,2,1,2,true,d,false,true,0.0-2.0-0.56-0.504-3.504,1,0,0,68,false,stim,false,1,708,2,0,1,56472,task3,1110493,false,false,1591,image-keyboard-response,17
true,24,2,1,0,false,q,true,false,0.0-2.0-0.56-0.505-3.505,1,0,0,68,false,stim,false,0,522,2,1,0,56472,task3,1112546,false,false,1594,image-keyboard-response,18
true,24,2,1,2,true,d,false,true,0.0-2.0-0.56-0.506-3.506,1,0,0,68,false,stim,false,1,1194,2,0,1,56472,task3,1115268,false,false,1597,image-keyboard-response,19
true,24,0,1,0,true,q,false,true,0.0-2.0-0.56-0.507-3.507,1,0,0,81,false,stim,false,2,357,2,0,2,56472,task3,1117151,false,false,1600,image-keyboard-response,20
true,24,0,1,0,true,q,false,false,0.0-2.0-0.56-0.508-3.508,1,0,0,81,false,stim,false,0,484,2,1,0,56472,task3,1119179,false,true,1603,image-keyboard-response,21
true,24,0,1,0,true,q,false,true,0.0-2.0-0.56-0.509-3.509,1,0,0,81,false,stim,false,2,747,2,0,2,56472,task3,1121452,false,false,1606,image-keyboard-response,22
true,24,0,1,0,true,q,false,true,0.0-2.0-0.56-0.510-3.510,1,0,0,81,false,stim,false,2,471,2,0,2,56472,task3,1123454,false,false,1609,image-keyboard-response,23
true,24,2,1,2,true,d,false,true,0.0-2.0-0.56-0.511-3.511,1,0,0,68,false,stim,false,1,602,2,0,1,56472,task3,1125587,false,false,1612,image-keyboard-response,24
true,24,2,1,0,false,q,true,false,0.0-2.0-0.56-0.512-3.512,1,0,0,68,false,stim,false,0,371,2,0,0,56472,task3,1127485,false,false,1615,image-keyboard-response,25
true,24,0,1,0,true,q,false,true,0.0-2.0-0.57-0.513-3.513,1,0,0,81,false,stim,false,2,1168,2,0,2,56472,task3,1130182,false,false,1618,image-keyboard-response,26
true,24,0,1,0,true,q,false,true,0.0-2.0-0.57-0.514-3.514,1,0,0,81,false,stim,false,2,431,2,0,2,56472,task3,1132136,false,false,1621,image-keyboard-response,27
true,24,2,1,0,false,q,true,false,0.0-2.0-0.57-0.515-3.515,1,0,0,68,false,stim,false,0,499,2,0,0,56472,task3,1134164,false,false,1624,image-keyboard-response,28
true,24,0,1,2,false,d,true,false,0.0-2.0-0.57-0.516-3.516,1,0,0,81,false,stim,false,1,437,2,1,1,56472,task3,1136141,false,false,1627,image-keyboard-response,29
true,25,0,1,2,false,d,true,false,0.0-2.0-0.57-0.517-3.517,0,1,0,81,true,stim,false,2,529,2,1,1,56472,task3,1138204,false,false,1630,image-keyboard-response,1
true,25,1,1,1,true,z,false,true,0.0-2.0-0.57-0.518-3.518,0,1,0,90,false,stim,false,0,382,2,0,2,56472,task3,1140117,false,false,1633,image-keyboard-response,2
true,25,2,1,2,true,d,false,true,0.0-2.0-0.57-0.519-3.519,0,1,0,68,false,stim,false,0,380,2,0,0,56472,task3,1142026,false,false,1636,image-keyboard-response,3
true,25,0,1,2,false,d,true,false,0.0-2.0-0.57-0.520-3.520,0,1,0,81,false,stim,false,2,284,2,1,1,56472,task3,1143848,false,false,1639,image-keyboard-response,4
true,25,1,1,2,false,d,true,false,0.0-2.0-0.57-0.521-3.521,0,1,0,90,false,stim,false,0,246,2,0,0,56472,task3,1145631,false,false,1642,image-keyboard-response,5
true,25,2,1,2,true,d,false,true,0.0-2.0-0.58-0.522-3.522,0,1,0,68,false,stim,false,0,324,2,0,0,56472,task3,1147479,false,false,1645,image-keyboard-response,6
true,25,0,1,2,false,d,true,false,0.0-2.0-0.58-0.523-3.523,0,1,0,81,false,stim,false,2,102,2,1,1,56472,task3,1149117,false,false,1648,image-keyboard-response,7
true,25,1,1,2,false,d,true,false,0.0-2.0-0.58-0.524-3.524,0,1,0,90,false,stim,false,2,171,2,1,1,56472,task3,1150826,false,false,1651,image-keyboard-response,8
true,25,2,1,1,false,z,true,false,0.0-2.0-0.58-0.525-3.525,0,1,0,68,false,stim,false,0,529,2,0,2,56472,task3,1152884,false,false,1654,image-keyboard-response,9
true,25,0,1,1,false,z,false,false,0.0-2.0-0.58-0.526-3.526,0,1,0,81,false,stim,true,0,645,2,1,2,56472,task3,1155070,false,false,1657,image-keyboard-response,10
true,25,2,1,1,false,z,true,false,0.0-2.0-0.58-0.527-3.527,0,1,0,68,false,stim,false,0,489,2,1,2,56472,task3,1157084,false,false,1660,image-keyboard-response,11
true,25,1,1,2,false,d,true,false,0.0-2.0-0.58-0.528-3.528,0,1,0,90,false,stim,false,0,627,2,1,0,56472,task3,1159242,false,false,1663,image-keyboard-response,12
true,25,0,1,2,false,d,true,false,0.0-2.0-0.58-0.529-3.529,0,1,0,81,false,stim,false,2,555,2,1,1,56472,task3,1161329,false,false,1666,image-keyboard-response,13
true,25,2,1,2,true,d,false,true,0.0-2.0-0.58-0.530-3.530,0,1,0,68,false,stim,false,0,462,2,1,0,56472,task3,1163317,false,false,1669,image-keyboard-response,14
true,26,2,0,2,true,d,false,true,0.0-2.0-0.59-0.531-3.531,1,1,1,68,true,stim,false,2,775,2,1,1,56472,task3,1171749,false,false,1679,image-keyboard-response,1
true,26,1,0,1,true,z,false,true,0.0-2.0-0.59-0.532-3.532,1,1,1,90,false,stim,false,1,401,2,1,2,56472,task3,1173676,false,false,1682,image-keyboard-response,2
true,26,1,0,1,true,z,false,true,0.0-2.0-0.59-0.533-3.533,1,1,1,90,false,stim,false,1,419,2,1,2,56472,task3,1175635,false,false,1685,image-keyboard-response,3
true,26,2,0,2,true,d,false,true,0.0-2.0-0.59-0.534-3.534,1,1,1,68,false,stim,false,2,518,2,1,0,56472,task3,1177683,false,false,1688,image-keyboard-response,4
true,26,1,0,1,true,z,false,true,0.0-2.0-0.59-0.535-3.535,1,1,1,90,false,stim,false,1,727,2,1,2,56472,task3,1179951,false,false,1691,image-keyboard-response,5
true,26,2,0,2,true,d,false,true,0.0-2.0-0.59-0.536-3.536,1,1,1,68,false,stim,false,2,812,2,1,1,56472,task3,1182298,false,false,1694,image-keyboard-response,6
true,26,1,0,2,false,d,true,false,0.0-2.0-0.59-0.537-3.537,1,1,1,90,false,stim,false,2,582,2,1,0,56472,task3,1184396,false,false,1697,image-keyboard-response,7
true,26,2,0,2,true,d,false,true,0.0-2.0-0.59-0.538-3.538,1,1,1,68,false,stim,false,2,609,2,1,0,56472,task3,1186544,false,false,1700,image-keyboard-response,8
true,26,2,0,2,true,d,false,false,0.0-2.0-0.59-0.539-3.539,1,1,1,68,false,stim,false,2,467,2,1,1,56472,task3,1188561,false,true,1703,image-keyboard-response,9
true,26,2,0,1,false,z,true,true,0.0-2.0-0.60-0.540-3.540,1,1,1,68,false,stim,false,1,570,2,0,2,56472,task3,1190664,false,true,1706,image-keyboard-response,10
true,26,1,0,2,false,d,true,false,0.0-2.0-0.60-0.541-3.541,1,1,1,90,false,stim,false,2,558,2,1,1,56472,task3,1192763,false,false,1709,image-keyboard-response,11
true,26,2,0,2,true,d,false,true,0.0-2.0-0.60-0.542-3.542,1,1,1,68,false,stim,false,2,420,2,1,1,56472,task3,1194726,false,false,1712,image-keyboard-response,12
true,27,1,2,2,false,d,true,false,0.0-2.0-0.60-0.543-3.543,1,1,0,90,true,stim,false,2,983,2,1,1,56472,task3,1197248,false,false,1715,image-keyboard-response,1
true,27,2,2,2,true,d,false,true,0.0-2.0-0.60-0.544-3.544,1,1,0,68,false,stim,false,2,145,2,1,0,56472,task3,1198921,false,false,1718,image-keyboard-response,2
true,27,1,2,2,false,d,true,false,0.0-2.0-0.60-0.545-3.545,1,1,0,90,false,stim,false,2,753,2,1,0,56472,task3,1201208,false,false,1721,image-keyboard-response,3
true,27,1,2,0,false,q,false,false,0.0-2.0-0.60-0.546-3.546,1,1,0,90,false,stim,true,1,716,2,0,2,56472,task3,1203441,false,false,1724,image-keyboard-response,4
true,27,2,2,0,false,q,true,false,0.0-2.0-0.60-0.547-3.547,1,1,0,68,false,stim,false,1,1282,2,0,2,56472,task3,1206248,false,false,1727,image-keyboard-response,5
true,27,1,2,2,false,d,true,false,0.0-2.0-0.60-0.548-3.548,1,1,0,90,false,stim,false,2,482,2,1,0,56472,task3,1208266,false,false,1730,image-keyboard-response,6
true,27,2,2,2,true,d,false,true,0.0-2.0-0.61-0.549-3.549,1,1,0,68,false,stim,false,2,720,2,1,1,56472,task3,1210515,false,false,1733,image-keyboard-response,7
true,27,1,2,2,false,d,true,false,0.0-2.0-0.61-0.550-3.550,1,1,0,90,false,stim,false,2,418,2,1,0,56472,task3,1212472,false,false,1736,image-keyboard-response,8
true,27,2,2,2,true,d,false,true,0.0-2.0-0.61-0.551-3.551,1,1,0,68,false,stim,false,2,1189,2,1,0,56472,task3,1215195,false,false,1739,image-keyboard-response,9
true,27,1,2,0,false,q,false,false,0.0-2.0-0.61-0.552-3.552,1,1,0,90,false,stim,true,1,202,2,1,2,56472,task3,1216927,false,false,1742,image-keyboard-response,10
true,27,2,2,0,false,q,true,true,0.0-2.0-0.61-0.553-3.553,1,1,0,68,false,stim,false,1,170,2,1,2,56472,task3,1218635,false,true,1745,image-keyboard-response,11
true,27,1,2,2,false,d,true,false,0.0-2.0-0.61-0.554-3.554,1,1,0,90,false,stim,false,2,111,2,1,0,56472,task3,1220268,false,false,1748,image-keyboard-response,12
true,27,2,2,2,true,d,false,true,0.0-2.0-0.61-0.555-3.555,1,1,0,68,false,stim,false,2,276,2,0,1,56472,task3,1222072,false,false,1751,image-keyboard-response,13
true,28,2,2,0,false,q,true,false,0.0-2.0-0.61-0.556-3.556,1,0,1,68,true,stim,false,0,455,2,1,2,56472,task3,1224049,false,false,1754,image-keyboard-response,1
true,28,1,2,1,true,z,false,true,0.0-2.0-0.61-0.557-3.557,1,0,1,90,false,stim,false,2,174,2,0,1,56472,task3,1225739,false,false,1757,image-keyboard-response,2
true,28,1,2,1,true,z,false,true,0.0-2.0-0.62-0.558-3.558,1,0,1,90,false,stim,false,2,226,2,0,1,56472,task3,1227491,false,false,1760,image-keyboard-response,3
true,28,2,2,0,false,q,true,false,0.0-2.0-0.62-0.559-3.559,1,0,1,68,false,stim,false,0,584,2,1,2,56472,task3,1229609,false,false,1763,image-keyboard-response,4
true,28,1,2,0,false,q,true,false,0.0-2.0-0.62-0.560-3.560,1,0,1,90,false,stim,false,0,792,2,1,2,56472,task3,1231926,false,false,1766,image-keyboard-response,5
true,28,0,2,2,false,d,true,false,0.0-2.0-0.62-0.561-3.561,1,0,1,81,false,stim,false,2,659,2,1,0,56472,task3,1234114,false,false,1769,image-keyboard-response,6
true,28,1,2,2,false,d,true,false,0.0-2.0-0.62-0.562-3.562,1,0,1,90,false,stim,false,2,612,2,1,0,56472,task3,1236267,false,false,1772,image-keyboard-response,7
true,28,0,2,0,true,q,false,true,0.0-2.0-0.62-0.563-3.563,1,0,1,81,false,stim,false,0,886,2,1,2,56472,task3,1238690,false,false,1775,image-keyboard-response,8
true,28,1,2,1,true,z,false,true,0.0-2.0-0.62-0.564-3.564,1,0,1,90,false,stim,false,2,856,2,0,1,56472,task3,1241082,false,false,1778,image-keyboard-response,9
true,28,0,2,2,false,d,true,false,0.0-2.0-0.62-0.565-3.565,1,0,1,81,false,stim,false,2,930,2,1,0,56472,task3,1243534,false,false,1781,image-keyboard-response,10
true,28,1,2,1,true,z,false,true,0.0-2.0-0.62-0.566-3.566,1,0,1,90,false,stim,false,2,565,2,0,1,56472,task3,1245639,false,false,1784,image-keyboard-response,11
true,28,0,2,0,true,q,false,true,0.0-2.0-0.63-0.567-3.567,1,0,1,81,false,stim,false,0,1031,2,1,2,56472,task3,1248205,false,false,1787,image-keyboard-response,12
true,28,1,2,1,true,z,false,true,0.0-2.0-0.63-0.568-3.568,1,0,1,90,false,stim,false,2,488,2,1,1,56472,task3,1250211,false,false,1790,image-keyboard-response,13
true,28,0,2,0,true,q,false,true,0.0-2.0-0.63-0.569-3.569,1,0,1,81,false,stim,false,0,440,2,1,2,56472,task3,1252185,false,false,1793,image-keyboard-response,14
true,28,1,2,1,true,z,false,true,0.0-2.0-0.63-0.570-3.570,1,0,1,90,false,stim,false,2,628,2,1,1,56472,task3,1254342,false,false,1796,image-keyboard-response,15
true,28,1,2,1,true,z,false,true,0.0-2.0-0.63-0.571-3.571,1,0,1,90,false,stim,false,2,849,2,1,1,56472,task3,1256735,false,false,1799,image-keyboard-response,16
true,29,2,2,0,false,q,false,false,0.0-2.0-0.63-0.572-3.572,0,1,1,68,true,stim,true,2,1289,2,0,0,56472,task3,1259562,false,false,1802,image-keyboard-response,1
true,29,0,2,0,true,q,false,true,0.0-2.0-0.63-0.573-3.573,0,1,1,81,false,stim,false,0,710,2,1,2,56472,task3,1261815,false,false,1805,image-keyboard-response,2
true,29,1,2,0,false,q,true,false,0.0-2.0-0.63-0.574-3.574,0,1,1,90,false,stim,false,2,1077,2,0,0,56472,task3,1264422,false,false,1808,image-keyboard-response,3
true,29,0,2,0,true,q,false,true,0.0-2.0-0.63-0.575-3.575,0,1,1,81,false,stim,false,2,560,2,0,0,56472,task3,1266505,false,false,1811,image-keyboard-response,4
true,29,1,2,1,true,z,false,true,0.0-2.0-0.64-0.576-3.576,0,1,1,90,false,stim,false,1,773,2,1,1,56472,task3,1268808,false,false,1814,image-keyboard-response,5
true,29,0,2,0,true,q,false,true,0.0-2.0-0.64-0.577-3.577,0,1,1,81,false,stim,false,0,615,2,1,2,56472,task3,1270950,false,false,1817,image-keyboard-response,6
true,29,0,2,0,true,q,false,true,0.0-2.0-0.64-0.578-3.578,0,1,1,81,false,stim,false,0,513,2,1,2,56472,task3,1272988,false,false,1820,image-keyboard-response,7
true,29,0,2,0,true,q,false,true,0.0-2.0-0.64-0.579-3.579,0,1,1,81,false,stim,false,2,826,2,0,0,56472,task3,1275350,false,false,1823,image-keyboard-response,8
true,29,0,2,0,true,q,false,true,0.0-2.0-0.64-0.580-3.580,0,1,1,81,false,stim,false,0,569,2,1,2,56472,task3,1277453,false,false,1826,image-keyboard-response,9
true,29,1,2,1,true,z,false,true,0.0-2.0-0.64-0.581-3.581,0,1,1,90,false,stim,false,1,533,2,1,1,56472,task3,1279516,false,false,1829,image-keyboard-response,10
true,29,0,2,0,true,q,false,true,0.0-2.0-0.64-0.582-3.582,0,1,1,81,false,stim,false,2,1198,2,0,0,56472,task3,1282253,false,false,1832,image-keyboard-response,11
true,29,0,2,0,true,q,false,true,0.0-2.0-0.64-0.583-3.583,0,1,1,81,false,stim,false,2,441,2,0,0,56472,task3,1284236,false,false,1835,image-keyboard-response,12
true,29,1,2,1,true,z,false,true,0.0-2.0-0.64-0.584-3.584,0,1,1,90,false,stim,false,1,500,2,1,1,56472,task3,1286264,false,false,1838,image-keyboard-response,13
true,29,0,2,0,true,q,false,true,0.0-2.0-0.65-0.585-3.585,0,1,1,81,false,stim,false,2,381,2,0,0,56472,task3,1288167,false,false,1841,image-keyboard-response,14
true,29,1,2,1,true,z,false,true,0.0-2.0-0.65-0.586-3.586,0,1,1,90,false,stim,false,1,335,2,1,1,56472,task3,1290040,false,false,1844,image-keyboard-response,15
true,29,0,2,0,true,q,false,true,0.0-2.0-0.65-0.587-3.587,0,1,1,81,false,stim,false,2,506,2,0,0,56472,task3,1292083,false,false,1847,image-keyboard-response,16
true,29,0,2,0,true,q,false,true,0.0-2.0-0.65-0.588-3.588,0,1,1,81,false,stim,false,0,815,2,1,2,56472,task3,1294429,false,false,1850,image-keyboard-response,17
true,29,1,2,1,true,z,false,true,0.0-2.0-0.65-0.589-3.589,0,1,1,90,false,stim,false,1,452,2,1,1,56472,task3,1296397,false,false,1853,image-keyboard-response,18
true,29,0,2,0,true,q,false,true,0.0-2.0-0.65-0.590-3.590,0,1,1,81,false,stim,false,2,445,2,0,0,56472,task3,1298371,false,false,1856,image-keyboard-response,19
true,29,0,2,0,true,q,false,true,0.0-2.0-0.65-0.591-3.591,0,1,1,81,false,stim,false,0,758,2,1,2,56472,task3,1300664,false,false,1859,image-keyboard-response,20
true,29,1,2,1,true,z,false,true,0.0-2.0-0.65-0.592-3.592,0,1,1,90,false,stim,false,1,601,2,1,1,56472,task3,1302795,false,false,1862,image-keyboard-response,21
true,29,0,2,0,true,q,false,true,0.0-2.0-0.65-0.593-3.593,0,1,1,81,false,stim,false,0,504,2,1,2,56472,task3,1304838,false,false,1865,image-keyboard-response,22
true,29,1,2,1,true,z,false,true,0.0-2.0-0.66-0.594-3.594,0,1,1,90,false,stim,false,1,936,2,0,1,56472,task3,1307311,false,false,1868,image-keyboard-response,23
true,29,0,2,0,true,q,false,true,0.0-2.0-0.66-0.595-3.595,0,1,1,81,false,stim,false,0,349,2,1,2,56472,task3,1309183,false,false,1871,image-keyboard-response,24
true,29,0,2,0,true,q,false,false,0.0-2.0-0.66-0.596-3.596,0,1,1,81,false,stim,false,2,666,2,0,0,56472,task3,1311391,false,true,1874,image-keyboard-response,25
true,29,1,2,1,true,z,false,true,0.0-2.0-0.66-0.597-3.597,0,1,1,90,false,stim,false,1,469,2,0,1,56472,task3,1313374,false,false,1877,image-keyboard-response,26
true,29,0,2,0,true,q,false,true,0.0-2.0-0.66-0.598-3.598,0,1,1,81,false,stim,false,2,412,2,0,0,56472,task3,1315316,false,false,1880,image-keyboard-response,27
true,30,1,1,0,false,q,true,false,0.0-2.0-0.66-0.599-3.599,0,0,1,90,true,stim,false,0,440,2,1,2,56472,task3,1317295,false,false,1883,image-keyboard-response,1
true,30,0,1,0,true,q,false,true,0.0-2.0-0.66-0.600-3.600,0,0,1,81,false,stim,false,0,639,2,1,2,56472,task3,1319473,false,false,1886,image-keyboard-response,2
true,30,0,1,2,false,d,false,false,0.0-2.0-0.66-0.601-3.601,0,0,1,81,false,stim,true,0,576,2,0,0,56472,task3,1321590,false,false,1889,image-keyboard-response,3
true,30,1,1,0,false,q,false,false,0.0-2.0-0.66-0.602-3.602,0,0,1,90,false,stim,true,1,318,2,0,1,56472,task3,1323443,false,false,1892,image-keyboard-response,4
true,30,1,1,0,false,q,false,false,0.0-2.0-0.67-0.603-3.603,0,0,1,90,false,stim,true,1,716,2,0,1,56472,task3,1325701,false,false,1895,image-keyboard-response,5
true,30,0,1,0,true,q,false,true,0.0-2.0-0.67-0.604-3.604,0,0,1,81,false,stim,false,0,624,2,1,2,56472,task3,1327848,false,false,1898,image-keyboard-response,6
true,30,0,1,2,false,d,false,true,0.0-2.0-0.67-0.605-3.605,0,0,1,81,false,stim,true,0,512,2,0,0,56472,task3,1329895,false,true,1901,image-keyboard-response,7
true,30,0,1,2,false,d,false,false,0.0-2.0-0.67-0.606-3.606,0,0,1,81,false,stim,true,0,483,2,0,0,56472,task3,1331919,false,false,1904,image-keyboard-response,8
true,30,0,1,0,true,q,false,true,0.0-2.0-0.67-0.607-3.607,0,0,1,81,false,stim,false,0,391,2,1,2,56472,task3,1333846,false,false,1907,image-keyboard-response,9
true,30,0,1,0,true,q,false,true,0.0-2.0-0.67-0.608-3.608,0,0,1,81,false,stim,false,0,430,2,1,2,56472,task3,1335815,false,false,1910,image-keyboard-response,10
true,30,0,1,2,false,d,false,false,0.0-2.0-0.67-0.609-3.609,0,0,1,81,false,stim,true,0,383,2,0,0,56472,task3,1337727,false,false,1913,image-keyboard-response,11
true,30,2,1,0,false,q,true,false,0.0-2.0-0.67-0.610-3.610,0,0,1,68,false,stim,false,1,557,2,0,1,56472,task3,1339821,false,false,1916,image-keyboard-response,12
true,30,1,1,0,false,q,false,false,0.0-2.0-0.67-0.611-3.611,0,0,1,90,false,stim,true,1,309,2,0,1,56472,task3,1341644,false,false,1919,image-keyboard-response,13
true,30,0,1,0,true,q,false,true,0.0-2.0-0.68-0.612-3.612,0,0,1,81,false,stim,false,1,252,2,0,1,56472,task3,1343426,false,false,1922,image-keyboard-response,14
true,30,0,1,0,true,q,false,true,0.0-2.0-0.68-0.613-3.613,0,0,1,81,false,stim,false,0,455,2,1,2,56472,task3,1345410,false,false,1925,image-keyboard-response,15
true,30,0,1,0,true,q,false,true,0.0-2.0-0.68-0.614-3.614,0,0,1,81,false,stim,false,0,371,2,1,2,56472,task3,1347317,false,false,1928,image-keyboard-response,16
true,30,0,1,2,false,d,false,false,0.0-2.0-0.68-0.615-3.615,0,0,1,81,false,stim,true,0,706,2,0,0,56472,task3,1349551,false,false,1931,image-keyboard-response,17
true,30,1,1,0,false,q,false,false,0.0-2.0-0.68-0.616-3.616,0,0,1,90,false,stim,true,1,317,2,0,1,56472,task3,1351402,false,false,1934,image-keyboard-response,18
true,30,2,1,2,true,d,false,true,0.0-2.0-0.68-0.617-3.617,0,0,1,68,false,stim,false,0,316,2,0,0,56472,task3,1353251,false,false,1937,image-keyboard-response,19
true,30,1,1,0,false,q,false,false,0.0-2.0-0.68-0.618-3.618,0,0,1,90,false,stim,true,1,1314,2,0,1,56472,task3,1356087,false,false,1940,image-keyboard-response,20
true,30,2,1,2,true,d,false,true,0.0-2.0-0.68-0.619-3.619,0,0,1,68,false,stim,false,0,356,2,0,0,56472,task3,1357971,false,false,1943,image-keyboard-response,21
true,30,0,1,0,true,q,false,true,0.0-2.0-0.68-0.620-3.620,0,0,1,81,false,stim,false,0,823,2,1,2,56472,task3,1360308,false,false,1946,image-keyboard-response,22
true,30,0,1,0,true,q,false,true,0.0-2.0-0.69-0.621-3.621,0,0,1,81,false,stim,false,0,620,2,1,2,56472,task3,1362465,false,false,1949,image-keyboard-response,23
true,30,0,1,0,true,q,false,true,0.0-2.0-0.69-0.622-3.622,0,0,1,81,false,stim,false,1,1599,2,1,1,56472,task3,1365604,false,false,1952,image-keyboard-response,24
true,30,0,1,0,true,q,false,true,0.0-2.0-0.69-0.623-3.623,0,0,1,81,false,stim,false,0,615,2,1,2,56472,task3,1367750,false,false,1955,image-keyboard-response,25
true,30,0,1,0,true,q,false,true,0.0-2.0-0.69-0.624-3.624,0,0,1,81,false,stim,false,1,439,2,1,1,56472,task3,1369712,false,false,1958,image-keyboard-response,26
true,30,2,1,2,true,d,false,true,0.0-2.0-0.69-0.625-3.625,0,0,1,68,false,stim,false,0,370,2,0,0,56472,task3,1371615,false,false,1961,image-keyboard-response,27
true,31,0,2,0,true,q,false,true,0.0-2.0-0.69-0.626-3.626,0,1,1,81,true,stim,false,0,382,2,1,2,56472,task3,1373525,false,false,1964,image-keyboard-response,1
true,31,0,2,1,false,z,true,false,0.0-2.0-0.69-0.627-3.627,0,1,1,81,false,stim,false,2,402,2,0,0,56472,task3,1375467,false,false,1967,image-keyboard-response,2
true,31,0,2,1,false,z,true,false,0.0-2.0-0.69-0.628-3.628,0,1,1,81,false,stim,false,2,541,2,0,0,56472,task3,1377545,false,false,1970,image-keyboard-response,3
true,31,2,2,0,false,q,true,false,0.0-2.0-0.69-0.629-3.629,0,1,1,68,false,stim,false,0,1151,2,1,1,56472,task3,1380226,false,false,1973,image-keyboard-response,4
true,31,0,2,1,false,z,true,false,0.0-2.0-0.70-0.630-3.630,0,1,1,81,false,stim,false,2,561,2,0,0,56472,task3,1382305,false,false,1976,image-keyboard-response,5
true,31,1,2,0,false,q,true,false,0.0-2.0-0.70-0.631-3.631,0,1,1,90,false,stim,false,0,350,2,1,1,56472,task3,1384177,false,false,1979,image-keyboard-response,6
true,31,2,2,1,false,z,false,false,0.0-2.0-0.70-0.632-3.632,0,1,1,68,false,stim,true,2,407,2,0,0,56472,task3,1386112,false,false,1982,image-keyboard-response,7
true,31,0,2,0,true,q,false,false,0.0-2.0-0.70-0.633-3.633,0,1,1,81,false,stim,false,0,864,2,0,1,56472,task3,1388508,false,true,1985,image-keyboard-response,8
true,31,2,2,0,false,q,true,false,0.0-2.0-0.70-0.634-3.634,0,1,1,68,false,stim,false,0,597,2,0,2,56472,task3,1390631,false,false,1988,image-keyboard-response,9
