answered,blockNum,choice,condition,corResp,correct,correct_response,explo,fb,internal_node_id,isStable_1,isStable_2,isStable_3,key_press,newBlock,part,persev,persevResp,rt,sessNum,stableAS,stimulus,subject,task,time_elapsed,training,trap,trial_index,trial_type,trialsInBlock
true,1,0,0,2,false,d,true,false,0.0-2.0-0.0-0.0-3.0,0,0,0,81,true,stim,false,-1,976,1,0,2,56472,task2,107630,false,false,79,image-keyboard-response,1
true,1,0,0,1,false,z,true,false,0.0-2.0-0.0-0.1-3.1,0,0,0,81,false,stim,false,-1,409,1,0,0,56472,task2,109574,false,false,82,image-keyboard-response,2
true,1,0,0,0,true,q,false,true,0.0-2.0-0.0-0.2-3.2,0,0,0,81,false,stim,false,-1,533,1,0,1,56472,task2,111637,false,false,85,image-keyboard-response,3
true,1,1,0,2,false,d,true,false,0.0-2.0-0.0-0.3-3.3,0,0,0,90,false,stim,false,-1,427,1,0,2,56472,task2,113591,false,false,88,image-keyboard-response,4
true,1,1,0,2,false,d,true,false,0.0-2.0-0.0-0.4-3.4,0,0,0,90,false,stim,false,-1,535,1,0,2,56472,task2,115651,false,false,91,image-keyboard-response,5
true,1,1,0,1,true,z,false,true,0.0-2.0-0.0-0.5-3.5,0,0,0,90,false,stim,false,-1,895,1,0,0,56472,task2,118068,false,false,94,image-keyboard-response,6
true,1,0,0,0,true,q,false,false,0.0-2.0-0.0-0.6-3.6,0,0,0,81,false,stim,false,-1,935,1,0,1,56472,task2,120520,false,true,97,image-keyboard-response,7
true,1,0,0,0,true,q,false,true,0.0-2.0-0.0-0.7-3.7,0,0,0,81,false,stim,false,-1,970,1,0,1,56472,task2,123014,false,false,100,image-keyboard-response,8
true,1,1,0,1,true,z,false,true,0.0-2.0-0.0-0.8-3.8,0,0,0,90,false,stim,false,-1,408,1,0,0,56472,task2,124939,false,false,103,image-keyboard-response,9
true,1,0,0,0,true,q,false,true,0.0-2.0-0.1-0.9-3.9,0,0,0,81,false,stim,false,-1,454,1,0,1,56472,task2,126926,false,false,106,image-keyboard-response,10
true,1,1,0,1,true,z,false,true,0.0-2.0-0.1-0.10-3.10,0,0,0,90,false,stim,false,-1,337,1,0,0,56472,task2,128791,false,false,109,image-keyboard-response,11
true,1,1,0,2,false,d,true,false,0.0-2.0-0.1-0.11-3.11,0,0,0,90,false,stim,false,-1,1301,1,0,2,56472,task2,131614,false,false,112,image-keyboard-response,12
true,1,2,0,2,true,d,false,false,0.0-2.0-0.1-0.12-3.12,0,0,0,68,false,stim,false,-1,679,1,0,2,56472,task2,133832,false,true,115,image-keyboard-response,13
true,1,0,0,1,false,z,true,false,0.0-2.0-0.1-0.13-3.13,0,0,0,81,false,stim,false,-1,1065,1,0,0,56472,task2,136420,false,false,118,image-keyboard-response,14
true,1,0,0,0,true,q,false,false,0.0-2.0-0.1-0.14-3.14,0,0,0,81,false,stim,false,-1,989,1,0,1,56472,task2,138923,false,true,121,image-keyboard-response,15
true,1,0,0,1,false,z,true,false,0.0-2.0-0.1-0.15-3.15,0,0,0,81,false,stim,false,-1,811,1,0,0,56472,task2,141263,false,false,124,image-keyboard-response,16
true,1,1,0,2,false,d,true,false,0.0-2.0-0.1-0.16-3.16,0,0,0,90,false,stim,false,-1,1236,1,0,2,56472,task2,144030,false,false,127,image-keyboard-response,17
true,1,1,0,0,false,q,true,false,0.0-2.0-0.1-0.17-3.17,0,0,0,90,false,stim,false,-1,445,1,0,1,56472,task2,146000,false,false,130,image-keyboard-response,18
true,1,1,0,1,true,z,false,true,0.0-2.0-0.2-0.18-3.18,0,0,0,90,false,stim,false,-1,504,1,0,0,56472,task2,148037,false,false,133,image-keyboard-response,19
true,1,0,0,2,false,d,true,false,0.0-2.0-0.2-0.19-3.19,0,0,0,81,false,stim,false,-1,1586,1,0,2,56472,task2,151160,false,false,136,image-keyboard-response,20
true,1,1,0,1,true,z,false,true,0.0-2.0-0.2-0.20-3.20,0,0,0,90,false,stim,false,-1,430,1,0,0,56472,task2,153114,false,false,139,image-keyboard-response,21
true,1,1,0,0,false,q,true,false,0.0-2.0-0.2-0.21-3.21,0,0,0,90,false,stim,false,-1,1038,1,1,1,56472,task2,155682,false,false,142,image-keyboard-response,22
true,1,1,0,2,false,d,true,false,0.0-2.0-0.2-0.22-3.22,0,0,0,90,false,stim,false,-1,1201,1,0,2,56472,task2,158414,false,false,145,image-keyboard-response,23
true,1,2,0,1,false,z,true,false,0.0-2.0-0.2-0.23-3.23,0,0,0,68,false,stim,false,-1,1089,1,0,0,56472,task2,161044,false,false,148,image-keyboard-response,24
true,1,1,0,0,false,q,true,true,0.0-2.0-0.2-0.24-3.24,0,0,0,90,false,stim,false,-1,756,1,1,1,56472,task2,163332,false,true,151,image-keyboard-response,25
true,1,1,0,0,false,q,true,false,0.0-2.0-0.2-0.25-3.25,0,0,0,90,false,stim,false,-1,1335,1,1,1,56472,task2,166199,false,false,154,image-keyboard-response,26
true,2,1,2,1,true,z,false,true,0.0-2.0-0.2-0.26-3.26,0,1,0,90,true,stim,false,2,1344,1,0,2,56472,task2,169078,false,false,157,image-keyboard-response,1
true,2,1,2,2,false,d,false,false,0.0-2.0-0.3-0.27-3.27,0,1,0,90,false,stim,true,1,707,1,0,0,56472,task2,171322,false,false,160,image-keyboard-response,2
true,2,0,2,2,false,d,true,false,0.0-2.0-0.3-0.28-3.28,0,1,0,81,false,stim,false,1,891,1,0,0,56472,task2,173745,false,false,163,image-keyboard-response,3
true,2,1,2,0,false,q,true,true,0.0-2.0-0.3-0.29-3.29,0,1,0,90,false,stim,false,0,579,1,1,1,56472,task2,175843,false,true,166,image-keyboard-response,4
true,2,1,2,0,false,q,true,true,0.0-2.0-0.3-0.30-3.30,0,1,0,90,false,stim,false,0,408,1,1,1,56472,task2,177793,false,true,169,image-keyboard-response,5
true,2,0,2,1,false,z,true,false,0.0-2.0-0.3-0.31-3.31,0,1,0,81,false,stim,false,2,872,1,0,2,56472,task2,180185,false,false,172,image-keyboard-response,6
true,2,2,2,0,false,q,true,false,0.0-2.0-0.3-0.32-3.32,0,1,0,68,false,stim,false,0,764,1,1,1,56472,task2,182478,false,false,175,image-keyboard-response,7
true,2,1,2,2,false,d,false,true,0.0-2.0-0.3-0.33-3.33,0,1,0,90,false,stim,true,1,937,1,0,0,56472,task2,184952,false,true,178,image-keyboard-response,8
true,2,0,2,1,false,z,true,false,0.0-2.0-0.3-0.34-3.34,0,1,0,81,false,stim,false,2,671,1,0,2,56472,task2,187156,false,false,181,image-keyboard-response,9
true,2,2,2,1,false,z,false,false,0.0-2.0-0.3-0.35-3.35,0,1,0,68,false,stim,true,2,624,1,0,2,56472,task2,189309,false,false,184,image-keyboard-response,10
true,2,1,2,0,false,q,true,false,0.0-2.0-0.4-0.36-3.36,0,1,0,90,false,stim,false,0,1196,1,1,1,56472,task2,192041,false,false,187,image-keyboard-response,11
true,2,0,2,0,true,q,false,true,0.0-2.0-0.4-0.37-3.37,0,1,0,81,false,stim,false,0,573,1,1,1,56472,task2,194136,false,false,190,image-keyboard-response,12
true,2,2,2,2,true,d,false,true,0.0-2.0-0.4-0.38-3.38,0,1,0,68,false,stim,false,1,978,1,0,0,56472,task2,196634,false,false,193,image-keyboard-response,13
true,2,2,2,2,true,d,false,true,0.0-2.0-0.4-0.39-3.39,0,1,0,68,false,stim,false,1,573,1,0,0,56472,task2,198737,false,false,196,image-keyboard-response,14
true,2,0,2,1,false,z,true,false,0.0-2.0-0.4-0.40-3.40,0,1,0,81,false,stim,false,2,1488,1,0,2,56472,task2,201750,false,false,199,image-keyboard-response,15
true,2,1,2,1,true,z,false,true,0.0-2.0-0.4-0.41-3.41,0,1,0,90,false,stim,false,2,736,1,0,2,56472,task2,204013,false,false,202,image-keyboard-response,16
true,2,1,2,1,true,z,false,true,0.0-2.0-0.4-0.42-3.42,0,1,0,90,false,stim,false,2,408,1,0,2,56472,task2,205952,false,false,205,image-keyboard-response,17
true,2,0,2,2,false,d,true,false,0.0-2.0-0.4-0.43-3.43,0,1,0,81,false,stim,false,1,1756,1,0,0,56472,task2,209231,false,false,208,image-keyboard-response,18
true,2,0,2,0,true,q,false,true,0.0-2.0-0.4-0.44-3.44,0,1,0,81,false,stim,false,0,795,1,1,1,56472,task2,211548,false,false,211,image-keyboard-response,19
true,2,2,2,2,true,d,false,true,0.0-2.0-0.5-0.45-3.45,0,1,0,68,false,stim,false,1,402,1,0,0,56472,task2,213467,false,false,214,image-keyboard-response,20
true,2,1,2,1,true,z,false,true,0.0-2.0-0.5-0.46-3.46,0,1,0,90,false,stim,false,2,678,1,0,2,56472,task2,215681,false,false,217,image-keyboard-response,21
true,2,0,2,2,false,d,true,false,0.0-2.0-0.5-0.47-3.47,0,1,0,81,false,stim,false,1,808,1,0,0,56472,task2,218012,false,false,220,image-keyboard-response,22
true,2,0,2,0,true,q,false,true,0.0-2.0-0.5-0.48-3.48,0,1,0,81,false,stim,false,0,709,1,1,1,56472,task2,220263,false,false,223,image-keyboard-response,23
true,2,1,2,1,true,z,false,true,0.0-2.0-0.5-0.49-3.49,0,1,0,90,false,stim,false,2,861,1,0,2,56472,task2,222656,false,false,226,image-keyboard-response,24
true,2,2,2,2,true,d,false,true,0.0-2.0-0.5-0.50-3.50,0,1,0,68,false,stim,false,1,394,1,0,0,56472,task2,224589,false,false,229,image-keyboard-response,25
true,2,0,2,0,true,q,false,true,0.0-2.0-0.5-0.51-3.51,0,1,0,81,false,stim,false,0,667,1,1,1,56472,task2,226791,false,false,232,image-keyboard-response,26
true,2,0,2,0,true,q,false,true,0.0-2.0-0.5-0.52-3.52,0,1,0,81,false,stim,false,0,591,1,1,1,56472,task2,228916,false,false,235,image-keyboard-response,27
true,2,1,2,1,true,z,false,true,0.0-2.0-0.5-0.53-3.53,0,1,0,90,false,stim,false,2,1105,1,0,2,56472,task2,231549,false,false,238,image-keyboard-response,28
true,2,1,2,1,true,z,false,true,0.0-2.0-0.6-0.54-3.54,0,1,0,90,false,stim,false,2,965,1,0,2,56472,task2,234032,false,false,241,image-keyboard-response,29
true,2,2,2,2,true,d,false,true,0.0-2.0-0.6-0.55-3.55,0,1,0,68,false,stim,false,1,1051,1,1,0,56472,task2,236605,false,false,244,image-keyboard-response,30
true,2,0,2,0,true,q,false,false,0.0-2.0-0.6-0.56-3.56,0,1,0,81,false,stim,false,0,449,1,0,1,56472,task2,238573,false,true,247,image-keyboard-response,31
true,2,2,2,2,true,d,false,true,0.0-2.0-0.6-0.57-3.57,0,1,0,68,false,stim,false,1,952,1,1,0,56472,task2,241056,false,false,250,image-keyboard-response,32
true,2,1,2,0,false,q,true,false,0.0-2.0-0.6-0.58-3.58,0,1,0,90,false,stim,false,0,815,1,0,1,56472,task2,243400,false,false,253,image-keyboard-response,33
true,2,1,2,1,true,z,false,true,0.0-2.0-0.6-0.59-3.59,0,1,0,90,false,stim,false,2,974,1,0,2,56472,task2,245908,false,false,256,image-keyboard-response,34
true,3,1,2,0,false,q,false,false,0.0-2.0-0.6-0.60-3.60,1,0,0,90,true,stim,true,1,942,1,0,2,56472,task2,248376,false,false,259,image-keyboard-response,1
true,3,0,2,2,false,d,true,false,0.0-2.0-0.6-0.61-3.61,1,0,0,81,false,stim,false,2,835,1,1,0,56472,task2,250739,false,false,262,image-keyboard-response,2
true,3,0,2,2,false,d,false,false,0.0-2.0-0.6-0.62-3.62,1,0,0,81,false,stim,true,0,909,1,0,1,56472,task2,253174,false,false,265,image-keyboard-response,3
true,3,2,2,2,true,d,false,true,0.0-2.0-0.7-0.63-3.63,1,0,0,68,false,stim,false,0,811,1,0,1,56472,task2,255525,false,false,268,image-keyboard-response,4
true,3,2,2,2,true,d,false,true,0.0-2.0-0.7-0.64-3.64,1,0,0,68,false,stim,false,0,611,1,0,1,56472,task2,257664,false,false,271,image-keyboard-response,5
true,3,0,2,0,true,q,false,true,0.0-2.0-0.7-0.65-3.65,1,0,0,81,false,stim,false,1,1173,1,0,2,56472,task2,260357,false,false,274,image-keyboard-response,6
true,3,1,2,2,false,d,true,false,0.0-2.0-0.7-0.66-3.66,1,0,0,90,false,stim,false,2,965,1,1,0,56472,task2,262851,false,false,277,image-keyboard-response,7
true,3,0,2,2,false,d,true,false,0.0-2.0-0.7-0.67-3.67,1,0,0,81,false,stim,false,2,831,1,1,0,56472,task2,265204,false,false,280,image-keyboard-response,8
true,3,2,2,0,false,q,true,false,0.0-2.0-0.7-0.68-3.68,1,0,0,68,false,stim,false,1,255,1,0,2,56472,task2,266967,false,false,283,image-keyboard-response,9
true,3,1,2,2,false,d,true,false,0.0-2.0-0.7-0.69-3.69,1,0,0,90,false,stim,false,2,482,1,1,0,56472,task2,268977,false,false,286,image-keyboard-response,10
true,3,0,2,2,false,d,false,false,0.0-2.0-0.7-0.70-3.70,1,0,0,81,false,stim,true,0,550,1,0,1,56472,task2,271054,false,false,289,image-keyboard-response,11
true,3,2,2,0,false,q,true,false,0.0-2.0-0.7-0.71-3.71,1,0,0,68,false,stim,false,1,959,1,0,2,56472,task2,273543,false,false,292,image-keyboard-response,12
true,3,1,2,2,false,d,true,true,0.0-2.0-0.8-0.72-3.72,1,0,0,90,false,stim,false,2,487,1,1,0,56472,task2,275561,false,true,295,image-keyboard-response,13
true,3,0,2,2,false,d,false,false,0.0-2.0-0.8-0.73-3.73,1,0,0,81,false,stim,true,0,655,1,0,1,56472,task2,277735,false,false,298,image-keyboard-response,14
true,3,2,2,2,true,d,false,true,0.0-2.0-0.8-0.74-3.74,1,0,0,68,false,stim,false,0,740,1,0,1,56472,task2,280008,false,false,301,image-keyboard-response,15
true,3,1,2,2,false,d,true,false,0.0-2.0-0.8-0.75-3.75,1,0,0,90,false,stim,false,2,728,1,1,0,56472,task2,282271,false,false,304,image-keyboard-response,16
true,3,2,2,0,false,q,true,false,0.0-2.0-0.8-0.76-3.76,1,0,0,68,false,stim,false,1,710,1,0,2,56472,task2,284515,false,false,307,image-keyboard-response,17
true,3,0,2,0,true,q,false,true,0.0-2.0-0.8-0.77-3.77,1,0,0,81,false,stim,false,1,425,1,0,2,56472,task2,286458,false,false,310,image-keyboard-response,18
true,3,1,2,2,false,d,true,false,0.0-2.0-0.8-0.78-3.78,1,0,0,90,false,stim,false,2,908,1,1,0,56472,task2,288901,false,false,313,image-keyboard-response,19
true,3,0,2,0,true,q,false,true,0.0-2.0-0.8-0.79-3.79,1,0,0,81,false,stim,false,1,521,1,0,2,56472,task2,290955,false,false,316,image-keyboard-response,20
true,3,0,2,2,false,d,false,false,0.0-2.0-0.8-0.80-3.80,1,0,0,81,false,stim,true,0,1339,1,0,1,56472,task2,293822,false,false,319,image-keyboard-response,21
true,3,1,2,2,false,d,true,false,0.0-2.0-0.9-0.81-3.81,1,0,0,90,false,stim,false,0,692,1,0,1,56472,task2,296056,false,false,322,image-keyboard-response,22
true,3,1,2,0,false,q,false,false,0.0-2.0-0.9-0.82-3.82,1,0,0,90,false,stim,true,1,1210,1,0,2,56472,task2,298795,false,false,325,image-keyboard-response,23
true,3,2,2,2,true,d,false,true,0.0-2.0-0.9-0.83-3.83,1,0,0,68,false,stim,false,0,1293,1,0,1,56472,task2,301627,false,false,328,image-keyboard-response,24
true,3,2,2,2,true,d,false,true,0.0-2.0-0.9-0.84-3.84,1,0,0,68,false,stim,false,0,466,1,0,1,56472,task2,303611,false,false,331,image-keyboard-response,25
true,3,0,2,0,true,q,false,true,0.0-2.0-0.9-0.85-3.85,1,0,0,81,false,stim,false,1,820,1,0,2,56472,task2,305964,false,false,334,image-keyboard-response,26
true,3,2,2,2,true,d,false,true,0.0-2.0-0.9-0.86-3.86,1,0,0,68,false,stim,false,2,1112,1,1,0,56472,task2,308617,false,false,337,image-keyboard-response,27
true,3,0,2,0,true,q,false,true,0.0-2.0-0.9-0.87-3.87,1,0,0,81,false,stim,false,1,708,1,0,2,56472,task2,310840,false,false,340,image-keyboard-response,28
true,3,2,2,2,true,d,false,false,0.0-2.0-0.9-0.88-3.88,1,0,0,68,false,stim,false,2,355,1,1,0,56472,task2,312729,false,true,343,image-keyboard-response,29
true,3,2,2,2,true,d,false,true,0.0-2.0-0.9-0.89-3.89,1,0,0,68,false,stim,false,2,544,1,1,0,56472,task2,314798,false,false,346,image-keyboard-response,30
true,3,2,2,2,true,d,false,true,0.0-2.0-0.10-0.90-3.90,1,0,0,68,false,stim,false,0,342,1,0,1,56472,task2,316666,false,false,349,image-keyboard-response,31
true,3,0,2,2,false,d,true,false,0.0-2.0-0.10-0.91-3.91,1,0,0,81,false,stim,false,2,1724,1,0,0,56472,task2,319929,false,false,352,image-keyboard-response,32
true,3,2,2,2,true,d,false,true,0.0-2.0-0.10-0.92-3.92,1,0,0,68,false,stim,false,2,538,1,0,0,56472,task2,321992,false,false,355,image-keyboard-response,33
true,3,2,2,2,true,d,false,true,0.0-2.0-0.10-0.93-3.93,1,0,0,68,false,stim,false,0,1320,1,0,1,56472,task2,324834,false,false,358,image-keyboard-response,34
true,3,0,2,0,true,q,false,false,0.0-2.0-0.10-0.94-3.94,1,0,0,81,false,stim,false,1,398,1,0,2,56472,task2,326763,false,true,361,image-keyboard-response,35
true,4,0,1,2,false,d,false,false,0.0-2.0-0.10-0.95-3.95,0,0,0,81,true,stim,true,0,363,1,0,2,56472,task2,328667,false,false,364,image-keyboard-response,1
true,4,2,1,1,false,z,false,false,0.0-2.0-0.10-0.96-3.96,0,0,0,68,false,stim,true,2,707,1,0,1,56472,task2,330910,false,false,367,image-keyboard-response,2
true,4,1,1,2,false,d,true,false,0.0-2.0-0.10-0.97-3.97,0,0,0,90,false,stim,false,0,910,1,0,2,56472,task2,333354,false,false,370,image-keyboard-response,3
true,4,2,1,0,false,q,false,false,0.0-2.0-0.10-0.98-3.98,0,0,0,68,false,stim,true,2,432,1,0,0,56472,task2,335326,false,false,373,image-keyboard-response,4
true,4,2,1,1,false,z,false,false,0.0-2.0-0.11-0.99-3.99,0,0,0,68,false,stim,true,2,356,1,0,1,56472,task2,337210,false,false,376,image-keyboard-response,5
true,4,2,1,2,true,d,false,true,0.0-2.0-0.11-0.100-3.100,0,0,0,68,false,stim,false,0,425,1,0,2,56472,task2,339159,false,false,379,image-keyboard-response,6
true,4,2,1,1,false,z,false,false,0.0-2.0-0.11-0.101-3.101,0,0,0,68,false,stim,true,2,1082,1,0,1,56472,task2,341767,false,false,382,image-keyboard-response,7
true,4,1,1,0,false,q,true,false,0.0-2.0-0.11-0.102-3.102,0,0,0,90,false,stim,false,2,671,1,0,0,56472,task2,343975,false,false,385,image-keyboard-response,8
true,4,0,1,1,false,z,true,false,0.0-2.0-0.11-0.103-3.103,0,0,0,81,false,stim,false,2,605,1,0,1,56472,task2,346120,false,false,388,image-keyboard-response,9
true,4,1,1,2,false,d,true,false,0.0-2.0-0.11-0.104-3.104,0,0,0,90,false,stim,false,0,288,1,0,2,56472,task2,347922,false,false,391,image-keyboard-response,10
true,4,2,1,0,false,q,false,false,0.0-2.0-0.11-0.105-3.105,0,0,0,68,false,stim,true,2,730,1,0,0,56472,task2,350184,false,false,394,image-keyboard-response,11
true,4,2,1,0,false,q,false,true,0.0-2.0-0.11-0.106-3.106,0,0,0,68,false,stim,true,2,465,1,0,0,56472,task2,352188,false,true,397,image-keyboard-response,12
true,4,2,1,2,true,d,false,true,0.0-2.0-0.11-0.107-3.107,0,0,0,68,false,stim,false,0,494,1,0,2,56472,task2,354216,false,false,400,image-keyboard-response,13
true,4,0,1,1,false,z,true,false,0.0-2.0-0.12-0.108-3.108,0,0,0,81,false,stim,false,2,1596,1,0,1,56472,task2,357340,false,false,403,image-keyboard-response,14
true,4,1,1,1,true,z,false,true,0.0-2.0-0.12-0.109-3.109,0,0,0,90,false,stim,false,2,1264,1,0,1,56472,task2,360138,false,false,406,image-keyboard-response,15
true,4,2,1,0,false,q,false,true,0.0-2.0-0.12-0.110-3.110,0,0,0,68,false,stim,true,2,772,1,0,0,56472,task2,362435,false,true,409,image-keyboard-response,16
true,4,2,1,2,true,d,false,true,0.0-2.0-0.12-0.111-3.111,0,0,0,68,false,stim,false,0,457,1,0,2,56472,task2,364420,false,false,412,image-keyboard-response,17
true,4,2,1,2,true,d,false,true,0.0-2.0-0.12-0.112-3.112,0,0,0,68,false,stim,false,0,754,1,0,2,56472,task2,366688,false,false,415,image-keyboard-response,18
true,4,2,1,0,false,q,false,false,0.0-2.0-0.12-0.113-3.113,0,0,0,68,false,stim,true,2,591,1,0,0,56472,task2,368806,false,false,418,image-keyboard-response,19
true,4,1,1,1,true,z,false,true,0.0-2.0-0.12-0.114-3.114,0,0,0,90,false,stim,false,2,671,1,0,1,56472,task2,370994,false,false,421,image-keyboard-response,20
true,4,2,1,0,false,q,false,false,0.0-2.0-0.12-0.115-3.115,0,0,0,68,false,stim,true,2,454,1,0,0,56472,task2,372979,false,false,424,image-keyboard-response,21
true,4,2,1,2,true,d,false,true,0.0-2.0-0.12-0.116-3.116,0,0,0,68,false,stim,false,0,354,1,0,2,56472,task2,374857,false,false,427,image-keyboard-response,22
true,4,2,1,2,true,d,false,true,0.0-2.0-0.13-0.117-3.117,0,0,0,68,false,stim,false,0,647,1,0,2,56472,task2,377030,false,false,430,image-keyboard-response,23
true,4,1,1,1,true,z,false,true,0.0-2.0-0.13-0.118-3.118,0,0,0,90,false,stim,false,2,760,1,0,1,56472,task2,379313,false,false,433,image-keyboard-response,24
true,4,2,1,2,true,d,false,true,0.0-2.0-0.13-0.119-3.119,0,0,0,68,false,stim,false,0,598,1,0,2,56472,task2,381452,false,false,436,image-keyboard-response,25
true,4,1,1,1,true,z,false,true,0.0-2.0-0.13-0.120-3.120,0,0,0,90,false,stim,false,2,647,1,0,1,56472,task2,383620,false,false,439,image-keyboard-response,26
true,4,1,1,0,false,q,true,false,0.0-2.0-0.13-0.121-3.121,0,0,0,90,false,stim,false,2,395,1,0,0,56472,task2,385529,false,false,442,image-keyboard-response,27
true,4,2,1,1,false,z,false,false,0.0-2.0-0.13-0.122-3.122,0,0,0,68,false,stim,true,2,572,1,0,1,56472,task2,387637,false,false,445,image-keyboard-response,28
true,4,0,1,0,true,q,false,true,0.0-2.0-0.13-0.123-3.123,0,0,0,81,false,stim,false,2,2330,1,0,0,56472,task2,391495,false,false,448,image-keyboard-response,29
true,4,2,1,2,true,d,false,false,0.0-2.0-0.13-0.124-3.124,0,0,0,68,false,stim,false,0,893,1,0,2,56472,task2,393928,false,true,451,image-keyboard-response,30
true,4,0,1,0,true,q,false,true,0.0-2.0-0.13-0.125-3.125,0,0,0,81,false,stim,false,2,912,1,0,0,56472,task2,396376,false,false,454,image-keyboard-response,31
true,4,2,1,1,false,z,false,false,0.0-2.0-0.14-0.126-3.126,0,0,0,68,false,stim,true,2,991,1,0,1,56472,task2,398895,false,false,457,image-keyboard-response,32
true,4,1,1,1,true,z,false,false,0.0-2.0-0.14-0.127-3.127,0,0,0,90,false,stim,false,2,655,1,0,1,56472,task2,401068,false,true,460,image-keyboard-response,33
true,4,1,1,2,false,d,true,false,0.0-2.0-0.14-0.128-3.128,0,0,0,90,false,stim,false,0,851,1,0,2,56472,task2,403446,false,false,463,image-keyboard-response,34
true,4,0,1,0,true,q,false,true,0.0-2.0-0.14-0.129-3.129,0,0,0,81,false,stim,false,2,675,1,1,0,56472,task2,405649,false,false,466,image-keyboard-response,35
true,4,0,1,1,false,z,true,false,0.0-2.0-0.14-0.130-3.130,0,0,0,81,false,stim,false,2,374,1,0,1,56472,task2,407557,false,false,469,image-keyboard-response,36
true,5,0,2,1,false,z,true,false,0.0-2.0-0.14-0.131-3.131,1,0,0,81,true,stim,false,2,397,1,0,2,56472,task2,409481,false,false,472,image-keyboard-response,1
true,5,0,2,0,true,q,false,true,0.0-2.0-0.14-0.132-3.132,1,0,0,81,false,stim,false,0,452,1,1,0,56472,task2,411445,false,false,475,image-keyboard-response,2
true,5,0,2,0,true,q,false,false,0.0-2.0-0.14-0.133-3.133,1,0,0,81,false,stim,false,0,883,1,1,0,56472,task2,413858,false,true,478,image-keyboard-response,3
true,5,2,2,1,false,z,false,false,0.0-2.0-0.14-0.134-3.134,1,0,0,68,false,stim,true,2,492,1,0,2,56472,task2,415876,false,false,481,image-keyboard-response,4
true,5,2,2,1,false,z,false,false,0.0-2.0-0.15-0.135-3.135,1,0,0,68,false,stim,true,2,591,1,0,2,56472,task2,417995,false,false,484,image-keyboard-response,5
true,5,2,2,2,true,d,false,true,0.0-2.0-0.15-0.136-3.136,1,0,0,68,false,stim,false,1,779,1,0,1,56472,task2,420303,false,false,487,image-keyboard-response,6
true,5,2,2,2,true,d,false,true,0.0-2.0-0.15-0.137-3.137,1,0,0,68,false,stim,false,1,432,1,0,1,56472,task2,422267,false,false,490,image-keyboard-response,7
true,5,0,2,0,true,q,false,true,0.0-2.0-0.15-0.138-3.138,1,0,0,81,false,stim,false,0,931,1,1,0,56472,task2,424726,false,false,493,image-keyboard-response,8
true,5,1,2,1,true,z,false,true,0.0-2.0-0.15-0.139-3.139,1,0,0,90,false,stim,false,2,654,1,0,2,56472,task2,426899,false,false,496,image-keyboard-response,9
true,5,1,2,1,true,z,false,true,0.0-2.0-0.15-0.140-3.140,1,0,0,90,false,stim,false,2,378,1,0,2,56472,task2,428803,false,false,499,image-keyboard-response,10
true,5,0,2,0,true,q,false,true,0.0-2.0-0.15-0.141-3.141,1,0,0,81,false,stim,false,0,567,1,1,0,56472,task2,430901,false,false,502,image-keyboard-response,11
true,5,0,2,0,true,q,false,true,0.0-2.0-0.15-0.142-3.142,1,0,0,81,false,stim,false,0,506,1,1,0,56472,task2,432929,false,false,505,image-keyboard-response,12
true,5,2,2,2,true,d,false,true,0.0-2.0-0.15-0.143-3.143,1,0,0,68,false,stim,false,1,939,1,0,1,56472,task2,435393,false,false,508,image-keyboard-response,13
true,5,0,2,0,true,q,false,true,0.0-2.0-0.16-0.144-3.144,1,0,0,81,false,stim,false,0,587,1,1,0,56472,task2,437522,false,false,511,image-keyboard-response,14
true,5,0,2,0,true,q,false,true,0.0-2.0-0.16-0.145-3.145,1,0,0,81,false,stim,false,0,520,1,1,0,56472,task2,439565,false,false,514,image-keyboard-response,15
true,5,2,2,2,true,d,false,false,0.0-2.0-0.16-0.146-3.146,1,0,0,68,false,stim,false,1,505,1,0,1,56472,task2,441608,false,true,517,image-keyboard-response,16
true,5,2,2,2,true,d,false,true,0.0-2.0-0.16-0.147-3.147,1,0,0,68,false,stim,false,1,592,1,0,1,56472,task2,443737,false,false,520,image-keyboard-response,17
true,5,1,2,1,true,z,false,false,0.0-2.0-0.16-0.148-3.148,1,0,0,90,false,stim,false,2,1817,1,0,2,56472,task2,447090,false,true,523,image-keyboard-response,18
true,5,0,2,0,true,q,false,true,0.0-2.0-0.16-0.149-3.149,1,0,0,81,false,stim,false,0,444,1,1,0,56472,task2,449059,false,false,526,image-keyboard-response,19
true,5,2,2,2,true,d,false,true,0.0-2.0-0.16-0.150-3.150,1,0,0,68,false,stim,false,1,527,1,0,1,56472,task2,451110,false,false,529,image-keyboard-response,20
true,5,1,2,1,true,z,false,true,0.0-2.0-0.16-0.151-3.151,1,0,0,90,false,stim,false,2,800,1,0,2,56472,task2,453444,false,false,532,image-keyboard-response,21
true,5,1,2,1,true,z,false,true,0.0-2.0-0.16-0.152-3.152,1,0,0,90,false,stim,false,2,609,1,0,2,56472,task2,455592,false,false,535,image-keyboard-response,22
true,5,1,2,1,true,z,false,true,0.0-2.0-0.17-0.153-3.153,1,0,0,90,false,stim,false,2,456,1,0,2,56472,task2,457590,false,false,538,image-keyboard-response,23
true,5,0,2,0,true,q,false,true,0.0-2.0-0.17-0.154-3.154,1,0,0,81,false,stim,false,0,617,1,1,0,56472,task2,459719,false,false,541,image-keyboard-response,24
true,5,2,2,2,true,d,false,true,0.0-2.0-0.17-0.155-3.155,1,0,0,68,false,stim,false,1,504,1,0,1,56472,task2,461757,false,false,544,image-keyboard-response,25
true,5,1,2,1,true,z,false,false,0.0-2.0-0.17-0.156-3.156,1,0,0,90,false,stim,false,2,308,1,0,2,56472,task2,463591,false,true,547,image-keyboard-response,26
true,5,2,2,2,true,d,false,true,0.0-2.0-0.17-0.157-3.157,1,0,0,68,false,stim,false,1,1425,1,0,1,56472,task2,466549,false,false,550,image-keyboard-response,27
true,5,1,2,1,true,z,false,false,0.0-2.0-0.17-0.158-3.158,1,0,0,90,false,stim,false,2,653,1,0,2,56472,task2,468726,false,true,553,image-keyboard-response,28
true,5,0,2,0,true,q,false,true,0.0-2.0-0.17-0.159-3.159,1,0,0,81,false,stim,false,0,562,1,1,0,56472,task2,470815,false,false,556,image-keyboard-response,29
true,5,0,2,0,true,q,false,true,0.0-2.0-0.17-0.160-3.160,1,0,0,81,false,stim,false,0,475,1,1,0,56472,task2,472819,false,false,559,image-keyboard-response,30
true,5,2,2,2,true,d,false,true,0.0-2.0-0.17-0.161-3.161,1,0,0,68,false,stim,false,1,1163,1,0,1,56472,task2,475506,false,false,562,image-keyboard-response,31
true,5,0,2,0,true,q,false,true,0.0-2.0-0.18-0.162-3.162,1,0,0,81,false,stim,false,0,681,1,1,0,56472,task2,477715,false,false,565,image-keyboard-response,32
true,5,2,2,2,true,d,false,true,0.0-2.0-0.18-0.163-3.163,1,0,0,68,false,stim,false,1,420,1,0,1,56472,task2,479673,false,false,568,image-keyboard-response,33
true,5,2,2,2,true,d,false,true,0.0-2.0-0.18-0.164-3.164,1,0,0,68,false,stim,false,1,478,1,0,1,56472,task2,481682,false,false,571,image-keyboard-response,34
true,6,1,2,2,false,d,false,false,0.0-2.0-0.18-0.165-3.165,1,0,0,90,true,stim,true,1,1505,1,0,2,56472,task2,484730,false,false,574,image-keyboard-response,1
true,6,0,2,0,true,q,false,true,0.0-2.0-0.18-0.166-3.166,1,0,0,81,false,stim,false,0,594,1,1,0,56472,task2,486848,false,false,577,image-keyboard-response,2
true,6,1,2,2,false,d,false,true,0.0-2.0-0.18-0.167-3.167,1,0,0,90,false,stim,true,1,363,1,0,2,56472,task2,488737,false,true,580,image-keyboard-response,3
true,6,1,2,2,false,d,false,false,0.0-2.0-0.18-0.168-3.168,1,0,0,90,false,stim,true,1,565,1,0,2,56472,task2,490840,false,false,583,image-keyboard-response,4
true,6,0,2,0,true,q,false,true,0.0-2.0-0.18-0.169-3.169,1,0,0,81,false,stim,false,0,894,1,1,0,56472,task2,493269,false,false,586,image-keyboard-response,5
true,6,2,2,0,false,q,false,false,0.0-2.0-0.18-0.170-3.170,1,0,0,68,false,stim,true,2,752,1,0,1,56472,task2,495556,false,false,589,image-keyboard-response,6
true,6,2,2,0,false,q,false,false,0.0-2.0-0.19-0.171-3.171,1,0,0,68,false,stim,true,2,820,1,0,1,56472,task2,497906,false,false,592,image-keyboard-response,7
true,6,1,2,0,false,q,true,false,0.0-2.0-0.19-0.172-3.172,1,0,0,90,false,stim,false,2,390,1,0,1,56472,task2,499824,false,false,595,image-keyboard-response,8
true,6,0,2,2,false,d,true,false,0.0-2.0-0.19-0.173-3.173,1,0,0,81,false,stim,false,1,913,1,0,2,56472,task2,502247,false,false,598,image-keyboard-response,9
true,6,0,2,0,true,q,false,true,0.0-2.0-0.19-0.174-3.174,1,0,0,81,false,stim,false,0,675,1,1,0,56472,task2,504466,false,false,601,image-keyboard-response,10
true,6,0,2,0,true,q,false,true,0.0-2.0-0.19-0.175-3.175,1,0,0,81,false,stim,false,0,900,1,1,0,56472,task2,506904,false,false,604,image-keyboard-response,11
true,6,0,2,0,true,q,false,true,0.0-2.0-0.19-0.176-3.176,1,0,0,81,false,stim,false,0,498,1,1,0,56472,task2,508942,false,false,607,image-keyboard-response,12
true,6,0,2,2,false,d,true,false,0.0-2.0-0.19-0.177-3.177,1,0,0,81,false,stim,false,1,1115,1,0,2,56472,task2,511579,false,false,610,image-keyboard-response,13
true,6,0,2,0,true,q,false,true,0.0-2.0-0.19-0.178-3.178,1,0,0,81,false,stim,false,2,1159,1,0,1,56472,task2,514247,false,false,613,image-keyboard-response,14
true,6,0,2,2,false,d,true,true,0.0-2.0-0.19-0.179-3.179,1,0,0,81,false,stim,false,1,2406,1,0,2,56472,task2,518169,false,true,616,image-keyboard-response,15
true,6,0,2,0,true,q,false,true,0.0-2.0-0.20-0.180-3.180,1,0,0,81,false,stim,false,0,350,1,1,0,56472,task2,520048,false,false,619,image-keyboard-response,16
true,6,0,2,0,true,q,false,true,0.0-2.0-0.20-0.181-3.181,1,0,0,81,false,stim,false,0,358,1,1,0,56472,task2,521936,false,false,622,image-keyboard-response,17
true,6,0,2,0,true,q,false,true,0.0-2.0-0.20-0.182-3.182,1,0,0,81,false,stim,false,2,387,1,0,1,56472,task2,523850,false,false,625,image-keyboard-response,18
true,6,0,2,2,false,d,true,false,0.0-2.0-0.20-0.183-3.183,1,0,0,81,false,stim,false,1,244,1,0,2,56472,task2,525628,false,false,628,image-keyboard-response,19
true,6,0,2,0,true,q,false,true,0.0-2.0-0.20-0.184-3.184,1,0,0,81,false,stim,false,2,291,1,0,1,56472,task2,527437,false,false,631,image-keyboard-response,20
true,6,0,2,0,true,q,false,true,0.0-2.0-0.20-0.185-3.185,1,0,0,81,false,stim,false,2,377,1,0,1,56472,task2,529352,false,false,634,image-keyboard-response,21
true,6,1,2,2,false,d,false,false,0.0-2.0-0.20-0.186-3.186,1,0,0,90,false,stim,true,1,476,1,0,2,56472,task2,531350,false,false,637,image-keyboard-response,22
true,6,2,2,2,true,d,false,true,0.0-2.0-0.20-0.187-3.187,1,0,0,68,false,stim,false,1,794,1,0,2,56472,task2,533679,false,false,640,image-keyboard-response,23
true,6,0,2,0,true,q,false,true,0.0-2.0-0.20-0.188-3.188,1,0,0,81,false,stim,false,0,517,1,1,0,56472,task2,535712,false,false,643,image-keyboard-response,24
true,6,0,2,0,true,q,false,true,0.0-2.0-0.21-0.189-3.189,1,0,0,81,false,stim,false,0,430,1,1,0,56472,task2,537675,false,false,646,image-keyboard-response,25
true,6,0,2,0,true,q,false,true,0.0-2.0-0.21-0.190-3.190,1,0,0,81,false,stim,false,0,471,1,1,0,56472,task2,539684,false,false,649,image-keyboard-response,26
true,6,0,2,0,true,q,false,true,0.0-2.0-0.21-0.191-3.191,1,0,0,81,false,stim,false,2,578,1,1,1,56472,task2,541782,false,false,652,image-keyboard-response,27
true,6,0,2,0,true,q,false,true,0.0-2.0-0.21-0.192-3.192,1,0,0,81,false,stim,false,2,377,1,1,1,56472,task2,543701,false,false,655,image-keyboard-response,28
true,6,0,2,0,true,q,false,true,0.0-2.0-0.21-0.193-3.193,1,0,0,81,false,stim,false,0,495,1,0,0,56472,task2,545709,false,false,658,image-keyboard-response,29
true,6,2,2,2,true,d,false,true,0.0-2.0-0.21-0.194-3.194,1,0,0,68,false,stim,false,1,319,1,0,2,56472,task2,547563,false,false,661,image-keyboard-response,30
true,6,0,2,0,true,q,false,true,0.0-2.0-0.21-0.195-3.195,1,0,0,81,false,stim,false,2,183,1,1,1,56472,task2,549286,false,false,664,image-keyboard-response,31
true,7,2,2,1,false,z,false,false,0.0-2.0-0.21-0.196-3.196,0,1,0,68,true,stim,true,2,671,1,0,2,56472,task2,551485,false,false,667,image-keyboard-response,1
true,7,2,2,1,false,z,false,false,0.0-2.0-0.21-0.197-3.197,0,1,0,68,false,stim,true,2,569,1,0,2,56472,task2,553584,false,false,670,image-keyboard-response,2
true,7,0,2,1,false,z,true,false,0.0-2.0-0.22-0.198-3.198,0,1,0,81,false,stim,false,2,517,1,0,2,56472,task2,555622,false,false,673,image-keyboard-response,3
true,7,0,2,1,false,z,false,false,0.0-2.0-0.22-0.199-3.199,0,1,0,81,false,stim,true,0,667,1,0,0,56472,task2,557810,false,false,676,image-keyboard-response,4
true,7,0,2,0,true,q,false,true,0.0-2.0-0.22-0.200-3.200,0,1,0,81,false,stim,false,0,725,1,1,1,56472,task2,560068,false,false,679,image-keyboard-response,5
true,7,0,2,0,true,q,false,true,0.0-2.0-0.22-0.201-3.201,0,1,0,81,false,stim,false,0,414,1,1,1,56472,task2,562008,false,false,682,image-keyboard-response,6
true,7,1,2,1,true,z,false,true,0.0-2.0-0.22-0.202-3.202,0,1,0,90,false,stim,false,2,556,1,0,2,56472,task2,564091,false,false,685,image-keyboard-response,7
true,7,0,2,1,false,z,false,true,0.0-2.0-0.22-0.203-3.203,0,1,0,81,false,stim,true,0,619,1,0,0,56472,task2,566224,false,true,688,image-keyboard-response,8
true,7,0,2,0,true,q,false,true,0.0-2.0-0.22-0.204-3.204,0,1,0,81,false,stim,false,0,633,1,1,1,56472,task2,568396,false,false,691,image-keyboard-response,9
true,7,1,2,1,true,z,false,true,0.0-2.0-0.22-0.205-3.205,0,1,0,90,false,stim,false,2,481,1,0,2,56472,task2,570396,false,false,694,image-keyboard-response,10
true,7,0,2,1,false,z,false,false,0.0-2.0-0.22-0.206-3.206,0,1,0,81,false,stim,true,0,435,1,0,0,56472,task2,572369,false,false,697,image-keyboard-response,11
true,7,1,2,1,true,z,false,true,0.0-2.0-0.23-0.207-3.207,0,1,0,90,false,stim,false,2,589,1,0,2,56472,task2,574483,false,false,700,image-keyboard-response,12
true,7,0,2,0,true,q,false,true,0.0-2.0-0.23-0.208-3.208,0,1,0,81,false,stim,false,0,357,1,1,1,56472,task2,576371,false,false,703,image-keyboard-response,13
true,7,0,2,0,true,q,false,true,0.0-2.0-0.23-0.209-3.209,0,1,0,81,false,stim,false,0,476,1,1,1,56472,task2,578380,false,false,706,image-keyboard-response,14
true,7,0,2,0,true,q,false,true,0.0-2.0-0.23-0.210-3.210,0,1,0,81,false,stim,false,0,429,1,1,1,56472,task2,580333,false,false,709,image-keyboard-response,15
true,7,0,2,1,false,z,false,false,0.0-2.0-0.23-0.211-3.211,0,1,0,81,false,stim,true,0,807,1,0,0,56472,task2,582672,false,false,712,image-keyboard-response,16
true,7,1,2,1,true,z,false,true,0.0-2.0-0.23-0.212-3.212,0,1,0,90,false,stim,false,2,571,1,0,2,56472,task2,584765,false,false,715,image-keyboard-response,17
true,7,1,2,1,true,z,false,true,0.0-2.0-0.23-0.213-3.213,0,1,0,90,false,stim,false,2,759,1,0,2,56472,task2,587053,false,false,718,image-keyboard-response,18
true,7,1,2,1,true,z,false,true,0.0-2.0-0.23-0.214-3.214,0,1,0,90,false,stim,false,0,422,1,0,0,56472,task2,589016,false,false,721,image-keyboard-response,19
true,7,1,2,1,true,z,false,true,0.0-2.0-0.23-0.215-3.215,0,1,0,90,false,stim,false,0,381,1,0,0,56472,task2,590926,false,false,724,image-keyboard-response,20
true,7,1,2,1,true,z,false,false,0.0-2.0-0.24-0.216-3.216,0,1,0,90,false,stim,false,2,394,1,0,2,56472,task2,592859,false,true,727,image-keyboard-response,21
true,7,1,2,1,true,z,false,true,0.0-2.0-0.24-0.217-3.217,0,1,0,90,false,stim,false,0,349,1,0,0,56472,task2,594732,false,false,730,image-keyboard-response,22
true,7,1,2,0,false,q,true,false,0.0-2.0-0.24-0.218-3.218,0,1,0,90,false,stim,false,0,1567,1,1,1,56472,task2,597831,false,false,733,image-keyboard-response,23
true,7,0,2,0,true,q,false,true,0.0-2.0-0.24-0.219-3.219,0,1,0,81,false,stim,false,0,399,1,1,1,56472,task2,599753,false,false,736,image-keyboard-response,24
true,7,1,2,1,true,z,false,true,0.0-2.0-0.24-0.220-3.220,0,1,0,90,false,stim,false,0,694,1,0,0,56472,task2,601988,false,false,739,image-keyboard-response,25
true,7,1,2,1,true,z,false,true,0.0-2.0-0.24-0.221-3.221,0,1,0,90,false,stim,false,2,368,1,0,2,56472,task2,603892,false,false,742,image-keyboard-response,26
true,7,1,2,1,true,z,false,true,0.0-2.0-0.24-0.222-3.222,0,1,0,90,false,stim,false,2,421,1,0,2,56472,task2,605844,false,false,745,image-keyboard-response,27
true,7,0,2,1,false,z,false,false,0.0-2.0-0.24-0.223-3.223,0,1,0,81,false,stim,true,0,609,1,0,0,56472,task2,607992,false,false,748,image-keyboard-response,28
true,7,1,2,0,false,q,true,false,0.0-2.0-0.24-0.224-3.224,0,1,0,90,false,stim,false,0,730,1,0,1,56472,task2,610265,false,false,751,image-keyboard-response,29
true,7,0,2,1,false,z,false,true,0.0-2.0-0.25-0.225-3.225,0,1,0,81,false,stim,true,0,850,1,0,0,56472,task2,612645,false,true,754,image-keyboard-response,30
true,7,1,2,1,true,z,false,false,0.0-2.0-0.25-0.226-3.226,0,1,0,90,false,stim,false,2,537,1,1,2,56472,task2,614712,false,true,757,image-keyboard-response,31
true,7,1,2,1,true,z,false,true,0.0-2.0-0.25-0.227-3.227,0,1,0,90,false,stim,false,0,2171,1,0,0,56472,task2,618415,false,false,760,image-keyboard-response,32
true,8,0,2,2,false,d,false,false,0.0-2.0-0.25-0.228-3.228,0,0,1,81,true,stim,true,0,439,1,0,1,56472,task2,620383,false,false,763,image-keyboard-response,1
true,8,1,2,2,false,d,true,false,0.0-2.0-0.25-0.229-3.229,0,0,1,90,false,stim,false,0,1232,1,0,1,56472,task2,623146,false,false,766,image-keyboard-response,2
true,8,1,2,1,true,z,false,true,0.0-2.0-0.25-0.230-3.230,0,0,1,90,false,stim,false,1,737,1,1,2,56472,task2,625410,false,false,769,image-keyboard-response,3
true,8,1,2,1,true,z,false,true,0.0-2.0-0.25-0.231-3.231,0,0,1,90,false,stim,false,1,464,1,1,2,56472,task2,627389,false,false,772,image-keyboard-response,4
true,8,2,2,2,true,d,false,true,0.0-2.0-0.25-0.232-3.232,0,0,1,68,false,stim,false,0,589,1,0,1,56472,task2,629512,false,false,775,image-keyboard-response,5
true,8,1,2,2,false,d,false,false,0.0-2.0-0.25-0.233-3.233,0,0,1,90,false,stim,true,1,707,1,0,0,56472,task2,631750,false,false,778,image-keyboard-response,6
true,8,1,2,2,false,d,false,false,0.0-2.0-0.26-0.234-3.234,0,0,1,90,false,stim,true,1,545,1,0,0,56472,task2,633819,false,false,781,image-keyboard-response,7
true,8,1,2,1,true,z,false,true,0.0-2.0-0.26-0.235-3.235,0,0,1,90,false,stim,false,1,703,1,1,2,56472,task2,636058,false,false,784,image-keyboard-response,8
true,8,1,2,1,true,z,false,true,0.0-2.0-0.26-0.236-3.236,0,0,1,90,false,stim,false,1,1086,1,1,2,56472,task2,638680,false,false,787,image-keyboard-response,9
true,8,2,2,2,true,d,false,true,0.0-2.0-0.26-0.237-3.237,0,0,1,68,false,stim,false,0,541,1,0,1,56472,task2,640744,false,false,790,image-keyboard-response,10
true,8,2,2,2,true,d,false,true,0.0-2.0-0.26-0.238-3.238,0,0,1,68,false,stim,false,1,454,1,0,0,56472,task2,642738,false,false,793,image-keyboard-response,11
true,8,2,2,2,true,d,false,true,0.0-2.0-0.26-0.239-3.239,0,0,1,68,false,stim,false,1,457,1,0,0,56472,task2,644720,false,false,796,image-keyboard-response,12
true,8,2,2,2,true,d,false,true,0.0-2.0-0.26-0.240-3.240,0,0,1,68,false,stim,false,0,502,1,0,1,56472,task2,646755,false,false,799,image-keyboard-response,13
true,8,1,2,1,true,z,false,true,0.0-2.0-0.26-0.241-3.241,0,0,1,90,false,stim,false,1,611,1,1,2,56472,task2,648904,false,false,802,image-keyboard-response,14
true,8,2,2,2,true,d,false,true,0.0-2.0-0.26-0.242-3.242,0,0,1,68,false,stim,false,0,612,1,0,1,56472,task2,651036,false,false,805,image-keyboard-response,15
true,8,2,2,2,true,d,false,true,0.0-2.0-0.27-0.243-3.243,0,0,1,68,false,stim,false,0,371,1,0,1,56472,task2,652935,false,false,808,image-keyboard-response,16
true,8,2,2,2,true,d,false,true,0.0-2.0-0.27-0.244-3.244,0,0,1,68,false,stim,false,1,1190,1,0,0,56472,task2,655654,false,false,811,image-keyboard-response,17
true,8,2,2,1,false,z,true,false,0.0-2.0-0.27-0.245-3.245,0,0,1,68,false,stim,false,1,637,1,1,2,56472,task2,657821,false,false,814,image-keyboard-response,18
true,8,2,2,2,true,d,false,true,0.0-2.0-0.27-0.246-3.246,0,0,1,68,false,stim,false,1,667,1,0,0,56472,task2,660020,false,false,817,image-keyboard-response,19
true,8,2,2,2,true,d,false,true,0.0-2.0-0.27-0.247-3.247,0,0,1,68,false,stim,false,1,1620,1,0,0,56472,task2,663173,false,false,820,image-keyboard-response,20
true,8,2,2,1,false,z,true,false,0.0-2.0-0.27-0.248-3.248,0,0,1,68,false,stim,false,1,782,1,1,2,56472,task2,665486,false,false,823,image-keyboard-response,21
true,8,2,2,2,true,d,false,true,0.0-2.0-0.27-0.249-3.249,0,0,1,68,false,stim,false,0,732,1,0,1,56472,task2,667754,false,false,826,image-keyboard-response,22
true,8,2,2,2,true,d,false,true,0.0-2.0-0.27-0.250-3.250,0,0,1,68,false,stim,false,0,610,1,0,1,56472,task2,669894,false,false,829,image-keyboard-response,23
true,8,1,2,1,true,z,false,true,0.0-2.0-0.27-0.251-3.251,0,0,1,90,false,stim,false,1,478,1,1,2,56472,task2,671912,false,false,832,image-keyboard-response,24
true,8,1,2,1,true,z,false,true,0.0-2.0-0.28-0.252-3.252,0,0,1,90,false,stim,false,1,453,1,1,2,56472,task2,673905,false,false,835,image-keyboard-response,25
true,8,2,2,2,true,d,false,true,0.0-2.0-0.28-0.253-3.253,0,0,1,68,false,stim,false,1,545,1,0,0,56472,task2,675978,false,false,838,image-keyboard-response,26
true,8,2,2,2,true,d,false,true,0.0-2.0-0.28-0.254-3.254,0,0,1,68,false,stim,false,0,792,1,0,1,56472,task2,678296,false,false,841,image-keyboard-response,27
true,8,2,2,2,true,d,false,false,0.0-2.0-0.28-0.255-3.255,0,0,1,68,false,stim,false,0,500,1,0,1,56472,task2,680325,false,true,844,image-keyboard-response,28
true,8,1,2,1,true,z,false,true,0.0-2.0-0.28-0.256-3.256,0,0,1,90,false,stim,false,1,444,1,0,2,56472,task2,682309,false,false,847,image-keyboard-response,29
true,8,2,2,2,true,d,false,false,0.0-2.0-0.28-0.257-3.257,0,0,1,68,false,stim,false,1,1014,1,1,0,56472,task2,684848,false,true,850,image-keyboard-response,30
true,8,2,2,2,true,d,false,true,0.0-2.0-0.28-0.258-3.258,0,0,1,68,false,stim,false,1,680,1,1,0,56472,task2,687055,false,false,853,image-keyboard-response,31
true,9,1,2,1,true,z,false,true,0.0-2.0-0.28-0.259-3.259,1,0,0,90,true,stim,false,2,1424,1,0,1,56472,task2,690009,false,false,856,image-keyboard-response,1
true,9,1,2,0,false,q,false,false,0.0-2.0-0.28-0.260-3.260,1,0,0,90,false,stim,true,1,1437,1,0,2,56472,task2,692972,false,false,859,image-keyboard-response,2
true,9,0,2,0,true,q,false,true,0.0-2.0-0.29-0.261-3.261,1,0,0,81,false,stim,false,1,1049,1,0,2,56472,task2,695563,false,false,862,image-keyboard-response,3
true,9,1,2,2,false,d,true,false,0.0-2.0-0.29-0.262-3.262,1,0,0,90,false,stim,false,2,573,1,1,0,56472,task2,697657,false,false,865,image-keyboard-response,4
true,9,2,2,2,true,d,false,true,0.0-2.0-0.29-0.263-3.263,1,0,0,68,false,stim,false,2,487,1,1,0,56472,task2,699671,false,false,868,image-keyboard-response,5
true,9,1,2,1,true,z,false,true,0.0-2.0-0.29-0.264-3.264,1,0,0,90,false,stim,false,2,526,1,0,1,56472,task2,701730,false,false,871,image-keyboard-response,6
true,9,0,2,0,true,q,false,true,0.0-2.0-0.29-0.265-3.265,1,0,0,81,false,stim,false,1,454,1,0,2,56472,task2,703718,false,false,874,image-keyboard-response,7
true,9,0,2,0,true,q,false,true,0.0-2.0-0.29-0.266-3.266,1,0,0,81,false,stim,false,1,629,1,0,2,56472,task2,705883,false,false,877,image-keyboard-response,8
true,9,2,2,1,false,z,false,false,0.0-2.0-0.29-0.267-3.267,1,0,0,68,false,stim,true,2,646,1,0,1,56472,task2,708060,false,false,880,image-keyboard-response,9
true,9,1,2,2,false,d,true,false,0.0-2.0-0.29-0.268-3.268,1,0,0,90,false,stim,false,2,375,1,1,0,56472,task2,709959,false,false,883,image-keyboard-response,10
true,9,0,2,1,false,z,true,false,0.0-2.0-0.29-0.269-3.269,1,0,0,81,false,stim,false,2,858,1,0,1,56472,task2,712342,false,false,886,image-keyboard-response,11
true,9,0,2,1,false,z,true,true,0.0-2.0-0.30-0.270-3.270,1,0,0,81,false,stim,false,2,511,1,0,1,56472,task2,714395,false,true,889,image-keyboard-response,12
true,9,0,2,2,false,d,true,false,0.0-2.0-0.30-0.271-3.271,1,0,0,81,false,stim,false,2,680,1,1,0,56472,task2,716595,false,false,892,image-keyboard-response,13
true,9,0,2,0,true,q,false,false,0.0-2.0-0.30-0.272-3.272,1,0,0,81,false,stim,false,1,379,1,0,2,56472,task2,718514,false,true,895,image-keyboard-response,14
true,9,1,2,1,true,z,false,true,0.0-2.0-0.30-0.273-3.273,1,0,0,90,false,stim,false,2,567,1,0,1,56472,task2,720611,false,false,898,image-keyboard-response,15
true,9,0,2,0,true,q,false,true,0.0-2.0-0.30-0.274-3.274,1,0,0,81,false,stim,false,1,801,1,0,2,56472,task2,722954,false,false,901,image-keyboard-response,16
true,9,1,2,1,true,z,false,false,0.0-2.0-0.30-0.275-3.275,1,0,0,90,false,stim,false,2,390,1,0,1,56472,task2,724864,false,true,904,image-keyboard-response,17
true,9,0,2,0,true,q,false,true,0.0-2.0-0.30-0.276-3.276,1,0,0,81,false,stim,false,1,712,1,0,2,56472,task2,727116,false,false,907,image-keyboard-response,18
true,9,1,2,2,false,d,true,false,0.0-2.0-0.30-0.277-3.277,1,0,0,90,false,stim,false,2,921,1,1,0,56472,task2,729574,false,false,910,image-keyboard-response,19
true,9,2,2,2,true,d,false,true,0.0-2.0-0.30-0.278-3.278,1,0,0,68,false,stim,false,2,749,1,1,0,56472,task2,731833,false,false,913,image-keyboard-response,20
true,9,2,2,2,true,d,false,true,0.0-2.0-0.31-0.279-3.279,1,0,0,68,false,stim,false,2,468,1,1,0,56472,task2,733830,false,false,916,image-keyboard-response,21
true,9,1,2,1,true,z,false,true,0.0-2.0-0.31-0.280-3.280,1,0,0,90,false,stim,false,2,970,1,0,1,56472,task2,736335,false,false,919,image-keyboard-response,22
true,9,1,2,1,true,z,false,true,0.0-2.0-0.31-0.281-3.281,1,0,0,90,false,stim,false,2,533,1,0,1,56472,task2,738397,false,false,922,image-keyboard-response,23
true,9,0,2,0,true,q,false,true,0.0-2.0-0.31-0.282-3.282,1,0,0,81,false,stim,false,1,627,1,0,2,56472,task2,740561,false,false,925,image-keyboard-response,24
true,9,1,2,2,false,d,true,true,0.0-2.0-0.31-0.283-3.283,1,0,0,90,false,stim,false,2,1534,1,1,0,56472,task2,743623,false,true,928,image-keyboard-response,25
true,9,0,2,0,true,q,false,true,0.0-2.0-0.31-0.284-3.284,1,0,0,81,false,stim,false,1,637,1,0,2,56472,task2,745782,false,false,931,image-keyboard-response,26
true,9,0,2,0,true,q,false,true,0.0-2.0-0.31-0.285-3.285,1,0,0,81,false,stim,false,1,501,1,0,2,56472,task2,747806,false,false,934,image-keyboard-response,27
true,9,2,2,1,false,z,false,true,0.0-2.0-0.31-0.286-3.286,1,0,0,68,false,stim,true,2,763,1,0,1,56472,task2,750107,false,true,937,image-keyboard-response,28
true,9,0,2,2,false,d,true,true,0.0-2.0-0.31-0.287-3.287,1,0,0,81,false,stim,false,2,458,1,0,0,56472,task2,752091,false,true,940,image-keyboard-response,29
true,9,0,2,2,false,d,true,true,0.0-2.0-0.32-0.288-3.288,1,0,0,81,false,stim,false,2,362,1,0,0,56472,task2,753975,false,true,943,image-keyboard-response,30
true,9,0,2,2,false,d,true,false,0.0-2.0-0.32-0.289-3.289,1,0,0,81,false,stim,false,2,405,1,0,0,56472,task2,755918,false,false,946,image-keyboard-response,31
true,10,2,1,2,true,d,false,true,0.0-2.0-0.32-0.290-3.290,0,0,0,68,true,stim,false,1,764,1,0,1,56472,task2,758206,false,false,949,image-keyboard-response,1
true,10,1,1,1,true,z,false,false,0.0-2.0-0.32-0.291-3.291,0,0,0,90,false,stim,false,0,580,1,0,2,56472,task2,760325,false,true,952,image-keyboard-response,2
true,10,0,1,2,false,d,true,false,0.0-2.0-0.32-0.292-3.292,0,0,0,81,false,stim,false,1,310,1,0,1,56472,task2,762165,false,false,955,image-keyboard-response,3
true,10,1,1,1,true,z,false,true,0.0-2.0-0.32-0.293-3.293,0,0,0,90,false,stim,false,0,259,1,0,2,56472,task2,763953,false,false,958,image-keyboard-response,4
true,10,0,1,2,false,d,true,false,0.0-2.0-0.32-0.294-3.294,0,0,0,81,false,stim,false,1,677,1,0,1,56472,task2,766171,false,false,961,image-keyboard-response,5
true,10,2,1,1,false,z,false,false,0.0-2.0-0.32-0.295-3.295,0,0,0,68,false,stim,true,2,836,1,0,0,56472,task2,768549,false,false,964,image-keyboard-response,6
true,10,1,1,1,true,z,false,true,0.0-2.0-0.32-0.296-3.296,0,0,0,90,false,stim,false,0,430,1,0,2,56472,task2,770512,false,false,967,image-keyboard-response,7
true,10,1,1,1,true,z,false,true,0.0-2.0-0.33-0.297-3.297,0,0,0,90,false,stim,false,0,536,1,0,2,56472,task2,772581,false,false,970,image-keyboard-response,8
true,10,0,1,2,false,d,true,false,0.0-2.0-0.33-0.298-3.298,0,0,0,81,false,stim,false,1,515,1,0,1,56472,task2,774630,false,false,973,image-keyboard-response,9
true,10,1,1,1,true,z,false,true,0.0-2.0-0.33-0.299-3.299,0,0,0,90,false,stim,false,2,999,1,0,0,56472,task2,777154,false,false,976,image-keyboard-response,10
true,10,1,1,1,true,z,false,true,0.0-2.0-0.33-0.300-3.300,0,0,0,90,false,stim,false,2,457,1,0,0,56472,task2,779131,false,false,979,image-keyboard-response,11
true,10,1,1,1,true,z,false,true,0.0-2.0-0.33-0.301-3.301,0,0,0,90,false,stim,false,0,587,1,0,2,56472,task2,781250,false,false,982,image-keyboard-response,12
true,10,1,1,1,true,z,false,true,0.0-2.0-0.33-0.302-3.302,0,0,0,90,false,stim,false,0,484,1,0,2,56472,task2,783268,false,false,985,image-keyboard-response,13
true,10,2,1,2,true,d,false,true,0.0-2.0-0.33-0.303-3.303,0,0,0,68,false,stim,false,1,947,1,0,1,56472,task2,785741,false,false,988,image-keyboard-response,14
true,10,2,1,2,true,d,false,true,0.0-2.0-0.33-0.304-3.304,0,0,0,68,false,stim,false,1,432,1,0,1,56472,task2,787706,false,false,991,image-keyboard-response,15
true,10,1,1,1,true,z,false,true,0.0-2.0-0.33-0.305-3.305,0,0,0,90,false,stim,false,2,444,1,0,0,56472,task2,789679,false,false,994,image-keyboard-response,16
true,10,1,1,1,true,z,false,true,0.0-2.0-0.34-0.306-3.306,0,0,0,90,false,stim,false,2,339,1,0,0,56472,task2,791552,false,false,997,image-keyboard-response,17
true,10,1,1,1,true,z,false,false,0.0-2.0-0.34-0.307-3.307,0,0,0,90,false,stim,false,2,422,1,0,0,56472,task2,793505,false,true,1000,image-keyboard-response,18
true,10,2,1,2,true,d,false,true,0.0-2.0-0.34-0.308-3.308,0,0,0,68,false,stim,false,1,476,1,0,1,56472,task2,795518,false,false,1003,image-keyboard-response,19
true,10,1,1,1,true,z,false,true,0.0-2.0-0.34-0.309-3.309,0,0,0,90,false,stim,false,0,715,1,0,2,56472,task2,797758,false,false,1006,image-keyboard-response,20
true,10,1,1,2,false,d,false,false,0.0-2.0-0.34-0.310-3.310,0,0,0,90,false,stim,true,1,871,1,0,1,56472,task2,800165,false,false,1009,image-keyboard-response,21
true,10,1,1,1,true,z,false,true,0.0-2.0-0.34-0.311-3.311,0,0,0,90,false,stim,false,2,561,1,0,0,56472,task2,802254,false,false,1012,image-keyboard-response,22
true,10,1,1,1,true,z,false,true,0.0-2.0-0.34-0.312-3.312,0,0,0,90,false,stim,false,0,648,1,0,2,56472,task2,804442,false,false,1015,image-keyboard-response,23
true,10,2,1,2,true,d,false,true,0.0-2.0-0.34-0.313-3.313,0,0,0,68,false,stim,false,1,381,1,0,1,56472,task2,806356,false,false,1018,image-keyboard-response,24
true,10,1,1,1,true,z,false,true,0.0-2.0-0.34-0.314-3.314,0,0,0,90,false,stim,false,0,395,1,0,2,56472,task2,808280,false,false,1021,image-keyboard-response,25
true,10,1,1,1,true,z,false,true,0.0-2.0-0.35-0.315-3.315,0,0,0,90,false,stim,false,0,334,1,0,2,56472,task2,810138,false,false,1024,image-keyboard-response,26
true,10,2,1,1,false,z,false,false,0.0-2.0-0.35-0.316-3.316,0,0,0,68,false,stim,true,2,667,1,0,0,56472,task2,812331,false,false,1027,image-keyboard-response,27
true,10,2,1,2,true,d,false,true,0.0-2.0-0.35-0.317-3.317,0,0,0,68,false,stim,false,1,337,1,0,1,56472,task2,814190,false,false,1030,image-keyboard-response,28
true,10,2,1,2,true,d,false,true,0.0-2.0-0.35-0.318-3.318,0,0,0,68,false,stim,false,1,1174,1,0,1,56472,task2,816888,false,false,1033,image-keyboard-response,29
true,10,1,1,1,true,z,false,true,0.0-2.0-0.35-0.319-3.319,0,0,0,90,false,stim,false,0,417,1,0,2,56472,task2,818842,false,false,1036,image-keyboard-response,30
true,10,1,1,2,false,d,false,false,0.0-2.0-0.35-0.320-3.320,0,0,0,90,false,stim,true,1,327,1,0,1,56472,task2,820710,false,false,1039,image-keyboard-response,31
true,10,1,1,1,true,z,false,true,0.0-2.0-0.35-0.321-3.321,0,0,0,90,false,stim,false,2,860,1,0,0,56472,task2,823093,false,false,1042,image-keyboard-response,32
true,10,1,1,1,true,z,false,true,0.0-2.0-0.35-0.322-3.322,0,0,0,90,false,stim,false,2,493,1,0,0,56472,task2,825128,false,false,1045,image-keyboard-response,33
true,10,1,1,1,true,z,false,false,0.0-2.0-0.35-0.323-3.323,0,0,0,90,false,stim,false,0,558,1,1,2,56472,task2,827212,false,true,1048,image-keyboard-response,34
true,10,2,1,2,true,d,false,true,0.0-2.0-0.36-0.324-3.324,0,0,0,68,false,stim,false,1,376,1,0,1,56472,task2,829099,false,false,1051,image-keyboard-response,35
true,10,1,1,1,true,z,false,true,0.0-2.0-0.36-0.325-3.325,0,0,0,90,false,stim,false,0,325,1,1,2,56472,task2,830948,false,false,1054,image-keyboard-response,36
true,10,1,1,1,true,z,false,false,0.0-2.0-0.36-0.326-3.326,0,0,0,90,false,stim,false,0,1108,1,1,2,56472,task2,833591,false,true,1057,image-keyboard-response,37
true,10,1,1,1,true,z,false,false,0.0-2.0-0.36-0.327-3.327,0,0,0,90,false,stim,false,2,666,1,0,0,56472,task2,835769,false,true,1060,image-keyboard-response,38
true,11,2,2,1,false,z,true,false,0.0-2.0-0.36-0.328-3.328,0,0,1,68,true,stim,false,1,797,1,1,2,56472,task2,838092,false,false,1063,image-keyboard-response,1
true,11,2,2,0,false,q,true,false,0.0-2.0-0.36-0.329-3.329,0,0,1,68,false,stim,false,1,956,1,0,0,56472,task2,840590,false,false,1066,image-keyboard-response,2
true,11,1,2,0,false,q,false,false,0.0-2.0-0.36-0.330-3.330,0,0,1,90,false,stim,true,1,456,1,0,0,56472,task2,842570,false,false,1069,image-keyboard-response,3
true,11,0,2,0,true,q,false,false,0.0-2.0-0.36-0.331-3.331,0,0,1,81,false,stim,false,2,543,1,0,1,56472,task2,844647,false,true,1072,image-keyboard-response,4
true,11,0,2,0,true,q,false,true,0.0-2.0-0.36-0.332-3.332,0,0,1,81,false,stim,false,2,352,1,0,1,56472,task2,846536,false,false,1075,image-keyboard-response,5
true,11,0,2,1,false,z,true,false,0.0-2.0-0.37-0.333-3.333,0,0,1,81,false,stim,false,1,712,1,1,2,56472,task2,848776,false,false,1078,image-keyboard-response,6
true,11,0,2,0,true,q,false,true,0.0-2.0-0.37-0.334-3.334,0,0,1,81,false,stim,false,2,400,1,0,1,56472,task2,850693,false,false,1081,image-keyboard-response,7
true,11,0,2,0,true,q,false,true,0.0-2.0-0.37-0.335-3.335,0,0,1,81,false,stim,false,1,357,1,0,0,56472,task2,852578,false,false,1084,image-keyboard-response,8
true,11,0,2,0,true,q,false,true,0.0-2.0-0.37-0.336-3.336,0,0,1,81,false,stim,false,2,571,1,0,1,56472,task2,854659,false,false,1087,image-keyboard-response,9
true,11,0,2,0,true,q,false,true,0.0-2.0-0.37-0.337-3.337,0,0,1,81,false,stim,false,1,393,1,0,0,56472,task2,856565,false,false,1090,image-keyboard-response,10
true,11,0,2,0,true,q,false,true,0.0-2.0-0.37-0.338-3.338,0,0,1,81,false,stim,false,2,785,1,0,1,56472,task2,858878,false,false,1093,image-keyboard-response,11
true,11,0,2,0,true,q,false,true,0.0-2.0-0.37-0.339-3.339,0,0,1,81,false,stim,false,1,385,1,0,0,56472,task2,860788,false,false,1096,image-keyboard-response,12
true,11,1,2,1,true,z,false,true,0.0-2.0-0.37-0.340-3.340,0,0,1,90,false,stim,false,1,587,1,1,2,56472,task2,862900,false,false,1099,image-keyboard-response,13
true,11,1,2,1,true,z,false,true,0.0-2.0-0.37-0.341-3.341,0,0,1,90,false,stim,false,1,436,1,1,2,56472,task2,864869,false,false,1102,image-keyboard-response,14
true,11,0,2,0,true,q,false,true,0.0-2.0-0.38-0.342-3.342,0,0,1,81,false,stim,false,2,589,1,0,1,56472,task2,866983,false,false,1105,image-keyboard-response,15
true,11,0,2,0,true,q,false,true,0.0-2.0-0.38-0.343-3.343,0,0,1,81,false,stim,false,1,347,1,0,0,56472,task2,868861,false,false,1108,image-keyboard-response,16
true,11,0,2,0,true,q,false,false,0.0-2.0-0.38-0.344-3.344,0,0,1,81,false,stim,false,2,681,1,0,1,56472,task2,871075,false,true,1111,image-keyboard-response,17
true,11,1,2,1,true,z,false,false,0.0-2.0-0.38-0.345-3.345,0,0,1,90,false,stim,false,1,994,1,1,2,56472,task2,873598,false,true,1114,image-keyboard-response,18
true,11,0,2,0,true,q,false,true,0.0-2.0-0.38-0.346-3.346,0,0,1,81,false,stim,false,1,538,1,0,0,56472,task2,875652,false,false,1117,image-keyboard-response,19
true,11,0,2,0,true,q,false,false,0.0-2.0-0.38-0.347-3.347,0,0,1,81,false,stim,false,1,451,1,0,0,56472,task2,877645,false,true,1120,image-keyboard-response,20
true,11,0,2,0,true,q,false,true,0.0-2.0-0.38-0.348-3.348,0,0,1,81,false,stim,false,2,480,1,0,1,56472,task2,879655,false,false,1123,image-keyboard-response,21
true,11,0,2,1,false,z,true,false,0.0-2.0-0.38-0.349-3.349,0,0,1,81,false,stim,false,1,984,1,1,2,56472,task2,882177,false,false,1126,image-keyboard-response,22
true,11,2,2,1,false,z,true,false,0.0-2.0-0.38-0.350-3.350,0,0,1,68,false,stim,false,1,731,1,1,2,56472,task2,884435,false,false,1129,image-keyboard-response,23
true,11,1,2,1,true,z,false,true,0.0-2.0-0.39-0.351-3.351,0,0,1,90,false,stim,false,1,401,1,1,2,56472,task2,886364,false,false,1132,image-keyboard-response,24
true,11,0,2,0,true,q,false,true,0.0-2.0-0.39-0.352-3.352,0,0,1,81,false,stim,false,1,500,1,0,0,56472,task2,888403,false,false,1135,image-keyboard-response,25
true,11,0,2,0,true,q,false,true,0.0-2.0-0.39-0.353-3.353,0,0,1,81,false,stim,false,1,546,1,0,0,56472,task2,890481,false,false,1138,image-keyboard-response,26
true,11,1,2,1,true,z,false,true,0.0-2.0-0.39-0.354-3.354,0,0,1,90,false,stim,false,1,995,1,1,2,56472,task2,893009,false,false,1141,image-keyboard-response,27
true,11,0,2,0,true,q,false,true,0.0-2.0-0.39-0.355-3.355,0,0,1,81,false,stim,false,2,348,1,0,1,56472,task2,894883,false,false,1144,image-keyboard-response,28
true,11,0,2,0,true,q,false,false,0.0-2.0-0.39-0.356-3.356,0,0,1,81,false,stim,false,2,723,1,0,1,56472,task2,897136,false,true,1147,image-keyboard-response,29
true,11,0,2,1,false,z,true,false,0.0-2.0-0.39-0.357-3.357,0,0,1,81,false,stim,false,1,442,1,1,2,56472,task2,899105,false,false,1150,image-keyboard-response,30
true,11,0,2,0,true,q,false,true,0.0-2.0-0.39-0.358-3.358,0,0,1,81,false,stim,false,2,754,1,0,1,56472,task2,901398,false,false,1153,image-keyboard-response,31
true,11,0,2,0,true,q,false,true,0.0-2.0-0.39-0.359-3.359,0,0,1,81,false,stim,false,1,442,1,0,0,56472,task2,903367,false,false,1156,image-keyboard-response,32
true,11,1,2,1,true,z,false,true,0.0-2.0-0.40-0.360-3.360,0,0,1,90,false,stim,false,1,392,1,0,2,56472,task2,905285,false,false,1159,image-keyboard-response,33
true,11,1,2,1,true,z,false,true,0.0-2.0-0.40-0.361-3.361,0,0,1,90,false,stim,false,1,685,1,0,2,56472,task2,907498,false,false,1162,image-keyboard-response,34
true,11,0,2,0,true,q,false,true,0.0-2.0-0.40-0.362-3.362,0,0,1,81,false,stim,false,1,474,1,0,0,56472,task2,909498,false,false,1165,image-keyboard-response,35
true,12,0,1,1,false,z,false,false,0.0-2.0-0.40-0.363-3.363,0,0,0,81,true,stim,true,0,348,1,0,1,56472,task2,911372,false,false,1168,image-keyboard-response,1
true,12,0,1,1,false,z,false,false,0.0-2.0-0.40-0.364-3.364,0,0,0,81,false,stim,true,0,612,1,0,0,56472,task2,913516,false,false,1171,image-keyboard-response,2
true,12,1,1,2,false,d,false,false,0.0-2.0-0.40-0.365-3.365,0,0,0,90,false,stim,true,1,535,1,0,2,56472,task2,915569,false,false,1174,image-keyboard-response,3
true,12,0,1,1,false,z,false,false,0.0-2.0-0.40-0.366-3.366,0,0,0,81,false,stim,true,0,453,1,0,0,56472,task2,917547,false,false,1177,image-keyboard-response,4
true,12,0,1,1,false,z,false,false,0.0-2.0-0.40-0.367-3.367,0,0,0,81,false,stim,true,0,367,1,0,1,56472,task2,919441,false,false,1180,image-keyboard-response,5
true,12,1,1,1,true,z,false,true,0.0-2.0-0.40-0.368-3.368,0,0,0,90,false,stim,false,0,686,1,0,1,56472,task2,921649,false,false,1183,image-keyboard-response,6
true,12,1,1,1,true,z,false,true,0.0-2.0-0.41-0.369-3.369,0,0,0,90,false,stim,false,0,420,1,0,0,56472,task2,923603,false,false,1186,image-keyboard-response,7
true,12,0,1,2,false,d,true,true,0.0-2.0-0.41-0.370-3.370,0,0,0,81,false,stim,false,1,652,1,0,2,56472,task2,925796,false,true,1189,image-keyboard-response,8
true,12,0,1,2,false,d,true,false,0.0-2.0-0.41-0.371-3.371,0,0,0,81,false,stim,false,1,526,1,0,2,56472,task2,927839,false,false,1192,image-keyboard-response,9
true,12,1,1,1,true,z,false,true,0.0-2.0-0.41-0.372-3.372,0,0,0,90,false,stim,false,0,510,1,0,1,56472,task2,929883,false,false,1195,image-keyboard-response,10
true,12,1,1,2,false,d,false,false,0.0-2.0-0.41-0.373-3.373,0,0,0,90,false,stim,true,1,503,1,0,2,56472,task2,931927,false,false,1198,image-keyboard-response,11
true,12,1,1,1,true,z,false,true,0.0-2.0-0.41-0.374-3.374,0,0,0,90,false,stim,false,0,621,1,0,0,56472,task2,934096,false,false,1201,image-keyboard-response,12
true,12,1,1,1,true,z,false,true,0.0-2.0-0.41-0.375-3.375,0,0,0,90,false,stim,false,0,380,1,0,0,56472,task2,936015,false,false,1204,image-keyboard-response,13
true,12,0,1,1,false,z,false,false,0.0-2.0-0.41-0.376-3.376,0,0,0,81,false,stim,true,0,515,1,0,1,56472,task2,938068,false,false,1207,image-keyboard-response,14
true,12,1,1,1,true,z,false,false,0.0-2.0-0.41-0.377-3.377,0,0,0,90,false,stim,false,0,612,1,0,1,56472,task2,940207,false,true,1210,image-keyboard-response,15
true,12,1,1,1,true,z,false,true,0.0-2.0-0.42-0.378-3.378,0,0,0,90,false,stim,false,0,943,1,0,0,56472,task2,942676,false,false,1213,image-keyboard-response,16
true,12,2,1,1,false,z,true,false,0.0-2.0-0.42-0.379-3.379,0,0,0,68,false,stim,false,0,536,1,0,1,56472,task2,944740,false,false,1216,image-keyboard-response,17
true,12,1,1,1,true,z,false,true,0.0-2.0-0.42-0.380-3.380,0,0,0,90,false,stim,false,0,364,1,0,0,56472,task2,946627,false,false,1219,image-keyboard-response,18
true,12,1,1,1,true,z,false,true,0.0-2.0-0.42-0.381-3.381,0,0,0,90,false,stim,false,0,712,1,0,1,56472,task2,948866,false,false,1222,image-keyboard-response,19
true,12,0,1,2,false,d,true,false,0.0-2.0-0.42-0.382-3.382,0,0,0,81,false,stim,false,1,506,1,0,2,56472,task2,950900,false,false,1225,image-keyboard-response,20
true,12,1,1,1,true,z,false,true,0.0-2.0-0.42-0.383-3.383,0,0,0,90,false,stim,false,0,894,1,0,1,56472,task2,953328,false,false,1228,image-keyboard-response,21
true,12,2,1,2,true,d,false,true,0.0-2.0-0.42-0.384-3.384,0,0,0,68,false,stim,false,1,877,1,0,2,56472,task2,955740,false,false,1231,image-keyboard-response,22
true,12,1,1,1,true,z,false,true,0.0-2.0-0.42-0.385-3.385,0,0,0,90,false,stim,false,0,482,1,0,0,56472,task2,957746,false,false,1234,image-keyboard-response,23
true,12,2,1,2,true,d,false,true,0.0-2.0-0.42-0.386-3.386,0,0,0,68,false,stim,false,1,560,1,0,2,56472,task2,959834,false,false,1237,image-keyboard-response,24
true,12,1,1,1,true,z,false,true,0.0-2.0-0.43-0.387-3.387,0,0,0,90,false,stim,false,0,789,1,0,0,56472,task2,962163,false,false,1240,image-keyboard-response,25
true,12,1,1,1,true,z,false,true,0.0-2.0-0.43-0.388-3.388,0,0,0,90,false,stim,false,0,396,1,0,0,56472,task2,964091,false,false,1243,image-keyboard-response,26
true,12,2,1,2,true,d,false,true,0.0-2.0-0.43-0.389-3.389,0,0,0,68,false,stim,false,1,676,1,0,2,56472,task2,966299,false,false,1246,image-keyboard-response,27
true,12,1,1,1,true,z,false,true,0.0-2.0-0.43-0.390-3.390,0,0,0,90,false,stim,false,0,325,1,0,1,56472,task2,968148,false,false,1249,image-keyboard-response,28
true,12,1,1,2,false,d,false,true,0.0-2.0-0.43-0.391-3.391,0,0,0,90,false,stim,true,1,614,1,0,2,56472,task2,970297,false,true,1252,image-keyboard-response,29
true,12,1,1,1,true,z,false,true,0.0-2.0-0.43-0.392-3.392,0,0,0,90,false,stim,false,0,726,1,0,0,56472,task2,972560,false,false,1255,image-keyboard-response,30
true,12,1,1,1,true,z,false,true,0.0-2.0-0.43-0.393-3.393,0,0,0,90,false,stim,false,0,661,1,0,1,56472,task2,974754,false,false,1258,image-keyboard-response,31
true,12,1,1,2,false,d,false,false,0.0-2.0-0.43-0.394-3.394,0,0,0,90,false,stim,true,1,575,1,0,2,56472,task2,976867,false,false,1261,image-keyboard-response,32
true,12,1,1,1,true,z,false,true,0.0-2.0-0.43-0.395-3.395,0,0,0,90,false,stim,false,0,581,1,0,1,56472,task2,978986,false,false,1264,image-keyboard-response,33
true,12,2,1,2,true,d,false,true,0.0-2.0-0.44-0.396-3.396,0,0,0,68,false,stim,false,1,326,1,0,2,56472,task2,980850,false,false,1267,image-keyboard-response,34
true,12,2,1,1,false,z,true,false,0.0-2.0-0.44-0.397-3.397,0,0,0,68,false,stim,false,0,519,1,0,1,56472,task2,982894,false,false,1270,image-keyboard-response,35
true,12,1,1,1,true,z,false,true,0.0-2.0-0.44-0.398-3.398,0,0,0,90,false,stim,false,0,287,1,0,1,56472,task2,984721,false,false,1273,image-keyboard-response,36
true,12,1,1,1,true,z,false,true,0.0-2.0-0.44-0.399-3.399,0,0,0,90,false,stim,false,0,393,1,0,1,56472,task2,986646,false,false,1276,image-keyboard-response,37
true,13,2,1,0,false,q,false,false,0.0-2.0-0.44-0.400-3.400,0,0,0,68,true,stim,true,2,626,1,0,2,56472,task2,988800,false,false,1279,image-keyboard-response,1
true,13,0,1,2,false,d,true,false,0.0-2.0-0.44-0.401-3.401,0,0,0,81,false,stim,false,1,305,1,0,0,56472,task2,990639,false,false,1282,image-keyboard-response,2
true,13,1,1,2,false,d,false,false,0.0-2.0-0.44-0.402-3.402,0,0,0,90,false,stim,true,1,308,1,0,0,56472,task2,992472,false,false,1285,image-keyboard-response,3
true,13,2,1,0,false,q,false,false,0.0-2.0-0.44-0.403-3.403,0,0,0,68,false,stim,true,2,298,1,0,2,56472,task2,994301,false,false,1288,image-keyboard-response,4
true,13,1,1,2,false,d,false,false,0.0-2.0-0.44-0.404-3.404,0,0,0,90,false,stim,true,1,565,1,0,0,56472,task2,996380,false,false,1291,image-keyboard-response,5
true,13,0,1,0,true,q,false,true,0.0-2.0-0.45-0.405-3.405,0,0,0,81,false,stim,false,2,385,1,0,2,56472,task2,998298,false,false,1294,image-keyboard-response,6
true,13,0,1,0,true,q,false,true,0.0-2.0-0.45-0.406-3.406,0,0,0,81,false,stim,false,2,372,1,0,2,56472,task2,1000197,false,false,1297,image-keyboard-response,7
true,13,1,1,2,false,d,false,false,0.0-2.0-0.45-0.407-3.407,0,0,0,90,false,stim,true,1,506,1,0,0,56472,task2,1002231,false,false,1300,image-keyboard-response,8
true,13,2,1,0,false,q,true,false,0.0-2.0-0.45-0.408-3.408,0,0,0,68,false,stim,false,1,661,1,0,1,56472,task2,1004424,false,false,1303,image-keyboard-response,9
true,13,1,1,0,false,q,false,false,0.0-2.0-0.45-0.409-3.409,0,0,0,90,false,stim,true,1,699,1,0,1,56472,task2,1006664,false,false,1306,image-keyboard-response,10
true,13,0,1,0,true,q,false,true,0.0-2.0-0.45-0.410-3.410,0,0,0,81,false,stim,false,2,400,1,0,2,56472,task2,1008604,false,false,1309,image-keyboard-response,11
true,13,0,1,0,true,q,false,true,0.0-2.0-0.45-0.411-3.411,0,0,0,81,false,stim,false,1,381,1,0,1,56472,task2,1010515,false,false,1312,image-keyboard-response,12
true,13,0,1,2,false,d,true,false,0.0-2.0-0.45-0.412-3.412,0,0,0,81,false,stim,false,1,785,1,0,0,56472,task2,1012839,false,false,1315,image-keyboard-response,13
true,13,2,1,2,true,d,false,true,0.0-2.0-0.45-0.413-3.413,0,0,0,68,false,stim,false,1,603,1,0,0,56472,task2,1014967,false,false,1318,image-keyboard-response,14
true,13,2,1,2,true,d,false,true,0.0-2.0-0.46-0.414-3.414,0,0,0,68,false,stim,false,1,428,1,0,0,56472,task2,1016931,false,false,1321,image-keyboard-response,15
true,13,0,1,0,true,q,false,true,0.0-2.0-0.46-0.415-3.415,0,0,0,81,false,stim,false,1,771,1,0,1,56472,task2,1019235,false,false,1324,image-keyboard-response,16
true,13,0,1,2,false,d,true,false,0.0-2.0-0.46-0.416-3.416,0,0,0,81,false,stim,false,1,430,1,0,0,56472,task2,1021205,false,false,1327,image-keyboard-response,17
true,13,0,1,0,true,q,false,true,0.0-2.0-0.46-0.417-3.417,0,0,0,81,false,stim,false,1,419,1,0,1,56472,task2,1023151,false,false,1330,image-keyboard-response,18
true,13,2,1,0,false,q,false,false,0.0-2.0-0.46-0.418-3.418,0,0,0,68,false,stim,true,2,602,1,0,2,56472,task2,1025295,false,false,1333,image-keyboard-response,19
true,13,0,1,0,true,q,false,true,0.0-2.0-0.46-0.419-3.419,0,0,0,81,false,stim,false,1,565,1,0,1,56472,task2,1027389,false,false,1336,image-keyboard-response,20
true,13,2,1,0,false,q,false,false,0.0-2.0-0.46-0.420-3.420,0,0,0,68,false,stim,true,2,458,1,0,2,56472,task2,1029383,false,false,1339,image-keyboard-response,21
true,13,1,1,0,false,q,true,false,0.0-2.0-0.46-0.421-3.421,0,0,0,90,false,stim,false,2,709,1,0,2,56472,task2,1031623,false,false,1342,image-keyboard-response,22
true,13,0,1,2,false,d,true,true,0.0-2.0-0.46-0.422-3.422,0,0,0,81,false,stim,false,1,666,1,0,0,56472,task2,1033820,false,true,1345,image-keyboard-response,23
true,13,0,1,0,true,q,false,false,0.0-2.0-0.47-0.423-3.423,0,0,0,81,false,stim,false,2,340,1,0,2,56472,task2,1035694,false,true,1348,image-keyboard-response,24
true,13,2,1,0,false,q,false,false,0.0-2.0-0.47-0.424-3.424,0,0,0,68,false,stim,true,2,523,1,0,2,56472,task2,1037748,false,false,1351,image-keyboard-response,25
true,13,0,1,2,false,d,true,false,0.0-2.0-0.47-0.425-3.425,0,0,0,81,false,stim,false,1,566,1,0,0,56472,task2,1039851,false,false,1354,image-keyboard-response,26
true,13,0,1,0,true,q,false,true,0.0-2.0-0.47-0.426-3.426,0,0,0,81,false,stim,false,2,371,1,0,2,56472,task2,1041756,false,false,1357,image-keyboard-response,27
true,13,0,1,0,true,q,false,true,0.0-2.0-0.47-0.427-3.427,0,0,0,81,false,stim,false,1,326,1,0,1,56472,task2,1043619,false,false,1360,image-keyboard-response,28
true,13,0,1,2,false,d,true,false,0.0-2.0-0.47-0.428-3.428,0,0,0,81,false,stim,false,1,225,1,0,0,56472,task2,1045373,false,false,1363,image-keyboard-response,29
true,13,0,1,0,true,q,false,true,0.0-2.0-0.47-0.429-3.429,0,0,0,81,false,stim,false,1,322,1,0,1,56472,task2,1047235,false,false,1366,image-keyboard-response,30
true,13,0,1,0,true,q,false,true,0.0-2.0-0.47-0.430-3.430,0,0,0,81,false,stim,false,1,596,1,0,1,56472,task2,1049358,false,false,1369,image-keyboard-response,31
true,13,2,1,2,true,d,false,true,0.0-2.0-0.47-0.431-3.431,0,0,0,68,false,stim,false,1,364,1,0,0,56472,task2,1051247,false,false,1372,image-keyboard-response,32
true,13,0,1,0,true,q,false,true,0.0-2.0-0.48-0.432-3.432,0,0,0,81,false,stim,false,1,518,1,0,1,56472,task2,1053302,false,false,1375,image-keyboard-response,33
true,13,0,1,0,true,q,false,true,0.0-2.0-0.48-0.433-3.433,0,0,0,81,false,stim,false,1,248,1,0,1,56472,task2,1055091,false,false,1378,image-keyboard-response,34
true,14,0,1,2,false,d,false,true,0.0-2.0-0.48-0.434-3.434,0,0,0,81,true,stim,true,0,436,1,0,2,56472,task2,1057049,false,true,1381,image-keyboard-response,1
true,14,0,1,2,false,d,false,false,0.0-2.0-0.48-0.435-3.435,0,0,0,81,false,stim,true,0,810,1,0,2,56472,task2,1059383,false,false,1384,image-keyboard-response,2
true,14,2,1,0,false,q,false,false,0.0-2.0-0.48-0.436-3.436,0,0,0,68,false,stim,true,2,598,1,0,0,56472,task2,1061512,false,false,1387,image-keyboard-response,3
true,14,0,1,0,true,q,false,true,0.0-2.0-0.48-0.437-3.437,0,0,0,81,false,stim,false,2,481,1,0,0,56472,task2,1063526,false,false,1390,image-keyboard-response,4
true,14,0,1,2,false,d,false,false,0.0-2.0-0.48-0.438-3.438,0,0,0,81,false,stim,true,0,735,1,0,2,56472,task2,1065799,false,false,1393,image-keyboard-response,5
true,14,0,1,2,false,d,false,false,0.0-2.0-0.48-0.439-3.439,0,0,0,81,false,stim,true,0,1048,1,0,1,56472,task2,1068382,false,false,1396,image-keyboard-response,6
true,14,0,1,0,true,q,false,true,0.0-2.0-0.48-0.440-3.440,0,0,0,81,false,stim,false,2,402,1,0,0,56472,task2,1070316,false,false,1399,image-keyboard-response,7
true,14,0,1,0,true,q,false,true,0.0-2.0-0.49-0.441-3.441,0,0,0,81,false,stim,false,2,485,1,0,0,56472,task2,1072329,false,false,1402,image-keyboard-response,8
true,14,2,1,2,true,d,false,true,0.0-2.0-0.49-0.442-3.442,0,0,0,68,false,stim,false,0,716,1,0,2,56472,task2,1074579,false,false,1405,image-keyboard-response,9
true,14,2,1,2,true,d,false,true,0.0-2.0-0.49-0.443-3.443,0,0,0,68,false,stim,false,0,465,1,0,2,56472,task2,1076568,false,false,1408,image-keyboard-response,10
true,14,2,1,2,true,d,false,true,0.0-2.0-0.49-0.444-3.444,0,0,0,68,false,stim,false,0,827,1,0,1,56472,task2,1078920,false,false,1411,image-keyboard-response,11
true,14,0,1,0,true,q,false,true,0.0-2.0-0.49-0.445-3.445,0,0,0,81,false,stim,false,2,431,1,0,0,56472,task2,1080885,false,false,1414,image-keyboard-response,12
true,14,0,1,0,true,q,false,false,0.0-2.0-0.49-0.446-3.446,0,0,0,81,false,stim,false,2,590,1,0,0,56472,task2,1083013,false,true,1417,image-keyboard-response,13
true,14,2,1,2,true,d,false,true,0.0-2.0-0.49-0.447-3.447,0,0,0,68,false,stim,false,0,644,1,0,1,56472,task2,1085187,false,false,1420,image-keyboard-response,14
true,14,2,1,2,true,d,false,true,0.0-2.0-0.49-0.448-3.448,0,0,0,68,false,stim,false,0,603,1,0,2,56472,task2,1087316,false,false,1423,image-keyboard-response,15
true,14,0,1,2,false,d,false,false,0.0-2.0-0.49-0.449-3.449,0,0,0,81,false,stim,true,0,885,1,0,1,56472,task2,1089739,false,false,1426,image-keyboard-response,16
true,14,2,1,2,true,d,false,true,0.0-2.0-0.50-0.450-3.450,0,0,0,68,false,stim,false,0,540,1,0,2,56472,task2,1091803,false,false,1429,image-keyboard-response,17
true,14,2,1,0,false,q,false,false,0.0-2.0-0.50-0.451-3.451,0,0,0,68,false,stim,true,2,349,1,0,0,56472,task2,1093692,false,false,1432,image-keyboard-response,18
true,14,1,1,2,false,d,true,false,0.0-2.0-0.50-0.452-3.452,0,0,0,90,false,stim,false,0,483,1,0,1,56472,task2,1095705,false,false,1435,image-keyboard-response,19
true,14,2,1,2,true,d,false,true,0.0-2.0-0.50-0.453-3.453,0,0,0,68,false,stim,false,0,716,1,0,2,56472,task2,1097959,false,false,1438,image-keyboard-response,20
true,14,2,1,2,true,d,false,true,0.0-2.0-0.50-0.454-3.454,0,0,0,68,false,stim,false,0,554,1,0,2,56472,task2,1100049,false,false,1441,image-keyboard-response,21
true,14,2,1,0,false,q,false,false,0.0-2.0-0.50-0.455-3.455,0,0,0,68,false,stim,true,2,1289,1,0,0,56472,task2,1102862,false,false,1444,image-keyboard-response,22
true,14,0,1,2,false,d,false,false,0.0-2.0-0.50-0.456-3.456,0,0,0,81,false,stim,true,0,769,1,0,1,56472,task2,1105159,false,false,1447,image-keyboard-response,23
true,14,2,1,2,true,d,false,true,0.0-2.0-0.50-0.457-3.457,0,0,0,68,false,stim,false,0,364,1,0,1,56472,task2,1107049,false,false,1450,image-keyboard-response,24
true,14,2,1,0,false,q,false,false,0.0-2.0-0.50-0.458-3.458,0,0,0,68,false,stim,true,2,474,1,0,0,56472,task2,1109058,false,false,1453,image-keyboard-response,25
true,14,0,1,0,true,q,false,true,0.0-2.0-0.51-0.459-3.459,0,0,0,81,false,stim,false,2,873,1,0,0,56472,task2,1111467,false,false,1456,image-keyboard-response,26
true,14,0,1,0,true,q,false,true,0.0-2.0-0.51-0.460-3.460,0,0,0,81,false,stim,false,2,396,1,0,0,56472,task2,1113401,false,false,1459,image-keyboard-response,27
true,14,2,1,2,true,d,false,true,0.0-2.0-0.51-0.461-3.461,0,0,0,68,false,stim,false,0,581,1,0,2,56472,task2,1115504,false,false,1462,image-keyboard-response,28
true,14,0,1,0,true,q,false,true,0.0-2.0-0.51-0.462-3.462,0,0,0,81,false,stim,false,2,364,1,0,0,56472,task2,1117409,false,false,1465,image-keyboard-response,29
true,14,2,1,2,true,d,false,true,0.0-2.0-0.51-0.463-3.463,0,0,0,68,false,stim,false,0,429,1,0,1,56472,task2,1119372,false,false,1468,image-keyboard-response,30
true,14,2,1,2,true,d,false,true,0.0-2.0-0.51-0.464-3.464,0,0,0,68,false,stim,false,0,377,1,0,2,56472,task2,1121272,false,false,1471,image-keyboard-response,31
true,14,2,1,2,true,d,false,true,0.0-2.0-0.51-0.465-3.465,0,0,0,68,false,stim,false,0,327,1,0,1,56472,task2,1123141,false,false,1474,image-keyboard-response,32
true,14,2,1,2,true,d,false,false,0.0-2.0-0.51-0.466-3.466,0,0,0,68,false,stim,false,0,525,1,0,1,56472,task2,1125199,false,true,1477,image-keyboard-response,33
true,14,2,1,2,true,d,false,true,0.0-2.0-0.51-0.467-3.467,0,0,0,68,false,stim,false,0,395,1,0,2,56472,task2,1127118,false,false,1480,image-keyboard-response,34
true,15,2,1,1,false,z,false,false,0.0-2.0-0.52-0.468-3.468,0,0,0,68,true,stim,true,2,758,1,0,2,56472,task2,1129402,false,false,1483,image-keyboard-response,1
true,15,2,1,1,false,z,false,false,0.0-2.0-0.52-0.469-3.469,0,0,0,68,false,stim,true,2,502,1,0,2,56472,task2,1131446,false,false,1486,image-keyboard-response,2
true,15,0,1,1,false,z,true,false,0.0-2.0-0.52-0.470-3.470,0,0,0,81,false,stim,false,2,480,1,0,1,56472,task2,1133464,false,false,1489,image-keyboard-response,3
true,15,1,1,1,true,z,false,true,0.0-2.0-0.52-0.471-3.471,0,0,0,90,false,stim,false,2,1205,1,0,1,56472,task2,1136199,false,false,1492,image-keyboard-response,4
true,15,0,1,2,false,d,false,false,0.0-2.0-0.52-0.472-3.472,0,0,0,81,false,stim,true,0,400,1,0,0,56472,task2,1138133,false,false,1495,image-keyboard-response,5
true,15,1,1,2,false,d,true,false,0.0-2.0-0.52-0.473-3.473,0,0,0,90,false,stim,false,0,839,1,0,0,56472,task2,1140511,false,false,1498,image-keyboard-response,6
true,15,1,1,1,true,z,false,true,0.0-2.0-0.52-0.474-3.474,0,0,0,90,false,stim,false,2,1120,1,0,2,56472,task2,1143170,false,false,1501,image-keyboard-response,7
true,15,2,1,2,true,d,false,true,0.0-2.0-0.52-0.475-3.475,0,0,0,68,false,stim,false,0,785,1,0,0,56472,task2,1145489,false,false,1504,image-keyboard-response,8
true,15,1,1,1,true,z,false,true,0.0-2.0-0.52-0.476-3.476,0,0,0,90,false,stim,false,2,419,1,0,1,56472,task2,1147433,false,false,1507,image-keyboard-response,9
true,15,1,1,1,true,z,false,true,0.0-2.0-0.53-0.477-3.477,0,0,0,90,false,stim,false,2,512,1,0,1,56472,task2,1149486,false,false,1510,image-keyboard-response,10
true,15,2,1,2,true,d,false,true,0.0-2.0-0.53-0.478-3.478,0,0,0,68,false,stim,false,0,751,1,0,0,56472,task2,1151755,false,false,1513,image-keyboard-response,11
true,15,1,1,1,true,z,false,true,0.0-2.0-0.53-0.479-3.479,0,0,0,90,false,stim,false,2,360,1,0,2,56472,task2,1153644,false,false,1516,image-keyboard-response,12
true,15,2,1,2,true,d,false,true,0.0-2.0-0.53-0.480-3.480,0,0,0,68,false,stim,false,0,863,1,0,0,56472,task2,1156048,false,false,1519,image-keyboard-response,13
true,15,1,1,1,true,z,false,true,0.0-2.0-0.53-0.481-3.481,0,0,0,90,false,stim,false,2,328,1,0,2,56472,task2,1157913,false,false,1522,image-keyboard-response,14
true,15,1,1,1,true,z,false,true,0.0-2.0-0.53-0.482-3.482,0,0,0,90,false,stim,false,2,353,1,0,2,56472,task2,1159806,false,false,1525,image-keyboard-response,15
true,15,1,1,1,true,z,false,true,0.0-2.0-0.53-0.483-3.483,0,0,0,90,false,stim,false,2,335,1,0,1,56472,task2,1161660,false,false,1528,image-keyboard-response,16
true,15,2,1,2,true,d,false,true,0.0-2.0-0.53-0.484-3.484,0,0,0,68,false,stim,false,0,385,1,0,0,56472,task2,1163580,false,false,1531,image-keyboard-response,17
true,15,1,1,1,true,z,false,true,0.0-2.0-0.53-0.485-3.485,0,0,0,90,false,stim,false,2,335,1,0,1,56472,task2,1165438,false,false,1534,image-keyboard-response,18
true,15,1,1,1,true,z,false,true,0.0-2.0-0.54-0.486-3.486,0,0,0,90,false,stim,false,2,268,1,0,2,56472,task2,1167232,false,false,1537,image-keyboard-response,19
true,15,2,1,2,true,d,false,true,0.0-2.0-0.54-0.487-3.487,0,0,0,68,false,stim,false,0,412,1,0,0,56472,task2,1169176,false,false,1540,image-keyboard-response,20
true,15,1,1,1,true,z,false,true,0.0-2.0-0.54-0.488-3.488,0,0,0,90,false,stim,false,2,357,1,0,2,56472,task2,1171050,false,false,1543,image-keyboard-response,21
true,15,1,1,1,true,z,false,true,0.0-2.0-0.54-0.489-3.489,0,0,0,90,false,stim,false,2,350,1,0,2,56472,task2,1172924,false,false,1546,image-keyboard-response,22
true,15,1,1,1,true,z,false,true,0.0-2.0-0.54-0.490-3.490,0,0,0,90,false,stim,false,2,555,1,0,1,56472,task2,1175009,false,false,1549,image-keyboard-response,23
true,15,2,1,2,true,d,false,true,0.0-2.0-0.54-0.491-3.491,0,0,0,68,false,stim,false,0,419,1,0,0,56472,task2,1176962,false,false,1552,image-keyboard-response,24
true,15,1,1,1,true,z,false,true,0.0-2.0-0.54-0.492-3.492,0,0,0,90,false,stim,false,2,307,1,0,1,56472,task2,1178811,false,false,1555,image-keyboard-response,25
true,15,1,1,2,false,d,true,false,0.0-2.0-0.54-0.493-3.493,0,0,0,90,false,stim,false,0,346,1,0,0,56472,task2,1180691,false,false,1558,image-keyboard-response,26
true,15,1,1,1,true,z,false,true,0.0-2.0-0.54-0.494-3.494,0,0,0,90,false,stim,false,2,667,1,0,1,56472,task2,1182880,false,false,1561,image-keyboard-response,27
true,15,2,1,2,true,d,false,true,0.0-2.0-0.55-0.495-3.495,0,0,0,68,false,stim,false,0,360,1,0,0,56472,task2,1184774,false,false,1564,image-keyboard-response,28
true,15,1,1,1,true,z,false,true,0.0-2.0-0.55-0.496-3.496,0,0,0,90,false,stim,false,2,369,1,0,1,56472,task2,1186672,false,false,1567,image-keyboard-response,29
true,15,1,1,1,true,z,false,true,0.0-2.0-0.55-0.497-3.497,0,0,0,90,false,stim,false,2,378,1,0,1,56472,task2,1188582,false,false,1570,image-keyboard-response,30
true,15,2,1,2,true,d,false,true,0.0-2.0-0.55-0.498-3.498,0,0,0,68,false,stim,false,0,535,1,0,0,56472,task2,1190650,false,false,1573,image-keyboard-response,31
true,15,1,1,1,true,z,false,false,0.0-2.0-0.55-0.499-3.499,0,0,0,90,false,stim,false,2,450,1,0,2,56472,task2,1192624,false,true,1576,image-keyboard-response,32
true,15,1,1,1,true,z,false,true,0.0-2.0-0.55-0.500-3.500,0,0,0,90,false,stim,false,2,2268,1,0,1,56472,task2,1196422,false,false,1579,image-keyboard-response,33
true,15,1,1,1,true,z,false,true,0.0-2.0-0.55-0.501-3.501,0,0,0,90,false,stim,false,2,1403,1,0,2,56472,task2,1199365,false,false,1582,image-keyboard-response,34
true,15,2,1,2,true,d,false,true,0.0-2.0-0.55-0.502-3.502,0,0,0,68,false,stim,false,0,591,1,0,0,56472,task2,1201495,false,false,1585,image-keyboard-response,35
true,15,1,1,1,true,z,false,true,0.0-2.0-0.55-0.503-3.503,0,0,0,90,false,stim,false,2,374,1,0,2,56472,task2,1203408,false,false,1588,image-keyboard-response,36
true,15,1,1,2,false,d,true,false,0.0-2.0-0.56-0.504-3.504,0,0,0,90,false,stim,false,0,338,1,0,0,56472,task2,1205272,false,false,1591,image-keyboard-response,37
true,15,1,1,1,true,z,false,true,0.0-2.0-0.56-0.505-3.505,0,0,0,90,false,stim,false,2,523,1,0,2,56472,task2,1207317,false,false,1594,image-keyboard-response,38
true,16,1,1,0,false,q,false,false,0.0-2.0-0.56-0.506-3.506,0,0,0,90,true,stim,true,1,570,1,0,1,56472,task2,1209414,false,false,1597,image-keyboard-response,1
true,16,1,1,0,false,q,false,false,0.0-2.0-0.56-0.507-3.507,0,0,0,90,false,stim,true,1,911,1,0,2,56472,task2,1211854,false,false,1600,image-keyboard-response,2
true,16,2,1,1,false,z,false,false,0.0-2.0-0.56-0.508-3.508,0,0,0,68,false,stim,true,2,584,1,0,0,56472,task2,1213987,false,false,1603,image-keyboard-response,3
true,16,1,1,0,false,q,false,false,0.0-2.0-0.56-0.509-3.509,0,0,0,90,false,stim,true,1,542,1,0,1,56472,task2,1216056,false,false,1606,image-keyboard-response,4
true,16,0,1,0,true,q,false,true,0.0-2.0-0.56-0.510-3.510,0,0,0,81,false,stim,false,1,430,1,0,2,56472,task2,1218024,false,false,1609,image-keyboard-response,5
true,16,0,1,0,true,q,false,true,0.0-2.0-0.56-0.511-3.511,0,0,0,81,false,stim,false,1,556,1,0,1,56472,task2,1220108,false,false,1612,image-keyboard-response,6
true,16,1,1,1,true,z,false,true,0.0-2.0-0.56-0.512-3.512,0,0,0,90,false,stim,false,2,459,1,0,0,56472,task2,1222103,false,false,1615,image-keyboard-response,7
true,16,0,1,0,true,q,false,false,0.0-2.0-0.57-0.513-3.513,0,0,0,81,false,stim,false,1,477,1,0,2,56472,task2,1224120,false,true,1618,image-keyboard-response,8
true,16,0,1,0,true,q,false,true,0.0-2.0-0.57-0.514-3.514,0,0,0,81,false,stim,false,1,616,1,0,2,56472,task2,1226250,false,false,1621,image-keyboard-response,9
true,16,0,1,0,true,q,false,true,0.0-2.0-0.57-0.515-3.515,0,0,0,81,false,stim,false,1,1439,1,0,1,56472,task2,1229213,false,false,1624,image-keyboard-response,10
true,16,1,1,1,true,z,false,true,0.0-2.0-0.57-0.516-3.516,0,0,0,90,false,stim,false,2,398,1,0,0,56472,task2,1231152,false,false,1627,image-keyboard-response,11
true,16,0,1,0,true,q,false,true,0.0-2.0-0.57-0.517-3.517,0,0,0,81,false,stim,false,1,547,1,0,1,56472,task2,1233240,false,false,1630,image-keyboard-response,12
true,16,1,1,1,true,z,false,false,0.0-2.0-0.57-0.518-3.518,0,0,0,90,false,stim,false,2,575,1,0,0,56472,task2,1235339,false,true,1633,image-keyboard-response,13
true,16,0,1,1,false,z,true,false,0.0-2.0-0.57-0.519-3.519,0,0,0,81,false,stim,false,2,200,1,0,0,56472,task2,1237063,false,false,1636,image-keyboard-response,14
true,16,0,1,0,true,q,false,true,0.0-2.0-0.57-0.520-3.520,0,0,0,81,false,stim,false,1,1289,1,0,2,56472,task2,1239882,false,false,1639,image-keyboard-response,15
true,16,0,1,0,true,q,false,true,0.0-2.0-0.57-0.521-3.521,0,0,0,81,false,stim,false,1,597,1,0,1,56472,task2,1242010,false,false,1642,image-keyboard-response,16
true,16,1,1,1,true,z,false,true,0.0-2.0-0.58-0.522-3.522,0,0,0,90,false,stim,false,2,410,1,0,0,56472,task2,1243934,false,false,1645,image-keyboard-response,17
true,16,1,1,1,true,z,false,true,0.0-2.0-0.58-0.523-3.523,0,0,0,90,false,stim,false,2,514,1,0,0,56472,task2,1245978,false,false,1648,image-keyboard-response,18
true,16,0,1,0,true,q,false,true,0.0-2.0-0.58-0.524-3.524,0,0,0,81,false,stim,false,1,568,1,0,1,56472,task2,1248072,false,false,1651,image-keyboard-response,19
true,16,0,1,0,true,q,false,false,0.0-2.0-0.58-0.525-3.525,0,0,0,81,false,stim,false,1,781,1,0,2,56472,task2,1250395,false,true,1654,image-keyboard-response,20
true,16,0,1,0,true,q,false,false,0.0-2.0-0.58-0.526-3.526,0,0,0,81,false,stim,false,1,726,1,0,1,56472,task2,1252639,false,true,1657,image-keyboard-response,21
true,16,1,1,1,true,z,false,true,0.0-2.0-0.58-0.527-3.527,0,0,0,90,false,stim,false,2,381,1,0,0,56472,task2,1254554,false,false,1660,image-keyboard-response,22
true,16,2,1,0,false,q,true,false,0.0-2.0-0.58-0.528-3.528,0,0,0,68,false,stim,false,1,538,1,0,2,56472,task2,1256631,false,false,1663,image-keyboard-response,23
true,16,2,1,0,false,q,true,false,0.0-2.0-0.58-0.529-3.529,0,0,0,68,false,stim,false,1,808,1,0,1,56472,task2,1258972,false,false,1666,image-keyboard-response,24
true,16,1,1,0,false,q,false,false,0.0-2.0-0.58-0.530-3.530,0,0,0,90,false,stim,true,1,765,1,0,2,56472,task2,1261269,false,false,1669,image-keyboard-response,25
true,16,1,1,1,true,z,false,true,0.0-2.0-0.59-0.531-3.531,0,0,0,90,false,stim,false,2,420,1,0,0,56472,task2,1263223,false,false,1672,image-keyboard-response,26
true,16,1,1,0,false,q,false,true,0.0-2.0-0.59-0.532-3.532,0,0,0,90,false,stim,true,1,735,1,0,2,56472,task2,1265488,false,true,1675,image-keyboard-response,27
true,16,1,1,0,false,q,false,false,0.0-2.0-0.59-0.533-3.533,0,0,0,90,false,stim,true,1,443,1,0,2,56472,task2,1267456,false,false,1678,image-keyboard-response,28
true,16,1,1,0,false,q,false,false,0.0-2.0-0.59-0.534-3.534,0,0,0,90,false,stim,true,1,890,1,0,1,56472,task2,1269884,false,false,1681,image-keyboard-response,29
true,16,0,1,0,true,q,false,true,0.0-2.0-0.59-0.535-3.535,0,0,0,81,false,stim,false,1,735,1,0,1,56472,task2,1272158,false,false,1684,image-keyboard-response,30
true,16,0,1,0,true,q,false,true,0.0-2.0-0.59-0.536-3.536,0,0,0,81,false,stim,false,1,398,1,0,1,56472,task2,1274081,false,false,1687,image-keyboard-response,31
true,16,1,1,1,true,z,false,true,0.0-2.0-0.59-0.537-3.537,0,0,0,90,false,stim,false,2,1340,1,0,0,56472,task2,1276955,false,false,1690,image-keyboard-response,32
true,16,1,1,1,true,z,false,true,0.0-2.0-0.59-0.538-3.538,0,0,0,90,false,stim,false,2,520,1,1,0,56472,task2,1279014,false,false,1693,image-keyboard-response,33
true,16,1,1,0,false,q,false,false,0.0-2.0-0.59-0.539-3.539,0,0,0,90,false,stim,true,1,715,1,1,2,56472,task2,1281258,false,false,1696,image-keyboard-response,34
true,16,0,1,0,true,q,false,true,0.0-2.0-0.60-0.540-3.540,0,0,0,81,false,stim,false,1,498,1,1,1,56472,task2,1283282,false,false,1699,image-keyboard-response,35
true,16,0,1,1,false,z,true,false,0.0-2.0-0.60-0.541-3.541,0,0,0,81,false,stim,false,2,487,1,1,0,56472,task2,1285320,false,false,1702,image-keyboard-response,36
true,16,1,1,0,false,q,false,false,0.0-2.0-0.60-0.542-3.542,0,0,0,90,false,stim,true,1,277,1,1,1,56472,task2,1287130,false,false,1705,image-keyboard-response,37
true,17,0,0,0,true,q,false,true,0.0-2.0-0.60-0.543-3.543,1,1,1,81,true,stim,false,0,668,1,1,1,56472,task2,1411272,false,false,1828,image-keyboard-response,1
true,17,0,0,1,false,z,true,false,0.0-2.0-0.60-0.544-3.544,1,1,1,81,false,stim,false,1,435,1,1,0,56472,task2,1413237,false,false,1831,image-keyboard-response,2
true,17,0,0,0,true,q,false,true,0.0-2.0-0.60-0.545-3.545,1,1,1,81,false,stim,false,0,369,1,1,2,56472,task2,1415142,false,false,1834,image-keyboard-response,3
true,17,0,0,0,true,q,false,true,0.0-2.0-0.60-0.546-3.546,1,1,1,81,false,stim,false,0,472,1,1,2,56472,task2,1417145,false,false,1837,image-keyboard-response,4
true,17,1,0,1,true,z,false,true,0.0-2.0-0.60-0.547-3.547,1,1,1,90,false,stim,false,1,777,1,1,0,56472,task2,1419440,false,false,1840,image-keyboard-response,5
true,17,0,0,0,true,q,false,true,0.0-2.0-0.60-0.548-3.548,1,1,1,81,false,stim,false,0,321,1,1,2,56472,task2,1421284,false,false,1843,image-keyboard-response,6
true,17,0,0,0,true,q,false,true,0.0-2.0-0.61-0.549-3.549,1,1,1,81,false,stim,false,0,335,1,1,2,56472,task2,1423158,false,false,1846,image-keyboard-response,7
true,17,1,0,1,true,z,false,true,0.0-2.0-0.61-0.550-3.550,1,1,1,90,false,stim,false,1,474,1,1,0,56472,task2,1425167,false,false,1849,image-keyboard-response,8
true,17,0,0,0,true,q,false,true,0.0-2.0-0.61-0.551-3.551,1,1,1,81,false,stim,false,0,512,1,0,1,56472,task2,1427206,false,false,1852,image-keyboard-response,9
true,17,0,0,1,false,z,true,false,0.0-2.0-0.61-0.552-3.552,1,1,1,81,false,stim,false,1,367,1,0,0,56472,task2,1429090,false,false,1855,image-keyboard-response,10
true,17,1,0,0,false,q,true,true,0.0-2.0-0.61-0.553-3.553,1,1,1,90,false,stim,false,0,256,1,0,1,56472,task2,1430879,false,true,1858,image-keyboard-response,11
true,17,0,0,0,true,q,false,true,0.0-2.0-0.61-0.554-3.554,1,1,1,81,false,stim,false,0,315,1,0,1,56472,task2,1432718,false,false,1861,image-keyboard-response,12
true,17,1,0,0,false,q,true,true,0.0-2.0-0.61-0.555-3.555,1,1,1,90,false,stim,false,0,239,1,0,2,56472,task2,1434493,false,true,1864,image-keyboard-response,13
true,18,0,1,2,false,d,false,false,0.0-2.0-0.61-0.556-3.556,0,0,0,81,true,stim,true,0,103,1,0,2,56472,task2,1436136,false,false,1867,image-keyboard-response,1
true,18,1,1,2,false,d,false,false,0.0-2.0-0.61-0.557-3.557,0,0,0,90,false,stim,true,1,73,1,0,0,56472,task2,1437736,false,false,1870,image-keyboard-response,2
true,18,0,1,2,false,d,false,false,0.0-2.0-0.62-0.558-3.558,0,0,0,81,false,stim,true,0,256,1,0,2,56472,task2,1439510,false,false,1873,image-keyboard-response,3
true,18,2,1,2,true,d,false,true,0.0-2.0-0.62-0.559-3.559,0,0,0,68,false,stim,false,0,570,1,0,2,56472,task2,1441613,false,false,1876,image-keyboard-response,4
true,18,1,1,1,true,z,false,true,0.0-2.0-0.62-0.560-3.560,0,0,0,90,false,stim,false,0,519,1,0,1,56472,task2,1443663,false,false,1879,image-keyboard-response,5
true,18,0,1,2,false,d,true,false,0.0-2.0-0.62-0.561-3.561,0,0,0,81,false,stim,false,1,839,1,0,0,56472,task2,1446042,false,false,1882,image-keyboard-response,6
true,18,2,1,2,true,d,false,true,0.0-2.0-0.62-0.562-3.562,0,0,0,68,false,stim,false,1,609,1,0,0,56472,task2,1448181,false,false,1885,image-keyboard-response,7
true,18,2,1,2,true,d,false,true,0.0-2.0-0.62-0.563-3.563,0,0,0,68,false,stim,false,1,461,1,0,0,56472,task2,1450174,false,false,1888,image-keyboard-response,8
true,18,0,1,1,false,z,false,false,0.0-2.0-0.62-0.564-3.564,0,0,0,81,false,stim,true,0,776,1,0,1,56472,task2,1452478,false,false,1891,image-keyboard-response,9
true,18,1,1,2,false,d,true,false,0.0-2.0-0.62-0.565-3.565,0,0,0,90,false,stim,false,0,495,1,0,2,56472,task2,1454498,false,false,1894,image-keyboard-response,10
true,18,2,1,1,false,z,true,false,0.0-2.0-0.62-0.566-3.566,0,0,0,68,false,stim,false,0,515,1,0,1,56472,task2,1456537,false,false,1897,image-keyboard-response,11
true,18,2,1,1,false,z,true,false,0.0-2.0-0.63-0.567-3.567,0,0,0,68,false,stim,false,0,953,1,0,1,56472,task2,1459005,false,false,1900,image-keyboard-response,12
true,18,2,1,2,true,d,false,false,0.0-2.0-0.63-0.568-3.568,0,0,0,68,false,stim,false,0,971,1,0,2,56472,task2,1461525,false,true,1903,image-keyboard-response,13
true,18,2,1,1,false,z,true,false,0.0-2.0-0.63-0.569-3.569,0,0,0,68,false,stim,false,0,446,1,0,1,56472,task2,1463509,false,false,1906,image-keyboard-response,14
true,18,2,1,2,true,d,false,false,0.0-2.0-0.63-0.570-3.570,0,0,0,68,false,stim,false,1,311,1,0,0,56472,task2,1465353,false,true,1909,image-keyboard-response,15
true,18,1,1,2,false,d,false,false,0.0-2.0-0.63-0.571-3.571,0,0,0,90,false,stim,true,1,531,1,0,0,56472,task2,1467414,false,false,1912,image-keyboard-response,16
true,18,1,1,1,true,z,false,true,0.0-2.0-0.63-0.572-3.572,0,0,0,90,false,stim,false,0,347,1,0,1,56472,task2,1469290,false,false,1915,image-keyboard-response,17
true,18,1,1,2,false,d,true,false,0.0-2.0-0.63-0.573-3.573,0,0,0,90,false,stim,false,0,678,1,0,2,56472,task2,1471491,false,false,1918,image-keyboard-response,18
true,18,0,1,2,false,d,false,false,0.0-2.0-0.63-0.574-3.574,0,0,0,81,false,stim,true,0,537,1,0,2,56472,task2,1473550,false,false,1921,image-keyboard-response,19
true,18,0,1,2,false,d,true,false,0.0-2.0-0.63-0.575-3.575,0,0,0,81,false,stim,false,1,517,1,0,0,56472,task2,1475599,false,false,1924,image-keyboard-response,20
true,18,0,1,2,false,d,false,false,0.0-2.0-0.64-0.576-3.576,0,0,0,81,false,stim,true,0,874,1,0,2,56472,task2,1477998,false,false,1927,image-keyboard-response,21
true,18,1,1,1,true,z,false,true,0.0-2.0-0.64-0.577-3.577,0,0,0,90,false,stim,false,0,349,1,0,1,56472,task2,1479882,false,false,1930,image-keyboard-response,22
true,18,1,1,1,true,z,false,true,0.0-2.0-0.64-0.578-3.578,0,0,0,90,false,stim,false,0,598,1,0,1,56472,task2,1482011,false,false,1933,image-keyboard-response,23
true,18,2,1,2,true,d,false,true,0.0-2.0-0.64-0.579-3.579,0,0,0,68,false,stim,false,0,682,1,0,2,56472,task2,1484235,false,false,1936,image-keyboard-response,24
true,18,2,1,2,true,d,false,true,0.0-2.0-0.64-0.580-3.580,0,0,0,68,false,stim,false,1,1341,1,0,0,56472,task2,1487095,false,false,1939,image-keyboard-response,25
true,18,2,1,2,true,d,false,true,0.0-2.0-0.64-0.581-3.581,0,0,0,68,false,stim,false,1,436,1,0,0,56472,task2,1489049,false,false,1942,image-keyboard-response,26
true,18,1,1,1,true,z,false,false,0.0-2.0-0.64-0.582-3.582,0,0,0,90,false,stim,false,0,889,1,0,1,56472,task2,1491472,false,true,1945,image-keyboard-response,27
true,18,2,1,2,true,d,false,true,0.0-2.0-0.64-0.583-3.583,0,0,0,68,false,stim,false,1,298,1,0,0,56472,task2,1493300,false,false,1948,image-keyboard-response,28
true,18,2,1,2,true,d,false,true,0.0-2.0-0.64-0.584-3.584,0,0,0,68,false,stim,false,0,348,1,0,2,56472,task2,1495180,false,false,1951,image-keyboard-response,29
true,18,2,1,2,true,d,false,true,0.0-2.0-0.65-0.585-3.585,0,0,0,68,false,stim,false,1,664,1,0,0,56472,task2,1497377,false,false,1954,image-keyboard-response,30
true,18,2,1,2,true,d,false,true,0.0-2.0-0.65-0.586-3.586,0,0,0,68,false,stim,false,0,770,1,0,2,56472,task2,1499684,false,false,1957,image-keyboard-response,31
true,18,2,1,2,true,d,false,true,0.0-2.0-0.65-0.587-3.587,0,0,0,68,false,stim,false,0,436,1,0,2,56472,task2,1501639,false,false,1960,image-keyboard-response,32
true,18,2,1,2,true,d,false,true,0.0-2.0-0.65-0.588-3.588,0,0,0,68,false,stim,false,0,394,1,1,2,56472,task2,1503557,false,false,1963,image-keyboard-response,33
true,18,1,1,2,false,d,false,false,0.0-2.0-0.65-0.589-3.589,0,0,0,90,false,stim,true,1,883,1,0,0,56472,task2,1505966,false,false,1966,image-keyboard-response,34
true,18,1,1,1,true,z,false,true,0.0-2.0-0.65-0.590-3.590,0,0,0,90,false,stim,false,0,703,1,0,1,56472,task2,1508186,false,false,1969,image-keyboard-response,35
true,18,2,1,2,true,d,false,true,0.0-2.0-0.65-0.591-3.591,0,0,0,68,false,stim,false,1,603,1,0,0,56472,task2,1510315,false,false,1972,image-keyboard-response,36
true,18,2,1,1,false,z,true,false,0.0-2.0-0.65-0.592-3.592,0,0,0,68,false,stim,false,0,352,1,0,1,56472,task2,1512195,false,false,1975,image-keyboard-response,37
true,19,2,2,2,true,d,false,true,0.0-2.0-0.65-0.593-3.593,0,0,1,68,true,stim,false,1,571,1,0,1,56472,task2,1514294,false,false,1978,image-keyboard-response,1
true,19,1,2,2,false,d,true,false,0.0-2.0-0.66-0.594-3.594,0,0,1,90,false,stim,false,2,521,1,1,2,56472,task2,1516343,false,false,1981,image-keyboard-response,2
true,19,1,2,2,false,d,false,false,0.0-2.0-0.66-0.595-3.595,0,0,1,90,false,stim,true,1,569,1,0,1,56472,task2,1518442,false,false,1984,image-keyboard-response,3
true,19,2,2,2,true,d,false,true,0.0-2.0-0.66-0.596-3.596,0,0,1,68,false,stim,false,1,538,1,0,1,56472,task2,1520512,false,false,1987,image-keyboard-response,4
true,19,2,2,2,true,d,false,true,0.0-2.0-0.66-0.597-3.597,0,0,1,68,false,stim,false,2,1162,1,1,2,56472,task2,1523205,false,false,1990,image-keyboard-response,5
true,19,2,2,2,true,d,false,true,0.0-2.0-0.66-0.598-3.598,0,0,1,68,false,stim,false,1,398,1,0,1,56472,task2,1525140,false,false,1993,image-keyboard-response,6
true,19,0,2,1,false,z,true,false,0.0-2.0-0.66-0.599-3.599,0,0,1,81,false,stim,false,2,486,1,0,0,56472,task2,1527150,false,false,1996,image-keyboard-response,7
true,19,0,2,1,false,z,true,false,0.0-2.0-0.66-0.600-3.600,0,0,1,81,false,stim,false,2,790,1,0,0,56472,task2,1529462,false,false,1999,image-keyboard-response,8
true,19,2,2,1,false,z,false,false,0.0-2.0-0.66-0.601-3.601,0,0,1,68,false,stim,true,2,500,1,0,0,56472,task2,1531493,false,false,2002,image-keyboard-response,9
true,19,2,2,2,true,d,false,true,0.0-2.0-0.66-0.602-3.602,0,0,1,68,false,stim,false,2,579,1,1,2,56472,task2,1533613,false,false,2005,image-keyboard-response,10
true,19,2,2,2,true,d,false,true,0.0-2.0-0.67-0.603-3.603,0,0,1,68,false,stim,false,2,503,1,1,2,56472,task2,1535656,false,false,2008,image-keyboard-response,11
true,19,2,2,2,true,d,false,false,0.0-2.0-0.67-0.604-3.604,0,0,1,68,false,stim,false,1,773,1,0,1,56472,task2,1537956,false,true,2011,image-keyboard-response,12
true,19,1,2,1,true,z,false,true,0.0-2.0-0.67-0.605-3.605,0,0,1,90,false,stim,false,2,472,1,0,0,56472,task2,1539955,false,false,2014,image-keyboard-response,13
true,19,2,2,2,true,d,false,true,0.0-2.0-0.67-0.606-3.606,0,0,1,68,false,stim,false,2,507,1,1,2,56472,task2,1541999,false,false,2017,image-keyboard-response,14
true,19,2,2,2,true,d,false,true,0.0-2.0-0.67-0.607-3.607,0,0,1,68,false,stim,false,1,377,1,0,1,56472,task2,1543910,false,false,2020,image-keyboard-response,15
true,19,1,2,1,true,z,false,true,0.0-2.0-0.67-0.608-3.608,0,0,1,90,false,stim,false,2,369,1,0,0,56472,task2,1545793,false,false,2023,image-keyboard-response,16
true,19,1,2,1,true,z,false,false,0.0-2.0-0.67-0.609-3.609,0,0,1,90,false,stim,false,2,530,1,0,0,56472,task2,1547853,false,true,2026,image-keyboard-response,17
true,19,2,2,2,true,d,false,true,0.0-2.0-0.67-0.610-3.610,0,0,1,68,false,stim,false,1,2114,1,0,1,56472,task2,1551498,false,false,2029,image-keyboard-response,18
true,19,2,2,2,true,d,false,true,0.0-2.0-0.67-0.611-3.611,0,0,1,68,false,stim,false,2,365,1,1,2,56472,task2,1553398,false,false,2032,image-keyboard-response,19
true,19,2,2,2,true,d,false,true,0.0-2.0-0.68-0.612-3.612,0,0,1,68,false,stim,false,2,688,1,1,2,56472,task2,1555621,false,false,2035,image-keyboard-response,20
true,19,2,2,2,true,d,false,true,0.0-2.0-0.68-0.613-3.613,0,0,1,68,false,stim,false,2,507,1,1,2,56472,task2,1557671,false,false,2038,image-keyboard-response,21
true,19,1,2,2,false,d,false,false,0.0-2.0-0.68-0.614-3.614,0,0,1,90,false,stim,true,1,1075,1,0,1,56472,task2,1560264,false,false,2041,image-keyboard-response,22
true,19,2,2,2,true,d,false,true,0.0-2.0-0.68-0.615-3.615,0,0,1,68,false,stim,false,2,396,1,1,2,56472,task2,1562199,false,false,2044,image-keyboard-response,23
true,19,1,2,1,true,z,false,true,0.0-2.0-0.68-0.616-3.616,0,0,1,90,false,stim,false,2,555,1,0,0,56472,task2,1564289,false,false,2047,image-keyboard-response,24
true,19,2,2,2,true,d,false,true,0.0-2.0-0.68-0.617-3.617,0,0,1,68,false,stim,false,1,505,1,0,1,56472,task2,1566319,false,false,2050,image-keyboard-response,25
true,19,1,2,1,true,z,false,true,0.0-2.0-0.68-0.618-3.618,0,0,1,90,false,stim,false,2,520,1,0,0,56472,task2,1568373,false,false,2053,image-keyboard-response,26
true,19,2,2,2,true,d,false,true,0.0-2.0-0.68-0.619-3.619,0,0,1,68,false,stim,false,1,1039,1,1,1,56472,task2,1570942,false,false,2056,image-keyboard-response,27
true,19,1,2,1,true,z,false,true,0.0-2.0-0.68-0.620-3.620,0,0,1,90,false,stim,false,2,468,1,0,0,56472,task2,1572931,false,false,2059,image-keyboard-response,28
true,19,2,2,2,true,d,false,true,0.0-2.0-0.69-0.621-3.621,0,0,1,68,false,stim,false,2,278,1,0,2,56472,task2,1574740,false,false,2062,image-keyboard-response,29
true,19,1,2,2,false,d,true,false,0.0-2.0-0.69-0.622-3.622,0,0,1,90,false,stim,false,2,227,1,0,2,56472,task2,1576500,false,false,2065,image-keyboard-response,30
true,19,2,2,2,true,d,false,true,0.0-2.0-0.69-0.623-3.623,0,0,1,68,false,stim,false,2,313,1,0,2,56472,task2,1578345,false,false,2068,image-keyboard-response,31
true,20,2,2,0,false,q,true,false,0.0-2.0-0.69-0.624-3.624,0,1,0,68,true,stim,false,1,511,1,0,0,56472,task2,1580385,false,false,2071,image-keyboard-response,1
true,20,1,2,0,false,q,false,true,0.0-2.0-0.69-0.625-3.625,0,1,0,90,false,stim,true,1,461,1,0,0,56472,task2,1582384,false,true,2074,image-keyboard-response,2
true,20,2,2,2,true,d,false,true,0.0-2.0-0.69-0.626-3.626,0,1,0,68,false,stim,false,2,780,1,1,1,56472,task2,1584703,false,false,2077,image-keyboard-response,3
true,20,2,2,2,true,d,false,true,0.0-2.0-0.69-0.627-3.627,0,1,0,68,false,stim,false,2,629,1,1,1,56472,task2,1586862,false,false,2080,image-keyboard-response,4
true,20,2,2,2,true,d,false,true,0.0-2.0-0.69-0.628-3.628,0,1,0,68,false,stim,false,2,518,1,1,1,56472,task2,1588912,false,false,2083,image-keyboard-response,5
true,20,1,2,0,false,q,false,false,0.0-2.0-0.69-0.629-3.629,0,1,0,90,false,stim,true,1,614,1,0,0,56472,task2,1591066,false,false,2086,image-keyboard-response,6
true,20,1,2,0,false,q,false,false,0.0-2.0-0.70-0.630-3.630,0,1,0,90,false,stim,true,1,348,1,0,0,56472,task2,1592951,false,false,2089,image-keyboard-response,7
true,20,1,2,0,false,q,false,false,0.0-2.0-0.70-0.631-3.631,0,1,0,90,false,stim,true,1,622,1,0,0,56472,task2,1595105,false,false,2092,image-keyboard-response,8
true,20,0,2,0,true,q,false,true,0.0-2.0-0.70-0.632-3.632,0,1,0,81,false,stim,false,1,546,1,0,0,56472,task2,1597189,false,false,2095,image-keyboard-response,9
true,20,2,2,0,false,q,false,false,0.0-2.0-0.70-0.633-3.633,0,1,0,68,false,stim,true,2,727,1,0,2,56472,task2,1599440,false,false,2098,image-keyboard-response,10
true,20,1,2,0,false,q,true,false,0.0-2.0-0.70-0.634-3.634,0,1,0,90,false,stim,false,2,487,1,0,2,56472,task2,1601469,false,false,2101,image-keyboard-response,11
