answered,blockNum,choice,condition,corResp,correct,correct_response,explo,fb,internal_node_id,isStable_1,isStable_2,isStable_3,key_press,newBlock,part,persev,persevResp,rt,sessNum,stableAS,stimulus,subject,task,time_elapsed,training,trap,trial_index,trial_type,trialsInBlock
true,1,1,0,2,false,d,true,false,0.0-2.0-0.0-0.0-3.0,0,0,0,90,true,stim,false,-1,1438.9000000953674,0,0,1,59963,task3,308555,false,false,188,image-keyboard-response,1
true,1,0,0,0,true,q,false,true,0.0-2.0-0.0-0.1-3.1,0,0,0,81,false,stim,false,-1,1073.0,0,0,2,59963,task3,311148,false,false,191,image-keyboard-response,2
true,1,2,0,1,false,z,true,false,0.0-2.0-0.0-0.2-3.2,0,0,0,68,false,stim,false,-1,1616.0999999046326,0,0,0,59963,task3,314280,false,false,194,image-keyboard-response,3
true,1,0,0,0,true,q,false,true,0.0-2.0-0.0-0.3-3.3,0,0,0,81,false,stim,false,-1,1372.7000002861023,0,0,2,59963,task3,317174,false,false,197,image-keyboard-response,4
true,1,1,0,2,false,d,true,false,0.0-2.0-0.0-0.4-3.4,0,0,0,90,false,stim,false,-1,1433.5,0,0,1,59963,task3,320119,false,false,200,image-keyboard-response,5
true,1,0,0,1,false,z,true,false,0.0-2.0-0.0-0.5-3.5,0,0,0,81,false,stim,false,-1,1239.9000000953674,0,0,0,59963,task3,322875,false,false,203,image-keyboard-response,6
true,1,2,0,2,true,d,false,true,0.0-2.0-0.0-0.6-3.6,0,0,0,68,false,stim,false,-1,2654.7999997138977,0,0,1,59963,task3,327063,false,false,206,image-keyboard-response,7
true,1,0,0,0,true,q,false,true,0.0-2.0-0.0-0.7-3.7,0,0,0,81,false,stim,false,-1,1023.2000002861023,0,0,2,59963,task3,329594,false,false,209,image-keyboard-response,8
true,1,0,0,1,false,z,true,false,0.0-2.0-0.0-0.8-3.8,0,0,0,81,false,stim,false,-1,1546.3000001907349,0,0,0,59963,task3,332653,false,false,212,image-keyboard-response,9
true,1,2,0,2,true,d,false,true,0.0-2.0-0.1-0.9-3.9,0,0,0,68,false,stim,false,-1,754.0,0,0,1,59963,task3,334932,false,false,215,image-keyboard-response,10
true,1,2,0,2,true,d,false,true,0.0-2.0-0.1-0.10-3.10,0,0,0,68,false,stim,false,-1,1526.5,0,0,1,59963,task3,337983,false,false,218,image-keyboard-response,11
true,1,0,0,0,true,q,false,true,0.0-2.0-0.1-0.11-3.11,0,0,0,81,false,stim,false,-1,546.1999998092651,0,0,2,59963,task3,340091,false,false,221,image-keyboard-response,12
true,1,2,0,2,true,d,false,true,0.0-2.0-0.1-0.12-3.12,0,0,0,68,false,stim,false,-1,966.4000000953674,0,0,1,59963,task3,342581,false,false,224,image-keyboard-response,13
true,1,2,0,1,false,z,true,true,0.0-2.0-0.1-0.13-3.13,0,0,0,68,false,stim,false,-1,1042.2999997138977,0,0,0,59963,task3,345138,false,true,227,image-keyboard-response,14
true,1,0,0,0,true,q,false,true,0.0-2.0-0.1-0.14-3.14,0,0,0,81,false,stim,false,-1,907.8000001907349,0,0,2,59963,task3,347565,false,false,230,image-keyboard-response,15
true,1,0,0,0,true,q,false,true,0.0-2.0-0.1-0.15-3.15,0,0,0,81,false,stim,false,-1,866.5999999046326,0,0,2,59963,task3,349958,false,false,233,image-keyboard-response,16
true,1,2,0,1,false,z,true,false,0.0-2.0-0.1-0.16-3.16,0,0,0,68,false,stim,false,-1,712.0,0,0,0,59963,task3,352189,false,false,236,image-keyboard-response,17
true,1,1,0,1,true,z,false,true,0.0-2.0-0.1-0.17-3.17,0,0,0,90,false,stim,false,-1,1134.0,0,0,0,59963,task3,354836,false,false,239,image-keyboard-response,18
true,1,0,0,0,true,q,false,true,0.0-2.0-0.2-0.18-3.18,0,0,0,81,false,stim,false,-1,1470.5,0,0,2,59963,task3,357841,false,false,242,image-keyboard-response,19
true,1,2,0,2,true,d,false,true,0.0-2.0-0.2-0.19-3.19,0,0,0,68,false,stim,false,-1,843.9000000953674,0,0,1,59963,task3,360198,false,false,245,image-keyboard-response,20
true,1,0,0,0,true,q,false,true,0.0-2.0-0.2-0.20-3.20,0,0,0,81,false,stim,false,-1,1326.7999997138977,0,0,2,59963,task3,363052,false,false,248,image-keyboard-response,21
true,1,1,0,1,true,z,false,true,0.0-2.0-0.2-0.21-3.21,0,0,0,90,false,stim,false,-1,841.8000001907349,0,0,0,59963,task3,365417,false,false,251,image-keyboard-response,22
true,1,2,0,2,true,d,false,true,0.0-2.0-0.2-0.22-3.22,0,0,0,68,false,stim,false,-1,1272.4000000953674,0,0,1,59963,task3,368216,false,false,254,image-keyboard-response,23
true,1,1,0,1,true,z,false,true,0.0-2.0-0.2-0.23-3.23,0,0,0,90,false,stim,false,-1,769.0,0,0,0,59963,task3,370507,false,false,257,image-keyboard-response,24
true,1,0,0,0,true,q,false,true,0.0-2.0-0.2-0.24-3.24,0,0,0,81,false,stim,false,-1,750.2999997138977,0,0,2,59963,task3,372786,false,false,260,image-keyboard-response,25
true,1,2,0,2,true,d,false,true,0.0-2.0-0.2-0.25-3.25,0,0,0,68,false,stim,false,-1,924.3999996185303,0,1,1,59963,task3,375239,false,false,263,image-keyboard-response,26
true,1,1,0,1,true,z,false,false,0.0-2.0-0.2-0.26-3.26,0,0,0,90,false,stim,false,-1,377.30000019073486,0,0,0,59963,task3,377135,false,true,266,image-keyboard-response,27
true,1,0,0,1,false,z,true,false,0.0-2.0-0.3-0.27-3.27,0,0,0,81,false,stim,false,-1,1258.0999999046326,0,0,0,59963,task3,379911,false,false,269,image-keyboard-response,28
true,2,2,1,2,true,d,false,true,0.0-2.0-0.3-0.28-3.28,0,1,0,68,true,stim,false,1,845.7000002861023,0,0,0,59963,task3,382292,false,false,272,image-keyboard-response,1
true,2,0,1,1,false,z,false,false,0.0-2.0-0.3-0.29-3.29,0,1,0,81,false,stim,true,0,989.4000000953674,0,0,2,59963,task3,384803,false,false,275,image-keyboard-response,2
true,2,1,1,1,true,z,false,true,0.0-2.0-0.3-0.30-3.30,0,1,0,90,false,stim,false,0,1480.2000002861023,0,0,2,59963,task3,387804,false,false,278,image-keyboard-response,3
true,2,1,1,1,true,z,false,false,0.0-2.0-0.3-0.31-3.31,0,1,0,90,false,stim,false,0,1563.7000002861023,0,0,2,59963,task3,390894,false,true,281,image-keyboard-response,4
true,2,2,1,2,true,d,false,true,0.0-2.0-0.3-0.32-3.32,0,1,0,68,false,stim,false,2,803.5,0,1,1,59963,task3,393235,false,false,284,image-keyboard-response,5
true,2,2,1,2,true,d,false,true,0.0-2.0-0.3-0.33-3.33,0,1,0,68,false,stim,false,1,958.0,0,0,0,59963,task3,395710,false,false,287,image-keyboard-response,6
true,2,2,1,2,true,d,false,true,0.0-2.0-0.3-0.34-3.34,0,1,0,68,false,stim,false,2,1387.9000000953674,0,1,1,59963,task3,398615,false,false,290,image-keyboard-response,7
true,2,2,1,2,true,d,false,true,0.0-2.0-0.3-0.35-3.35,0,1,0,68,false,stim,false,2,930.2999997138977,0,1,1,59963,task3,401070,false,false,293,image-keyboard-response,8
true,2,2,1,2,true,d,false,true,0.0-2.0-0.4-0.36-3.36,0,1,0,68,false,stim,false,2,497.90000009536743,0,1,1,59963,task3,403081,false,false,296,image-keyboard-response,9
true,2,2,1,1,false,z,true,false,0.0-2.0-0.4-0.37-3.37,0,1,0,68,false,stim,false,0,1277.5999999046326,0,0,2,59963,task3,405870,false,false,299,image-keyboard-response,10
true,2,2,1,2,true,d,false,true,0.0-2.0-0.4-0.38-3.38,0,1,0,68,false,stim,false,1,377.59999990463257,0,0,0,59963,task3,407777,false,false,302,image-keyboard-response,11
true,2,0,1,2,false,d,true,false,0.0-2.0-0.4-0.39-3.39,0,1,0,81,false,stim,false,2,982.0,0,1,1,59963,task3,410298,false,false,305,image-keyboard-response,12
true,2,2,1,1,false,z,true,false,0.0-2.0-0.4-0.40-3.40,0,1,0,68,false,stim,false,0,759.8000001907349,0,0,2,59963,task3,412584,false,false,308,image-keyboard-response,13
true,2,2,1,2,true,d,false,false,0.0-2.0-0.4-0.41-3.41,0,1,0,68,false,stim,false,1,654.5999999046326,0,0,0,59963,task3,414749,false,true,311,image-keyboard-response,14
true,2,1,1,2,false,d,false,false,0.0-2.0-0.4-0.42-3.42,0,1,0,90,false,stim,true,1,1051.9000000953674,0,0,0,59963,task3,417323,false,false,314,image-keyboard-response,15
true,2,0,1,1,false,z,false,false,0.0-2.0-0.4-0.43-3.43,0,1,0,81,false,stim,true,0,701.4000000953674,0,0,2,59963,task3,419548,false,false,317,image-keyboard-response,16
true,2,1,1,2,false,d,true,false,0.0-2.0-0.4-0.44-3.44,0,1,0,90,false,stim,false,2,1721.3000001907349,0,1,1,59963,task3,422786,false,false,320,image-keyboard-response,17
true,2,0,1,2,false,d,true,false,0.0-2.0-0.5-0.45-3.45,0,1,0,81,false,stim,false,1,1282.0,0,0,0,59963,task3,425587,false,false,323,image-keyboard-response,18
true,2,1,1,2,false,d,true,false,0.0-2.0-0.5-0.46-3.46,0,1,0,90,false,stim,false,2,1114.5999999046326,0,1,1,59963,task3,428228,false,false,326,image-keyboard-response,19
true,2,2,1,2,true,d,false,true,0.0-2.0-0.5-0.47-3.47,0,1,0,68,false,stim,false,1,631.7000002861023,0,0,0,59963,task3,430385,false,false,329,image-keyboard-response,20
true,2,2,1,2,true,d,false,true,0.0-2.0-0.5-0.48-3.48,0,1,0,68,false,stim,false,2,1967.2999997138977,0,1,1,59963,task3,433870,false,false,332,image-keyboard-response,21
true,2,2,1,1,false,z,true,false,0.0-2.0-0.5-0.49-3.49,0,1,0,68,false,stim,false,0,763.5999999046326,0,1,2,59963,task3,436160,false,false,335,image-keyboard-response,22
true,2,2,1,2,true,d,false,true,0.0-2.0-0.5-0.50-3.50,0,1,0,68,false,stim,false,2,524.2999997138977,0,1,1,59963,task3,438209,false,false,338,image-keyboard-response,23
true,2,0,1,1,false,z,false,false,0.0-2.0-0.5-0.51-3.51,0,1,0,81,false,stim,true,0,1595.8000001907349,0,1,2,59963,task3,441331,false,false,341,image-keyboard-response,24
true,3,1,2,1,true,z,false,true,0.0-2.0-0.5-0.52-3.52,0,1,1,90,true,stim,false,1,710.1999998092651,0,1,2,59963,task3,443560,false,false,344,image-keyboard-response,1
true,3,2,2,0,false,q,false,false,0.0-2.0-0.5-0.53-3.53,0,1,1,68,false,stim,true,2,545.8000001907349,0,0,0,59963,task3,445621,false,false,347,image-keyboard-response,2
true,3,0,2,0,true,q,false,true,0.0-2.0-0.6-0.54-3.54,0,1,1,81,false,stim,false,2,1204.3000001907349,0,0,0,59963,task3,448342,false,false,350,image-keyboard-response,3
true,3,0,2,0,true,q,false,false,0.0-2.0-0.6-0.55-3.55,0,1,1,81,false,stim,false,2,597.0,0,0,0,59963,task3,450470,false,true,353,image-keyboard-response,4
true,3,1,2,1,true,z,false,true,0.0-2.0-0.6-0.56-3.56,0,1,1,90,false,stim,false,1,1246.0999999046326,0,1,2,59963,task3,453236,false,false,356,image-keyboard-response,5
true,3,2,2,2,true,d,false,true,0.0-2.0-0.6-0.57-3.57,0,1,1,68,false,stim,false,2,506.40000009536743,0,1,1,59963,task3,455262,false,false,359,image-keyboard-response,6
true,3,1,2,1,true,z,false,true,0.0-2.0-0.6-0.58-3.58,0,1,1,90,false,stim,false,1,788.1999998092651,0,1,2,59963,task3,457575,false,false,362,image-keyboard-response,7
true,3,2,2,2,true,d,false,true,0.0-2.0-0.6-0.59-3.59,0,1,1,68,false,stim,false,2,740.8000001907349,0,1,1,59963,task3,459841,false,false,365,image-keyboard-response,8
true,3,1,2,1,true,z,false,true,0.0-2.0-0.6-0.60-3.60,0,1,1,90,false,stim,false,1,491.59999990463257,0,1,2,59963,task3,461872,false,false,368,image-keyboard-response,9
true,3,1,2,0,false,q,true,false,0.0-2.0-0.6-0.61-3.61,0,1,1,90,false,stim,false,2,1005.5,0,0,0,59963,task3,464393,false,false,371,image-keyboard-response,10
true,3,2,2,2,true,d,false,true,0.0-2.0-0.6-0.62-3.62,0,1,1,68,false,stim,false,2,567.4000000953674,0,1,1,59963,task3,466480,false,false,374,image-keyboard-response,11
true,3,2,2,0,false,q,false,false,0.0-2.0-0.7-0.63-3.63,0,1,1,68,false,stim,true,2,1122.0,0,0,0,59963,task3,469122,false,false,377,image-keyboard-response,12
true,3,2,2,2,true,d,false,true,0.0-2.0-0.7-0.64-3.64,0,1,1,68,false,stim,false,2,949.4000000953674,0,1,1,59963,task3,471587,false,false,380,image-keyboard-response,13
true,3,1,2,1,true,z,false,true,0.0-2.0-0.7-0.65-3.65,0,1,1,90,false,stim,false,1,552.5999999046326,0,1,2,59963,task3,473653,false,false,383,image-keyboard-response,14
true,3,1,2,1,true,z,false,true,0.0-2.0-0.7-0.66-3.66,0,1,1,90,false,stim,false,1,1057.2000002861023,0,1,2,59963,task3,476240,false,false,386,image-keyboard-response,15
true,3,0,2,0,true,q,false,true,0.0-2.0-0.7-0.67-3.67,0,1,1,81,false,stim,false,2,1112.4000000953674,0,0,0,59963,task3,478868,false,false,389,image-keyboard-response,16
true,3,1,2,1,true,z,false,true,0.0-2.0-0.7-0.68-3.68,0,1,1,90,false,stim,false,1,1361.1000003814697,0,1,2,59963,task3,481751,false,false,392,image-keyboard-response,17
true,3,2,2,2,true,d,false,true,0.0-2.0-0.7-0.69-3.69,0,1,1,68,false,stim,false,2,741.7000002861023,0,1,1,59963,task3,484020,false,false,395,image-keyboard-response,18
true,3,2,2,2,true,d,false,true,0.0-2.0-0.7-0.70-3.70,0,1,1,68,false,stim,false,2,817.8000001907349,0,1,1,59963,task3,486364,false,false,398,image-keyboard-response,19
true,3,0,2,0,true,q,false,true,0.0-2.0-0.7-0.71-3.71,0,1,1,81,false,stim,false,2,446.7999997138977,0,0,0,59963,task3,488325,false,false,401,image-keyboard-response,20
true,3,0,2,0,true,q,false,true,0.0-2.0-0.8-0.72-3.72,0,1,1,81,false,stim,false,2,743.6999998092651,0,0,0,59963,task3,490589,false,false,404,image-keyboard-response,21
true,3,0,2,0,true,q,false,true,0.0-2.0-0.8-0.73-3.73,0,1,1,81,false,stim,false,2,967.5,0,0,0,59963,task3,493091,false,false,407,image-keyboard-response,22
true,3,2,2,2,true,d,false,true,0.0-2.0-0.8-0.74-3.74,0,1,1,68,false,stim,false,2,1426.0999999046326,0,1,1,59963,task3,496037,false,false,410,image-keyboard-response,23
true,3,2,2,2,true,d,false,true,0.0-2.0-0.8-0.75-3.75,0,1,1,68,false,stim,false,2,900.0,0,1,1,59963,task3,498457,false,false,413,image-keyboard-response,24
true,3,2,2,2,true,d,false,true,0.0-2.0-0.8-0.76-3.76,0,1,1,68,false,stim,false,2,790.9000000953674,0,1,1,59963,task3,500758,false,false,416,image-keyboard-response,25
true,3,0,2,0,true,q,false,true,0.0-2.0-0.8-0.77-3.77,0,1,1,81,false,stim,false,2,996.2000002861023,0,0,0,59963,task3,503273,false,false,419,image-keyboard-response,26
true,3,1,2,1,true,z,false,true,0.0-2.0-0.8-0.78-3.78,0,1,1,90,false,stim,false,1,463.90000009536743,0,1,2,59963,task3,505266,false,false,422,image-keyboard-response,27
true,3,1,2,1,true,z,false,true,0.0-2.0-0.8-0.79-3.79,0,1,1,90,false,stim,false,1,680.8000001907349,0,1,2,59963,task3,507467,false,false,425,image-keyboard-response,28
true,4,1,2,1,true,z,false,true,0.0-2.0-0.8-0.80-3.80,0,1,1,90,true,stim,false,1,626.9000000953674,0,1,2,59963,task3,509609,false,false,428,image-keyboard-response,1
true,4,1,2,1,true,z,false,true,0.0-2.0-0.9-0.81-3.81,0,1,1,90,false,stim,false,1,506.7000002861023,0,1,2,59963,task3,511635,false,false,431,image-keyboard-response,2
true,4,0,2,1,false,z,false,false,0.0-2.0-0.9-0.82-3.82,0,1,1,81,false,stim,true,0,2167.9000000953674,0,0,0,59963,task3,515322,false,false,434,image-keyboard-response,3
true,4,1,2,1,true,z,false,true,0.0-2.0-0.9-0.83-3.83,0,1,1,90,false,stim,false,0,1079.4000000953674,0,0,0,59963,task3,517925,false,false,437,image-keyboard-response,4
true,4,2,2,2,true,d,false,true,0.0-2.0-0.9-0.84-3.84,0,1,1,68,false,stim,false,2,914.8000001907349,0,1,1,59963,task3,520363,false,false,440,image-keyboard-response,5
true,4,1,2,1,true,z,false,true,0.0-2.0-0.9-0.85-3.85,0,1,1,90,false,stim,false,0,659.0,0,0,0,59963,task3,522536,false,false,443,image-keyboard-response,6
true,4,2,2,2,true,d,false,true,0.0-2.0-0.9-0.86-3.86,0,1,1,68,false,stim,false,2,2120.199999809265,0,1,1,59963,task3,526190,false,false,446,image-keyboard-response,7
true,4,1,2,1,true,z,false,true,0.0-2.0-0.9-0.87-3.87,0,1,1,90,false,stim,false,1,562.5,0,1,2,59963,task3,528274,false,false,449,image-keyboard-response,8
true,4,1,2,1,true,z,false,true,0.0-2.0-0.9-0.88-3.88,0,1,1,90,false,stim,false,1,640.0,0,1,2,59963,task3,530445,false,false,452,image-keyboard-response,9
true,4,2,2,2,true,d,false,true,0.0-2.0-0.9-0.89-3.89,0,1,1,68,false,stim,false,2,1117.0,0,1,1,59963,task3,533081,false,false,455,image-keyboard-response,10
true,4,1,2,1,true,z,false,true,0.0-2.0-0.10-0.90-3.90,0,1,1,90,false,stim,false,1,588.4000000953674,0,0,2,59963,task3,535202,false,false,458,image-keyboard-response,11
true,4,2,2,2,true,d,false,true,0.0-2.0-0.10-0.91-3.91,0,1,1,68,false,stim,false,2,977.0999999046326,0,1,1,59963,task3,537691,false,false,461,image-keyboard-response,12
true,4,2,2,2,true,d,false,true,0.0-2.0-0.10-0.92-3.92,0,1,1,68,false,stim,false,2,624.6999998092651,0,1,1,59963,task3,539836,false,false,464,image-keyboard-response,13
true,4,1,2,1,true,z,false,true,0.0-2.0-0.10-0.93-3.93,0,1,1,90,false,stim,false,1,1304.4000000953674,0,0,2,59963,task3,542671,false,false,467,image-keyboard-response,14
true,4,1,2,1,true,z,false,true,0.0-2.0-0.10-0.94-3.94,0,1,1,90,false,stim,false,0,699.9000000953674,0,1,0,59963,task3,544894,false,false,470,image-keyboard-response,15
true,5,2,2,2,true,d,false,false,0.0-2.0-0.10-0.95-3.95,1,1,0,68,true,stim,false,2,1411.0,0,1,1,59963,task3,547823,false,true,473,image-keyboard-response,1
true,5,1,2,1,true,z,false,true,0.0-2.0-0.10-0.96-3.96,1,1,0,90,false,stim,false,1,1185.8999996185303,0,1,0,59963,task3,550534,false,false,476,image-keyboard-response,2
true,5,1,2,1,true,z,false,true,0.0-2.0-0.10-0.97-3.97,1,1,0,90,false,stim,false,1,663.2999997138977,0,1,0,59963,task3,552727,false,false,479,image-keyboard-response,3
true,5,1,2,2,false,d,false,false,0.0-2.0-0.10-0.98-3.98,1,1,0,90,false,stim,true,1,944.2000002861023,0,0,2,59963,task3,555182,false,false,482,image-keyboard-response,4
true,5,0,2,2,false,d,true,false,0.0-2.0-0.11-0.99-3.99,1,1,0,81,false,stim,false,2,1402.7999997138977,0,1,1,59963,task3,558117,false,false,485,image-keyboard-response,5
true,5,1,2,2,false,d,true,false,0.0-2.0-0.11-0.100-3.100,1,1,0,90,false,stim,false,2,740.3000001907349,0,1,1,59963,task3,560375,false,false,488,image-keyboard-response,6
true,5,2,2,2,true,d,false,true,0.0-2.0-0.11-0.101-3.101,1,1,0,68,false,stim,false,1,938.9000000953674,0,0,2,59963,task3,562835,false,false,491,image-keyboard-response,7
true,5,2,2,2,true,d,false,true,0.0-2.0-0.11-0.102-3.102,1,1,0,68,false,stim,false,1,685.8999996185303,0,0,2,59963,task3,565040,false,false,494,image-keyboard-response,8
true,5,1,2,1,true,z,false,true,0.0-2.0-0.11-0.103-3.103,1,1,0,90,false,stim,false,1,1021.1000003814697,0,1,0,59963,task3,567595,false,false,497,image-keyboard-response,9
true,5,1,2,1,true,z,false,true,0.0-2.0-0.11-0.104-3.104,1,1,0,90,false,stim,false,1,729.5,0,1,0,59963,task3,569851,false,false,500,image-keyboard-response,10
true,5,2,2,2,true,d,false,true,0.0-2.0-0.11-0.105-3.105,1,1,0,68,false,stim,false,2,1165.5999999046326,0,0,1,59963,task3,572535,false,false,503,image-keyboard-response,11
true,5,1,2,1,true,z,false,true,0.0-2.0-0.11-0.106-3.106,1,1,0,90,false,stim,false,1,560.4000000953674,0,1,0,59963,task3,574613,false,false,506,image-keyboard-response,12
true,5,2,2,2,true,d,false,true,0.0-2.0-0.11-0.107-3.107,1,1,0,68,false,stim,false,1,622.6999998092651,0,1,2,59963,task3,576755,false,false,509,image-keyboard-response,13
true,5,1,2,1,true,z,false,true,0.0-2.0-0.12-0.108-3.108,1,1,0,90,false,stim,false,1,550.5,0,1,0,59963,task3,578820,false,false,512,image-keyboard-response,14
true,6,2,2,0,false,q,false,false,0.0-2.0-0.12-0.109-3.109,1,0,1,68,true,stim,true,2,533.0999999046326,0,0,1,59963,task3,580866,false,false,515,image-keyboard-response,1
true,6,2,2,2,true,d,false,true,0.0-2.0-0.12-0.110-3.110,1,0,1,68,false,stim,false,2,629.4000000953674,0,1,2,59963,task3,583017,false,false,518,image-keyboard-response,2
true,6,2,2,2,true,d,false,true,0.0-2.0-0.12-0.111-3.111,1,0,1,68,false,stim,false,2,793.1999998092651,0,1,2,59963,task3,585328,false,false,521,image-keyboard-response,3
true,6,1,2,0,false,q,true,false,0.0-2.0-0.12-0.112-3.112,1,0,1,90,false,stim,false,2,667.4000000953674,0,0,1,59963,task3,587523,false,false,524,image-keyboard-response,4
true,6,0,2,0,true,q,false,true,0.0-2.0-0.12-0.113-3.113,1,0,1,81,false,stim,false,2,1215.5,0,0,1,59963,task3,590247,false,false,527,image-keyboard-response,5
true,6,1,2,1,true,z,false,true,0.0-2.0-0.12-0.114-3.114,1,0,1,90,false,stim,false,1,1987.8000001907349,0,1,0,59963,task3,593759,false,false,530,image-keyboard-response,6
true,6,2,2,2,true,d,false,true,0.0-2.0-0.12-0.115-3.115,1,0,1,68,false,stim,false,2,832.6999998092651,0,1,2,59963,task3,596113,false,false,533,image-keyboard-response,7
true,6,1,2,1,true,z,false,true,0.0-2.0-0.12-0.116-3.116,1,0,1,90,false,stim,false,1,637.2000002861023,0,1,0,59963,task3,598280,false,false,536,image-keyboard-response,8
true,6,2,2,2,true,d,false,true,0.0-2.0-0.13-0.117-3.117,1,0,1,68,false,stim,false,2,1172.0,0,1,2,59963,task3,600967,false,false,539,image-keyboard-response,9
true,6,1,2,1,true,z,false,true,0.0-2.0-0.13-0.118-3.118,1,0,1,90,false,stim,false,1,547.4000000953674,0,1,0,59963,task3,603036,false,false,542,image-keyboard-response,10
true,6,0,2,0,true,q,false,true,0.0-2.0-0.13-0.119-3.119,1,0,1,81,false,stim,false,2,737.0,0,0,1,59963,task3,605296,false,false,545,image-keyboard-response,11
true,6,0,2,0,true,q,false,true,0.0-2.0-0.13-0.120-3.120,1,0,1,81,false,stim,false,2,695.7999997138977,0,0,1,59963,task3,607522,false,false,548,image-keyboard-response,12
true,6,0,2,0,true,q,false,true,0.0-2.0-0.13-0.121-3.121,1,0,1,81,false,stim,false,2,460.40000009536743,0,0,1,59963,task3,609496,false,false,551,image-keyboard-response,13
true,6,1,2,1,true,z,false,true,0.0-2.0-0.13-0.122-3.122,1,0,1,90,false,stim,false,1,730.0999999046326,0,1,0,59963,task3,611757,false,false,554,image-keyboard-response,14
true,6,1,2,1,true,z,false,true,0.0-2.0-0.13-0.123-3.123,1,0,1,90,false,stim,false,1,480.90000009536743,0,1,0,59963,task3,613751,false,false,557,image-keyboard-response,15
true,6,2,2,2,true,d,false,true,0.0-2.0-0.13-0.124-3.124,1,0,1,68,false,stim,false,2,638.8000001907349,0,1,2,59963,task3,615918,false,false,560,image-keyboard-response,16
true,6,2,2,2,true,d,false,true,0.0-2.0-0.13-0.125-3.125,1,0,1,68,false,stim,false,2,937.5999999046326,0,1,2,59963,task3,618368,false,false,563,image-keyboard-response,17
true,6,2,2,2,true,d,false,true,0.0-2.0-0.14-0.126-3.126,1,0,1,68,false,stim,false,2,784.0,0,1,2,59963,task3,620689,false,false,566,image-keyboard-response,18
true,6,0,2,0,true,q,false,true,0.0-2.0-0.14-0.127-3.127,1,0,1,81,false,stim,false,2,954.4000000953674,0,0,1,59963,task3,623166,false,false,569,image-keyboard-response,19
true,6,1,2,1,true,z,false,true,0.0-2.0-0.14-0.128-3.128,1,0,1,90,false,stim,false,1,563.0999999046326,0,0,0,59963,task3,625255,false,false,572,image-keyboard-response,20
true,6,2,2,2,true,d,false,true,0.0-2.0-0.14-0.129-3.129,1,0,1,68,false,stim,false,2,789.7999997138977,0,1,2,59963,task3,627555,false,false,575,image-keyboard-response,21
true,6,1,2,1,true,z,false,true,0.0-2.0-0.14-0.130-3.130,1,0,1,90,false,stim,false,1,755.5999999046326,0,0,0,59963,task3,629859,false,false,578,image-keyboard-response,22
true,7,0,1,1,false,z,false,false,0.0-2.0-0.14-0.131-3.131,0,0,1,81,true,stim,true,0,591.0999999046326,0,0,1,59963,task3,631981,false,false,581,image-keyboard-response,1
true,7,1,1,1,true,z,false,true,0.0-2.0-0.14-0.132-3.132,0,0,1,90,false,stim,false,0,1146.0,0,0,1,59963,task3,634651,false,false,584,image-keyboard-response,2
true,7,2,1,2,true,d,false,true,0.0-2.0-0.14-0.133-3.133,0,0,1,68,false,stim,false,2,1268.5999999046326,0,1,2,59963,task3,637443,false,false,587,image-keyboard-response,3
true,7,1,1,0,false,q,false,false,0.0-2.0-0.14-0.134-3.134,0,0,1,90,false,stim,true,1,403.7000002861023,0,0,0,59963,task3,639366,false,false,590,image-keyboard-response,4
true,7,0,1,0,true,q,false,true,0.0-2.0-0.15-0.135-3.135,0,0,1,81,false,stim,false,1,990.4000000953674,0,0,0,59963,task3,641876,false,false,593,image-keyboard-response,5
true,7,0,1,0,true,q,false,true,0.0-2.0-0.15-0.136-3.136,0,0,1,81,false,stim,false,1,926.3999996185303,0,0,0,59963,task3,644323,false,false,596,image-keyboard-response,6
true,7,1,1,1,true,z,false,true,0.0-2.0-0.15-0.137-3.137,0,0,1,90,false,stim,false,0,1013.7000002861023,0,0,1,59963,task3,646857,false,false,599,image-keyboard-response,7
true,7,0,1,0,true,q,false,true,0.0-2.0-0.15-0.138-3.138,0,0,1,81,false,stim,false,1,610.7000002861023,0,0,0,59963,task3,649006,false,false,602,image-keyboard-response,8
true,7,1,1,1,true,z,false,true,0.0-2.0-0.15-0.139-3.139,0,0,1,90,false,stim,false,0,464.09999990463257,0,0,1,59963,task3,650997,false,false,605,image-keyboard-response,9
true,7,1,1,1,true,z,false,true,0.0-2.0-0.15-0.140-3.140,0,0,1,90,false,stim,false,0,1289.6000003814697,0,0,1,59963,task3,653812,false,false,608,image-keyboard-response,10
true,7,2,1,2,true,d,false,true,0.0-2.0-0.15-0.141-3.141,0,0,1,68,false,stim,false,2,968.9000000953674,0,1,2,59963,task3,656301,false,false,611,image-keyboard-response,11
true,7,2,1,2,true,d,false,true,0.0-2.0-0.15-0.142-3.142,0,0,1,68,false,stim,false,2,543.7000002861023,0,1,2,59963,task3,658357,false,false,614,image-keyboard-response,12
true,7,2,1,2,true,d,false,true,0.0-2.0-0.15-0.143-3.143,0,0,1,68,false,stim,false,2,338.40000009536743,0,1,2,59963,task3,660229,false,false,617,image-keyboard-response,13
true,7,2,1,2,true,d,false,true,0.0-2.0-0.16-0.144-3.144,0,0,1,68,false,stim,false,2,471.59999990463257,0,1,2,59963,task3,662220,false,false,620,image-keyboard-response,14
true,7,2,1,2,true,d,false,true,0.0-2.0-0.16-0.145-3.145,0,0,1,68,false,stim,false,2,606.0,0,1,2,59963,task3,664346,false,false,623,image-keyboard-response,15
true,7,2,1,2,true,d,false,true,0.0-2.0-0.16-0.146-3.146,0,0,1,68,false,stim,false,2,636.8000001907349,0,1,2,59963,task3,666508,false,false,626,image-keyboard-response,16
true,7,1,1,1,true,z,false,true,0.0-2.0-0.16-0.147-3.147,0,0,1,90,false,stim,false,0,945.9000000953674,0,0,1,59963,task3,668974,false,false,629,image-keyboard-response,17
true,7,1,1,1,true,z,false,true,0.0-2.0-0.16-0.148-3.148,0,0,1,90,false,stim,false,0,665.5999999046326,0,0,1,59963,task3,671155,false,false,632,image-keyboard-response,18
true,7,0,1,0,true,q,false,true,0.0-2.0-0.16-0.149-3.149,0,0,1,81,false,stim,false,1,559.6000003814697,0,0,0,59963,task3,673225,false,false,635,image-keyboard-response,19
true,7,1,1,1,true,z,false,false,0.0-2.0-0.16-0.150-3.150,0,0,1,90,false,stim,false,0,859.1999998092651,0,0,1,59963,task3,675612,false,true,638,image-keyboard-response,20
true,7,0,1,0,true,q,false,true,0.0-2.0-0.16-0.151-3.151,0,0,1,81,false,stim,false,1,832.3000001907349,0,0,0,59963,task3,677966,false,false,641,image-keyboard-response,21
true,7,1,1,0,false,q,false,false,0.0-2.0-0.16-0.152-3.152,0,0,1,90,false,stim,true,1,599.1000003814697,0,0,0,59963,task3,680090,false,false,644,image-keyboard-response,22
true,7,2,1,2,true,d,false,true,0.0-2.0-0.17-0.153-3.153,0,0,1,68,false,stim,false,2,669.5,0,0,2,59963,task3,682279,false,false,647,image-keyboard-response,23
true,7,0,1,1,false,z,false,false,0.0-2.0-0.17-0.154-3.154,0,0,1,81,false,stim,true,0,946.3000001907349,0,1,1,59963,task3,684756,false,false,650,image-keyboard-response,24
true,7,2,1,2,true,d,false,true,0.0-2.0-0.17-0.155-3.155,0,0,1,68,false,stim,false,2,646.5999999046326,0,0,2,59963,task3,686915,false,false,653,image-keyboard-response,25
true,7,2,1,1,false,z,true,true,0.0-2.0-0.17-0.156-3.156,0,0,1,68,false,stim,false,0,728.7000002861023,0,1,1,59963,task3,689170,false,true,656,image-keyboard-response,26
true,8,1,1,2,false,d,true,false,0.0-2.0-0.17-0.157-3.157,0,1,0,90,true,stim,false,0,484.59999990463257,0,0,0,59963,task3,691179,false,false,659,image-keyboard-response,1
true,8,2,1,1,false,z,false,false,0.0-2.0-0.17-0.158-3.158,0,1,0,68,false,stim,true,2,661.0999999046326,0,0,2,59963,task3,693371,false,false,662,image-keyboard-response,2
true,8,2,1,2,true,d,false,true,0.0-2.0-0.17-0.159-3.159,0,1,0,68,false,stim,false,0,2212.9000000953674,0,0,0,59963,task3,697103,false,false,665,image-keyboard-response,3
true,8,2,1,2,true,d,false,false,0.0-2.0-0.17-0.160-3.160,0,1,0,68,false,stim,false,0,638.4000000953674,0,0,0,59963,task3,699260,false,true,668,image-keyboard-response,4
true,8,2,1,1,false,z,true,false,0.0-2.0-0.17-0.161-3.161,0,1,0,68,false,stim,false,1,820.1999998092651,0,1,1,59963,task3,701599,false,false,671,image-keyboard-response,5
true,8,0,1,1,false,z,true,false,0.0-2.0-0.18-0.162-3.162,0,1,0,81,false,stim,false,2,1130.4000000953674,0,0,2,59963,task3,704249,false,false,674,image-keyboard-response,6
true,8,1,1,1,true,z,false,true,0.0-2.0-0.18-0.163-3.163,0,1,0,90,false,stim,false,2,643.5999999046326,0,0,2,59963,task3,706416,false,false,677,image-keyboard-response,7
true,8,0,1,1,false,z,true,true,0.0-2.0-0.18-0.164-3.164,0,1,0,81,false,stim,false,1,1263.5999999046326,0,1,1,59963,task3,709197,false,true,680,image-keyboard-response,8
true,8,0,1,2,false,d,false,false,0.0-2.0-0.18-0.165-3.165,0,1,0,81,false,stim,true,0,1470.0,0,0,0,59963,task3,712189,false,false,683,image-keyboard-response,9
true,8,2,1,2,true,d,false,true,0.0-2.0-0.18-0.166-3.166,0,1,0,68,false,stim,false,0,965.9000000953674,0,0,0,59963,task3,714677,false,false,686,image-keyboard-response,10
true,8,2,1,2,true,d,false,true,0.0-2.0-0.18-0.167-3.167,0,1,0,68,false,stim,false,0,766.1000003814697,0,0,0,59963,task3,716969,false,false,689,image-keyboard-response,11
true,8,0,1,1,false,z,true,false,0.0-2.0-0.18-0.168-3.168,0,1,0,81,false,stim,false,1,626.5999999046326,0,1,1,59963,task3,719119,false,false,692,image-keyboard-response,12
true,8,1,1,1,true,z,false,false,0.0-2.0-0.18-0.169-3.169,0,1,0,90,false,stim,false,2,900.6999998092651,0,0,2,59963,task3,721528,false,true,695,image-keyboard-response,13
true,8,0,1,1,false,z,true,false,0.0-2.0-0.18-0.170-3.170,0,1,0,81,false,stim,false,1,755.5999999046326,0,1,1,59963,task3,723798,false,false,698,image-keyboard-response,14
true,8,0,1,1,false,z,true,false,0.0-2.0-0.19-0.171-3.171,0,1,0,81,false,stim,false,2,791.6999998092651,0,0,2,59963,task3,726112,false,false,701,image-keyboard-response,15
true,8,2,1,2,true,d,false,true,0.0-2.0-0.19-0.172-3.172,0,1,0,68,false,stim,false,0,1212.2000002861023,0,0,0,59963,task3,728851,false,false,704,image-keyboard-response,16
true,8,2,1,1,false,z,true,false,0.0-2.0-0.19-0.173-3.173,0,1,0,68,false,stim,false,1,900.0,0,1,1,59963,task3,731273,false,false,707,image-keyboard-response,17
true,8,2,1,2,true,d,false,true,0.0-2.0-0.19-0.174-3.174,0,1,0,68,false,stim,false,0,659.1999998092651,0,0,0,59963,task3,733458,false,false,710,image-keyboard-response,18
true,8,2,1,1,false,z,false,false,0.0-2.0-0.19-0.175-3.175,0,1,0,68,false,stim,true,2,1023.7999997138977,0,0,2,59963,task3,736004,false,false,713,image-keyboard-response,19
true,8,1,1,1,true,z,false,true,0.0-2.0-0.19-0.176-3.176,0,1,0,90,false,stim,false,1,1566.9000000953674,0,1,1,59963,task3,739097,false,false,716,image-keyboard-response,20
true,8,1,1,1,true,z,false,true,0.0-2.0-0.19-0.177-3.177,0,1,0,90,false,stim,false,2,726.7999997138977,0,0,2,59963,task3,741350,false,false,719,image-keyboard-response,21
true,8,1,1,1,true,z,false,true,0.0-2.0-0.19-0.178-3.178,0,1,0,90,false,stim,false,1,578.4000000953674,0,0,1,59963,task3,743439,false,false,722,image-keyboard-response,22
true,8,2,1,2,true,d,false,true,0.0-2.0-0.19-0.179-3.179,0,1,0,68,false,stim,false,0,538.4000000953674,0,1,0,59963,task3,745496,false,false,725,image-keyboard-response,23
true,8,1,1,1,true,z,false,true,0.0-2.0-0.20-0.180-3.180,0,1,0,90,false,stim,false,1,549.0999999046326,0,0,1,59963,task3,747564,false,false,728,image-keyboard-response,24
true,8,1,1,1,true,z,false,true,0.0-2.0-0.20-0.181-3.181,0,1,0,90,false,stim,false,2,374.7999997138977,0,0,2,59963,task3,749467,false,false,731,image-keyboard-response,25
true,9,1,1,0,false,q,false,false,0.0-2.0-0.20-0.182-3.182,1,0,0,90,true,stim,true,1,711.5,0,0,2,59963,task3,751689,false,false,734,image-keyboard-response,1
true,9,1,1,0,false,q,false,false,0.0-2.0-0.20-0.183-3.183,1,0,0,90,false,stim,true,1,481.7000002861023,0,0,1,59963,task3,753690,false,false,737,image-keyboard-response,2
true,9,0,1,2,false,d,true,false,0.0-2.0-0.20-0.184-3.184,1,0,0,81,false,stim,false,2,1069.4000000953674,0,1,0,59963,task3,756278,false,false,740,image-keyboard-response,3
true,9,0,1,0,true,q,false,true,0.0-2.0-0.20-0.185-3.185,1,0,0,81,false,stim,false,1,624.0,0,0,1,59963,task3,758429,false,false,743,image-keyboard-response,4
true,9,2,1,2,true,d,false,true,0.0-2.0-0.20-0.186-3.186,1,0,0,68,false,stim,false,2,457.2000002861023,0,1,0,59963,task3,760412,false,false,746,image-keyboard-response,5
true,9,0,1,0,true,q,false,true,0.0-2.0-0.20-0.187-3.187,1,0,0,81,false,stim,false,1,567.1999998092651,0,0,2,59963,task3,762513,false,false,749,image-keyboard-response,6
true,9,2,1,2,true,d,false,true,0.0-2.0-0.20-0.188-3.188,1,0,0,68,false,stim,false,2,808.5999999046326,0,1,0,59963,task3,764850,false,false,752,image-keyboard-response,7
true,9,0,1,0,true,q,false,true,0.0-2.0-0.21-0.189-3.189,1,0,0,81,false,stim,false,1,619.2999997138977,0,0,2,59963,task3,766981,false,false,755,image-keyboard-response,8
true,9,2,1,2,true,d,false,true,0.0-2.0-0.21-0.190-3.190,1,0,0,68,false,stim,false,2,545.1999998092651,0,1,0,59963,task3,769064,false,false,758,image-keyboard-response,9
true,9,2,1,2,true,d,false,true,0.0-2.0-0.21-0.191-3.191,1,0,0,68,false,stim,false,2,611.0,0,1,0,59963,task3,771188,false,false,761,image-keyboard-response,10
true,9,2,1,0,false,q,true,false,0.0-2.0-0.21-0.192-3.192,1,0,0,68,false,stim,false,1,1528.9000000953674,0,0,1,59963,task3,774246,false,false,764,image-keyboard-response,11
true,9,2,1,2,true,d,false,true,0.0-2.0-0.21-0.193-3.193,1,0,0,68,false,stim,false,2,644.6999998092651,0,1,0,59963,task3,776402,false,false,767,image-keyboard-response,12
true,9,0,1,0,true,q,false,true,0.0-2.0-0.21-0.194-3.194,1,0,0,81,false,stim,false,1,393.40000009536743,0,0,1,59963,task3,778340,false,false,770,image-keyboard-response,13
true,9,0,1,0,true,q,false,true,0.0-2.0-0.21-0.195-3.195,1,0,0,81,false,stim,false,1,529.9000000953674,0,0,2,59963,task3,780387,false,false,773,image-keyboard-response,14
true,9,0,1,0,true,q,false,true,0.0-2.0-0.21-0.196-3.196,1,0,0,81,false,stim,false,1,809.4000000953674,0,0,2,59963,task3,782713,false,false,776,image-keyboard-response,15
true,9,0,1,0,true,q,false,true,0.0-2.0-0.21-0.197-3.197,1,0,0,81,false,stim,false,1,1006.3000001907349,0,0,1,59963,task3,785261,false,false,779,image-keyboard-response,16
true,9,0,1,0,true,q,false,true,0.0-2.0-0.22-0.198-3.198,1,0,0,81,false,stim,false,1,702.0999999046326,0,0,2,59963,task3,787482,false,false,782,image-keyboard-response,17
true,9,0,1,0,true,q,false,true,0.0-2.0-0.22-0.199-3.199,1,0,0,81,false,stim,false,1,543.1999998092651,0,0,1,59963,task3,789557,false,false,785,image-keyboard-response,18
true,9,2,1,2,true,d,false,true,0.0-2.0-0.22-0.200-3.200,1,0,0,68,false,stim,false,2,479.30000019073486,0,1,0,59963,task3,791562,false,false,788,image-keyboard-response,19
true,9,0,1,0,true,q,false,true,0.0-2.0-0.22-0.201-3.201,1,0,0,81,false,stim,false,1,470.5,0,0,2,59963,task3,793564,false,false,791,image-keyboard-response,20
true,9,2,1,2,true,d,false,true,0.0-2.0-0.22-0.202-3.202,1,0,0,68,false,stim,false,2,825.1999998092651,0,1,0,59963,task3,795922,false,false,794,image-keyboard-response,21
true,9,0,1,0,true,q,false,true,0.0-2.0-0.22-0.203-3.203,1,0,0,81,false,stim,false,1,1148.2000002861023,0,0,1,59963,task3,798589,false,false,797,image-keyboard-response,22
true,9,0,1,0,true,q,false,true,0.0-2.0-0.22-0.204-3.204,1,0,0,81,false,stim,false,1,668.5,0,0,2,59963,task3,800783,false,false,800,image-keyboard-response,23
true,9,0,1,0,true,q,false,true,0.0-2.0-0.22-0.205-3.205,1,0,0,81,false,stim,false,1,765.2000002861023,0,0,1,59963,task3,803071,false,false,803,image-keyboard-response,24
true,9,2,1,2,true,d,false,false,0.0-2.0-0.22-0.206-3.206,1,0,0,68,false,stim,false,2,735.1999998092651,0,0,0,59963,task3,805326,false,true,806,image-keyboard-response,25
true,9,0,1,0,true,q,false,true,0.0-2.0-0.23-0.207-3.207,1,0,0,81,false,stim,false,1,540.2000002861023,0,1,2,59963,task3,807395,false,false,809,image-keyboard-response,26
true,9,0,1,0,true,q,false,true,0.0-2.0-0.23-0.208-3.208,1,0,0,81,false,stim,false,1,610.1000003814697,0,0,1,59963,task3,809526,false,false,812,image-keyboard-response,27
true,9,0,1,0,true,q,false,true,0.0-2.0-0.23-0.209-3.209,1,0,0,81,false,stim,false,1,1275.5,0,1,2,59963,task3,812320,false,false,815,image-keyboard-response,28
true,9,0,1,0,true,q,false,true,0.0-2.0-0.23-0.210-3.210,1,0,0,81,false,stim,false,1,447.0,0,0,1,59963,task3,814288,false,false,818,image-keyboard-response,29
true,10,0,1,2,false,d,false,true,0.0-2.0-0.23-0.211-3.211,0,0,1,81,true,stim,true,0,985.2999997138977,0,0,1,59963,task3,816784,false,true,821,image-keyboard-response,1
true,10,1,1,0,false,q,true,false,0.0-2.0-0.23-0.212-3.212,0,0,1,90,false,stim,false,2,840.3000001907349,0,0,0,59963,task3,819146,false,false,824,image-keyboard-response,2
true,10,0,1,0,true,q,false,true,0.0-2.0-0.23-0.213-3.213,0,0,1,81,false,stim,false,0,532.9000000953674,0,1,2,59963,task3,821208,false,false,827,image-keyboard-response,3
true,10,0,1,0,true,q,false,true,0.0-2.0-0.23-0.214-3.214,0,0,1,81,false,stim,false,2,383.19999980926514,0,0,0,59963,task3,823126,false,false,830,image-keyboard-response,4
true,10,0,1,0,true,q,false,true,0.0-2.0-0.23-0.215-3.215,0,0,1,81,false,stim,false,2,416.59999990463257,0,0,0,59963,task3,825055,false,false,833,image-keyboard-response,5
true,10,0,1,0,true,q,false,true,0.0-2.0-0.24-0.216-3.216,0,0,1,81,false,stim,false,0,500.30000019073486,0,1,2,59963,task3,827098,false,false,836,image-keyboard-response,6
true,10,0,1,0,true,q,false,true,0.0-2.0-0.24-0.217-3.217,0,0,1,81,false,stim,false,0,384.2000002861023,0,1,2,59963,task3,828992,false,false,839,image-keyboard-response,7
true,10,0,1,0,true,q,false,true,0.0-2.0-0.24-0.218-3.218,0,0,1,81,false,stim,false,2,506.1000003814697,0,0,0,59963,task3,831024,false,false,842,image-keyboard-response,8
true,10,0,1,2,false,d,false,false,0.0-2.0-0.24-0.219-3.219,0,0,1,81,false,stim,true,0,467.6000003814697,0,1,1,59963,task3,833012,false,false,845,image-keyboard-response,9
true,10,0,1,0,true,q,false,true,0.0-2.0-0.24-0.220-3.220,0,0,1,81,false,stim,false,2,1069.2000002861023,0,1,0,59963,task3,835612,false,false,848,image-keyboard-response,10
true,10,1,1,2,false,d,true,false,0.0-2.0-0.24-0.221-3.221,0,0,1,90,false,stim,false,0,510.90000009536743,0,1,1,59963,task3,837654,false,false,851,image-keyboard-response,11
true,10,2,1,2,true,d,false,true,0.0-2.0-0.24-0.222-3.222,0,0,1,68,false,stim,false,0,699.6999998092651,0,1,1,59963,task3,839869,false,false,854,image-keyboard-response,12
true,10,0,1,0,true,q,false,true,0.0-2.0-0.24-0.223-3.223,0,0,1,81,false,stim,false,2,855.7999997138977,0,1,0,59963,task3,842254,false,false,857,image-keyboard-response,13
true,11,0,2,2,false,d,false,false,0.0-2.0-0.24-0.224-3.224,1,1,0,81,true,stim,true,0,673.0999999046326,0,0,2,59963,task3,844441,false,false,860,image-keyboard-response,1
true,11,0,2,0,true,q,false,true,0.0-2.0-0.25-0.225-3.225,1,1,0,81,false,stim,false,0,620.5,0,1,0,59963,task3,846585,false,false,863,image-keyboard-response,2
true,11,0,2,0,true,q,false,true,0.0-2.0-0.25-0.226-3.226,1,1,0,81,false,stim,false,0,694.9000000953674,0,1,0,59963,task3,848797,false,false,866,image-keyboard-response,3
true,11,0,2,0,true,q,false,true,0.0-2.0-0.25-0.227-3.227,1,1,0,81,false,stim,false,0,440.09999990463257,0,1,0,59963,task3,850759,false,false,869,image-keyboard-response,4
true,11,2,2,2,true,d,false,true,0.0-2.0-0.25-0.228-3.228,1,1,0,68,false,stim,false,0,798.1000003814697,0,0,2,59963,task3,853069,false,false,872,image-keyboard-response,5
true,11,2,2,2,true,d,false,true,0.0-2.0-0.25-0.229-3.229,1,1,0,68,false,stim,false,0,481.69999980926514,0,0,2,59963,task3,855070,false,false,875,image-keyboard-response,6
true,11,2,2,2,true,d,false,true,0.0-2.0-0.25-0.230-3.230,1,1,0,68,false,stim,false,0,381.5,0,0,2,59963,task3,856977,false,false,878,image-keyboard-response,7
true,11,2,2,2,true,d,false,true,0.0-2.0-0.25-0.231-3.231,1,1,0,68,false,stim,false,2,461.30000019073486,0,0,1,59963,task3,858966,false,false,881,image-keyboard-response,8
true,11,2,2,2,true,d,false,true,0.0-2.0-0.25-0.232-3.232,1,1,0,68,false,stim,false,2,469.5,0,0,1,59963,task3,860963,false,false,884,image-keyboard-response,9
true,11,2,2,2,true,d,false,true,0.0-2.0-0.25-0.233-3.233,1,1,0,68,false,stim,false,2,553.5,0,0,1,59963,task3,863045,false,false,887,image-keyboard-response,10
true,11,2,2,2,true,d,false,true,0.0-2.0-0.26-0.234-3.234,1,1,0,68,false,stim,false,0,665.4000000953674,0,1,2,59963,task3,865243,false,false,890,image-keyboard-response,11
true,11,2,2,2,true,d,false,true,0.0-2.0-0.26-0.235-3.235,1,1,0,68,false,stim,false,0,475.59999990463257,0,1,2,59963,task3,867245,false,false,893,image-keyboard-response,12
true,12,2,1,1,false,z,false,false,0.0-2.0-0.26-0.236-3.236,0,0,1,68,true,stim,true,2,722.0,0,0,1,59963,task3,869490,false,false,896,image-keyboard-response,1
true,12,1,1,1,true,z,false,true,0.0-2.0-0.26-0.237-3.237,0,0,1,90,false,stim,false,2,1058.1999998092651,0,0,1,59963,task3,872067,false,false,899,image-keyboard-response,2
true,12,1,1,2,false,d,true,false,0.0-2.0-0.26-0.238-3.238,0,0,1,90,false,stim,false,2,409.7999997138977,0,1,2,59963,task3,874015,false,false,902,image-keyboard-response,3
true,12,0,1,2,false,d,false,false,0.0-2.0-0.26-0.239-3.239,0,0,1,81,false,stim,true,0,565.5,0,0,0,59963,task3,876108,false,false,905,image-keyboard-response,4
true,12,1,1,2,false,d,true,false,0.0-2.0-0.26-0.240-3.240,0,0,1,90,false,stim,false,0,1124.5,0,0,0,59963,task3,878762,false,false,908,image-keyboard-response,5
true,12,1,1,1,true,z,false,true,0.0-2.0-0.26-0.241-3.241,0,0,1,90,false,stim,false,2,1400.1999998092651,0,0,1,59963,task3,881683,false,false,911,image-keyboard-response,6
true,12,2,1,2,true,d,false,true,0.0-2.0-0.26-0.242-3.242,0,0,1,68,false,stim,false,0,673.3000001907349,0,0,0,59963,task3,883888,false,false,914,image-keyboard-response,7
true,12,1,1,2,false,d,true,false,0.0-2.0-0.27-0.243-3.243,0,0,1,90,false,stim,false,2,699.7999997138977,0,1,2,59963,task3,886102,false,false,917,image-keyboard-response,8
true,12,0,1,2,false,d,true,true,0.0-2.0-0.27-0.244-3.244,0,0,1,81,false,stim,false,2,517.5999999046326,0,1,2,59963,task3,888144,false,true,920,image-keyboard-response,9
true,12,0,1,2,false,d,true,false,0.0-2.0-0.27-0.245-3.245,0,0,1,81,false,stim,false,2,673.6000003814697,0,1,2,59963,task3,890350,false,false,923,image-keyboard-response,10
true,12,1,1,1,true,z,false,true,0.0-2.0-0.27-0.246-3.246,0,0,1,90,false,stim,false,2,1183.3000001907349,0,0,1,59963,task3,893043,false,false,926,image-keyboard-response,11
true,12,1,1,1,true,z,false,true,0.0-2.0-0.27-0.247-3.247,0,0,1,90,false,stim,false,2,759.7999997138977,0,0,1,59963,task3,895318,false,false,929,image-keyboard-response,12
true,12,1,1,1,true,z,false,true,0.0-2.0-0.27-0.248-3.248,0,0,1,90,false,stim,false,2,460.5,0,0,1,59963,task3,897302,false,false,932,image-keyboard-response,13
true,12,2,1,2,true,d,false,true,0.0-2.0-0.27-0.249-3.249,0,0,1,68,false,stim,false,0,625.1999998092651,0,0,0,59963,task3,899451,false,false,935,image-keyboard-response,14
true,12,2,1,2,true,d,false,true,0.0-2.0-0.27-0.250-3.250,0,0,1,68,false,stim,false,0,658.7000002861023,0,0,0,59963,task3,901639,false,false,938,image-keyboard-response,15
true,12,2,1,2,true,d,false,true,0.0-2.0-0.27-0.251-3.251,0,0,1,68,false,stim,false,0,533.9000000953674,0,0,0,59963,task3,903685,false,false,941,image-keyboard-response,16
true,12,2,1,2,true,d,false,true,0.0-2.0-0.28-0.252-3.252,0,0,1,68,false,stim,false,0,444.09999990463257,0,0,0,59963,task3,905663,false,false,944,image-keyboard-response,17
true,12,1,1,2,false,d,true,false,0.0-2.0-0.28-0.253-3.253,0,0,1,90,false,stim,false,2,498.19999980926514,0,1,2,59963,task3,907689,false,false,947,image-keyboard-response,18
true,12,1,1,1,true,z,false,true,0.0-2.0-0.28-0.254-3.254,0,0,1,90,false,stim,false,2,705.1999998092651,0,1,1,59963,task3,909913,false,false,950,image-keyboard-response,19
true,12,2,1,2,true,d,false,true,0.0-2.0-0.28-0.255-3.255,0,0,1,68,false,stim,false,0,614.0999999046326,0,0,0,59963,task3,912051,false,false,953,image-keyboard-response,20
true,12,2,1,2,true,d,false,true,0.0-2.0-0.28-0.256-3.256,0,0,1,68,false,stim,false,2,518.9000000953674,0,1,2,59963,task3,914099,false,false,956,image-keyboard-response,21
true,12,2,1,2,true,d,false,true,0.0-2.0-0.28-0.257-3.257,0,0,1,68,false,stim,false,0,1183.7999997138977,0,0,0,59963,task3,916804,false,false,959,image-keyboard-response,22
true,12,1,1,1,true,z,false,true,0.0-2.0-0.28-0.258-3.258,0,0,1,90,false,stim,false,2,421.7999997138977,0,1,1,59963,task3,918757,false,false,962,image-keyboard-response,23
true,13,1,2,1,true,z,false,false,0.0-2.0-0.28-0.259-3.259,0,1,1,90,true,stim,false,1,781.7999997138977,0,1,1,59963,task3,921056,false,true,965,image-keyboard-response,1
true,13,2,2,2,true,d,false,true,0.0-2.0-0.28-0.260-3.260,0,1,1,68,false,stim,false,2,953.1999998092651,0,1,2,59963,task3,923526,false,false,968,image-keyboard-response,2
true,13,2,2,1,false,z,false,false,0.0-2.0-0.29-0.261-3.261,0,1,1,68,false,stim,true,2,626.1999998092651,0,0,0,59963,task3,925674,false,false,971,image-keyboard-response,3
true,13,0,2,1,false,z,true,false,0.0-2.0-0.29-0.262-3.262,0,1,1,81,false,stim,false,2,673.5999999046326,0,0,0,59963,task3,927875,false,false,974,image-keyboard-response,4
true,13,0,2,1,false,z,true,false,0.0-2.0-0.29-0.263-3.263,0,1,1,81,false,stim,false,1,1269.0,0,1,1,59963,task3,930665,false,false,977,image-keyboard-response,5
true,13,2,2,1,false,z,true,false,0.0-2.0-0.29-0.264-3.264,0,1,1,68,false,stim,false,1,755.1000003814697,0,1,1,59963,task3,932940,false,false,980,image-keyboard-response,6
true,13,1,2,1,true,z,false,true,0.0-2.0-0.29-0.265-3.265,0,1,1,90,false,stim,false,2,1223.4000000953674,0,0,0,59963,task3,935681,false,false,983,image-keyboard-response,7
true,13,2,2,2,true,d,false,true,0.0-2.0-0.29-0.266-3.266,0,1,1,68,false,stim,false,2,1041.0,0,1,2,59963,task3,938252,false,false,986,image-keyboard-response,8
true,13,2,2,2,true,d,false,true,0.0-2.0-0.29-0.267-3.267,0,1,1,68,false,stim,false,2,539.9000000953674,0,1,2,59963,task3,940310,false,false,989,image-keyboard-response,9
true,13,2,2,2,true,d,false,true,0.0-2.0-0.29-0.268-3.268,0,1,1,68,false,stim,false,2,659.0,0,0,2,59963,task3,942487,false,false,992,image-keyboard-response,10
true,13,1,2,1,true,z,false,true,0.0-2.0-0.29-0.269-3.269,0,1,1,90,false,stim,false,1,846.4000000953674,0,1,1,59963,task3,944855,false,false,995,image-keyboard-response,11
true,13,1,2,1,true,z,false,false,0.0-2.0-0.30-0.270-3.270,0,1,1,90,false,stim,false,1,508.09999990463257,0,1,1,59963,task3,946876,false,true,998,image-keyboard-response,12
true,13,2,2,2,true,d,false,false,0.0-2.0-0.30-0.271-3.271,0,1,1,68,false,stim,false,2,837.4000000953674,0,0,2,59963,task3,949251,false,true,1001,image-keyboard-response,13
true,13,0,2,2,false,d,true,true,0.0-2.0-0.30-0.272-3.272,0,1,1,81,false,stim,false,2,657.6999998092651,0,0,2,59963,task3,951432,false,true,1004,image-keyboard-response,14
false,14,-1,2,1,false,z,true,false,0.0-2.0-0.30-0.273-3.273,1,1,0,,true,stim,false,1,,0,1,0,59963,task3,955958,false,false,1007,image-keyboard-response,1
true,14,1,2,1,true,z,false,true,0.0-2.0-0.30-0.274-3.274,1,1,0,90,false,stim,false,1,1295.5,0,1,1,59963,task3,958778,false,false,1010,image-keyboard-response,2
true,14,1,2,1,true,z,false,true,0.0-2.0-0.30-0.275-3.275,1,1,0,90,false,stim,false,1,518.4000000953674,0,1,1,59963,task3,960810,false,false,1013,image-keyboard-response,3
true,14,1,2,1,true,z,false,true,0.0-2.0-0.30-0.276-3.276,1,1,0,90,false,stim,false,1,929.6999998092651,0,1,0,59963,task3,963256,false,false,1016,image-keyboard-response,4
true,14,1,2,1,true,z,false,false,0.0-2.0-0.30-0.277-3.277,1,1,0,90,false,stim,false,1,961.0999999046326,0,1,0,59963,task3,965742,false,true,1019,image-keyboard-response,5
true,14,0,2,0,true,q,false,true,0.0-2.0-0.30-0.278-3.278,1,1,0,81,false,stim,false,2,879.8000001907349,0,0,2,59963,task3,968150,false,false,1022,image-keyboard-response,6
true,14,1,2,1,true,z,false,true,0.0-2.0-0.31-0.279-3.279,1,1,0,90,false,stim,false,1,437.69999980926514,0,1,1,59963,task3,970105,false,false,1025,image-keyboard-response,7
true,14,0,2,0,true,q,false,true,0.0-2.0-0.31-0.280-3.280,1,1,0,81,false,stim,false,2,892.1999998092651,0,1,2,59963,task3,972520,false,false,1028,image-keyboard-response,8
true,14,1,2,1,true,z,false,true,0.0-2.0-0.31-0.281-3.281,1,1,0,90,false,stim,false,1,562.0,0,1,1,59963,task3,974592,false,false,1031,image-keyboard-response,9
true,14,0,2,1,false,z,true,false,0.0-2.0-0.31-0.282-3.282,1,1,0,81,false,stim,false,1,537.5,0,0,0,59963,task3,976653,false,false,1034,image-keyboard-response,10
true,14,0,2,0,true,q,false,true,0.0-2.0-0.31-0.283-3.283,1,1,0,81,false,stim,false,2,955.9000000953674,0,1,2,59963,task3,979129,false,false,1037,image-keyboard-response,11
true,14,2,2,1,false,z,true,false,0.0-2.0-0.31-0.284-3.284,1,1,0,68,false,stim,false,1,713.5999999046326,0,0,0,59963,task3,981376,false,false,1040,image-keyboard-response,12
true,15,1,2,1,true,z,false,false,0.0-2.0-0.31-0.285-3.285,0,1,1,90,true,stim,false,1,819.3000001907349,0,1,1,59963,task3,983723,false,true,1043,image-keyboard-response,1
true,15,0,2,0,true,q,false,true,0.0-2.0-0.31-0.286-3.286,0,1,1,81,false,stim,false,0,647.5999999046326,0,1,2,59963,task3,985885,false,false,1046,image-keyboard-response,2
true,15,0,2,2,false,d,true,true,0.0-2.0-0.31-0.287-3.287,0,1,1,81,false,stim,false,1,1182.4000000953674,0,0,0,59963,task3,988584,false,true,1049,image-keyboard-response,3
true,15,2,2,1,false,z,true,false,0.0-2.0-0.32-0.288-3.288,0,1,1,68,false,stim,false,1,667.3000001907349,0,1,1,59963,task3,990773,false,false,1052,image-keyboard-response,4
true,15,0,2,1,false,z,true,false,0.0-2.0-0.32-0.289-3.289,0,1,1,81,false,stim,false,1,491.80000019073486,0,1,1,59963,task3,992803,false,false,1055,image-keyboard-response,5
true,15,0,2,2,false,d,true,false,0.0-2.0-0.32-0.290-3.290,0,1,1,81,false,stim,false,1,735.2000002861023,0,0,0,59963,task3,995048,false,false,1058,image-keyboard-response,6
true,15,0,2,0,true,q,false,true,0.0-2.0-0.32-0.291-3.291,0,1,1,81,false,stim,false,0,825.1999998092651,0,1,2,59963,task3,997404,false,false,1061,image-keyboard-response,7
true,15,1,2,2,false,d,false,false,0.0-2.0-0.32-0.292-3.292,0,1,1,90,false,stim,true,1,1108.0,0,0,0,59963,task3,1000032,false,false,1064,image-keyboard-response,8
true,15,0,2,1,false,z,true,false,0.0-2.0-0.32-0.293-3.293,0,1,1,81,false,stim,false,1,1551.5,0,1,1,59963,task3,1003113,false,false,1067,image-keyboard-response,9
true,15,0,2,0,true,q,false,true,0.0-2.0-0.32-0.294-3.294,0,1,1,81,false,stim,false,0,542.0,0,1,2,59963,task3,1005169,false,false,1070,image-keyboard-response,10
true,15,0,2,0,true,q,false,true,0.0-2.0-0.32-0.295-3.295,0,1,1,81,false,stim,false,0,499.90000009536743,0,1,2,59963,task3,1007192,false,false,1073,image-keyboard-response,11
true,15,2,2,2,true,d,false,true,0.0-2.0-0.32-0.296-3.296,0,1,1,68,false,stim,false,1,887.2999997138977,0,0,0,59963,task3,1009623,false,false,1076,image-keyboard-response,12
true,15,0,2,0,true,q,false,true,0.0-2.0-0.33-0.297-3.297,0,1,1,81,false,stim,false,0,639.9000000953674,0,1,2,59963,task3,1011789,false,false,1079,image-keyboard-response,13
true,15,2,2,2,true,d,false,true,0.0-2.0-0.33-0.298-3.298,0,1,1,68,false,stim,false,1,628.0999999046326,0,0,0,59963,task3,1013950,false,false,1082,image-keyboard-response,14
true,15,2,2,1,false,z,true,false,0.0-2.0-0.33-0.299-3.299,0,1,1,68,false,stim,false,1,1392.4000000953674,0,1,1,59963,task3,1016880,false,false,1085,image-keyboard-response,15
true,15,0,2,0,true,q,false,true,0.0-2.0-0.33-0.300-3.300,0,1,1,81,false,stim,false,0,543.0999999046326,0,1,2,59963,task3,1018938,false,false,1088,image-keyboard-response,16
true,15,2,2,2,true,d,false,true,0.0-2.0-0.33-0.301-3.301,0,1,1,68,false,stim,false,1,432.09999990463257,0,0,0,59963,task3,1020902,false,false,1091,image-keyboard-response,17
true,15,0,2,0,true,q,false,true,0.0-2.0-0.33-0.302-3.302,0,1,1,81,false,stim,false,0,563.3999996185303,0,1,2,59963,task3,1022982,false,false,1094,image-keyboard-response,18
true,15,2,2,2,true,d,false,true,0.0-2.0-0.33-0.303-3.303,0,1,1,68,false,stim,false,1,500.0,0,0,0,59963,task3,1025007,false,false,1097,image-keyboard-response,19
true,15,1,2,1,true,z,false,true,0.0-2.0-0.33-0.304-3.304,0,1,1,90,false,stim,false,1,868.0999999046326,0,1,1,59963,task3,1027399,false,false,1100,image-keyboard-response,20
true,15,1,2,1,true,z,false,true,0.0-2.0-0.33-0.305-3.305,0,1,1,90,false,stim,false,1,759.3000001907349,0,1,1,59963,task3,1029674,false,false,1103,image-keyboard-response,21
true,15,2,2,2,true,d,false,true,0.0-2.0-0.34-0.306-3.306,0,1,1,68,false,stim,false,1,598.2999997138977,0,0,0,59963,task3,1031801,false,false,1106,image-keyboard-response,22
true,15,0,2,0,true,q,false,true,0.0-2.0-0.34-0.307-3.307,0,1,1,81,false,stim,false,0,781.1999998092651,0,1,2,59963,task3,1034110,false,false,1109,image-keyboard-response,23
true,15,2,2,2,true,d,false,true,0.0-2.0-0.34-0.308-3.308,0,1,1,68,false,stim,false,1,469.30000019073486,0,0,0,59963,task3,1036092,false,false,1112,image-keyboard-response,24
true,15,0,2,0,true,q,false,true,0.0-2.0-0.34-0.309-3.309,0,1,1,81,false,stim,false,0,417.0,0,1,2,59963,task3,1038024,false,false,1115,image-keyboard-response,25
true,15,2,2,2,true,d,false,true,0.0-2.0-0.34-0.310-3.310,0,1,1,68,false,stim,false,1,533.1999998092651,0,0,0,59963,task3,1040085,false,false,1118,image-keyboard-response,26
true,15,0,2,0,true,q,false,true,0.0-2.0-0.34-0.311-3.311,0,1,1,81,false,stim,false,0,1081.2999997138977,0,1,2,59963,task3,1042687,false,false,1121,image-keyboard-response,27
true,15,1,2,1,true,z,false,true,0.0-2.0-0.34-0.312-3.312,0,1,1,90,false,stim,false,1,415.3999996185303,0,1,1,59963,task3,1044623,false,false,1124,image-keyboard-response,28
true,16,1,2,1,true,z,false,true,0.0-2.0-0.34-0.313-3.313,0,1,1,90,true,stim,false,1,604.6999998092651,0,1,1,59963,task3,1046760,false,false,1127,image-keyboard-response,1
true,16,1,2,1,true,z,false,true,0.0-2.0-0.34-0.314-3.314,0,1,1,90,false,stim,false,1,701.6000003814697,0,1,1,59963,task3,1048994,false,false,1130,image-keyboard-response,2
true,16,2,2,0,false,q,false,false,0.0-2.0-0.35-0.315-3.315,0,1,1,68,false,stim,true,2,989.3000001907349,0,0,0,59963,task3,1051501,false,false,1133,image-keyboard-response,3
true,16,0,2,0,true,q,false,true,0.0-2.0-0.35-0.316-3.316,0,1,1,81,false,stim,false,0,888.0,0,1,2,59963,task3,1053904,false,false,1136,image-keyboard-response,4
true,16,0,2,0,true,q,false,true,0.0-2.0-0.35-0.317-3.317,0,1,1,81,false,stim,false,0,530.2999997138977,0,1,2,59963,task3,1055952,false,false,1139,image-keyboard-response,5
true,16,0,2,0,true,q,false,false,0.0-2.0-0.35-0.318-3.318,0,1,1,81,false,stim,false,2,782.0999999046326,0,0,0,59963,task3,1058262,false,true,1142,image-keyboard-response,6
true,16,1,2,1,true,z,false,true,0.0-2.0-0.35-0.319-3.319,0,1,1,90,false,stim,false,1,739.5,0,1,1,59963,task3,1060546,false,false,1145,image-keyboard-response,7
true,16,1,2,1,true,z,false,true,0.0-2.0-0.35-0.320-3.320,0,1,1,90,false,stim,false,1,617.5999999046326,0,1,1,59963,task3,1062688,false,false,1148,image-keyboard-response,8
true,16,0,2,0,true,q,false,true,0.0-2.0-0.35-0.321-3.321,0,1,1,81,false,stim,false,0,609.0,0,1,2,59963,task3,1064827,false,false,1151,image-keyboard-response,9
true,16,1,2,0,false,q,true,false,0.0-2.0-0.35-0.322-3.322,0,1,1,90,false,stim,false,2,390.69999980926514,0,1,0,59963,task3,1066731,false,false,1154,image-keyboard-response,10
true,16,1,2,1,true,z,false,true,0.0-2.0-0.35-0.323-3.323,0,1,1,90,false,stim,false,1,735.0999999046326,0,1,1,59963,task3,1068985,false,false,1157,image-keyboard-response,11
true,16,1,2,1,true,z,false,true,0.0-2.0-0.36-0.324-3.324,0,1,1,90,false,stim,false,1,607.3999996185303,0,1,1,59963,task3,1071105,false,false,1160,image-keyboard-response,12
true,16,2,2,0,false,q,false,false,0.0-2.0-0.36-0.325-3.325,0,1,1,68,false,stim,true,2,555.9000000953674,0,1,0,59963,task3,1073181,false,false,1163,image-keyboard-response,13
true,16,1,2,0,false,q,true,true,0.0-2.0-0.36-0.326-3.326,0,1,1,90,false,stim,false,0,1088.0999999046326,0,0,2,59963,task3,1075791,false,true,1166,image-keyboard-response,14
true,17,1,2,1,true,z,false,true,0.0-2.0-0.36-0.327-3.327,1,1,0,90,true,stim,false,1,633.5,0,1,1,59963,task3,1077959,false,false,1169,image-keyboard-response,1
true,17,0,2,1,false,z,false,false,0.0-2.0-0.36-0.328-3.328,1,1,0,81,false,stim,true,0,370.0,0,0,2,59963,task3,1079846,false,false,1172,image-keyboard-response,2
true,17,0,2,0,true,q,false,true,0.0-2.0-0.36-0.329-3.329,1,1,0,81,false,stim,false,0,794.1999998092651,0,1,0,59963,task3,1082167,false,false,1175,image-keyboard-response,3
true,17,1,2,1,true,z,false,true,0.0-2.0-0.36-0.330-3.330,1,1,0,90,false,stim,false,0,714.1999998092651,0,0,2,59963,task3,1084418,false,false,1178,image-keyboard-response,4
true,17,0,2,0,true,q,false,true,0.0-2.0-0.36-0.331-3.331,1,1,0,81,false,stim,false,0,519.3000001907349,0,1,0,59963,task3,1086460,false,false,1181,image-keyboard-response,5
true,17,1,2,1,true,z,false,true,0.0-2.0-0.36-0.332-3.332,1,1,0,90,false,stim,false,1,288.7999997138977,0,1,1,59963,task3,1088270,false,false,1184,image-keyboard-response,6
true,17,0,2,0,true,q,false,true,0.0-2.0-0.37-0.333-3.333,1,1,0,81,false,stim,false,0,554.2999997138977,0,1,0,59963,task3,1090334,false,false,1187,image-keyboard-response,7
true,17,1,2,1,true,z,false,true,0.0-2.0-0.37-0.334-3.334,1,1,0,90,false,stim,false,1,358.40000009536743,0,0,1,59963,task3,1092224,false,false,1190,image-keyboard-response,8
true,17,1,2,1,true,z,false,true,0.0-2.0-0.37-0.335-3.335,1,1,0,90,false,stim,false,0,448.0,0,1,2,59963,task3,1094180,false,false,1193,image-keyboard-response,9
true,17,1,2,1,true,z,false,true,0.0-2.0-0.37-0.336-3.336,1,1,0,90,false,stim,false,1,491.80000019073486,0,0,1,59963,task3,1096195,false,false,1196,image-keyboard-response,10
true,17,0,2,0,true,q,false,true,0.0-2.0-0.37-0.337-3.337,1,1,0,81,false,stim,false,0,487.19999980926514,0,0,0,59963,task3,1098211,false,false,1199,image-keyboard-response,11
true,17,0,2,1,false,z,true,false,0.0-2.0-0.37-0.338-3.338,1,1,0,81,false,stim,false,1,494.0,0,0,1,59963,task3,1100237,false,false,1202,image-keyboard-response,12
true,18,1,1,1,true,z,false,false,0.0-2.0-0.37-0.339-3.339,0,0,1,90,true,stim,false,1,397.40000009536743,0,1,2,59963,task3,1102151,false,true,1205,image-keyboard-response,1
true,18,2,1,1,false,z,true,false,0.0-2.0-0.37-0.340-3.340,0,0,1,68,false,stim,false,1,1163.3000001907349,0,1,2,59963,task3,1104834,false,false,1208,image-keyboard-response,2
true,18,0,1,1,false,z,false,false,0.0-2.0-0.37-0.341-3.341,0,0,1,81,false,stim,true,0,508.40000009536743,0,0,0,59963,task3,1106872,false,false,1211,image-keyboard-response,3
true,18,1,1,0,false,q,false,false,0.0-2.0-0.38-0.342-3.342,0,0,1,90,false,stim,true,1,350.0,0,0,1,59963,task3,1108740,false,false,1214,image-keyboard-response,4
true,18,2,1,1,false,z,true,false,0.0-2.0-0.38-0.343-3.343,0,0,1,68,false,stim,false,1,2215.4000000953674,0,1,2,59963,task3,1112475,false,false,1217,image-keyboard-response,5
true,18,2,1,1,false,z,true,false,0.0-2.0-0.38-0.344-3.344,0,0,1,68,false,stim,false,0,699.4000000953674,0,0,0,59963,task3,1114695,false,false,1220,image-keyboard-response,6
true,18,1,1,1,true,z,false,true,0.0-2.0-0.38-0.345-3.345,0,0,1,90,false,stim,false,0,1014.0999999046326,0,0,0,59963,task3,1117222,false,false,1223,image-keyboard-response,7
true,18,1,1,1,true,z,false,true,0.0-2.0-0.38-0.346-3.346,0,0,1,90,false,stim,false,0,554.7999997138977,0,0,0,59963,task3,1119299,false,false,1226,image-keyboard-response,8
true,18,1,1,1,true,z,false,true,0.0-2.0-0.38-0.347-3.347,0,0,1,90,false,stim,false,1,1583.2999997138977,0,1,2,59963,task3,1122420,false,false,1229,image-keyboard-response,9
true,18,0,1,0,true,q,false,false,0.0-2.0-0.38-0.348-3.348,0,0,1,81,false,stim,false,1,634.2999997138977,0,1,1,59963,task3,1124583,false,true,1232,image-keyboard-response,10
true,18,2,1,0,false,q,true,false,0.0-2.0-0.38-0.349-3.349,0,0,1,68,false,stim,false,1,944.1999998092651,0,1,1,59963,task3,1127054,false,false,1235,image-keyboard-response,11
true,18,1,1,1,true,z,false,true,0.0-2.0-0.38-0.350-3.350,0,0,1,90,false,stim,false,1,543.8000001907349,0,0,2,59963,task3,1129122,false,false,1238,image-keyboard-response,12
true,18,1,1,1,true,z,false,true,0.0-2.0-0.39-0.351-3.351,0,0,1,90,false,stim,false,0,388.1000003814697,0,1,0,59963,task3,1131045,false,false,1241,image-keyboard-response,13
true,18,1,1,1,true,z,false,true,0.0-2.0-0.39-0.352-3.352,0,0,1,90,false,stim,false,0,501.80000019073486,0,1,0,59963,task3,1133069,false,false,1244,image-keyboard-response,14
true,19,1,2,0,false,q,false,false,0.0-2.0-0.39-0.353-3.353,1,1,0,90,true,stim,true,1,549.5,0,0,2,59963,task3,1135137,false,false,1247,image-keyboard-response,1
true,19,1,2,0,false,q,true,false,0.0-2.0-0.39-0.354-3.354,1,1,0,90,false,stim,false,0,425.5,0,1,1,59963,task3,1137082,false,false,1250,image-keyboard-response,2
true,19,0,2,0,true,q,false,true,0.0-2.0-0.39-0.355-3.355,1,1,0,81,false,stim,false,0,1139.5,0,1,1,59963,task3,1139746,false,false,1253,image-keyboard-response,3
true,19,1,2,1,true,z,false,true,0.0-2.0-0.39-0.356-3.356,1,1,0,90,false,stim,false,1,412.19999980926514,0,1,0,59963,task3,1141688,false,false,1256,image-keyboard-response,4
true,19,0,2,0,true,q,false,true,0.0-2.0-0.39-0.357-3.357,1,1,0,81,false,stim,false,1,451.19999980926514,0,0,2,59963,task3,1143670,false,false,1259,image-keyboard-response,5
true,19,0,2,0,true,q,false,true,0.0-2.0-0.39-0.358-3.358,1,1,0,81,false,stim,false,1,661.9000000953674,0,0,2,59963,task3,1145851,false,false,1262,image-keyboard-response,6
true,19,0,2,0,true,q,false,true,0.0-2.0-0.39-0.359-3.359,1,1,0,81,false,stim,false,0,1098.1999998092651,0,1,1,59963,task3,1148469,false,false,1265,image-keyboard-response,7
true,19,0,2,0,true,q,false,true,0.0-2.0-0.40-0.360-3.360,1,1,0,81,false,stim,false,1,603.3000001907349,0,0,2,59963,task3,1150589,false,false,1268,image-keyboard-response,8
true,19,0,2,0,true,q,false,true,0.0-2.0-0.40-0.361-3.361,1,1,0,81,false,stim,false,0,392.5,0,1,1,59963,task3,1152502,false,false,1271,image-keyboard-response,9
true,19,1,2,1,true,z,false,true,0.0-2.0-0.40-0.362-3.362,1,1,0,90,false,stim,false,1,645.0,0,1,0,59963,task3,1154671,false,false,1274,image-keyboard-response,10
true,19,0,2,0,true,q,false,true,0.0-2.0-0.40-0.363-3.363,1,1,0,81,false,stim,false,1,1253.8000001907349,0,0,2,59963,task3,1157447,false,false,1277,image-keyboard-response,11
true,19,0,2,0,true,q,false,true,0.0-2.0-0.40-0.364-3.364,1,1,0,81,false,stim,false,0,720.5,0,1,1,59963,task3,1159693,false,false,1280,image-keyboard-response,12
true,19,0,2,0,true,q,false,true,0.0-2.0-0.40-0.365-3.365,1,1,0,81,false,stim,false,0,768.0999999046326,0,1,1,59963,task3,1161979,false,false,1283,image-keyboard-response,13
true,19,1,2,1,true,z,false,true,0.0-2.0-0.40-0.366-3.366,1,1,0,90,false,stim,false,1,851.1999998092651,0,1,0,59963,task3,1164360,false,false,1286,image-keyboard-response,14
true,19,1,2,1,true,z,false,true,0.0-2.0-0.40-0.367-3.367,1,1,0,90,false,stim,false,1,540.0,0,1,0,59963,task3,1166434,false,false,1289,image-keyboard-response,15
true,19,0,2,0,true,q,false,true,0.0-2.0-0.40-0.368-3.368,1,1,0,81,false,stim,false,1,520.4000000953674,0,0,2,59963,task3,1168467,false,false,1292,image-keyboard-response,16
true,19,0,2,0,true,q,false,true,0.0-2.0-0.41-0.369-3.369,1,1,0,81,false,stim,false,1,454.7000002861023,0,0,2,59963,task3,1170447,false,false,1295,image-keyboard-response,17
true,19,1,2,1,true,z,false,true,0.0-2.0-0.41-0.370-3.370,1,1,0,90,false,stim,false,1,415.0,0,1,0,59963,task3,1172389,false,false,1298,image-keyboard-response,18
true,19,0,2,0,true,q,false,true,0.0-2.0-0.41-0.371-3.371,1,1,0,81,false,stim,false,0,465.19999980926514,0,1,1,59963,task3,1174383,false,false,1301,image-keyboard-response,19
true,19,1,2,1,true,z,false,true,0.0-2.0-0.41-0.372-3.372,1,1,0,90,false,stim,false,1,444.2999997138977,0,1,0,59963,task3,1176364,false,false,1304,image-keyboard-response,20
true,19,0,2,0,true,q,false,true,0.0-2.0-0.41-0.373-3.373,1,1,0,81,false,stim,false,1,704.5,0,0,2,59963,task3,1178592,false,false,1307,image-keyboard-response,21
true,19,0,2,0,true,q,false,true,0.0-2.0-0.41-0.374-3.374,1,1,0,81,false,stim,false,1,465.30000019073486,0,0,2,59963,task3,1180574,false,false,1310,image-keyboard-response,22
true,19,0,2,0,true,q,false,true,0.0-2.0-0.41-0.375-3.375,1,1,0,81,false,stim,false,0,809.7999997138977,0,1,1,59963,task3,1182905,false,false,1313,image-keyboard-response,23
true,19,0,2,0,true,q,false,true,0.0-2.0-0.41-0.376-3.376,1,1,0,81,false,stim,false,0,542.6999998092651,0,1,1,59963,task3,1184979,false,false,1316,image-keyboard-response,24
true,19,1,2,1,true,z,false,false,0.0-2.0-0.41-0.377-3.377,1,1,0,90,false,stim,false,1,447.2000002861023,0,0,0,59963,task3,1186939,false,true,1319,image-keyboard-response,25
true,19,0,2,0,true,q,false,false,0.0-2.0-0.42-0.378-3.378,1,1,0,81,false,stim,false,1,801.4000000953674,0,0,2,59963,task3,1189276,false,true,1322,image-keyboard-response,26
true,19,0,2,0,true,q,false,true,0.0-2.0-0.42-0.379-3.379,1,1,0,81,false,stim,false,0,370.19999980926514,0,1,1,59963,task3,1191160,false,false,1325,image-keyboard-response,27
true,20,0,1,0,true,q,false,true,0.0-2.0-0.42-0.380-3.380,0,1,0,81,true,stim,false,0,660.5999999046326,0,1,1,59963,task3,1193355,false,false,1328,image-keyboard-response,1
true,20,2,1,0,false,q,true,true,0.0-2.0-0.42-0.381-3.381,0,1,0,68,false,stim,false,1,922.0,0,0,0,59963,task3,1195795,false,true,1331,image-keyboard-response,2
true,20,2,1,0,false,q,true,false,0.0-2.0-0.42-0.382-3.382,0,1,0,68,false,stim,false,1,522.5999999046326,0,0,0,59963,task3,1197835,false,false,1334,image-keyboard-response,3
true,20,2,1,2,true,d,false,true,0.0-2.0-0.42-0.383-3.383,0,1,0,68,false,stim,false,0,1122.0,0,0,2,59963,task3,1200495,false,false,1337,image-keyboard-response,4
true,20,1,1,0,false,q,false,false,0.0-2.0-0.42-0.384-3.384,0,1,0,90,false,stim,true,1,748.8999996185303,0,0,0,59963,task3,1202760,false,false,1340,image-keyboard-response,5
true,20,0,1,0,true,q,false,true,0.0-2.0-0.42-0.385-3.385,0,1,0,81,false,stim,false,0,902.4000000953674,0,1,1,59963,task3,1205178,false,false,1343,image-keyboard-response,6
true,20,2,1,2,true,d,false,true,0.0-2.0-0.42-0.386-3.386,0,1,0,68,false,stim,false,0,1205.9000000953674,0,0,2,59963,task3,1207899,false,false,1346,image-keyboard-response,7
true,20,0,1,0,true,q,false,true,0.0-2.0-0.43-0.387-3.387,0,1,0,81,false,stim,false,1,371.80000019073486,0,0,0,59963,task3,1209799,false,false,1349,image-keyboard-response,8
true,20,0,1,0,true,q,false,true,0.0-2.0-0.43-0.388-3.388,0,1,0,81,false,stim,false,0,739.5,0,1,1,59963,task3,1212065,false,false,1352,image-keyboard-response,9
true,20,0,1,0,true,q,false,true,0.0-2.0-0.43-0.389-3.389,0,1,0,81,false,stim,false,1,512.4000000953674,0,0,0,59963,task3,1214094,false,false,1355,image-keyboard-response,10
true,20,0,1,0,true,q,false,true,0.0-2.0-0.43-0.390-3.390,0,1,0,81,false,stim,false,0,472.09999990463257,0,1,1,59963,task3,1216082,false,false,1358,image-keyboard-response,11
true,20,2,1,2,true,d,false,true,0.0-2.0-0.43-0.391-3.391,0,1,0,68,false,stim,false,0,447.80000019073486,0,0,2,59963,task3,1218055,false,false,1361,image-keyboard-response,12
true,20,0,1,0,true,q,false,true,0.0-2.0-0.43-0.392-3.392,0,1,0,81,false,stim,false,1,801.0999999046326,0,0,0,59963,task3,1220378,false,false,1364,image-keyboard-response,13
true,20,2,1,2,true,d,false,true,0.0-2.0-0.43-0.393-3.393,0,1,0,68,false,stim,false,0,432.59999990463257,0,0,2,59963,task3,1222319,false,false,1367,image-keyboard-response,14
true,20,0,1,0,true,q,false,true,0.0-2.0-0.43-0.394-3.394,0,1,0,81,false,stim,false,0,346.80000019073486,0,1,1,59963,task3,1224185,false,false,1370,image-keyboard-response,15
true,20,2,1,2,true,d,false,true,0.0-2.0-0.43-0.395-3.395,0,1,0,68,false,stim,false,0,439.2999997138977,0,0,2,59963,task3,1226146,false,false,1373,image-keyboard-response,16
true,20,0,1,0,true,q,false,true,0.0-2.0-0.44-0.396-3.396,0,1,0,81,false,stim,false,1,392.09999990463257,0,0,0,59963,task3,1228061,false,false,1376,image-keyboard-response,17
true,20,0,1,0,true,q,false,true,0.0-2.0-0.44-0.397-3.397,0,1,0,81,false,stim,false,1,398.3999996185303,0,0,0,59963,task3,1229979,false,false,1379,image-keyboard-response,18
true,20,2,1,2,true,d,false,true,0.0-2.0-0.44-0.398-3.398,0,1,0,68,false,stim,false,0,544.2999997138977,0,0,2,59963,task3,1232047,false,false,1382,image-keyboard-response,19
true,20,0,1,0,true,q,false,true,0.0-2.0-0.44-0.399-3.399,0,1,0,81,false,stim,false,1,359.80000019073486,0,0,0,59963,task3,1233923,false,false,1385,image-keyboard-response,20
true,20,0,1,0,true,q,false,true,0.0-2.0-0.44-0.400-3.400,0,1,0,81,false,stim,false,0,732.9000000953674,0,1,1,59963,task3,1236192,false,false,1388,image-keyboard-response,21
true,20,0,1,0,true,q,false,true,0.0-2.0-0.44-0.401-3.401,0,1,0,81,false,stim,false,0,516.5,0,1,1,59963,task3,1238230,false,false,1391,image-keyboard-response,22
true,20,2,1,2,true,d,false,true,0.0-2.0-0.44-0.402-3.402,0,1,0,68,false,stim,false,0,402.0,0,0,2,59963,task3,1240157,false,false,1394,image-keyboard-response,23
true,20,2,1,2,true,d,false,true,0.0-2.0-0.44-0.403-3.403,0,1,0,68,false,stim,false,0,455.0,0,0,2,59963,task3,1242128,false,false,1397,image-keyboard-response,24
true,20,0,1,0,true,q,false,false,0.0-2.0-0.44-0.404-3.404,0,1,0,81,false,stim,false,0,698.0999999046326,0,1,1,59963,task3,1244336,false,true,1400,image-keyboard-response,25
true,20,0,1,0,true,q,false,true,0.0-2.0-0.45-0.405-3.405,0,1,0,81,false,stim,false,1,1279.9000000953674,0,0,0,59963,task3,1247157,false,false,1403,image-keyboard-response,26
true,20,2,1,2,true,d,false,true,0.0-2.0-0.45-0.406-3.406,0,1,0,68,false,stim,false,0,637.3999996185303,0,0,2,59963,task3,1249325,false,false,1406,image-keyboard-response,27
true,20,2,1,2,true,d,false,true,0.0-2.0-0.45-0.407-3.407,0,1,0,68,false,stim,false,0,564.5,0,0,2,59963,task3,1251408,false,false,1409,image-keyboard-response,28
true,21,1,1,0,false,q,true,false,0.0-2.0-0.45-0.408-3.408,0,1,0,90,true,stim,false,0,791.1999998092651,0,1,1,59963,task3,1253720,false,false,1412,image-keyboard-response,1
true,21,2,1,0,false,q,true,true,0.0-2.0-0.45-0.409-3.409,0,1,0,68,false,stim,false,0,491.40000009536743,0,1,1,59963,task3,1255733,false,true,1415,image-keyboard-response,2
true,21,0,1,2,false,d,false,false,0.0-2.0-0.45-0.410-3.410,0,1,0,81,false,stim,true,0,357.2999997138977,0,0,0,59963,task3,1257614,false,false,1418,image-keyboard-response,3
true,21,1,1,2,false,d,true,false,0.0-2.0-0.45-0.411-3.411,0,1,0,90,false,stim,false,0,524.7999997138977,0,0,0,59963,task3,1259670,false,false,1421,image-keyboard-response,4
true,21,2,1,0,false,q,true,false,0.0-2.0-0.45-0.412-3.412,0,1,0,68,false,stim,false,0,707.5999999046326,0,1,1,59963,task3,1261902,false,false,1424,image-keyboard-response,5
true,21,2,1,1,false,z,false,true,0.0-2.0-0.45-0.413-3.413,0,1,0,68,false,stim,true,2,976.1999998092651,0,0,2,59963,task3,1264411,false,true,1427,image-keyboard-response,6
true,21,2,1,1,false,z,false,false,0.0-2.0-0.46-0.414-3.414,0,1,0,68,false,stim,true,2,557.2999997138977,0,0,2,59963,task3,1266482,false,false,1430,image-keyboard-response,7
true,21,0,1,1,false,z,true,true,0.0-2.0-0.46-0.415-3.415,0,1,0,81,false,stim,false,2,679.0,0,0,2,59963,task3,1268688,false,true,1433,image-keyboard-response,8
true,21,2,1,0,false,q,true,false,0.0-2.0-0.46-0.416-3.416,0,1,0,68,false,stim,false,0,1032.9000000953674,0,1,1,59963,task3,1271238,false,false,1436,image-keyboard-response,9
true,21,0,1,1,false,z,true,false,0.0-2.0-0.46-0.417-3.417,0,1,0,81,false,stim,false,2,666.3000001907349,0,0,2,59963,task3,1273425,false,false,1439,image-keyboard-response,10
true,21,2,1,2,true,d,false,true,0.0-2.0-0.46-0.418-3.418,0,1,0,68,false,stim,false,0,1470.8999996185303,0,0,0,59963,task3,1276426,false,false,1442,image-keyboard-response,11
true,21,1,1,0,false,q,true,false,0.0-2.0-0.46-0.419-3.419,0,1,0,90,false,stim,false,0,1505.7000002861023,0,1,1,59963,task3,1279467,false,false,1445,image-keyboard-response,12
true,21,0,1,0,true,q,false,true,0.0-2.0-0.46-0.420-3.420,0,1,0,81,false,stim,false,0,793.5,0,1,1,59963,task3,1281777,false,false,1448,image-keyboard-response,13
true,21,2,1,2,true,d,false,true,0.0-2.0-0.46-0.421-3.421,0,1,0,68,false,stim,false,0,773.3000001907349,0,0,0,59963,task3,1284073,false,false,1451,image-keyboard-response,14
true,21,2,1,2,true,d,false,true,0.0-2.0-0.46-0.422-3.422,0,1,0,68,false,stim,false,0,740.9000000953674,0,0,0,59963,task3,1286339,false,false,1454,image-keyboard-response,15
true,21,2,1,2,true,d,false,true,0.0-2.0-0.47-0.423-3.423,0,1,0,68,false,stim,false,0,590.8000001907349,0,0,0,59963,task3,1288449,false,false,1457,image-keyboard-response,16
true,21,2,1,1,false,z,false,false,0.0-2.0-0.47-0.424-3.424,0,1,0,68,false,stim,true,2,670.7999997138977,0,0,2,59963,task3,1290645,false,false,1460,image-keyboard-response,17
true,21,1,1,1,true,z,false,true,0.0-2.0-0.47-0.425-3.425,0,1,0,90,false,stim,false,2,917.0999999046326,0,0,2,59963,task3,1293078,false,false,1463,image-keyboard-response,18
true,21,0,1,0,true,q,false,true,0.0-2.0-0.47-0.426-3.426,0,1,0,81,false,stim,false,0,444.09999990463257,0,1,1,59963,task3,1295048,false,false,1466,image-keyboard-response,19
true,21,2,1,2,true,d,false,true,0.0-2.0-0.47-0.427-3.427,0,1,0,68,false,stim,false,0,585.1999998092651,0,0,0,59963,task3,1297156,false,false,1469,image-keyboard-response,20
true,21,2,1,2,true,d,false,true,0.0-2.0-0.47-0.428-3.428,0,1,0,68,false,stim,false,0,668.1999998092651,0,0,0,59963,task3,1299348,false,false,1472,image-keyboard-response,21
true,21,1,1,1,true,z,false,true,0.0-2.0-0.47-0.429-3.429,0,1,0,90,false,stim,false,2,538.0999999046326,0,1,2,59963,task3,1301419,false,false,1475,image-keyboard-response,22
true,21,0,1,0,true,q,false,true,0.0-2.0-0.47-0.430-3.430,0,1,0,81,false,stim,false,0,651.4000000953674,0,1,1,59963,task3,1303594,false,false,1478,image-keyboard-response,23
true,21,0,1,0,true,q,false,true,0.0-2.0-0.47-0.431-3.431,0,1,0,81,false,stim,false,0,495.59999990463257,0,1,1,59963,task3,1305608,false,false,1481,image-keyboard-response,24
true,22,1,2,1,true,z,false,true,0.0-2.0-0.48-0.432-3.432,0,1,1,90,true,stim,false,1,556.8000001907349,0,1,2,59963,task3,1307682,false,false,1484,image-keyboard-response,1
true,22,2,2,0,false,q,false,false,0.0-2.0-0.48-0.433-3.433,0,1,1,68,false,stim,true,2,610.4000000953674,0,0,0,59963,task3,1309818,false,false,1487,image-keyboard-response,2
true,22,0,2,0,true,q,false,true,0.0-2.0-0.48-0.434-3.434,0,1,1,81,false,stim,false,0,734.5999999046326,0,1,1,59963,task3,1312076,false,false,1490,image-keyboard-response,3
true,22,1,2,1,true,z,false,true,0.0-2.0-0.48-0.435-3.435,0,1,1,90,false,stim,false,1,933.4000000953674,0,1,2,59963,task3,1314538,false,false,1493,image-keyboard-response,4
true,22,0,2,0,true,q,false,true,0.0-2.0-0.48-0.436-3.436,0,1,1,81,false,stim,false,0,751.7000002861023,0,1,1,59963,task3,1316825,false,false,1496,image-keyboard-response,5
true,22,0,2,0,true,q,false,true,0.0-2.0-0.48-0.437-3.437,0,1,1,81,false,stim,false,0,484.5,0,1,1,59963,task3,1318831,false,false,1499,image-keyboard-response,6
true,22,1,2,0,false,q,true,false,0.0-2.0-0.48-0.438-3.438,0,1,1,90,false,stim,false,2,1411.5,0,0,0,59963,task3,1321769,false,false,1502,image-keyboard-response,7
true,22,0,2,0,true,q,false,true,0.0-2.0-0.48-0.439-3.439,0,1,1,81,false,stim,false,2,517.3000001907349,0,0,0,59963,task3,1323809,false,false,1505,image-keyboard-response,8
true,22,1,2,1,true,z,false,true,0.0-2.0-0.48-0.440-3.440,0,1,1,90,false,stim,false,1,455.90000009536743,0,1,2,59963,task3,1325785,false,false,1508,image-keyboard-response,9
true,22,0,2,0,true,q,false,false,0.0-2.0-0.49-0.441-3.441,0,1,1,81,false,stim,false,0,360.1000003814697,0,1,1,59963,task3,1327655,false,true,1511,image-keyboard-response,10
true,22,0,2,0,true,q,false,true,0.0-2.0-0.49-0.442-3.442,0,1,1,81,false,stim,false,2,367.09999990463257,0,0,0,59963,task3,1329540,false,false,1514,image-keyboard-response,11
true,22,1,2,1,true,z,false,true,0.0-2.0-0.49-0.443-3.443,0,1,1,90,false,stim,false,1,728.0,0,1,2,59963,task3,1331785,false,false,1517,image-keyboard-response,12
true,22,1,2,0,false,q,true,false,0.0-2.0-0.49-0.444-3.444,0,1,1,90,false,stim,false,0,608.2999997138977,0,1,1,59963,task3,1333925,false,false,1520,image-keyboard-response,13
true,22,1,2,1,true,z,false,false,0.0-2.0-0.49-0.445-3.445,0,1,1,90,false,stim,false,1,838.0,0,1,2,59963,task3,1336292,false,true,1523,image-keyboard-response,14
true,22,2,2,1,false,z,true,false,0.0-2.0-0.49-0.446-3.446,0,1,1,68,false,stim,false,1,620.0999999046326,0,1,2,59963,task3,1338436,false,false,1526,image-keyboard-response,15
true,22,0,2,0,true,q,false,true,0.0-2.0-0.49-0.447-3.447,0,1,1,81,false,stim,false,2,386.09999990463257,0,0,0,59963,task3,1340339,false,false,1529,image-keyboard-response,16
true,22,0,2,0,true,q,false,false,0.0-2.0-0.49-0.448-3.448,0,1,1,81,false,stim,false,2,461.7999997138977,0,0,0,59963,task3,1342326,false,true,1532,image-keyboard-response,17
true,22,2,2,0,false,q,true,false,0.0-2.0-0.49-0.449-3.449,0,1,1,68,false,stim,false,0,858.5999999046326,0,1,1,59963,task3,1344705,false,false,1535,image-keyboard-response,18
true,22,1,2,0,false,q,true,false,0.0-2.0-0.50-0.450-3.450,0,1,1,90,false,stim,false,0,1302.8999996185303,0,1,1,59963,task3,1347524,false,false,1538,image-keyboard-response,19
true,22,0,2,0,true,q,false,true,0.0-2.0-0.50-0.451-3.451,0,1,1,81,false,stim,false,0,839.0,0,1,1,59963,task3,1349893,false,false,1541,image-keyboard-response,20
true,22,0,2,1,false,z,true,false,0.0-2.0-0.50-0.452-3.452,0,1,1,81,false,stim,false,1,1223.0,0,1,2,59963,task3,1352629,false,false,1544,image-keyboard-response,21
true,22,0,2,0,true,q,false,false,0.0-2.0-0.50-0.453-3.453,0,1,1,81,false,stim,false,2,920.2000002861023,0,0,0,59963,task3,1355065,false,true,1547,image-keyboard-response,22
true,22,0,2,0,true,q,false,true,0.0-2.0-0.50-0.454-3.454,0,1,1,81,false,stim,false,0,452.0,0,1,1,59963,task3,1357039,false,false,1550,image-keyboard-response,23
true,22,1,2,1,true,z,false,false,0.0-2.0-0.50-0.455-3.455,0,1,1,90,false,stim,false,1,2563.7999997138977,0,1,2,59963,task3,1361122,false,true,1553,image-keyboard-response,24
true,22,1,2,0,false,q,true,false,0.0-2.0-0.50-0.456-3.456,0,1,1,90,false,stim,false,2,966.0,0,0,0,59963,task3,1363608,false,false,1556,image-keyboard-response,25
true,22,2,2,1,false,z,true,false,0.0-2.0-0.50-0.457-3.457,0,1,1,68,false,stim,false,1,1251.0999999046326,0,0,2,59963,task3,1366376,false,false,1559,image-keyboard-response,26
true,22,2,2,0,false,q,false,false,0.0-2.0-0.50-0.458-3.458,0,1,1,68,false,stim,true,2,383.2000002861023,0,0,0,59963,task3,1368295,false,false,1562,image-keyboard-response,27
true,22,0,2,0,true,q,false,true,0.0-2.0-0.51-0.459-3.459,0,1,1,81,false,stim,false,0,690.6999998092651,0,1,1,59963,task3,1370515,false,false,1565,image-keyboard-response,28
true,22,0,2,1,false,z,true,false,0.0-2.0-0.51-0.460-3.460,0,1,1,81,false,stim,false,1,373.2999997138977,0,0,2,59963,task3,1372414,false,false,1568,image-keyboard-response,29
true,23,1,1,2,false,d,true,false,0.0-2.0-0.51-0.461-3.461,0,1,0,90,true,stim,false,0,1266.5,0,0,0,59963,task3,1375210,false,false,1571,image-keyboard-response,1
true,23,0,1,0,true,q,false,true,0.0-2.0-0.51-0.462-3.462,0,1,0,81,false,stim,false,0,662.2999997138977,0,1,1,59963,task3,1377385,false,false,1574,image-keyboard-response,2
true,23,0,1,2,false,d,true,false,0.0-2.0-0.51-0.463-3.463,0,1,0,81,false,stim,false,1,1275.4000000953674,0,0,2,59963,task3,1380180,false,false,1577,image-keyboard-response,3
true,23,0,1,0,true,q,false,true,0.0-2.0-0.51-0.464-3.464,0,1,0,81,false,stim,false,0,703.7999997138977,0,1,1,59963,task3,1382400,false,false,1580,image-keyboard-response,4
true,23,0,1,2,false,d,false,false,0.0-2.0-0.51-0.465-3.465,0,1,0,81,false,stim,true,0,1283.2999997138977,0,0,0,59963,task3,1385214,false,false,1583,image-keyboard-response,5
true,23,2,1,2,true,d,false,true,0.0-2.0-0.51-0.466-3.466,0,1,0,68,false,stim,false,0,1059.7999997138977,0,0,0,59963,task3,1387791,false,false,1586,image-keyboard-response,6
true,23,2,1,2,true,d,false,false,0.0-2.0-0.51-0.467-3.467,0,1,0,68,false,stim,false,1,1213.5,0,0,2,59963,task3,1390517,false,true,1589,image-keyboard-response,7
true,23,1,1,2,false,d,false,false,0.0-2.0-0.52-0.468-3.468,0,1,0,90,false,stim,true,1,1008.8999996185303,0,0,2,59963,task3,1393053,false,false,1592,image-keyboard-response,8
true,23,0,1,0,true,q,false,true,0.0-2.0-0.52-0.469-3.469,0,1,0,81,false,stim,false,0,459.2999997138977,0,1,1,59963,task3,1395030,false,false,1595,image-keyboard-response,9
true,23,0,1,0,true,q,false,true,0.0-2.0-0.52-0.470-3.470,0,1,0,81,false,stim,false,0,783.0999999046326,0,1,1,59963,task3,1397338,false,false,1598,image-keyboard-response,10
true,23,2,1,2,true,d,false,true,0.0-2.0-0.52-0.471-3.471,0,1,0,68,false,stim,false,0,1064.5999999046326,0,0,0,59963,task3,1399930,false,false,1601,image-keyboard-response,11
true,23,2,1,2,true,d,false,true,0.0-2.0-0.52-0.472-3.472,0,1,0,68,false,stim,false,0,739.0,0,0,0,59963,task3,1402192,false,false,1604,image-keyboard-response,12
true,23,0,1,0,true,q,false,true,0.0-2.0-0.52-0.473-3.473,0,1,0,81,false,stim,false,0,782.5999999046326,0,1,1,59963,task3,1404498,false,false,1607,image-keyboard-response,13
true,23,2,1,2,true,d,false,true,0.0-2.0-0.52-0.474-3.474,0,1,0,68,false,stim,false,1,1073.0,0,0,2,59963,task3,1407098,false,false,1610,image-keyboard-response,14
true,23,2,1,2,true,d,false,true,0.0-2.0-0.52-0.475-3.475,0,1,0,68,false,stim,false,1,411.2000002861023,0,0,2,59963,task3,1409038,false,false,1613,image-keyboard-response,15
true,23,2,1,2,true,d,false,true,0.0-2.0-0.52-0.476-3.476,0,1,0,68,false,stim,false,0,431.2000002861023,0,0,0,59963,task3,1410998,false,false,1616,image-keyboard-response,16
true,23,0,1,0,true,q,false,true,0.0-2.0-0.53-0.477-3.477,0,1,0,81,false,stim,false,0,758.4000000953674,0,1,1,59963,task3,1413279,false,false,1619,image-keyboard-response,17
true,23,2,1,2,true,d,false,true,0.0-2.0-0.53-0.478-3.478,0,1,0,68,false,stim,false,0,451.0,0,0,0,59963,task3,1415260,false,false,1622,image-keyboard-response,18
true,23,2,1,2,true,d,false,true,0.0-2.0-0.53-0.479-3.479,0,1,0,68,false,stim,false,0,620.9000000953674,0,0,0,59963,task3,1417396,false,false,1625,image-keyboard-response,19
true,23,2,1,2,true,d,false,false,0.0-2.0-0.53-0.480-3.480,0,1,0,68,false,stim,false,1,688.6999998092651,0,0,2,59963,task3,1419614,false,true,1628,image-keyboard-response,20
true,23,0,1,0,true,q,false,true,0.0-2.0-0.53-0.481-3.481,0,1,0,81,false,stim,false,0,539.6000003814697,0,1,1,59963,task3,1421667,false,false,1631,image-keyboard-response,21
true,23,2,1,2,true,d,false,true,0.0-2.0-0.53-0.482-3.482,0,1,0,68,false,stim,false,1,569.7999997138977,0,0,2,59963,task3,1423762,false,false,1634,image-keyboard-response,22
true,23,2,1,2,true,d,false,true,0.0-2.0-0.53-0.483-3.483,0,1,0,68,false,stim,false,1,579.1999998092651,0,0,2,59963,task3,1425866,false,false,1637,image-keyboard-response,23
true,23,0,1,2,false,d,false,false,0.0-2.0-0.53-0.484-3.484,0,1,0,81,false,stim,true,0,432.2000002861023,0,1,0,59963,task3,1427820,false,false,1640,image-keyboard-response,24
true,23,0,1,0,true,q,false,true,0.0-2.0-0.53-0.485-3.485,0,1,0,81,false,stim,false,0,376.40000009536743,0,0,1,59963,task3,1429723,false,false,1643,image-keyboard-response,25
true,23,0,1,0,true,q,false,true,0.0-2.0-0.54-0.486-3.486,0,1,0,81,false,stim,false,0,506.69999980926514,0,0,1,59963,task3,1431757,false,false,1646,image-keyboard-response,26
true,23,2,1,2,true,d,false,true,0.0-2.0-0.54-0.487-3.487,0,1,0,68,false,stim,false,1,792.0999999046326,0,0,2,59963,task3,1434063,false,false,1649,image-keyboard-response,27
true,23,2,1,2,true,d,false,true,0.0-2.0-0.54-0.488-3.488,0,1,0,68,false,stim,false,0,746.0,0,1,0,59963,task3,1436338,false,false,1652,image-keyboard-response,28
true,24,0,1,2,false,d,false,false,0.0-2.0-0.54-0.489-3.489,1,0,0,81,true,stim,true,0,622.5,0,0,1,59963,task3,1438493,false,false,1655,image-keyboard-response,1
true,24,2,1,1,false,z,false,false,0.0-2.0-0.54-0.490-3.490,1,0,0,68,false,stim,true,2,530.5,0,0,2,59963,task3,1440538,false,false,1658,image-keyboard-response,2
true,24,2,1,2,true,d,false,true,0.0-2.0-0.54-0.491-3.491,1,0,0,68,false,stim,false,2,1409.2999997138977,0,1,0,59963,task3,1443469,false,false,1661,image-keyboard-response,3
true,24,0,1,1,false,z,true,true,0.0-2.0-0.54-0.492-3.492,1,0,0,81,false,stim,false,2,1233.8000001907349,0,0,2,59963,task3,1446226,false,true,1664,image-keyboard-response,4
true,24,2,1,2,true,d,false,true,0.0-2.0-0.54-0.493-3.493,1,0,0,68,false,stim,false,2,870.7999997138977,0,1,0,59963,task3,1448617,false,false,1667,image-keyboard-response,5
true,24,2,1,2,true,d,false,true,0.0-2.0-0.54-0.494-3.494,1,0,0,68,false,stim,false,0,1722.0,0,0,1,59963,task3,1451868,false,false,1670,image-keyboard-response,6
true,24,2,1,2,true,d,false,true,0.0-2.0-0.55-0.495-3.495,1,0,0,68,false,stim,false,2,652.4000000953674,0,1,0,59963,task3,1454053,false,false,1673,image-keyboard-response,7
true,24,2,1,2,true,d,false,false,0.0-2.0-0.55-0.496-3.496,1,0,0,68,false,stim,false,0,633.4000000953674,0,0,1,59963,task3,1456217,false,true,1676,image-keyboard-response,8
true,24,0,1,1,false,z,true,true,0.0-2.0-0.55-0.497-3.497,1,0,0,81,false,stim,false,2,351.2000002861023,0,0,2,59963,task3,1458092,false,true,1679,image-keyboard-response,9
true,24,1,1,2,false,d,true,false,0.0-2.0-0.55-0.498-3.498,1,0,0,90,false,stim,false,0,896.9000000953674,0,0,1,59963,task3,1460514,false,false,1682,image-keyboard-response,10
true,24,0,1,2,false,d,false,true,0.0-2.0-0.55-0.499-3.499,1,0,0,81,false,stim,true,0,833.5,0,0,1,59963,task3,1462876,false,true,1685,image-keyboard-response,11
true,24,2,1,2,true,d,false,true,0.0-2.0-0.55-0.500-3.500,1,0,0,68,false,stim,false,2,587.0,0,1,0,59963,task3,1464985,false,false,1688,image-keyboard-response,12
true,24,0,1,1,false,z,true,false,0.0-2.0-0.55-0.501-3.501,1,0,0,81,false,stim,false,2,358.7000002861023,0,0,2,59963,task3,1466878,false,false,1691,image-keyboard-response,13
true,24,2,1,2,true,d,false,true,0.0-2.0-0.55-0.502-3.502,1,0,0,68,false,stim,false,2,1261.5999999046326,0,1,0,59963,task3,1469661,false,false,1694,image-keyboard-response,14
true,24,1,1,1,true,z,false,true,0.0-2.0-0.55-0.503-3.503,1,0,0,90,false,stim,false,2,1525.9000000953674,0,0,2,59963,task3,1472709,false,false,1697,image-keyboard-response,15
true,24,0,1,2,false,d,false,false,0.0-2.0-0.56-0.504-3.504,1,0,0,81,false,stim,true,0,449.69999980926514,0,0,1,59963,task3,1474696,false,false,1700,image-keyboard-response,16
true,24,1,1,2,false,d,true,false,0.0-2.0-0.56-0.505-3.505,1,0,0,90,false,stim,false,0,931.8000001907349,0,0,1,59963,task3,1477164,false,false,1703,image-keyboard-response,17
true,24,2,1,2,true,d,false,true,0.0-2.0-0.56-0.506-3.506,1,0,0,68,false,stim,false,2,626.6999998092651,0,1,0,59963,task3,1479324,false,false,1706,image-keyboard-response,18
true,24,1,1,1,true,z,false,true,0.0-2.0-0.56-0.507-3.507,1,0,0,90,false,stim,false,2,806.5999999046326,0,0,2,59963,task3,1481643,false,false,1709,image-keyboard-response,19
true,24,2,1,2,true,d,false,true,0.0-2.0-0.56-0.508-3.508,1,0,0,68,false,stim,false,2,403.40000009536743,0,0,0,59963,task3,1483578,false,false,1712,image-keyboard-response,20
true,24,1,1,1,true,z,false,true,0.0-2.0-0.56-0.509-3.509,1,0,0,90,false,stim,false,2,1190.2999997138977,0,0,2,59963,task3,1486284,false,false,1715,image-keyboard-response,21
true,24,2,1,2,true,d,false,true,0.0-2.0-0.56-0.510-3.510,1,0,0,68,false,stim,false,2,1456.8000001907349,0,0,0,59963,task3,1489262,false,false,1718,image-keyboard-response,22
true,24,2,1,2,true,d,false,true,0.0-2.0-0.56-0.511-3.511,1,0,0,68,false,stim,false,0,1208.7000002861023,0,1,1,59963,task3,1491983,false,false,1721,image-keyboard-response,23
true,25,1,1,0,false,q,false,false,0.0-2.0-0.56-0.512-3.512,0,1,0,90,true,stim,true,1,910.8000001907349,0,0,2,59963,task3,1494426,false,false,1724,image-keyboard-response,1
true,25,0,1,0,true,q,false,true,0.0-2.0-0.57-0.513-3.513,0,1,0,81,false,stim,false,1,742.4000000953674,0,0,2,59963,task3,1496691,false,false,1727,image-keyboard-response,2
true,25,0,1,0,true,q,false,true,0.0-2.0-0.57-0.514-3.514,0,1,0,81,false,stim,false,1,754.1999998092651,0,0,2,59963,task3,1498979,false,false,1730,image-keyboard-response,3
true,25,2,1,2,true,d,false,false,0.0-2.0-0.57-0.515-3.515,0,1,0,68,false,stim,false,2,732.9000000953674,0,1,1,59963,task3,1501235,false,true,1733,image-keyboard-response,4
true,25,2,1,1,false,z,false,false,0.0-2.0-0.57-0.516-3.516,0,1,0,68,false,stim,true,2,1217.4000000953674,0,0,0,59963,task3,1503973,false,false,1736,image-keyboard-response,5
true,25,1,1,2,false,d,true,false,0.0-2.0-0.57-0.517-3.517,0,1,0,90,false,stim,false,2,1022.0999999046326,0,1,1,59963,task3,1506521,false,false,1739,image-keyboard-response,6
true,25,0,1,0,true,q,false,true,0.0-2.0-0.57-0.518-3.518,0,1,0,81,false,stim,false,1,954.4000000953674,0,0,2,59963,task3,1508998,false,false,1742,image-keyboard-response,7
true,25,0,1,1,false,z,true,false,0.0-2.0-0.57-0.519-3.519,0,1,0,81,false,stim,false,2,1269.1999998092651,0,0,0,59963,task3,1511783,false,false,1745,image-keyboard-response,8
true,25,0,1,2,false,d,true,false,0.0-2.0-0.57-0.520-3.520,0,1,0,81,false,stim,false,2,829.8000001907349,0,1,1,59963,task3,1514147,false,false,1748,image-keyboard-response,9
true,25,1,1,1,true,z,false,true,0.0-2.0-0.57-0.521-3.521,0,1,0,90,false,stim,false,2,856.3000001907349,0,0,0,59963,task3,1516532,false,false,1751,image-keyboard-response,10
true,25,1,1,1,true,z,false,true,0.0-2.0-0.58-0.522-3.522,0,1,0,90,false,stim,false,2,970.5999999046326,0,1,0,59963,task3,1519036,false,false,1754,image-keyboard-response,11
true,25,0,1,0,true,q,false,true,0.0-2.0-0.58-0.523-3.523,0,1,0,81,false,stim,false,1,510.09999990463257,0,1,2,59963,task3,1521064,false,false,1757,image-keyboard-response,12
true,25,1,1,2,false,d,true,false,0.0-2.0-0.58-0.524-3.524,0,1,0,90,false,stim,false,2,874.0,0,1,1,59963,task3,1523472,false,false,1760,image-keyboard-response,13
true,25,0,1,2,false,d,true,false,0.0-2.0-0.58-0.525-3.525,0,1,0,81,false,stim,false,2,912.7999997138977,0,1,1,59963,task3,1525903,false,false,1763,image-keyboard-response,14
true,25,0,1,1,false,z,true,false,0.0-2.0-0.58-0.526-3.526,0,1,0,81,false,stim,false,2,1258.2999997138977,0,1,0,59963,task3,1528689,false,false,1766,image-keyboard-response,15
true,26,1,0,0,false,q,true,false,0.0-2.0-0.58-0.527-3.527,1,1,1,90,true,stim,false,0,1285.4000000953674,0,1,2,59963,task3,1652775,false,false,1889,image-keyboard-response,1
true,26,0,0,1,false,z,true,true,0.0-2.0-0.58-0.528-3.528,1,1,1,81,false,stim,false,1,407.0,0,1,0,59963,task3,1654693,false,true,1892,image-keyboard-response,2
true,26,0,0,0,true,q,false,true,0.0-2.0-0.58-0.529-3.529,1,1,1,81,false,stim,false,0,565.1999998092651,0,1,2,59963,task3,1656774,false,false,1895,image-keyboard-response,3
true,26,1,0,2,false,d,true,false,0.0-2.0-0.58-0.530-3.530,1,1,1,90,false,stim,false,2,1036.2000002861023,0,1,1,59963,task3,1659326,false,false,1898,image-keyboard-response,4
true,26,0,0,0,true,q,false,true,0.0-2.0-0.59-0.531-3.531,1,1,1,81,false,stim,false,0,464.80000019073486,0,1,2,59963,task3,1661321,false,false,1901,image-keyboard-response,5
true,26,2,0,2,true,d,false,false,0.0-2.0-0.59-0.532-3.532,1,1,1,68,false,stim,false,2,527.5,0,1,1,59963,task3,1663376,false,true,1904,image-keyboard-response,6
true,26,1,0,2,false,d,true,false,0.0-2.0-0.59-0.533-3.533,1,1,1,90,false,stim,false,2,808.4000000953674,0,1,1,59963,task3,1665704,false,false,1907,image-keyboard-response,7
true,26,0,0,0,true,q,false,true,0.0-2.0-0.59-0.534-3.534,1,1,1,81,false,stim,false,0,540.6999998092651,0,1,2,59963,task3,1667767,false,false,1910,image-keyboard-response,8
true,26,0,0,0,true,q,false,true,0.0-2.0-0.59-0.535-3.535,1,1,1,81,false,stim,false,0,417.69999980926514,0,0,2,59963,task3,1669721,false,false,1913,image-keyboard-response,9
true,26,0,0,2,false,d,true,false,0.0-2.0-0.59-0.536-3.536,1,1,1,81,false,stim,false,2,431.30000019073486,0,1,1,59963,task3,1671666,false,false,1916,image-keyboard-response,10
true,26,0,0,1,false,z,true,false,0.0-2.0-0.59-0.537-3.537,1,1,1,81,false,stim,false,1,630.2000002861023,0,1,0,59963,task3,1673817,false,false,1919,image-keyboard-response,11
true,26,1,0,1,true,z,false,true,0.0-2.0-0.59-0.538-3.538,1,1,1,90,false,stim,false,1,844.5,0,1,0,59963,task3,1676185,false,false,1922,image-keyboard-response,12
true,26,1,0,1,true,z,false,true,0.0-2.0-0.59-0.539-3.539,1,1,1,90,false,stim,false,1,1245.5999999046326,0,1,0,59963,task3,1678951,false,false,1925,image-keyboard-response,13
true,27,0,2,2,false,d,false,false,0.0-2.0-0.60-0.540-3.540,1,1,0,81,true,stim,true,0,754.4000000953674,0,0,2,59963,task3,1681222,false,false,1928,image-keyboard-response,1
true,27,1,2,2,false,d,true,false,0.0-2.0-0.60-0.541-3.541,1,1,0,90,false,stim,false,0,798.9000000953674,0,0,2,59963,task3,1683533,false,false,1931,image-keyboard-response,2
true,27,2,2,1,false,z,true,false,0.0-2.0-0.60-0.542-3.542,1,1,0,68,false,stim,false,1,502.80000019073486,0,1,0,59963,task3,1685556,false,false,1934,image-keyboard-response,3
true,27,1,2,1,true,z,false,true,0.0-2.0-0.60-0.543-3.543,1,1,0,90,false,stim,false,1,405.69999980926514,0,1,0,59963,task3,1687487,false,false,1937,image-keyboard-response,4
true,27,2,2,2,true,d,false,true,0.0-2.0-0.60-0.544-3.544,1,1,0,68,false,stim,false,2,556.9000000953674,0,1,1,59963,task3,1689576,false,false,1940,image-keyboard-response,5
true,27,2,2,2,true,d,false,false,0.0-2.0-0.60-0.545-3.545,1,1,0,68,false,stim,false,0,496.5,0,0,2,59963,task3,1691611,false,true,1943,image-keyboard-response,6
true,27,2,2,2,true,d,false,true,0.0-2.0-0.60-0.546-3.546,1,1,0,68,false,stim,false,2,585.8000001907349,0,1,1,59963,task3,1693725,false,false,1946,image-keyboard-response,7
true,27,1,2,1,true,z,false,true,0.0-2.0-0.60-0.547-3.547,1,1,0,90,false,stim,false,1,401.0,0,1,0,59963,task3,1695653,false,false,1949,image-keyboard-response,8
true,27,2,2,2,true,d,false,true,0.0-2.0-0.60-0.548-3.548,1,1,0,68,false,stim,false,2,368.3999996185303,0,1,1,59963,task3,1697537,false,false,1952,image-keyboard-response,9
true,27,2,2,2,true,d,false,true,0.0-2.0-0.61-0.549-3.549,1,1,0,68,false,stim,false,2,1180.6999998092651,0,1,1,59963,task3,1700239,false,false,1955,image-keyboard-response,10
true,27,1,2,1,true,z,false,true,0.0-2.0-0.61-0.550-3.550,1,1,0,90,false,stim,false,1,313.2999997138977,0,1,0,59963,task3,1702065,false,false,1958,image-keyboard-response,11
true,27,0,2,2,false,d,false,true,0.0-2.0-0.61-0.551-3.551,1,1,0,81,false,stim,true,0,690.7999997138977,0,0,2,59963,task3,1704273,false,true,1961,image-keyboard-response,12
true,27,2,2,2,true,d,false,true,0.0-2.0-0.61-0.552-3.552,1,1,0,68,false,stim,false,2,944.3000001907349,0,1,1,59963,task3,1706741,false,false,1964,image-keyboard-response,13
true,27,1,2,1,true,z,false,true,0.0-2.0-0.61-0.553-3.553,1,1,0,90,false,stim,false,1,555.2999997138977,0,1,0,59963,task3,1708818,false,false,1967,image-keyboard-response,14
true,27,0,2,2,false,d,false,false,0.0-2.0-0.61-0.554-3.554,1,1,0,81,false,stim,true,0,343.19999980926514,0,0,2,59963,task3,1710684,false,false,1970,image-keyboard-response,15
true,27,1,2,2,false,d,true,false,0.0-2.0-0.61-0.555-3.555,1,1,0,90,false,stim,false,0,758.5,0,0,2,59963,task3,1712962,false,false,1973,image-keyboard-response,16
true,27,2,2,2,true,d,false,true,0.0-2.0-0.61-0.556-3.556,1,1,0,68,false,stim,false,2,603.7000002861023,0,1,1,59963,task3,1715088,false,false,1976,image-keyboard-response,17
true,27,1,2,1,true,z,false,true,0.0-2.0-0.61-0.557-3.557,1,1,0,90,false,stim,false,1,416.90000009536743,0,1,0,59963,task3,1717032,false,false,1979,image-keyboard-response,18
true,27,2,2,2,true,d,false,true,0.0-2.0-0.62-0.558-3.558,1,1,0,68,false,stim,false,2,466.80000019073486,0,1,1,59963,task3,1719020,false,false,1982,image-keyboard-response,19
true,27,2,2,2,true,d,false,true,0.0-2.0-0.62-0.559-3.559,1,1,0,68,false,stim,false,0,596.7000002861023,0,0,2,59963,task3,1721148,false,false,1985,image-keyboard-response,20
true,27,2,2,2,true,d,false,false,0.0-2.0-0.62-0.560-3.560,1,1,0,68,false,stim,false,0,587.4000000953674,0,0,2,59963,task3,1723259,false,true,1988,image-keyboard-response,21
true,27,2,2,2,true,d,false,true,0.0-2.0-0.62-0.561-3.561,1,1,0,68,false,stim,false,2,846.0999999046326,0,1,1,59963,task3,1725641,false,false,1991,image-keyboard-response,22
true,27,1,2,2,false,d,true,false,0.0-2.0-0.62-0.562-3.562,1,1,0,90,false,stim,false,0,762.5,0,0,2,59963,task3,1727923,false,false,1994,image-keyboard-response,23
true,27,1,2,1,true,z,false,true,0.0-2.0-0.62-0.563-3.563,1,1,0,90,false,stim,false,1,987.9000000953674,0,1,0,59963,task3,1730440,false,false,1997,image-keyboard-response,24
true,27,1,2,1,true,z,false,false,0.0-2.0-0.62-0.564-3.564,1,1,0,90,false,stim,false,1,813.7999997138977,0,1,0,59963,task3,1732771,false,true,2000,image-keyboard-response,25
true,27,0,2,1,false,z,true,false,0.0-2.0-0.62-0.565-3.565,1,1,0,81,false,stim,false,1,543.0,0,1,0,59963,task3,1734845,false,false,2003,image-keyboard-response,26
true,27,2,2,2,true,d,false,true,0.0-2.0-0.62-0.566-3.566,1,1,0,68,false,stim,false,2,1114.2000002861023,0,1,1,59963,task3,1737489,false,false,2006,image-keyboard-response,27
true,27,0,2,1,false,z,true,false,0.0-2.0-0.63-0.567-3.567,1,1,0,81,false,stim,false,1,747.3000001907349,0,1,0,59963,task3,1739748,false,false,2009,image-keyboard-response,28
true,27,2,2,1,false,z,true,false,0.0-2.0-0.63-0.568-3.568,1,1,0,68,false,stim,false,1,775.5999999046326,0,1,0,59963,task3,1742060,false,false,2012,image-keyboard-response,29
true,28,2,2,2,true,d,false,true,0.0-2.0-0.63-0.569-3.569,1,1,0,68,true,stim,false,2,613.7999997138977,0,1,1,59963,task3,1744201,false,false,2015,image-keyboard-response,1
true,28,2,2,1,false,z,false,false,0.0-2.0-0.63-0.570-3.570,1,1,0,68,false,stim,true,2,906.1999998092651,0,0,2,59963,task3,1746630,false,false,2018,image-keyboard-response,2
true,28,2,2,2,true,d,false,true,0.0-2.0-0.63-0.571-3.571,1,1,0,68,false,stim,false,2,1176.1999998092651,0,1,1,59963,task3,1749325,false,false,2021,image-keyboard-response,3
true,28,2,2,2,true,d,false,true,0.0-2.0-0.63-0.572-3.572,1,1,0,68,false,stim,false,2,1200.6999998092651,0,1,1,59963,task3,1752041,false,false,2024,image-keyboard-response,4
true,28,1,2,1,true,z,false,true,0.0-2.0-0.63-0.573-3.573,1,1,0,90,false,stim,false,1,1084.5999999046326,0,1,0,59963,task3,1754640,false,false,2027,image-keyboard-response,5
true,28,1,2,1,true,z,false,true,0.0-2.0-0.63-0.574-3.574,1,1,0,90,false,stim,false,2,511.0,0,0,2,59963,task3,1756669,false,false,2030,image-keyboard-response,6
true,28,1,2,1,true,z,false,true,0.0-2.0-0.63-0.575-3.575,1,1,0,90,false,stim,false,2,479.2000002861023,0,0,2,59963,task3,1758690,false,false,2033,image-keyboard-response,7
true,28,1,2,1,true,z,false,true,0.0-2.0-0.64-0.576-3.576,1,1,0,90,false,stim,false,1,834.9000000953674,0,1,0,59963,task3,1761038,false,false,2036,image-keyboard-response,8
true,28,2,2,2,true,d,false,true,0.0-2.0-0.64-0.577-3.577,1,1,0,68,false,stim,false,2,472.2000002861023,0,1,1,59963,task3,1763046,false,false,2039,image-keyboard-response,9
true,28,2,2,2,true,d,false,true,0.0-2.0-0.64-0.578-3.578,1,1,0,68,false,stim,false,2,526.9000000953674,0,1,1,59963,task3,1765090,false,false,2042,image-keyboard-response,10
true,28,1,2,1,true,z,false,true,0.0-2.0-0.64-0.579-3.579,1,1,0,90,false,stim,false,1,415.90000009536743,0,0,0,59963,task3,1767026,false,false,2045,image-keyboard-response,11
true,28,1,2,1,true,z,false,true,0.0-2.0-0.64-0.580-3.580,1,1,0,90,false,stim,false,2,1039.7999997138977,0,1,2,59963,task3,1769597,false,false,2048,image-keyboard-response,12
true,28,2,2,2,true,d,false,true,0.0-2.0-0.64-0.581-3.581,1,1,0,68,false,stim,false,2,1216.2999997138977,0,1,1,59963,task3,1772330,false,false,2051,image-keyboard-response,13
true,28,1,2,1,true,z,false,false,0.0-2.0-0.64-0.582-3.582,1,1,0,90,false,stim,false,2,1392.6999998092651,0,1,2,59963,task3,1775249,false,true,2054,image-keyboard-response,14
true,28,1,2,1,true,z,false,true,0.0-2.0-0.64-0.583-3.583,1,1,0,90,false,stim,false,1,513.0999999046326,0,0,0,59963,task3,1777296,false,false,2057,image-keyboard-response,15
true,29,2,2,1,false,z,true,false,0.0-2.0-0.64-0.584-3.584,0,1,1,68,true,stim,false,1,580.3999996185303,0,1,2,59963,task3,1779409,false,false,2060,image-keyboard-response,1
true,29,2,2,2,true,d,false,true,0.0-2.0-0.65-0.585-3.585,0,1,1,68,false,stim,false,2,350.2999997138977,0,1,1,59963,task3,1781274,false,false,2063,image-keyboard-response,2
true,29,1,2,0,false,q,false,false,0.0-2.0-0.65-0.586-3.586,0,1,1,90,false,stim,true,1,753.4000000953674,0,0,0,59963,task3,1783558,false,false,2066,image-keyboard-response,3
true,29,0,2,1,false,z,true,false,0.0-2.0-0.65-0.587-3.587,0,1,1,81,false,stim,false,1,338.0,0,1,2,59963,task3,1785423,false,false,2069,image-keyboard-response,4
true,29,1,2,0,false,q,false,false,0.0-2.0-0.65-0.588-3.588,0,1,1,90,false,stim,true,1,1042.2999997138977,0,0,0,59963,task3,1787990,false,false,2072,image-keyboard-response,5
true,29,2,2,1,false,z,true,false,0.0-2.0-0.65-0.589-3.589,0,1,1,68,false,stim,false,1,1037.0,0,1,2,59963,task3,1790545,false,false,2075,image-keyboard-response,6
