answered,blockNum,choice,condition,corResp,correct,correct_response,explo,fb,internal_node_id,isStable_1,isStable_2,isStable_3,key_press,newBlock,part,persev,persevResp,rt,sessNum,stableAS,stimulus,subject,task,time_elapsed,training,trap,trial_index,trial_type,trialsInBlock
true,1,0,0,1,false,z,true,false,0.0-2.0-0.0-0.0-3.0,0,0,0,81,true,stim,false,-1,728.6000003814697,2,0,2,59963,task1,68403,false,false,79,image-keyboard-response,1
true,1,1,0,1,true,z,false,true,0.0-2.0-0.0-0.1-3.1,0,0,0,90,false,stim,false,-1,898.7999997138977,2,0,2,59963,task1,70828,false,false,82,image-keyboard-response,2
true,1,0,0,2,false,d,true,false,0.0-2.0-0.0-0.2-3.2,0,0,0,81,false,stim,false,-1,941.7000002861023,2,0,1,59963,task1,73290,false,false,85,image-keyboard-response,3
true,1,1,0,2,false,d,true,false,0.0-2.0-0.0-0.3-3.3,0,0,0,90,false,stim,false,-1,579.5999999046326,2,0,1,59963,task1,75383,false,false,88,image-keyboard-response,4
true,1,0,0,2,false,d,true,false,0.0-2.0-0.0-0.4-3.4,0,0,0,81,false,stim,false,-1,1083.0,2,0,0,59963,task1,77973,false,false,91,image-keyboard-response,5
true,1,1,0,2,false,d,true,false,0.0-2.0-0.0-0.5-3.5,0,0,0,90,false,stim,false,-1,615.6000003814697,2,0,0,59963,task1,80108,false,false,94,image-keyboard-response,6
true,1,2,0,2,true,d,false,false,0.0-2.0-0.0-0.6-3.6,0,0,0,68,false,stim,false,-1,538.0,2,0,0,59963,task1,82164,false,true,97,image-keyboard-response,7
true,1,2,0,2,true,d,false,true,0.0-2.0-0.0-0.7-3.7,0,0,0,68,false,stim,false,-1,402.40000009536743,2,0,1,59963,task1,84089,false,false,100,image-keyboard-response,8
true,1,1,0,1,true,z,false,true,0.0-2.0-0.0-0.8-3.8,0,0,0,90,false,stim,false,-1,538.1999998092651,2,0,2,59963,task1,86149,false,false,103,image-keyboard-response,9
true,1,2,0,2,true,d,false,true,0.0-2.0-0.1-0.9-3.9,0,0,0,68,false,stim,false,-1,602.2999997138977,2,0,1,59963,task1,88260,false,false,106,image-keyboard-response,10
true,1,2,0,2,true,d,false,true,0.0-2.0-0.1-0.10-3.10,0,0,0,68,false,stim,false,-1,524.5999999046326,2,0,0,59963,task1,90309,false,false,109,image-keyboard-response,11
true,1,2,0,2,true,d,false,true,0.0-2.0-0.1-0.11-3.11,0,0,0,68,false,stim,false,-1,482.69999980926514,2,0,0,59963,task1,92322,false,false,112,image-keyboard-response,12
true,1,1,0,1,true,z,false,true,0.0-2.0-0.1-0.12-3.12,0,0,0,90,false,stim,false,-1,601.1999998092651,2,0,2,59963,task1,94450,false,false,115,image-keyboard-response,13
true,1,1,0,1,true,z,false,true,0.0-2.0-0.1-0.13-3.13,0,0,0,90,false,stim,false,-1,559.2000002861023,2,0,2,59963,task1,96531,false,false,118,image-keyboard-response,14
true,1,1,0,1,true,z,false,true,0.0-2.0-0.1-0.14-3.14,0,0,0,90,false,stim,false,-1,477.90000009536743,2,0,2,59963,task1,98524,false,false,121,image-keyboard-response,15
true,1,2,0,2,true,d,false,false,0.0-2.0-0.1-0.15-3.15,0,0,0,68,false,stim,false,-1,542.0999999046326,2,0,1,59963,task1,100589,false,true,124,image-keyboard-response,16
true,1,2,0,2,true,d,false,true,0.0-2.0-0.1-0.16-3.16,0,0,0,68,false,stim,false,-1,897.3000001907349,2,0,0,59963,task1,103014,false,false,127,image-keyboard-response,17
true,1,2,0,2,true,d,false,true,0.0-2.0-0.1-0.17-3.17,0,0,0,68,false,stim,false,-1,798.6999998092651,2,0,1,59963,task1,105329,false,false,130,image-keyboard-response,18
true,1,1,0,1,true,z,false,false,0.0-2.0-0.2-0.18-3.18,0,0,0,90,false,stim,false,-1,569.3000001907349,2,0,2,59963,task1,107421,false,true,133,image-keyboard-response,19
true,1,2,0,2,true,d,false,true,0.0-2.0-0.2-0.19-3.19,0,0,0,68,false,stim,false,-1,425.0,2,0,0,59963,task1,109374,false,false,136,image-keyboard-response,20
true,1,2,0,2,true,d,false,true,0.0-2.0-0.2-0.20-3.20,0,0,0,68,false,stim,false,-1,772.1000003814697,2,0,0,59963,task1,111669,false,false,139,image-keyboard-response,21
true,1,2,0,2,true,d,false,true,0.0-2.0-0.2-0.21-3.21,0,0,0,68,false,stim,false,-1,573.7000002861023,2,0,1,59963,task1,113767,false,false,142,image-keyboard-response,22
true,1,1,0,1,true,z,false,true,0.0-2.0-0.2-0.22-3.22,0,0,0,90,false,stim,false,-1,419.40000009536743,2,0,2,59963,task1,115710,false,false,145,image-keyboard-response,23
true,1,2,0,2,true,d,false,false,0.0-2.0-0.2-0.23-3.23,0,0,0,68,false,stim,false,-1,693.4000000953674,2,0,1,59963,task1,117926,false,true,148,image-keyboard-response,24
true,1,2,0,2,true,d,false,true,0.0-2.0-0.2-0.24-3.24,0,0,0,68,false,stim,false,-1,1614.3999996185303,2,0,0,59963,task1,121058,false,false,151,image-keyboard-response,25
true,1,1,0,2,false,d,true,false,0.0-2.0-0.2-0.25-3.25,0,0,0,90,false,stim,false,-1,944.9000000953674,2,0,1,59963,task1,123518,false,false,154,image-keyboard-response,26
true,2,1,1,2,false,d,false,false,0.0-2.0-0.2-0.26-3.26,0,0,0,90,true,stim,true,1,412.59999990463257,2,0,2,59963,task1,125449,false,false,157,image-keyboard-response,1
true,2,0,1,2,false,d,true,false,0.0-2.0-0.3-0.27-3.27,0,0,0,81,false,stim,false,1,608.3000001907349,2,0,2,59963,task1,127584,false,false,160,image-keyboard-response,2
true,2,2,1,1,false,z,false,false,0.0-2.0-0.3-0.28-3.28,0,0,0,68,false,stim,true,2,746.7999997138977,2,0,0,59963,task1,129869,false,false,163,image-keyboard-response,3
true,2,0,1,1,false,z,true,false,0.0-2.0-0.3-0.29-3.29,0,0,0,81,false,stim,false,2,913.7000002861023,2,0,1,59963,task1,132308,false,false,166,image-keyboard-response,4
true,2,2,1,2,true,d,false,true,0.0-2.0-0.3-0.30-3.30,0,0,0,68,false,stim,false,1,1609.2999997138977,2,0,2,59963,task1,135445,false,false,169,image-keyboard-response,5
true,2,1,1,1,true,z,false,true,0.0-2.0-0.3-0.31-3.31,0,0,0,90,false,stim,false,2,841.5999999046326,2,0,0,59963,task1,137807,false,false,172,image-keyboard-response,6
true,2,1,1,1,true,z,false,false,0.0-2.0-0.3-0.32-3.32,0,0,0,90,false,stim,false,2,966.5,2,0,1,59963,task1,140299,false,true,175,image-keyboard-response,7
true,2,2,1,2,true,d,false,true,0.0-2.0-0.3-0.33-3.33,0,0,0,68,false,stim,false,1,574.9000000953674,2,0,2,59963,task1,142396,false,false,178,image-keyboard-response,8
true,2,1,1,1,true,z,false,true,0.0-2.0-0.3-0.34-3.34,0,0,0,90,false,stim,false,2,455.80000019073486,2,0,0,59963,task1,144377,false,false,181,image-keyboard-response,9
true,2,2,1,1,false,z,false,false,0.0-2.0-0.3-0.35-3.35,0,0,0,68,false,stim,true,2,403.40000009536743,2,0,1,59963,task1,146304,false,false,184,image-keyboard-response,10
true,2,0,1,1,false,z,true,false,0.0-2.0-0.4-0.36-3.36,0,0,0,81,false,stim,false,2,887.7999997138977,2,0,1,59963,task1,148706,false,false,187,image-keyboard-response,11
true,2,2,1,2,true,d,false,true,0.0-2.0-0.4-0.37-3.37,0,0,0,68,false,stim,false,1,661.0999999046326,2,0,2,59963,task1,150893,false,false,190,image-keyboard-response,12
true,2,2,1,2,true,d,false,true,0.0-2.0-0.4-0.38-3.38,0,0,0,68,false,stim,false,1,640.0,2,0,2,59963,task1,153069,false,false,193,image-keyboard-response,13
true,2,1,1,1,true,z,false,true,0.0-2.0-0.4-0.39-3.39,0,0,0,90,false,stim,false,2,427.40000009536743,2,0,0,59963,task1,155016,false,false,196,image-keyboard-response,14
true,2,1,1,1,true,z,false,true,0.0-2.0-0.4-0.40-3.40,0,0,0,90,false,stim,false,2,666.6999998092651,2,0,0,59963,task1,157213,false,false,199,image-keyboard-response,15
true,2,2,1,2,true,d,false,true,0.0-2.0-0.4-0.41-3.41,0,0,0,68,false,stim,false,1,515.0,2,0,2,59963,task1,159257,false,false,202,image-keyboard-response,16
true,2,1,1,1,true,z,false,true,0.0-2.0-0.4-0.42-3.42,0,0,0,90,false,stim,false,2,1096.9000000953674,2,0,0,59963,task1,161862,false,false,205,image-keyboard-response,17
true,2,1,1,1,true,z,false,true,0.0-2.0-0.4-0.43-3.43,0,0,0,90,false,stim,false,2,729.1000003814697,2,0,1,59963,task1,164110,false,false,208,image-keyboard-response,18
true,2,1,1,1,true,z,false,true,0.0-2.0-0.4-0.44-3.44,0,0,0,90,false,stim,false,2,517.0,2,0,1,59963,task1,166149,false,false,211,image-keyboard-response,19
true,2,2,1,2,true,d,false,true,0.0-2.0-0.5-0.45-3.45,0,0,0,68,false,stim,false,1,655.2999997138977,2,0,2,59963,task1,168334,false,false,214,image-keyboard-response,20
true,2,2,1,2,true,d,false,true,0.0-2.0-0.5-0.46-3.46,0,0,0,68,false,stim,false,1,594.7999997138977,2,0,2,59963,task1,170449,false,false,217,image-keyboard-response,21
true,2,2,1,2,true,d,false,false,0.0-2.0-0.5-0.47-3.47,0,0,0,68,false,stim,false,1,522.1999998092651,2,0,2,59963,task1,172484,false,true,220,image-keyboard-response,22
true,2,1,1,1,true,z,false,true,0.0-2.0-0.5-0.48-3.48,0,0,0,90,false,stim,false,2,528.5,2,0,1,59963,task1,174539,false,false,223,image-keyboard-response,23
true,2,1,1,1,true,z,false,false,0.0-2.0-0.5-0.49-3.49,0,0,0,90,false,stim,false,2,741.5999999046326,2,0,1,59963,task1,176809,false,true,226,image-keyboard-response,24
true,2,1,1,1,true,z,false,true,0.0-2.0-0.5-0.50-3.50,0,0,0,90,false,stim,false,2,783.2999997138977,2,0,0,59963,task1,179119,false,false,229,image-keyboard-response,25
true,2,2,1,1,false,z,false,false,0.0-2.0-0.5-0.51-3.51,0,0,0,68,false,stim,true,2,1220.6000003814697,2,0,1,59963,task1,181863,false,false,232,image-keyboard-response,26
true,2,1,1,1,true,z,false,true,0.0-2.0-0.5-0.52-3.52,0,0,0,90,false,stim,false,2,534.6999998092651,2,0,0,59963,task1,183920,false,false,235,image-keyboard-response,27
true,2,1,1,1,true,z,false,true,0.0-2.0-0.5-0.53-3.53,0,0,0,90,false,stim,false,2,695.7000002861023,2,0,0,59963,task1,186121,false,false,238,image-keyboard-response,28
true,2,1,1,1,true,z,false,true,0.0-2.0-0.6-0.54-3.54,0,0,0,90,false,stim,false,2,668.6999998092651,2,0,0,59963,task1,188300,false,false,241,image-keyboard-response,29
true,2,1,1,1,true,z,false,true,0.0-2.0-0.6-0.55-3.55,0,0,0,90,false,stim,false,2,495.19999980926514,2,0,0,59963,task1,190307,false,false,244,image-keyboard-response,30
true,2,1,1,1,true,z,false,false,0.0-2.0-0.6-0.56-3.56,0,0,0,90,false,stim,false,2,587.3000001907349,2,0,1,59963,task1,192408,false,true,247,image-keyboard-response,31
true,2,0,1,1,false,z,true,false,0.0-2.0-0.6-0.57-3.57,0,0,0,81,false,stim,false,2,538.2999997138977,2,0,1,59963,task1,194457,false,false,250,image-keyboard-response,32
true,2,1,1,1,true,z,false,false,0.0-2.0-0.6-0.58-3.58,0,0,0,90,false,stim,false,2,615.5,2,0,1,59963,task1,196593,false,true,253,image-keyboard-response,33
true,2,1,1,2,false,d,false,false,0.0-2.0-0.6-0.59-3.59,0,0,0,90,false,stim,true,1,975.5999999046326,2,0,2,59963,task1,199095,false,false,256,image-keyboard-response,34
true,2,2,1,2,true,d,false,true,0.0-2.0-0.6-0.60-3.60,0,0,0,68,false,stim,false,1,627.7000002861023,2,0,2,59963,task1,201249,false,false,259,image-keyboard-response,35
true,2,2,1,2,true,d,false,false,0.0-2.0-0.6-0.61-3.61,0,0,0,68,false,stim,false,1,755.6999998092651,2,0,2,59963,task1,203512,false,true,262,image-keyboard-response,36
true,2,1,1,1,true,z,false,true,0.0-2.0-0.6-0.62-3.62,0,0,0,90,false,stim,false,2,619.4000000953674,2,0,0,59963,task1,205649,false,false,265,image-keyboard-response,37
true,2,1,1,1,true,z,false,false,0.0-2.0-0.7-0.63-3.63,0,0,0,90,false,stim,false,2,552.7000002861023,2,0,0,59963,task1,207732,false,true,268,image-keyboard-response,38
true,2,1,1,1,true,z,false,true,0.0-2.0-0.7-0.64-3.64,0,0,0,90,false,stim,false,2,931.9000000953674,2,0,1,59963,task1,210183,false,false,271,image-keyboard-response,39
true,2,1,1,2,false,d,false,false,0.0-2.0-0.7-0.65-3.65,0,0,0,90,false,stim,true,1,668.5999999046326,2,0,2,59963,task1,212383,false,false,274,image-keyboard-response,40
true,2,2,1,2,true,d,false,true,0.0-2.0-0.7-0.66-3.66,0,0,0,68,false,stim,false,1,526.3999996185303,2,0,2,59963,task1,214430,false,false,277,image-keyboard-response,41
true,2,1,1,1,true,z,false,false,0.0-2.0-0.7-0.67-3.67,0,0,0,90,false,stim,false,2,667.6999998092651,2,0,0,59963,task1,216632,false,true,280,image-keyboard-response,42
true,2,1,1,1,true,z,false,true,0.0-2.0-0.7-0.68-3.68,0,0,0,90,false,stim,false,2,548.7000002861023,2,0,0,59963,task1,218694,false,false,283,image-keyboard-response,43
true,2,1,1,1,true,z,false,true,0.0-2.0-0.7-0.69-3.69,0,0,0,90,false,stim,false,2,607.9000000953674,2,0,1,59963,task1,220819,false,false,286,image-keyboard-response,44
true,2,2,1,2,true,d,false,true,0.0-2.0-0.7-0.70-3.70,0,0,0,68,false,stim,false,1,544.9000000953674,2,0,2,59963,task1,222879,false,false,289,image-keyboard-response,45
true,3,1,1,2,false,d,false,false,0.0-2.0-0.7-0.71-3.71,0,0,0,90,true,stim,true,1,615.1999998092651,2,0,1,59963,task1,225008,false,false,292,image-keyboard-response,1
true,3,1,1,0,false,q,false,false,0.0-2.0-0.8-0.72-3.72,0,0,0,90,false,stim,true,1,697.4000000953674,2,0,0,59963,task1,227225,false,false,295,image-keyboard-response,2
true,3,1,1,0,false,q,false,false,0.0-2.0-0.8-0.73-3.73,0,0,0,90,false,stim,true,1,780.4000000953674,2,0,0,59963,task1,229522,false,false,298,image-keyboard-response,3
true,3,2,1,0,false,q,true,false,0.0-2.0-0.8-0.74-3.74,0,0,0,68,false,stim,false,1,799.1999998092651,2,0,0,59963,task1,231847,false,false,301,image-keyboard-response,4
true,3,1,1,2,false,d,false,false,0.0-2.0-0.8-0.75-3.75,0,0,0,90,false,stim,true,1,1002.6999998092651,2,0,1,59963,task1,234371,false,false,304,image-keyboard-response,5
true,3,2,1,1,false,z,false,false,0.0-2.0-0.8-0.76-3.76,0,0,0,68,false,stim,true,2,624.5999999046326,2,0,2,59963,task1,236513,false,false,307,image-keyboard-response,6
true,3,0,1,2,false,d,true,false,0.0-2.0-0.8-0.77-3.77,0,0,0,81,false,stim,false,1,524.8000001907349,2,0,1,59963,task1,238556,false,false,310,image-keyboard-response,7
true,3,2,1,2,true,d,false,false,0.0-2.0-0.8-0.78-3.78,0,0,0,68,false,stim,false,1,1064.2999997138977,2,0,1,59963,task1,241133,false,true,313,image-keyboard-response,8
true,3,0,1,1,false,z,true,false,0.0-2.0-0.8-0.79-3.79,0,0,0,81,false,stim,false,2,1116.0,2,0,2,59963,task1,243766,false,false,316,image-keyboard-response,9
true,3,1,1,1,true,z,false,true,0.0-2.0-0.8-0.80-3.80,0,0,0,90,false,stim,false,2,813.6999998092651,2,0,2,59963,task1,246098,false,false,319,image-keyboard-response,10
true,3,2,1,0,false,q,true,false,0.0-2.0-0.9-0.81-3.81,0,0,0,68,false,stim,false,1,489.80000019073486,2,0,0,59963,task1,248110,false,false,322,image-keyboard-response,11
true,3,1,1,0,false,q,false,true,0.0-2.0-0.9-0.82-3.82,0,0,0,90,false,stim,true,1,509.40000009536743,2,0,0,59963,task1,250144,false,true,325,image-keyboard-response,12
true,3,2,1,2,true,d,false,true,0.0-2.0-0.9-0.83-3.83,0,0,0,68,false,stim,false,1,577.6999998092651,2,0,1,59963,task1,252250,false,false,328,image-keyboard-response,13
true,3,1,1,0,false,q,false,false,0.0-2.0-0.9-0.84-3.84,0,0,0,90,false,stim,true,1,591.7999997138977,2,0,0,59963,task1,254359,false,false,331,image-keyboard-response,14
true,3,1,1,2,false,d,false,false,0.0-2.0-0.9-0.85-3.85,0,0,0,90,false,stim,true,1,444.7999997138977,2,0,1,59963,task1,256328,false,false,334,image-keyboard-response,15
true,3,1,1,1,true,z,false,true,0.0-2.0-0.9-0.86-3.86,0,0,0,90,false,stim,false,2,449.30000019073486,2,0,2,59963,task1,258289,false,false,337,image-keyboard-response,16
true,3,1,1,1,true,z,false,false,0.0-2.0-0.9-0.87-3.87,0,0,0,90,false,stim,false,2,678.6999998092651,2,0,2,59963,task1,260480,false,true,340,image-keyboard-response,17
true,3,2,1,2,true,d,false,false,0.0-2.0-0.9-0.88-3.88,0,0,0,68,false,stim,false,1,460.0,2,0,1,59963,task1,262447,false,true,343,image-keyboard-response,18
true,3,1,1,1,true,z,false,true,0.0-2.0-0.9-0.89-3.89,0,0,0,90,false,stim,false,2,908.5,2,0,2,59963,task1,264877,false,false,346,image-keyboard-response,19
true,3,1,1,1,true,z,false,true,0.0-2.0-0.10-0.90-3.90,0,0,0,90,false,stim,false,2,512.5999999046326,2,0,2,59963,task1,266904,false,false,349,image-keyboard-response,20
true,3,1,1,1,true,z,false,true,0.0-2.0-0.10-0.91-3.91,0,0,0,90,false,stim,false,2,567.1000003814697,2,0,2,59963,task1,268996,false,false,352,image-keyboard-response,21
true,3,2,1,2,true,d,false,true,0.0-2.0-0.10-0.92-3.92,0,0,0,68,false,stim,false,1,470.2000002861023,2,0,1,59963,task1,270986,false,false,355,image-keyboard-response,22
true,3,2,1,2,true,d,false,true,0.0-2.0-0.10-0.93-3.93,0,0,0,68,false,stim,false,1,596.0,2,0,1,59963,task1,273099,false,false,358,image-keyboard-response,23
true,3,2,1,2,true,d,false,true,0.0-2.0-0.10-0.94-3.94,0,0,0,68,false,stim,false,1,744.2999997138977,2,0,1,59963,task1,275359,false,false,361,image-keyboard-response,24
true,3,1,1,0,false,q,false,false,0.0-2.0-0.10-0.95-3.95,0,0,0,90,false,stim,true,1,628.6999998092651,2,0,0,59963,task1,277516,false,false,364,image-keyboard-response,25
true,3,1,1,0,false,q,false,false,0.0-2.0-0.10-0.96-3.96,0,0,0,90,false,stim,true,1,630.1999998092651,2,0,0,59963,task1,279671,false,false,367,image-keyboard-response,26
true,3,2,1,1,false,z,false,false,0.0-2.0-0.10-0.97-3.97,0,0,0,68,false,stim,true,2,1319.8000001907349,2,0,2,59963,task1,282504,false,false,370,image-keyboard-response,27
true,3,1,1,0,false,q,false,false,0.0-2.0-0.10-0.98-3.98,0,0,0,90,false,stim,true,1,495.90000009536743,2,0,0,59963,task1,284529,false,false,373,image-keyboard-response,28
true,3,1,1,1,true,z,false,true,0.0-2.0-0.11-0.99-3.99,0,0,0,90,false,stim,false,2,672.9000000953674,2,0,2,59963,task1,286715,false,false,376,image-keyboard-response,29
true,3,2,1,2,true,d,false,true,0.0-2.0-0.11-0.100-3.100,0,0,0,68,false,stim,false,1,604.9000000953674,2,0,1,59963,task1,288837,false,false,379,image-keyboard-response,30
true,3,1,1,1,true,z,false,true,0.0-2.0-0.11-0.101-3.101,0,0,0,90,false,stim,false,2,680.9000000953674,2,0,2,59963,task1,291043,false,false,382,image-keyboard-response,31
true,3,2,1,0,false,q,true,false,0.0-2.0-0.11-0.102-3.102,0,0,0,68,false,stim,false,1,538.8999996185303,2,0,0,59963,task1,293102,false,false,385,image-keyboard-response,32
true,3,0,1,0,true,q,false,true,0.0-2.0-0.11-0.103-3.103,0,0,0,81,false,stim,false,1,623.8000001907349,2,0,0,59963,task1,295243,false,false,388,image-keyboard-response,33
true,3,1,1,1,true,z,false,true,0.0-2.0-0.11-0.104-3.104,0,0,0,90,false,stim,false,2,930.4000000953674,2,0,2,59963,task1,297705,false,false,391,image-keyboard-response,34
true,3,2,1,2,true,d,false,true,0.0-2.0-0.11-0.105-3.105,0,0,0,68,false,stim,false,1,541.2999997138977,2,0,1,59963,task1,299762,false,false,394,image-keyboard-response,35
true,3,0,1,0,true,q,false,false,0.0-2.0-0.11-0.106-3.106,0,0,0,81,false,stim,false,1,975.3000001907349,2,0,0,59963,task1,302253,false,true,397,image-keyboard-response,36
true,3,2,1,2,true,d,false,true,0.0-2.0-0.11-0.107-3.107,0,0,0,68,false,stim,false,1,782.0,2,0,1,59963,task1,304557,false,false,400,image-keyboard-response,37
true,3,0,1,0,true,q,false,true,0.0-2.0-0.12-0.108-3.108,0,0,0,81,false,stim,false,1,578.5,2,0,0,59963,task1,306672,false,false,403,image-keyboard-response,38
true,3,0,1,0,true,q,false,true,0.0-2.0-0.12-0.109-3.109,0,0,0,81,false,stim,false,1,638.3999996185303,2,0,0,59963,task1,308838,false,false,406,image-keyboard-response,39
true,3,1,1,1,true,z,false,true,0.0-2.0-0.12-0.110-3.110,0,0,0,90,false,stim,false,2,810.6999998092651,2,0,2,59963,task1,311169,false,false,409,image-keyboard-response,40
true,3,1,1,1,true,z,false,true,0.0-2.0-0.12-0.111-3.111,0,0,0,90,false,stim,false,2,456.0,2,0,2,59963,task1,313155,false,false,412,image-keyboard-response,41
true,3,2,1,2,true,d,false,true,0.0-2.0-0.12-0.112-3.112,0,0,0,68,false,stim,false,1,737.5,2,0,1,59963,task1,315420,false,false,415,image-keyboard-response,42
true,4,2,2,1,false,z,false,true,0.0-2.0-0.12-0.113-3.113,0,0,0,68,true,stim,true,2,608.9000000953674,2,0,1,59963,task1,317543,false,true,418,image-keyboard-response,1
true,4,1,2,2,false,d,false,false,0.0-2.0-0.12-0.114-3.114,0,0,0,90,false,stim,true,1,556.9000000953674,2,0,2,59963,task1,319621,false,false,421,image-keyboard-response,2
true,4,2,2,1,false,z,false,false,0.0-2.0-0.12-0.115-3.115,0,0,0,68,false,stim,true,2,630.1999998092651,2,0,1,59963,task1,321772,false,false,424,image-keyboard-response,3
true,4,0,2,1,false,z,false,false,0.0-2.0-0.12-0.116-3.116,0,0,0,81,false,stim,true,0,753.3000001907349,2,0,0,59963,task1,324041,false,false,427,image-keyboard-response,4
true,4,0,2,1,false,z,false,false,0.0-2.0-0.13-0.117-3.117,0,0,0,81,false,stim,true,0,963.5,2,0,0,59963,task1,326526,false,false,430,image-keyboard-response,5
true,4,1,2,2,false,d,false,false,0.0-2.0-0.13-0.118-3.118,0,0,0,90,false,stim,true,1,1040.9000000953674,2,0,2,59963,task1,329084,false,false,433,image-keyboard-response,6
true,4,1,2,1,true,z,false,true,0.0-2.0-0.13-0.119-3.119,0,0,0,90,false,stim,false,0,905.6000003814697,2,0,0,59963,task1,331510,false,false,436,image-keyboard-response,7
true,4,1,2,1,true,z,false,true,0.0-2.0-0.13-0.120-3.120,0,0,0,90,false,stim,false,2,1000.8000001907349,2,0,1,59963,task1,334037,false,false,439,image-keyboard-response,8
true,4,1,2,1,true,z,false,true,0.0-2.0-0.13-0.121-3.121,0,0,0,90,false,stim,false,0,1066.7000002861023,2,0,0,59963,task1,336629,false,false,442,image-keyboard-response,9
true,4,2,2,2,true,d,false,true,0.0-2.0-0.13-0.122-3.122,0,0,0,68,false,stim,false,1,1010.7999997138977,2,0,2,59963,task1,339162,false,false,445,image-keyboard-response,10
true,4,2,2,2,true,d,false,true,0.0-2.0-0.13-0.123-3.123,0,0,0,68,false,stim,false,1,792.5999999046326,2,0,2,59963,task1,341469,false,false,448,image-keyboard-response,11
true,4,1,2,1,true,z,false,false,0.0-2.0-0.13-0.124-3.124,0,0,0,90,false,stim,false,2,688.6999998092651,2,0,1,59963,task1,343681,false,true,451,image-keyboard-response,12
true,4,1,2,1,true,z,false,true,0.0-2.0-0.13-0.125-3.125,0,0,0,90,false,stim,false,2,619.0999999046326,2,0,1,59963,task1,345828,false,false,454,image-keyboard-response,13
true,4,1,2,1,true,z,false,true,0.0-2.0-0.14-0.126-3.126,0,0,0,90,false,stim,false,2,717.8999996185303,2,0,1,59963,task1,348047,false,false,457,image-keyboard-response,14
true,4,2,2,2,true,d,false,true,0.0-2.0-0.14-0.127-3.127,0,0,0,68,false,stim,false,1,504.7999997138977,2,0,2,59963,task1,350071,false,false,460,image-keyboard-response,15
true,4,2,2,2,true,d,false,true,0.0-2.0-0.14-0.128-3.128,0,0,0,68,false,stim,false,1,687.4000000953674,2,0,2,59963,task1,352281,false,false,463,image-keyboard-response,16
true,4,1,2,1,true,z,false,true,0.0-2.0-0.14-0.129-3.129,0,0,0,90,false,stim,false,0,1048.3000001907349,2,0,0,59963,task1,354852,false,false,466,image-keyboard-response,17
true,4,1,2,1,true,z,false,true,0.0-2.0-0.14-0.130-3.130,0,0,0,90,false,stim,false,0,799.9000000953674,2,0,0,59963,task1,357173,false,false,469,image-keyboard-response,18
true,4,1,2,1,true,z,false,true,0.0-2.0-0.14-0.131-3.131,0,0,0,90,false,stim,false,2,701.1999998092651,2,0,1,59963,task1,359394,false,false,472,image-keyboard-response,19
true,4,1,2,1,true,z,false,false,0.0-2.0-0.14-0.132-3.132,0,0,0,90,false,stim,false,2,650.5,2,0,1,59963,task1,361579,false,true,475,image-keyboard-response,20
true,4,2,2,2,true,d,false,true,0.0-2.0-0.14-0.133-3.133,0,0,0,68,false,stim,false,1,549.1000003814697,2,0,2,59963,task1,363644,false,false,478,image-keyboard-response,21
true,4,1,2,1,true,z,false,true,0.0-2.0-0.14-0.134-3.134,0,0,0,90,false,stim,false,0,470.1000003814697,2,0,0,59963,task1,365627,false,false,481,image-keyboard-response,22
true,4,1,2,1,true,z,false,true,0.0-2.0-0.15-0.135-3.135,0,0,0,90,false,stim,false,2,693.5,2,0,1,59963,task1,367845,false,false,484,image-keyboard-response,23
true,4,1,2,1,true,z,false,true,0.0-2.0-0.15-0.136-3.136,0,0,0,90,false,stim,false,2,810.0,2,0,1,59963,task1,370171,false,false,487,image-keyboard-response,24
true,4,1,2,1,true,z,false,false,0.0-2.0-0.15-0.137-3.137,0,0,0,90,false,stim,false,2,661.5999999046326,2,0,1,59963,task1,372355,false,true,490,image-keyboard-response,25
true,4,2,2,2,true,d,false,true,0.0-2.0-0.15-0.138-3.138,0,0,0,68,false,stim,false,1,919.1999998092651,2,0,2,59963,task1,374789,false,false,493,image-keyboard-response,26
true,4,1,2,1,true,z,false,true,0.0-2.0-0.15-0.139-3.139,0,0,0,90,false,stim,false,0,907.3000001907349,2,0,0,59963,task1,377208,false,false,496,image-keyboard-response,27
true,4,1,2,1,true,z,false,false,0.0-2.0-0.15-0.140-3.140,0,0,0,90,false,stim,false,0,749.4000000953674,2,0,0,59963,task1,379489,false,true,499,image-keyboard-response,28
true,4,1,2,1,true,z,false,true,0.0-2.0-0.15-0.141-3.141,0,0,0,90,false,stim,false,0,957.0999999046326,2,0,0,59963,task1,381973,false,false,502,image-keyboard-response,29
true,4,2,2,2,true,d,false,true,0.0-2.0-0.15-0.142-3.142,0,0,0,68,false,stim,false,1,847.9000000953674,2,0,2,59963,task1,384338,false,false,505,image-keyboard-response,30
true,4,2,2,2,true,d,false,true,0.0-2.0-0.15-0.143-3.143,0,0,0,68,false,stim,false,1,702.2000002861023,2,0,2,59963,task1,386572,false,false,508,image-keyboard-response,31
true,4,2,2,2,true,d,false,true,0.0-2.0-0.16-0.144-3.144,0,0,0,68,false,stim,false,1,1016.8999996185303,2,0,2,59963,task1,389111,false,false,511,image-keyboard-response,32
true,4,2,2,2,true,d,false,true,0.0-2.0-0.16-0.145-3.145,0,0,0,68,false,stim,false,1,787.7000002861023,2,0,2,59963,task1,391413,false,false,514,image-keyboard-response,33
true,4,1,2,1,true,z,false,true,0.0-2.0-0.16-0.146-3.146,0,0,0,90,false,stim,false,2,1003.5,2,0,1,59963,task1,393933,false,false,517,image-keyboard-response,34
true,4,1,2,1,true,z,false,true,0.0-2.0-0.16-0.147-3.147,0,0,0,90,false,stim,false,0,836.7000002861023,2,0,0,59963,task1,396284,false,false,520,image-keyboard-response,35
true,4,2,2,2,true,d,false,true,0.0-2.0-0.16-0.148-3.148,0,0,0,68,false,stim,false,1,863.8999996185303,2,0,2,59963,task1,398676,false,false,523,image-keyboard-response,36
true,4,1,2,1,true,z,false,true,0.0-2.0-0.16-0.149-3.149,0,0,0,90,false,stim,false,0,713.0999999046326,2,0,0,59963,task1,400909,false,false,526,image-keyboard-response,37
true,4,1,2,1,true,z,false,true,0.0-2.0-0.16-0.150-3.150,0,0,0,90,false,stim,false,2,726.8000001907349,2,0,1,59963,task1,403157,false,false,529,image-keyboard-response,38
true,4,1,2,1,true,z,false,true,0.0-2.0-0.16-0.151-3.151,0,0,0,90,false,stim,false,2,657.8999996185303,2,0,1,59963,task1,405330,false,false,532,image-keyboard-response,39
true,4,1,2,1,true,z,false,true,0.0-2.0-0.16-0.152-3.152,0,0,0,90,false,stim,false,0,1198.1999998092651,2,0,0,59963,task1,408064,false,false,535,image-keyboard-response,40
true,4,1,2,1,true,z,false,true,0.0-2.0-0.17-0.153-3.153,0,0,0,90,false,stim,false,2,1710.7999997138977,2,0,1,59963,task1,411297,false,false,538,image-keyboard-response,41
true,4,1,2,1,true,z,false,true,0.0-2.0-0.17-0.154-3.154,0,0,0,90,false,stim,false,2,756.5,2,0,1,59963,task1,413569,false,false,541,image-keyboard-response,42
true,4,1,2,1,true,z,false,true,0.0-2.0-0.17-0.155-3.155,0,0,0,90,false,stim,false,0,681.5,2,0,0,59963,task1,415781,false,false,544,image-keyboard-response,43
true,4,1,2,1,true,z,false,true,0.0-2.0-0.17-0.156-3.156,0,0,0,90,false,stim,false,2,772.0,2,0,1,59963,task1,418082,false,false,547,image-keyboard-response,44
true,4,2,2,2,true,d,false,true,0.0-2.0-0.17-0.157-3.157,0,0,0,68,false,stim,false,1,653.0,2,0,2,59963,task1,420254,false,false,550,image-keyboard-response,45
true,5,2,2,1,false,z,false,true,0.0-2.0-0.17-0.158-3.158,0,0,0,68,true,stim,true,2,566.9000000953674,2,0,2,59963,task1,422356,false,true,553,image-keyboard-response,1
true,5,1,2,0,false,q,false,false,0.0-2.0-0.17-0.159-3.159,0,0,0,90,false,stim,true,1,622.8000001907349,2,0,0,59963,task1,424500,false,false,556,image-keyboard-response,2
true,5,1,2,0,false,q,false,false,0.0-2.0-0.17-0.160-3.160,0,0,0,90,false,stim,true,1,698.0,2,0,0,59963,task1,426722,false,false,559,image-keyboard-response,3
true,5,2,2,1,false,z,false,false,0.0-2.0-0.17-0.161-3.161,0,0,0,68,false,stim,true,2,725.0,2,0,2,59963,task1,428955,false,false,562,image-keyboard-response,4
true,5,1,2,2,false,d,false,false,0.0-2.0-0.18-0.162-3.162,0,0,0,90,false,stim,true,1,774.5,2,0,1,59963,task1,431258,false,false,565,image-keyboard-response,5
true,5,2,2,0,false,q,true,false,0.0-2.0-0.18-0.163-3.163,0,0,0,68,false,stim,false,1,773.4000000953674,2,0,0,59963,task1,433554,false,false,568,image-keyboard-response,6
true,5,0,2,0,true,q,false,true,0.0-2.0-0.18-0.164-3.164,0,0,0,81,false,stim,false,1,757.4000000953674,2,0,0,59963,task1,435833,false,false,571,image-keyboard-response,7
true,5,1,2,1,true,z,false,true,0.0-2.0-0.18-0.165-3.165,0,0,0,90,false,stim,false,2,776.8000001907349,2,0,2,59963,task1,438125,false,false,574,image-keyboard-response,8
true,5,0,2,0,true,q,false,true,0.0-2.0-0.18-0.166-3.166,0,0,0,81,false,stim,false,1,720.2999997138977,2,0,0,59963,task1,440364,false,false,577,image-keyboard-response,9
true,5,0,2,2,false,d,true,false,0.0-2.0-0.18-0.167-3.167,0,0,0,81,false,stim,false,1,781.5999999046326,2,0,1,59963,task1,442681,false,false,580,image-keyboard-response,10
true,5,2,2,2,true,d,false,true,0.0-2.0-0.18-0.168-3.168,0,0,0,68,false,stim,false,1,805.4000000953674,2,0,1,59963,task1,445009,false,false,583,image-keyboard-response,11
true,5,1,2,1,true,z,false,true,0.0-2.0-0.18-0.169-3.169,0,0,0,90,false,stim,false,2,636.4000000953674,2,0,2,59963,task1,447166,false,false,586,image-keyboard-response,12
true,5,1,2,1,true,z,false,true,0.0-2.0-0.18-0.170-3.170,0,0,0,90,false,stim,false,2,695.2999997138977,2,0,2,59963,task1,449384,false,false,589,image-keyboard-response,13
true,5,1,2,1,true,z,false,true,0.0-2.0-0.19-0.171-3.171,0,0,0,90,false,stim,false,2,651.8000001907349,2,0,2,59963,task1,451573,false,false,592,image-keyboard-response,14
true,5,2,2,2,true,d,false,true,0.0-2.0-0.19-0.172-3.172,0,0,0,68,false,stim,false,1,884.8000001907349,2,0,1,59963,task1,453988,false,false,595,image-keyboard-response,15
true,5,1,2,1,true,z,false,true,0.0-2.0-0.19-0.173-3.173,0,0,0,90,false,stim,false,2,673.4000000953674,2,0,2,59963,task1,456180,false,false,598,image-keyboard-response,16
true,5,2,2,2,true,d,false,true,0.0-2.0-0.19-0.174-3.174,0,0,0,68,false,stim,false,1,771.4000000953674,2,0,1,59963,task1,458476,false,false,601,image-keyboard-response,17
true,5,0,2,0,true,q,false,true,0.0-2.0-0.19-0.175-3.175,0,0,0,81,false,stim,false,1,589.5,2,0,0,59963,task1,460597,false,false,604,image-keyboard-response,18
true,5,0,2,0,true,q,false,true,0.0-2.0-0.19-0.176-3.176,0,0,0,81,false,stim,false,1,634.1999998092651,2,0,0,59963,task1,462756,false,false,607,image-keyboard-response,19
true,5,2,2,2,true,d,false,true,0.0-2.0-0.19-0.177-3.177,0,0,0,68,false,stim,false,1,601.1999998092651,2,0,1,59963,task1,464879,false,false,610,image-keyboard-response,20
true,5,1,2,1,true,z,false,true,0.0-2.0-0.19-0.178-3.178,0,0,0,90,false,stim,false,2,560.5,2,0,2,59963,task1,466959,false,false,613,image-keyboard-response,21
true,5,0,2,0,true,q,false,true,0.0-2.0-0.19-0.179-3.179,0,0,0,81,false,stim,false,1,656.5,2,0,0,59963,task1,469144,false,false,616,image-keyboard-response,22
true,5,2,2,2,true,d,false,true,0.0-2.0-0.20-0.180-3.180,0,0,0,68,false,stim,false,1,818.6999998092651,2,0,1,59963,task1,471476,false,false,619,image-keyboard-response,23
true,5,0,2,0,true,q,false,true,0.0-2.0-0.20-0.181-3.181,0,0,0,81,false,stim,false,1,712.1000003814697,2,0,0,59963,task1,473704,false,false,622,image-keyboard-response,24
true,5,1,2,1,true,z,false,true,0.0-2.0-0.20-0.182-3.182,0,0,0,90,false,stim,false,2,889.0,2,0,2,59963,task1,476118,false,false,625,image-keyboard-response,25
true,5,0,2,2,false,d,true,false,0.0-2.0-0.20-0.183-3.183,0,0,0,81,false,stim,false,1,698.1999998092651,2,0,1,59963,task1,478338,false,false,628,image-keyboard-response,26
true,5,0,2,0,true,q,false,true,0.0-2.0-0.20-0.184-3.184,0,0,0,81,false,stim,false,1,573.5,2,0,0,59963,task1,480444,false,false,631,image-keyboard-response,27
true,5,0,2,0,true,q,false,true,0.0-2.0-0.20-0.185-3.185,0,0,0,81,false,stim,false,1,736.8000001907349,2,0,0,59963,task1,482714,false,false,634,image-keyboard-response,28
true,5,1,2,1,true,z,false,true,0.0-2.0-0.20-0.186-3.186,0,0,0,90,false,stim,false,2,676.6999998092651,2,0,2,59963,task1,484919,false,false,637,image-keyboard-response,29
true,5,1,2,1,true,z,false,true,0.0-2.0-0.20-0.187-3.187,0,0,0,90,false,stim,false,2,1100.0999999046326,2,0,2,59963,task1,487535,false,false,640,image-keyboard-response,30
true,5,2,2,2,true,d,false,true,0.0-2.0-0.20-0.188-3.188,0,0,0,68,false,stim,false,1,654.5,2,0,1,59963,task1,489717,false,false,643,image-keyboard-response,31
true,5,2,2,2,true,d,false,false,0.0-2.0-0.21-0.189-3.189,0,0,0,68,false,stim,false,1,668.8000001907349,2,0,1,59963,task1,491912,false,true,646,image-keyboard-response,32
true,5,1,2,1,true,z,false,true,0.0-2.0-0.21-0.190-3.190,0,0,0,90,false,stim,false,2,633.1999998092651,2,0,2,59963,task1,494070,false,false,649,image-keyboard-response,33
true,5,1,2,1,true,z,false,true,0.0-2.0-0.21-0.191-3.191,0,0,0,90,false,stim,false,2,602.4000000953674,2,0,2,59963,task1,496204,false,false,652,image-keyboard-response,34
true,5,0,2,0,true,q,false,true,0.0-2.0-0.21-0.192-3.192,0,0,0,81,false,stim,false,1,633.2000002861023,2,0,0,59963,task1,498362,false,false,655,image-keyboard-response,35
true,5,0,2,0,true,q,false,true,0.0-2.0-0.21-0.193-3.193,0,0,0,81,false,stim,false,1,683.2000002861023,2,0,0,59963,task1,500556,false,false,658,image-keyboard-response,36
true,5,1,2,1,true,z,false,true,0.0-2.0-0.21-0.194-3.194,0,0,0,90,false,stim,false,2,637.0,2,0,2,59963,task1,502717,false,false,661,image-keyboard-response,37
true,5,2,2,2,true,d,false,true,0.0-2.0-0.21-0.195-3.195,0,0,0,68,false,stim,false,1,656.2000002861023,2,0,1,59963,task1,504891,false,false,664,image-keyboard-response,38
true,5,0,2,0,true,q,false,true,0.0-2.0-0.21-0.196-3.196,0,0,0,81,false,stim,false,1,871.0999999046326,2,0,0,59963,task1,507284,false,false,667,image-keyboard-response,39
true,5,2,2,2,true,d,false,true,0.0-2.0-0.21-0.197-3.197,0,0,0,68,false,stim,false,1,844.3000001907349,2,0,1,59963,task1,509656,false,false,670,image-keyboard-response,40
true,5,0,2,0,true,q,false,false,0.0-2.0-0.22-0.198-3.198,0,0,0,81,false,stim,false,1,1238.8999996185303,2,0,0,59963,task1,512408,false,true,673,image-keyboard-response,41
true,6,2,2,1,false,z,false,false,0.0-2.0-0.22-0.199-3.199,0,0,0,68,true,stim,true,2,722.8000001907349,2,0,1,59963,task1,514655,false,false,676,image-keyboard-response,1
true,6,2,2,1,false,z,false,true,0.0-2.0-0.22-0.200-3.200,0,0,0,68,false,stim,true,2,1689.6999998092651,2,0,1,59963,task1,517868,false,true,679,image-keyboard-response,2
true,6,2,2,1,false,z,true,false,0.0-2.0-0.22-0.201-3.201,0,0,0,68,false,stim,false,0,579.2999997138977,2,0,0,59963,task1,519961,false,false,682,image-keyboard-response,3
true,6,1,2,1,true,z,false,true,0.0-2.0-0.22-0.202-3.202,0,0,0,90,false,stim,false,0,987.2000002861023,2,0,0,59963,task1,522473,false,false,685,image-keyboard-response,4
true,6,1,2,2,false,d,false,false,0.0-2.0-0.22-0.203-3.203,0,0,0,90,false,stim,true,1,640.7999997138977,2,0,2,59963,task1,524630,false,false,688,image-keyboard-response,5
true,6,1,2,2,false,d,false,false,0.0-2.0-0.22-0.204-3.204,0,0,0,90,false,stim,true,1,773.1999998092651,2,0,2,59963,task1,526929,false,false,691,image-keyboard-response,6
true,6,0,2,2,false,d,true,false,0.0-2.0-0.22-0.205-3.205,0,0,0,81,false,stim,false,1,572.1999998092651,2,0,2,59963,task1,529022,false,false,694,image-keyboard-response,7
true,6,2,2,1,false,z,false,false,0.0-2.0-0.22-0.206-3.206,0,0,0,68,false,stim,true,2,654.6000003814697,2,0,1,59963,task1,531198,false,false,697,image-keyboard-response,8
true,6,1,2,1,true,z,false,true,0.0-2.0-0.23-0.207-3.207,0,0,0,90,false,stim,false,0,831.2999997138977,2,0,0,59963,task1,533553,false,false,700,image-keyboard-response,9
true,6,2,2,2,true,d,false,true,0.0-2.0-0.23-0.208-3.208,0,0,0,68,false,stim,false,1,691.8999996185303,2,0,2,59963,task1,535770,false,false,703,image-keyboard-response,10
true,6,2,2,1,false,z,false,false,0.0-2.0-0.23-0.209-3.209,0,0,0,68,false,stim,true,2,919.2999997138977,2,0,1,59963,task1,538236,false,false,706,image-keyboard-response,11
true,6,2,2,2,true,d,false,true,0.0-2.0-0.23-0.210-3.210,0,0,0,68,false,stim,false,1,798.1000003814697,2,0,2,59963,task1,540551,false,false,709,image-keyboard-response,12
true,6,2,2,2,true,d,false,true,0.0-2.0-0.23-0.211-3.211,0,0,0,68,false,stim,false,1,444.7000002861023,2,0,2,59963,task1,542517,false,false,712,image-keyboard-response,13
true,6,1,2,1,true,z,false,true,0.0-2.0-0.23-0.212-3.212,0,0,0,90,false,stim,false,0,656.0,2,0,0,59963,task1,544714,false,false,715,image-keyboard-response,14
true,6,1,2,1,true,z,false,true,0.0-2.0-0.23-0.213-3.213,0,0,0,90,false,stim,false,2,558.3000001907349,2,0,1,59963,task1,546796,false,false,718,image-keyboard-response,15
true,6,1,2,1,true,z,false,true,0.0-2.0-0.23-0.214-3.214,0,0,0,90,false,stim,false,0,744.6999998092651,2,0,0,59963,task1,549066,false,false,721,image-keyboard-response,16
true,6,1,2,1,true,z,false,true,0.0-2.0-0.23-0.215-3.215,0,0,0,90,false,stim,false,2,685.7999997138977,2,0,1,59963,task1,551278,false,false,724,image-keyboard-response,17
true,6,1,2,1,true,z,false,true,0.0-2.0-0.24-0.216-3.216,0,0,0,90,false,stim,false,0,611.7999997138977,2,0,0,59963,task1,553410,false,false,727,image-keyboard-response,18
true,6,1,2,1,true,z,false,true,0.0-2.0-0.24-0.217-3.217,0,0,0,90,false,stim,false,2,1072.5999999046326,2,0,1,59963,task1,556019,false,false,730,image-keyboard-response,19
true,6,1,2,1,true,z,false,true,0.0-2.0-0.24-0.218-3.218,0,0,0,90,false,stim,false,2,659.0,2,0,1,59963,task1,558198,false,false,733,image-keyboard-response,20
true,6,2,2,2,true,d,false,true,0.0-2.0-0.24-0.219-3.219,0,0,0,68,false,stim,false,1,641.2999997138977,2,0,2,59963,task1,560351,false,false,736,image-keyboard-response,21
true,6,1,2,1,true,z,false,true,0.0-2.0-0.24-0.220-3.220,0,0,0,90,false,stim,false,2,1037.2000002861023,2,0,1,59963,task1,562906,false,false,739,image-keyboard-response,22
true,6,2,2,2,true,d,false,true,0.0-2.0-0.24-0.221-3.221,0,0,0,68,false,stim,false,1,586.5,2,0,2,59963,task1,565023,false,false,742,image-keyboard-response,23
true,6,1,2,1,true,z,false,true,0.0-2.0-0.24-0.222-3.222,0,0,0,90,false,stim,false,0,842.7999997138977,2,0,0,59963,task1,567386,false,false,745,image-keyboard-response,24
true,6,2,2,2,true,d,false,true,0.0-2.0-0.24-0.223-3.223,0,0,0,68,false,stim,false,1,652.9000000953674,2,0,2,59963,task1,569556,false,false,748,image-keyboard-response,25
true,6,1,2,1,true,z,false,true,0.0-2.0-0.24-0.224-3.224,0,0,0,90,false,stim,false,0,801.5,2,0,0,59963,task1,571895,false,false,751,image-keyboard-response,26
true,6,1,2,1,true,z,false,true,0.0-2.0-0.25-0.225-3.225,0,0,0,90,false,stim,false,2,925.5999999046326,2,0,1,59963,task1,574344,false,false,754,image-keyboard-response,27
true,6,1,2,1,true,z,false,false,0.0-2.0-0.25-0.226-3.226,0,0,0,90,false,stim,false,2,585.2999997138977,2,0,1,59963,task1,576437,false,true,757,image-keyboard-response,28
true,6,1,2,1,true,z,false,true,0.0-2.0-0.25-0.227-3.227,0,0,0,90,false,stim,false,2,437.80000019073486,2,0,1,59963,task1,578404,false,false,760,image-keyboard-response,29
true,6,2,2,2,true,d,false,true,0.0-2.0-0.25-0.228-3.228,0,0,0,68,false,stim,false,1,748.9000000953674,2,0,2,59963,task1,580688,false,false,763,image-keyboard-response,30
true,6,2,2,2,true,d,false,true,0.0-2.0-0.25-0.229-3.229,0,0,0,68,false,stim,false,1,557.7000002861023,2,0,2,59963,task1,582766,false,false,766,image-keyboard-response,31
true,6,2,2,2,true,d,false,true,0.0-2.0-0.25-0.230-3.230,0,0,0,68,false,stim,false,1,630.4000000953674,2,0,2,59963,task1,584928,false,false,769,image-keyboard-response,32
true,6,1,2,1,true,z,false,true,0.0-2.0-0.25-0.231-3.231,0,0,0,90,false,stim,false,0,643.5999999046326,2,0,0,59963,task1,587092,false,false,772,image-keyboard-response,33
true,6,1,2,1,true,z,false,true,0.0-2.0-0.25-0.232-3.232,0,0,0,90,false,stim,false,0,970.3000001907349,2,0,0,59963,task1,589588,false,false,775,image-keyboard-response,34
true,6,1,2,1,true,z,false,false,0.0-2.0-0.25-0.233-3.233,0,0,0,90,false,stim,false,0,491.30000019073486,2,0,0,59963,task1,591596,false,true,778,image-keyboard-response,35
true,6,1,2,1,true,z,false,true,0.0-2.0-0.26-0.234-3.234,0,0,0,90,false,stim,false,2,895.3999996185303,2,0,1,59963,task1,594015,false,false,781,image-keyboard-response,36
true,6,2,2,2,true,d,false,true,0.0-2.0-0.26-0.235-3.235,0,0,0,68,false,stim,false,1,615.8000001907349,2,0,2,59963,task1,596138,false,false,784,image-keyboard-response,37
true,6,1,2,1,true,z,false,true,0.0-2.0-0.26-0.236-3.236,0,0,0,90,false,stim,false,2,643.0,2,0,1,59963,task1,598311,false,false,787,image-keyboard-response,38
true,6,1,2,1,true,z,false,false,0.0-2.0-0.26-0.237-3.237,0,0,0,90,false,stim,false,0,644.6999998092651,2,0,0,59963,task1,600485,false,true,790,image-keyboard-response,39
true,6,1,2,1,true,z,false,true,0.0-2.0-0.26-0.238-3.238,0,0,0,90,false,stim,false,0,1004.1000003814697,2,0,0,59963,task1,603014,false,false,793,image-keyboard-response,40
true,6,1,2,1,true,z,false,true,0.0-2.0-0.26-0.239-3.239,0,0,0,90,false,stim,false,0,727.4000000953674,2,0,0,59963,task1,605262,false,false,796,image-keyboard-response,41
true,6,2,2,2,true,d,false,true,0.0-2.0-0.26-0.240-3.240,0,0,0,68,false,stim,false,1,716.7999997138977,2,0,2,59963,task1,607501,false,false,799,image-keyboard-response,42
true,7,2,2,1,false,z,false,false,0.0-2.0-0.26-0.241-3.241,0,0,0,68,true,stim,true,2,490.0,2,0,2,59963,task1,609524,false,false,802,image-keyboard-response,1
true,7,1,2,2,false,d,false,false,0.0-2.0-0.26-0.242-3.242,0,0,0,90,false,stim,true,1,574.5999999046326,2,0,1,59963,task1,611623,false,false,805,image-keyboard-response,2
true,7,1,2,0,false,q,false,true,0.0-2.0-0.27-0.243-3.243,0,0,0,90,false,stim,true,1,664.9000000953674,2,0,0,59963,task1,613827,false,true,808,image-keyboard-response,3
true,7,2,2,1,false,z,false,false,0.0-2.0-0.27-0.244-3.244,0,0,0,68,false,stim,true,2,2338.2999997138977,2,0,2,59963,task1,617689,false,false,811,image-keyboard-response,4
true,7,1,2,2,false,d,false,false,0.0-2.0-0.27-0.245-3.245,0,0,0,90,false,stim,true,1,776.0999999046326,2,0,1,59963,task1,619985,false,false,814,image-keyboard-response,5
true,7,1,2,1,true,z,false,true,0.0-2.0-0.27-0.246-3.246,0,0,0,90,false,stim,false,2,1185.8999996185303,2,0,2,59963,task1,622703,false,false,817,image-keyboard-response,6
true,7,2,2,2,true,d,false,true,0.0-2.0-0.27-0.247-3.247,0,0,0,68,false,stim,false,1,512.5999999046326,2,0,1,59963,task1,624731,false,false,820,image-keyboard-response,7
true,7,1,2,0,false,q,false,false,0.0-2.0-0.27-0.248-3.248,0,0,0,90,false,stim,true,1,654.7000002861023,2,0,0,59963,task1,626916,false,false,823,image-keyboard-response,8
true,7,2,2,0,false,q,true,true,0.0-2.0-0.27-0.249-3.249,0,0,0,68,false,stim,false,1,504.0,2,0,0,59963,task1,628938,false,true,826,image-keyboard-response,9
true,7,1,2,1,true,z,false,true,0.0-2.0-0.27-0.250-3.250,0,0,0,90,false,stim,false,2,782.1999998092651,2,0,2,59963,task1,631241,false,false,829,image-keyboard-response,10
true,7,2,2,2,true,d,false,true,0.0-2.0-0.27-0.251-3.251,0,0,0,68,false,stim,false,1,550.2000002861023,2,0,1,59963,task1,633305,false,false,832,image-keyboard-response,11
true,7,2,2,2,true,d,false,true,0.0-2.0-0.28-0.252-3.252,0,0,0,68,false,stim,false,1,521.6999998092651,2,0,1,59963,task1,635356,false,false,835,image-keyboard-response,12
true,7,1,2,1,true,z,false,false,0.0-2.0-0.28-0.253-3.253,0,0,0,90,false,stim,false,2,1145.6000003814697,2,0,2,59963,task1,638048,false,true,838,image-keyboard-response,13
true,7,2,2,0,false,q,true,false,0.0-2.0-0.28-0.254-3.254,0,0,0,68,false,stim,false,1,416.90000009536743,2,0,0,59963,task1,639987,false,false,841,image-keyboard-response,14
true,7,2,2,1,false,z,false,true,0.0-2.0-0.28-0.255-3.255,0,0,0,68,false,stim,true,2,729.4000000953674,2,0,2,59963,task1,642233,false,true,844,image-keyboard-response,15
true,7,1,2,0,false,q,false,true,0.0-2.0-0.28-0.256-3.256,0,0,0,90,false,stim,true,1,379.59999990463257,2,0,0,59963,task1,644143,false,true,847,image-keyboard-response,16
true,7,2,2,1,false,z,false,false,0.0-2.0-0.28-0.257-3.257,0,0,0,68,false,stim,true,2,655.0,2,0,2,59963,task1,646326,false,false,850,image-keyboard-response,17
true,7,1,2,0,false,q,false,false,0.0-2.0-0.28-0.258-3.258,0,0,0,90,false,stim,true,1,1172.5,2,0,0,59963,task1,649021,false,false,853,image-keyboard-response,18
true,7,2,2,2,true,d,false,true,0.0-2.0-0.28-0.259-3.259,0,0,0,68,false,stim,false,1,718.6999998092651,2,0,1,59963,task1,651250,false,false,856,image-keyboard-response,19
true,7,2,2,2,true,d,false,true,0.0-2.0-0.28-0.260-3.260,0,0,0,68,false,stim,false,1,521.3000001907349,2,0,1,59963,task1,653289,false,false,859,image-keyboard-response,20
true,7,1,2,1,true,z,false,true,0.0-2.0-0.29-0.261-3.261,0,0,0,90,false,stim,false,2,521.6000003814697,2,0,2,59963,task1,655332,false,false,862,image-keyboard-response,21
true,7,2,2,2,true,d,false,true,0.0-2.0-0.29-0.262-3.262,0,0,0,68,false,stim,false,1,627.5999999046326,2,0,1,59963,task1,657489,false,false,865,image-keyboard-response,22
true,7,2,2,2,true,d,false,true,0.0-2.0-0.29-0.263-3.263,0,0,0,68,false,stim,false,1,562.2999997138977,2,0,1,59963,task1,659567,false,false,868,image-keyboard-response,23
true,7,1,2,1,true,z,false,true,0.0-2.0-0.29-0.264-3.264,0,0,0,90,false,stim,false,2,763.9000000953674,2,0,2,59963,task1,661851,false,false,871,image-keyboard-response,24
true,7,2,2,2,true,d,false,true,0.0-2.0-0.29-0.265-3.265,0,0,0,68,false,stim,false,1,700.0,2,0,1,59963,task1,664081,false,false,874,image-keyboard-response,25
true,7,2,2,0,false,q,true,false,0.0-2.0-0.29-0.266-3.266,0,0,0,68,false,stim,false,1,363.69999980926514,2,0,0,59963,task1,665964,false,false,877,image-keyboard-response,26
true,7,2,2,0,false,q,true,false,0.0-2.0-0.29-0.267-3.267,0,0,0,68,false,stim,false,1,880.3000001907349,2,0,0,59963,task1,668360,false,false,880,image-keyboard-response,27
true,7,1,2,1,true,z,false,false,0.0-2.0-0.29-0.268-3.268,0,0,0,90,false,stim,false,2,594.8000001907349,2,0,2,59963,task1,670471,false,true,883,image-keyboard-response,28
true,7,1,2,0,false,q,false,false,0.0-2.0-0.29-0.269-3.269,0,0,0,90,false,stim,true,1,937.1999998092651,2,0,0,59963,task1,672933,false,false,886,image-keyboard-response,29
true,7,2,2,2,true,d,false,true,0.0-2.0-0.30-0.270-3.270,0,0,0,68,false,stim,false,1,891.3000001907349,2,0,1,59963,task1,675350,false,false,889,image-keyboard-response,30
true,7,2,2,1,false,z,false,false,0.0-2.0-0.30-0.271-3.271,0,0,0,68,false,stim,true,2,511.3999996185303,2,0,2,59963,task1,677388,false,false,892,image-keyboard-response,31
true,7,0,2,0,true,q,false,true,0.0-2.0-0.30-0.272-3.272,0,0,0,81,false,stim,false,1,877.5999999046326,2,0,0,59963,task1,679806,false,false,895,image-keyboard-response,32
true,7,0,2,0,true,q,false,true,0.0-2.0-0.30-0.273-3.273,0,0,0,81,false,stim,false,1,636.8000001907349,2,0,0,59963,task1,681962,false,false,898,image-keyboard-response,33
true,7,0,2,1,false,z,true,true,0.0-2.0-0.30-0.274-3.274,0,0,0,81,false,stim,false,2,483.5,2,0,2,59963,task1,683970,false,true,901,image-keyboard-response,34
true,7,0,2,1,false,z,true,false,0.0-2.0-0.30-0.275-3.275,0,0,0,81,false,stim,false,2,478.69999980926514,2,0,2,59963,task1,685959,false,false,904,image-keyboard-response,35
true,7,0,2,0,true,q,false,true,0.0-2.0-0.30-0.276-3.276,0,0,0,81,false,stim,false,1,406.3999996185303,2,0,0,59963,task1,687893,false,false,907,image-keyboard-response,36
true,7,2,2,2,true,d,false,true,0.0-2.0-0.30-0.277-3.277,0,0,0,68,false,stim,false,1,895.1999998092651,2,0,1,59963,task1,690314,false,false,910,image-keyboard-response,37
true,7,2,2,2,true,d,false,true,0.0-2.0-0.30-0.278-3.278,0,0,0,68,false,stim,false,1,578.6999998092651,2,0,1,59963,task1,692413,false,false,913,image-keyboard-response,38
true,7,0,2,1,false,z,true,false,0.0-2.0-0.31-0.279-3.279,0,0,0,81,false,stim,false,2,768.8000001907349,2,0,2,59963,task1,694715,false,false,916,image-keyboard-response,39
true,7,2,2,2,true,d,false,true,0.0-2.0-0.31-0.280-3.280,0,0,0,68,false,stim,false,1,466.19999980926514,2,0,1,59963,task1,696704,false,false,919,image-keyboard-response,40
true,7,0,2,0,true,q,false,true,0.0-2.0-0.31-0.281-3.281,0,0,0,81,false,stim,false,1,425.0,2,0,0,59963,task1,698656,false,false,922,image-keyboard-response,41
true,7,2,2,2,true,d,false,true,0.0-2.0-0.31-0.282-3.282,0,0,0,68,false,stim,false,1,498.8999996185303,2,0,1,59963,task1,700685,false,false,925,image-keyboard-response,42
true,7,0,2,0,true,q,false,true,0.0-2.0-0.31-0.283-3.283,0,0,0,81,false,stim,false,1,974.4000000953674,2,0,0,59963,task1,703190,false,false,928,image-keyboard-response,43
true,7,0,2,0,true,q,false,true,0.0-2.0-0.31-0.284-3.284,0,0,0,81,false,stim,false,1,538.6000003814697,2,0,0,59963,task1,705252,false,false,931,image-keyboard-response,44
true,7,1,2,1,true,z,false,true,0.0-2.0-0.31-0.285-3.285,0,0,0,90,false,stim,false,2,661.2000002861023,2,0,2,59963,task1,707442,false,false,934,image-keyboard-response,45
true,8,2,2,1,false,z,false,false,0.0-2.0-0.31-0.286-3.286,0,0,0,68,true,stim,true,2,789.4000000953674,2,0,1,59963,task1,709758,false,false,937,image-keyboard-response,1
true,8,1,2,2,false,d,false,true,0.0-2.0-0.31-0.287-3.287,0,0,0,90,false,stim,true,1,796.2999997138977,2,0,2,59963,task1,712070,false,true,940,image-keyboard-response,2
true,8,2,2,1,false,z,false,false,0.0-2.0-0.32-0.288-3.288,0,0,0,68,false,stim,true,2,733.0,2,0,1,59963,task1,714331,false,false,943,image-keyboard-response,3
true,8,0,2,1,false,z,false,false,0.0-2.0-0.32-0.289-3.289,0,0,0,81,false,stim,true,0,673.1999998092651,2,0,0,59963,task1,716528,false,false,946,image-keyboard-response,4
true,8,1,2,2,false,d,false,false,0.0-2.0-0.32-0.290-3.290,0,0,0,90,false,stim,true,1,881.3000001907349,2,0,2,59963,task1,718933,false,false,949,image-keyboard-response,5
true,8,1,2,2,false,d,false,false,0.0-2.0-0.32-0.291-3.291,0,0,0,90,false,stim,true,1,973.0,2,0,2,59963,task1,721420,false,false,952,image-keyboard-response,6
true,8,1,2,1,true,z,false,true,0.0-2.0-0.32-0.292-3.292,0,0,0,90,false,stim,false,2,1115.7000002861023,2,0,1,59963,task1,724047,false,false,955,image-keyboard-response,7
true,8,2,2,2,true,d,false,true,0.0-2.0-0.32-0.293-3.293,0,0,0,68,false,stim,false,1,1419.6999998092651,2,0,2,59963,task1,726996,false,false,958,image-keyboard-response,8
true,8,1,2,1,true,z,false,true,0.0-2.0-0.32-0.294-3.294,0,0,0,90,false,stim,false,0,858.2999997138977,2,0,0,59963,task1,729377,false,false,961,image-keyboard-response,9
true,8,1,2,1,true,z,false,true,0.0-2.0-0.32-0.295-3.295,0,0,0,90,false,stim,false,0,702.3000001907349,2,0,0,59963,task1,731602,false,false,964,image-keyboard-response,10
true,8,1,2,1,true,z,false,true,0.0-2.0-0.32-0.296-3.296,0,0,0,90,false,stim,false,2,824.7000002861023,2,0,1,59963,task1,733944,false,false,967,image-keyboard-response,11
true,8,1,2,1,true,z,false,true,0.0-2.0-0.33-0.297-3.297,0,0,0,90,false,stim,false,0,760.9000000953674,2,0,0,59963,task1,736224,false,false,970,image-keyboard-response,12
true,8,2,2,2,true,d,false,true,0.0-2.0-0.33-0.298-3.298,0,0,0,68,false,stim,false,1,1045.1000003814697,2,0,2,59963,task1,738802,false,false,973,image-keyboard-response,13
true,8,1,2,1,true,z,false,true,0.0-2.0-0.33-0.299-3.299,0,0,0,90,false,stim,false,0,448.0,2,0,0,59963,task1,740775,false,false,976,image-keyboard-response,14
true,8,1,2,1,true,z,false,true,0.0-2.0-0.33-0.300-3.300,0,0,0,90,false,stim,false,0,539.2999997138977,2,0,0,59963,task1,742834,false,false,979,image-keyboard-response,15
true,8,1,2,1,true,z,false,true,0.0-2.0-0.33-0.301-3.301,0,0,0,90,false,stim,false,2,464.90000009536743,2,0,1,59963,task1,744812,false,false,982,image-keyboard-response,16
true,8,1,2,1,true,z,false,true,0.0-2.0-0.33-0.302-3.302,0,0,0,90,false,stim,false,2,459.0,2,0,1,59963,task1,746791,false,false,985,image-keyboard-response,17
true,8,1,2,1,true,z,false,false,0.0-2.0-0.33-0.303-3.303,0,0,0,90,false,stim,false,2,633.0999999046326,2,0,1,59963,task1,748952,false,true,988,image-keyboard-response,18
true,8,2,2,2,true,d,false,false,0.0-2.0-0.33-0.304-3.304,0,0,0,68,false,stim,false,1,623.2999997138977,2,0,2,59963,task1,751105,false,true,991,image-keyboard-response,19
true,8,2,2,2,true,d,false,true,0.0-2.0-0.33-0.305-3.305,0,0,0,68,false,stim,false,1,683.6999998092651,2,0,2,59963,task1,753326,false,false,994,image-keyboard-response,20
true,8,2,2,2,true,d,false,true,0.0-2.0-0.34-0.306-3.306,0,0,0,68,false,stim,false,1,568.1999998092651,2,0,2,59963,task1,755426,false,false,997,image-keyboard-response,21
true,8,1,2,1,true,z,false,true,0.0-2.0-0.34-0.307-3.307,0,0,0,90,false,stim,false,2,647.1000003814697,2,0,1,59963,task1,757584,false,false,1000,image-keyboard-response,22
true,8,1,2,1,true,z,false,true,0.0-2.0-0.34-0.308-3.308,0,0,0,90,false,stim,false,0,645.9000000953674,2,0,0,59963,task1,759751,false,false,1003,image-keyboard-response,23
true,8,2,2,2,true,d,false,true,0.0-2.0-0.34-0.309-3.309,0,0,0,68,false,stim,false,1,1050.7999997138977,2,0,2,59963,task1,762327,false,false,1006,image-keyboard-response,24
true,8,1,2,1,true,z,false,true,0.0-2.0-0.34-0.310-3.310,0,0,0,90,false,stim,false,0,441.90000009536743,2,0,0,59963,task1,764287,false,false,1009,image-keyboard-response,25
true,8,1,2,1,true,z,false,false,0.0-2.0-0.34-0.311-3.311,0,0,0,90,false,stim,false,0,750.7999997138977,2,0,0,59963,task1,766558,false,true,1012,image-keyboard-response,26
true,8,1,2,1,true,z,false,true,0.0-2.0-0.34-0.312-3.312,0,0,0,90,false,stim,false,2,772.7999997138977,2,0,1,59963,task1,768844,false,false,1015,image-keyboard-response,27
true,8,2,2,2,true,d,false,true,0.0-2.0-0.34-0.313-3.313,0,0,0,68,false,stim,false,1,488.2999997138977,2,0,2,59963,task1,770844,false,false,1018,image-keyboard-response,28
true,8,1,2,1,true,z,false,true,0.0-2.0-0.34-0.314-3.314,0,0,0,90,false,stim,false,2,1131.9000000953674,2,0,1,59963,task1,773493,false,false,1021,image-keyboard-response,29
true,8,2,2,2,true,d,false,true,0.0-2.0-0.35-0.315-3.315,0,0,0,68,false,stim,false,1,562.5999999046326,2,0,2,59963,task1,775582,false,false,1024,image-keyboard-response,30
true,8,1,2,1,true,z,false,true,0.0-2.0-0.35-0.316-3.316,0,0,0,90,false,stim,false,0,992.1999998092651,2,0,0,59963,task1,778081,false,false,1027,image-keyboard-response,31
true,8,1,2,1,true,z,false,true,0.0-2.0-0.35-0.317-3.317,0,0,0,90,false,stim,false,0,576.6000003814697,2,0,0,59963,task1,780170,false,false,1030,image-keyboard-response,32
true,8,1,2,1,true,z,false,true,0.0-2.0-0.35-0.318-3.318,0,0,0,90,false,stim,false,0,415.80000019073486,2,0,0,59963,task1,782119,false,false,1033,image-keyboard-response,33
true,8,1,2,1,true,z,false,true,0.0-2.0-0.35-0.319-3.319,0,0,0,90,false,stim,false,2,790.6000003814697,2,0,1,59963,task1,784430,false,false,1036,image-keyboard-response,34
true,8,1,2,1,true,z,false,true,0.0-2.0-0.35-0.320-3.320,0,0,0,90,false,stim,false,2,348.0,2,0,1,59963,task1,786312,false,false,1039,image-keyboard-response,35
true,8,2,2,2,true,d,false,true,0.0-2.0-0.35-0.321-3.321,0,0,0,68,false,stim,false,1,665.2999997138977,2,0,2,59963,task1,788495,false,false,1042,image-keyboard-response,36
true,8,1,2,1,true,z,false,true,0.0-2.0-0.35-0.322-3.322,0,0,0,90,false,stim,false,2,884.8999996185303,2,0,1,59963,task1,790902,false,false,1045,image-keyboard-response,37
true,8,2,2,2,true,d,false,true,0.0-2.0-0.35-0.323-3.323,0,0,0,68,false,stim,false,1,426.59999990463257,2,0,2,59963,task1,792847,false,false,1048,image-keyboard-response,38
true,8,1,2,1,true,z,false,true,0.0-2.0-0.36-0.324-3.324,0,0,0,90,false,stim,false,2,662.0,2,0,1,59963,task1,795034,false,false,1051,image-keyboard-response,39
true,8,1,2,1,true,z,false,false,0.0-2.0-0.36-0.325-3.325,0,0,0,90,false,stim,false,0,845.0999999046326,2,0,0,59963,task1,797407,false,true,1054,image-keyboard-response,40
true,8,1,2,1,true,z,false,true,0.0-2.0-0.36-0.326-3.326,0,0,0,90,false,stim,false,2,579.0,2,0,1,59963,task1,799507,false,false,1057,image-keyboard-response,41
true,8,1,2,1,true,z,false,true,0.0-2.0-0.36-0.327-3.327,0,0,0,90,false,stim,false,0,850.1999998092651,2,0,0,59963,task1,801886,false,false,1060,image-keyboard-response,42
true,8,2,2,2,true,d,false,true,0.0-2.0-0.36-0.328-3.328,0,0,0,68,false,stim,false,1,720.1999998092651,2,0,2,59963,task1,804126,false,false,1063,image-keyboard-response,43
true,8,1,2,1,true,z,false,true,0.0-2.0-0.36-0.329-3.329,0,0,0,90,false,stim,false,0,389.5,2,0,0,59963,task1,806043,false,false,1066,image-keyboard-response,44
true,8,2,2,2,true,d,false,true,0.0-2.0-0.36-0.330-3.330,0,0,0,68,false,stim,false,1,530.2999997138977,2,0,2,59963,task1,808086,false,false,1069,image-keyboard-response,45
true,9,1,2,2,false,d,false,false,0.0-2.0-0.36-0.331-3.331,0,0,0,90,true,stim,true,1,712.8000001907349,2,0,1,59963,task1,810326,false,false,1072,image-keyboard-response,1
true,9,2,2,1,false,z,false,false,0.0-2.0-0.36-0.332-3.332,0,0,0,68,false,stim,true,2,575.6999998092651,2,0,2,59963,task1,812429,false,false,1075,image-keyboard-response,2
true,9,2,2,1,false,z,false,false,0.0-2.0-0.37-0.333-3.333,0,0,0,68,false,stim,true,2,525.8000001907349,2,0,2,59963,task1,814483,false,false,1078,image-keyboard-response,3
true,9,1,2,0,false,q,false,false,0.0-2.0-0.37-0.334-3.334,0,0,0,90,false,stim,true,1,526.9000000953674,2,0,0,59963,task1,816535,false,false,1081,image-keyboard-response,4
true,9,2,2,0,false,q,true,false,0.0-2.0-0.37-0.335-3.335,0,0,0,68,false,stim,false,1,742.1999998092651,2,0,0,59963,task1,818794,false,false,1084,image-keyboard-response,5
true,9,0,2,2,false,d,true,true,0.0-2.0-0.37-0.336-3.336,0,0,0,81,false,stim,false,1,1005.7000002861023,2,0,1,59963,task1,821332,false,true,1087,image-keyboard-response,6
true,9,0,2,2,false,d,true,false,0.0-2.0-0.37-0.337-3.337,0,0,0,81,false,stim,false,1,674.5,2,0,1,59963,task1,823540,false,false,1090,image-keyboard-response,7
true,9,0,2,0,true,q,false,true,0.0-2.0-0.37-0.338-3.338,0,0,0,81,false,stim,false,1,1214.5999999046326,2,0,0,59963,task1,826285,false,false,1093,image-keyboard-response,8
true,9,1,2,2,false,d,false,false,0.0-2.0-0.37-0.339-3.339,0,0,0,90,false,stim,true,1,1850.6999998092651,2,0,1,59963,task1,829667,false,false,1096,image-keyboard-response,9
true,9,1,2,1,true,z,false,true,0.0-2.0-0.37-0.340-3.340,0,0,0,90,false,stim,false,2,445.0,2,0,2,59963,task1,831655,false,false,1099,image-keyboard-response,10
true,9,1,2,1,true,z,false,true,0.0-2.0-0.37-0.341-3.341,0,0,0,90,false,stim,false,2,832.1999998092651,2,0,2,59963,task1,834030,false,false,1102,image-keyboard-response,11
true,9,2,2,2,true,d,false,false,0.0-2.0-0.38-0.342-3.342,0,0,0,68,false,stim,false,1,723.0999999046326,2,0,1,59963,task1,836272,false,true,1105,image-keyboard-response,12
true,9,1,2,1,true,z,false,true,0.0-2.0-0.38-0.343-3.343,0,0,0,90,false,stim,false,2,777.9000000953674,2,0,2,59963,task1,838565,false,false,1108,image-keyboard-response,13
true,9,0,2,0,true,q,false,true,0.0-2.0-0.38-0.344-3.344,0,0,0,81,false,stim,false,1,642.2999997138977,2,0,0,59963,task1,840730,false,false,1111,image-keyboard-response,14
true,9,0,2,0,true,q,false,false,0.0-2.0-0.38-0.345-3.345,0,0,0,81,false,stim,false,1,708.4000000953674,2,0,0,59963,task1,842953,false,true,1114,image-keyboard-response,15
true,9,0,2,2,false,d,true,false,0.0-2.0-0.38-0.346-3.346,0,0,0,81,false,stim,false,1,728.1999998092651,2,0,1,59963,task1,845205,false,false,1117,image-keyboard-response,16
true,9,1,2,1,true,z,false,true,0.0-2.0-0.38-0.347-3.347,0,0,0,90,false,stim,false,2,676.7999997138977,2,0,2,59963,task1,847404,false,false,1120,image-keyboard-response,17
true,9,0,2,0,true,q,false,true,0.0-2.0-0.38-0.348-3.348,0,0,0,81,false,stim,false,1,784.5999999046326,2,0,0,59963,task1,849702,false,false,1123,image-keyboard-response,18
true,9,1,2,2,false,d,false,false,0.0-2.0-0.38-0.349-3.349,0,0,0,90,false,stim,true,1,744.0999999046326,2,0,1,59963,task1,851969,false,false,1126,image-keyboard-response,19
true,9,1,2,1,true,z,false,true,0.0-2.0-0.38-0.350-3.350,0,0,0,90,false,stim,false,2,1236.5999999046326,2,0,2,59963,task1,854723,false,false,1129,image-keyboard-response,20
true,9,1,2,1,true,z,false,false,0.0-2.0-0.39-0.351-3.351,0,0,0,90,false,stim,false,2,656.0999999046326,2,0,2,59963,task1,856913,false,true,1132,image-keyboard-response,21
true,9,2,2,2,true,d,false,true,0.0-2.0-0.39-0.352-3.352,0,0,0,68,false,stim,false,1,375.19999980926514,2,0,1,59963,task1,858812,false,false,1135,image-keyboard-response,22
true,9,2,2,2,true,d,false,true,0.0-2.0-0.39-0.353-3.353,0,0,0,68,false,stim,false,1,613.6000003814697,2,0,1,59963,task1,860933,false,false,1138,image-keyboard-response,23
true,9,1,2,1,true,z,false,true,0.0-2.0-0.39-0.354-3.354,0,0,0,90,false,stim,false,2,770.1999998092651,2,0,2,59963,task1,863215,false,false,1141,image-keyboard-response,24
true,9,1,2,1,true,z,false,false,0.0-2.0-0.39-0.355-3.355,0,0,0,90,false,stim,false,2,613.6000003814697,2,0,2,59963,task1,865361,false,true,1144,image-keyboard-response,25
true,9,2,2,2,true,d,false,true,0.0-2.0-0.39-0.356-3.356,0,0,0,68,false,stim,false,1,734.1999998092651,2,0,1,59963,task1,867620,false,false,1147,image-keyboard-response,26
true,9,0,2,0,true,q,false,true,0.0-2.0-0.39-0.357-3.357,0,0,0,81,false,stim,false,1,687.0,2,0,0,59963,task1,869825,false,false,1150,image-keyboard-response,27
true,9,0,2,0,true,q,false,true,0.0-2.0-0.39-0.358-3.358,0,0,0,81,false,stim,false,1,735.5999999046326,2,0,0,59963,task1,872086,false,false,1153,image-keyboard-response,28
true,9,0,2,0,true,q,false,false,0.0-2.0-0.39-0.359-3.359,0,0,0,81,false,stim,false,1,681.6000003814697,2,0,0,59963,task1,874293,false,true,1156,image-keyboard-response,29
true,9,1,2,1,true,z,false,true,0.0-2.0-0.40-0.360-3.360,0,0,0,90,false,stim,false,2,609.6999998092651,2,0,2,59963,task1,876427,false,false,1159,image-keyboard-response,30
true,9,1,2,1,true,z,false,true,0.0-2.0-0.40-0.361-3.361,0,0,0,90,false,stim,false,2,721.2999997138977,2,0,2,59963,task1,878669,false,false,1162,image-keyboard-response,31
true,9,1,2,1,true,z,false,false,0.0-2.0-0.40-0.362-3.362,0,0,0,90,false,stim,false,2,712.6999998092651,2,0,2,59963,task1,880903,false,true,1165,image-keyboard-response,32
true,9,2,2,2,true,d,false,true,0.0-2.0-0.40-0.363-3.363,0,0,0,68,false,stim,false,1,544.5,2,0,1,59963,task1,882975,false,false,1168,image-keyboard-response,33
true,9,2,2,2,true,d,false,true,0.0-2.0-0.40-0.364-3.364,0,0,0,68,false,stim,false,1,457.90000009536743,2,0,1,59963,task1,884958,false,false,1171,image-keyboard-response,34
true,9,0,2,0,true,q,false,true,0.0-2.0-0.40-0.365-3.365,0,0,0,81,false,stim,false,1,636.1999998092651,2,0,0,59963,task1,887115,false,false,1174,image-keyboard-response,35
true,9,0,2,0,true,q,false,true,0.0-2.0-0.40-0.366-3.366,0,0,0,81,false,stim,false,1,1071.0,2,0,0,59963,task1,889696,false,false,1177,image-keyboard-response,36
true,9,2,2,2,true,d,false,true,0.0-2.0-0.40-0.367-3.367,0,0,0,68,false,stim,false,1,2019.0,2,0,1,59963,task1,893239,false,false,1180,image-keyboard-response,37
true,9,0,2,0,true,q,false,true,0.0-2.0-0.40-0.368-3.368,0,0,0,81,false,stim,false,1,619.2999997138977,2,0,0,59963,task1,895369,false,false,1183,image-keyboard-response,38
true,9,1,2,1,true,z,false,true,0.0-2.0-0.41-0.369-3.369,0,0,0,90,false,stim,false,2,614.0999999046326,2,0,2,59963,task1,897509,false,false,1186,image-keyboard-response,39
true,9,0,2,0,true,q,false,false,0.0-2.0-0.41-0.370-3.370,0,0,0,81,false,stim,false,1,804.4000000953674,2,0,0,59963,task1,899837,false,true,1189,image-keyboard-response,40
true,9,2,2,2,true,d,false,true,0.0-2.0-0.41-0.371-3.371,0,0,0,68,false,stim,false,1,850.2000002861023,2,0,1,59963,task1,902206,false,false,1192,image-keyboard-response,41
true,9,0,2,0,true,q,false,true,0.0-2.0-0.41-0.372-3.372,0,0,0,81,false,stim,false,1,698.7999997138977,2,0,0,59963,task1,904434,false,false,1195,image-keyboard-response,42
true,9,1,2,1,true,z,false,true,0.0-2.0-0.41-0.373-3.373,0,0,0,90,false,stim,false,2,580.3000001907349,2,0,2,59963,task1,906534,false,false,1198,image-keyboard-response,43
true,9,0,2,0,true,q,false,true,0.0-2.0-0.41-0.374-3.374,0,0,0,81,false,stim,false,1,816.6999998092651,2,0,0,59963,task1,908874,false,false,1201,image-keyboard-response,44
true,10,2,1,1,false,z,false,false,0.0-2.0-0.41-0.375-3.375,0,0,0,68,true,stim,true,2,723.1000003814697,2,0,1,59963,task1,911124,false,false,1204,image-keyboard-response,1
true,10,1,1,0,false,q,false,false,0.0-2.0-0.41-0.376-3.376,0,0,0,90,false,stim,true,1,821.1999998092651,2,0,2,59963,task1,913457,false,false,1207,image-keyboard-response,2
true,10,2,1,1,false,z,false,false,0.0-2.0-0.41-0.377-3.377,0,0,0,68,false,stim,true,2,1477.1000003814697,2,0,1,59963,task1,916459,false,false,1210,image-keyboard-response,3
true,10,0,1,1,false,z,false,false,0.0-2.0-0.42-0.378-3.378,0,0,0,81,false,stim,true,0,607.8000001907349,2,0,0,59963,task1,918585,false,false,1213,image-keyboard-response,4
true,10,1,1,1,true,z,false,true,0.0-2.0-0.42-0.379-3.379,0,0,0,90,false,stim,false,2,961.0,2,0,1,59963,task1,921068,false,false,1216,image-keyboard-response,5
true,10,1,1,1,true,z,false,true,0.0-2.0-0.42-0.380-3.380,0,0,0,90,false,stim,false,2,875.1999998092651,2,0,1,59963,task1,923458,false,false,1219,image-keyboard-response,6
true,10,1,1,1,true,z,false,true,0.0-2.0-0.42-0.381-3.381,0,0,0,90,false,stim,false,0,936.0999999046326,2,0,0,59963,task1,925914,false,false,1222,image-keyboard-response,7
true,10,2,1,0,false,q,true,true,0.0-2.0-0.42-0.382-3.382,0,0,0,68,false,stim,false,1,450.19999980926514,2,0,2,59963,task1,927892,false,true,1225,image-keyboard-response,8
true,10,1,1,1,true,z,false,true,0.0-2.0-0.42-0.383-3.383,0,0,0,90,false,stim,false,2,646.0,2,0,1,59963,task1,930075,false,false,1228,image-keyboard-response,9
true,10,1,1,1,true,z,false,true,0.0-2.0-0.42-0.384-3.384,0,0,0,90,false,stim,false,0,627.7000002861023,2,0,0,59963,task1,932234,false,false,1231,image-keyboard-response,10
true,10,2,1,0,false,q,true,false,0.0-2.0-0.42-0.385-3.385,0,0,0,68,false,stim,false,1,625.8000001907349,2,0,2,59963,task1,934386,false,false,1234,image-keyboard-response,11
true,10,2,1,0,false,q,true,true,0.0-2.0-0.42-0.386-3.386,0,0,0,68,false,stim,false,1,542.7999997138977,2,0,2,59963,task1,936457,false,true,1237,image-keyboard-response,12
true,10,1,1,1,true,z,false,true,0.0-2.0-0.43-0.387-3.387,0,0,0,90,false,stim,false,0,730.8000001907349,2,0,0,59963,task1,938731,false,false,1240,image-keyboard-response,13
true,10,2,1,0,false,q,true,false,0.0-2.0-0.43-0.388-3.388,0,0,0,68,false,stim,false,1,631.5999999046326,2,0,2,59963,task1,940891,false,false,1243,image-keyboard-response,14
true,10,2,1,0,false,q,true,false,0.0-2.0-0.43-0.389-3.389,0,0,0,68,false,stim,false,1,551.3000001907349,2,0,2,59963,task1,942971,false,false,1246,image-keyboard-response,15
true,10,1,1,1,true,z,false,true,0.0-2.0-0.43-0.390-3.390,0,0,0,90,false,stim,false,2,627.7999997138977,2,0,1,59963,task1,945129,false,false,1249,image-keyboard-response,16
true,10,1,1,1,true,z,false,true,0.0-2.0-0.43-0.391-3.391,0,0,0,90,false,stim,false,2,583.0,2,0,1,59963,task1,947242,false,false,1252,image-keyboard-response,17
true,10,1,1,1,true,z,false,false,0.0-2.0-0.43-0.392-3.392,0,0,0,90,false,stim,false,2,522.6999998092651,2,0,1,59963,task1,949283,false,true,1255,image-keyboard-response,18
true,10,1,1,1,true,z,false,true,0.0-2.0-0.43-0.393-3.393,0,0,0,90,false,stim,false,0,623.8999996185303,2,0,0,59963,task1,951430,false,false,1258,image-keyboard-response,19
true,10,1,1,1,true,z,false,false,0.0-2.0-0.43-0.394-3.394,0,0,0,90,false,stim,false,0,763.5,2,0,0,59963,task1,953722,false,true,1261,image-keyboard-response,20
true,10,0,1,0,true,q,false,true,0.0-2.0-0.43-0.395-3.395,0,0,0,81,false,stim,false,1,595.6999998092651,2,0,2,59963,task1,955849,false,false,1264,image-keyboard-response,21
true,10,1,1,1,true,z,false,true,0.0-2.0-0.44-0.396-3.396,0,0,0,90,false,stim,false,0,794.5999999046326,2,0,0,59963,task1,958175,false,false,1267,image-keyboard-response,22
true,10,1,1,1,true,z,false,true,0.0-2.0-0.44-0.397-3.397,0,0,0,90,false,stim,false,2,398.09999990463257,2,0,1,59963,task1,960096,false,false,1270,image-keyboard-response,23
true,10,0,1,0,true,q,false,true,0.0-2.0-0.44-0.398-3.398,0,0,0,81,false,stim,false,1,526.5999999046326,2,0,2,59963,task1,962153,false,false,1273,image-keyboard-response,24
true,10,1,1,1,true,z,false,true,0.0-2.0-0.44-0.399-3.399,0,0,0,90,false,stim,false,0,753.1000003814697,2,0,0,59963,task1,964429,false,false,1276,image-keyboard-response,25
true,10,1,1,1,true,z,false,true,0.0-2.0-0.44-0.400-3.400,0,0,0,90,false,stim,false,2,529.6000003814697,2,0,1,59963,task1,966481,false,false,1279,image-keyboard-response,26
true,10,1,1,1,true,z,false,true,0.0-2.0-0.44-0.401-3.401,0,0,0,90,false,stim,false,0,963.7999997138977,2,0,0,59963,task1,968960,false,false,1282,image-keyboard-response,27
true,10,0,1,0,true,q,false,true,0.0-2.0-0.44-0.402-3.402,0,0,0,81,false,stim,false,1,767.0,2,0,2,59963,task1,971243,false,false,1285,image-keyboard-response,28
true,10,0,1,0,true,q,false,true,0.0-2.0-0.44-0.403-3.403,0,0,0,81,false,stim,false,1,658.5,2,0,2,59963,task1,973423,false,false,1288,image-keyboard-response,29
true,10,1,1,1,true,z,false,true,0.0-2.0-0.44-0.404-3.404,0,0,0,90,false,stim,false,2,1025.7999997138977,2,0,1,59963,task1,975972,false,false,1291,image-keyboard-response,30
true,10,1,1,1,true,z,false,true,0.0-2.0-0.45-0.405-3.405,0,0,0,90,false,stim,false,2,664.3000001907349,2,0,1,59963,task1,978173,false,false,1294,image-keyboard-response,31
true,10,1,1,1,true,z,false,true,0.0-2.0-0.45-0.406-3.406,0,0,0,90,false,stim,false,2,661.4000000953674,2,0,1,59963,task1,980355,false,false,1297,image-keyboard-response,32
true,10,1,1,1,true,z,false,true,0.0-2.0-0.45-0.407-3.407,0,0,0,90,false,stim,false,0,1103.9000000953674,2,0,0,59963,task1,982973,false,false,1300,image-keyboard-response,33
true,10,1,1,1,true,z,false,true,0.0-2.0-0.45-0.408-3.408,0,0,0,90,false,stim,false,2,522.8000001907349,2,0,1,59963,task1,985028,false,false,1303,image-keyboard-response,34
true,10,0,1,0,true,q,false,true,0.0-2.0-0.45-0.409-3.409,0,0,0,81,false,stim,false,1,593.4000000953674,2,0,2,59963,task1,987143,false,false,1306,image-keyboard-response,35
true,10,0,1,0,true,q,false,true,0.0-2.0-0.45-0.410-3.410,0,0,0,81,false,stim,false,1,622.0,2,0,2,59963,task1,989295,false,false,1309,image-keyboard-response,36
true,10,1,1,1,true,z,false,true,0.0-2.0-0.45-0.411-3.411,0,0,0,90,false,stim,false,0,780.2999997138977,2,0,0,59963,task1,991599,false,false,1312,image-keyboard-response,37
true,10,0,1,0,true,q,false,false,0.0-2.0-0.45-0.412-3.412,0,0,0,81,false,stim,false,1,673.5,2,0,2,59963,task1,993796,false,true,1315,image-keyboard-response,38
true,10,1,1,1,true,z,false,true,0.0-2.0-0.45-0.413-3.413,0,0,0,90,false,stim,false,0,623.7999997138977,2,0,0,59963,task1,995937,false,false,1318,image-keyboard-response,39
true,10,0,1,0,true,q,false,true,0.0-2.0-0.46-0.414-3.414,0,0,0,81,false,stim,false,1,736.9000000953674,2,0,2,59963,task1,998194,false,false,1321,image-keyboard-response,40
true,10,1,1,1,true,z,false,true,0.0-2.0-0.46-0.415-3.415,0,0,0,90,false,stim,false,2,750.5999999046326,2,0,1,59963,task1,1000453,false,false,1324,image-keyboard-response,41
true,11,0,1,2,false,d,false,false,0.0-2.0-0.46-0.416-3.416,0,0,0,81,true,stim,true,0,605.9000000953674,2,0,2,59963,task1,1002570,false,false,1327,image-keyboard-response,1
true,11,1,1,0,false,q,false,false,0.0-2.0-0.46-0.417-3.417,0,0,0,90,false,stim,true,1,456.59999990463257,2,0,1,59963,task1,1004535,false,false,1330,image-keyboard-response,2
true,11,0,1,0,true,q,false,true,0.0-2.0-0.46-0.418-3.418,0,0,0,81,false,stim,false,1,1334.4000000953674,2,0,1,59963,task1,1007404,false,false,1333,image-keyboard-response,3
true,11,1,1,2,false,d,false,false,0.0-2.0-0.46-0.419-3.419,0,0,0,90,false,stim,true,1,481.59999990463257,2,0,0,59963,task1,1009411,false,false,1336,image-keyboard-response,4
true,11,2,1,2,true,d,false,false,0.0-2.0-0.46-0.420-3.420,0,0,0,68,false,stim,false,0,603.5999999046326,2,0,2,59963,task1,1011528,false,true,1339,image-keyboard-response,5
true,11,0,1,2,false,d,true,false,0.0-2.0-0.46-0.421-3.421,0,0,0,81,false,stim,false,1,1481.0999999046326,2,0,0,59963,task1,1014518,false,false,1342,image-keyboard-response,6
true,11,1,1,2,false,d,false,false,0.0-2.0-0.46-0.422-3.422,0,0,0,90,false,stim,true,1,572.8999996185303,2,0,0,59963,task1,1016616,false,false,1345,image-keyboard-response,7
true,11,0,1,0,true,q,false,true,0.0-2.0-0.47-0.423-3.423,0,0,0,81,false,stim,false,1,596.5,2,0,1,59963,task1,1018745,false,false,1348,image-keyboard-response,8
true,11,0,1,0,true,q,false,true,0.0-2.0-0.47-0.424-3.424,0,0,0,81,false,stim,false,1,474.7999997138977,2,0,1,59963,task1,1020741,false,false,1351,image-keyboard-response,9
true,11,2,1,2,true,d,false,true,0.0-2.0-0.47-0.425-3.425,0,0,0,68,false,stim,false,1,1637.7999997138977,2,0,0,59963,task1,1023912,false,false,1354,image-keyboard-response,10
true,11,2,1,2,true,d,false,false,0.0-2.0-0.47-0.426-3.426,0,0,0,68,false,stim,false,1,621.4000000953674,2,0,0,59963,task1,1026072,false,true,1357,image-keyboard-response,11
true,11,1,1,2,false,d,true,false,0.0-2.0-0.47-0.427-3.427,0,0,0,90,false,stim,false,0,631.8000001907349,2,0,2,59963,task1,1028238,false,false,1360,image-keyboard-response,12
true,11,0,1,2,false,d,false,false,0.0-2.0-0.47-0.428-3.428,0,0,0,81,false,stim,true,0,596.3000001907349,2,0,2,59963,task1,1030359,false,false,1363,image-keyboard-response,13
true,11,0,1,0,true,q,false,true,0.0-2.0-0.47-0.429-3.429,0,0,0,81,false,stim,false,1,409.5,2,0,1,59963,task1,1032286,false,false,1366,image-keyboard-response,14
true,11,2,1,2,true,d,false,true,0.0-2.0-0.47-0.430-3.430,0,0,0,68,false,stim,false,0,797.4000000953674,2,0,2,59963,task1,1034599,false,false,1369,image-keyboard-response,15
true,11,1,1,2,false,d,false,false,0.0-2.0-0.47-0.431-3.431,0,0,0,90,false,stim,true,1,476.2000002861023,2,0,0,59963,task1,1036605,false,false,1372,image-keyboard-response,16
true,11,0,1,0,true,q,false,true,0.0-2.0-0.48-0.432-3.432,0,0,0,81,false,stim,false,1,705.7999997138977,2,0,1,59963,task1,1038822,false,false,1375,image-keyboard-response,17
true,11,0,1,0,true,q,false,true,0.0-2.0-0.48-0.433-3.433,0,0,0,81,false,stim,false,1,561.2999997138977,2,0,1,59963,task1,1040910,false,false,1378,image-keyboard-response,18
true,11,2,1,2,true,d,false,true,0.0-2.0-0.48-0.434-3.434,0,0,0,68,false,stim,false,1,801.0999999046326,2,0,0,59963,task1,1043234,false,false,1381,image-keyboard-response,19
true,11,2,1,2,true,d,false,true,0.0-2.0-0.48-0.435-3.435,0,0,0,68,false,stim,false,1,539.7999997138977,2,0,0,59963,task1,1045297,false,false,1384,image-keyboard-response,20
true,11,2,1,2,true,d,false,true,0.0-2.0-0.48-0.436-3.436,0,0,0,68,false,stim,false,0,856.8999996185303,2,0,2,59963,task1,1047673,false,false,1387,image-keyboard-response,21
true,11,2,1,2,true,d,false,false,0.0-2.0-0.48-0.437-3.437,0,0,0,68,false,stim,false,0,934.0,2,0,2,59963,task1,1050127,false,true,1390,image-keyboard-response,22
true,11,0,1,0,true,q,false,true,0.0-2.0-0.48-0.438-3.438,0,0,0,81,false,stim,false,1,854.6999998092651,2,0,1,59963,task1,1052505,false,false,1393,image-keyboard-response,23
true,11,2,1,2,true,d,false,true,0.0-2.0-0.48-0.439-3.439,0,0,0,68,false,stim,false,0,817.6999998092651,2,0,2,59963,task1,1054838,false,false,1396,image-keyboard-response,24
true,11,2,1,2,true,d,false,true,0.0-2.0-0.48-0.440-3.440,0,0,0,68,false,stim,false,1,644.6999998092651,2,0,0,59963,task1,1057020,false,false,1399,image-keyboard-response,25
true,11,2,1,2,true,d,false,false,0.0-2.0-0.49-0.441-3.441,0,0,0,68,false,stim,false,1,430.59999990463257,2,0,0,59963,task1,1058987,false,true,1402,image-keyboard-response,26
true,11,2,1,0,false,q,true,false,0.0-2.0-0.49-0.442-3.442,0,0,0,68,false,stim,false,1,2234.7000002861023,2,0,1,59963,task1,1062734,false,false,1405,image-keyboard-response,27
true,11,2,1,2,true,d,false,true,0.0-2.0-0.49-0.443-3.443,0,0,0,68,false,stim,false,1,842.4000000953674,2,0,0,59963,task1,1065098,false,false,1408,image-keyboard-response,28
true,11,0,1,0,true,q,false,true,0.0-2.0-0.49-0.444-3.444,0,0,0,81,false,stim,false,1,389.0,2,0,1,59963,task1,1067018,false,false,1411,image-keyboard-response,29
true,11,2,1,2,true,d,false,true,0.0-2.0-0.49-0.445-3.445,0,0,0,68,false,stim,false,0,515.2000002861023,2,0,2,59963,task1,1069058,false,false,1414,image-keyboard-response,30
true,11,2,1,2,true,d,false,true,0.0-2.0-0.49-0.446-3.446,0,0,0,68,false,stim,false,0,1077.2999997138977,2,0,2,59963,task1,1071655,false,false,1417,image-keyboard-response,31
true,11,0,1,0,true,q,false,true,0.0-2.0-0.49-0.447-3.447,0,0,0,81,false,stim,false,1,477.0,2,0,1,59963,task1,1073645,false,false,1420,image-keyboard-response,32
true,11,2,1,2,true,d,false,true,0.0-2.0-0.49-0.448-3.448,0,0,0,68,false,stim,false,0,459.5,2,0,2,59963,task1,1075632,false,false,1423,image-keyboard-response,33
true,11,2,1,2,true,d,false,true,0.0-2.0-0.49-0.449-3.449,0,0,0,68,false,stim,false,1,1008.5999999046326,2,0,0,59963,task1,1078164,false,false,1426,image-keyboard-response,34
true,11,2,1,0,false,q,true,false,0.0-2.0-0.50-0.450-3.450,0,0,0,68,false,stim,false,1,795.5,2,0,1,59963,task1,1080472,false,false,1429,image-keyboard-response,35
true,11,2,1,2,true,d,false,true,0.0-2.0-0.50-0.451-3.451,0,0,0,68,false,stim,false,1,519.5999999046326,2,0,0,59963,task1,1082515,false,false,1432,image-keyboard-response,36
true,11,2,1,2,true,d,false,true,0.0-2.0-0.50-0.452-3.452,0,0,0,68,false,stim,false,0,572.5,2,0,2,59963,task1,1084610,false,false,1435,image-keyboard-response,37
true,11,2,1,2,true,d,false,true,0.0-2.0-0.50-0.453-3.453,0,0,0,68,false,stim,false,1,711.7000002861023,2,0,0,59963,task1,1086852,false,false,1438,image-keyboard-response,38
true,11,2,1,2,true,d,false,true,0.0-2.0-0.50-0.454-3.454,0,0,0,68,false,stim,false,1,518.5,2,0,0,59963,task1,1088891,false,false,1441,image-keyboard-response,39
true,11,2,1,2,true,d,false,true,0.0-2.0-0.50-0.455-3.455,0,0,0,68,false,stim,false,0,556.4000000953674,2,0,2,59963,task1,1090963,false,false,1444,image-keyboard-response,40
true,12,0,1,1,false,z,false,false,0.0-2.0-0.50-0.456-3.456,0,0,0,81,true,stim,true,0,560.1999998092651,2,0,1,59963,task1,1093052,false,false,1447,image-keyboard-response,1
true,12,0,1,1,false,z,false,false,0.0-2.0-0.50-0.457-3.457,0,0,0,81,false,stim,true,0,655.4000000953674,2,0,1,59963,task1,1095226,false,false,1450,image-keyboard-response,2
true,12,2,1,0,false,q,false,false,0.0-2.0-0.50-0.458-3.458,0,0,0,68,false,stim,true,2,566.0999999046326,2,0,2,59963,task1,1097317,false,false,1453,image-keyboard-response,3
true,12,1,1,1,true,z,false,true,0.0-2.0-0.51-0.459-3.459,0,0,0,90,false,stim,false,0,759.0999999046326,2,0,1,59963,task1,1099606,false,false,1456,image-keyboard-response,4
true,12,1,1,1,true,z,false,true,0.0-2.0-0.51-0.460-3.460,0,0,0,90,false,stim,false,0,612.5999999046326,2,0,1,59963,task1,1101730,false,false,1459,image-keyboard-response,5
true,12,0,1,0,true,q,false,true,0.0-2.0-0.51-0.461-3.461,0,0,0,81,false,stim,false,2,1093.0,2,0,2,59963,task1,1104346,false,false,1462,image-keyboard-response,6
true,12,0,1,0,true,q,false,true,0.0-2.0-0.51-0.462-3.462,0,0,0,81,false,stim,false,2,461.5,2,0,2,59963,task1,1106326,false,false,1465,image-keyboard-response,7
true,12,1,1,1,true,z,false,true,0.0-2.0-0.51-0.463-3.463,0,0,0,90,false,stim,false,0,628.5999999046326,2,0,1,59963,task1,1108471,false,false,1468,image-keyboard-response,8
true,12,2,1,0,false,q,false,false,0.0-2.0-0.51-0.464-3.464,0,0,0,68,false,stim,true,2,711.2999997138977,2,0,0,59963,task1,1110704,false,false,1471,image-keyboard-response,9
true,12,0,1,0,true,q,false,false,0.0-2.0-0.51-0.465-3.465,0,0,0,81,false,stim,false,2,817.9000000953674,2,0,2,59963,task1,1113031,false,true,1474,image-keyboard-response,10
true,12,0,1,0,true,q,false,true,0.0-2.0-0.51-0.466-3.466,0,0,0,81,false,stim,false,2,1464.1999998092651,2,0,0,59963,task1,1116017,false,false,1477,image-keyboard-response,11
true,12,0,1,0,true,q,false,true,0.0-2.0-0.51-0.467-3.467,0,0,0,81,false,stim,false,2,577.5999999046326,2,0,0,59963,task1,1118121,false,false,1480,image-keyboard-response,12
true,12,1,1,1,true,z,false,true,0.0-2.0-0.52-0.468-3.468,0,0,0,90,false,stim,false,0,833.1999998092651,2,0,1,59963,task1,1120479,false,false,1483,image-keyboard-response,13
true,12,0,1,0,true,q,false,true,0.0-2.0-0.52-0.469-3.469,0,0,0,81,false,stim,false,2,703.2999997138977,2,0,0,59963,task1,1122709,false,false,1486,image-keyboard-response,14
true,12,0,1,0,true,q,false,true,0.0-2.0-0.52-0.470-3.470,0,0,0,81,false,stim,false,2,444.40000009536743,2,0,2,59963,task1,1124676,false,false,1489,image-keyboard-response,15
true,12,1,1,0,false,q,true,false,0.0-2.0-0.52-0.471-3.471,0,0,0,90,false,stim,false,2,896.3000001907349,2,0,0,59963,task1,1127092,false,false,1492,image-keyboard-response,16
true,12,1,1,1,true,z,false,true,0.0-2.0-0.52-0.472-3.472,0,0,0,90,false,stim,false,0,388.59999990463257,2,0,1,59963,task1,1129006,false,false,1495,image-keyboard-response,17
true,12,0,1,0,true,q,false,true,0.0-2.0-0.52-0.473-3.473,0,0,0,81,false,stim,false,2,460.40000009536743,2,0,2,59963,task1,1130992,false,false,1498,image-keyboard-response,18
true,12,1,1,1,true,z,false,true,0.0-2.0-0.52-0.474-3.474,0,0,0,90,false,stim,false,0,802.0999999046326,2,0,1,59963,task1,1133343,false,false,1501,image-keyboard-response,19
true,12,0,1,0,true,q,false,true,0.0-2.0-0.52-0.475-3.475,0,0,0,81,false,stim,false,2,679.2999997138977,2,0,0,59963,task1,1135551,false,false,1504,image-keyboard-response,20
true,12,0,1,0,true,q,false,true,0.0-2.0-0.52-0.476-3.476,0,0,0,81,false,stim,false,2,693.8000001907349,2,0,2,59963,task1,1137764,false,false,1507,image-keyboard-response,21
true,12,0,1,0,true,q,false,true,0.0-2.0-0.53-0.477-3.477,0,0,0,81,false,stim,false,2,651.1999998092651,2,0,0,59963,task1,1139934,false,false,1510,image-keyboard-response,22
true,12,1,1,1,true,z,false,false,0.0-2.0-0.53-0.478-3.478,0,0,0,90,false,stim,false,0,597.5999999046326,2,0,1,59963,task1,1142054,false,true,1513,image-keyboard-response,23
true,12,0,1,0,true,q,false,true,0.0-2.0-0.53-0.479-3.479,0,0,0,81,false,stim,false,2,687.8000001907349,2,0,0,59963,task1,1144268,false,false,1516,image-keyboard-response,24
true,12,0,1,0,true,q,false,true,0.0-2.0-0.53-0.480-3.480,0,0,0,81,false,stim,false,2,635.5999999046326,2,0,2,59963,task1,1146427,false,false,1519,image-keyboard-response,25
true,12,0,1,0,true,q,false,true,0.0-2.0-0.53-0.481-3.481,0,0,0,81,false,stim,false,2,967.5999999046326,2,0,0,59963,task1,1148930,false,false,1522,image-keyboard-response,26
true,12,0,1,0,true,q,false,true,0.0-2.0-0.53-0.482-3.482,0,0,0,81,false,stim,false,2,491.80000019073486,2,0,2,59963,task1,1150941,false,false,1525,image-keyboard-response,27
true,12,1,1,1,true,z,false,true,0.0-2.0-0.53-0.483-3.483,0,0,0,90,false,stim,false,0,726.5,2,0,1,59963,task1,1153194,false,false,1528,image-keyboard-response,28
true,12,1,1,1,true,z,false,true,0.0-2.0-0.53-0.484-3.484,0,0,0,90,false,stim,false,0,690.0999999046326,2,0,1,59963,task1,1155413,false,false,1531,image-keyboard-response,29
true,12,0,1,0,true,q,false,true,0.0-2.0-0.53-0.485-3.485,0,0,0,81,false,stim,false,2,1134.5,2,0,2,59963,task1,1158067,false,false,1534,image-keyboard-response,30
true,12,1,1,1,true,z,false,true,0.0-2.0-0.54-0.486-3.486,0,0,0,90,false,stim,false,0,1393.7000002861023,2,0,1,59963,task1,1160979,false,false,1537,image-keyboard-response,31
true,12,0,1,0,true,q,false,true,0.0-2.0-0.54-0.487-3.487,0,0,0,81,false,stim,false,2,740.1999998092651,2,0,0,59963,task1,1163256,false,false,1540,image-keyboard-response,32
true,12,0,1,0,true,q,false,true,0.0-2.0-0.54-0.488-3.488,0,0,0,81,false,stim,false,2,1102.8000001907349,2,0,2,59963,task1,1165880,false,false,1543,image-keyboard-response,33
true,12,0,1,0,true,q,false,true,0.0-2.0-0.54-0.489-3.489,0,0,0,81,false,stim,false,2,719.3000001907349,2,0,2,59963,task1,1168123,false,false,1546,image-keyboard-response,34
true,12,1,1,1,true,z,false,false,0.0-2.0-0.54-0.490-3.490,0,0,0,90,false,stim,false,0,742.1000003814697,2,0,1,59963,task1,1170385,false,true,1549,image-keyboard-response,35
true,12,1,1,1,true,z,false,true,0.0-2.0-0.54-0.491-3.491,0,0,0,90,false,stim,false,0,495.19999980926514,2,0,1,59963,task1,1172410,false,false,1552,image-keyboard-response,36
true,12,0,1,0,true,q,false,true,0.0-2.0-0.54-0.492-3.492,0,0,0,81,false,stim,false,2,1163.3000001907349,2,0,2,59963,task1,1175087,false,false,1555,image-keyboard-response,37
true,12,0,1,0,true,q,false,true,0.0-2.0-0.54-0.493-3.493,0,0,0,81,false,stim,false,2,923.9000000953674,2,0,0,59963,task1,1177545,false,false,1558,image-keyboard-response,38
true,12,0,1,0,true,q,false,true,0.0-2.0-0.54-0.494-3.494,0,0,0,81,false,stim,false,2,494.80000019073486,2,0,0,59963,task1,1179570,false,false,1561,image-keyboard-response,39
true,13,0,1,1,false,z,false,true,0.0-2.0-0.55-0.495-3.495,0,0,0,81,true,stim,true,0,824.2000002861023,2,0,2,59963,task1,1181912,false,true,1564,image-keyboard-response,1
true,13,1,1,2,false,d,false,false,0.0-2.0-0.55-0.496-3.496,0,0,0,90,false,stim,true,1,819.2000002861023,2,0,1,59963,task1,1184258,false,false,1567,image-keyboard-response,2
true,13,0,1,1,false,z,false,false,0.0-2.0-0.55-0.497-3.497,0,0,0,81,false,stim,true,0,677.5999999046326,2,0,2,59963,task1,1186471,false,false,1570,image-keyboard-response,3
true,13,0,1,1,false,z,false,false,0.0-2.0-0.55-0.498-3.498,0,0,0,81,false,stim,true,0,750.3000001907349,2,0,0,59963,task1,1188745,false,false,1573,image-keyboard-response,4
true,13,1,1,1,true,z,false,true,0.0-2.0-0.55-0.499-3.499,0,0,0,90,false,stim,false,0,944.5,2,0,0,59963,task1,1191216,false,false,1576,image-keyboard-response,5
true,13,1,1,1,true,z,false,true,0.0-2.0-0.55-0.500-3.500,0,0,0,90,false,stim,false,0,567.0,2,0,2,59963,task1,1193306,false,false,1579,image-keyboard-response,6
true,13,2,1,2,true,d,false,true,0.0-2.0-0.55-0.501-3.501,0,0,0,68,false,stim,false,1,446.69999980926514,2,0,1,59963,task1,1195276,false,false,1582,image-keyboard-response,7
true,13,1,1,1,true,z,false,true,0.0-2.0-0.55-0.502-3.502,0,0,0,90,false,stim,false,0,593.9000000953674,2,0,0,59963,task1,1197397,false,false,1585,image-keyboard-response,8
true,13,2,1,2,true,d,false,true,0.0-2.0-0.55-0.503-3.503,0,0,0,68,false,stim,false,1,563.5999999046326,2,0,1,59963,task1,1199490,false,false,1588,image-keyboard-response,9
true,13,1,1,1,true,z,false,true,0.0-2.0-0.56-0.504-3.504,0,0,0,90,false,stim,false,0,529.7999997138977,2,0,2,59963,task1,1201534,false,false,1591,image-keyboard-response,10
true,13,2,1,2,true,d,false,true,0.0-2.0-0.56-0.505-3.505,0,0,0,68,false,stim,false,1,726.0,2,0,1,59963,task1,1203794,false,false,1594,image-keyboard-response,11
true,13,1,1,1,true,z,false,true,0.0-2.0-0.56-0.506-3.506,0,0,0,90,false,stim,false,0,355.0,2,0,2,59963,task1,1205671,false,false,1597,image-keyboard-response,12
true,13,1,1,1,true,z,false,true,0.0-2.0-0.56-0.507-3.507,0,0,0,90,false,stim,false,0,509.19999980926514,2,0,0,59963,task1,1207700,false,false,1600,image-keyboard-response,13
true,13,1,1,1,true,z,false,true,0.0-2.0-0.56-0.508-3.508,0,0,0,90,false,stim,false,0,543.0,2,0,0,59963,task1,1209791,false,false,1603,image-keyboard-response,14
true,13,2,1,2,true,d,false,true,0.0-2.0-0.56-0.509-3.509,0,0,0,68,false,stim,false,1,956.7000002861023,2,0,1,59963,task1,1212270,false,false,1606,image-keyboard-response,15
true,13,1,1,1,true,z,false,true,0.0-2.0-0.56-0.510-3.510,0,0,0,90,false,stim,false,0,450.09999990463257,2,0,2,59963,task1,1214245,false,false,1609,image-keyboard-response,16
true,13,2,1,2,true,d,false,true,0.0-2.0-0.56-0.511-3.511,0,0,0,68,false,stim,false,1,762.0,2,0,1,59963,task1,1216527,false,false,1612,image-keyboard-response,17
true,13,1,1,1,true,z,false,true,0.0-2.0-0.56-0.512-3.512,0,0,0,90,false,stim,false,0,399.59999990463257,2,0,0,59963,task1,1218451,false,false,1615,image-keyboard-response,18
true,13,2,1,2,true,d,false,true,0.0-2.0-0.57-0.513-3.513,0,0,0,68,false,stim,false,1,599.4000000953674,2,0,1,59963,task1,1220572,false,false,1618,image-keyboard-response,19
true,13,1,1,1,true,z,false,true,0.0-2.0-0.57-0.514-3.514,0,0,0,90,false,stim,false,0,1160.4000000953674,2,0,0,59963,task1,1223255,false,false,1621,image-keyboard-response,20
true,13,2,1,2,true,d,false,true,0.0-2.0-0.57-0.515-3.515,0,0,0,68,false,stim,false,1,375.30000019073486,2,0,1,59963,task1,1225157,false,false,1624,image-keyboard-response,21
true,13,1,1,1,true,z,false,true,0.0-2.0-0.57-0.516-3.516,0,0,0,90,false,stim,false,0,657.7999997138977,2,0,2,59963,task1,1227328,false,false,1627,image-keyboard-response,22
true,13,1,1,1,true,z,false,true,0.0-2.0-0.57-0.517-3.517,0,0,0,90,false,stim,false,0,688.5999999046326,2,0,0,59963,task1,1229529,false,false,1630,image-keyboard-response,23
true,13,2,1,2,true,d,false,true,0.0-2.0-0.57-0.518-3.518,0,0,0,68,false,stim,false,1,452.40000009536743,2,0,1,59963,task1,1231508,false,false,1633,image-keyboard-response,24
true,13,1,1,1,true,z,false,true,0.0-2.0-0.57-0.519-3.519,0,0,0,90,false,stim,false,0,577.8000001907349,2,0,2,59963,task1,1233621,false,false,1636,image-keyboard-response,25
true,13,1,1,1,true,z,false,true,0.0-2.0-0.57-0.520-3.520,0,0,0,90,false,stim,false,0,563.7000002861023,2,0,0,59963,task1,1235720,false,false,1639,image-keyboard-response,26
true,13,1,1,1,true,z,false,false,0.0-2.0-0.57-0.521-3.521,0,0,0,90,false,stim,false,0,746.0,2,0,2,59963,task1,1237986,false,true,1642,image-keyboard-response,27
true,13,2,1,2,true,d,false,true,0.0-2.0-0.58-0.522-3.522,0,0,0,68,false,stim,false,1,734.0,2,0,1,59963,task1,1240248,false,false,1645,image-keyboard-response,28
true,13,1,1,1,true,z,false,true,0.0-2.0-0.58-0.523-3.523,0,0,0,90,false,stim,false,0,570.2000002861023,2,0,0,59963,task1,1242345,false,false,1648,image-keyboard-response,29
true,13,2,1,2,true,d,false,true,0.0-2.0-0.58-0.524-3.524,0,0,0,68,false,stim,false,1,588.2000002861023,2,0,1,59963,task1,1244458,false,false,1651,image-keyboard-response,30
true,13,2,1,2,true,d,false,true,0.0-2.0-0.58-0.525-3.525,0,0,0,68,false,stim,false,1,523.2999997138977,2,0,1,59963,task1,1246509,false,false,1654,image-keyboard-response,31
true,13,1,1,1,true,z,false,true,0.0-2.0-0.58-0.526-3.526,0,0,0,90,false,stim,false,0,673.5999999046326,2,0,2,59963,task1,1248710,false,false,1657,image-keyboard-response,32
true,13,1,1,1,true,z,false,true,0.0-2.0-0.58-0.527-3.527,0,0,0,90,false,stim,false,0,528.8999996185303,2,0,2,59963,task1,1250766,false,false,1660,image-keyboard-response,33
true,13,1,1,1,true,z,false,true,0.0-2.0-0.58-0.528-3.528,0,0,0,90,false,stim,false,0,1297.6000003814697,2,0,0,59963,task1,1253588,false,false,1663,image-keyboard-response,34
true,13,1,1,1,true,z,false,true,0.0-2.0-0.58-0.529-3.529,0,0,0,90,false,stim,false,0,472.7999997138977,2,0,0,59963,task1,1255595,false,false,1666,image-keyboard-response,35
true,13,1,1,1,true,z,false,true,0.0-2.0-0.58-0.530-3.530,0,0,0,90,false,stim,false,0,706.4000000953674,2,0,2,59963,task1,1257811,false,false,1669,image-keyboard-response,36
true,13,2,1,2,true,d,false,true,0.0-2.0-0.59-0.531-3.531,0,0,0,68,false,stim,false,1,414.1000003814697,2,0,1,59963,task1,1259744,false,false,1672,image-keyboard-response,37
true,13,1,1,2,false,d,false,false,0.0-2.0-0.59-0.532-3.532,0,0,0,90,false,stim,true,1,373.80000019073486,2,0,1,59963,task1,1261653,false,false,1675,image-keyboard-response,38
true,13,1,1,1,true,z,false,true,0.0-2.0-0.59-0.533-3.533,0,0,0,90,false,stim,false,0,785.0,2,0,0,59963,task1,1263968,false,false,1678,image-keyboard-response,39
true,13,1,1,1,true,z,false,true,0.0-2.0-0.59-0.534-3.534,0,0,0,90,false,stim,false,0,565.8000001907349,2,1,2,59963,task1,1266055,false,false,1681,image-keyboard-response,40
true,13,1,1,1,true,z,false,true,0.0-2.0-0.59-0.535-3.535,0,0,0,90,false,stim,false,0,454.7999997138977,2,1,2,59963,task1,1268031,false,false,1684,image-keyboard-response,41
true,13,1,1,1,true,z,false,true,0.0-2.0-0.59-0.536-3.536,0,0,0,90,false,stim,false,0,462.5,2,1,2,59963,task1,1270011,false,false,1687,image-keyboard-response,42
true,13,1,1,1,true,z,false,true,0.0-2.0-0.59-0.537-3.537,0,0,0,90,false,stim,false,0,654.9000000953674,2,1,0,59963,task1,1272182,false,false,1690,image-keyboard-response,43
true,13,1,1,1,true,z,false,true,0.0-2.0-0.59-0.538-3.538,0,0,0,90,false,stim,false,0,567.0,2,1,0,59963,task1,1274270,false,false,1693,image-keyboard-response,44
true,14,2,0,2,true,d,false,true,0.0-2.0-0.59-0.539-3.539,1,1,1,68,true,stim,false,2,686.5999999046326,2,1,1,59963,task1,1397774,false,false,1816,image-keyboard-response,1
true,14,1,0,1,true,z,false,true,0.0-2.0-0.60-0.540-3.540,1,1,1,90,false,stim,false,1,639.0999999046326,2,1,2,59963,task1,1399937,false,false,1819,image-keyboard-response,2
true,14,2,0,2,true,d,false,true,0.0-2.0-0.60-0.541-3.541,1,1,1,68,false,stim,false,2,1149.1999998092651,2,1,1,59963,task1,1402618,false,false,1822,image-keyboard-response,3
true,14,1,0,1,true,z,false,true,0.0-2.0-0.60-0.542-3.542,1,1,1,90,false,stim,false,1,860.2000002861023,2,1,2,59963,task1,1404998,false,false,1825,image-keyboard-response,4
true,14,1,0,1,true,z,false,false,0.0-2.0-0.60-0.543-3.543,1,1,1,90,false,stim,false,1,600.0,2,1,0,59963,task1,1407117,false,true,1828,image-keyboard-response,5
true,14,1,0,1,true,z,false,true,0.0-2.0-0.60-0.544-3.544,1,1,1,90,false,stim,false,1,553.8999996185303,2,1,0,59963,task1,1409195,false,false,1831,image-keyboard-response,6
true,14,1,0,1,true,z,false,true,0.0-2.0-0.60-0.545-3.545,1,1,1,90,false,stim,false,1,979.0999999046326,2,1,2,59963,task1,1411685,false,false,1834,image-keyboard-response,7
true,14,2,0,2,true,d,false,true,0.0-2.0-0.60-0.546-3.546,1,1,1,68,false,stim,false,2,331.09999990463257,2,1,1,59963,task1,1413541,false,false,1837,image-keyboard-response,8
true,14,1,0,1,true,z,false,true,0.0-2.0-0.60-0.547-3.547,1,1,1,90,false,stim,false,1,998.2999997138977,2,0,0,59963,task1,1416058,false,false,1840,image-keyboard-response,9
true,14,2,0,2,true,d,false,false,0.0-2.0-0.60-0.548-3.548,1,1,1,68,false,stim,false,2,647.0999999046326,2,0,1,59963,task1,1418225,false,true,1843,image-keyboard-response,10
true,14,1,0,1,true,z,false,true,0.0-2.0-0.61-0.549-3.549,1,1,1,90,false,stim,false,1,527.6999998092651,2,0,2,59963,task1,1420279,false,false,1846,image-keyboard-response,11
true,14,2,0,2,true,d,false,true,0.0-2.0-0.61-0.550-3.550,1,1,1,68,false,stim,false,2,547.0999999046326,2,0,1,59963,task1,1422356,false,false,1849,image-keyboard-response,12
true,14,1,0,1,true,z,false,true,0.0-2.0-0.61-0.551-3.551,1,1,1,90,false,stim,false,1,1091.5,2,0,0,59963,task1,1424980,false,false,1852,image-keyboard-response,13
true,15,1,1,2,false,d,false,true,0.0-2.0-0.61-0.552-3.552,0,0,0,90,true,stim,true,1,699.6000003814697,2,0,2,59963,task1,1427206,false,true,1855,image-keyboard-response,1
true,15,1,1,2,false,d,false,false,0.0-2.0-0.61-0.553-3.553,0,0,0,90,false,stim,true,1,725.5999999046326,2,0,0,59963,task1,1429455,false,false,1858,image-keyboard-response,2
true,15,1,1,2,false,d,false,false,0.0-2.0-0.61-0.554-3.554,0,0,0,90,false,stim,true,1,961.0,2,0,2,59963,task1,1431933,false,false,1861,image-keyboard-response,3
true,15,1,1,1,true,z,false,true,0.0-2.0-0.61-0.555-3.555,0,0,0,90,false,stim,false,2,1174.5999999046326,2,0,1,59963,task1,1434624,false,false,1864,image-keyboard-response,4
true,15,1,1,1,true,z,false,true,0.0-2.0-0.61-0.556-3.556,0,0,0,90,false,stim,false,2,802.0,2,0,1,59963,task1,1436938,false,false,1867,image-keyboard-response,5
true,15,2,1,2,true,d,false,true,0.0-2.0-0.61-0.557-3.557,0,0,0,68,false,stim,false,1,950.3000001907349,2,0,0,59963,task1,1439410,false,false,1870,image-keyboard-response,6
true,15,2,1,2,true,d,false,true,0.0-2.0-0.62-0.558-3.558,0,0,0,68,false,stim,false,1,982.0,2,0,2,59963,task1,1441910,false,false,1873,image-keyboard-response,7
true,15,2,1,2,true,d,false,true,0.0-2.0-0.62-0.559-3.559,0,0,0,68,false,stim,false,1,525.9000000953674,2,0,2,59963,task1,1443961,false,false,1876,image-keyboard-response,8
true,15,2,1,2,true,d,false,true,0.0-2.0-0.62-0.560-3.560,0,0,0,68,false,stim,false,1,1943.3000001907349,2,0,0,59963,task1,1447429,false,false,1879,image-keyboard-response,9
true,15,1,1,1,true,z,false,true,0.0-2.0-0.62-0.561-3.561,0,0,0,90,false,stim,false,2,723.8000001907349,2,0,1,59963,task1,1449674,false,false,1882,image-keyboard-response,10
true,15,1,1,1,true,z,false,true,0.0-2.0-0.62-0.562-3.562,0,0,0,90,false,stim,false,2,914.5999999046326,2,0,1,59963,task1,1452108,false,false,1885,image-keyboard-response,11
true,15,2,1,2,true,d,false,false,0.0-2.0-0.62-0.563-3.563,0,0,0,68,false,stim,false,1,1489.2999997138977,2,0,0,59963,task1,1455107,false,true,1888,image-keyboard-response,12
true,15,2,1,2,true,d,false,true,0.0-2.0-0.62-0.564-3.564,0,0,0,68,false,stim,false,1,594.6999998092651,2,0,0,59963,task1,1457222,false,false,1891,image-keyboard-response,13
true,15,1,1,1,true,z,false,true,0.0-2.0-0.62-0.565-3.565,0,0,0,90,false,stim,false,2,702.1999998092651,2,0,1,59963,task1,1459456,false,false,1894,image-keyboard-response,14
true,15,2,1,2,true,d,false,true,0.0-2.0-0.62-0.566-3.566,0,0,0,68,false,stim,false,1,1255.6999998092651,2,0,2,59963,task1,1462228,false,false,1897,image-keyboard-response,15
true,15,1,1,1,true,z,false,true,0.0-2.0-0.63-0.567-3.567,0,0,0,90,false,stim,false,2,988.0999999046326,2,0,1,59963,task1,1464755,false,false,1900,image-keyboard-response,16
true,15,2,1,2,true,d,false,true,0.0-2.0-0.63-0.568-3.568,0,0,0,68,false,stim,false,1,497.0,2,0,0,59963,task1,1466781,false,false,1903,image-keyboard-response,17
true,15,2,1,2,true,d,false,true,0.0-2.0-0.63-0.569-3.569,0,0,0,68,false,stim,false,1,772.7999997138977,2,0,2,59963,task1,1469082,false,false,1906,image-keyboard-response,18
true,15,2,1,2,true,d,false,true,0.0-2.0-0.63-0.570-3.570,0,0,0,68,false,stim,false,1,941.0,2,0,0,59963,task1,1471560,false,false,1909,image-keyboard-response,19
true,15,1,1,1,true,z,false,false,0.0-2.0-0.63-0.571-3.571,0,0,0,90,false,stim,false,2,547.5999999046326,2,0,1,59963,task1,1473633,false,true,1912,image-keyboard-response,20
true,15,1,1,1,true,z,false,true,0.0-2.0-0.63-0.572-3.572,0,0,0,90,false,stim,false,2,522.1999998092651,2,0,1,59963,task1,1475679,false,false,1915,image-keyboard-response,21
true,15,2,1,2,true,d,false,true,0.0-2.0-0.63-0.573-3.573,0,0,0,68,false,stim,false,1,621.6999998092651,2,0,2,59963,task1,1477832,false,false,1918,image-keyboard-response,22
true,15,2,1,2,true,d,false,true,0.0-2.0-0.63-0.574-3.574,0,0,0,68,false,stim,false,1,752.8000001907349,2,0,0,59963,task1,1480111,false,false,1921,image-keyboard-response,23
true,15,2,1,2,true,d,false,true,0.0-2.0-0.63-0.575-3.575,0,0,0,68,false,stim,false,1,740.5999999046326,2,0,2,59963,task1,1482386,false,false,1924,image-keyboard-response,24
true,15,2,1,2,true,d,false,true,0.0-2.0-0.64-0.576-3.576,0,0,0,68,false,stim,false,1,493.69999980926514,2,0,0,59963,task1,1484400,false,false,1927,image-keyboard-response,25
true,15,2,1,2,true,d,false,true,0.0-2.0-0.64-0.577-3.577,0,0,0,68,false,stim,false,1,636.9000000953674,2,0,2,59963,task1,1486564,false,false,1930,image-keyboard-response,26
true,15,2,1,2,true,d,false,true,0.0-2.0-0.64-0.578-3.578,0,0,0,68,false,stim,false,1,498.0,2,0,2,59963,task1,1488584,false,false,1933,image-keyboard-response,27
true,15,2,1,2,true,d,false,true,0.0-2.0-0.64-0.579-3.579,0,0,0,68,false,stim,false,1,598.4000000953674,2,0,0,59963,task1,1490718,false,false,1936,image-keyboard-response,28
true,15,1,1,1,true,z,false,true,0.0-2.0-0.64-0.580-3.580,0,0,0,90,false,stim,false,2,408.80000019073486,2,0,1,59963,task1,1492655,false,false,1939,image-keyboard-response,29
true,15,1,1,1,true,z,false,true,0.0-2.0-0.64-0.581-3.581,0,0,0,90,false,stim,false,2,1026.8000001907349,2,0,1,59963,task1,1495203,false,false,1942,image-keyboard-response,30
true,15,2,1,2,true,d,false,false,0.0-2.0-0.64-0.582-3.582,0,0,0,68,false,stim,false,1,688.7999997138977,2,0,2,59963,task1,1497425,false,true,1945,image-keyboard-response,31
true,15,1,1,1,true,z,false,true,0.0-2.0-0.64-0.583-3.583,0,0,0,90,false,stim,false,2,1342.2999997138977,2,0,1,59963,task1,1500283,false,false,1948,image-keyboard-response,32
true,15,2,1,2,true,d,false,true,0.0-2.0-0.64-0.584-3.584,0,0,0,68,false,stim,false,1,840.0999999046326,2,0,0,59963,task1,1502653,false,false,1951,image-keyboard-response,33
true,15,2,1,2,true,d,false,true,0.0-2.0-0.65-0.585-3.585,0,0,0,68,false,stim,false,1,477.59999990463257,2,0,0,59963,task1,1504656,false,false,1954,image-keyboard-response,34
true,15,1,1,1,true,z,false,true,0.0-2.0-0.65-0.586-3.586,0,0,0,90,false,stim,false,2,687.5999999046326,2,0,1,59963,task1,1506856,false,false,1957,image-keyboard-response,35
true,15,2,1,2,true,d,false,true,0.0-2.0-0.65-0.587-3.587,0,0,0,68,false,stim,false,1,594.8999996185303,2,0,2,59963,task1,1508973,false,false,1960,image-keyboard-response,36
true,15,2,1,2,true,d,false,true,0.0-2.0-0.65-0.588-3.588,0,0,0,68,false,stim,false,1,619.2999997138977,2,0,0,59963,task1,1511109,false,false,1963,image-keyboard-response,37
true,15,2,1,2,true,d,false,false,0.0-2.0-0.65-0.589-3.589,0,0,0,68,false,stim,false,1,1188.3999996185303,2,0,2,59963,task1,1513807,false,true,1966,image-keyboard-response,38
true,15,2,1,2,true,d,false,true,0.0-2.0-0.65-0.590-3.590,0,0,0,68,false,stim,false,1,926.4000000953674,2,0,2,59963,task1,1516254,false,false,1969,image-keyboard-response,39
