answered,blockNum,choice,condition,corResp,correct,correct_response,explo,fb,internal_node_id,isStable_1,isStable_2,isStable_3,key_press,newBlock,part,persev,persevResp,rt,sessNum,stableAS,stimulus,subject,task,time_elapsed,training,trap,trial_index,trial_type,trialsInBlock
true,1,0,0,2,false,d,true,true,0.0-2.0-0.0-0.0-3.0,0,0,0,81,true,stim,false,-1,1184.0,1,0,1,59963,task2,85783,false,true,88,image-keyboard-response,1
true,1,0,0,2,false,d,true,false,0.0-2.0-0.0-0.1-3.1,0,0,0,81,false,stim,false,-1,701.5,1,0,0,59963,task2,88009,false,false,91,image-keyboard-response,2
true,1,0,0,2,false,d,true,false,0.0-2.0-0.0-0.2-3.2,0,0,0,81,false,stim,false,-1,724.2999997138977,1,0,1,59963,task2,90255,false,false,94,image-keyboard-response,3
true,1,1,0,2,false,d,true,false,0.0-2.0-0.0-0.3-3.3,0,0,0,90,false,stim,false,-1,1036.3000001907349,1,0,0,59963,task2,92816,false,false,97,image-keyboard-response,4
true,1,2,0,0,false,q,true,false,0.0-2.0-0.0-0.4-3.4,0,0,0,68,false,stim,false,-1,772.0,1,0,2,59963,task2,95105,false,false,100,image-keyboard-response,5
true,1,1,0,2,false,d,true,false,0.0-2.0-0.0-0.5-3.5,0,0,0,90,false,stim,false,-1,1214.4000000953674,1,0,1,59963,task2,97844,false,false,103,image-keyboard-response,6
true,1,0,0,2,false,d,true,false,0.0-2.0-0.0-0.6-3.6,0,0,0,81,false,stim,false,-1,978.6999998092651,1,0,0,59963,task2,100329,false,false,106,image-keyboard-response,7
true,1,0,0,0,true,q,false,true,0.0-2.0-0.0-0.7-3.7,0,0,0,81,false,stim,false,-1,985.3000001907349,1,0,2,59963,task2,102826,false,false,109,image-keyboard-response,8
true,1,0,0,0,true,q,false,true,0.0-2.0-0.0-0.8-3.8,0,0,0,81,false,stim,false,-1,674.7000002861023,1,0,2,59963,task2,105021,false,false,112,image-keyboard-response,9
true,1,2,0,2,true,d,false,true,0.0-2.0-0.1-0.9-3.9,0,0,0,68,false,stim,false,-1,979.2000002861023,1,0,1,59963,task2,107512,false,false,115,image-keyboard-response,10
true,1,0,0,0,true,q,false,true,0.0-2.0-0.1-0.10-3.10,0,0,0,81,false,stim,false,-1,593.0,1,0,2,59963,task2,109626,false,false,118,image-keyboard-response,11
true,1,1,0,2,false,d,true,false,0.0-2.0-0.1-0.11-3.11,0,0,0,90,false,stim,false,-1,1076.9000000953674,1,0,0,59963,task2,112236,false,false,121,image-keyboard-response,12
true,1,2,0,2,true,d,false,true,0.0-2.0-0.1-0.12-3.12,0,0,0,68,false,stim,false,-1,1010.1000003814697,1,0,1,59963,task2,114765,false,false,124,image-keyboard-response,13
true,1,0,0,0,true,q,false,true,0.0-2.0-0.1-0.13-3.13,0,0,0,81,false,stim,false,-1,609.7000002861023,1,0,2,59963,task2,116889,false,false,127,image-keyboard-response,14
true,1,2,0,2,true,d,false,true,0.0-2.0-0.1-0.14-3.14,0,0,0,68,false,stim,false,-1,1933.5,1,0,1,59963,task2,120339,false,false,130,image-keyboard-response,15
true,1,0,0,0,true,q,false,true,0.0-2.0-0.1-0.15-3.15,0,0,0,81,false,stim,false,-1,632.6999998092651,1,0,2,59963,task2,122501,false,false,133,image-keyboard-response,16
true,1,2,0,2,true,d,false,true,0.0-2.0-0.1-0.16-3.16,0,0,0,68,false,stim,false,-1,940.5999999046326,1,0,0,59963,task2,124962,false,false,136,image-keyboard-response,17
true,1,2,0,2,true,d,false,true,0.0-2.0-0.1-0.17-3.17,0,0,0,68,false,stim,false,-1,702.7000002861023,1,0,0,59963,task2,127189,false,false,139,image-keyboard-response,18
true,1,2,0,2,true,d,false,true,0.0-2.0-0.2-0.18-3.18,0,0,0,68,false,stim,false,-1,1014.0,1,0,1,59963,task2,129721,false,false,142,image-keyboard-response,19
true,1,2,0,2,true,d,false,true,0.0-2.0-0.2-0.19-3.19,0,0,0,68,false,stim,false,-1,649.9000000953674,1,0,1,59963,task2,131902,false,false,145,image-keyboard-response,20
true,1,2,0,2,true,d,false,true,0.0-2.0-0.2-0.20-3.20,0,0,0,68,false,stim,false,-1,652.7000002861023,1,0,1,59963,task2,134088,false,false,148,image-keyboard-response,21
true,1,0,0,0,true,q,false,true,0.0-2.0-0.2-0.21-3.21,0,0,0,81,false,stim,false,-1,712.5999999046326,1,0,2,59963,task2,136322,false,false,151,image-keyboard-response,22
true,1,0,0,0,true,q,false,true,0.0-2.0-0.2-0.22-3.22,0,0,0,81,false,stim,false,-1,683.8000001907349,1,0,2,59963,task2,138530,false,false,154,image-keyboard-response,23
true,1,2,0,2,true,d,false,true,0.0-2.0-0.2-0.23-3.23,0,0,0,68,false,stim,false,-1,1230.9000000953674,1,0,0,59963,task2,141293,false,false,157,image-keyboard-response,24
true,1,2,0,2,true,d,false,true,0.0-2.0-0.2-0.24-3.24,0,0,0,68,false,stim,false,-1,1048.0999999046326,1,0,0,59963,task2,143852,false,false,160,image-keyboard-response,25
true,1,2,0,2,true,d,false,true,0.0-2.0-0.2-0.25-3.25,0,0,0,68,false,stim,false,-1,1201.2999997138977,1,0,0,59963,task2,146581,false,false,163,image-keyboard-response,26
true,2,0,2,1,false,z,false,false,0.0-2.0-0.2-0.26-3.26,0,1,0,81,true,stim,true,0,899.6999998092651,1,0,2,59963,task2,148995,false,false,166,image-keyboard-response,1
true,2,2,2,1,false,z,false,false,0.0-2.0-0.3-0.27-3.27,0,1,0,68,false,stim,true,2,806.6999998092651,1,0,0,59963,task2,151333,false,false,169,image-keyboard-response,2
true,2,2,2,2,true,d,false,true,0.0-2.0-0.3-0.28-3.28,0,1,0,68,false,stim,false,2,655.3999996185303,1,1,1,59963,task2,153501,false,false,172,image-keyboard-response,3
true,2,1,2,1,true,z,false,true,0.0-2.0-0.3-0.29-3.29,0,1,0,90,false,stim,false,0,1345.2999997138977,1,0,2,59963,task2,156365,false,false,175,image-keyboard-response,4
true,2,1,2,1,true,z,false,true,0.0-2.0-0.3-0.30-3.30,0,1,0,90,false,stim,false,2,455.09999990463257,1,0,0,59963,task2,158345,false,false,178,image-keyboard-response,5
true,2,1,2,1,true,z,false,true,0.0-2.0-0.3-0.31-3.31,0,1,0,90,false,stim,false,2,997.0,1,0,0,59963,task2,160877,false,false,181,image-keyboard-response,6
true,2,2,2,2,true,d,false,true,0.0-2.0-0.3-0.32-3.32,0,1,0,68,false,stim,false,2,580.8000001907349,1,1,1,59963,task2,162993,false,false,184,image-keyboard-response,7
true,2,1,2,1,true,z,false,true,0.0-2.0-0.3-0.33-3.33,0,1,0,90,false,stim,false,0,1791.2999997138977,1,0,2,59963,task2,166304,false,false,187,image-keyboard-response,8
true,2,1,2,1,true,z,false,true,0.0-2.0-0.3-0.34-3.34,0,1,0,90,false,stim,false,0,532.0999999046326,1,0,2,59963,task2,168354,false,false,190,image-keyboard-response,9
true,2,2,2,2,true,d,false,true,0.0-2.0-0.3-0.35-3.35,0,1,0,68,false,stim,false,2,912.0,1,1,1,59963,task2,170790,false,false,193,image-keyboard-response,10
true,2,2,2,2,true,d,false,true,0.0-2.0-0.4-0.36-3.36,0,1,0,68,false,stim,false,2,1012.3000001907349,1,1,1,59963,task2,173318,false,false,196,image-keyboard-response,11
true,2,1,2,1,true,z,false,true,0.0-2.0-0.4-0.37-3.37,0,1,0,90,false,stim,false,2,674.1000003814697,1,0,0,59963,task2,175516,false,false,199,image-keyboard-response,12
true,2,1,2,1,true,z,false,false,0.0-2.0-0.4-0.38-3.38,0,1,0,90,false,stim,false,0,1418.0999999046326,1,0,2,59963,task2,178470,false,true,202,image-keyboard-response,13
true,2,2,2,2,true,d,false,true,0.0-2.0-0.4-0.39-3.39,0,1,0,68,false,stim,false,2,1120.4000000953674,1,1,1,59963,task2,181115,false,false,205,image-keyboard-response,14
true,2,2,2,2,true,d,false,true,0.0-2.0-0.4-0.40-3.40,0,1,0,68,false,stim,false,2,799.5999999046326,1,1,1,59963,task2,183448,false,false,208,image-keyboard-response,15
true,2,1,2,1,true,z,false,true,0.0-2.0-0.4-0.41-3.41,0,1,0,90,false,stim,false,2,1042.7000002861023,1,0,0,59963,task2,186084,false,false,211,image-keyboard-response,16
true,2,1,2,1,true,z,false,true,0.0-2.0-0.4-0.42-3.42,0,1,0,90,false,stim,false,2,961.9000000953674,1,0,0,59963,task2,188639,false,false,214,image-keyboard-response,17
true,2,0,2,1,false,z,false,false,0.0-2.0-0.4-0.43-3.43,0,1,0,81,false,stim,true,0,1185.9000000953674,1,0,2,59963,task2,191350,false,false,217,image-keyboard-response,18
true,2,2,2,1,false,z,true,false,0.0-2.0-0.4-0.44-3.44,0,1,0,68,false,stim,false,0,1276.2000002861023,1,0,2,59963,task2,194144,false,false,220,image-keyboard-response,19
true,2,1,2,1,true,z,false,true,0.0-2.0-0.5-0.45-3.45,0,1,0,90,false,stim,false,2,947.5,1,0,0,59963,task2,196635,false,false,223,image-keyboard-response,20
true,2,1,2,1,true,z,false,false,0.0-2.0-0.5-0.46-3.46,0,1,0,90,false,stim,false,2,504.1000003814697,1,0,0,59963,task2,198656,false,true,226,image-keyboard-response,21
true,2,2,2,2,true,d,false,true,0.0-2.0-0.5-0.47-3.47,0,1,0,68,false,stim,false,2,718.6000003814697,1,1,1,59963,task2,200906,false,false,229,image-keyboard-response,22
true,2,2,2,2,true,d,false,true,0.0-2.0-0.5-0.48-3.48,0,1,0,68,false,stim,false,2,790.6999998092651,1,1,1,59963,task2,203221,false,false,232,image-keyboard-response,23
true,2,1,2,1,true,z,false,true,0.0-2.0-0.5-0.49-3.49,0,1,0,90,false,stim,false,0,1229.0999999046326,1,0,2,59963,task2,205963,false,false,235,image-keyboard-response,24
true,2,1,2,1,true,z,false,true,0.0-2.0-0.5-0.50-3.50,0,1,0,90,false,stim,false,0,612.9000000953674,1,0,2,59963,task2,208099,false,false,238,image-keyboard-response,25
true,2,1,2,1,true,z,false,true,0.0-2.0-0.5-0.51-3.51,0,1,0,90,false,stim,false,2,398.80000019073486,1,0,0,59963,task2,210019,false,false,241,image-keyboard-response,26
true,2,1,2,1,true,z,false,true,0.0-2.0-0.5-0.52-3.52,0,1,0,90,false,stim,false,0,464.59999990463257,1,0,2,59963,task2,212007,false,false,244,image-keyboard-response,27
true,2,2,2,2,true,d,false,true,0.0-2.0-0.5-0.53-3.53,0,1,0,68,false,stim,false,2,1194.9000000953674,1,1,1,59963,task2,214716,false,false,247,image-keyboard-response,28
true,2,1,2,1,true,z,false,true,0.0-2.0-0.6-0.54-3.54,0,1,0,90,false,stim,false,0,723.8000001907349,1,0,2,59963,task2,216964,false,false,250,image-keyboard-response,29
true,2,1,2,1,true,z,false,true,0.0-2.0-0.6-0.55-3.55,0,1,0,90,false,stim,false,2,589.1999998092651,1,0,0,59963,task2,219078,false,false,253,image-keyboard-response,30
true,2,2,2,2,true,d,false,true,0.0-2.0-0.6-0.56-3.56,0,1,0,68,false,stim,false,2,1041.1000003814697,1,0,1,59963,task2,221633,false,false,256,image-keyboard-response,31
true,2,1,2,1,true,z,false,false,0.0-2.0-0.6-0.57-3.57,0,1,0,90,false,stim,false,2,713.5999999046326,1,0,0,59963,task2,223865,false,true,259,image-keyboard-response,32
true,2,2,2,2,true,d,false,true,0.0-2.0-0.6-0.58-3.58,0,1,0,68,false,stim,false,2,517.2000002861023,1,0,1,59963,task2,225907,false,false,262,image-keyboard-response,33
true,2,1,2,1,true,z,false,true,0.0-2.0-0.6-0.59-3.59,0,1,0,90,false,stim,false,0,393.59999990463257,1,1,2,59963,task2,227817,false,false,265,image-keyboard-response,34
true,2,1,2,1,true,z,false,true,0.0-2.0-0.6-0.60-3.60,0,1,0,90,false,stim,false,0,635.1999998092651,1,1,2,59963,task2,229967,false,false,268,image-keyboard-response,35
true,3,2,2,0,false,q,true,false,0.0-2.0-0.6-0.61-3.61,0,0,1,68,true,stim,false,1,1055.3000001907349,1,0,0,59963,task2,232549,false,false,271,image-keyboard-response,1
true,3,2,2,0,false,q,false,false,0.0-2.0-0.6-0.62-3.62,0,0,1,68,false,stim,true,2,631.2000002861023,1,0,1,59963,task2,234702,false,false,274,image-keyboard-response,2
true,3,0,2,0,true,q,false,true,0.0-2.0-0.7-0.63-3.63,0,0,1,81,false,stim,false,1,709.0999999046326,1,0,0,59963,task2,236931,false,false,277,image-keyboard-response,3
true,3,1,2,1,true,z,false,true,0.0-2.0-0.7-0.64-3.64,0,0,1,90,false,stim,false,1,785.5999999046326,1,1,2,59963,task2,239251,false,false,280,image-keyboard-response,4
true,3,0,2,0,true,q,false,false,0.0-2.0-0.7-0.65-3.65,0,0,1,81,false,stim,false,2,431.7999997138977,1,0,1,59963,task2,241209,false,true,283,image-keyboard-response,5
true,3,1,2,1,true,z,false,true,0.0-2.0-0.7-0.66-3.66,0,0,1,90,false,stim,false,1,445.09999990463257,1,1,2,59963,task2,243189,false,false,286,image-keyboard-response,6
true,3,1,2,1,true,z,false,false,0.0-2.0-0.7-0.67-3.67,0,0,1,90,false,stim,false,1,787.0999999046326,1,1,2,59963,task2,245496,false,true,289,image-keyboard-response,7
true,3,1,2,0,false,q,true,false,0.0-2.0-0.7-0.68-3.68,0,0,1,90,false,stim,false,2,803.0999999046326,1,0,1,59963,task2,247826,false,false,292,image-keyboard-response,8
true,3,0,2,0,true,q,false,true,0.0-2.0-0.7-0.69-3.69,0,0,1,81,false,stim,false,1,856.0,1,0,0,59963,task2,250198,false,false,295,image-keyboard-response,9
true,3,0,2,0,true,q,false,true,0.0-2.0-0.7-0.70-3.70,0,0,1,81,false,stim,false,1,591.5,1,0,0,59963,task2,252303,false,false,298,image-keyboard-response,10
true,3,0,2,0,true,q,false,true,0.0-2.0-0.7-0.71-3.71,0,0,1,81,false,stim,false,2,1266.9000000953674,1,0,1,59963,task2,255099,false,false,301,image-keyboard-response,11
true,3,0,2,0,true,q,false,true,0.0-2.0-0.8-0.72-3.72,0,0,1,81,false,stim,false,2,654.4000000953674,1,0,1,59963,task2,257273,false,false,304,image-keyboard-response,12
true,3,2,2,1,false,z,true,true,0.0-2.0-0.8-0.73-3.73,0,0,1,68,false,stim,false,1,648.5,1,1,2,59963,task2,259455,false,true,307,image-keyboard-response,13
true,3,0,2,0,true,q,false,true,0.0-2.0-0.8-0.74-3.74,0,0,1,81,false,stim,false,1,515.0,1,0,0,59963,task2,261479,false,false,310,image-keyboard-response,14
true,3,0,2,0,true,q,false,true,0.0-2.0-0.8-0.75-3.75,0,0,1,81,false,stim,false,1,1058.3000001907349,1,0,0,59963,task2,264062,false,false,313,image-keyboard-response,15
true,3,0,2,0,true,q,false,true,0.0-2.0-0.8-0.76-3.76,0,0,1,81,false,stim,false,2,559.9000000953674,1,0,1,59963,task2,266130,false,false,316,image-keyboard-response,16
true,3,2,2,1,false,z,true,false,0.0-2.0-0.8-0.77-3.77,0,0,1,68,false,stim,false,1,447.40000009536743,1,1,2,59963,task2,268090,false,false,319,image-keyboard-response,17
true,3,1,2,1,true,z,false,true,0.0-2.0-0.8-0.78-3.78,0,0,1,90,false,stim,false,1,805.0,1,1,2,59963,task2,270422,false,false,322,image-keyboard-response,18
true,3,0,2,0,true,q,false,true,0.0-2.0-0.8-0.79-3.79,0,0,1,81,false,stim,false,1,541.5,1,0,0,59963,task2,272472,false,false,325,image-keyboard-response,19
true,3,0,2,0,true,q,false,true,0.0-2.0-0.8-0.80-3.80,0,0,1,81,false,stim,false,2,490.80000019073486,1,0,1,59963,task2,274491,false,false,328,image-keyboard-response,20
true,3,0,2,0,true,q,false,true,0.0-2.0-0.9-0.81-3.81,0,0,1,81,false,stim,false,1,1053.5,1,0,0,59963,task2,277077,false,false,331,image-keyboard-response,21
true,3,0,2,0,true,q,false,true,0.0-2.0-0.9-0.82-3.82,0,0,1,81,false,stim,false,2,537.0999999046326,1,0,1,59963,task2,279143,false,false,334,image-keyboard-response,22
true,3,1,2,1,true,z,false,true,0.0-2.0-0.9-0.83-3.83,0,0,1,90,false,stim,false,1,463.40000009536743,1,1,2,59963,task2,281131,false,false,337,image-keyboard-response,23
true,3,0,2,0,true,q,false,true,0.0-2.0-0.9-0.84-3.84,0,0,1,81,false,stim,false,1,514.5999999046326,1,0,0,59963,task2,283160,false,false,340,image-keyboard-response,24
true,3,1,2,1,true,z,false,false,0.0-2.0-0.9-0.85-3.85,0,0,1,90,false,stim,false,1,552.3999996185303,1,1,2,59963,task2,285235,false,true,343,image-keyboard-response,25
true,3,0,2,0,true,q,false,true,0.0-2.0-0.9-0.86-3.86,0,0,1,81,false,stim,false,1,357.40000009536743,1,0,0,59963,task2,287121,false,false,346,image-keyboard-response,26
true,3,0,2,0,true,q,false,true,0.0-2.0-0.9-0.87-3.87,0,0,1,81,false,stim,false,2,405.09999990463257,1,0,1,59963,task2,289037,false,false,349,image-keyboard-response,27
true,3,0,2,0,true,q,false,true,0.0-2.0-0.9-0.88-3.88,0,0,1,81,false,stim,false,2,407.80000019073486,1,0,1,59963,task2,290952,false,false,352,image-keyboard-response,28
true,3,2,2,1,false,z,true,false,0.0-2.0-0.9-0.89-3.89,0,0,1,68,false,stim,false,1,457.5,1,0,2,59963,task2,292927,false,false,355,image-keyboard-response,29
true,3,1,2,1,true,z,false,false,0.0-2.0-0.10-0.90-3.90,0,0,1,90,false,stim,false,1,752.9000000953674,1,0,2,59963,task2,295195,false,true,358,image-keyboard-response,30
true,3,0,2,0,true,q,false,false,0.0-2.0-0.10-0.91-3.91,0,0,1,81,false,stim,false,1,650.0999999046326,1,0,0,59963,task2,297370,false,true,361,image-keyboard-response,31
true,3,0,2,1,false,z,true,false,0.0-2.0-0.10-0.92-3.92,0,0,1,81,false,stim,false,1,905.2000002861023,1,0,2,59963,task2,299785,false,false,364,image-keyboard-response,32
true,3,0,2,0,true,q,false,true,0.0-2.0-0.10-0.93-3.93,0,0,1,81,false,stim,false,1,535.7000002861023,1,0,0,59963,task2,301852,false,false,367,image-keyboard-response,33
true,4,1,1,2,false,d,false,false,0.0-2.0-0.10-0.94-3.94,0,0,0,90,true,stim,true,1,1052.4000000953674,1,0,2,59963,task2,304429,false,false,370,image-keyboard-response,1
true,4,0,1,1,false,z,false,false,0.0-2.0-0.10-0.95-3.95,0,0,0,81,false,stim,true,0,649.6000003814697,1,0,1,59963,task2,306606,false,false,373,image-keyboard-response,2
true,4,0,1,1,false,z,false,false,0.0-2.0-0.10-0.96-3.96,0,0,0,81,false,stim,true,0,1019.1999998092651,1,0,0,59963,task2,309137,false,false,376,image-keyboard-response,3
true,4,2,1,1,false,z,true,false,0.0-2.0-0.10-0.97-3.97,0,0,0,68,false,stim,false,0,1360.3000001907349,1,0,1,59963,task2,312027,false,false,379,image-keyboard-response,4
true,4,1,1,1,true,z,false,true,0.0-2.0-0.10-0.98-3.98,0,0,0,90,false,stim,false,0,1078.1999998092651,1,0,1,59963,task2,314636,false,false,382,image-keyboard-response,5
true,4,1,1,1,true,z,false,true,0.0-2.0-0.11-0.99-3.99,0,0,0,90,false,stim,false,0,843.9000000953674,1,0,1,59963,task2,317004,false,false,385,image-keyboard-response,6
true,4,1,1,1,true,z,false,true,0.0-2.0-0.11-0.100-3.100,0,0,0,90,false,stim,false,0,716.6999998092651,1,0,1,59963,task2,319240,false,false,388,image-keyboard-response,7
true,4,2,1,2,true,d,false,true,0.0-2.0-0.11-0.101-3.101,0,0,0,68,false,stim,false,1,951.0,1,0,2,59963,task2,321714,false,false,391,image-keyboard-response,8
true,4,2,1,2,true,d,false,true,0.0-2.0-0.11-0.102-3.102,0,0,0,68,false,stim,false,1,960.7000002861023,1,0,2,59963,task2,324200,false,false,394,image-keyboard-response,9
true,4,1,1,1,true,z,false,true,0.0-2.0-0.11-0.103-3.103,0,0,0,90,false,stim,false,0,797.7000002861023,1,0,0,59963,task2,326519,false,false,397,image-keyboard-response,10
true,4,2,1,2,true,d,false,true,0.0-2.0-0.11-0.104-3.104,0,0,0,68,false,stim,false,1,436.5,1,0,2,59963,task2,328477,false,false,400,image-keyboard-response,11
true,4,1,1,1,true,z,false,true,0.0-2.0-0.11-0.105-3.105,0,0,0,90,false,stim,false,0,1066.0,1,0,0,59963,task2,331075,false,false,403,image-keyboard-response,12
true,4,1,1,1,true,z,false,true,0.0-2.0-0.11-0.106-3.106,0,0,0,90,false,stim,false,0,683.8000001907349,1,0,1,59963,task2,333279,false,false,406,image-keyboard-response,13
true,4,1,1,1,true,z,false,true,0.0-2.0-0.11-0.107-3.107,0,0,0,90,false,stim,false,0,644.6999998092651,1,0,0,59963,task2,335453,false,false,409,image-keyboard-response,14
true,4,2,1,2,true,d,false,true,0.0-2.0-0.12-0.108-3.108,0,0,0,68,false,stim,false,1,1071.9000000953674,1,0,2,59963,task2,338040,false,false,412,image-keyboard-response,15
true,4,1,1,1,true,z,false,true,0.0-2.0-0.12-0.109-3.109,0,0,0,90,false,stim,false,0,447.90000009536743,1,0,1,59963,task2,340010,false,false,415,image-keyboard-response,16
true,4,2,1,2,true,d,false,true,0.0-2.0-0.12-0.110-3.110,0,0,0,68,false,stim,false,1,1025.3999996185303,1,0,2,59963,task2,342566,false,false,418,image-keyboard-response,17
true,4,1,1,1,true,z,false,true,0.0-2.0-0.12-0.111-3.111,0,0,0,90,false,stim,false,0,403.0,1,0,0,59963,task2,344510,false,false,421,image-keyboard-response,18
true,4,1,1,1,true,z,false,true,0.0-2.0-0.12-0.112-3.112,0,0,0,90,false,stim,false,0,402.40000009536743,1,0,1,59963,task2,346434,false,false,424,image-keyboard-response,19
true,4,1,1,1,true,z,false,true,0.0-2.0-0.12-0.113-3.113,0,0,0,90,false,stim,false,0,625.5,1,0,0,59963,task2,348579,false,false,427,image-keyboard-response,20
true,4,2,1,2,true,d,false,false,0.0-2.0-0.12-0.114-3.114,0,0,0,68,false,stim,false,1,523.0,1,0,2,59963,task2,350627,false,true,430,image-keyboard-response,21
true,4,1,1,1,true,z,false,true,0.0-2.0-0.12-0.115-3.115,0,0,0,90,false,stim,false,0,404.0,1,0,1,59963,task2,352554,false,false,433,image-keyboard-response,22
true,4,1,1,1,true,z,false,true,0.0-2.0-0.12-0.116-3.116,0,0,0,90,false,stim,false,0,321.59999990463257,1,0,0,59963,task2,354387,false,false,436,image-keyboard-response,23
true,4,1,1,1,true,z,false,true,0.0-2.0-0.13-0.117-3.117,0,0,0,90,false,stim,false,0,518.2000002861023,1,0,1,59963,task2,356424,false,false,439,image-keyboard-response,24
true,4,1,1,1,true,z,false,true,0.0-2.0-0.13-0.118-3.118,0,0,0,90,false,stim,false,0,391.90000009536743,1,0,0,59963,task2,358340,false,false,442,image-keyboard-response,25
true,4,1,1,1,true,z,false,true,0.0-2.0-0.13-0.119-3.119,0,0,0,90,false,stim,false,0,618.4000000953674,1,0,1,59963,task2,360489,false,false,445,image-keyboard-response,26
true,4,2,1,2,true,d,false,true,0.0-2.0-0.13-0.120-3.120,0,0,0,68,false,stim,false,1,458.2000002861023,1,0,2,59963,task2,362468,false,false,448,image-keyboard-response,27
true,4,2,1,2,true,d,false,true,0.0-2.0-0.13-0.121-3.121,0,0,0,68,false,stim,false,1,493.6000003814697,1,0,2,59963,task2,364480,false,false,451,image-keyboard-response,28
true,4,1,1,1,true,z,false,true,0.0-2.0-0.13-0.122-3.122,0,0,0,90,false,stim,false,0,551.3000001907349,1,0,0,59963,task2,366552,false,false,454,image-keyboard-response,29
true,4,1,1,1,true,z,false,true,0.0-2.0-0.13-0.123-3.123,0,0,0,90,false,stim,false,0,664.0,1,0,1,59963,task2,368731,false,false,457,image-keyboard-response,30
true,4,1,1,1,true,z,false,true,0.0-2.0-0.13-0.124-3.124,0,0,0,90,false,stim,false,0,941.4000000953674,1,0,0,59963,task2,371202,false,false,460,image-keyboard-response,31
true,4,2,1,2,true,d,false,true,0.0-2.0-0.13-0.125-3.125,0,0,0,68,false,stim,false,1,573.5,1,0,2,59963,task2,373303,false,false,463,image-keyboard-response,32
true,4,1,1,1,true,z,false,true,0.0-2.0-0.14-0.126-3.126,0,0,0,90,false,stim,false,0,722.5999999046326,1,1,1,59963,task2,375557,false,false,466,image-keyboard-response,33
true,4,1,1,1,true,z,false,true,0.0-2.0-0.14-0.127-3.127,0,0,0,90,false,stim,false,0,790.6000003814697,1,0,0,59963,task2,377875,false,false,469,image-keyboard-response,34
true,4,2,1,2,true,d,false,true,0.0-2.0-0.14-0.128-3.128,0,0,0,68,false,stim,false,1,702.0999999046326,1,0,2,59963,task2,380098,false,false,472,image-keyboard-response,35
true,4,1,1,1,true,z,false,true,0.0-2.0-0.14-0.129-3.129,0,0,0,90,false,stim,false,0,1134.0999999046326,1,0,0,59963,task2,382749,false,false,475,image-keyboard-response,36
true,5,1,2,1,true,z,false,true,0.0-2.0-0.14-0.130-3.130,0,1,0,90,true,stim,false,1,870.3000001907349,1,1,1,59963,task2,385141,false,false,478,image-keyboard-response,1
true,5,1,2,1,true,z,false,true,0.0-2.0-0.14-0.131-3.131,0,1,0,90,false,stim,false,1,1143.4000000953674,1,1,1,59963,task2,387807,false,false,481,image-keyboard-response,2
true,5,1,2,2,false,d,false,false,0.0-2.0-0.14-0.132-3.132,0,1,0,90,false,stim,true,1,681.1000003814697,1,0,0,59963,task2,390001,false,false,484,image-keyboard-response,3
true,5,2,2,0,false,q,false,false,0.0-2.0-0.14-0.133-3.133,0,1,0,68,false,stim,true,2,805.4000000953674,1,0,2,59963,task2,392329,false,false,487,image-keyboard-response,4
true,5,1,2,0,false,q,true,false,0.0-2.0-0.14-0.134-3.134,0,1,0,90,false,stim,false,2,1693.8999996185303,1,0,2,59963,task2,395541,false,false,490,image-keyboard-response,5
true,5,0,2,2,false,d,true,false,0.0-2.0-0.15-0.135-3.135,0,1,0,81,false,stim,false,1,764.0999999046326,1,0,0,59963,task2,397832,false,false,493,image-keyboard-response,6
true,5,0,2,0,true,q,false,true,0.0-2.0-0.15-0.136-3.136,0,1,0,81,false,stim,false,2,2165.699999809265,1,0,2,59963,task2,401530,false,false,496,image-keyboard-response,7
true,5,2,2,2,true,d,false,true,0.0-2.0-0.15-0.137-3.137,0,1,0,68,false,stim,false,1,622.5999999046326,1,0,0,59963,task2,403663,false,false,499,image-keyboard-response,8
true,5,0,2,0,true,q,false,true,0.0-2.0-0.15-0.138-3.138,0,1,0,81,false,stim,false,2,839.0,1,0,2,59963,task2,406032,false,false,502,image-keyboard-response,9
true,5,1,2,1,true,z,false,true,0.0-2.0-0.15-0.139-3.139,0,1,0,90,false,stim,false,1,494.40000009536743,1,1,1,59963,task2,408040,false,false,505,image-keyboard-response,10
true,5,2,2,2,true,d,false,true,0.0-2.0-0.15-0.140-3.140,0,1,0,68,false,stim,false,1,465.40000009536743,1,0,0,59963,task2,410019,false,false,508,image-keyboard-response,11
true,5,1,2,1,true,z,false,true,0.0-2.0-0.15-0.141-3.141,0,1,0,90,false,stim,false,1,435.5,1,1,1,59963,task2,411987,false,false,511,image-keyboard-response,12
true,5,0,2,0,true,q,false,true,0.0-2.0-0.15-0.142-3.142,0,1,0,81,false,stim,false,2,610.2000002861023,1,0,2,59963,task2,414116,false,false,514,image-keyboard-response,13
true,5,2,2,1,false,z,true,false,0.0-2.0-0.15-0.143-3.143,0,1,0,68,false,stim,false,1,874.1000003814697,1,1,1,59963,task2,416508,false,false,517,image-keyboard-response,14
true,5,1,2,1,true,z,false,true,0.0-2.0-0.16-0.144-3.144,0,1,0,90,false,stim,false,1,351.09999990463257,1,1,1,59963,task2,418367,false,false,520,image-keyboard-response,15
true,5,0,2,0,true,q,false,true,0.0-2.0-0.16-0.145-3.145,0,1,0,81,false,stim,false,2,728.3000001907349,1,0,2,59963,task2,420617,false,false,523,image-keyboard-response,16
true,5,2,2,2,true,d,false,false,0.0-2.0-0.16-0.146-3.146,0,1,0,68,false,stim,false,1,484.90000009536743,1,0,0,59963,task2,422624,false,true,526,image-keyboard-response,17
true,5,0,2,0,true,q,false,true,0.0-2.0-0.16-0.147-3.147,0,1,0,81,false,stim,false,2,752.5,1,0,2,59963,task2,424886,false,false,529,image-keyboard-response,18
true,5,0,2,2,false,d,true,false,0.0-2.0-0.16-0.148-3.148,0,1,0,81,false,stim,false,1,738.4000000953674,1,0,0,59963,task2,427158,false,false,532,image-keyboard-response,19
true,5,0,2,0,true,q,false,true,0.0-2.0-0.16-0.149-3.149,0,1,0,81,false,stim,false,2,702.3000001907349,1,0,2,59963,task2,429389,false,false,535,image-keyboard-response,20
true,5,1,2,2,false,d,false,false,0.0-2.0-0.16-0.150-3.150,0,1,0,90,false,stim,true,1,775.1999998092651,1,0,0,59963,task2,431684,false,false,538,image-keyboard-response,21
true,5,1,2,1,true,z,false,true,0.0-2.0-0.16-0.151-3.151,0,1,0,90,false,stim,false,1,724.0999999046326,1,1,1,59963,task2,433926,false,false,541,image-keyboard-response,22
true,5,1,2,1,true,z,false,true,0.0-2.0-0.16-0.152-3.152,0,1,0,90,false,stim,false,1,770.1999998092651,1,1,1,59963,task2,436216,false,false,544,image-keyboard-response,23
true,5,2,2,2,true,d,false,true,0.0-2.0-0.17-0.153-3.153,0,1,0,68,false,stim,false,1,445.0,1,0,0,59963,task2,438182,false,false,547,image-keyboard-response,24
true,5,2,2,2,true,d,false,true,0.0-2.0-0.17-0.154-3.154,0,1,0,68,false,stim,false,1,1002.8000001907349,1,0,0,59963,task2,440700,false,false,550,image-keyboard-response,25
true,5,0,2,0,true,q,false,true,0.0-2.0-0.17-0.155-3.155,0,1,0,81,false,stim,false,2,1041.3000001907349,1,0,2,59963,task2,443264,false,false,553,image-keyboard-response,26
true,5,1,2,1,true,z,false,true,0.0-2.0-0.17-0.156-3.156,0,1,0,90,false,stim,false,1,667.1000003814697,1,0,1,59963,task2,445462,false,false,556,image-keyboard-response,27
true,5,0,2,0,true,q,false,false,0.0-2.0-0.17-0.157-3.157,0,1,0,81,false,stim,false,2,772.0,1,0,2,59963,task2,447743,false,true,559,image-keyboard-response,28
true,5,2,2,2,true,d,false,true,0.0-2.0-0.17-0.158-3.158,0,1,0,68,false,stim,false,1,805.3999996185303,1,1,0,59963,task2,450077,false,false,562,image-keyboard-response,29
true,5,1,2,1,true,z,false,false,0.0-2.0-0.17-0.159-3.159,0,1,0,90,false,stim,false,1,330.6000003814697,1,0,1,59963,task2,451933,false,true,565,image-keyboard-response,30
true,5,0,2,1,false,z,true,false,0.0-2.0-0.17-0.160-3.160,0,1,0,81,false,stim,false,1,1250.2000002861023,1,0,1,59963,task2,454705,false,false,568,image-keyboard-response,31
true,6,1,2,1,true,z,false,true,0.0-2.0-0.17-0.161-3.161,1,0,0,90,true,stim,false,0,764.0,1,0,2,59963,task2,456978,false,false,571,image-keyboard-response,1
true,6,1,2,1,true,z,false,true,0.0-2.0-0.18-0.162-3.162,1,0,0,90,false,stim,false,0,871.4000000953674,1,0,2,59963,task2,459371,false,false,574,image-keyboard-response,2
true,6,2,2,2,true,d,false,true,0.0-2.0-0.18-0.163-3.163,1,0,0,68,false,stim,false,2,480.2999997138977,1,1,0,59963,task2,461364,false,false,577,image-keyboard-response,3
true,6,2,2,0,false,q,true,false,0.0-2.0-0.18-0.164-3.164,1,0,0,68,false,stim,false,1,363.5,1,0,1,59963,task2,463247,false,false,580,image-keyboard-response,4
true,6,2,2,2,true,d,false,true,0.0-2.0-0.18-0.165-3.165,1,0,0,68,false,stim,false,2,796.9000000953674,1,1,0,59963,task2,465586,false,false,583,image-keyboard-response,5
true,6,2,2,2,true,d,false,true,0.0-2.0-0.18-0.166-3.166,1,0,0,68,false,stim,false,2,672.0999999046326,1,1,0,59963,task2,467793,false,false,586,image-keyboard-response,6
true,6,1,2,0,false,q,false,true,0.0-2.0-0.18-0.167-3.167,1,0,0,90,false,stim,true,1,840.9000000953674,1,0,1,59963,task2,470154,false,true,589,image-keyboard-response,7
true,6,1,2,0,false,q,false,false,0.0-2.0-0.18-0.168-3.168,1,0,0,90,false,stim,true,1,924.5999999046326,1,0,1,59963,task2,472597,false,false,592,image-keyboard-response,8
true,6,1,2,1,true,z,false,true,0.0-2.0-0.18-0.169-3.169,1,0,0,90,false,stim,false,0,582.4000000953674,1,0,2,59963,task2,474706,false,false,595,image-keyboard-response,9
true,6,1,2,1,true,z,false,true,0.0-2.0-0.18-0.170-3.170,1,0,0,90,false,stim,false,0,531.3999996185303,1,0,2,59963,task2,476755,false,false,598,image-keyboard-response,10
true,6,2,2,0,false,q,true,false,0.0-2.0-0.19-0.171-3.171,1,0,0,68,false,stim,false,1,967.2000002861023,1,0,1,59963,task2,479248,false,false,601,image-keyboard-response,11
true,6,2,2,2,true,d,false,true,0.0-2.0-0.19-0.172-3.172,1,0,0,68,false,stim,false,2,809.2999997138977,1,1,0,59963,task2,481586,false,false,604,image-keyboard-response,12
true,6,2,2,2,true,d,false,true,0.0-2.0-0.19-0.173-3.173,1,0,0,68,false,stim,false,2,685.4000000953674,1,1,0,59963,task2,483793,false,false,607,image-keyboard-response,13
true,6,0,2,0,true,q,false,true,0.0-2.0-0.19-0.174-3.174,1,0,0,81,false,stim,false,1,747.2999997138977,1,0,1,59963,task2,486061,false,false,610,image-keyboard-response,14
true,6,0,2,0,true,q,false,true,0.0-2.0-0.19-0.175-3.175,1,0,0,81,false,stim,false,1,618.0999999046326,1,0,1,59963,task2,488202,false,false,613,image-keyboard-response,15
true,6,2,2,2,true,d,false,true,0.0-2.0-0.19-0.176-3.176,1,0,0,68,false,stim,false,2,724.0,1,1,0,59963,task2,490448,false,false,616,image-keyboard-response,16
true,6,1,2,1,true,z,false,true,0.0-2.0-0.19-0.177-3.177,1,0,0,90,false,stim,false,0,590.0,1,0,2,59963,task2,492556,false,false,619,image-keyboard-response,17
true,6,1,2,1,true,z,false,true,0.0-2.0-0.19-0.178-3.178,1,0,0,90,false,stim,false,0,481.40000009536743,1,0,2,59963,task2,494550,false,false,622,image-keyboard-response,18
true,6,1,2,1,true,z,false,true,0.0-2.0-0.19-0.179-3.179,1,0,0,90,false,stim,false,0,460.40000009536743,1,0,2,59963,task2,496519,false,false,625,image-keyboard-response,19
true,6,0,2,0,true,q,false,true,0.0-2.0-0.20-0.180-3.180,1,0,0,81,false,stim,false,1,1085.4000000953674,1,0,1,59963,task2,499135,false,false,628,image-keyboard-response,20
true,6,0,2,0,true,q,false,true,0.0-2.0-0.20-0.181-3.181,1,0,0,81,false,stim,false,1,641.3000001907349,1,0,1,59963,task2,501298,false,false,631,image-keyboard-response,21
true,6,2,2,1,false,z,true,false,0.0-2.0-0.20-0.182-3.182,1,0,0,68,false,stim,false,0,730.8000001907349,1,0,2,59963,task2,503553,false,false,634,image-keyboard-response,22
true,6,1,2,1,true,z,false,true,0.0-2.0-0.20-0.183-3.183,1,0,0,90,false,stim,false,0,964.1999998092651,1,0,2,59963,task2,506051,false,false,637,image-keyboard-response,23
true,6,2,2,2,true,d,false,false,0.0-2.0-0.20-0.184-3.184,1,0,0,68,false,stim,false,2,509.09999990463257,1,1,0,59963,task2,508082,false,true,640,image-keyboard-response,24
true,6,1,2,2,false,d,true,false,0.0-2.0-0.20-0.185-3.185,1,0,0,90,false,stim,false,2,979.7999997138977,1,1,0,59963,task2,510577,false,false,643,image-keyboard-response,25
true,6,0,2,0,true,q,false,true,0.0-2.0-0.20-0.186-3.186,1,0,0,81,false,stim,false,1,773.0,1,0,1,59963,task2,512869,false,false,646,image-keyboard-response,26
true,6,2,2,2,true,d,false,true,0.0-2.0-0.20-0.187-3.187,1,0,0,68,false,stim,false,2,1117.7999997138977,1,1,0,59963,task2,515512,false,false,649,image-keyboard-response,27
true,6,1,2,1,true,z,false,true,0.0-2.0-0.20-0.188-3.188,1,0,0,90,false,stim,false,0,335.09999990463257,1,0,2,59963,task2,517367,false,false,652,image-keyboard-response,28
true,6,0,2,0,true,q,false,true,0.0-2.0-0.21-0.189-3.189,1,0,0,81,false,stim,false,1,1194.8000001907349,1,0,1,59963,task2,520076,false,false,655,image-keyboard-response,29
true,6,0,2,0,true,q,false,true,0.0-2.0-0.21-0.190-3.190,1,0,0,81,false,stim,false,1,634.8000001907349,1,0,1,59963,task2,522238,false,false,658,image-keyboard-response,30
true,6,0,2,1,false,z,false,false,0.0-2.0-0.21-0.191-3.191,1,0,0,81,false,stim,true,0,548.1999998092651,1,0,2,59963,task2,524311,false,false,661,image-keyboard-response,31
true,6,2,2,2,true,d,false,true,0.0-2.0-0.21-0.192-3.192,1,0,0,68,false,stim,false,2,725.5,1,1,0,59963,task2,526553,false,false,664,image-keyboard-response,32
true,6,2,2,2,true,d,false,true,0.0-2.0-0.21-0.193-3.193,1,0,0,68,false,stim,false,2,683.0999999046326,1,1,0,59963,task2,528748,false,false,667,image-keyboard-response,33
true,6,1,2,1,true,z,false,true,0.0-2.0-0.21-0.194-3.194,1,0,0,90,false,stim,false,0,518.6000003814697,1,0,2,59963,task2,530790,false,false,670,image-keyboard-response,34
true,6,1,2,1,true,z,false,true,0.0-2.0-0.21-0.195-3.195,1,0,0,90,false,stim,false,0,661.9000000953674,1,0,2,59963,task2,532962,false,false,673,image-keyboard-response,35
true,7,2,2,2,true,d,false,true,0.0-2.0-0.21-0.196-3.196,1,0,0,68,true,stim,false,2,825.8000001907349,1,1,0,59963,task2,535301,false,false,676,image-keyboard-response,1
true,7,0,2,1,false,z,false,false,0.0-2.0-0.21-0.197-3.197,1,0,0,81,false,stim,true,0,1012.5,1,0,1,59963,task2,537828,false,false,679,image-keyboard-response,2
true,7,0,2,1,false,z,false,false,0.0-2.0-0.22-0.198-3.198,1,0,0,81,false,stim,true,0,1380.5,1,0,1,59963,task2,540722,false,false,682,image-keyboard-response,3
true,7,1,2,2,false,d,false,true,0.0-2.0-0.22-0.199-3.199,1,0,0,90,false,stim,true,1,752.2999997138977,1,0,2,59963,task2,542999,false,true,685,image-keyboard-response,4
true,7,1,2,1,true,z,false,true,0.0-2.0-0.22-0.200-3.200,1,0,0,90,false,stim,false,0,894.8999996185303,1,0,1,59963,task2,545407,false,false,688,image-keyboard-response,5
true,7,1,2,2,false,d,false,false,0.0-2.0-0.22-0.201-3.201,1,0,0,90,false,stim,true,1,438.0,1,0,2,59963,task2,547369,false,false,691,image-keyboard-response,6
true,7,2,2,2,true,d,false,true,0.0-2.0-0.22-0.202-3.202,1,0,0,68,false,stim,false,2,676.9000000953674,1,1,0,59963,task2,549557,false,false,694,image-keyboard-response,7
true,7,2,2,2,true,d,false,true,0.0-2.0-0.22-0.203-3.203,1,0,0,68,false,stim,false,1,735.0,1,0,2,59963,task2,551819,false,false,697,image-keyboard-response,8
true,7,1,2,1,true,z,false,true,0.0-2.0-0.22-0.204-3.204,1,0,0,90,false,stim,false,0,737.8000001907349,1,0,1,59963,task2,554068,false,false,700,image-keyboard-response,9
true,7,2,2,2,true,d,false,true,0.0-2.0-0.22-0.205-3.205,1,0,0,68,false,stim,false,2,496.69999980926514,1,1,0,59963,task2,556083,false,false,703,image-keyboard-response,10
true,7,2,2,2,true,d,false,true,0.0-2.0-0.22-0.206-3.206,1,0,0,68,false,stim,false,2,715.7000002861023,1,1,0,59963,task2,558314,false,false,706,image-keyboard-response,11
true,7,1,2,1,true,z,false,true,0.0-2.0-0.23-0.207-3.207,1,0,0,90,false,stim,false,0,1252.9000000953674,1,0,1,59963,task2,561076,false,false,709,image-keyboard-response,12
true,7,2,2,2,true,d,false,true,0.0-2.0-0.23-0.208-3.208,1,0,0,68,false,stim,false,1,549.7000002861023,1,0,2,59963,task2,563143,false,false,712,image-keyboard-response,13
true,7,1,2,1,true,z,false,true,0.0-2.0-0.23-0.209-3.209,1,0,0,90,false,stim,false,0,586.2000002861023,1,0,1,59963,task2,565241,false,false,715,image-keyboard-response,14
true,7,2,2,2,true,d,false,true,0.0-2.0-0.23-0.210-3.210,1,0,0,68,false,stim,false,1,1113.8000001907349,1,0,2,59963,task2,567876,false,false,718,image-keyboard-response,15
true,7,2,2,2,true,d,false,true,0.0-2.0-0.23-0.211-3.211,1,0,0,68,false,stim,false,2,1065.3000001907349,1,1,0,59963,task2,570464,false,false,721,image-keyboard-response,16
true,7,1,2,1,true,z,false,true,0.0-2.0-0.23-0.212-3.212,1,0,0,90,false,stim,false,0,560.0,1,0,1,59963,task2,572551,false,false,724,image-keyboard-response,17
true,7,2,2,2,true,d,false,true,0.0-2.0-0.23-0.213-3.213,1,0,0,68,false,stim,false,1,809.4000000953674,1,0,2,59963,task2,574873,false,false,727,image-keyboard-response,18
true,7,2,2,2,true,d,false,true,0.0-2.0-0.23-0.214-3.214,1,0,0,68,false,stim,false,2,666.9000000953674,1,1,0,59963,task2,577064,false,false,730,image-keyboard-response,19
true,7,2,2,2,true,d,false,true,0.0-2.0-0.23-0.215-3.215,1,0,0,68,false,stim,false,2,430.5,1,1,0,59963,task2,579016,false,false,733,image-keyboard-response,20
true,7,1,2,1,true,z,false,true,0.0-2.0-0.24-0.216-3.216,1,0,0,90,false,stim,false,0,1038.3000001907349,1,0,1,59963,task2,581577,false,false,736,image-keyboard-response,21
true,7,2,2,2,true,d,false,true,0.0-2.0-0.24-0.217-3.217,1,0,0,68,false,stim,false,2,801.9000000953674,1,1,0,59963,task2,583889,false,false,739,image-keyboard-response,22
true,7,2,2,2,true,d,false,true,0.0-2.0-0.24-0.218-3.218,1,0,0,68,false,stim,false,2,459.90000009536743,1,1,0,59963,task2,585869,false,false,742,image-keyboard-response,23
true,7,2,2,2,true,d,false,true,0.0-2.0-0.24-0.219-3.219,1,0,0,68,false,stim,false,1,849.7000002861023,1,0,2,59963,task2,588241,false,false,745,image-keyboard-response,24
true,7,2,2,2,true,d,false,true,0.0-2.0-0.24-0.220-3.220,1,0,0,68,false,stim,false,1,388.80000019073486,1,0,2,59963,task2,590139,false,false,748,image-keyboard-response,25
true,7,1,2,1,true,z,false,true,0.0-2.0-0.24-0.221-3.221,1,0,0,90,false,stim,false,0,755.9000000953674,1,0,1,59963,task2,592409,false,false,751,image-keyboard-response,26
true,7,2,2,2,true,d,false,true,0.0-2.0-0.24-0.222-3.222,1,0,0,68,false,stim,false,1,1135.5999999046326,1,1,2,59963,task2,595064,false,false,754,image-keyboard-response,27
true,7,1,2,1,true,z,false,false,0.0-2.0-0.24-0.223-3.223,1,0,0,90,false,stim,false,0,464.59999990463257,1,0,1,59963,task2,597045,false,true,757,image-keyboard-response,28
true,7,2,2,2,true,d,false,true,0.0-2.0-0.24-0.224-3.224,1,0,0,68,false,stim,false,2,521.0999999046326,1,0,0,59963,task2,599100,false,false,760,image-keyboard-response,29
true,7,2,2,2,true,d,false,true,0.0-2.0-0.25-0.225-3.225,1,0,0,68,false,stim,false,1,384.19999980926514,1,1,2,59963,task2,601001,false,false,763,image-keyboard-response,30
true,7,2,2,2,true,d,false,true,0.0-2.0-0.25-0.226-3.226,1,0,0,68,false,stim,false,2,538.0,1,0,0,59963,task2,603062,false,false,766,image-keyboard-response,31
true,8,1,2,2,false,d,false,true,0.0-2.0-0.25-0.227-3.227,0,0,1,90,true,stim,true,1,448.2999997138977,1,0,1,59963,task2,605024,false,true,769,image-keyboard-response,1
true,8,2,2,2,true,d,false,true,0.0-2.0-0.25-0.228-3.228,0,0,1,68,false,stim,false,2,560.5999999046326,1,1,2,59963,task2,607111,false,false,772,image-keyboard-response,2
true,8,2,2,2,true,d,false,true,0.0-2.0-0.25-0.229-3.229,0,0,1,68,false,stim,false,2,627.8999996185303,1,1,2,59963,task2,609252,false,false,775,image-keyboard-response,3
true,8,1,2,2,false,d,false,true,0.0-2.0-0.25-0.230-3.230,0,0,1,90,false,stim,true,1,1003.6999998092651,1,0,1,59963,task2,611787,false,true,778,image-keyboard-response,4
true,8,2,2,1,false,z,false,false,0.0-2.0-0.25-0.231-3.231,0,0,1,68,false,stim,true,2,384.8999996185303,1,0,0,59963,task2,613702,false,false,781,image-keyboard-response,5
true,8,2,2,1,false,z,false,false,0.0-2.0-0.25-0.232-3.232,0,0,1,68,false,stim,true,2,667.6999998092651,1,0,0,59963,task2,615892,false,false,784,image-keyboard-response,6
true,8,1,2,2,false,d,false,false,0.0-2.0-0.25-0.233-3.233,0,0,1,90,false,stim,true,1,580.0,1,0,1,59963,task2,618004,false,false,787,image-keyboard-response,7
true,8,2,2,2,true,d,false,true,0.0-2.0-0.26-0.234-3.234,0,0,1,68,false,stim,false,2,615.5,1,1,2,59963,task2,620142,false,false,790,image-keyboard-response,8
true,8,1,2,1,true,z,false,true,0.0-2.0-0.26-0.235-3.235,0,0,1,90,false,stim,false,2,1466.0,1,0,0,59963,task2,623128,false,false,793,image-keyboard-response,9
true,8,2,2,2,true,d,false,true,0.0-2.0-0.26-0.236-3.236,0,0,1,68,false,stim,false,1,386.19999980926514,1,0,1,59963,task2,625039,false,false,796,image-keyboard-response,10
true,8,2,2,2,true,d,false,true,0.0-2.0-0.26-0.237-3.237,0,0,1,68,false,stim,false,2,986.0,1,1,2,59963,task2,627558,false,false,799,image-keyboard-response,11
true,8,1,2,1,true,z,false,true,0.0-2.0-0.26-0.238-3.238,0,0,1,90,false,stim,false,2,480.5,1,0,0,59963,task2,629567,false,false,802,image-keyboard-response,12
true,8,2,2,2,true,d,false,true,0.0-2.0-0.26-0.239-3.239,0,0,1,68,false,stim,false,1,409.59999990463257,1,0,1,59963,task2,631502,false,false,805,image-keyboard-response,13
true,8,2,2,2,true,d,false,true,0.0-2.0-0.26-0.240-3.240,0,0,1,68,false,stim,false,1,930.1999998092651,1,0,1,59963,task2,633951,false,false,808,image-keyboard-response,14
true,8,1,2,1,true,z,false,true,0.0-2.0-0.26-0.241-3.241,0,0,1,90,false,stim,false,2,495.90000009536743,1,0,0,59963,task2,635959,false,false,811,image-keyboard-response,15
true,8,2,2,2,true,d,false,true,0.0-2.0-0.26-0.242-3.242,0,0,1,68,false,stim,false,2,634.0999999046326,1,1,2,59963,task2,638108,false,false,814,image-keyboard-response,16
true,8,2,2,2,true,d,false,true,0.0-2.0-0.27-0.243-3.243,0,0,1,68,false,stim,false,1,1010.9000000953674,1,0,1,59963,task2,640631,false,false,817,image-keyboard-response,17
true,8,1,2,1,true,z,false,true,0.0-2.0-0.27-0.244-3.244,0,0,1,90,false,stim,false,2,661.5,1,0,0,59963,task2,642812,false,false,820,image-keyboard-response,18
true,8,2,2,2,true,d,false,true,0.0-2.0-0.27-0.245-3.245,0,0,1,68,false,stim,false,2,475.5,1,1,2,59963,task2,644817,false,false,823,image-keyboard-response,19
true,8,2,2,2,true,d,false,true,0.0-2.0-0.27-0.246-3.246,0,0,1,68,false,stim,false,1,683.0999999046326,1,0,1,59963,task2,647015,false,false,826,image-keyboard-response,20
true,8,1,2,1,true,z,false,true,0.0-2.0-0.27-0.247-3.247,0,0,1,90,false,stim,false,2,451.0,1,0,0,59963,task2,648991,false,false,829,image-keyboard-response,21
true,8,1,2,1,true,z,false,true,0.0-2.0-0.27-0.248-3.248,0,0,1,90,false,stim,false,2,523.8000001907349,1,0,0,59963,task2,651045,false,false,832,image-keyboard-response,22
true,8,2,2,2,true,d,false,true,0.0-2.0-0.27-0.249-3.249,0,0,1,68,false,stim,false,2,495.8999996185303,1,1,2,59963,task2,653054,false,false,835,image-keyboard-response,23
true,8,2,2,2,true,d,false,true,0.0-2.0-0.27-0.250-3.250,0,0,1,68,false,stim,false,2,414.5,1,1,2,59963,task2,654988,false,false,838,image-keyboard-response,24
true,8,2,2,2,true,d,false,true,0.0-2.0-0.27-0.251-3.251,0,0,1,68,false,stim,false,1,381.69999980926514,1,0,1,59963,task2,656880,false,false,841,image-keyboard-response,25
true,8,2,2,2,true,d,false,false,0.0-2.0-0.28-0.252-3.252,0,0,1,68,false,stim,false,2,614.8999996185303,1,1,2,59963,task2,659009,false,true,844,image-keyboard-response,26
true,8,1,2,1,true,z,false,true,0.0-2.0-0.28-0.253-3.253,0,0,1,90,false,stim,false,2,521.1999998092651,1,0,0,59963,task2,661051,false,false,847,image-keyboard-response,27
true,8,2,2,2,true,d,false,true,0.0-2.0-0.28-0.254-3.254,0,0,1,68,false,stim,false,1,516.2000002861023,1,0,1,59963,task2,663080,false,false,850,image-keyboard-response,28
true,8,2,2,2,true,d,false,true,0.0-2.0-0.28-0.255-3.255,0,0,1,68,false,stim,false,1,521.7999997138977,1,0,1,59963,task2,665123,false,false,853,image-keyboard-response,29
true,8,2,2,2,true,d,false,true,0.0-2.0-0.28-0.256-3.256,0,0,1,68,false,stim,false,2,379.90000009536743,1,0,2,59963,task2,667026,false,false,856,image-keyboard-response,30
true,8,2,2,2,true,d,false,true,0.0-2.0-0.28-0.257-3.257,0,0,1,68,false,stim,false,2,581.5,1,0,2,59963,task2,669124,false,false,859,image-keyboard-response,31
true,8,1,2,1,true,z,false,true,0.0-2.0-0.28-0.258-3.258,0,0,1,90,false,stim,false,2,605.0999999046326,1,0,0,59963,task2,671248,false,false,862,image-keyboard-response,32
true,8,1,2,1,true,z,false,true,0.0-2.0-0.28-0.259-3.259,0,0,1,90,false,stim,false,2,755.0,1,0,0,59963,task2,673516,false,false,865,image-keyboard-response,33
true,9,2,1,1,false,z,false,false,0.0-2.0-0.28-0.260-3.260,0,0,0,68,true,stim,true,2,680.1999998092651,1,0,1,59963,task2,675712,false,false,868,image-keyboard-response,1
true,9,2,1,1,false,z,false,false,0.0-2.0-0.29-0.261-3.261,0,0,0,68,false,stim,true,2,434.7999997138977,1,0,2,59963,task2,677660,false,false,871,image-keyboard-response,2
true,9,1,1,1,true,z,false,true,0.0-2.0-0.29-0.262-3.262,0,0,0,90,false,stim,false,2,1532.5,1,0,1,59963,task2,680719,false,false,874,image-keyboard-response,3
true,9,1,1,0,false,q,false,false,0.0-2.0-0.29-0.263-3.263,0,0,0,90,false,stim,true,1,734.3000001907349,1,0,0,59963,task2,682979,false,false,877,image-keyboard-response,4
true,9,0,1,1,false,z,true,false,0.0-2.0-0.29-0.264-3.264,0,0,0,81,false,stim,false,2,887.6999998092651,1,0,2,59963,task2,685395,false,false,880,image-keyboard-response,5
true,9,1,1,1,true,z,false,false,0.0-2.0-0.29-0.265-3.265,0,0,0,90,false,stim,false,2,741.4000000953674,1,0,1,59963,task2,687652,false,true,883,image-keyboard-response,6
true,9,2,1,0,false,q,true,false,0.0-2.0-0.29-0.266-3.266,0,0,0,68,false,stim,false,1,797.8000001907349,1,0,0,59963,task2,689969,false,false,886,image-keyboard-response,7
true,9,1,1,0,false,q,false,false,0.0-2.0-0.29-0.267-3.267,0,0,0,90,false,stim,true,1,524.6999998092651,1,0,0,59963,task2,692009,false,false,889,image-keyboard-response,8
true,9,0,1,1,false,z,true,false,0.0-2.0-0.29-0.268-3.268,0,0,0,81,false,stim,false,2,1490.3000001907349,1,0,1,59963,task2,695026,false,false,892,image-keyboard-response,9
true,9,0,1,1,false,z,true,false,0.0-2.0-0.29-0.269-3.269,0,0,0,81,false,stim,false,2,1284.8000001907349,1,0,2,59963,task2,697844,false,false,895,image-keyboard-response,10
true,9,2,1,1,false,z,false,true,0.0-2.0-0.30-0.270-3.270,0,0,0,68,false,stim,true,2,1349.5,1,0,1,59963,task2,700704,false,true,898,image-keyboard-response,11
true,9,0,1,0,true,q,false,true,0.0-2.0-0.30-0.271-3.271,0,0,0,81,false,stim,false,1,635.3000001907349,1,0,0,59963,task2,702862,false,false,901,image-keyboard-response,12
true,9,2,1,1,false,z,false,false,0.0-2.0-0.30-0.272-3.272,0,0,0,68,false,stim,true,2,673.2000002861023,1,0,1,59963,task2,705068,false,false,904,image-keyboard-response,13
true,9,0,1,0,true,q,false,true,0.0-2.0-0.30-0.273-3.273,0,0,0,81,false,stim,false,1,727.8999996185303,1,0,0,59963,task2,707317,false,false,907,image-keyboard-response,14
true,9,2,1,1,false,z,false,false,0.0-2.0-0.30-0.274-3.274,0,0,0,68,false,stim,true,2,811.7999997138977,1,0,2,59963,task2,709646,false,false,910,image-keyboard-response,15
true,9,1,1,1,true,z,false,true,0.0-2.0-0.30-0.275-3.275,0,0,0,90,false,stim,false,2,517.1999998092651,1,0,2,59963,task2,711687,false,false,913,image-keyboard-response,16
true,9,1,1,1,true,z,false,true,0.0-2.0-0.30-0.276-3.276,0,0,0,90,false,stim,false,2,731.3000001907349,1,0,1,59963,task2,713944,false,false,916,image-keyboard-response,17
true,9,0,1,0,true,q,false,true,0.0-2.0-0.30-0.277-3.277,0,0,0,81,false,stim,false,1,649.1999998092651,1,0,0,59963,task2,716123,false,false,919,image-keyboard-response,18
true,9,1,1,1,true,z,false,true,0.0-2.0-0.30-0.278-3.278,0,0,0,90,false,stim,false,2,495.40000009536743,1,0,2,59963,task2,718157,false,false,922,image-keyboard-response,19
true,9,1,1,1,true,z,false,true,0.0-2.0-0.31-0.279-3.279,0,0,0,90,false,stim,false,2,427.6000003814697,1,0,2,59963,task2,720110,false,false,925,image-keyboard-response,20
true,9,1,1,1,true,z,false,true,0.0-2.0-0.31-0.280-3.280,0,0,0,90,false,stim,false,2,468.69999980926514,1,0,2,59963,task2,722107,false,false,928,image-keyboard-response,21
true,9,1,1,1,true,z,false,true,0.0-2.0-0.31-0.281-3.281,0,0,0,90,false,stim,false,2,861.5,1,0,1,59963,task2,724480,false,false,931,image-keyboard-response,22
true,9,1,1,1,true,z,false,true,0.0-2.0-0.31-0.282-3.282,0,0,0,90,false,stim,false,2,368.5,1,0,1,59963,task2,726367,false,false,934,image-keyboard-response,23
true,9,1,1,1,true,z,false,true,0.0-2.0-0.31-0.283-3.283,0,0,0,90,false,stim,false,2,603.6000003814697,1,0,2,59963,task2,728499,false,false,937,image-keyboard-response,24
true,9,0,1,0,true,q,false,true,0.0-2.0-0.31-0.284-3.284,0,0,0,81,false,stim,false,1,550.7999997138977,1,0,0,59963,task2,730561,false,false,940,image-keyboard-response,25
true,9,0,1,0,true,q,false,true,0.0-2.0-0.31-0.285-3.285,0,0,0,81,false,stim,false,1,942.7999997138977,1,0,0,59963,task2,733021,false,false,943,image-keyboard-response,26
true,9,0,1,0,true,q,false,true,0.0-2.0-0.31-0.286-3.286,0,0,0,81,false,stim,false,1,472.40000009536743,1,0,0,59963,task2,735016,false,false,946,image-keyboard-response,27
true,9,1,1,1,true,z,false,true,0.0-2.0-0.31-0.287-3.287,0,0,0,90,false,stim,false,2,427.40000009536743,1,0,1,59963,task2,736962,false,false,949,image-keyboard-response,28
true,9,1,1,1,true,z,false,true,0.0-2.0-0.32-0.288-3.288,0,0,0,90,false,stim,false,2,747.5,1,0,2,59963,task2,739234,false,false,952,image-keyboard-response,29
true,9,0,1,0,true,q,false,true,0.0-2.0-0.32-0.289-3.289,0,0,0,81,false,stim,false,1,1159.7000002861023,1,0,0,59963,task2,741920,false,false,955,image-keyboard-response,30
true,9,1,1,1,true,z,false,true,0.0-2.0-0.32-0.290-3.290,0,0,0,90,false,stim,false,2,906.4000000953674,1,0,2,59963,task2,744343,false,false,958,image-keyboard-response,31
true,9,1,1,1,true,z,false,true,0.0-2.0-0.32-0.291-3.291,0,0,0,90,false,stim,false,2,892.0999999046326,1,0,1,59963,task2,746754,false,false,961,image-keyboard-response,32
true,9,1,1,1,true,z,false,true,0.0-2.0-0.32-0.292-3.292,0,0,0,90,false,stim,false,2,568.5999999046326,1,0,2,59963,task2,748847,false,false,964,image-keyboard-response,33
true,9,1,1,1,true,z,false,true,0.0-2.0-0.32-0.293-3.293,0,0,0,90,false,stim,false,2,696.5999999046326,1,0,1,59963,task2,751060,false,false,967,image-keyboard-response,34
true,9,0,1,0,true,q,false,false,0.0-2.0-0.32-0.294-3.294,0,0,0,81,false,stim,false,1,381.90000009536743,1,0,0,59963,task2,752975,false,true,970,image-keyboard-response,35
true,9,0,1,0,true,q,false,true,0.0-2.0-0.32-0.295-3.295,0,0,0,81,false,stim,false,1,1370.0999999046326,1,0,0,59963,task2,755869,false,false,973,image-keyboard-response,36
true,10,1,1,0,false,q,false,false,0.0-2.0-0.32-0.296-3.296,0,0,0,90,true,stim,true,1,422.59999990463257,1,0,1,59963,task2,757820,false,false,976,image-keyboard-response,1
true,10,1,1,0,false,q,false,false,0.0-2.0-0.33-0.297-3.297,0,0,0,90,false,stim,true,1,570.7000002861023,1,0,1,59963,task2,759920,false,false,979,image-keyboard-response,2
true,10,1,1,0,false,q,false,false,0.0-2.0-0.33-0.298-3.298,0,0,0,90,false,stim,true,1,620.9000000953674,1,0,2,59963,task2,762059,false,false,982,image-keyboard-response,3
true,10,0,1,1,false,z,false,false,0.0-2.0-0.33-0.299-3.299,0,0,0,81,false,stim,true,0,820.5999999046326,1,0,0,59963,task2,764410,false,false,985,image-keyboard-response,4
true,10,1,1,1,true,z,false,true,0.0-2.0-0.33-0.300-3.300,0,0,0,90,false,stim,false,0,1501.0999999046326,1,0,0,59963,task2,767429,false,false,988,image-keyboard-response,5
true,10,2,1,0,false,q,true,false,0.0-2.0-0.33-0.301-3.301,0,0,0,68,false,stim,false,1,1048.0999999046326,1,0,1,59963,task2,770004,false,false,991,image-keyboard-response,6
true,10,2,1,0,false,q,true,true,0.0-2.0-0.33-0.302-3.302,0,0,0,68,false,stim,false,1,986.7999997138977,1,0,2,59963,task2,772506,false,true,994,image-keyboard-response,7
true,10,0,1,0,true,q,false,true,0.0-2.0-0.33-0.303-3.303,0,0,0,81,false,stim,false,1,1094.7000002861023,1,0,1,59963,task2,775135,false,false,997,image-keyboard-response,8
true,10,1,1,1,true,z,false,true,0.0-2.0-0.33-0.304-3.304,0,0,0,90,false,stim,false,0,419.7999997138977,1,0,0,59963,task2,777081,false,false,1000,image-keyboard-response,9
true,10,2,1,0,false,q,true,false,0.0-2.0-0.33-0.305-3.305,0,0,0,68,false,stim,false,1,386.90000009536743,1,0,2,59963,task2,778998,false,false,1003,image-keyboard-response,10
true,10,0,1,0,true,q,false,true,0.0-2.0-0.34-0.306-3.306,0,0,0,81,false,stim,false,1,677.7999997138977,1,0,1,59963,task2,781208,false,false,1006,image-keyboard-response,11
true,10,0,1,0,true,q,false,true,0.0-2.0-0.34-0.307-3.307,0,0,0,81,false,stim,false,1,780.4000000953674,1,0,1,59963,task2,783516,false,false,1009,image-keyboard-response,12
true,10,1,1,1,true,z,false,true,0.0-2.0-0.34-0.308-3.308,0,0,0,90,false,stim,false,0,734.1999998092651,1,0,0,59963,task2,785771,false,false,1012,image-keyboard-response,13
true,10,0,1,0,true,q,false,true,0.0-2.0-0.34-0.309-3.309,0,0,0,81,false,stim,false,1,778.5,1,0,2,59963,task2,788073,false,false,1015,image-keyboard-response,14
true,10,0,1,0,true,q,false,false,0.0-2.0-0.34-0.310-3.310,0,0,0,81,false,stim,false,1,634.7999997138977,1,0,2,59963,task2,790232,false,true,1018,image-keyboard-response,15
true,10,0,1,0,true,q,false,true,0.0-2.0-0.34-0.311-3.311,0,0,0,81,false,stim,false,1,999.9000000953674,1,0,2,59963,task2,792766,false,false,1021,image-keyboard-response,16
true,10,1,1,1,true,z,false,false,0.0-2.0-0.34-0.312-3.312,0,0,0,90,false,stim,false,0,652.8000001907349,1,0,0,59963,task2,794943,false,true,1024,image-keyboard-response,17
true,10,0,1,0,true,q,false,true,0.0-2.0-0.34-0.313-3.313,0,0,0,81,false,stim,false,1,862.1999998092651,1,0,1,59963,task2,797320,false,false,1027,image-keyboard-response,18
true,10,1,1,1,true,z,false,true,0.0-2.0-0.34-0.314-3.314,0,0,0,90,false,stim,false,0,819.5999999046326,1,0,0,59963,task2,799663,false,false,1030,image-keyboard-response,19
true,10,0,1,0,true,q,false,true,0.0-2.0-0.35-0.315-3.315,0,0,0,81,false,stim,false,1,603.0,1,0,1,59963,task2,801785,false,false,1033,image-keyboard-response,20
true,10,1,1,1,true,z,false,true,0.0-2.0-0.35-0.316-3.316,0,0,0,90,false,stim,false,0,707.2000002861023,1,0,0,59963,task2,804003,false,false,1036,image-keyboard-response,21
true,10,0,1,0,true,q,false,true,0.0-2.0-0.35-0.317-3.317,0,0,0,81,false,stim,false,1,650.5999999046326,1,0,2,59963,task2,806176,false,false,1039,image-keyboard-response,22
true,10,1,1,1,true,z,false,true,0.0-2.0-0.35-0.318-3.318,0,0,0,90,false,stim,false,0,769.0999999046326,1,0,0,59963,task2,808465,false,false,1042,image-keyboard-response,23
true,10,0,1,0,true,q,false,true,0.0-2.0-0.35-0.319-3.319,0,0,0,81,false,stim,false,1,772.2999997138977,1,0,2,59963,task2,810764,false,false,1045,image-keyboard-response,24
true,10,0,1,0,true,q,false,true,0.0-2.0-0.35-0.320-3.320,0,0,0,81,false,stim,false,1,476.59999990463257,1,0,2,59963,task2,812765,false,false,1048,image-keyboard-response,25
true,10,0,1,0,true,q,false,true,0.0-2.0-0.35-0.321-3.321,0,0,0,81,false,stim,false,1,679.0999999046326,1,0,1,59963,task2,814962,false,false,1051,image-keyboard-response,26
true,10,1,1,1,true,z,false,false,0.0-2.0-0.35-0.322-3.322,0,0,0,90,false,stim,false,0,703.4000000953674,1,0,0,59963,task2,817187,false,true,1054,image-keyboard-response,27
true,10,0,1,0,true,q,false,true,0.0-2.0-0.35-0.323-3.323,0,0,0,81,false,stim,false,1,613.0999999046326,1,0,1,59963,task2,819322,false,false,1057,image-keyboard-response,28
true,10,0,1,0,true,q,false,true,0.0-2.0-0.36-0.324-3.324,0,0,0,81,false,stim,false,1,398.09999990463257,1,0,2,59963,task2,821245,false,false,1060,image-keyboard-response,29
true,10,0,1,0,true,q,false,true,0.0-2.0-0.36-0.325-3.325,0,0,0,81,false,stim,false,1,622.5,1,1,2,59963,task2,823392,false,false,1063,image-keyboard-response,30
true,10,0,1,0,true,q,false,false,0.0-2.0-0.36-0.326-3.326,0,0,0,81,false,stim,false,1,592.3000001907349,1,0,1,59963,task2,825511,false,true,1066,image-keyboard-response,31
true,10,1,1,1,true,z,false,true,0.0-2.0-0.36-0.327-3.327,0,0,0,90,false,stim,false,0,784.5,1,0,0,59963,task2,827797,false,false,1069,image-keyboard-response,32
true,10,1,1,1,true,z,false,true,0.0-2.0-0.36-0.328-3.328,0,0,0,90,false,stim,false,0,1036.0,1,0,0,59963,task2,830354,false,false,1072,image-keyboard-response,33
true,10,1,1,1,true,z,false,true,0.0-2.0-0.36-0.329-3.329,0,0,0,90,false,stim,false,0,735.5999999046326,1,0,0,59963,task2,832620,false,false,1075,image-keyboard-response,34
true,11,0,2,1,false,z,false,false,0.0-2.0-0.36-0.330-3.330,0,0,1,81,true,stim,true,0,653.0999999046326,1,0,1,59963,task2,834791,false,false,1078,image-keyboard-response,1
true,11,1,2,1,true,z,false,true,0.0-2.0-0.36-0.331-3.331,0,0,1,90,false,stim,false,0,1240.5,1,0,1,59963,task2,837551,false,false,1081,image-keyboard-response,2
true,11,0,2,0,true,q,false,true,0.0-2.0-0.36-0.332-3.332,0,0,1,81,false,stim,false,0,660.7999997138977,1,1,2,59963,task2,839731,false,false,1084,image-keyboard-response,3
true,11,0,2,0,true,q,false,true,0.0-2.0-0.37-0.333-3.333,0,0,1,81,false,stim,false,0,709.4000000953674,1,1,2,59963,task2,841979,false,false,1087,image-keyboard-response,4
true,11,1,2,1,true,z,false,false,0.0-2.0-0.37-0.334-3.334,0,0,1,90,false,stim,false,0,700.0999999046326,1,0,1,59963,task2,844196,false,true,1090,image-keyboard-response,5
true,11,1,2,0,false,q,false,false,0.0-2.0-0.37-0.335-3.335,0,0,1,90,false,stim,true,1,621.4000000953674,1,0,0,59963,task2,846337,false,false,1093,image-keyboard-response,6
true,11,0,2,0,true,q,false,true,0.0-2.0-0.37-0.336-3.336,0,0,1,81,false,stim,false,0,338.80000019073486,1,1,2,59963,task2,848197,false,false,1096,image-keyboard-response,7
true,11,2,2,0,false,q,true,false,0.0-2.0-0.37-0.337-3.337,0,0,1,68,false,stim,false,1,2435.5999999046326,1,0,0,59963,task2,852149,false,false,1099,image-keyboard-response,8
true,11,0,2,0,true,q,false,true,0.0-2.0-0.37-0.338-3.338,0,0,1,81,false,stim,false,1,613.7999997138977,1,0,0,59963,task2,854296,false,false,1102,image-keyboard-response,9
true,11,0,2,0,true,q,false,true,0.0-2.0-0.37-0.339-3.339,0,0,1,81,false,stim,false,0,772.0,1,1,2,59963,task2,856604,false,false,1105,image-keyboard-response,10
true,11,2,2,1,false,z,true,false,0.0-2.0-0.37-0.340-3.340,0,0,1,68,false,stim,false,0,871.8000001907349,1,0,1,59963,task2,859004,false,false,1108,image-keyboard-response,11
true,11,1,2,1,true,z,false,true,0.0-2.0-0.37-0.341-3.341,0,0,1,90,false,stim,false,0,651.2999997138977,1,0,1,59963,task2,861168,false,false,1111,image-keyboard-response,12
true,11,1,2,1,true,z,false,true,0.0-2.0-0.38-0.342-3.342,0,0,1,90,false,stim,false,0,670.0999999046326,1,0,1,59963,task2,863361,false,false,1114,image-keyboard-response,13
true,11,0,2,0,true,q,false,true,0.0-2.0-0.38-0.343-3.343,0,0,1,81,false,stim,false,0,596.4000000953674,1,1,2,59963,task2,865490,false,false,1117,image-keyboard-response,14
true,11,0,2,0,true,q,false,true,0.0-2.0-0.38-0.344-3.344,0,0,1,81,false,stim,false,0,584.9000000953674,1,1,2,59963,task2,867601,false,false,1120,image-keyboard-response,15
true,11,1,2,1,true,z,false,true,0.0-2.0-0.38-0.345-3.345,0,0,1,90,false,stim,false,0,1435.5999999046326,1,0,1,59963,task2,870549,false,false,1123,image-keyboard-response,16
true,11,0,2,0,true,q,false,true,0.0-2.0-0.38-0.346-3.346,0,0,1,81,false,stim,false,1,620.4000000953674,1,0,0,59963,task2,872686,false,false,1126,image-keyboard-response,17
true,11,1,2,1,true,z,false,true,0.0-2.0-0.38-0.347-3.347,0,0,1,90,false,stim,false,0,516.2999997138977,1,0,1,59963,task2,874722,false,false,1129,image-keyboard-response,18
true,11,0,2,0,true,q,false,true,0.0-2.0-0.38-0.348-3.348,0,0,1,81,false,stim,false,0,882.7999997138977,1,1,2,59963,task2,877133,false,false,1132,image-keyboard-response,19
true,11,1,2,0,false,q,false,false,0.0-2.0-0.38-0.349-3.349,0,0,1,90,false,stim,true,1,1336.3000001907349,1,0,0,59963,task2,880001,false,false,1135,image-keyboard-response,20
true,11,0,2,0,true,q,false,true,0.0-2.0-0.38-0.350-3.350,0,0,1,81,false,stim,false,1,438.69999980926514,1,0,0,59963,task2,881959,false,false,1138,image-keyboard-response,21
true,11,0,2,0,true,q,false,true,0.0-2.0-0.39-0.351-3.351,0,0,1,81,false,stim,false,1,1728.5,1,0,0,59963,task2,885202,false,false,1141,image-keyboard-response,22
true,11,1,2,0,false,q,true,false,0.0-2.0-0.39-0.352-3.352,0,0,1,90,false,stim,false,0,1844.6999998092651,1,1,2,59963,task2,888585,false,false,1144,image-keyboard-response,23
true,11,0,2,0,true,q,false,true,0.0-2.0-0.39-0.353-3.353,0,0,1,81,false,stim,false,1,495.40000009536743,1,0,0,59963,task2,890604,false,false,1147,image-keyboard-response,24
true,11,0,2,0,true,q,false,true,0.0-2.0-0.39-0.354-3.354,0,0,1,81,false,stim,false,0,507.6000003814697,1,1,2,59963,task2,892633,false,false,1150,image-keyboard-response,25
true,11,1,2,1,true,z,false,true,0.0-2.0-0.39-0.355-3.355,0,0,1,90,false,stim,false,0,464.0,1,0,1,59963,task2,894620,false,false,1153,image-keyboard-response,26
true,11,1,2,1,true,z,false,true,0.0-2.0-0.39-0.356-3.356,0,0,1,90,false,stim,false,0,676.0,1,0,1,59963,task2,896827,false,false,1156,image-keyboard-response,27
true,11,0,2,0,true,q,false,true,0.0-2.0-0.39-0.357-3.357,0,0,1,81,false,stim,false,1,406.30000019073486,1,1,0,59963,task2,898764,false,false,1159,image-keyboard-response,28
true,11,1,2,1,true,z,false,true,0.0-2.0-0.39-0.358-3.358,0,0,1,90,false,stim,false,0,1282.4000000953674,1,0,1,59963,task2,901567,false,false,1162,image-keyboard-response,29
true,11,0,2,0,true,q,false,true,0.0-2.0-0.39-0.359-3.359,0,0,1,81,false,stim,false,0,681.0999999046326,1,0,2,59963,task2,903774,false,false,1165,image-keyboard-response,30
true,11,1,2,1,true,z,false,true,0.0-2.0-0.40-0.360-3.360,0,0,1,90,false,stim,false,0,607.6999998092651,1,0,1,59963,task2,905902,false,false,1168,image-keyboard-response,31
true,11,0,2,0,true,q,false,false,0.0-2.0-0.40-0.361-3.361,0,0,1,81,false,stim,false,0,666.3999996185303,1,0,2,59963,task2,908083,false,true,1171,image-keyboard-response,32
true,12,0,2,0,true,q,false,true,0.0-2.0-0.40-0.362-3.362,1,0,0,81,true,stim,false,0,799.5999999046326,1,1,0,59963,task2,910394,false,false,1174,image-keyboard-response,1
true,12,1,2,2,false,d,false,false,0.0-2.0-0.40-0.363-3.363,1,0,0,90,false,stim,true,1,832.0999999046326,1,0,1,59963,task2,912751,false,false,1177,image-keyboard-response,2
true,12,2,2,2,true,d,false,true,0.0-2.0-0.40-0.364-3.364,1,0,0,68,false,stim,false,0,1554.8000001907349,1,0,2,59963,task2,915820,false,false,1180,image-keyboard-response,3
true,12,0,2,0,true,q,false,true,0.0-2.0-0.40-0.365-3.365,1,0,0,81,false,stim,false,0,828.9000000953674,1,1,0,59963,task2,918167,false,false,1183,image-keyboard-response,4
true,12,0,2,0,true,q,false,true,0.0-2.0-0.40-0.366-3.366,1,0,0,81,false,stim,false,0,701.8000001907349,1,1,0,59963,task2,920383,false,false,1186,image-keyboard-response,5
true,12,2,2,2,true,d,false,true,0.0-2.0-0.40-0.367-3.367,1,0,0,68,false,stim,false,1,757.0,1,0,1,59963,task2,922661,false,false,1189,image-keyboard-response,6
true,12,2,2,2,true,d,false,true,0.0-2.0-0.40-0.368-3.368,1,0,0,68,false,stim,false,0,642.0,1,0,2,59963,task2,924825,false,false,1192,image-keyboard-response,7
true,12,2,2,2,true,d,false,true,0.0-2.0-0.41-0.369-3.369,1,0,0,68,false,stim,false,1,512.0,1,0,1,59963,task2,926862,false,false,1195,image-keyboard-response,8
true,12,2,2,2,true,d,false,true,0.0-2.0-0.41-0.370-3.370,1,0,0,68,false,stim,false,1,571.7999997138977,1,0,1,59963,task2,928955,false,false,1198,image-keyboard-response,9
true,12,2,2,2,true,d,false,true,0.0-2.0-0.41-0.371-3.371,1,0,0,68,false,stim,false,0,620.5999999046326,1,0,2,59963,task2,931112,false,false,1201,image-keyboard-response,10
true,12,0,2,0,true,q,false,true,0.0-2.0-0.41-0.372-3.372,1,0,0,81,false,stim,false,0,839.5999999046326,1,1,0,59963,task2,933500,false,false,1204,image-keyboard-response,11
true,12,2,2,2,true,d,false,true,0.0-2.0-0.41-0.373-3.373,1,0,0,68,false,stim,false,0,890.2999997138977,1,0,2,59963,task2,935917,false,false,1207,image-keyboard-response,12
true,12,0,2,0,true,q,false,true,0.0-2.0-0.41-0.374-3.374,1,0,0,81,false,stim,false,0,776.4000000953674,1,1,0,59963,task2,938228,false,false,1210,image-keyboard-response,13
true,12,0,2,0,true,q,false,true,0.0-2.0-0.41-0.375-3.375,1,0,0,81,false,stim,false,0,834.4000000953674,1,1,0,59963,task2,940585,false,false,1213,image-keyboard-response,14
true,12,2,2,2,true,d,false,true,0.0-2.0-0.41-0.376-3.376,1,0,0,68,false,stim,false,1,811.2000002861023,1,0,1,59963,task2,942917,false,false,1216,image-keyboard-response,15
true,12,2,2,2,true,d,false,true,0.0-2.0-0.41-0.377-3.377,1,0,0,68,false,stim,false,0,706.4000000953674,1,0,2,59963,task2,945145,false,false,1219,image-keyboard-response,16
true,12,0,2,0,true,q,false,true,0.0-2.0-0.42-0.378-3.378,1,0,0,81,false,stim,false,0,851.1999998092651,1,1,0,59963,task2,947527,false,false,1222,image-keyboard-response,17
true,12,2,2,2,true,d,false,true,0.0-2.0-0.42-0.379-3.379,1,0,0,68,false,stim,false,0,757.5,1,0,2,59963,task2,949815,false,false,1225,image-keyboard-response,18
true,12,2,2,2,true,d,false,true,0.0-2.0-0.42-0.380-3.380,1,0,0,68,false,stim,false,1,622.2000002861023,1,0,1,59963,task2,951971,false,false,1228,image-keyboard-response,19
true,12,2,2,2,true,d,false,true,0.0-2.0-0.42-0.381-3.381,1,0,0,68,false,stim,false,1,525.3999996185303,1,0,1,59963,task2,954024,false,false,1231,image-keyboard-response,20
true,12,2,2,2,true,d,false,true,0.0-2.0-0.42-0.382-3.382,1,0,0,68,false,stim,false,0,1247.2999997138977,1,0,2,59963,task2,956802,false,false,1234,image-keyboard-response,21
true,12,0,2,0,true,q,false,true,0.0-2.0-0.42-0.383-3.383,1,0,0,81,false,stim,false,0,934.3000001907349,1,1,0,59963,task2,959273,false,false,1237,image-keyboard-response,22
true,12,2,2,2,true,d,false,true,0.0-2.0-0.42-0.384-3.384,1,0,0,68,false,stim,false,1,881.8000001907349,1,0,1,59963,task2,961675,false,false,1240,image-keyboard-response,23
true,12,2,2,2,true,d,false,true,0.0-2.0-0.42-0.385-3.385,1,0,0,68,false,stim,false,0,639.3000001907349,1,0,2,59963,task2,963838,false,false,1243,image-keyboard-response,24
true,12,0,2,0,true,q,false,true,0.0-2.0-0.42-0.386-3.386,1,0,0,81,false,stim,false,0,809.5999999046326,1,1,0,59963,task2,966168,false,false,1246,image-keyboard-response,25
true,12,2,2,2,true,d,false,true,0.0-2.0-0.43-0.387-3.387,1,0,0,68,false,stim,false,0,729.7000002861023,1,0,2,59963,task2,968435,false,false,1249,image-keyboard-response,26
true,12,2,2,2,true,d,false,true,0.0-2.0-0.43-0.388-3.388,1,0,0,68,false,stim,false,0,692.5,1,0,2,59963,task2,970646,false,false,1252,image-keyboard-response,27
true,12,2,2,2,true,d,false,true,0.0-2.0-0.43-0.389-3.389,1,0,0,68,false,stim,false,1,737.4000000953674,1,0,1,59963,task2,972906,false,false,1255,image-keyboard-response,28
true,12,0,2,0,true,q,false,false,0.0-2.0-0.43-0.390-3.390,1,0,0,81,false,stim,false,0,617.5999999046326,1,1,0,59963,task2,975051,false,true,1258,image-keyboard-response,29
true,12,2,2,2,true,d,false,true,0.0-2.0-0.43-0.391-3.391,1,0,0,68,false,stim,false,1,895.5,1,0,1,59963,task2,977477,false,false,1261,image-keyboard-response,30
true,12,0,2,0,true,q,false,true,0.0-2.0-0.43-0.392-3.392,1,0,0,81,false,stim,false,0,691.5,1,0,0,59963,task2,979691,false,false,1264,image-keyboard-response,31
true,12,2,2,2,true,d,false,true,0.0-2.0-0.43-0.393-3.393,1,0,0,68,false,stim,false,1,781.6999998092651,1,0,1,59963,task2,982007,false,false,1267,image-keyboard-response,32
true,12,2,2,2,true,d,false,false,0.0-2.0-0.43-0.394-3.394,1,0,0,68,false,stim,false,0,655.8999996185303,1,0,2,59963,task2,984175,false,true,1270,image-keyboard-response,33
true,12,0,2,0,true,q,false,true,0.0-2.0-0.43-0.395-3.395,1,0,0,81,false,stim,false,0,798.0,1,0,0,59963,task2,986504,false,false,1273,image-keyboard-response,34
true,12,0,2,0,true,q,false,false,0.0-2.0-0.44-0.396-3.396,1,0,0,81,false,stim,false,0,999.0999999046326,1,0,0,59963,task2,989026,false,true,1276,image-keyboard-response,35
true,13,2,1,0,false,q,false,false,0.0-2.0-0.44-0.397-3.397,0,0,0,68,true,stim,true,2,683.5,1,0,1,59963,task2,991238,false,false,1279,image-keyboard-response,1
true,13,1,1,0,false,q,true,false,0.0-2.0-0.44-0.398-3.398,0,0,0,90,false,stim,false,2,1338.0,1,0,2,59963,task2,994102,false,false,1282,image-keyboard-response,2
true,13,0,1,0,true,q,false,true,0.0-2.0-0.44-0.399-3.399,0,0,0,81,false,stim,false,2,1243.5999999046326,1,0,2,59963,task2,996874,false,false,1285,image-keyboard-response,3
true,13,0,1,0,true,q,false,true,0.0-2.0-0.44-0.400-3.400,0,0,0,81,false,stim,false,2,1039.6999998092651,1,0,2,59963,task2,999431,false,false,1288,image-keyboard-response,4
true,13,2,1,0,false,q,false,false,0.0-2.0-0.44-0.401-3.401,0,0,0,68,false,stim,true,2,2216.2000002861023,1,0,1,59963,task2,1003166,false,false,1291,image-keyboard-response,5
true,13,2,1,2,true,d,false,true,0.0-2.0-0.44-0.402-3.402,0,0,0,68,false,stim,false,0,2080.7999997138977,1,0,0,59963,task2,1006765,false,false,1294,image-keyboard-response,6
true,13,1,1,0,false,q,true,false,0.0-2.0-0.44-0.403-3.403,0,0,0,90,false,stim,false,2,687.4000000953674,1,0,1,59963,task2,1008974,false,false,1297,image-keyboard-response,7
true,13,2,1,2,true,d,false,true,0.0-2.0-0.44-0.404-3.404,0,0,0,68,false,stim,false,0,1093.8000001907349,1,0,0,59963,task2,1011592,false,false,1300,image-keyboard-response,8
true,13,0,1,0,true,q,false,true,0.0-2.0-0.45-0.405-3.405,0,0,0,81,false,stim,false,2,796.5,1,0,2,59963,task2,1013932,false,false,1303,image-keyboard-response,9
true,13,2,1,2,true,d,false,false,0.0-2.0-0.45-0.406-3.406,0,0,0,68,false,stim,false,0,827.5,1,0,0,59963,task2,1016293,false,true,1306,image-keyboard-response,10
true,13,0,1,0,true,q,false,true,0.0-2.0-0.45-0.407-3.407,0,0,0,81,false,stim,false,2,797.2999997138977,1,0,2,59963,task2,1018614,false,false,1309,image-keyboard-response,11
true,13,0,1,0,true,q,false,false,0.0-2.0-0.45-0.408-3.408,0,0,0,81,false,stim,false,2,860.4000000953674,1,0,2,59963,task2,1020993,false,true,1312,image-keyboard-response,12
true,13,1,1,2,false,d,true,false,0.0-2.0-0.45-0.409-3.409,0,0,0,90,false,stim,false,0,926.5,1,0,0,59963,task2,1023435,false,false,1315,image-keyboard-response,13
true,13,0,1,0,true,q,false,true,0.0-2.0-0.45-0.410-3.410,0,0,0,81,false,stim,false,2,988.3000001907349,1,0,1,59963,task2,1025943,false,false,1318,image-keyboard-response,14
true,13,0,1,2,false,d,false,false,0.0-2.0-0.45-0.411-3.411,0,0,0,81,false,stim,true,0,1052.6999998092651,1,0,0,59963,task2,1028522,false,false,1321,image-keyboard-response,15
true,13,0,1,0,true,q,false,false,0.0-2.0-0.45-0.412-3.412,0,0,0,81,false,stim,false,2,1044.4000000953674,1,0,1,59963,task2,1031099,false,true,1324,image-keyboard-response,16
true,13,0,1,0,true,q,false,true,0.0-2.0-0.45-0.413-3.413,0,0,0,81,false,stim,false,2,1005.1999998092651,1,0,1,59963,task2,1033625,false,false,1327,image-keyboard-response,17
true,13,2,1,0,false,q,false,false,0.0-2.0-0.46-0.414-3.414,0,0,0,68,false,stim,true,2,1023.0,1,0,2,59963,task2,1036170,false,false,1330,image-keyboard-response,18
true,13,0,1,0,true,q,false,true,0.0-2.0-0.46-0.415-3.415,0,0,0,81,false,stim,false,2,803.7999997138977,1,0,1,59963,task2,1038494,false,false,1333,image-keyboard-response,19
true,13,1,1,2,false,d,true,false,0.0-2.0-0.46-0.416-3.416,0,0,0,90,false,stim,false,0,974.0999999046326,1,0,0,59963,task2,1040984,false,false,1336,image-keyboard-response,20
true,13,0,1,2,false,d,false,false,0.0-2.0-0.46-0.417-3.417,0,0,0,81,false,stim,true,0,986.0,1,0,0,59963,task2,1043500,false,false,1339,image-keyboard-response,21
true,13,2,1,2,true,d,false,true,0.0-2.0-0.46-0.418-3.418,0,0,0,68,false,stim,false,0,737.1000003814697,1,0,0,59963,task2,1045768,false,false,1342,image-keyboard-response,22
true,13,0,1,0,true,q,false,true,0.0-2.0-0.46-0.419-3.419,0,0,0,81,false,stim,false,2,832.0999999046326,1,0,1,59963,task2,1048129,false,false,1345,image-keyboard-response,23
true,13,2,1,0,false,q,false,false,0.0-2.0-0.46-0.420-3.420,0,0,0,68,false,stim,true,2,1117.5999999046326,1,0,2,59963,task2,1050777,false,false,1348,image-keyboard-response,24
true,13,1,1,0,false,q,true,true,0.0-2.0-0.46-0.421-3.421,0,0,0,90,false,stim,false,2,715.6999998092651,1,0,2,59963,task2,1053007,false,true,1351,image-keyboard-response,25
true,13,0,1,0,true,q,false,true,0.0-2.0-0.46-0.422-3.422,0,0,0,81,false,stim,false,2,395.7000002861023,1,0,1,59963,task2,1054923,false,false,1354,image-keyboard-response,26
true,13,0,1,0,true,q,false,true,0.0-2.0-0.47-0.423-3.423,0,0,0,81,false,stim,false,2,546.8000001907349,1,0,1,59963,task2,1057006,false,false,1357,image-keyboard-response,27
true,13,2,1,2,true,d,false,true,0.0-2.0-0.47-0.424-3.424,0,0,0,68,false,stim,false,0,1063.3000001907349,1,0,0,59963,task2,1059594,false,false,1360,image-keyboard-response,28
true,13,1,1,0,false,q,true,false,0.0-2.0-0.47-0.425-3.425,0,0,0,90,false,stim,false,2,579.6999998092651,1,0,2,59963,task2,1061704,false,false,1363,image-keyboard-response,29
true,13,0,1,0,true,q,false,true,0.0-2.0-0.47-0.426-3.426,0,0,0,81,false,stim,false,2,451.90000009536743,1,0,1,59963,task2,1063691,false,false,1366,image-keyboard-response,30
true,13,0,1,0,true,q,false,true,0.0-2.0-0.47-0.427-3.427,0,0,0,81,false,stim,false,2,378.19999980926514,1,0,1,59963,task2,1065589,false,false,1369,image-keyboard-response,31
true,13,0,1,0,true,q,false,true,0.0-2.0-0.47-0.428-3.428,0,0,0,81,false,stim,false,2,674.5999999046326,1,0,2,59963,task2,1067782,false,false,1372,image-keyboard-response,32
true,13,2,1,2,true,d,false,true,0.0-2.0-0.47-0.429-3.429,0,0,0,68,false,stim,false,0,528.7000002861023,1,0,0,59963,task2,1069827,false,false,1375,image-keyboard-response,33
true,13,2,1,0,false,q,false,false,0.0-2.0-0.47-0.430-3.430,0,0,0,68,false,stim,true,2,743.4000000953674,1,0,2,59963,task2,1072082,false,false,1378,image-keyboard-response,34
true,13,2,1,2,true,d,false,true,0.0-2.0-0.47-0.431-3.431,0,0,0,68,false,stim,false,0,414.0,1,0,0,59963,task2,1074022,false,false,1381,image-keyboard-response,35
true,13,0,1,0,true,q,false,true,0.0-2.0-0.48-0.432-3.432,0,0,0,81,false,stim,false,2,629.3000001907349,1,0,1,59963,task2,1076168,false,false,1384,image-keyboard-response,36
true,13,0,1,0,true,q,false,true,0.0-2.0-0.48-0.433-3.433,0,0,0,81,false,stim,false,2,450.0,1,0,1,59963,task2,1078133,false,false,1387,image-keyboard-response,37
true,13,2,1,2,true,d,false,true,0.0-2.0-0.48-0.434-3.434,0,0,0,68,false,stim,false,0,480.90000009536743,1,0,0,59963,task2,1080140,false,false,1390,image-keyboard-response,38
true,14,0,1,2,false,d,false,false,0.0-2.0-0.48-0.435-3.435,0,0,0,81,true,stim,true,0,535.8000001907349,1,0,2,59963,task2,1082209,false,false,1393,image-keyboard-response,1
true,14,0,1,2,false,d,false,false,0.0-2.0-0.48-0.436-3.436,0,0,0,81,false,stim,true,0,403.5,1,0,2,59963,task2,1084137,false,false,1396,image-keyboard-response,2
true,14,0,1,2,false,d,false,false,0.0-2.0-0.48-0.437-3.437,0,0,0,81,false,stim,true,0,480.40000009536743,1,0,2,59963,task2,1086136,false,false,1399,image-keyboard-response,3
true,14,2,1,0,false,q,false,false,0.0-2.0-0.48-0.438-3.438,0,0,0,68,false,stim,true,2,445.69999980926514,1,0,0,59963,task2,1088106,false,false,1402,image-keyboard-response,4
true,14,0,1,1,false,z,false,false,0.0-2.0-0.48-0.439-3.439,0,0,0,81,false,stim,true,0,565.8000001907349,1,0,1,59963,task2,1090185,false,false,1405,image-keyboard-response,5
true,14,1,1,0,false,q,true,false,0.0-2.0-0.48-0.440-3.440,0,0,0,90,false,stim,false,2,770.7000002861023,1,0,0,59963,task2,1092481,false,false,1408,image-keyboard-response,6
true,14,0,1,1,false,z,false,false,0.0-2.0-0.49-0.441-3.441,0,0,0,81,false,stim,true,0,608.2000002861023,1,0,1,59963,task2,1094620,false,false,1411,image-keyboard-response,7
true,14,0,1,0,true,q,false,true,0.0-2.0-0.49-0.442-3.442,0,0,0,81,false,stim,false,2,794.5,1,0,0,59963,task2,1096933,false,false,1414,image-keyboard-response,8
true,14,2,1,2,true,d,false,true,0.0-2.0-0.49-0.443-3.443,0,0,0,68,false,stim,false,0,827.5999999046326,1,0,2,59963,task2,1099290,false,false,1417,image-keyboard-response,9
true,14,2,1,2,true,d,false,true,0.0-2.0-0.49-0.444-3.444,0,0,0,68,false,stim,false,0,727.5999999046326,1,0,2,59963,task2,1101542,false,false,1420,image-keyboard-response,10
true,14,2,1,2,true,d,false,true,0.0-2.0-0.49-0.445-3.445,0,0,0,68,false,stim,false,0,451.40000009536743,1,0,2,59963,task2,1103514,false,false,1423,image-keyboard-response,11
true,14,2,1,1,false,z,true,false,0.0-2.0-0.49-0.446-3.446,0,0,0,68,false,stim,false,0,356.30000019073486,1,0,1,59963,task2,1105389,false,false,1426,image-keyboard-response,12
true,14,1,1,1,true,z,false,true,0.0-2.0-0.49-0.447-3.447,0,0,0,90,false,stim,false,0,650.6999998092651,1,0,1,59963,task2,1107558,false,false,1429,image-keyboard-response,13
true,14,0,1,0,true,q,false,true,0.0-2.0-0.49-0.448-3.448,0,0,0,81,false,stim,false,2,558.2000002861023,1,0,0,59963,task2,1109640,false,false,1432,image-keyboard-response,14
true,14,0,1,0,true,q,false,true,0.0-2.0-0.49-0.449-3.449,0,0,0,81,false,stim,false,2,710.5999999046326,1,0,0,59963,task2,1111874,false,false,1435,image-keyboard-response,15
true,14,1,1,1,true,z,false,true,0.0-2.0-0.50-0.450-3.450,0,0,0,90,false,stim,false,0,997.9000000953674,1,0,1,59963,task2,1114390,false,false,1438,image-keyboard-response,16
true,14,0,1,0,true,q,false,true,0.0-2.0-0.50-0.451-3.451,0,0,0,81,false,stim,false,2,695.3000001907349,1,0,0,59963,task2,1116612,false,false,1441,image-keyboard-response,17
true,14,2,1,2,true,d,false,true,0.0-2.0-0.50-0.452-3.452,0,0,0,68,false,stim,false,0,696.6999998092651,1,0,2,59963,task2,1118840,false,false,1444,image-keyboard-response,18
true,14,2,1,2,true,d,false,true,0.0-2.0-0.50-0.453-3.453,0,0,0,68,false,stim,false,0,486.59999990463257,1,0,2,59963,task2,1120844,false,false,1447,image-keyboard-response,19
true,14,2,1,2,true,d,false,true,0.0-2.0-0.50-0.454-3.454,0,0,0,68,false,stim,false,0,490.19999980926514,1,0,2,59963,task2,1122857,false,false,1450,image-keyboard-response,20
true,14,0,1,1,false,z,false,false,0.0-2.0-0.50-0.455-3.455,0,0,0,81,false,stim,true,0,1040.8000001907349,1,0,1,59963,task2,1125426,false,false,1453,image-keyboard-response,21
true,14,0,1,0,true,q,false,true,0.0-2.0-0.50-0.456-3.456,0,0,0,81,false,stim,false,2,1056.9000000953674,1,0,0,59963,task2,1128002,false,false,1456,image-keyboard-response,22
true,14,1,1,1,true,z,false,true,0.0-2.0-0.50-0.457-3.457,0,0,0,90,false,stim,false,0,877.0,1,0,1,59963,task2,1130403,false,false,1459,image-keyboard-response,23
true,14,0,1,0,true,q,false,true,0.0-2.0-0.50-0.458-3.458,0,0,0,81,false,stim,false,2,700.5999999046326,1,0,0,59963,task2,1132625,false,false,1462,image-keyboard-response,24
true,14,1,1,1,true,z,false,true,0.0-2.0-0.51-0.459-3.459,0,0,0,90,false,stim,false,0,668.1999998092651,1,0,1,59963,task2,1134818,false,false,1465,image-keyboard-response,25
true,14,0,1,0,true,q,false,true,0.0-2.0-0.51-0.460-3.460,0,0,0,81,false,stim,false,2,676.0,1,0,0,59963,task2,1137017,false,false,1468,image-keyboard-response,26
true,14,2,1,2,true,d,false,true,0.0-2.0-0.51-0.461-3.461,0,0,0,68,false,stim,false,0,718.7000002861023,1,0,2,59963,task2,1139259,false,false,1471,image-keyboard-response,27
true,14,0,1,0,true,q,false,true,0.0-2.0-0.51-0.462-3.462,0,0,0,81,false,stim,false,2,731.7000002861023,1,0,0,59963,task2,1141514,false,false,1474,image-keyboard-response,28
true,14,1,1,1,true,z,false,true,0.0-2.0-0.51-0.463-3.463,0,0,0,90,false,stim,false,0,940.6999998092651,1,0,1,59963,task2,1143987,false,false,1477,image-keyboard-response,29
true,14,1,1,1,true,z,false,true,0.0-2.0-0.51-0.464-3.464,0,0,0,90,false,stim,false,0,703.0,1,0,1,59963,task2,1146210,false,false,1480,image-keyboard-response,30
true,14,0,1,0,true,q,false,true,0.0-2.0-0.51-0.465-3.465,0,0,0,81,false,stim,false,2,648.0999999046326,1,0,0,59963,task2,1148386,false,false,1483,image-keyboard-response,31
true,14,2,1,2,true,d,false,true,0.0-2.0-0.51-0.466-3.466,0,0,0,68,false,stim,false,0,768.3999996185303,1,0,2,59963,task2,1150677,false,false,1486,image-keyboard-response,32
true,14,2,1,2,true,d,false,true,0.0-2.0-0.51-0.467-3.467,0,0,0,68,false,stim,false,0,507.5,1,0,2,59963,task2,1152725,false,false,1489,image-keyboard-response,33
true,14,1,1,1,true,z,false,true,0.0-2.0-0.52-0.468-3.468,0,0,0,90,false,stim,false,0,873.8000001907349,1,0,1,59963,task2,1155129,false,false,1492,image-keyboard-response,34
true,14,0,1,0,true,q,false,true,0.0-2.0-0.52-0.469-3.469,0,0,0,81,false,stim,false,2,832.5999999046326,1,0,0,59963,task2,1157483,false,false,1495,image-keyboard-response,35
true,14,2,1,2,true,d,false,true,0.0-2.0-0.52-0.470-3.470,0,0,0,68,false,stim,false,0,835.6000003814697,1,0,2,59963,task2,1159837,false,false,1498,image-keyboard-response,36
true,15,2,1,1,false,z,false,true,0.0-2.0-0.52-0.471-3.471,0,0,0,68,true,stim,true,2,641.3999996185303,1,0,2,59963,task2,1162009,false,true,1501,image-keyboard-response,1
true,15,1,1,0,false,q,false,false,0.0-2.0-0.52-0.472-3.472,0,0,0,90,false,stim,true,1,1069.5,1,0,1,59963,task2,1164592,false,false,1504,image-keyboard-response,2
true,15,0,1,1,false,z,false,false,0.0-2.0-0.52-0.473-3.473,0,0,0,81,false,stim,true,0,630.3000001907349,1,0,0,59963,task2,1166736,false,false,1507,image-keyboard-response,3
true,15,2,1,1,false,z,false,false,0.0-2.0-0.52-0.474-3.474,0,0,0,68,false,stim,true,2,907.8000001907349,1,0,2,59963,task2,1169174,false,false,1510,image-keyboard-response,4
true,15,2,1,1,false,z,true,true,0.0-2.0-0.52-0.475-3.475,0,0,0,68,false,stim,false,0,939.7999997138977,1,0,0,59963,task2,1171644,false,true,1513,image-keyboard-response,5
true,15,0,1,0,true,q,false,true,0.0-2.0-0.52-0.476-3.476,0,0,0,81,false,stim,false,1,945.7999997138977,1,0,1,59963,task2,1174102,false,false,1516,image-keyboard-response,6
true,15,2,1,1,false,z,true,false,0.0-2.0-0.53-0.477-3.477,0,0,0,68,false,stim,false,0,795.5,1,0,0,59963,task2,1176417,false,false,1519,image-keyboard-response,7
true,15,0,1,0,true,q,false,true,0.0-2.0-0.53-0.478-3.478,0,0,0,81,false,stim,false,1,728.0,1,0,1,59963,task2,1178675,false,false,1522,image-keyboard-response,8
true,15,0,1,0,true,q,false,true,0.0-2.0-0.53-0.479-3.479,0,0,0,81,false,stim,false,1,755.5,1,0,1,59963,task2,1180962,false,false,1525,image-keyboard-response,9
true,15,1,1,1,true,z,false,true,0.0-2.0-0.53-0.480-3.480,0,0,0,90,false,stim,false,0,799.8000001907349,1,0,0,59963,task2,1183288,false,false,1528,image-keyboard-response,10
true,15,1,1,1,true,z,false,true,0.0-2.0-0.53-0.481-3.481,0,0,0,90,false,stim,false,2,1750.7999997138977,1,0,2,59963,task2,1186560,false,false,1531,image-keyboard-response,11
true,15,1,1,1,true,z,false,true,0.0-2.0-0.53-0.482-3.482,0,0,0,90,false,stim,false,0,969.3000001907349,1,0,0,59963,task2,1189069,false,false,1534,image-keyboard-response,12
true,15,1,1,1,true,z,false,true,0.0-2.0-0.53-0.483-3.483,0,0,0,90,false,stim,false,2,727.6999998092651,1,0,2,59963,task2,1191321,false,false,1537,image-keyboard-response,13
true,15,0,1,0,true,q,false,true,0.0-2.0-0.53-0.484-3.484,0,0,0,81,false,stim,false,1,970.7999997138977,1,0,1,59963,task2,1193833,false,false,1540,image-keyboard-response,14
true,15,1,1,1,true,z,false,false,0.0-2.0-0.53-0.485-3.485,0,0,0,90,false,stim,false,2,630.5,1,0,2,59963,task2,1195998,false,true,1543,image-keyboard-response,15
true,15,1,1,1,true,z,false,true,0.0-2.0-0.54-0.486-3.486,0,0,0,90,false,stim,false,0,587.0999999046326,1,0,0,59963,task2,1198117,false,false,1546,image-keyboard-response,16
true,15,1,1,1,true,z,false,true,0.0-2.0-0.54-0.487-3.487,0,0,0,90,false,stim,false,0,906.2999997138977,1,0,0,59963,task2,1200546,false,false,1549,image-keyboard-response,17
true,15,1,1,1,true,z,false,true,0.0-2.0-0.54-0.488-3.488,0,0,0,90,false,stim,false,0,585.5,1,0,0,59963,task2,1202659,false,false,1552,image-keyboard-response,18
true,15,0,1,0,true,q,false,true,0.0-2.0-0.54-0.489-3.489,0,0,0,81,false,stim,false,1,623.6999998092651,1,0,1,59963,task2,1204803,false,false,1555,image-keyboard-response,19
true,15,0,1,0,true,q,false,true,0.0-2.0-0.54-0.490-3.490,0,0,0,81,false,stim,false,1,646.3000001907349,1,0,1,59963,task2,1206982,false,false,1558,image-keyboard-response,20
true,15,1,1,1,true,z,false,true,0.0-2.0-0.54-0.491-3.491,0,0,0,90,false,stim,false,2,353.0,1,0,2,59963,task2,1208854,false,false,1561,image-keyboard-response,21
true,15,0,1,0,true,q,false,true,0.0-2.0-0.54-0.492-3.492,0,0,0,81,false,stim,false,1,943.3000001907349,1,0,1,59963,task2,1211318,false,false,1564,image-keyboard-response,22
true,15,1,1,1,true,z,false,true,0.0-2.0-0.54-0.493-3.493,0,0,0,90,false,stim,false,2,749.9000000953674,1,0,2,59963,task2,1213597,false,false,1567,image-keyboard-response,23
true,15,1,1,1,true,z,false,true,0.0-2.0-0.54-0.494-3.494,0,0,0,90,false,stim,false,2,484.0,1,0,2,59963,task2,1215605,false,false,1570,image-keyboard-response,24
true,15,1,1,1,true,z,false,true,0.0-2.0-0.55-0.495-3.495,0,0,0,90,false,stim,false,0,791.7999997138977,1,0,0,59963,task2,1217925,false,false,1573,image-keyboard-response,25
true,15,0,1,0,true,q,false,true,0.0-2.0-0.55-0.496-3.496,0,0,0,81,false,stim,false,1,735.5,1,0,1,59963,task2,1220173,false,false,1576,image-keyboard-response,26
true,15,1,1,1,true,z,false,true,0.0-2.0-0.55-0.497-3.497,0,0,0,90,false,stim,false,2,547.0999999046326,1,0,2,59963,task2,1222243,false,false,1579,image-keyboard-response,27
true,15,1,1,1,true,z,false,true,0.0-2.0-0.55-0.498-3.498,0,0,0,90,false,stim,false,2,1040.0999999046326,1,0,2,59963,task2,1224809,false,false,1582,image-keyboard-response,28
true,15,1,1,1,true,z,false,true,0.0-2.0-0.55-0.499-3.499,0,0,0,90,false,stim,false,0,792.4000000953674,1,0,0,59963,task2,1227115,false,false,1585,image-keyboard-response,29
true,15,1,1,1,true,z,false,true,0.0-2.0-0.55-0.500-3.500,0,0,0,90,false,stim,false,2,981.9000000953674,1,0,2,59963,task2,1229615,false,false,1588,image-keyboard-response,30
true,15,1,1,1,true,z,false,true,0.0-2.0-0.55-0.501-3.501,0,0,0,90,false,stim,false,0,590.7000002861023,1,0,0,59963,task2,1231730,false,false,1591,image-keyboard-response,31
true,15,0,1,0,true,q,false,true,0.0-2.0-0.55-0.502-3.502,0,0,0,81,false,stim,false,1,964.0999999046326,1,0,1,59963,task2,1234212,false,false,1594,image-keyboard-response,32
true,15,0,1,0,true,q,false,true,0.0-2.0-0.55-0.503-3.503,0,0,0,81,false,stim,false,1,464.30000019073486,1,1,1,59963,task2,1236206,false,false,1597,image-keyboard-response,33
true,15,1,1,1,true,z,false,true,0.0-2.0-0.56-0.504-3.504,0,0,0,90,false,stim,false,2,1027.0,1,1,2,59963,task2,1238745,false,false,1600,image-keyboard-response,34
true,15,1,1,1,true,z,false,true,0.0-2.0-0.56-0.505-3.505,0,0,0,90,false,stim,false,0,820.8000001907349,1,1,0,59963,task2,1241097,false,false,1603,image-keyboard-response,35
true,15,1,1,1,true,z,false,true,0.0-2.0-0.56-0.506-3.506,0,0,0,90,false,stim,false,0,447.90000009536743,1,1,0,59963,task2,1243067,false,false,1606,image-keyboard-response,36
true,15,1,1,1,true,z,false,true,0.0-2.0-0.56-0.507-3.507,0,0,0,90,false,stim,false,0,607.5999999046326,1,1,0,59963,task2,1245195,false,false,1609,image-keyboard-response,37
true,16,0,0,0,true,q,false,true,0.0-2.0-0.56-0.508-3.508,1,1,1,81,true,stim,false,0,969.1000003814697,1,1,1,59963,task2,1368957,false,false,1732,image-keyboard-response,1
true,16,1,0,1,true,z,false,true,0.0-2.0-0.56-0.509-3.509,1,1,1,90,false,stim,false,1,560.5,1,1,2,59963,task2,1371042,false,false,1735,image-keyboard-response,2
true,16,0,0,0,true,q,false,true,0.0-2.0-0.56-0.510-3.510,1,1,1,81,false,stim,false,0,1142.4000000953674,1,1,1,59963,task2,1373704,false,false,1738,image-keyboard-response,3
true,16,1,0,1,true,z,false,true,0.0-2.0-0.56-0.511-3.511,1,1,1,90,false,stim,false,1,806.7999997138977,1,1,2,59963,task2,1376024,false,false,1741,image-keyboard-response,4
true,16,0,0,0,true,q,false,true,0.0-2.0-0.56-0.512-3.512,1,1,1,81,false,stim,false,0,1038.5999999046326,1,1,1,59963,task2,1378578,false,false,1744,image-keyboard-response,5
true,16,1,0,1,true,z,false,true,0.0-2.0-0.57-0.513-3.513,1,1,1,90,false,stim,false,1,929.9000000953674,1,1,2,59963,task2,1381029,false,false,1747,image-keyboard-response,6
true,16,0,0,0,true,q,false,true,0.0-2.0-0.57-0.514-3.514,1,1,1,81,false,stim,false,0,823.0,1,1,1,59963,task2,1383372,false,false,1750,image-keyboard-response,7
true,16,0,0,0,true,q,false,true,0.0-2.0-0.57-0.515-3.515,1,1,1,81,false,stim,false,0,1042.0999999046326,1,1,1,59963,task2,1385934,false,false,1753,image-keyboard-response,8
true,16,1,0,1,true,z,false,true,0.0-2.0-0.57-0.516-3.516,1,1,1,90,false,stim,false,1,795.7999997138977,1,0,2,59963,task2,1388246,false,false,1756,image-keyboard-response,9
true,16,1,0,1,true,z,false,true,0.0-2.0-0.57-0.517-3.517,1,1,1,90,false,stim,false,1,819.5999999046326,1,0,0,59963,task2,1390576,false,false,1759,image-keyboard-response,10
true,16,1,0,1,true,z,false,true,0.0-2.0-0.57-0.518-3.518,1,1,1,90,false,stim,false,1,967.6999998092651,1,0,0,59963,task2,1393052,false,false,1762,image-keyboard-response,11
true,16,1,0,1,true,z,false,true,0.0-2.0-0.57-0.519-3.519,1,1,1,90,false,stim,false,1,785.3000001907349,1,0,0,59963,task2,1395362,false,false,1765,image-keyboard-response,12
true,16,1,0,1,true,z,false,true,0.0-2.0-0.57-0.520-3.520,1,1,1,90,false,stim,false,1,939.6000003814697,1,0,2,59963,task2,1397827,false,false,1768,image-keyboard-response,13
true,17,0,1,2,false,d,false,false,0.0-2.0-0.57-0.521-3.521,0,0,0,81,true,stim,true,0,847.3000001907349,1,0,1,59963,task2,1400199,false,false,1771,image-keyboard-response,1
true,17,0,1,2,false,d,false,false,0.0-2.0-0.58-0.522-3.522,0,0,0,81,false,stim,true,0,688.0,1,0,1,59963,task2,1402407,false,false,1774,image-keyboard-response,2
true,17,1,1,0,false,q,false,false,0.0-2.0-0.58-0.523-3.523,0,0,0,90,false,stim,true,1,772.2999997138977,1,0,2,59963,task2,1404699,false,false,1777,image-keyboard-response,3
true,17,1,1,0,false,q,false,false,0.0-2.0-0.58-0.524-3.524,0,0,0,90,false,stim,true,1,429.80000019073486,1,0,0,59963,task2,1406657,false,false,1780,image-keyboard-response,4
true,17,2,1,0,false,q,true,false,0.0-2.0-0.58-0.525-3.525,0,0,0,68,false,stim,false,1,741.9000000953674,1,0,0,59963,task2,1408924,false,false,1783,image-keyboard-response,5
true,17,0,1,0,true,q,false,true,0.0-2.0-0.58-0.526-3.526,0,0,0,81,false,stim,false,1,420.09999990463257,1,0,0,59963,task2,1410871,false,false,1786,image-keyboard-response,6
true,17,2,1,0,false,q,true,false,0.0-2.0-0.58-0.527-3.527,0,0,0,68,false,stim,false,1,793.8000001907349,1,0,2,59963,task2,1413188,false,false,1789,image-keyboard-response,7
true,17,1,1,2,false,d,true,false,0.0-2.0-0.58-0.528-3.528,0,0,0,90,false,stim,false,0,979.5,1,0,1,59963,task2,1415680,false,false,1792,image-keyboard-response,8
true,17,0,1,0,true,q,false,true,0.0-2.0-0.58-0.529-3.529,0,0,0,81,false,stim,false,1,468.2999997138977,1,0,2,59963,task2,1417668,false,false,1795,image-keyboard-response,9
true,17,2,1,2,true,d,false,true,0.0-2.0-0.58-0.530-3.530,0,0,0,68,false,stim,false,0,901.2999997138977,1,0,1,59963,task2,1420086,false,false,1798,image-keyboard-response,10
true,17,2,1,2,true,d,false,true,0.0-2.0-0.59-0.531-3.531,0,0,0,68,false,stim,false,0,808.6999998092651,1,0,1,59963,task2,1422418,false,false,1801,image-keyboard-response,11
true,17,0,1,0,true,q,false,true,0.0-2.0-0.59-0.532-3.532,0,0,0,81,false,stim,false,1,880.2999997138977,1,0,2,59963,task2,1424822,false,false,1804,image-keyboard-response,12
true,17,0,1,0,true,q,false,true,0.0-2.0-0.59-0.533-3.533,0,0,0,81,false,stim,false,1,410.7000002861023,1,0,2,59963,task2,1426751,false,false,1807,image-keyboard-response,13
true,17,0,1,0,true,q,false,true,0.0-2.0-0.59-0.534-3.534,0,0,0,81,false,stim,false,1,739.8000001907349,1,0,0,59963,task2,1429024,false,false,1810,image-keyboard-response,14
true,17,0,1,0,true,q,false,true,0.0-2.0-0.59-0.535-3.535,0,0,0,81,false,stim,false,1,437.59999990463257,1,0,0,59963,task2,1430984,false,false,1813,image-keyboard-response,15
true,17,0,1,0,true,q,false,true,0.0-2.0-0.59-0.536-3.536,0,0,0,81,false,stim,false,1,412.80000019073486,1,0,0,59963,task2,1432915,false,false,1816,image-keyboard-response,16
true,17,2,1,2,true,d,false,true,0.0-2.0-0.59-0.537-3.537,0,0,0,68,false,stim,false,0,826.0,1,0,1,59963,task2,1435264,false,false,1819,image-keyboard-response,17
true,17,0,1,0,true,q,false,true,0.0-2.0-0.59-0.538-3.538,0,0,0,81,false,stim,false,1,684.0999999046326,1,0,2,59963,task2,1437481,false,false,1822,image-keyboard-response,18
true,17,2,1,2,true,d,false,true,0.0-2.0-0.59-0.539-3.539,0,0,0,68,false,stim,false,0,772.6999998092651,1,0,1,59963,task2,1439780,false,false,1825,image-keyboard-response,19
true,17,0,1,0,true,q,false,true,0.0-2.0-0.60-0.540-3.540,0,0,0,81,false,stim,false,1,585.5999999046326,1,0,0,59963,task2,1441885,false,false,1828,image-keyboard-response,20
true,17,2,1,2,true,d,false,true,0.0-2.0-0.60-0.541-3.541,0,0,0,68,false,stim,false,0,844.0999999046326,1,0,1,59963,task2,1444247,false,false,1831,image-keyboard-response,21
true,17,2,1,2,true,d,false,true,0.0-2.0-0.60-0.542-3.542,0,0,0,68,false,stim,false,0,661.8000001907349,1,0,1,59963,task2,1446430,false,false,1834,image-keyboard-response,22
true,17,0,1,0,true,q,false,true,0.0-2.0-0.60-0.543-3.543,0,0,0,81,false,stim,false,1,800.5999999046326,1,0,0,59963,task2,1448760,false,false,1837,image-keyboard-response,23
true,17,2,1,2,true,d,false,true,0.0-2.0-0.60-0.544-3.544,0,0,0,68,false,stim,false,0,1022.5,1,0,1,59963,task2,1451296,false,false,1840,image-keyboard-response,24
true,17,0,1,0,true,q,false,true,0.0-2.0-0.60-0.545-3.545,0,0,0,81,false,stim,false,1,978.1999998092651,1,0,2,59963,task2,1453791,false,false,1843,image-keyboard-response,25
true,17,0,1,0,true,q,false,true,0.0-2.0-0.60-0.546-3.546,0,0,0,81,false,stim,false,1,622.5,1,0,0,59963,task2,1455933,false,false,1846,image-keyboard-response,26
true,17,0,1,0,true,q,false,true,0.0-2.0-0.60-0.547-3.547,0,0,0,81,false,stim,false,1,1269.0999999046326,1,0,2,59963,task2,1458721,false,false,1849,image-keyboard-response,27
true,17,0,1,0,true,q,false,true,0.0-2.0-0.60-0.548-3.548,0,0,0,81,false,stim,false,1,724.8000001907349,1,0,2,59963,task2,1460958,false,false,1852,image-keyboard-response,28
true,17,2,1,2,true,d,false,true,0.0-2.0-0.61-0.549-3.549,0,0,0,68,false,stim,false,0,768.3999996185303,1,0,1,59963,task2,1463253,false,false,1855,image-keyboard-response,29
true,17,2,1,2,true,d,false,false,0.0-2.0-0.61-0.550-3.550,0,0,0,68,false,stim,false,0,821.0999999046326,1,0,1,59963,task2,1465613,false,true,1858,image-keyboard-response,30
true,17,0,1,0,true,q,false,true,0.0-2.0-0.61-0.551-3.551,0,0,0,81,false,stim,false,1,776.3000001907349,1,1,0,59963,task2,1467917,false,false,1861,image-keyboard-response,31
true,17,0,1,0,true,q,false,true,0.0-2.0-0.61-0.552-3.552,0,0,0,81,false,stim,false,1,372.40000009536743,1,0,2,59963,task2,1469822,false,false,1864,image-keyboard-response,32
true,17,2,1,0,false,q,true,true,0.0-2.0-0.61-0.553-3.553,0,0,0,68,false,stim,false,1,480.7999997138977,1,0,2,59963,task2,1471817,false,true,1867,image-keyboard-response,33
true,17,0,1,0,true,q,false,true,0.0-2.0-0.61-0.554-3.554,0,0,0,81,false,stim,false,1,924.5,1,1,0,59963,task2,1474270,false,false,1870,image-keyboard-response,34
true,17,2,1,0,false,q,true,false,0.0-2.0-0.61-0.555-3.555,0,0,0,68,false,stim,false,1,1084.7000002861023,1,0,2,59963,task2,1476878,false,false,1873,image-keyboard-response,35
true,18,0,2,0,true,q,false,true,0.0-2.0-0.61-0.556-3.556,1,0,0,81,true,stim,false,0,1188.7999997138977,1,1,0,59963,task2,1479608,false,false,1876,image-keyboard-response,1
true,18,2,2,0,false,q,false,false,0.0-2.0-0.61-0.557-3.557,1,0,0,68,false,stim,true,2,373.80000019073486,1,0,1,59963,task2,1481501,false,false,1879,image-keyboard-response,2
true,18,0,2,0,true,q,false,true,0.0-2.0-0.62-0.558-3.558,1,0,0,81,false,stim,false,0,746.1999998092651,1,1,0,59963,task2,1483783,false,false,1882,image-keyboard-response,3
true,18,0,2,0,true,q,false,true,0.0-2.0-0.62-0.559-3.559,1,0,0,81,false,stim,false,0,498.30000019073486,1,1,0,59963,task2,1485801,false,false,1885,image-keyboard-response,4
true,18,1,2,2,false,d,true,false,0.0-2.0-0.62-0.560-3.560,1,0,0,90,false,stim,false,0,750.2000002861023,1,0,2,59963,task2,1488078,false,false,1888,image-keyboard-response,5
true,18,0,2,0,true,q,false,true,0.0-2.0-0.62-0.561-3.561,1,0,0,81,false,stim,false,2,427.1000003814697,1,0,1,59963,task2,1490023,false,false,1891,image-keyboard-response,6
true,18,0,2,0,true,q,false,true,0.0-2.0-0.62-0.562-3.562,1,0,0,81,false,stim,false,2,732.1999998092651,1,0,1,59963,task2,1492291,false,false,1894,image-keyboard-response,7
true,18,0,2,0,true,q,false,false,0.0-2.0-0.62-0.563-3.563,1,0,0,81,false,stim,false,0,568.1999998092651,1,1,0,59963,task2,1494393,false,true,1897,image-keyboard-response,8
true,18,2,2,2,true,d,false,true,0.0-2.0-0.62-0.564-3.564,1,0,0,68,false,stim,false,0,872.1999998092651,1,0,2,59963,task2,1496794,false,false,1900,image-keyboard-response,9
true,18,2,2,2,true,d,false,true,0.0-2.0-0.62-0.565-3.565,1,0,0,68,false,stim,false,0,580.0999999046326,1,0,2,59963,task2,1498907,false,false,1903,image-keyboard-response,10
true,18,0,2,0,true,q,false,true,0.0-2.0-0.62-0.566-3.566,1,0,0,81,false,stim,false,2,602.9000000953674,1,0,1,59963,task2,1501052,false,false,1906,image-keyboard-response,11
true,18,0,2,0,true,q,false,true,0.0-2.0-0.63-0.567-3.567,1,0,0,81,false,stim,false,0,346.40000009536743,1,1,0,59963,task2,1502930,false,false,1909,image-keyboard-response,12
true,18,0,2,0,true,q,false,false,0.0-2.0-0.63-0.568-3.568,1,0,0,81,false,stim,false,0,1711.7999997138977,1,1,0,59963,task2,1506163,false,true,1912,image-keyboard-response,13
true,18,0,2,0,true,q,false,true,0.0-2.0-0.63-0.569-3.569,1,0,0,81,false,stim,false,2,782.0,1,0,1,59963,task2,1508465,false,false,1915,image-keyboard-response,14
true,18,0,2,0,true,q,false,true,0.0-2.0-0.63-0.570-3.570,1,0,0,81,false,stim,false,0,722.1000003814697,1,1,0,59963,task2,1510724,false,false,1918,image-keyboard-response,15
true,18,2,2,2,true,d,false,true,0.0-2.0-0.63-0.571-3.571,1,0,0,68,false,stim,false,0,703.9000000953674,1,0,2,59963,task2,1512964,false,false,1921,image-keyboard-response,16
true,18,2,2,2,true,d,false,false,0.0-2.0-0.63-0.572-3.572,1,0,0,68,false,stim,false,0,450.5,1,0,2,59963,task2,1514947,false,true,1924,image-keyboard-response,17
true,18,0,2,0,true,q,false,true,0.0-2.0-0.63-0.573-3.573,1,0,0,81,false,stim,false,2,412.90000009536743,1,0,1,59963,task2,1516885,false,false,1927,image-keyboard-response,18
true,18,0,2,0,true,q,false,true,0.0-2.0-0.63-0.574-3.574,1,0,0,81,false,stim,false,2,591.4000000953674,1,0,1,59963,task2,1519005,false,false,1930,image-keyboard-response,19
true,18,2,2,2,true,d,false,true,0.0-2.0-0.63-0.575-3.575,1,0,0,68,false,stim,false,0,511.7999997138977,1,0,2,59963,task2,1521040,false,false,1933,image-keyboard-response,20
true,18,0,2,0,true,q,false,true,0.0-2.0-0.64-0.576-3.576,1,0,0,81,false,stim,false,0,731.8000001907349,1,1,0,59963,task2,1523286,false,false,1936,image-keyboard-response,21
true,18,2,2,2,true,d,false,true,0.0-2.0-0.64-0.577-3.577,1,0,0,68,false,stim,false,0,611.9000000953674,1,0,2,59963,task2,1525426,false,false,1939,image-keyboard-response,22
true,18,0,2,0,true,q,false,true,0.0-2.0-0.64-0.578-3.578,1,0,0,81,false,stim,false,2,815.5,1,0,1,59963,task2,1527757,false,false,1942,image-keyboard-response,23
true,18,0,2,0,true,q,false,true,0.0-2.0-0.64-0.579-3.579,1,0,0,81,false,stim,false,2,633.6999998092651,1,0,1,59963,task2,1529917,false,false,1945,image-keyboard-response,24
true,18,2,2,0,false,q,true,false,0.0-2.0-0.64-0.580-3.580,1,0,0,68,false,stim,false,0,863.6999998092651,1,1,0,59963,task2,1532306,false,false,1948,image-keyboard-response,25
true,18,2,2,2,true,d,false,true,0.0-2.0-0.64-0.581-3.581,1,0,0,68,false,stim,false,0,689.6999998092651,1,0,2,59963,task2,1534521,false,false,1951,image-keyboard-response,26
true,18,0,2,0,true,q,false,false,0.0-2.0-0.64-0.582-3.582,1,0,0,81,false,stim,false,0,558.7999997138977,1,1,0,59963,task2,1536600,false,true,1954,image-keyboard-response,27
true,18,2,2,2,true,d,false,true,0.0-2.0-0.64-0.583-3.583,1,0,0,68,false,stim,false,0,594.1999998092651,1,0,2,59963,task2,1538717,false,false,1957,image-keyboard-response,28
true,18,0,2,0,true,q,false,true,0.0-2.0-0.64-0.584-3.584,1,0,0,81,false,stim,false,2,524.5,1,0,1,59963,task2,1540769,false,false,1960,image-keyboard-response,29
true,18,2,2,2,true,d,false,false,0.0-2.0-0.65-0.585-3.585,1,0,0,68,false,stim,false,0,492.69999980926514,1,0,2,59963,task2,1542793,false,true,1963,image-keyboard-response,30
true,18,0,2,0,true,q,false,true,0.0-2.0-0.65-0.586-3.586,1,0,0,81,false,stim,false,0,456.69999980926514,1,1,0,59963,task2,1544779,false,false,1966,image-keyboard-response,31
true,18,0,2,0,true,q,false,true,0.0-2.0-0.65-0.587-3.587,1,0,0,81,false,stim,false,2,641.0999999046326,1,0,1,59963,task2,1546933,false,false,1969,image-keyboard-response,32
true,19,0,2,2,false,d,false,false,0.0-2.0-0.65-0.588-3.588,1,0,0,81,true,stim,true,0,579.0,1,0,1,59963,task2,1549046,false,false,1972,image-keyboard-response,1
true,19,0,2,0,true,q,false,false,0.0-2.0-0.65-0.589-3.589,1,0,0,81,false,stim,false,0,721.0999999046326,1,1,0,59963,task2,1551300,false,true,1975,image-keyboard-response,2
true,19,2,2,1,false,z,false,false,0.0-2.0-0.65-0.590-3.590,1,0,0,68,false,stim,true,2,1025.7000002861023,1,0,2,59963,task2,1553867,false,false,1978,image-keyboard-response,3
