answered,blockNum,choice,condition,corResp,correct,correct_response,explo,fb,internal_node_id,isStable_1,isStable_2,isStable_3,key_press,newBlock,part,persev,persevResp,rt,sessNum,stableAS,stimulus,subject,task,time_elapsed,training,trap,trial_index,trial_type,trialsInBlock
true,1,0,0,1,false,z,true,false,0.0-2.0-0.0-0.0-3.0,0,0,0,81,true,stim,false,-1,1622.4000000357628,0,0,2,62338,task3,162049,false,false,81,image-keyboard-response,1
true,1,1,0,1,true,z,false,true,0.0-2.0-0.0-0.1-3.1,0,0,0,90,false,stim,false,-1,734.4000000357628,0,0,2,62338,task3,164308,false,false,84,image-keyboard-response,2
true,1,0,0,2,false,d,true,false,0.0-2.0-0.0-0.2-3.2,0,0,0,81,false,stim,false,-1,987.8000000119209,0,0,1,62338,task3,166822,false,false,87,image-keyboard-response,3
true,1,0,0,1,false,z,true,false,0.0-2.0-0.0-0.3-3.3,0,0,0,81,false,stim,false,-1,1421.5,0,0,0,62338,task3,169762,false,false,90,image-keyboard-response,4
true,1,1,0,2,false,d,true,false,0.0-2.0-0.0-0.4-3.4,0,0,0,90,false,stim,false,-1,1626.800000011921,0,0,1,62338,task3,172915,false,false,93,image-keyboard-response,5
true,1,1,0,1,true,z,false,false,0.0-2.0-0.0-0.5-3.5,0,0,0,90,false,stim,false,-1,1537.2999999523163,0,0,2,62338,task3,175974,false,true,96,image-keyboard-response,6
true,1,1,0,1,true,z,false,true,0.0-2.0-0.0-0.6-3.6,0,0,0,90,false,stim,false,-1,1717.7000000476837,0,0,0,62338,task3,179198,false,false,99,image-keyboard-response,7
true,1,2,0,2,true,d,false,true,0.0-2.0-0.0-0.7-3.7,0,0,0,68,false,stim,false,-1,1628.4000000357628,0,0,1,62338,task3,182351,false,false,102,image-keyboard-response,8
true,1,1,0,1,true,z,false,true,0.0-2.0-0.0-0.8-3.8,0,0,0,90,false,stim,false,-1,1306.2000000476837,0,0,0,62338,task3,185181,false,false,105,image-keyboard-response,9
true,1,1,0,1,true,z,false,true,0.0-2.0-0.1-0.9-3.9,0,0,0,90,false,stim,false,-1,1393.6000000238419,0,0,0,62338,task3,188096,false,false,108,image-keyboard-response,10
true,1,2,0,2,true,d,false,true,0.0-2.0-0.1-0.10-3.10,0,0,0,68,false,stim,false,-1,1361.5,0,0,1,62338,task3,190990,false,false,111,image-keyboard-response,11
true,1,1,0,1,true,z,false,true,0.0-2.0-0.1-0.11-3.11,0,0,0,90,false,stim,false,-1,2620.800000011921,0,0,2,62338,task3,195141,false,false,114,image-keyboard-response,12
true,1,2,0,1,false,z,true,false,0.0-2.0-0.1-0.12-3.12,0,0,0,68,false,stim,false,-1,2572.800000011921,0,0,0,62338,task3,199247,false,false,117,image-keyboard-response,13
true,1,2,0,2,true,d,false,true,0.0-2.0-0.1-0.13-3.13,0,0,0,68,false,stim,false,-1,1370.8999999761581,0,0,1,62338,task3,202136,false,false,120,image-keyboard-response,14
true,1,1,0,1,true,z,false,true,0.0-2.0-0.1-0.14-3.14,0,0,0,90,false,stim,false,-1,2317.7000000476837,0,0,2,62338,task3,205976,false,false,123,image-keyboard-response,15
true,1,1,0,1,true,z,false,true,0.0-2.0-0.1-0.15-3.15,0,0,0,90,false,stim,false,-1,1716.1000000238419,0,0,2,62338,task3,209205,false,false,126,image-keyboard-response,16
true,1,1,0,1,true,z,false,true,0.0-2.0-0.1-0.16-3.16,0,0,0,90,false,stim,false,-1,1779.699999988079,0,0,0,62338,task3,212505,false,false,129,image-keyboard-response,17
true,1,2,0,2,true,d,false,true,0.0-2.0-0.1-0.17-3.17,0,0,0,68,false,stim,false,-1,1211.199999988079,0,0,1,62338,task3,215249,false,false,132,image-keyboard-response,18
true,1,1,0,1,true,z,false,true,0.0-2.0-0.2-0.18-3.18,0,0,0,90,false,stim,false,-1,1159.199999988079,0,0,2,62338,task3,217931,false,false,135,image-keyboard-response,19
true,1,1,0,1,true,z,false,true,0.0-2.0-0.2-0.19-3.19,0,0,0,90,false,stim,false,-1,1482.5999999642372,0,0,0,62338,task3,220939,false,false,138,image-keyboard-response,20
true,1,2,0,2,true,d,false,true,0.0-2.0-0.2-0.20-3.20,0,0,0,68,false,stim,false,-1,1013.8000000119209,0,0,1,62338,task3,223469,false,false,141,image-keyboard-response,21
true,1,1,0,1,true,z,false,true,0.0-2.0-0.2-0.21-3.21,0,0,0,90,false,stim,false,-1,1160.5999999642372,0,0,0,62338,task3,226138,false,false,144,image-keyboard-response,22
true,1,2,0,2,true,d,false,true,0.0-2.0-0.2-0.22-3.22,0,0,0,68,false,stim,false,-1,1417.5,0,1,1,62338,task3,229072,false,false,147,image-keyboard-response,23
true,1,2,0,2,true,d,false,true,0.0-2.0-0.2-0.23-3.23,0,0,0,68,false,stim,false,-1,1646.0,0,1,1,62338,task3,232241,false,false,150,image-keyboard-response,24
true,1,1,0,1,true,z,false,true,0.0-2.0-0.2-0.24-3.24,0,0,0,90,false,stim,false,-1,947.3999999761581,0,0,2,62338,task3,234707,false,false,153,image-keyboard-response,25
true,1,1,0,1,true,z,false,true,0.0-2.0-0.2-0.25-3.25,0,0,0,90,false,stim,false,-1,1543.8999999761581,0,1,0,62338,task3,237775,false,false,156,image-keyboard-response,26
true,1,1,0,1,true,z,false,true,0.0-2.0-0.2-0.26-3.26,0,0,0,90,false,stim,false,-1,1212.199999988079,0,0,2,62338,task3,240512,false,false,159,image-keyboard-response,27
true,2,2,2,2,true,d,false,true,0.0-2.0-0.3-0.27-3.27,1,1,0,68,true,stim,false,2,1016.3000000119209,0,1,1,62338,task3,243060,false,false,162,image-keyboard-response,1
true,2,2,2,2,true,d,false,true,0.0-2.0-0.3-0.28-3.28,1,1,0,68,false,stim,false,2,922.1999999880791,0,1,1,62338,task3,245513,false,false,165,image-keyboard-response,2
true,2,1,2,1,true,z,false,true,0.0-2.0-0.3-0.29-3.29,1,1,0,90,false,stim,false,1,1112.300000011921,0,1,0,62338,task3,248144,false,false,168,image-keyboard-response,3
true,2,1,2,2,false,d,false,false,0.0-2.0-0.3-0.30-3.30,1,1,0,90,false,stim,true,1,1586.5,0,0,2,62338,task3,251262,false,false,171,image-keyboard-response,4
true,2,1,2,1,true,z,false,true,0.0-2.0-0.3-0.31-3.31,1,1,0,90,false,stim,false,1,2883.899999976158,0,1,0,62338,task3,255673,false,false,174,image-keyboard-response,5
true,2,1,2,1,true,z,false,true,0.0-2.0-0.3-0.32-3.32,1,1,0,90,false,stim,false,1,1534.199999988079,0,1,0,62338,task3,258735,false,false,177,image-keyboard-response,6
true,2,0,2,2,false,d,true,false,0.0-2.0-0.3-0.33-3.33,1,1,0,81,false,stim,false,1,2668.0,0,0,2,62338,task3,262927,false,false,180,image-keyboard-response,7
true,2,2,2,2,true,d,false,true,0.0-2.0-0.3-0.34-3.34,1,1,0,68,false,stim,false,2,1719.5,0,1,1,62338,task3,266173,false,false,183,image-keyboard-response,8
true,2,2,2,2,true,d,false,true,0.0-2.0-0.3-0.35-3.35,1,1,0,68,false,stim,false,1,1446.5999999642372,0,0,2,62338,task3,269135,false,false,186,image-keyboard-response,9
true,2,2,2,2,true,d,false,true,0.0-2.0-0.4-0.36-3.36,1,1,0,68,false,stim,false,2,1702.1000000238419,0,1,1,62338,task3,272355,false,false,189,image-keyboard-response,10
true,2,1,2,1,true,z,false,false,0.0-2.0-0.4-0.37-3.37,1,1,0,90,false,stim,false,1,570.6999999880791,0,1,0,62338,task3,274445,false,true,192,image-keyboard-response,11
true,2,0,2,1,false,z,true,false,0.0-2.0-0.4-0.38-3.38,1,1,0,81,false,stim,false,1,1431.5,0,1,0,62338,task3,277402,false,false,195,image-keyboard-response,12
true,2,2,2,2,true,d,false,true,0.0-2.0-0.4-0.39-3.39,1,1,0,68,false,stim,false,2,943.8999999761581,0,1,1,62338,task3,279869,false,false,198,image-keyboard-response,13
true,2,2,2,2,true,d,false,true,0.0-2.0-0.4-0.40-3.40,1,1,0,68,false,stim,false,1,805.9000000357628,0,0,2,62338,task3,282200,false,false,201,image-keyboard-response,14
true,2,2,2,2,true,d,false,true,0.0-2.0-0.4-0.41-3.41,1,1,0,68,false,stim,false,1,664.1999999880791,0,0,2,62338,task3,284392,false,false,204,image-keyboard-response,15
true,2,2,2,2,true,d,false,true,0.0-2.0-0.4-0.42-3.42,1,1,0,68,false,stim,false,2,801.1000000238419,0,1,1,62338,task3,286712,false,false,207,image-keyboard-response,16
true,2,2,2,1,false,z,true,false,0.0-2.0-0.4-0.43-3.43,1,1,0,68,false,stim,false,1,545.8000000119209,0,1,0,62338,task3,288778,false,false,210,image-keyboard-response,17
true,2,2,2,2,true,d,false,true,0.0-2.0-0.4-0.44-3.44,1,1,0,68,false,stim,false,1,1224.7000000476837,0,0,2,62338,task3,291530,false,false,213,image-keyboard-response,18
true,2,1,2,1,true,z,false,false,0.0-2.0-0.5-0.45-3.45,1,1,0,90,false,stim,false,1,1301.2999999523163,0,1,0,62338,task3,294346,false,true,216,image-keyboard-response,19
true,2,0,2,1,false,z,true,true,0.0-2.0-0.5-0.46-3.46,1,1,0,81,false,stim,false,1,688.9000000357628,0,1,0,62338,task3,296556,false,true,219,image-keyboard-response,20
true,2,2,2,2,true,d,false,true,0.0-2.0-0.5-0.47-3.47,1,1,0,68,false,stim,false,2,1167.7000000476837,0,1,1,62338,task3,299243,false,false,222,image-keyboard-response,21
true,2,0,2,1,false,z,true,true,0.0-2.0-0.5-0.48-3.48,1,1,0,81,false,stim,false,1,623.1999999880791,0,1,0,62338,task3,301392,false,true,225,image-keyboard-response,22
true,2,2,2,2,true,d,false,true,0.0-2.0-0.5-0.49-3.49,1,1,0,68,false,stim,false,1,890.6000000238419,0,0,2,62338,task3,303793,false,false,228,image-keyboard-response,23
true,2,2,2,2,true,d,false,true,0.0-2.0-0.5-0.50-3.50,1,1,0,68,false,stim,false,1,858.6999999880791,0,0,2,62338,task3,306178,false,false,231,image-keyboard-response,24
true,2,2,2,2,true,d,false,true,0.0-2.0-0.5-0.51-3.51,1,1,0,68,false,stim,false,2,925.8000000119209,0,1,1,62338,task3,308638,false,false,234,image-keyboard-response,25
true,2,2,2,2,true,d,false,true,0.0-2.0-0.5-0.52-3.52,1,1,0,68,false,stim,false,2,674.0999999642372,0,1,1,62338,task3,310821,false,false,237,image-keyboard-response,26
true,3,2,2,0,false,q,false,false,0.0-2.0-0.5-0.53-3.53,1,1,0,68,true,stim,true,2,1290.800000011921,0,0,2,62338,task3,313641,false,false,240,image-keyboard-response,1
true,3,1,2,0,false,q,true,false,0.0-2.0-0.6-0.54-3.54,1,1,0,90,false,stim,false,2,1479.0,0,0,2,62338,task3,316630,false,false,243,image-keyboard-response,2
true,3,0,2,0,true,q,false,true,0.0-2.0-0.6-0.55-3.55,1,1,0,81,false,stim,false,2,568.6999999880791,0,0,2,62338,task3,318714,false,false,246,image-keyboard-response,3
true,3,0,2,1,false,z,true,false,0.0-2.0-0.6-0.56-3.56,1,1,0,81,false,stim,false,1,717.3999999761581,0,1,0,62338,task3,320936,false,false,249,image-keyboard-response,4
true,3,2,2,1,false,z,true,false,0.0-2.0-0.6-0.57-3.57,1,1,0,68,false,stim,false,1,1167.800000011921,0,1,0,62338,task3,323628,false,false,252,image-keyboard-response,5
true,3,2,2,2,true,d,false,true,0.0-2.0-0.6-0.58-3.58,1,1,0,68,false,stim,false,2,1228.699999988079,0,1,1,62338,task3,326373,false,false,255,image-keyboard-response,6
true,3,1,2,1,true,z,false,true,0.0-2.0-0.6-0.59-3.59,1,1,0,90,false,stim,false,1,648.0999999642372,0,1,0,62338,task3,328533,false,false,258,image-keyboard-response,7
true,3,2,2,0,false,q,false,false,0.0-2.0-0.6-0.60-3.60,1,1,0,68,false,stim,true,2,1041.699999988079,0,0,2,62338,task3,331100,false,false,261,image-keyboard-response,8
true,3,2,2,2,true,d,false,true,0.0-2.0-0.6-0.61-3.61,1,1,0,68,false,stim,false,2,1492.199999988079,0,1,1,62338,task3,334122,false,false,264,image-keyboard-response,9
true,3,2,2,2,true,d,false,true,0.0-2.0-0.6-0.62-3.62,1,1,0,68,false,stim,false,2,2186.900000035763,0,1,1,62338,task3,337830,false,false,267,image-keyboard-response,10
true,3,0,2,0,true,q,false,false,0.0-2.0-0.7-0.63-3.63,1,1,0,81,false,stim,false,2,2110.899999976158,0,1,2,62338,task3,341469,false,true,270,image-keyboard-response,11
true,3,2,2,2,true,d,false,true,0.0-2.0-0.7-0.64-3.64,1,1,0,68,false,stim,false,2,1539.5999999642372,0,0,1,62338,task3,344534,false,false,273,image-keyboard-response,12
true,3,2,2,2,true,d,false,true,0.0-2.0-0.7-0.65-3.65,1,1,0,68,false,stim,false,2,849.8000000119209,0,0,1,62338,task3,346911,false,false,276,image-keyboard-response,13
true,3,2,2,2,true,d,false,false,0.0-2.0-0.7-0.66-3.66,1,1,0,68,false,stim,false,2,758.3000000119209,0,0,1,62338,task3,349203,false,true,279,image-keyboard-response,14
true,3,0,2,1,false,z,true,false,0.0-2.0-0.7-0.67-3.67,1,1,0,81,false,stim,false,1,1731.1000000238419,0,1,0,62338,task3,352455,false,false,282,image-keyboard-response,15
true,4,1,2,1,true,z,false,true,0.0-2.0-0.7-0.68-3.68,1,0,1,90,true,stim,false,1,1378.7999999523163,0,1,0,62338,task3,355359,false,false,285,image-keyboard-response,1
true,4,1,2,1,true,z,false,true,0.0-2.0-0.7-0.69-3.69,1,0,1,90,false,stim,false,1,668.5999999642372,0,1,0,62338,task3,357548,false,false,288,image-keyboard-response,2
true,4,0,2,0,true,q,false,false,0.0-2.0-0.7-0.70-3.70,1,0,1,81,false,stim,false,0,2519.300000011921,0,1,2,62338,task3,361581,false,true,291,image-keyboard-response,3
true,4,1,2,0,false,q,true,false,0.0-2.0-0.7-0.71-3.71,1,0,1,90,false,stim,false,0,1360.300000011921,0,1,2,62338,task3,364468,false,false,294,image-keyboard-response,4
true,4,1,2,1,true,z,false,true,0.0-2.0-0.8-0.72-3.72,1,0,1,90,false,stim,false,1,1224.0999999642372,0,1,0,62338,task3,367202,false,false,297,image-keyboard-response,5
true,4,0,2,1,false,z,true,false,0.0-2.0-0.8-0.73-3.73,1,0,1,81,false,stim,false,2,1817.8999999761581,0,0,1,62338,task3,370545,false,false,300,image-keyboard-response,6
true,4,2,2,0,false,q,true,false,0.0-2.0-0.8-0.74-3.74,1,0,1,68,false,stim,false,0,853.6000000238419,0,1,2,62338,task3,372920,false,false,303,image-keyboard-response,7
true,4,0,2,0,true,q,false,true,0.0-2.0-0.8-0.75-3.75,1,0,1,81,false,stim,false,0,2547.699999988079,0,1,2,62338,task3,376976,false,false,306,image-keyboard-response,8
false,4,-1,2,1,false,z,true,false,0.0-2.0-0.8-0.76-3.76,1,0,1,,false,stim,false,2,,0,1,1,62338,task3,381505,false,false,309,image-keyboard-response,9
true,4,2,2,0,false,q,true,true,0.0-2.0-0.8-0.77-3.77,1,0,1,68,false,stim,false,0,1175.6000000238419,0,1,2,62338,task3,384203,false,true,312,image-keyboard-response,10
true,4,0,2,1,false,z,true,false,0.0-2.0-0.8-0.78-3.78,1,0,1,81,false,stim,false,1,1145.300000011921,0,0,0,62338,task3,386875,false,false,315,image-keyboard-response,11
true,4,1,2,1,true,z,false,true,0.0-2.0-0.8-0.79-3.79,1,0,1,90,false,stim,false,1,669.8000000119209,0,0,0,62338,task3,389073,false,false,318,image-keyboard-response,12
true,5,0,2,1,false,z,true,false,0.0-2.0-0.8-0.80-3.80,0,1,1,81,true,stim,false,1,1626.8999999761581,0,1,1,62338,task3,392221,false,false,321,image-keyboard-response,1
true,5,2,2,0,false,q,true,false,0.0-2.0-0.9-0.81-3.81,0,1,1,68,false,stim,false,0,991.3999999761581,0,1,2,62338,task3,394743,false,false,324,image-keyboard-response,2
true,5,0,2,1,false,z,true,false,0.0-2.0-0.9-0.82-3.82,0,1,1,81,false,stim,false,1,2389.400000035763,0,1,1,62338,task3,398656,false,false,327,image-keyboard-response,3
true,5,1,2,1,true,z,false,false,0.0-2.0-0.9-0.83-3.83,0,1,1,90,false,stim,false,1,834.1999999880791,0,1,1,62338,task3,401023,false,true,330,image-keyboard-response,4
true,5,2,2,0,false,q,true,false,0.0-2.0-0.9-0.84-3.84,0,1,1,68,false,stim,false,0,556.5,0,1,2,62338,task3,403106,false,false,333,image-keyboard-response,5
true,5,2,2,0,false,q,true,false,0.0-2.0-0.9-0.85-3.85,0,1,1,68,false,stim,false,1,1824.0,0,0,0,62338,task3,406446,false,false,336,image-keyboard-response,6
true,5,1,2,0,false,q,false,false,0.0-2.0-0.9-0.86-3.86,0,1,1,90,false,stim,true,1,676.3999999761581,0,0,0,62338,task3,408636,false,false,339,image-keyboard-response,7
true,5,1,2,1,true,z,false,true,0.0-2.0-0.9-0.87-3.87,0,1,1,90,false,stim,false,1,2568.699999988079,0,0,1,62338,task3,412724,false,false,342,image-keyboard-response,8
true,5,2,2,0,false,q,true,false,0.0-2.0-0.9-0.88-3.88,0,1,1,68,false,stim,false,1,2436.600000023842,0,1,0,62338,task3,416681,false,false,345,image-keyboard-response,9
true,5,1,2,0,false,q,true,false,0.0-2.0-0.9-0.89-3.89,0,1,1,90,false,stim,false,0,2922.0,0,0,2,62338,task3,421118,false,false,348,image-keyboard-response,10
true,5,1,2,0,false,q,false,false,0.0-2.0-0.10-0.90-3.90,0,1,1,90,false,stim,true,1,2006.1000000238419,0,1,0,62338,task3,424646,false,false,351,image-keyboard-response,11
true,5,2,2,0,false,q,true,false,0.0-2.0-0.10-0.91-3.91,0,1,1,68,false,stim,false,0,1408.199999988079,0,0,2,62338,task3,427576,false,false,354,image-keyboard-response,12
true,6,0,1,2,false,d,true,true,0.0-2.0-0.10-0.92-3.92,1,0,0,81,true,stim,false,1,2749.599999964237,0,0,1,62338,task3,431844,false,true,357,image-keyboard-response,1
true,6,0,1,0,true,q,false,true,0.0-2.0-0.10-0.93-3.93,1,0,0,81,false,stim,false,0,1427.6000000238419,0,1,0,62338,task3,434793,false,false,360,image-keyboard-response,2
true,6,0,1,2,false,d,false,false,0.0-2.0-0.10-0.94-3.94,1,0,0,81,false,stim,true,0,1707.1000000238419,0,0,2,62338,task3,438034,false,false,363,image-keyboard-response,3
true,6,0,1,2,false,d,true,true,0.0-2.0-0.10-0.95-3.95,1,0,0,81,false,stim,false,1,581.3000000119209,0,0,1,62338,task3,440137,false,true,366,image-keyboard-response,4
true,6,0,1,0,true,q,false,false,0.0-2.0-0.10-0.96-3.96,1,0,0,81,false,stim,false,0,480.4000000357628,0,1,0,62338,task3,442142,false,true,369,image-keyboard-response,5
true,6,0,1,2,false,d,false,false,0.0-2.0-0.10-0.97-3.97,1,0,0,81,false,stim,true,0,1408.5,0,0,2,62338,task3,445083,false,false,372,image-keyboard-response,6
true,6,0,1,2,false,d,true,false,0.0-2.0-0.10-0.98-3.98,1,0,0,81,false,stim,false,1,665.8999999761581,0,0,1,62338,task3,447272,false,false,375,image-keyboard-response,7
true,6,1,1,0,false,q,true,true,0.0-2.0-0.11-0.99-3.99,1,0,0,90,false,stim,false,0,1830.300000011921,0,1,0,62338,task3,450629,false,true,378,image-keyboard-response,8
true,6,1,1,0,false,q,true,true,0.0-2.0-0.11-0.100-3.100,1,0,0,90,false,stim,false,0,900.7999999523163,0,1,0,62338,task3,453059,false,true,381,image-keyboard-response,9
true,6,1,1,2,false,d,true,true,0.0-2.0-0.11-0.101-3.101,1,0,0,90,false,stim,false,0,1337.800000011921,0,0,2,62338,task3,455918,false,true,384,image-keyboard-response,10
true,6,1,1,2,false,d,true,false,0.0-2.0-0.11-0.102-3.102,1,0,0,90,false,stim,false,0,469.80000001192093,0,0,2,62338,task3,457902,false,false,387,image-keyboard-response,11
true,6,1,1,2,false,d,false,false,0.0-2.0-0.11-0.103-3.103,1,0,0,90,false,stim,true,1,1720.1000000238419,0,0,1,62338,task3,461141,false,false,390,image-keyboard-response,12
true,6,2,1,2,true,d,false,true,0.0-2.0-0.11-0.104-3.104,1,0,0,68,false,stim,false,0,904.3000000119209,0,0,2,62338,task3,463565,false,false,393,image-keyboard-response,13
true,6,1,1,0,false,q,true,false,0.0-2.0-0.11-0.105-3.105,1,0,0,90,false,stim,false,0,909.0,0,1,0,62338,task3,465987,false,false,396,image-keyboard-response,14
true,6,2,1,2,true,d,false,true,0.0-2.0-0.11-0.106-3.106,1,0,0,68,false,stim,false,1,2227.800000011921,0,0,1,62338,task3,469741,false,false,399,image-keyboard-response,15
true,6,2,1,2,true,d,false,false,0.0-2.0-0.11-0.107-3.107,1,0,0,68,false,stim,false,1,814.4000000357628,0,0,1,62338,task3,472083,false,true,402,image-keyboard-response,16
true,6,2,1,2,true,d,false,true,0.0-2.0-0.12-0.108-3.108,1,0,0,68,false,stim,false,0,1456.199999988079,0,0,2,62338,task3,475057,false,false,405,image-keyboard-response,17
true,6,1,1,0,false,q,true,true,0.0-2.0-0.12-0.109-3.109,1,0,0,90,false,stim,false,0,1553.800000011921,0,1,0,62338,task3,478131,false,true,408,image-keyboard-response,18
true,6,0,1,2,false,d,true,false,0.0-2.0-0.12-0.110-3.110,1,0,0,81,false,stim,false,1,1276.6000000238419,0,0,1,62338,task3,480933,false,false,411,image-keyboard-response,19
true,6,2,1,2,true,d,false,true,0.0-2.0-0.12-0.111-3.111,1,0,0,68,false,stim,false,0,688.7000000476837,0,0,2,62338,task3,483150,false,false,414,image-keyboard-response,20
true,6,2,1,2,true,d,false,true,0.0-2.0-0.12-0.112-3.112,1,0,0,68,false,stim,false,0,837.0999999642372,0,0,2,62338,task3,485497,false,false,417,image-keyboard-response,21
true,6,1,1,0,false,q,true,false,0.0-2.0-0.12-0.113-3.113,1,0,0,90,false,stim,false,0,811.8999999761581,0,1,0,62338,task3,487823,false,false,420,image-keyboard-response,22
true,6,0,1,2,false,d,true,false,0.0-2.0-0.12-0.114-3.114,1,0,0,81,false,stim,false,1,2820.600000023842,0,1,1,62338,task3,492163,false,false,423,image-keyboard-response,23
true,6,0,1,0,true,q,false,true,0.0-2.0-0.12-0.115-3.115,1,0,0,81,false,stim,false,0,2020.0999999642372,0,1,0,62338,task3,495701,false,false,426,image-keyboard-response,24
true,7,2,2,2,true,d,false,true,0.0-2.0-0.12-0.116-3.116,1,1,0,68,true,stim,false,2,1591.199999988079,0,1,1,62338,task3,498814,false,false,429,image-keyboard-response,1
true,7,2,2,0,false,q,false,false,0.0-2.0-0.13-0.117-3.117,1,1,0,68,false,stim,true,2,1012.0,0,0,2,62338,task3,501348,false,false,432,image-keyboard-response,2
true,7,1,2,2,false,d,true,false,0.0-2.0-0.13-0.118-3.118,1,1,0,90,false,stim,false,2,1793.800000011921,0,1,1,62338,task3,504662,false,false,435,image-keyboard-response,3
true,7,2,2,0,false,q,false,false,0.0-2.0-0.13-0.119-3.119,1,1,0,68,false,stim,true,2,2059.300000011921,0,0,2,62338,task3,508237,false,false,438,image-keyboard-response,4
true,7,1,2,0,false,q,true,false,0.0-2.0-0.13-0.120-3.120,1,1,0,90,false,stim,false,2,961.5999999642372,0,0,2,62338,task3,510721,false,false,441,image-keyboard-response,5
true,7,0,2,0,true,q,false,true,0.0-2.0-0.13-0.121-3.121,1,1,0,81,false,stim,false,0,1925.800000011921,0,1,0,62338,task3,514166,false,false,444,image-keyboard-response,6
true,7,1,2,2,false,d,true,false,0.0-2.0-0.13-0.122-3.122,1,1,0,90,false,stim,false,2,1235.3999999761581,0,1,1,62338,task3,516921,false,false,447,image-keyboard-response,7
true,7,0,2,2,false,d,true,false,0.0-2.0-0.13-0.123-3.123,1,1,0,81,false,stim,false,2,1701.300000011921,0,1,1,62338,task3,520151,false,false,450,image-keyboard-response,8
true,7,0,2,0,true,q,false,true,0.0-2.0-0.13-0.124-3.124,1,1,0,81,false,stim,false,0,1588.699999988079,0,1,0,62338,task3,523264,false,false,453,image-keyboard-response,9
true,7,0,2,0,true,q,false,true,0.0-2.0-0.13-0.125-3.125,1,1,0,81,false,stim,false,0,1326.5999999642372,0,1,0,62338,task3,526121,false,false,456,image-keyboard-response,10
true,7,0,2,0,true,q,false,true,0.0-2.0-0.14-0.126-3.126,1,1,0,81,false,stim,false,2,1192.300000011921,0,1,2,62338,task3,528843,false,false,459,image-keyboard-response,11
true,7,0,2,0,true,q,false,true,0.0-2.0-0.14-0.127-3.127,1,1,0,81,false,stim,false,2,1167.4000000357628,0,1,2,62338,task3,531521,false,false,462,image-keyboard-response,12
true,7,2,2,2,true,d,false,true,0.0-2.0-0.14-0.128-3.128,1,1,0,68,false,stim,false,2,1431.800000011921,0,1,1,62338,task3,534478,false,false,465,image-keyboard-response,13
true,7,2,2,2,true,d,false,true,0.0-2.0-0.14-0.129-3.129,1,1,0,68,false,stim,false,2,831.9000000357628,0,1,1,62338,task3,536836,false,false,468,image-keyboard-response,14
true,7,0,2,0,true,q,false,false,0.0-2.0-0.14-0.130-3.130,1,1,0,81,false,stim,false,0,1198.5999999642372,0,0,0,62338,task3,539548,false,true,471,image-keyboard-response,15
true,8,0,2,0,true,q,false,false,0.0-2.0-0.14-0.131-3.131,0,1,1,81,true,stim,false,0,844.2999999523163,0,1,2,62338,task3,541924,false,true,474,image-keyboard-response,1
true,8,1,2,2,false,d,true,true,0.0-2.0-0.14-0.132-3.132,0,1,1,90,false,stim,false,0,2053.199999988079,0,0,0,62338,task3,545511,false,true,477,image-keyboard-response,2
true,8,2,2,2,true,d,false,true,0.0-2.0-0.14-0.133-3.133,0,1,1,68,false,stim,false,2,1169.8999999761581,0,1,1,62338,task3,548197,false,false,480,image-keyboard-response,3
true,8,1,2,2,false,d,true,true,0.0-2.0-0.14-0.134-3.134,0,1,1,90,false,stim,false,0,966.3000000119209,0,0,0,62338,task3,550680,false,true,483,image-keyboard-response,4
true,8,2,2,0,false,q,true,false,0.0-2.0-0.15-0.135-3.135,0,1,1,68,false,stim,false,0,445.9000000357628,0,1,2,62338,task3,552644,false,false,486,image-keyboard-response,5
true,8,0,2,0,true,q,false,false,0.0-2.0-0.15-0.136-3.136,0,1,1,81,false,stim,false,0,2294.900000035763,0,1,2,62338,task3,556452,false,true,489,image-keyboard-response,6
true,8,1,2,2,false,d,true,false,0.0-2.0-0.15-0.137-3.137,0,1,1,90,false,stim,false,2,2690.300000011921,0,1,1,62338,task3,560668,false,false,492,image-keyboard-response,7
true,8,1,2,2,false,d,true,false,0.0-2.0-0.15-0.138-3.138,0,1,1,90,false,stim,false,0,806.0,0,0,0,62338,task3,562989,false,false,495,image-keyboard-response,8
true,8,2,2,2,true,d,false,true,0.0-2.0-0.15-0.139-3.139,0,1,1,68,false,stim,false,2,1197.300000011921,0,1,1,62338,task3,565710,false,false,498,image-keyboard-response,9
true,8,2,2,2,true,d,false,true,0.0-2.0-0.15-0.140-3.140,0,1,1,68,false,stim,false,0,970.1999999880791,0,0,0,62338,task3,568213,false,false,501,image-keyboard-response,10
true,8,2,2,2,true,d,false,true,0.0-2.0-0.15-0.141-3.141,0,1,1,68,false,stim,false,2,450.39999997615814,0,1,1,62338,task3,570183,false,false,504,image-keyboard-response,11
true,8,2,2,2,true,d,false,true,0.0-2.0-0.15-0.142-3.142,0,1,1,68,false,stim,false,0,398.69999998807907,0,1,0,62338,task3,572105,false,false,507,image-keyboard-response,12
true,8,0,2,0,true,q,false,true,0.0-2.0-0.15-0.143-3.143,0,1,1,81,false,stim,false,0,1238.0,0,0,2,62338,task3,574863,false,false,510,image-keyboard-response,13
true,8,0,2,0,true,q,false,true,0.0-2.0-0.16-0.144-3.144,0,1,1,81,false,stim,false,0,525.0,0,0,2,62338,task3,576908,false,false,513,image-keyboard-response,14
true,8,2,2,2,true,d,false,true,0.0-2.0-0.16-0.145-3.145,0,1,1,68,false,stim,false,0,685.3000000119209,0,1,0,62338,task3,579126,false,false,516,image-keyboard-response,15
true,8,0,2,2,false,d,true,false,0.0-2.0-0.16-0.146-3.146,0,1,1,81,false,stim,false,2,1009.5,0,1,1,62338,task3,581666,false,false,519,image-keyboard-response,16
true,9,2,2,2,true,d,false,true,0.0-2.0-0.16-0.147-3.147,1,1,0,68,true,stim,false,2,765.1000000238419,0,1,1,62338,task3,583957,false,false,522,image-keyboard-response,1
true,9,0,2,2,false,d,true,false,0.0-2.0-0.16-0.148-3.148,1,1,0,81,false,stim,false,2,1507.3999999761581,0,1,0,62338,task3,586988,false,false,525,image-keyboard-response,2
true,9,1,2,2,false,d,true,false,0.0-2.0-0.16-0.149-3.149,1,1,0,90,false,stim,false,2,741.8999999761581,0,1,0,62338,task3,589262,false,false,528,image-keyboard-response,3
true,9,2,2,2,true,d,false,true,0.0-2.0-0.16-0.150-3.150,1,1,0,68,false,stim,false,2,1525.699999988079,0,1,1,62338,task3,592321,false,false,531,image-keyboard-response,4
false,9,-1,2,1,false,z,true,false,0.0-2.0-0.16-0.151-3.151,1,1,0,,false,stim,false,0,,0,0,2,62338,task3,596836,false,false,534,image-keyboard-response,5
true,9,2,2,1,false,z,true,false,0.0-2.0-0.16-0.152-3.152,1,1,0,68,false,stim,false,0,945.3000000119209,0,0,2,62338,task3,599298,false,false,537,image-keyboard-response,6
true,9,2,2,2,true,d,false,true,0.0-2.0-0.17-0.153-3.153,1,1,0,68,false,stim,false,2,1173.2999999523163,0,1,1,62338,task3,601987,false,false,540,image-keyboard-response,7
true,9,2,2,2,true,d,false,true,0.0-2.0-0.17-0.154-3.154,1,1,0,68,false,stim,false,2,745.5,0,1,0,62338,task3,604257,false,false,543,image-keyboard-response,8
true,9,2,2,2,true,d,false,true,0.0-2.0-0.17-0.155-3.155,1,1,0,68,false,stim,false,2,814.2999999523163,0,1,1,62338,task3,606591,false,false,546,image-keyboard-response,9
true,9,2,2,2,true,d,false,true,0.0-2.0-0.17-0.156-3.156,1,1,0,68,false,stim,false,2,472.0,0,1,0,62338,task3,608584,false,false,549,image-keyboard-response,10
true,9,2,2,2,true,d,false,true,0.0-2.0-0.17-0.157-3.157,1,1,0,68,false,stim,false,2,1201.8999999761581,0,1,0,62338,task3,611311,false,false,552,image-keyboard-response,11
true,9,1,2,1,true,z,false,true,0.0-2.0-0.17-0.158-3.158,1,1,0,90,false,stim,false,0,1396.199999988079,0,0,2,62338,task3,614236,false,false,555,image-keyboard-response,12
true,9,1,2,1,true,z,false,true,0.0-2.0-0.17-0.159-3.159,1,1,0,90,false,stim,false,0,483.0,0,0,2,62338,task3,616241,false,false,558,image-keyboard-response,13
true,9,2,2,2,true,d,false,true,0.0-2.0-0.17-0.160-3.160,1,1,0,68,false,stim,false,2,790.6999999880791,0,1,1,62338,task3,618560,false,false,561,image-keyboard-response,14
true,9,1,2,1,true,z,false,true,0.0-2.0-0.17-0.161-3.161,1,1,0,90,false,stim,false,0,1232.0,0,0,2,62338,task3,621320,false,false,564,image-keyboard-response,15
true,9,2,2,2,true,d,false,true,0.0-2.0-0.18-0.162-3.162,1,1,0,68,false,stim,false,2,1357.699999988079,0,1,1,62338,task3,624203,false,false,567,image-keyboard-response,16
true,9,1,2,1,true,z,false,true,0.0-2.0-0.18-0.163-3.163,1,1,0,90,false,stim,false,0,1007.0,0,0,2,62338,task3,626736,false,false,570,image-keyboard-response,17
true,9,2,2,2,true,d,false,true,0.0-2.0-0.18-0.164-3.164,1,1,0,68,false,stim,false,2,2073.199999988079,0,1,0,62338,task3,630329,false,false,573,image-keyboard-response,18
true,9,2,2,2,true,d,false,true,0.0-2.0-0.18-0.165-3.165,1,1,0,68,false,stim,false,2,1145.4000000357628,0,1,1,62338,task3,632997,false,false,576,image-keyboard-response,19
true,9,1,2,2,false,d,true,false,0.0-2.0-0.18-0.166-3.166,1,1,0,90,false,stim,false,2,525.1000000238419,0,1,0,62338,task3,635038,false,false,579,image-keyboard-response,20
true,9,2,2,1,false,z,true,false,0.0-2.0-0.18-0.167-3.167,1,1,0,68,false,stim,false,0,879.8999999761581,0,0,2,62338,task3,637442,false,false,582,image-keyboard-response,21
true,9,1,2,1,true,z,false,true,0.0-2.0-0.18-0.168-3.168,1,1,0,90,false,stim,false,0,1254.2000000476837,0,0,2,62338,task3,640209,false,false,585,image-keyboard-response,22
true,9,2,2,2,true,d,false,true,0.0-2.0-0.18-0.169-3.169,1,1,0,68,false,stim,false,2,861.4000000357628,0,0,1,62338,task3,642585,false,false,588,image-keyboard-response,23
true,9,0,2,2,false,d,true,false,0.0-2.0-0.18-0.170-3.170,1,1,0,81,false,stim,false,2,975.3999999761581,0,1,0,62338,task3,645089,false,false,591,image-keyboard-response,24
true,9,2,2,2,true,d,false,true,0.0-2.0-0.19-0.171-3.171,1,1,0,68,false,stim,false,2,891.1000000238419,0,0,1,62338,task3,647509,false,false,594,image-keyboard-response,25
true,10,1,1,0,false,q,false,false,0.0-2.0-0.19-0.172-3.172,1,0,0,90,true,stim,true,1,842.0,0,0,2,62338,task3,649862,false,false,597,image-keyboard-response,1
true,10,2,1,0,false,q,true,false,0.0-2.0-0.19-0.173-3.173,1,0,0,68,false,stim,false,1,1337.5999999642372,0,0,2,62338,task3,652711,false,false,600,image-keyboard-response,2
true,10,0,1,0,true,q,false,true,0.0-2.0-0.19-0.174-3.174,1,0,0,81,false,stim,false,1,602.0,0,0,2,62338,task3,654825,false,false,603,image-keyboard-response,3
true,10,1,1,2,false,d,true,false,0.0-2.0-0.19-0.175-3.175,1,0,0,90,false,stim,false,2,1774.300000011921,0,1,0,62338,task3,658126,false,false,606,image-keyboard-response,4
true,10,0,1,2,false,d,true,false,0.0-2.0-0.19-0.176-3.176,1,0,0,81,false,stim,false,2,1686.699999988079,0,1,0,62338,task3,661334,false,false,609,image-keyboard-response,5
true,10,2,1,2,true,d,false,true,0.0-2.0-0.19-0.177-3.177,1,0,0,68,false,stim,false,2,451.19999998807907,0,1,0,62338,task3,663298,false,false,612,image-keyboard-response,6
true,10,2,1,1,false,z,false,false,0.0-2.0-0.19-0.178-3.178,1,0,0,68,false,stim,true,2,1145.0,0,0,1,62338,task3,665965,false,false,615,image-keyboard-response,7
false,10,-1,1,1,false,z,true,false,0.0-2.0-0.19-0.179-3.179,1,0,0,,false,stim,false,2,,0,0,1,62338,task3,670488,false,false,618,image-keyboard-response,8
true,10,1,1,0,false,q,false,false,0.0-2.0-0.20-0.180-3.180,1,0,0,90,false,stim,true,1,1922.800000011921,0,0,2,62338,task3,673938,false,false,621,image-keyboard-response,9
true,10,0,1,1,false,z,true,false,0.0-2.0-0.20-0.181-3.181,1,0,0,81,false,stim,false,2,499.9000000357628,0,0,1,62338,task3,675960,false,false,624,image-keyboard-response,10
true,10,0,1,0,true,q,false,true,0.0-2.0-0.20-0.182-3.182,1,0,0,81,false,stim,false,1,1150.8999999761581,0,0,2,62338,task3,678622,false,false,627,image-keyboard-response,11
true,10,1,1,2,false,d,true,false,0.0-2.0-0.20-0.183-3.183,1,0,0,90,false,stim,false,2,2291.900000035763,0,1,0,62338,task3,682426,false,false,630,image-keyboard-response,12
true,10,0,1,2,false,d,true,false,0.0-2.0-0.20-0.184-3.184,1,0,0,81,false,stim,false,2,997.1000000238419,0,1,0,62338,task3,684942,false,false,633,image-keyboard-response,13
true,10,0,1,0,true,q,false,true,0.0-2.0-0.20-0.185-3.185,1,0,0,81,false,stim,false,1,942.7999999523163,0,0,2,62338,task3,687410,false,false,636,image-keyboard-response,14
true,10,2,1,1,false,z,false,false,0.0-2.0-0.20-0.186-3.186,1,0,0,68,false,stim,true,2,2798.0,0,0,1,62338,task3,691741,false,false,639,image-keyboard-response,15
true,10,2,1,2,true,d,false,true,0.0-2.0-0.20-0.187-3.187,1,0,0,68,false,stim,false,2,2124.899999976158,0,1,0,62338,task3,695386,false,false,642,image-keyboard-response,16
true,10,0,1,1,false,z,true,false,0.0-2.0-0.20-0.188-3.188,1,0,0,81,false,stim,false,2,726.0,0,0,1,62338,task3,697632,false,false,645,image-keyboard-response,17
true,10,2,1,2,true,d,false,true,0.0-2.0-0.21-0.189-3.189,1,0,0,68,false,stim,false,2,1426.0,0,1,0,62338,task3,700577,false,false,648,image-keyboard-response,18
true,10,1,1,1,true,z,false,true,0.0-2.0-0.21-0.190-3.190,1,0,0,90,false,stim,false,2,1163.0,0,0,1,62338,task3,703262,false,false,651,image-keyboard-response,19
true,10,1,1,0,false,q,false,false,0.0-2.0-0.21-0.191-3.191,1,0,0,90,false,stim,true,1,1086.0,0,0,2,62338,task3,705866,false,false,654,image-keyboard-response,20
true,10,2,1,0,false,q,true,false,0.0-2.0-0.21-0.192-3.192,1,0,0,68,false,stim,false,1,798.0,0,0,2,62338,task3,708184,false,false,657,image-keyboard-response,21
true,10,1,1,1,true,z,false,true,0.0-2.0-0.21-0.193-3.193,1,0,0,90,false,stim,false,2,1826.1000000238419,0,0,1,62338,task3,711538,false,false,660,image-keyboard-response,22
true,10,2,1,2,true,d,false,true,0.0-2.0-0.21-0.194-3.194,1,0,0,68,false,stim,false,2,1106.300000011921,0,1,0,62338,task3,714172,false,false,663,image-keyboard-response,23
true,10,2,1,2,true,d,false,true,0.0-2.0-0.21-0.195-3.195,1,0,0,68,false,stim,false,2,764.1000000238419,0,1,0,62338,task3,716466,false,false,666,image-keyboard-response,24
true,10,1,1,1,true,z,false,true,0.0-2.0-0.21-0.196-3.196,1,0,0,90,false,stim,false,2,531.8000000119209,0,0,1,62338,task3,718526,false,false,669,image-keyboard-response,25
true,10,0,1,0,true,q,false,true,0.0-2.0-0.21-0.197-3.197,1,0,0,81,false,stim,false,1,1381.2000000476837,0,1,2,62338,task3,721433,false,false,672,image-keyboard-response,26
true,10,1,1,1,true,z,false,true,0.0-2.0-0.22-0.198-3.198,1,0,0,90,false,stim,false,2,2734.600000023842,0,0,1,62338,task3,725691,false,false,675,image-keyboard-response,27
true,10,1,1,1,true,z,false,true,0.0-2.0-0.22-0.199-3.199,1,0,0,90,false,stim,false,2,802.0999999642372,0,0,1,62338,task3,728008,false,false,678,image-keyboard-response,28
true,10,0,1,0,true,q,false,true,0.0-2.0-0.22-0.200-3.200,1,0,0,81,false,stim,false,1,1909.3999999761581,0,1,2,62338,task3,731437,false,false,681,image-keyboard-response,29
true,11,0,2,0,true,q,false,true,0.0-2.0-0.22-0.201-3.201,1,0,1,81,true,stim,false,0,759.1000000238419,0,1,2,62338,task3,733716,false,false,684,image-keyboard-response,1
true,11,2,2,2,true,d,false,true,0.0-2.0-0.22-0.202-3.202,1,0,1,68,false,stim,false,2,800.3000000119209,0,1,0,62338,task3,736048,false,false,687,image-keyboard-response,2
true,11,2,2,2,true,d,false,true,0.0-2.0-0.22-0.203-3.203,1,0,1,68,false,stim,false,2,774.5,0,1,0,62338,task3,738343,false,false,690,image-keyboard-response,3
true,11,0,2,0,true,q,false,true,0.0-2.0-0.22-0.204-3.204,1,0,1,81,false,stim,false,1,1774.1000000238419,0,0,1,62338,task3,741644,false,false,693,image-keyboard-response,4
true,11,2,2,2,true,d,false,true,0.0-2.0-0.22-0.205-3.205,1,0,1,68,false,stim,false,2,1420.9000000357628,0,1,0,62338,task3,744586,false,false,696,image-keyboard-response,5
true,11,1,2,0,false,q,true,false,0.0-2.0-0.22-0.206-3.206,1,0,1,90,false,stim,false,0,974.5999999642372,0,1,2,62338,task3,747089,false,false,699,image-keyboard-response,6
true,11,0,2,0,true,q,false,true,0.0-2.0-0.23-0.207-3.207,1,0,1,81,false,stim,false,1,1699.199999988079,0,0,1,62338,task3,750315,false,false,702,image-keyboard-response,7
true,11,0,2,0,true,q,false,true,0.0-2.0-0.23-0.208-3.208,1,0,1,81,false,stim,false,0,2363.899999976158,0,1,2,62338,task3,754212,false,false,705,image-keyboard-response,8
true,11,0,2,0,true,q,false,true,0.0-2.0-0.23-0.209-3.209,1,0,1,81,false,stim,false,1,1154.300000011921,0,0,1,62338,task3,756875,false,false,708,image-keyboard-response,9
true,11,0,2,0,true,q,false,true,0.0-2.0-0.23-0.210-3.210,1,0,1,81,false,stim,false,1,784.0,0,0,1,62338,task3,759178,false,false,711,image-keyboard-response,10
true,11,0,2,0,true,q,false,true,0.0-2.0-0.23-0.211-3.211,1,0,1,81,false,stim,false,0,1227.6000000238419,0,1,2,62338,task3,761926,false,false,714,image-keyboard-response,11
true,11,2,2,2,true,d,false,true,0.0-2.0-0.23-0.212-3.212,1,0,1,68,false,stim,false,2,2120.699999988079,0,1,0,62338,task3,765563,false,false,717,image-keyboard-response,12
true,11,2,2,2,true,d,false,true,0.0-2.0-0.23-0.213-3.213,1,0,1,68,false,stim,false,2,854.5,0,1,0,62338,task3,767932,false,false,720,image-keyboard-response,13
true,11,0,2,0,true,q,false,true,0.0-2.0-0.23-0.214-3.214,1,0,1,81,false,stim,false,0,951.0999999642372,0,0,2,62338,task3,770390,false,false,723,image-keyboard-response,14
true,11,2,2,2,true,d,false,true,0.0-2.0-0.23-0.215-3.215,1,0,1,68,false,stim,false,2,1122.6000000238419,0,1,0,62338,task3,773032,false,false,726,image-keyboard-response,15
true,11,0,2,0,true,q,false,true,0.0-2.0-0.24-0.216-3.216,1,0,1,81,false,stim,false,0,857.8000000119209,0,0,2,62338,task3,775410,false,false,729,image-keyboard-response,16
true,12,0,2,0,true,q,false,true,0.0-2.0-0.24-0.217-3.217,1,1,0,81,true,stim,false,0,1520.5,0,1,1,62338,task3,778452,false,false,732,image-keyboard-response,1
true,12,0,2,2,false,d,false,false,0.0-2.0-0.24-0.218-3.218,1,1,0,81,false,stim,true,0,1781.300000011921,0,0,2,62338,task3,781744,false,false,735,image-keyboard-response,2
true,12,1,2,2,false,d,true,true,0.0-2.0-0.24-0.219-3.219,1,1,0,90,false,stim,false,0,1699.7000000476837,0,0,2,62338,task3,784975,false,true,738,image-keyboard-response,3
true,12,0,2,0,true,q,false,false,0.0-2.0-0.24-0.220-3.220,1,1,0,81,false,stim,false,0,1246.300000011921,0,1,1,62338,task3,787751,false,true,741,image-keyboard-response,4
true,12,1,2,0,false,q,true,false,0.0-2.0-0.24-0.221-3.221,1,1,0,90,false,stim,false,0,1302.5,0,1,1,62338,task3,790584,false,false,744,image-keyboard-response,5
true,12,2,2,2,true,d,false,true,0.0-2.0-0.24-0.222-3.222,1,1,0,68,false,stim,false,2,2286.199999988079,0,1,0,62338,task3,794392,false,false,747,image-keyboard-response,6
true,12,2,2,2,true,d,false,true,0.0-2.0-0.24-0.223-3.223,1,1,0,68,false,stim,false,2,920.5,0,1,0,62338,task3,796831,false,false,750,image-keyboard-response,7
true,12,2,2,2,true,d,false,false,0.0-2.0-0.24-0.224-3.224,1,1,0,68,false,stim,false,2,731.0,0,1,0,62338,task3,799091,false,true,753,image-keyboard-response,8
true,12,2,2,0,false,q,true,false,0.0-2.0-0.25-0.225-3.225,1,1,0,68,false,stim,false,0,724.8000000119209,0,1,1,62338,task3,801343,false,false,756,image-keyboard-response,9
true,12,1,2,2,false,d,true,true,0.0-2.0-0.25-0.226-3.226,1,1,0,90,false,stim,false,0,2368.199999988079,0,0,2,62338,task3,805232,false,true,759,image-keyboard-response,10
true,12,1,2,2,false,d,true,false,0.0-2.0-0.25-0.227-3.227,1,1,0,90,false,stim,false,0,631.1999999880791,0,0,2,62338,task3,807388,false,false,762,image-keyboard-response,11
true,12,1,2,2,false,d,true,false,0.0-2.0-0.25-0.228-3.228,1,1,0,90,false,stim,false,2,2094.600000023842,0,1,0,62338,task3,811008,false,false,765,image-keyboard-response,12
true,12,0,2,2,false,d,true,false,0.0-2.0-0.25-0.229-3.229,1,1,0,81,false,stim,false,2,482.5,0,1,0,62338,task3,813013,false,false,768,image-keyboard-response,13
true,12,0,2,0,true,q,false,true,0.0-2.0-0.25-0.230-3.230,1,1,0,81,false,stim,false,0,1528.7000000476837,0,1,1,62338,task3,816054,false,false,771,image-keyboard-response,14
true,12,2,2,2,true,d,false,true,0.0-2.0-0.25-0.231-3.231,1,1,0,68,false,stim,false,2,596.5,0,1,0,62338,task3,818184,false,false,774,image-keyboard-response,15
true,12,2,2,2,true,d,false,true,0.0-2.0-0.25-0.232-3.232,1,1,0,68,false,stim,false,0,1905.6000000238419,0,0,2,62338,task3,821624,false,false,777,image-keyboard-response,16
true,12,0,2,0,true,q,false,false,0.0-2.0-0.25-0.233-3.233,1,1,0,81,false,stim,false,0,917.8999999761581,0,1,1,62338,task3,824053,false,true,780,image-keyboard-response,17
true,12,2,2,0,false,q,true,true,0.0-2.0-0.26-0.234-3.234,1,1,0,68,false,stim,false,0,884.0999999642372,0,1,1,62338,task3,826460,false,true,783,image-keyboard-response,18
true,12,0,2,2,false,d,true,true,0.0-2.0-0.26-0.235-3.235,1,1,0,81,false,stim,false,2,1218.7000000476837,0,1,0,62338,task3,829190,false,true,786,image-keyboard-response,19
true,12,2,2,2,true,d,false,true,0.0-2.0-0.26-0.236-3.236,1,1,0,68,false,stim,false,0,1327.6000000238419,0,0,2,62338,task3,832046,false,false,789,image-keyboard-response,20
true,12,2,2,0,false,q,true,false,0.0-2.0-0.26-0.237-3.237,1,1,0,68,false,stim,false,0,1451.4000000357628,0,1,1,62338,task3,835017,false,false,792,image-keyboard-response,21
true,12,0,2,2,false,d,false,true,0.0-2.0-0.26-0.238-3.238,1,1,0,81,false,stim,true,0,1634.699999988079,0,0,2,62338,task3,838177,false,true,795,image-keyboard-response,22
true,12,0,2,2,false,d,false,false,0.0-2.0-0.26-0.239-3.239,1,1,0,81,false,stim,true,0,535.0,0,0,2,62338,task3,840231,false,false,798,image-keyboard-response,23
true,12,0,2,0,true,q,false,true,0.0-2.0-0.26-0.240-3.240,1,1,0,81,false,stim,false,0,2367.400000035763,0,1,1,62338,task3,844125,false,false,801,image-keyboard-response,24
true,12,2,2,2,true,d,false,true,0.0-2.0-0.26-0.241-3.241,1,1,0,68,false,stim,false,2,751.3000000119209,0,0,0,62338,task3,846400,false,false,804,image-keyboard-response,25
true,12,2,2,2,true,d,false,true,0.0-2.0-0.26-0.242-3.242,1,1,0,68,false,stim,false,2,1424.699999988079,0,0,0,62338,task3,849340,false,false,807,image-keyboard-response,26
true,13,2,1,0,false,q,true,false,0.0-2.0-0.27-0.243-3.243,0,1,0,68,true,stim,false,0,1683.699999988079,0,1,1,62338,task3,852543,false,false,810,image-keyboard-response,1
true,13,2,1,1,false,z,false,false,0.0-2.0-0.27-0.244-3.244,0,1,0,68,false,stim,true,2,989.1000000238419,0,0,0,62338,task3,855053,false,false,813,image-keyboard-response,2
true,13,0,1,0,true,q,false,true,0.0-2.0-0.27-0.245-3.245,0,1,0,81,false,stim,false,0,1228.6000000238419,0,1,1,62338,task3,857804,false,false,816,image-keyboard-response,3
true,13,0,1,0,true,q,false,true,0.0-2.0-0.27-0.246-3.246,0,1,0,81,false,stim,false,2,1562.199999988079,0,0,2,62338,task3,860881,false,false,819,image-keyboard-response,4
true,13,0,1,0,true,q,false,true,0.0-2.0-0.27-0.247-3.247,0,1,0,81,false,stim,false,0,923.5,0,1,1,62338,task3,863331,false,false,822,image-keyboard-response,5
true,13,1,1,1,true,z,false,true,0.0-2.0-0.27-0.248-3.248,0,1,0,90,false,stim,false,2,1322.7000000476837,0,0,0,62338,task3,866178,false,false,825,image-keyboard-response,6
true,13,1,1,1,true,z,false,true,0.0-2.0-0.27-0.249-3.249,0,1,0,90,false,stim,false,2,604.6999999880791,0,0,0,62338,task3,868300,false,false,828,image-keyboard-response,7
true,13,0,1,0,true,q,false,true,0.0-2.0-0.27-0.250-3.250,0,1,0,81,false,stim,false,2,1511.4000000357628,0,0,2,62338,task3,871329,false,false,831,image-keyboard-response,8
true,13,0,1,0,true,q,false,true,0.0-2.0-0.27-0.251-3.251,0,1,0,81,false,stim,false,2,797.5999999642372,0,0,2,62338,task3,873653,false,false,834,image-keyboard-response,9
true,13,0,1,0,true,q,false,true,0.0-2.0-0.28-0.252-3.252,0,1,0,81,false,stim,false,2,781.2000000476837,0,0,2,62338,task3,875960,false,false,837,image-keyboard-response,10
true,13,1,1,1,true,z,false,true,0.0-2.0-0.28-0.253-3.253,0,1,0,90,false,stim,false,2,1162.1000000238419,0,0,0,62338,task3,878651,false,false,840,image-keyboard-response,11
true,13,1,1,1,true,z,false,true,0.0-2.0-0.28-0.254-3.254,0,1,0,90,false,stim,false,2,721.0,0,0,0,62338,task3,880893,false,false,843,image-keyboard-response,12
true,13,1,1,1,true,z,false,true,0.0-2.0-0.28-0.255-3.255,0,1,0,90,false,stim,false,2,697.8000000119209,0,0,0,62338,task3,883111,false,false,846,image-keyboard-response,13
true,13,0,1,0,true,q,false,true,0.0-2.0-0.28-0.256-3.256,0,1,0,81,false,stim,false,0,1128.699999988079,0,1,1,62338,task3,885770,false,false,849,image-keyboard-response,14
true,13,0,1,0,true,q,false,true,0.0-2.0-0.28-0.257-3.257,0,1,0,81,false,stim,false,0,762.5999999642372,0,1,1,62338,task3,888051,false,false,852,image-keyboard-response,15
true,13,0,1,0,true,q,false,true,0.0-2.0-0.28-0.258-3.258,0,1,0,81,false,stim,false,0,845.0,0,1,1,62338,task3,890426,false,false,855,image-keyboard-response,16
true,13,2,1,0,false,q,false,false,0.0-2.0-0.28-0.259-3.259,0,1,0,68,false,stim,true,2,2757.899999976158,0,0,2,62338,task3,894712,false,false,858,image-keyboard-response,17
true,13,0,1,0,true,q,false,true,0.0-2.0-0.28-0.260-3.260,0,1,0,81,false,stim,false,2,1108.8999999761581,0,0,2,62338,task3,897348,false,false,861,image-keyboard-response,18
true,13,0,1,0,true,q,false,true,0.0-2.0-0.29-0.261-3.261,0,1,0,81,false,stim,false,2,648.5999999642372,0,0,2,62338,task3,899515,false,false,864,image-keyboard-response,19
true,13,0,1,0,true,q,false,true,0.0-2.0-0.29-0.262-3.262,0,1,0,81,false,stim,false,2,747.5,0,0,2,62338,task3,901769,false,false,867,image-keyboard-response,20
false,13,-1,1,0,false,q,true,false,0.0-2.0-0.29-0.263-3.263,0,1,0,,false,stim,false,0,,0,1,1,62338,task3,906306,false,false,870,image-keyboard-response,21
true,13,2,1,1,false,z,false,false,0.0-2.0-0.29-0.264-3.264,0,1,0,68,false,stim,true,2,1453.199999988079,0,1,0,62338,task3,909283,false,false,873,image-keyboard-response,22
true,13,1,1,1,true,z,false,true,0.0-2.0-0.29-0.265-3.265,0,1,0,90,false,stim,false,2,724.2999999523163,0,1,0,62338,task3,911540,false,false,876,image-keyboard-response,23
true,13,0,1,0,true,q,false,true,0.0-2.0-0.29-0.266-3.266,0,1,0,81,false,stim,false,0,822.0999999642372,0,0,1,62338,task3,913884,false,false,879,image-keyboard-response,24
true,13,0,1,0,true,q,false,true,0.0-2.0-0.29-0.267-3.267,0,1,0,81,false,stim,false,2,1242.199999988079,0,0,2,62338,task3,916641,false,false,882,image-keyboard-response,25
true,13,0,1,0,true,q,false,false,0.0-2.0-0.29-0.268-3.268,0,1,0,81,false,stim,false,0,706.0,0,0,1,62338,task3,918868,false,true,885,image-keyboard-response,26
true,14,1,1,1,true,z,false,true,0.0-2.0-0.29-0.269-3.269,1,0,0,90,true,stim,false,1,494.30000001192093,0,1,0,62338,task3,920884,false,false,888,image-keyboard-response,1
false,14,-1,1,2,false,d,true,false,0.0-2.0-0.30-0.270-3.270,1,0,0,,false,stim,false,0,,0,0,2,62338,task3,925404,false,false,891,image-keyboard-response,2
true,14,0,1,1,false,z,true,false,0.0-2.0-0.30-0.271-3.271,1,0,0,81,false,stim,false,1,1337.199999988079,0,1,0,62338,task3,928256,false,false,894,image-keyboard-response,3
true,14,0,1,2,false,d,false,false,0.0-2.0-0.30-0.272-3.272,1,0,0,81,false,stim,true,0,858.6999999880791,0,0,2,62338,task3,930627,false,false,897,image-keyboard-response,4
true,14,1,1,1,true,z,false,true,0.0-2.0-0.30-0.273-3.273,1,0,0,90,false,stim,false,1,1095.2999999523163,0,1,0,62338,task3,933251,false,false,900,image-keyboard-response,5
true,14,2,1,1,false,z,true,false,0.0-2.0-0.30-0.274-3.274,1,0,0,68,false,stim,false,0,1455.5,0,0,1,62338,task3,936239,false,false,903,image-keyboard-response,6
true,14,1,1,1,true,z,false,true,0.0-2.0-0.30-0.275-3.275,1,0,0,90,false,stim,false,1,714.7999999523163,0,1,0,62338,task3,938487,false,false,906,image-keyboard-response,7
true,14,0,1,1,false,z,false,false,0.0-2.0-0.30-0.276-3.276,1,0,0,81,false,stim,true,0,935.5,0,0,1,62338,task3,940943,false,false,909,image-keyboard-response,8
true,14,1,1,2,false,d,true,false,0.0-2.0-0.30-0.277-3.277,1,0,0,90,false,stim,false,0,968.0,0,0,2,62338,task3,943427,false,false,912,image-keyboard-response,9
true,14,1,1,1,true,z,false,true,0.0-2.0-0.30-0.278-3.278,1,0,0,90,false,stim,false,0,579.5999999642372,0,0,1,62338,task3,945534,false,false,915,image-keyboard-response,10
true,14,0,1,2,false,d,false,false,0.0-2.0-0.31-0.279-3.279,1,0,0,81,false,stim,true,0,817.5,0,1,2,62338,task3,947870,false,false,918,image-keyboard-response,11
true,14,1,1,1,true,z,false,true,0.0-2.0-0.31-0.280-3.280,1,0,0,90,false,stim,false,0,447.80000001192093,0,1,1,62338,task3,949832,false,false,921,image-keyboard-response,12
true,14,1,1,1,true,z,false,true,0.0-2.0-0.31-0.281-3.281,1,0,0,90,false,stim,false,1,641.3999999761581,0,0,0,62338,task3,951994,false,false,924,image-keyboard-response,13
true,14,1,1,1,true,z,false,true,0.0-2.0-0.31-0.282-3.282,1,0,0,90,false,stim,false,1,386.80000001192093,0,0,0,62338,task3,953901,false,false,927,image-keyboard-response,14
true,14,1,1,1,true,z,false,false,0.0-2.0-0.31-0.283-3.283,1,0,0,90,false,stim,false,0,679.6999999880791,0,1,1,62338,task3,956092,false,true,930,image-keyboard-response,15
true,15,0,2,1,false,z,true,false,0.0-2.0-0.31-0.284-3.284,0,1,1,81,true,stim,false,1,763.9000000357628,0,1,1,62338,task3,958374,false,false,933,image-keyboard-response,1
true,15,1,2,0,false,q,false,false,0.0-2.0-0.31-0.285-3.285,0,1,1,90,false,stim,true,1,558.8999999761581,0,0,0,62338,task3,960456,false,false,936,image-keyboard-response,2
true,15,2,2,2,true,d,false,true,0.0-2.0-0.31-0.286-3.286,0,1,1,68,false,stim,false,2,2175.300000011921,0,1,2,62338,task3,964158,false,false,939,image-keyboard-response,3
true,15,2,2,2,true,d,false,false,0.0-2.0-0.31-0.287-3.287,0,1,1,68,false,stim,false,2,862.8999999761581,0,1,2,62338,task3,966554,false,true,942,image-keyboard-response,4
true,15,1,2,2,false,d,true,false,0.0-2.0-0.32-0.288-3.288,0,1,1,90,false,stim,false,2,1362.5999999642372,0,1,2,62338,task3,969439,false,false,945,image-keyboard-response,5
true,15,0,2,2,false,d,true,false,0.0-2.0-0.32-0.289-3.289,0,1,1,81,false,stim,false,2,538.3999999761581,0,1,2,62338,task3,971497,false,false,948,image-keyboard-response,6
true,15,2,2,0,false,q,true,false,0.0-2.0-0.32-0.290-3.290,0,1,1,68,false,stim,false,1,1370.699999988079,0,0,0,62338,task3,974387,false,false,951,image-keyboard-response,7
true,15,0,2,1,false,z,true,false,0.0-2.0-0.32-0.291-3.291,0,1,1,81,false,stim,false,1,1895.1000000238419,0,0,1,62338,task3,977809,false,false,954,image-keyboard-response,8
true,15,1,2,1,true,z,false,true,0.0-2.0-0.32-0.292-3.292,0,1,1,90,false,stim,false,1,737.3999999761581,0,0,1,62338,task3,980067,false,false,957,image-keyboard-response,9
true,15,1,2,1,true,z,false,true,0.0-2.0-0.32-0.293-3.293,0,1,1,90,false,stim,false,1,439.19999998807907,0,0,1,62338,task3,982032,false,false,960,image-keyboard-response,10
true,15,2,2,0,false,q,true,false,0.0-2.0-0.32-0.294-3.294,0,1,1,68,false,stim,false,1,2454.7999999523163,0,1,0,62338,task3,986013,false,false,963,image-keyboard-response,11
true,15,1,2,0,false,q,false,false,0.0-2.0-0.32-0.295-3.295,0,1,1,90,false,stim,true,1,755.8999999761581,0,1,0,62338,task3,988285,false,false,966,image-keyboard-response,12
true,16,0,2,2,false,d,true,false,0.0-2.0-0.32-0.296-3.296,1,0,1,81,true,stim,false,2,1843.0,0,1,2,62338,task3,991646,false,false,969,image-keyboard-response,1
true,16,1,2,2,false,d,true,false,0.0-2.0-0.33-0.297-3.297,1,0,1,90,false,stim,false,2,769.8000000119209,0,1,2,62338,task3,993929,false,false,972,image-keyboard-response,2
true,16,0,2,0,true,q,false,true,0.0-2.0-0.33-0.298-3.298,1,0,1,81,false,stim,false,0,965.9000000357628,0,1,0,62338,task3,996411,false,false,975,image-keyboard-response,3
true,16,2,2,2,true,d,false,true,0.0-2.0-0.33-0.299-3.299,1,0,1,68,false,stim,false,2,663.1000000238419,0,1,2,62338,task3,998587,false,false,978,image-keyboard-response,4
true,16,0,2,0,true,q,false,true,0.0-2.0-0.33-0.300-3.300,1,0,1,81,false,stim,false,0,448.0,0,1,0,62338,task3,1000553,false,false,981,image-keyboard-response,5
true,16,2,2,0,false,q,true,false,0.0-2.0-0.33-0.301-3.301,1,0,1,68,false,stim,false,1,700.6999999880791,0,0,1,62338,task3,1002775,false,false,984,image-keyboard-response,6
true,16,1,2,0,false,q,false,false,0.0-2.0-0.33-0.302-3.302,1,0,1,90,false,stim,true,1,716.3000000119209,0,0,1,62338,task3,1005012,false,false,987,image-keyboard-response,7
true,16,0,2,0,true,q,false,true,0.0-2.0-0.33-0.303-3.303,1,0,1,81,false,stim,false,0,2059.100000023842,0,1,0,62338,task3,1008592,false,false,990,image-keyboard-response,8
true,16,2,2,2,true,d,false,false,0.0-2.0-0.33-0.304-3.304,1,0,1,68,false,stim,false,2,608.3999999761581,0,1,2,62338,task3,1010714,false,true,993,image-keyboard-response,9
true,16,0,2,0,true,q,false,true,0.0-2.0-0.33-0.305-3.305,1,0,1,81,false,stim,false,1,859.4000000357628,0,0,1,62338,task3,1013106,false,false,996,image-keyboard-response,10
true,16,0,2,0,true,q,false,true,0.0-2.0-0.34-0.306-3.306,1,0,1,81,false,stim,false,0,585.0,0,1,0,62338,task3,1015211,false,false,999,image-keyboard-response,11
true,16,0,2,0,true,q,false,true,0.0-2.0-0.34-0.307-3.307,1,0,1,81,false,stim,false,1,489.60000002384186,0,1,1,62338,task3,1017223,false,false,1002,image-keyboard-response,12
true,16,1,2,2,false,d,true,false,0.0-2.0-0.34-0.308-3.308,1,0,1,90,false,stim,false,2,1530.1000000238419,0,0,2,62338,task3,1020279,false,false,1005,image-keyboard-response,13
true,16,0,2,0,true,q,false,true,0.0-2.0-0.34-0.309-3.309,1,0,1,81,false,stim,false,1,830.2000000476837,0,1,1,62338,task3,1022630,false,false,1008,image-keyboard-response,14
true,16,0,2,0,true,q,false,true,0.0-2.0-0.34-0.310-3.310,1,0,1,81,false,stim,false,0,414.4000000357628,0,0,0,62338,task3,1024566,false,false,1011,image-keyboard-response,15
true,16,2,2,2,true,d,false,true,0.0-2.0-0.34-0.311-3.311,1,0,1,68,false,stim,false,2,1420.300000011921,0,0,2,62338,task3,1027496,false,false,1014,image-keyboard-response,16
true,17,0,1,2,false,d,false,false,0.0-2.0-0.34-0.312-3.312,0,1,0,81,true,stim,true,0,1309.5,0,0,0,62338,task3,1030342,false,false,1017,image-keyboard-response,1
true,17,2,1,1,false,z,false,false,0.0-2.0-0.34-0.313-3.313,0,1,0,68,false,stim,true,2,713.8000000119209,0,0,2,62338,task3,1032573,false,false,1020,image-keyboard-response,2
false,17,-1,1,0,false,q,true,false,0.0-2.0-0.34-0.314-3.314,0,1,0,,false,stim,false,0,,0,1,1,62338,task3,1037101,false,false,1023,image-keyboard-response,3
true,17,0,1,0,true,q,false,true,0.0-2.0-0.35-0.315-3.315,0,1,0,81,false,stim,false,0,501.60000002384186,0,1,1,62338,task3,1039131,false,false,1026,image-keyboard-response,4
true,17,2,1,1,false,z,false,false,0.0-2.0-0.35-0.316-3.316,0,1,0,68,false,stim,true,2,1082.1000000238419,0,0,2,62338,task3,1041735,false,false,1029,image-keyboard-response,5
true,17,1,1,2,false,d,true,false,0.0-2.0-0.35-0.317-3.317,0,1,0,90,false,stim,false,0,703.0,0,0,0,62338,task3,1043960,false,false,1032,image-keyboard-response,6
true,17,1,1,1,true,z,false,true,0.0-2.0-0.35-0.318-3.318,0,1,0,90,false,stim,false,2,1152.0999999642372,0,0,2,62338,task3,1046626,false,false,1035,image-keyboard-response,7
true,17,2,1,2,true,d,false,true,0.0-2.0-0.35-0.319-3.319,0,1,0,68,false,stim,false,0,1140.3999999761581,0,0,0,62338,task3,1049296,false,false,1038,image-keyboard-response,8
true,17,2,1,2,true,d,false,true,0.0-2.0-0.35-0.320-3.320,0,1,0,68,false,stim,false,0,515.6000000238419,0,0,0,62338,task3,1051333,false,false,1041,image-keyboard-response,9
true,17,0,1,0,true,q,false,true,0.0-2.0-0.35-0.321-3.321,0,1,0,81,false,stim,false,0,769.6999999880791,0,1,1,62338,task3,1053624,false,false,1044,image-keyboard-response,10
true,17,2,1,1,false,z,false,false,0.0-2.0-0.35-0.322-3.322,0,1,0,68,false,stim,true,2,1712.5,0,0,2,62338,task3,1056860,false,false,1047,image-keyboard-response,11
true,17,0,1,0,true,q,false,false,0.0-2.0-0.35-0.323-3.323,0,1,0,81,false,stim,false,0,1328.0,0,1,1,62338,task3,1059712,false,true,1050,image-keyboard-response,12
true,17,0,1,2,false,d,false,false,0.0-2.0-0.36-0.324-3.324,0,1,0,81,false,stim,true,0,903.8999999761581,0,0,0,62338,task3,1062135,false,false,1053,image-keyboard-response,13
true,17,2,1,2,true,d,false,true,0.0-2.0-0.36-0.325-3.325,0,1,0,68,false,stim,false,0,987.0,0,0,0,62338,task3,1064654,false,false,1056,image-keyboard-response,14
true,17,0,1,0,true,q,false,true,0.0-2.0-0.36-0.326-3.326,0,1,0,81,false,stim,false,0,1235.0,0,1,1,62338,task3,1067415,false,false,1059,image-keyboard-response,15
true,17,0,1,0,true,q,false,true,0.0-2.0-0.36-0.327-3.327,0,1,0,81,false,stim,false,0,642.9000000357628,0,1,1,62338,task3,1069582,false,false,1062,image-keyboard-response,16
true,17,1,1,1,true,z,false,true,0.0-2.0-0.36-0.328-3.328,0,1,0,90,false,stim,false,2,1424.4000000357628,0,0,2,62338,task3,1072531,false,false,1065,image-keyboard-response,17
true,17,2,1,2,true,d,false,true,0.0-2.0-0.36-0.329-3.329,0,1,0,68,false,stim,false,0,944.6000000238419,0,0,0,62338,task3,1075006,false,false,1068,image-keyboard-response,18
true,17,0,1,0,true,q,false,true,0.0-2.0-0.36-0.330-3.330,0,1,0,81,false,stim,false,0,853.0,0,1,1,62338,task3,1077380,false,false,1071,image-keyboard-response,19
true,17,1,1,1,true,z,false,true,0.0-2.0-0.36-0.331-3.331,0,1,0,90,false,stim,false,2,984.6000000238419,0,0,2,62338,task3,1079896,false,false,1074,image-keyboard-response,20
true,17,1,1,1,true,z,false,true,0.0-2.0-0.36-0.332-3.332,0,1,0,90,false,stim,false,2,655.4000000357628,0,0,2,62338,task3,1082072,false,false,1077,image-keyboard-response,21
true,17,2,1,0,false,q,true,false,0.0-2.0-0.37-0.333-3.333,0,1,0,68,false,stim,false,0,1796.1000000238419,0,1,1,62338,task3,1085393,false,false,1080,image-keyboard-response,22
true,17,0,1,2,false,d,false,false,0.0-2.0-0.37-0.334-3.334,0,1,0,81,false,stim,true,0,667.3999999761581,0,0,0,62338,task3,1087580,false,false,1083,image-keyboard-response,23
true,17,2,1,2,true,d,false,true,0.0-2.0-0.37-0.335-3.335,0,1,0,68,false,stim,false,0,618.0999999642372,0,0,0,62338,task3,1089727,false,false,1086,image-keyboard-response,24
true,17,1,1,1,true,z,false,true,0.0-2.0-0.37-0.336-3.336,0,1,0,90,false,stim,false,2,964.9000000357628,0,0,2,62338,task3,1092220,false,false,1089,image-keyboard-response,25
true,17,2,1,0,false,q,true,false,0.0-2.0-0.37-0.337-3.337,0,1,0,68,false,stim,false,0,2887.100000023842,0,0,1,62338,task3,1096620,false,false,1092,image-keyboard-response,26
true,17,2,1,0,false,q,true,false,0.0-2.0-0.37-0.338-3.338,0,1,0,68,false,stim,false,0,2498.899999976158,0,0,1,62338,task3,1100647,false,false,1095,image-keyboard-response,27
true,17,1,1,1,true,z,false,true,0.0-2.0-0.37-0.339-3.339,0,1,0,90,false,stim,false,2,397.2000000476837,0,1,2,62338,task3,1102576,false,false,1098,image-keyboard-response,28
true,17,2,1,2,true,d,false,true,0.0-2.0-0.37-0.340-3.340,0,1,0,68,false,stim,false,0,1182.699999988079,0,0,0,62338,task3,1105286,false,false,1101,image-keyboard-response,29
true,17,1,1,1,true,z,false,true,0.0-2.0-0.37-0.341-3.341,0,1,0,90,false,stim,false,2,766.8000000119209,0,1,2,62338,task3,1107582,false,false,1104,image-keyboard-response,30
true,18,1,1,1,true,z,false,true,0.0-2.0-0.38-0.342-3.342,0,0,1,90,true,stim,false,1,982.1999999880791,0,1,2,62338,task3,1110078,false,false,1107,image-keyboard-response,1
true,18,2,1,0,false,q,false,false,0.0-2.0-0.38-0.343-3.343,0,0,1,68,false,stim,true,2,1177.0999999642372,0,0,0,62338,task3,1112771,false,false,1110,image-keyboard-response,2
true,18,1,1,1,true,z,false,true,0.0-2.0-0.38-0.344-3.344,0,0,1,90,false,stim,false,1,506.69999998807907,0,1,2,62338,task3,1114791,false,false,1113,image-keyboard-response,3
true,18,0,1,0,true,q,false,true,0.0-2.0-0.38-0.345-3.345,0,0,1,81,false,stim,false,2,536.9000000357628,0,0,0,62338,task3,1116845,false,false,1116,image-keyboard-response,4
true,18,2,1,1,false,z,true,false,0.0-2.0-0.38-0.346-3.346,0,0,1,68,false,stim,false,0,1221.5,0,0,1,62338,task3,1119590,false,false,1119,image-keyboard-response,5
true,18,1,1,1,true,z,false,true,0.0-2.0-0.38-0.347-3.347,0,0,1,90,false,stim,false,0,1068.800000011921,0,0,1,62338,task3,1122176,false,false,1122,image-keyboard-response,6
true,18,1,1,1,true,z,false,true,0.0-2.0-0.38-0.348-3.348,0,0,1,90,false,stim,false,0,848.0,0,0,1,62338,task3,1124545,false,false,1125,image-keyboard-response,7
true,18,1,1,1,true,z,false,true,0.0-2.0-0.38-0.349-3.349,0,0,1,90,false,stim,false,1,702.8999999761581,0,1,2,62338,task3,1126759,false,false,1128,image-keyboard-response,8
true,18,0,1,0,true,q,false,true,0.0-2.0-0.38-0.350-3.350,0,0,1,81,false,stim,false,2,2492.699999988079,0,0,0,62338,task3,1130780,false,false,1131,image-keyboard-response,9
true,18,0,1,0,true,q,false,false,0.0-2.0-0.39-0.351-3.351,0,0,1,81,false,stim,false,2,598.3999999761581,0,0,0,62338,task3,1132904,false,true,1134,image-keyboard-response,10
true,18,2,1,0,false,q,false,false,0.0-2.0-0.39-0.352-3.352,0,0,1,68,false,stim,true,2,1283.3999999761581,0,0,0,62338,task3,1135712,false,false,1137,image-keyboard-response,11
true,18,1,1,1,true,z,false,true,0.0-2.0-0.39-0.353-3.353,0,0,1,90,false,stim,false,0,1643.699999988079,0,0,1,62338,task3,1138871,false,false,1140,image-keyboard-response,12
true,18,1,1,1,true,z,false,true,0.0-2.0-0.39-0.354-3.354,0,0,1,90,false,stim,false,1,557.6999999880791,0,1,2,62338,task3,1140950,false,false,1143,image-keyboard-response,13
true,18,1,1,1,true,z,false,true,0.0-2.0-0.39-0.355-3.355,0,0,1,90,false,stim,false,1,612.0,0,1,2,62338,task3,1143092,false,false,1146,image-keyboard-response,14
true,18,1,1,1,true,z,false,true,0.0-2.0-0.39-0.356-3.356,0,0,1,90,false,stim,false,0,603.3000000119209,0,0,1,62338,task3,1145224,false,false,1149,image-keyboard-response,15
true,18,1,1,0,false,q,true,false,0.0-2.0-0.39-0.357-3.357,0,0,1,90,false,stim,false,2,1019.9000000357628,0,0,0,62338,task3,1147775,false,false,1152,image-keyboard-response,16
true,18,1,1,1,true,z,false,true,0.0-2.0-0.39-0.358-3.358,0,0,1,90,false,stim,false,0,799.0999999642372,0,0,1,62338,task3,1150101,false,false,1155,image-keyboard-response,17
true,18,1,1,1,true,z,false,true,0.0-2.0-0.39-0.359-3.359,0,0,1,90,false,stim,false,1,416.5,0,1,2,62338,task3,1152038,false,false,1158,image-keyboard-response,18
true,18,1,1,1,true,z,false,false,0.0-2.0-0.40-0.360-3.360,0,0,1,90,false,stim,false,0,1200.800000011921,0,0,1,62338,task3,1154768,false,true,1161,image-keyboard-response,19
true,18,1,1,1,true,z,false,true,0.0-2.0-0.40-0.361-3.361,0,0,1,90,false,stim,false,1,685.0999999642372,0,1,2,62338,task3,1156985,false,false,1164,image-keyboard-response,20
true,18,1,1,1,true,z,false,true,0.0-2.0-0.40-0.362-3.362,0,0,1,90,false,stim,false,1,566.3999999761581,0,1,2,62338,task3,1159082,false,false,1167,image-keyboard-response,21
true,18,0,1,1,false,z,false,false,0.0-2.0-0.40-0.363-3.363,0,0,1,81,false,stim,true,0,1069.5,0,0,1,62338,task3,1161676,false,false,1170,image-keyboard-response,22
true,18,2,1,1,false,z,true,false,0.0-2.0-0.40-0.364-3.364,0,0,1,68,false,stim,false,0,610.6000000238419,0,0,1,62338,task3,1163819,false,false,1173,image-keyboard-response,23
true,18,0,1,0,true,q,false,true,0.0-2.0-0.40-0.365-3.365,0,0,1,81,false,stim,false,2,1340.3999999761581,0,0,0,62338,task3,1166689,false,false,1176,image-keyboard-response,24
true,18,1,1,1,true,z,false,true,0.0-2.0-0.40-0.366-3.366,0,0,1,90,false,stim,false,1,742.9000000357628,0,1,2,62338,task3,1168957,false,false,1179,image-keyboard-response,25
true,18,0,1,0,true,q,false,true,0.0-2.0-0.40-0.367-3.367,0,0,1,81,false,stim,false,2,563.1000000238419,0,0,0,62338,task3,1171044,false,false,1182,image-keyboard-response,26
true,19,0,1,1,false,z,false,false,0.0-2.0-0.40-0.368-3.368,0,0,1,81,true,stim,true,0,817.3000000119209,0,0,0,62338,task3,1173391,false,false,1185,image-keyboard-response,1
true,19,1,1,1,true,z,false,true,0.0-2.0-0.41-0.369-3.369,0,0,1,90,false,stim,false,1,625.6000000238419,0,1,2,62338,task3,1175532,false,false,1188,image-keyboard-response,2
true,19,0,1,0,true,q,false,true,0.0-2.0-0.41-0.370-3.370,0,0,1,81,false,stim,false,1,1160.3999999761581,0,0,1,62338,task3,1178214,false,false,1191,image-keyboard-response,3
true,19,0,1,0,true,q,false,true,0.0-2.0-0.41-0.371-3.371,0,0,1,81,false,stim,false,1,702.3000000119209,0,0,1,62338,task3,1180429,false,false,1194,image-keyboard-response,4
true,19,0,1,0,true,q,false,true,0.0-2.0-0.41-0.372-3.372,0,0,1,81,false,stim,false,1,576.0,0,0,1,62338,task3,1182526,false,false,1197,image-keyboard-response,5
true,19,2,1,1,false,z,true,false,0.0-2.0-0.41-0.373-3.373,0,0,1,68,false,stim,false,0,2071.099999964237,0,0,0,62338,task3,1186114,false,false,1200,image-keyboard-response,6
true,19,1,1,1,true,z,false,true,0.0-2.0-0.41-0.374-3.374,0,0,1,90,false,stim,false,1,598.6999999880791,0,1,2,62338,task3,1188255,false,false,1203,image-keyboard-response,7
true,19,0,1,1,false,z,false,true,0.0-2.0-0.41-0.375-3.375,0,0,1,81,false,stim,true,0,1547.699999988079,0,0,0,62338,task3,1191321,false,true,1206,image-keyboard-response,8
true,19,1,1,1,true,z,false,true,0.0-2.0-0.41-0.376-3.376,0,0,1,90,false,stim,false,1,1246.7000000476837,0,1,2,62338,task3,1194087,false,false,1209,image-keyboard-response,9
true,19,0,1,1,false,z,false,true,0.0-2.0-0.41-0.377-3.377,0,0,1,81,false,stim,true,0,641.0,0,0,0,62338,task3,1196253,false,true,1212,image-keyboard-response,10
true,19,1,1,1,true,z,false,true,0.0-2.0-0.42-0.378-3.378,0,0,1,90,false,stim,false,1,502.5999999642372,0,1,2,62338,task3,1198275,false,false,1215,image-keyboard-response,11
true,19,0,1,1,false,z,false,false,0.0-2.0-0.42-0.379-3.379,0,0,1,81,false,stim,true,0,385.5,0,0,0,62338,task3,1200172,false,false,1218,image-keyboard-response,12
true,19,1,1,1,true,z,false,true,0.0-2.0-0.42-0.380-3.380,0,0,1,90,false,stim,false,0,2515.399999976158,0,0,0,62338,task3,1204215,false,false,1221,image-keyboard-response,13
true,19,0,1,0,true,q,false,false,0.0-2.0-0.42-0.381-3.381,0,0,1,81,false,stim,false,1,1254.0999999642372,0,0,1,62338,task3,1206989,false,true,1224,image-keyboard-response,14
true,19,1,1,1,true,z,false,true,0.0-2.0-0.42-0.382-3.382,0,0,1,90,false,stim,false,1,425.10000002384186,0,1,2,62338,task3,1208940,false,false,1227,image-keyboard-response,15
true,19,2,1,0,false,q,true,false,0.0-2.0-0.42-0.383-3.383,0,0,1,68,false,stim,false,1,1038.6000000238419,0,0,1,62338,task3,1211506,false,false,1230,image-keyboard-response,16
true,19,1,1,0,false,q,false,false,0.0-2.0-0.42-0.384-3.384,0,0,1,90,false,stim,true,1,476.10000002384186,0,0,1,62338,task3,1213511,false,false,1233,image-keyboard-response,17
true,19,0,1,1,false,z,false,false,0.0-2.0-0.42-0.385-3.385,0,0,1,81,false,stim,true,0,1226.0,0,0,0,62338,task3,1216255,false,false,1236,image-keyboard-response,18
true,19,1,1,1,true,z,false,true,0.0-2.0-0.42-0.386-3.386,0,0,1,90,false,stim,false,1,555.0999999642372,0,1,2,62338,task3,1218322,false,false,1239,image-keyboard-response,19
true,19,0,1,0,true,q,false,true,0.0-2.0-0.43-0.387-3.387,0,0,1,81,false,stim,false,1,1204.5,0,0,1,62338,task3,1221046,false,false,1242,image-keyboard-response,20
true,19,1,1,1,true,z,false,true,0.0-2.0-0.43-0.388-3.388,0,0,1,90,false,stim,false,0,720.1000000238419,0,0,0,62338,task3,1223283,false,false,1245,image-keyboard-response,21
true,19,1,1,1,true,z,false,true,0.0-2.0-0.43-0.389-3.389,0,0,1,90,false,stim,false,1,444.4000000357628,0,1,2,62338,task3,1225249,false,false,1248,image-keyboard-response,22
true,19,1,1,1,true,z,false,true,0.0-2.0-0.43-0.390-3.390,0,0,1,90,false,stim,false,0,815.7000000476837,0,0,0,62338,task3,1227597,false,false,1251,image-keyboard-response,23
true,19,1,1,1,true,z,false,true,0.0-2.0-0.43-0.391-3.391,0,0,1,90,false,stim,false,0,682.0,0,0,0,62338,task3,1229798,false,false,1254,image-keyboard-response,24
true,20,1,1,1,true,z,false,true,0.0-2.0-0.43-0.392-3.392,0,0,1,90,true,stim,false,1,797.6999999880791,0,1,2,62338,task3,1232115,false,false,1257,image-keyboard-response,1
true,20,0,1,2,false,d,false,false,0.0-2.0-0.43-0.393-3.393,0,0,1,81,false,stim,true,0,1028.5,0,0,1,62338,task3,1234665,false,false,1260,image-keyboard-response,2
true,20,1,1,2,false,d,true,false,0.0-2.0-0.43-0.394-3.394,0,0,1,90,false,stim,false,0,1452.6000000238419,0,0,1,62338,task3,1237648,false,false,1263,image-keyboard-response,3
true,20,1,1,1,true,z,false,true,0.0-2.0-0.43-0.395-3.395,0,0,1,90,false,stim,false,1,675.8999999761581,0,1,2,62338,task3,1239849,false,false,1266,image-keyboard-response,4
true,20,2,1,2,true,d,false,true,0.0-2.0-0.44-0.396-3.396,0,0,1,68,false,stim,false,0,702.5,0,0,1,62338,task3,1242074,false,false,1269,image-keyboard-response,5
true,20,1,1,0,false,q,false,false,0.0-2.0-0.44-0.397-3.397,0,0,1,90,false,stim,true,1,1082.5,0,0,0,62338,task3,1244686,false,false,1272,image-keyboard-response,6
true,20,1,1,1,true,z,false,true,0.0-2.0-0.44-0.398-3.398,0,0,1,90,false,stim,false,1,566.5,0,1,2,62338,task3,1246775,false,false,1275,image-keyboard-response,7
true,20,0,1,2,false,d,false,false,0.0-2.0-0.44-0.399-3.399,0,0,1,81,false,stim,true,0,1202.5,0,0,1,62338,task3,1249498,false,false,1278,image-keyboard-response,8
true,20,2,1,0,false,q,true,false,0.0-2.0-0.44-0.400-3.400,0,0,1,68,false,stim,false,1,1004.2999999523163,0,0,0,62338,task3,1252029,false,false,1281,image-keyboard-response,9
true,20,1,1,1,true,z,false,false,0.0-2.0-0.44-0.401-3.401,0,0,1,90,false,stim,false,1,424.69999998807907,0,1,2,62338,task3,1253975,false,true,1284,image-keyboard-response,10
true,20,1,1,2,false,d,true,false,0.0-2.0-0.44-0.402-3.402,0,0,1,90,false,stim,false,0,1596.7000000476837,0,0,1,62338,task3,1257096,false,false,1287,image-keyboard-response,11
true,20,2,1,1,false,z,true,false,0.0-2.0-0.44-0.403-3.403,0,0,1,68,false,stim,false,1,1034.9000000357628,0,1,2,62338,task3,1259651,false,false,1290,image-keyboard-response,12
true,20,0,1,0,true,q,false,true,0.0-2.0-0.44-0.404-3.404,0,0,1,81,false,stim,false,1,1089.5,0,0,0,62338,task3,1262259,false,false,1293,image-keyboard-response,13
true,20,0,1,0,true,q,false,true,0.0-2.0-0.45-0.405-3.405,0,0,1,81,false,stim,false,1,895.0,0,0,0,62338,task3,1264669,false,false,1296,image-keyboard-response,14
true,20,1,1,2,false,d,true,false,0.0-2.0-0.45-0.406-3.406,0,0,1,90,false,stim,false,0,1332.2000000476837,0,0,1,62338,task3,1267524,false,false,1299,image-keyboard-response,15
true,20,2,1,2,true,d,false,true,0.0-2.0-0.45-0.407-3.407,0,0,1,68,false,stim,false,0,911.3999999761581,0,0,1,62338,task3,1269974,false,false,1302,image-keyboard-response,16
true,20,0,1,1,false,z,true,false,0.0-2.0-0.45-0.408-3.408,0,0,1,81,false,stim,false,1,1179.800000011921,0,1,2,62338,task3,1272679,false,false,1305,image-keyboard-response,17
true,20,0,1,0,true,q,false,true,0.0-2.0-0.45-0.409-3.409,0,0,1,81,false,stim,false,1,813.3999999761581,0,0,0,62338,task3,1275010,false,false,1308,image-keyboard-response,18
true,20,2,1,1,false,z,true,true,0.0-2.0-0.45-0.410-3.410,0,0,1,68,false,stim,false,1,1881.5999999642372,0,1,2,62338,task3,1278419,false,true,1311,image-keyboard-response,19
true,20,2,1,2,true,d,false,true,0.0-2.0-0.45-0.411-3.411,0,0,1,68,false,stim,false,0,456.0,0,0,1,62338,task3,1280411,false,false,1314,image-keyboard-response,20
true,20,0,1,0,true,q,false,true,0.0-2.0-0.45-0.412-3.412,0,0,1,81,false,stim,false,1,658.0,0,0,0,62338,task3,1282594,false,false,1317,image-keyboard-response,21
true,20,2,1,1,false,z,true,false,0.0-2.0-0.45-0.413-3.413,0,0,1,68,false,stim,false,1,623.6000000238419,0,1,2,62338,task3,1284746,false,false,1320,image-keyboard-response,22
true,20,1,1,1,true,z,false,true,0.0-2.0-0.46-0.414-3.414,0,0,1,90,false,stim,false,1,648.8000000119209,0,1,2,62338,task3,1286921,false,false,1323,image-keyboard-response,23
true,20,2,1,2,true,d,false,true,0.0-2.0-0.46-0.415-3.415,0,0,1,68,false,stim,false,0,1543.7999999523163,0,0,1,62338,task3,1289998,false,false,1326,image-keyboard-response,24
true,20,0,1,0,true,q,false,true,0.0-2.0-0.46-0.416-3.416,0,0,1,81,false,stim,false,1,774.1999999880791,0,0,0,62338,task3,1292299,false,false,1329,image-keyboard-response,25
true,20,2,1,2,true,d,false,true,0.0-2.0-0.46-0.417-3.417,0,0,1,68,false,stim,false,0,940.7999999523163,0,0,1,62338,task3,1294764,false,false,1332,image-keyboard-response,26
true,20,0,1,0,true,q,false,true,0.0-2.0-0.46-0.418-3.418,0,0,1,81,false,stim,false,1,692.7000000476837,0,0,0,62338,task3,1296981,false,false,1335,image-keyboard-response,27
true,21,1,1,1,true,z,false,true,0.0-2.0-0.46-0.419-3.419,0,0,1,90,true,stim,false,1,689.3999999761581,0,1,2,62338,task3,1299200,false,false,1338,image-keyboard-response,1
true,21,0,1,2,false,d,false,true,0.0-2.0-0.46-0.420-3.420,0,0,1,81,false,stim,true,0,768.9000000357628,0,0,0,62338,task3,1301477,false,true,1341,image-keyboard-response,2
true,21,2,1,1,false,z,false,false,0.0-2.0-0.46-0.421-3.421,0,0,1,68,false,stim,true,2,861.7000000476837,0,0,1,62338,task3,1303861,false,false,1344,image-keyboard-response,3
true,21,1,1,1,true,z,false,true,0.0-2.0-0.46-0.422-3.422,0,0,1,90,false,stim,false,1,868.1999999880791,0,1,2,62338,task3,1306257,false,false,1347,image-keyboard-response,4
true,21,1,1,1,true,z,false,true,0.0-2.0-0.47-0.423-3.423,0,0,1,90,false,stim,false,1,644.1000000238419,0,1,2,62338,task3,1308427,false,false,1350,image-keyboard-response,5
true,21,1,1,1,true,z,false,true,0.0-2.0-0.47-0.424-3.424,0,0,1,90,false,stim,false,1,412.69999998807907,0,1,2,62338,task3,1310366,false,false,1353,image-keyboard-response,6
true,21,0,1,1,false,z,true,false,0.0-2.0-0.47-0.425-3.425,0,0,1,81,false,stim,false,2,1083.0999999642372,0,0,1,62338,task3,1312978,false,false,1356,image-keyboard-response,7
true,21,0,1,2,false,d,false,false,0.0-2.0-0.47-0.426-3.426,0,0,1,81,false,stim,true,0,722.8000000119209,0,0,0,62338,task3,1315217,false,false,1359,image-keyboard-response,8
true,21,1,1,1,true,z,false,true,0.0-2.0-0.47-0.427-3.427,0,0,1,90,false,stim,false,2,1713.800000011921,0,0,1,62338,task3,1318443,false,false,1362,image-keyboard-response,9
true,21,1,1,1,true,z,false,true,0.0-2.0-0.47-0.428-3.428,0,0,1,90,false,stim,false,2,709.3999999761581,0,0,1,62338,task3,1320680,false,false,1365,image-keyboard-response,10
true,21,1,1,1,true,z,false,true,0.0-2.0-0.47-0.429-3.429,0,0,1,90,false,stim,false,1,675.6999999880791,0,0,2,62338,task3,1322882,false,false,1368,image-keyboard-response,11
true,21,1,1,2,false,d,true,false,0.0-2.0-0.47-0.430-3.430,0,0,1,90,false,stim,false,0,1515.800000011921,0,1,0,62338,task3,1325917,false,false,1371,image-keyboard-response,12
true,21,2,1,2,true,d,false,true,0.0-2.0-0.47-0.431-3.431,0,0,1,68,false,stim,false,0,680.2999999523163,0,1,0,62338,task3,1328122,false,false,1374,image-keyboard-response,13
true,21,1,1,1,true,z,false,true,0.0-2.0-0.48-0.432-3.432,0,0,1,90,false,stim,false,1,688.8000000119209,0,0,2,62338,task3,1330344,false,false,1377,image-keyboard-response,14
true,21,0,1,1,false,z,true,false,0.0-2.0-0.48-0.433-3.433,0,0,1,81,false,stim,false,2,1631.0,0,1,1,62338,task3,1333510,false,false,1380,image-keyboard-response,15
true,22,2,2,1,false,z,true,false,0.0-2.0-0.48-0.434-3.434,1,1,0,68,true,stim,false,1,820.8000000119209,0,1,1,62338,task3,1335852,false,false,1383,image-keyboard-response,1
true,22,2,2,2,true,d,false,true,0.0-2.0-0.48-0.435-3.435,1,1,0,68,false,stim,false,2,965.8000000119209,0,1,0,62338,task3,1338348,false,false,1386,image-keyboard-response,2
true,22,1,2,2,false,d,false,false,0.0-2.0-0.48-0.436-3.436,1,1,0,90,false,stim,true,1,676.8999999761581,0,0,2,62338,task3,1340547,false,false,1389,image-keyboard-response,3
true,22,1,2,1,true,z,false,true,0.0-2.0-0.48-0.437-3.437,1,1,0,90,false,stim,false,1,702.0,0,1,1,62338,task3,1342771,false,false,1392,image-keyboard-response,4
true,22,0,2,2,false,d,true,true,0.0-2.0-0.48-0.438-3.438,1,1,0,81,false,stim,false,1,1399.5,0,0,2,62338,task3,1345702,false,true,1395,image-keyboard-response,5
true,22,2,2,2,true,d,false,true,0.0-2.0-0.48-0.439-3.439,1,1,0,68,false,stim,false,2,807.7000000476837,0,1,0,62338,task3,1348040,false,false,1398,image-keyboard-response,6
true,22,2,2,2,true,d,false,true,0.0-2.0-0.48-0.440-3.440,1,1,0,68,false,stim,false,2,1339.3999999761581,0,1,0,62338,task3,1350917,false,false,1401,image-keyboard-response,7
true,22,1,2,1,true,z,false,false,0.0-2.0-0.49-0.441-3.441,1,1,0,90,false,stim,false,1,1800.8999999761581,0,0,1,62338,task3,1354243,false,true,1404,image-keyboard-response,8
true,22,2,2,2,true,d,false,true,0.0-2.0-0.49-0.442-3.442,1,1,0,68,false,stim,false,2,821.9000000357628,0,0,0,62338,task3,1356600,false,false,1407,image-keyboard-response,9
true,22,2,2,2,true,d,false,true,0.0-2.0-0.49-0.443-3.443,1,1,0,68,false,stim,false,2,606.0,0,0,0,62338,task3,1358740,false,false,1410,image-keyboard-response,10
true,22,0,2,2,false,d,true,false,0.0-2.0-0.49-0.444-3.444,1,1,0,81,false,stim,false,1,757.3000000119209,0,1,2,62338,task3,1361019,false,false,1413,image-keyboard-response,11
true,22,1,2,2,false,d,false,true,0.0-2.0-0.49-0.445-3.445,1,1,0,90,false,stim,true,1,612.0,0,1,2,62338,task3,1363145,false,true,1416,image-keyboard-response,12
true,23,0,1,0,true,q,false,true,0.0-2.0-0.49-0.446-3.446,0,0,1,81,true,stim,false,1,1243.300000011921,0,0,1,62338,task3,1365908,false,false,1419,image-keyboard-response,1
true,23,1,1,2,false,d,true,false,0.0-2.0-0.49-0.447-3.447,0,0,1,90,false,stim,false,2,1348.5999999642372,0,1,2,62338,task3,1368775,false,false,1422,image-keyboard-response,2
true,23,2,1,1,false,z,false,false,0.0-2.0-0.49-0.448-3.448,0,0,1,68,false,stim,true,2,1481.199999988079,0,0,0,62338,task3,1371790,false,false,1425,image-keyboard-response,3
true,23,2,1,0,false,q,true,false,0.0-2.0-0.49-0.449-3.449,0,0,1,68,false,stim,false,1,1469.699999988079,0,0,1,62338,task3,1374784,false,false,1428,image-keyboard-response,4
true,23,1,1,0,false,q,false,false,0.0-2.0-0.50-0.450-3.450,0,0,1,90,false,stim,true,1,546.1999999880791,0,0,1,62338,task3,1376863,false,false,1431,image-keyboard-response,5
true,23,0,1,1,false,z,true,false,0.0-2.0-0.50-0.451-3.451,0,0,1,81,false,stim,false,2,2029.9000000357628,0,0,0,62338,task3,1380409,false,false,1434,image-keyboard-response,6
true,23,1,1,2,false,d,true,false,0.0-2.0-0.50-0.452-3.452,0,0,1,90,false,stim,false,2,1179.8999999761581,0,1,2,62338,task3,1383102,false,false,1437,image-keyboard-response,7
true,23,1,1,0,false,q,false,false,0.0-2.0-0.50-0.453-3.453,0,0,1,90,false,stim,true,1,1713.7999999523163,0,0,1,62338,task3,1386353,false,false,1440,image-keyboard-response,8
true,23,1,1,2,false,d,true,false,0.0-2.0-0.50-0.454-3.454,0,0,1,90,false,stim,false,2,1149.800000011921,0,1,2,62338,task3,1389034,false,false,1443,image-keyboard-response,9
true,23,0,1,2,false,d,true,false,0.0-2.0-0.50-0.455-3.455,0,0,1,81,false,stim,false,2,485.10000002384186,0,1,2,62338,task3,1391046,false,false,1446,image-keyboard-response,10
true,23,0,1,0,true,q,false,true,0.0-2.0-0.50-0.456-3.456,0,0,1,81,false,stim,false,1,967.3000000119209,0,0,1,62338,task3,1393543,false,false,1449,image-keyboard-response,11
true,23,1,1,1,true,z,false,true,0.0-2.0-0.50-0.457-3.457,0,0,1,90,false,stim,false,2,1862.4000000357628,0,0,0,62338,task3,1396924,false,false,1452,image-keyboard-response,12
true,23,1,1,1,true,z,false,true,0.0-2.0-0.50-0.458-3.458,0,0,1,90,false,stim,false,2,654.5,0,0,0,62338,task3,1399107,false,false,1455,image-keyboard-response,13
true,23,1,1,1,true,z,false,true,0.0-2.0-0.51-0.459-3.459,0,0,1,90,false,stim,false,2,490.30000001192093,0,0,0,62338,task3,1401119,false,false,1458,image-keyboard-response,14
true,23,0,1,0,true,q,false,true,0.0-2.0-0.51-0.460-3.460,0,0,1,81,false,stim,false,1,574.3000000119209,0,0,1,62338,task3,1403225,false,false,1461,image-keyboard-response,15
true,23,2,1,2,true,d,false,true,0.0-2.0-0.51-0.461-3.461,0,0,1,68,false,stim,false,2,890.3000000119209,0,1,2,62338,task3,1405642,false,false,1464,image-keyboard-response,16
true,23,2,1,2,true,d,false,true,0.0-2.0-0.51-0.462-3.462,0,0,1,68,false,stim,false,2,545.2999999523163,0,1,2,62338,task3,1407702,false,false,1467,image-keyboard-response,17
true,23,2,1,2,true,d,false,true,0.0-2.0-0.51-0.463-3.463,0,0,1,68,false,stim,false,2,576.5999999642372,0,1,2,62338,task3,1409816,false,false,1470,image-keyboard-response,18
true,23,1,1,1,true,z,false,false,0.0-2.0-0.51-0.464-3.464,0,0,1,90,false,stim,false,2,535.0,0,0,0,62338,task3,1411876,false,true,1473,image-keyboard-response,19
true,23,0,1,1,false,z,true,false,0.0-2.0-0.51-0.465-3.465,0,0,1,81,false,stim,false,2,629.3999999761581,0,0,0,62338,task3,1414031,false,false,1476,image-keyboard-response,20
true,23,0,1,0,true,q,false,true,0.0-2.0-0.51-0.466-3.466,0,0,1,81,false,stim,false,1,961.5999999642372,0,0,1,62338,task3,1416516,false,false,1479,image-keyboard-response,21
true,23,0,1,0,true,q,false,true,0.0-2.0-0.51-0.467-3.467,0,0,1,81,false,stim,false,1,621.0,0,0,1,62338,task3,1418659,false,false,1482,image-keyboard-response,22
true,23,2,1,1,false,z,false,true,0.0-2.0-0.52-0.468-3.468,0,0,1,68,false,stim,true,2,2069.100000023842,0,0,0,62338,task3,1422260,false,true,1485,image-keyboard-response,23
true,23,2,1,2,true,d,false,true,0.0-2.0-0.52-0.469-3.469,0,0,1,68,false,stim,false,2,877.6999999880791,0,0,2,62338,task3,1424657,false,false,1488,image-keyboard-response,24
true,23,0,1,0,true,q,false,true,0.0-2.0-0.52-0.470-3.470,0,0,1,81,false,stim,false,1,620.5,0,1,1,62338,task3,1426800,false,false,1491,image-keyboard-response,25
true,23,0,1,0,true,q,false,true,0.0-2.0-0.52-0.471-3.471,0,0,1,81,false,stim,false,1,662.4000000357628,0,1,1,62338,task3,1428995,false,false,1494,image-keyboard-response,26
true,23,2,1,1,false,z,false,false,0.0-2.0-0.52-0.472-3.472,0,0,1,68,false,stim,true,2,615.1999999880791,0,0,0,62338,task3,1431133,false,false,1497,image-keyboard-response,27
true,24,0,1,0,true,q,false,true,0.0-2.0-0.52-0.473-3.473,0,1,0,81,true,stim,false,0,616.8000000119209,0,1,1,62338,task3,1433274,false,false,1500,image-keyboard-response,1
true,24,2,1,1,false,z,false,false,0.0-2.0-0.52-0.474-3.474,0,1,0,68,false,stim,true,2,813.1000000238419,0,0,2,62338,task3,1435624,false,false,1503,image-keyboard-response,2
true,24,1,1,0,false,q,false,false,0.0-2.0-0.52-0.475-3.475,0,1,0,90,false,stim,true,1,1318.6000000238419,0,0,0,62338,task3,1438466,false,false,1506,image-keyboard-response,3
true,24,1,1,1,true,z,false,true,0.0-2.0-0.52-0.476-3.476,0,1,0,90,false,stim,false,2,1121.5,0,0,2,62338,task3,1441116,false,false,1509,image-keyboard-response,4
true,24,1,1,1,true,z,false,true,0.0-2.0-0.53-0.477-3.477,0,1,0,90,false,stim,false,2,655.3000000119209,0,0,2,62338,task3,1443283,false,false,1512,image-keyboard-response,5
true,24,1,1,1,true,z,false,true,0.0-2.0-0.53-0.478-3.478,0,1,0,90,false,stim,false,2,417.60000002384186,0,0,2,62338,task3,1445219,false,false,1515,image-keyboard-response,6
true,24,0,1,0,true,q,false,true,0.0-2.0-0.53-0.479-3.479,0,1,0,81,false,stim,false,0,579.3000000119209,0,1,1,62338,task3,1447323,false,false,1518,image-keyboard-response,7
true,24,0,1,0,true,q,false,true,0.0-2.0-0.53-0.480-3.480,0,1,0,81,false,stim,false,1,1603.2999999523163,0,0,0,62338,task3,1450442,false,false,1521,image-keyboard-response,8
true,24,0,1,0,true,q,false,true,0.0-2.0-0.53-0.481-3.481,0,1,0,81,false,stim,false,1,544.3999999761581,0,0,0,62338,task3,1452513,false,false,1524,image-keyboard-response,9
true,24,0,1,0,true,q,false,true,0.0-2.0-0.53-0.482-3.482,0,1,0,81,false,stim,false,1,527.3000000119209,0,0,0,62338,task3,1454563,false,false,1527,image-keyboard-response,10
true,24,1,1,1,true,z,false,true,0.0-2.0-0.53-0.483-3.483,0,1,0,90,false,stim,false,2,815.5999999642372,0,0,2,62338,task3,1456905,false,false,1530,image-keyboard-response,11
true,24,0,1,0,true,q,false,true,0.0-2.0-0.53-0.484-3.484,0,1,0,81,false,stim,false,0,1407.0,0,1,1,62338,task3,1459826,false,false,1533,image-keyboard-response,12
true,24,1,1,0,false,q,true,false,0.0-2.0-0.53-0.485-3.485,0,1,0,90,false,stim,false,0,570.5,0,1,1,62338,task3,1461908,false,false,1536,image-keyboard-response,13
true,24,1,1,1,true,z,false,true,0.0-2.0-0.54-0.486-3.486,0,1,0,90,false,stim,false,2,572.6999999880791,0,0,2,62338,task3,1464005,false,false,1539,image-keyboard-response,14
true,24,0,1,0,true,q,false,false,0.0-2.0-0.54-0.487-3.487,0,1,0,81,false,stim,false,1,1329.300000011921,0,0,0,62338,task3,1466852,false,true,1542,image-keyboard-response,15
true,24,2,1,0,false,q,true,false,0.0-2.0-0.54-0.488-3.488,0,1,0,68,false,stim,false,1,613.4000000357628,0,0,0,62338,task3,1468998,false,false,1545,image-keyboard-response,16
true,24,0,1,0,true,q,false,true,0.0-2.0-0.54-0.489-3.489,0,1,0,81,false,stim,false,0,944.1000000238419,0,1,1,62338,task3,1471466,false,false,1548,image-keyboard-response,17
true,24,1,1,1,true,z,false,true,0.0-2.0-0.54-0.490-3.490,0,1,0,90,false,stim,false,2,359.5999999642372,0,0,2,62338,task3,1473333,false,false,1551,image-keyboard-response,18
true,24,1,1,1,true,z,false,true,0.0-2.0-0.54-0.491-3.491,0,1,0,90,false,stim,false,2,343.10000002384186,0,0,2,62338,task3,1475200,false,false,1554,image-keyboard-response,19
true,24,0,1,0,true,q,false,false,0.0-2.0-0.54-0.492-3.492,0,1,0,81,false,stim,false,0,640.8999999761581,0,0,1,62338,task3,1477361,false,true,1557,image-keyboard-response,20
true,24,1,1,0,false,q,false,false,0.0-2.0-0.54-0.493-3.493,0,1,0,90,false,stim,true,1,1113.6000000238419,0,0,0,62338,task3,1480005,false,false,1560,image-keyboard-response,21
true,24,1,1,0,false,q,true,false,0.0-2.0-0.54-0.494-3.494,0,1,0,90,false,stim,false,0,1856.2000000476837,0,0,1,62338,task3,1483387,false,false,1563,image-keyboard-response,22
true,24,2,1,0,false,q,true,false,0.0-2.0-0.55-0.495-3.495,0,1,0,68,false,stim,false,1,1052.699999988079,0,0,0,62338,task3,1485960,false,false,1566,image-keyboard-response,23
true,24,1,1,1,true,z,false,true,0.0-2.0-0.55-0.496-3.496,0,1,0,90,false,stim,false,2,829.5999999642372,0,1,2,62338,task3,1488313,false,false,1569,image-keyboard-response,24
true,25,1,1,2,false,d,true,false,0.0-2.0-0.55-0.497-3.497,0,0,1,90,true,stim,false,0,1649.6000000238419,0,0,1,62338,task3,1491490,false,false,1572,image-keyboard-response,1
true,25,1,1,1,true,z,false,true,0.0-2.0-0.55-0.498-3.498,0,0,1,90,false,stim,false,1,682.2999999523163,0,1,2,62338,task3,1493699,false,false,1575,image-keyboard-response,2
true,25,1,1,1,true,z,false,true,0.0-2.0-0.55-0.499-3.499,0,0,1,90,false,stim,false,1,554.0,0,1,2,62338,task3,1495782,false,false,1578,image-keyboard-response,3
true,25,0,1,2,false,d,false,false,0.0-2.0-0.55-0.500-3.500,0,0,1,81,false,stim,true,0,676.5,0,0,1,62338,task3,1497978,false,false,1581,image-keyboard-response,4
true,25,1,1,1,true,z,false,true,0.0-2.0-0.55-0.501-3.501,0,0,1,90,false,stim,false,0,1489.3999999761581,0,0,0,62338,task3,1500988,false,false,1584,image-keyboard-response,5
true,25,2,1,2,true,d,false,true,0.0-2.0-0.55-0.502-3.502,0,0,1,68,false,stim,false,0,820.9000000357628,0,0,1,62338,task3,1503334,false,false,1587,image-keyboard-response,6
true,25,1,1,1,true,z,false,true,0.0-2.0-0.55-0.503-3.503,0,0,1,90,false,stim,false,0,1226.300000011921,0,0,0,62338,task3,1506077,false,false,1590,image-keyboard-response,7
true,25,1,1,1,true,z,false,true,0.0-2.0-0.56-0.504-3.504,0,0,1,90,false,stim,false,0,553.5,0,0,0,62338,task3,1508162,false,false,1593,image-keyboard-response,8
true,25,1,1,1,true,z,false,true,0.0-2.0-0.56-0.505-3.505,0,0,1,90,false,stim,false,0,538.6999999880791,0,0,0,62338,task3,1510221,false,false,1596,image-keyboard-response,9
true,25,1,1,1,true,z,false,true,0.0-2.0-0.56-0.506-3.506,0,0,1,90,false,stim,false,0,542.0999999642372,0,0,0,62338,task3,1512284,false,false,1599,image-keyboard-response,10
true,25,2,1,2,true,d,false,true,0.0-2.0-0.56-0.507-3.507,0,0,1,68,false,stim,false,0,876.0999999642372,0,0,1,62338,task3,1514695,false,false,1602,image-keyboard-response,11
true,25,1,1,1,true,z,false,true,0.0-2.0-0.56-0.508-3.508,0,0,1,90,false,stim,false,1,857.3999999761581,0,1,2,62338,task3,1517077,false,false,1605,image-keyboard-response,12
true,25,2,1,2,true,d,false,true,0.0-2.0-0.56-0.509-3.509,0,0,1,68,false,stim,false,0,657.0,0,1,1,62338,task3,1519261,false,false,1608,image-keyboard-response,13
true,25,1,1,1,true,z,false,true,0.0-2.0-0.56-0.510-3.510,0,0,1,90,false,stim,false,1,669.7000000476837,0,1,2,62338,task3,1521453,false,false,1611,image-keyboard-response,14
true,25,1,1,1,true,z,false,false,0.0-2.0-0.56-0.511-3.511,0,0,1,90,false,stim,false,1,734.8999999761581,0,1,2,62338,task3,1523716,false,true,1614,image-keyboard-response,15
true,25,0,1,2,false,d,false,false,0.0-2.0-0.56-0.512-3.512,0,0,1,81,false,stim,true,0,1000.8999999761581,0,1,1,62338,task3,1526243,false,false,1617,image-keyboard-response,16
true,26,0,0,1,false,z,true,false,0.0-2.0-0.57-0.513-3.513,1,1,1,81,true,stim,false,1,2365.300000011921,0,1,2,62338,task3,1651312,false,false,1740,image-keyboard-response,1
true,26,0,0,2,false,d,true,false,0.0-2.0-0.57-0.514-3.514,1,1,1,81,false,stim,false,2,853.7000000476837,0,1,1,62338,task3,1653687,false,false,1743,image-keyboard-response,2
true,26,1,0,2,false,d,true,false,0.0-2.0-0.57-0.515-3.515,1,1,1,90,false,stim,false,2,1033.0,0,1,1,62338,task3,1656249,false,false,1746,image-keyboard-response,3
true,26,1,0,1,true,z,false,true,0.0-2.0-0.57-0.516-3.516,1,1,1,90,false,stim,false,1,913.3999999761581,0,1,2,62338,task3,1658698,false,false,1749,image-keyboard-response,4
true,26,0,0,1,false,z,true,false,0.0-2.0-0.57-0.517-3.517,1,1,1,81,false,stim,false,1,1117.699999988079,0,1,0,62338,task3,1661340,false,false,1752,image-keyboard-response,5
true,26,1,0,1,true,z,false,true,0.0-2.0-0.57-0.518-3.518,1,1,1,90,false,stim,false,1,766.0999999642372,0,1,0,62338,task3,1663621,false,false,1755,image-keyboard-response,6
true,26,2,0,2,true,d,false,true,0.0-2.0-0.57-0.519-3.519,1,1,1,68,false,stim,false,2,764.0,0,1,1,62338,task3,1665906,false,false,1758,image-keyboard-response,7
true,26,1,0,1,true,z,false,true,0.0-2.0-0.57-0.520-3.520,1,1,1,90,false,stim,false,1,494.60000002384186,0,1,2,62338,task3,1667918,false,false,1761,image-keyboard-response,8
true,26,1,0,1,true,z,false,true,0.0-2.0-0.57-0.521-3.521,1,1,1,90,false,stim,false,1,1106.800000011921,0,1,0,62338,task3,1670542,false,false,1764,image-keyboard-response,9
true,26,1,0,1,true,z,false,true,0.0-2.0-0.58-0.522-3.522,1,1,1,90,false,stim,false,1,495.80000001192093,0,0,2,62338,task3,1672555,false,false,1767,image-keyboard-response,10
true,26,2,0,2,true,d,false,true,0.0-2.0-0.58-0.523-3.523,1,1,1,68,false,stim,false,2,584.5999999642372,0,1,1,62338,task3,1674653,false,false,1770,image-keyboard-response,11
true,26,1,0,1,true,z,false,true,0.0-2.0-0.58-0.524-3.524,1,1,1,90,false,stim,false,1,673.0999999642372,0,0,2,62338,task3,1676848,false,false,1773,image-keyboard-response,12
true,26,2,0,2,true,d,false,true,0.0-2.0-0.58-0.525-3.525,1,1,1,68,false,stim,false,2,857.1999999880791,0,1,1,62338,task3,1679240,false,false,1776,image-keyboard-response,13
true,27,1,2,1,true,z,false,true,0.0-2.0-0.58-0.526-3.526,1,1,0,90,true,stim,false,1,817.9000000357628,0,1,0,62338,task3,1681586,false,false,1779,image-keyboard-response,1
true,27,1,2,2,false,d,false,true,0.0-2.0-0.58-0.527-3.527,1,1,0,90,false,stim,true,1,692.8999999761581,0,0,2,62338,task3,1683799,false,true,1782,image-keyboard-response,2
true,27,1,2,1,true,z,false,true,0.0-2.0-0.58-0.528-3.528,1,1,0,90,false,stim,false,1,1105.3999999761581,0,1,0,62338,task3,1686422,false,false,1785,image-keyboard-response,3
true,27,1,2,1,true,z,false,true,0.0-2.0-0.58-0.529-3.529,1,1,0,90,false,stim,false,1,491.19999998807907,0,1,0,62338,task3,1688443,false,false,1788,image-keyboard-response,4
true,27,2,2,2,true,d,false,true,0.0-2.0-0.58-0.530-3.530,1,1,0,68,false,stim,false,2,672.5999999642372,0,1,1,62338,task3,1690634,false,false,1791,image-keyboard-response,5
true,27,2,2,2,true,d,false,true,0.0-2.0-0.59-0.531-3.531,1,1,0,68,false,stim,false,2,557.0999999642372,0,1,1,62338,task3,1692725,false,false,1794,image-keyboard-response,6
true,27,2,2,2,true,d,false,true,0.0-2.0-0.59-0.532-3.532,1,1,0,68,false,stim,false,2,496.5,0,1,1,62338,task3,1694753,false,false,1797,image-keyboard-response,7
true,27,1,2,2,false,d,false,false,0.0-2.0-0.59-0.533-3.533,1,1,0,90,false,stim,true,1,498.5999999642372,0,0,2,62338,task3,1696784,false,false,1800,image-keyboard-response,8
true,27,1,2,1,true,z,false,true,0.0-2.0-0.59-0.534-3.534,1,1,0,90,false,stim,false,1,684.1000000238419,0,1,0,62338,task3,1699010,false,false,1803,image-keyboard-response,9
true,27,1,2,1,true,z,false,true,0.0-2.0-0.59-0.535-3.535,1,1,0,90,false,stim,false,1,510.69999998807907,0,1,0,62338,task3,1701047,false,false,1806,image-keyboard-response,10
true,27,0,2,2,false,d,true,false,0.0-2.0-0.59-0.536-3.536,1,1,0,81,false,stim,false,1,683.5999999642372,0,0,2,62338,task3,1703263,false,false,1809,image-keyboard-response,11
true,27,2,2,2,true,d,false,true,0.0-2.0-0.59-0.537-3.537,1,1,0,68,false,stim,false,2,447.80000001192093,0,1,1,62338,task3,1705242,false,false,1812,image-keyboard-response,12
true,27,1,2,1,true,z,false,true,0.0-2.0-0.59-0.538-3.538,1,1,0,90,false,stim,false,1,510.5,0,0,0,62338,task3,1707283,false,false,1815,image-keyboard-response,13
true,27,2,2,2,true,d,false,true,0.0-2.0-0.59-0.539-3.539,1,1,0,68,false,stim,false,1,425.19999998807907,0,1,2,62338,task3,1709237,false,false,1818,image-keyboard-response,14
true,27,2,2,2,true,d,false,true,0.0-2.0-0.60-0.540-3.540,1,1,0,68,false,stim,false,2,856.4000000357628,0,1,1,62338,task3,1711617,false,false,1821,image-keyboard-response,15
true,27,2,2,2,true,d,false,true,0.0-2.0-0.60-0.541-3.541,1,1,0,68,false,stim,false,1,524.8000000119209,0,1,2,62338,task3,1713667,false,false,1824,image-keyboard-response,16
true,28,1,2,0,false,q,false,false,0.0-2.0-0.60-0.542-3.542,0,1,1,90,true,stim,true,1,366.80000001192093,0,0,0,62338,task3,1715558,false,false,1827,image-keyboard-response,1
true,28,2,2,2,true,d,false,true,0.0-2.0-0.60-0.543-3.543,0,1,1,68,false,stim,false,2,569.4000000357628,0,1,1,62338,task3,1717660,false,false,1830,image-keyboard-response,2
true,28,2,2,2,true,d,false,true,0.0-2.0-0.60-0.544-3.544,0,1,1,68,false,stim,false,2,1111.0,0,1,2,62338,task3,1720290,false,false,1833,image-keyboard-response,3
true,28,0,2,0,true,q,false,true,0.0-2.0-0.60-0.545-3.545,0,1,1,81,false,stim,false,1,389.7000000476837,0,0,0,62338,task3,1722202,false,false,1836,image-keyboard-response,4
true,28,2,2,2,true,d,false,true,0.0-2.0-0.60-0.546-3.546,0,1,1,68,false,stim,false,2,766.3000000119209,0,1,2,62338,task3,1724501,false,false,1839,image-keyboard-response,5
true,28,0,2,0,true,q,false,true,0.0-2.0-0.60-0.547-3.547,0,1,1,81,false,stim,false,1,626.1999999880791,0,0,0,62338,task3,1726646,false,false,1842,image-keyboard-response,6
true,28,2,2,2,true,d,false,true,0.0-2.0-0.60-0.548-3.548,0,1,1,68,false,stim,false,2,708.0,0,1,1,62338,task3,1728885,false,false,1845,image-keyboard-response,7
true,28,0,2,0,true,q,false,true,0.0-2.0-0.61-0.549-3.549,0,1,1,81,false,stim,false,1,602.0,0,0,0,62338,task3,1731012,false,false,1848,image-keyboard-response,8
true,28,2,2,2,true,d,false,true,0.0-2.0-0.61-0.550-3.550,0,1,1,68,false,stim,false,2,709.4000000357628,0,1,1,62338,task3,1733233,false,false,1851,image-keyboard-response,9
true,28,0,2,0,true,q,false,true,0.0-2.0-0.61-0.551-3.551,0,1,1,81,false,stim,false,1,530.8999999761581,0,1,0,62338,task3,1735299,false,false,1854,image-keyboard-response,10
true,28,2,2,2,true,d,false,true,0.0-2.0-0.61-0.552-3.552,0,1,1,68,false,stim,false,2,493.30000001192093,0,0,2,62338,task3,1737327,false,false,1857,image-keyboard-response,11
true,28,2,2,2,true,d,false,false,0.0-2.0-0.61-0.553-3.553,0,1,1,68,false,stim,false,2,515.6999999880791,0,0,2,62338,task3,1739366,false,true,1860,image-keyboard-response,12
true,28,1,2,2,false,d,true,true,0.0-2.0-0.61-0.554-3.554,0,1,1,90,false,stim,false,2,573.8999999761581,0,0,2,62338,task3,1741460,false,true,1863,image-keyboard-response,13
true,29,0,2,0,true,q,false,true,0.0-2.0-0.61-0.555-3.555,1,1,0,81,true,stim,false,0,636.8999999761581,0,1,0,62338,task3,1743626,false,false,1866,image-keyboard-response,1
true,29,2,2,2,true,d,false,false,0.0-2.0-0.61-0.556-3.556,1,1,0,68,false,stim,false,2,620.1999999880791,0,1,1,62338,task3,1745765,false,true,1869,image-keyboard-response,2
true,29,1,2,2,false,d,true,false,0.0-2.0-0.61-0.557-3.557,1,1,0,90,false,stim,false,2,1011.6999999880791,0,1,1,62338,task3,1748296,false,false,1872,image-keyboard-response,3
true,29,0,2,2,false,d,true,false,0.0-2.0-0.62-0.558-3.558,1,1,0,81,false,stim,false,2,439.7000000476837,0,1,1,62338,task3,1750257,false,false,1875,image-keyboard-response,4
true,29,1,2,0,false,q,true,false,0.0-2.0-0.62-0.559-3.559,1,1,0,90,false,stim,false,2,945.6000000238419,0,0,2,62338,task3,1752727,false,false,1878,image-keyboard-response,5
true,29,0,2,0,true,q,false,true,0.0-2.0-0.62-0.560-3.560,1,1,0,81,false,stim,false,0,698.0999999642372,0,1,0,62338,task3,1754951,false,false,1881,image-keyboard-response,6
true,29,0,2,0,true,q,false,true,0.0-2.0-0.62-0.561-3.561,1,1,0,81,false,stim,false,0,459.60000002384186,0,1,0,62338,task3,1756939,false,false,1884,image-keyboard-response,7
true,29,1,2,0,false,q,true,false,0.0-2.0-0.62-0.562-3.562,1,1,0,90,false,stim,false,2,917.6000000238419,0,0,2,62338,task3,1759393,false,false,1887,image-keyboard-response,8
true,29,0,2,0,true,q,false,true,0.0-2.0-0.62-0.563-3.563,1,1,0,81,false,stim,false,0,580.4000000357628,0,0,0,62338,task3,1761492,false,false,1890,image-keyboard-response,9
true,29,2,2,0,false,q,false,false,0.0-2.0-0.62-0.564-3.564,1,1,0,68,false,stim,true,2,1242.8999999761581,0,1,2,62338,task3,1764258,false,false,1893,image-keyboard-response,10
true,29,2,2,2,true,d,false,true,0.0-2.0-0.62-0.565-3.565,1,1,0,68,false,stim,false,2,2358.899999976158,0,1,1,62338,task3,1768137,false,false,1896,image-keyboard-response,11
true,29,2,2,2,true,d,false,true,0.0-2.0-0.62-0.566-3.566,1,1,0,68,false,stim,false,2,655.6999999880791,0,1,1,62338,task3,1770304,false,false,1899,image-keyboard-response,12
true,29,0,2,0,true,q,false,true,0.0-2.0-0.63-0.567-3.567,1,1,0,81,false,stim,false,0,370.4000000357628,0,0,0,62338,task3,1772209,false,false,1902,image-keyboard-response,13
true,30,0,2,1,false,z,false,false,0.0-2.0-0.63-0.568-3.568,0,1,1,81,true,stim,true,0,489.4000000357628,0,0,0,62338,task3,1774231,false,false,1905,image-keyboard-response,1
true,30,2,2,2,true,d,false,true,0.0-2.0-0.63-0.569-3.569,0,1,1,68,false,stim,false,2,703.6000000238419,0,1,1,62338,task3,1776467,false,false,1908,image-keyboard-response,2
true,30,2,2,2,true,d,false,true,0.0-2.0-0.63-0.570-3.570,0,1,1,68,false,stim,false,2,516.0,0,1,1,62338,task3,1778512,false,false,1911,image-keyboard-response,3
true,30,0,2,0,true,q,false,false,0.0-2.0-0.63-0.571-3.571,0,1,1,81,false,stim,false,0,830.7999999523163,0,1,2,62338,task3,1780870,false,true,1914,image-keyboard-response,4
true,30,1,2,0,false,q,true,false,0.0-2.0-0.63-0.572-3.572,0,1,1,90,false,stim,false,0,738.8000000119209,0,1,2,62338,task3,1783134,false,false,1917,image-keyboard-response,5
true,30,1,2,1,true,z,false,true,0.0-2.0-0.63-0.573-3.573,0,1,1,90,false,stim,false,0,992.5999999642372,0,0,0,62338,task3,1785648,false,false,1920,image-keyboard-response,6
true,30,2,2,0,false,q,true,false,0.0-2.0-0.63-0.574-3.574,0,1,1,68,false,stim,false,0,695.8000000119209,0,1,2,62338,task3,1787864,false,false,1923,image-keyboard-response,7
true,30,2,2,2,true,d,false,true,0.0-2.0-0.63-0.575-3.575,0,1,1,68,false,stim,false,2,1816.800000011921,0,1,1,62338,task3,1791215,false,false,1926,image-keyboard-response,8
true,30,1,2,0,false,q,true,false,0.0-2.0-0.64-0.576-3.576,0,1,1,90,false,stim,false,0,792.3999999761581,0,1,2,62338,task3,1793529,false,false,1929,image-keyboard-response,9
true,30,2,2,2,true,d,false,false,0.0-2.0-0.64-0.577-3.577,0,1,1,68,false,stim,false,2,598.3000000119209,0,1,1,62338,task3,1795659,false,true,1932,image-keyboard-response,10
true,30,1,2,2,false,d,true,false,0.0-2.0-0.64-0.578-3.578,0,1,1,90,false,stim,false,2,1012.6999999880791,0,1,1,62338,task3,1798206,false,false,1935,image-keyboard-response,11
true,30,1,2,1,true,z,false,true,0.0-2.0-0.64-0.579-3.579,0,1,1,90,false,stim,false,0,1004.5999999642372,0,0,0,62338,task3,1800745,false,false,1938,image-keyboard-response,12
true,30,1,2,1,true,z,false,false,0.0-2.0-0.64-0.580-3.580,0,1,1,90,false,stim,false,0,489.30000001192093,0,0,0,62338,task3,1802759,false,true,1941,image-keyboard-response,13
true,30,0,2,0,true,q,false,true,0.0-2.0-0.64-0.581-3.581,0,1,1,81,false,stim,false,0,839.0,0,1,2,62338,task3,1805115,false,false,1944,image-keyboard-response,14
true,30,2,2,2,true,d,false,true,0.0-2.0-0.64-0.582-3.582,0,1,1,68,false,stim,false,2,1271.2000000476837,0,1,1,62338,task3,1807917,false,false,1947,image-keyboard-response,15
true,30,0,2,0,true,q,false,true,0.0-2.0-0.64-0.583-3.583,0,1,1,81,false,stim,false,0,579.8999999761581,0,1,2,62338,task3,1810014,false,false,1950,image-keyboard-response,16
true,30,0,2,1,false,z,false,false,0.0-2.0-0.64-0.584-3.584,0,1,1,81,false,stim,true,0,1754.3999999761581,0,0,0,62338,task3,1813292,false,false,1953,image-keyboard-response,17
true,30,2,2,2,true,d,false,true,0.0-2.0-0.65-0.585-3.585,0,1,1,68,false,stim,false,2,2178.099999964237,0,1,1,62338,task3,1816992,false,false,1956,image-keyboard-response,18
true,30,2,2,1,false,z,true,false,0.0-2.0-0.65-0.586-3.586,0,1,1,68,false,stim,false,0,1816.1000000238419,0,0,0,62338,task3,1820323,false,false,1959,image-keyboard-response,19
true,30,0,2,0,true,q,false,true,0.0-2.0-0.65-0.587-3.587,0,1,1,81,false,stim,false,0,1332.4000000357628,0,1,2,62338,task3,1823190,false,false,1962,image-keyboard-response,20
true,30,2,2,2,true,d,false,false,0.0-2.0-0.65-0.588-3.588,0,1,1,68,false,stim,false,2,788.4000000357628,0,1,1,62338,task3,1825516,false,true,1965,image-keyboard-response,21
true,30,2,2,1,false,z,true,false,0.0-2.0-0.65-0.589-3.589,0,1,1,68,false,stim,false,0,2183.800000011921,0,0,0,62338,task3,1829215,false,false,1968,image-keyboard-response,22
