answered,blockNum,choice,condition,corResp,correct,correct_response,explo,fb,internal_node_id,isStable_1,isStable_2,isStable_3,key_press,newBlock,part,persev,persevResp,rt,sessNum,stableAS,stimulus,subject,task,time_elapsed,training,trap,trial_index,trial_type,trialsInBlock
true,1,0,0,0,true,q,false,true,0.0-2.0-0.0-0.0-3.0,0,0,0,81,true,stim,false,-1,687.7999999523163,2,0,1,62338,task2,136301,false,false,100,image-keyboard-response,1
true,1,1,0,2,false,d,true,false,0.0-2.0-0.0-0.1-3.1,0,0,0,90,false,stim,false,-1,584.6000000238419,2,0,2,62338,task2,138423,false,false,103,image-keyboard-response,2
true,1,2,0,2,true,d,false,true,0.0-2.0-0.0-0.2-3.2,0,0,0,68,false,stim,false,-1,555.8999999761581,2,0,2,62338,task2,140502,false,false,106,image-keyboard-response,3
true,1,0,0,0,true,q,false,true,0.0-2.0-0.0-0.3-3.3,0,0,0,81,false,stim,false,-1,379.89999997615814,2,0,1,62338,task2,142402,false,false,109,image-keyboard-response,4
true,1,1,0,2,false,d,true,false,0.0-2.0-0.0-0.4-3.4,0,0,0,90,false,stim,false,-1,463.1999999284744,2,0,0,62338,task2,144377,false,false,112,image-keyboard-response,5
true,1,0,0,0,true,q,false,false,0.0-2.0-0.0-0.5-3.5,0,0,0,81,false,stim,false,-1,675.8999999761581,2,0,1,62338,task2,146568,false,true,115,image-keyboard-response,6
true,1,0,0,2,false,d,true,false,0.0-2.0-0.0-0.6-3.6,0,0,0,81,false,stim,false,-1,1286.7999999523163,2,0,0,62338,task2,149376,false,false,118,image-keyboard-response,7
true,1,2,0,2,true,d,false,true,0.0-2.0-0.0-0.7-3.7,0,0,0,68,false,stim,false,-1,478.8000000715256,2,0,2,62338,task2,151390,false,false,121,image-keyboard-response,8
true,1,2,0,2,true,d,false,false,0.0-2.0-0.0-0.8-3.8,0,0,0,68,false,stim,false,-1,2598.5,2,0,0,62338,task2,155519,false,true,124,image-keyboard-response,9
true,1,1,0,2,false,d,true,false,0.0-2.0-0.1-0.9-3.9,0,0,0,90,false,stim,false,-1,423.6999999284744,2,0,0,62338,task2,157461,false,false,127,image-keyboard-response,10
true,1,2,0,2,true,d,false,true,0.0-2.0-0.1-0.10-3.10,0,0,0,68,false,stim,false,-1,883.0,2,0,2,62338,task2,159857,false,false,130,image-keyboard-response,11
true,1,0,0,0,true,q,false,true,0.0-2.0-0.1-0.11-3.11,0,0,0,81,false,stim,false,-1,744.6000000238419,2,0,1,62338,task2,162114,false,false,133,image-keyboard-response,12
true,1,2,0,2,true,d,false,true,0.0-2.0-0.1-0.12-3.12,0,0,0,68,false,stim,false,-1,598.2000000476837,2,0,2,62338,task2,164246,false,false,136,image-keyboard-response,13
true,1,2,0,2,true,d,false,true,0.0-2.0-0.1-0.13-3.13,0,0,0,68,false,stim,false,-1,477.8000000715256,2,0,2,62338,task2,166234,false,false,139,image-keyboard-response,14
true,1,0,0,0,true,q,false,true,0.0-2.0-0.1-0.14-3.14,0,0,0,81,false,stim,false,-1,1099.1999999284744,2,0,1,62338,task2,168846,false,false,142,image-keyboard-response,15
true,1,1,0,2,false,d,true,false,0.0-2.0-0.1-0.15-3.15,0,0,0,90,false,stim,false,-1,669.1999999284744,2,0,0,62338,task2,171022,false,false,145,image-keyboard-response,16
true,1,0,0,0,true,q,false,false,0.0-2.0-0.1-0.16-3.16,0,0,0,81,false,stim,false,-1,738.3999999761581,2,0,1,62338,task2,173294,false,true,148,image-keyboard-response,17
true,1,0,0,2,false,d,true,false,0.0-2.0-0.1-0.17-3.17,0,0,0,81,false,stim,false,-1,845.8999999761581,2,0,0,62338,task2,175666,false,false,151,image-keyboard-response,18
true,1,2,0,2,true,d,false,true,0.0-2.0-0.2-0.18-3.18,0,0,0,68,false,stim,false,-1,575.7999999523163,2,0,2,62338,task2,177774,false,false,154,image-keyboard-response,19
true,1,1,0,2,false,d,true,false,0.0-2.0-0.2-0.19-3.19,0,0,0,90,false,stim,false,-1,780.3999999761581,2,0,0,62338,task2,180072,false,false,157,image-keyboard-response,20
true,1,2,0,2,true,d,false,true,0.0-2.0-0.2-0.20-3.20,0,0,0,68,false,stim,false,-1,852.1999999284744,2,0,2,62338,task2,182433,false,false,160,image-keyboard-response,21
true,1,0,0,0,true,q,false,true,0.0-2.0-0.2-0.21-3.21,0,0,0,81,false,stim,false,-1,557.3000000715256,2,0,1,62338,task2,184508,false,false,163,image-keyboard-response,22
true,1,2,0,2,true,d,false,true,0.0-2.0-0.2-0.22-3.22,0,0,0,68,false,stim,false,-1,1103.5,2,0,2,62338,task2,187140,false,false,166,image-keyboard-response,23
true,1,2,0,2,true,d,false,true,0.0-2.0-0.2-0.23-3.23,0,0,0,68,false,stim,false,-1,578.8999999761581,2,1,0,62338,task2,189248,false,false,169,image-keyboard-response,24
true,1,0,0,0,true,q,false,true,0.0-2.0-0.2-0.24-3.24,0,0,0,81,false,stim,false,-1,534.6000000238419,2,0,1,62338,task2,191305,false,false,172,image-keyboard-response,25
true,1,2,0,2,true,d,false,true,0.0-2.0-0.2-0.25-3.25,0,0,0,68,false,stim,false,-1,373.5,2,1,0,62338,task2,193200,false,false,175,image-keyboard-response,26
true,2,0,2,1,false,z,false,false,0.0-2.0-0.2-0.26-3.26,1,0,0,81,true,stim,true,0,377.6999999284744,2,0,1,62338,task2,195095,false,false,178,image-keyboard-response,1
true,2,2,2,1,false,z,true,false,0.0-2.0-0.3-0.27-3.27,1,0,0,68,false,stim,false,0,363.2000000476837,2,0,1,62338,task2,196968,false,false,181,image-keyboard-response,2
true,2,2,2,1,false,z,false,false,0.0-2.0-0.3-0.28-3.28,1,0,0,68,false,stim,true,2,529.1000000238419,2,0,2,62338,task2,199013,false,false,184,image-keyboard-response,3
true,2,0,2,1,false,z,false,false,0.0-2.0-0.3-0.29-3.29,1,0,0,81,false,stim,true,0,415.89999997615814,2,0,1,62338,task2,200951,false,false,187,image-keyboard-response,4
true,2,2,2,2,true,d,false,true,0.0-2.0-0.3-0.30-3.30,1,0,0,68,false,stim,false,2,699.0,2,1,0,62338,task2,203163,false,false,190,image-keyboard-response,5
true,2,1,2,1,true,z,false,true,0.0-2.0-0.3-0.31-3.31,1,0,0,90,false,stim,false,2,710.6999999284744,2,0,2,62338,task2,205400,false,false,193,image-keyboard-response,6
true,2,1,2,1,true,z,false,true,0.0-2.0-0.3-0.32-3.32,1,0,0,90,false,stim,false,2,409.89999997615814,2,0,2,62338,task2,207331,false,false,196,image-keyboard-response,7
true,2,2,2,2,true,d,false,true,0.0-2.0-0.3-0.33-3.33,1,0,0,68,false,stim,false,2,684.4000000953674,2,1,0,62338,task2,209532,false,false,199,image-keyboard-response,8
true,2,2,2,1,false,z,true,false,0.0-2.0-0.3-0.34-3.34,1,0,0,68,false,stim,false,0,1832.0,2,0,1,62338,task2,212889,false,false,202,image-keyboard-response,9
true,2,2,2,2,true,d,false,true,0.0-2.0-0.3-0.35-3.35,1,0,0,68,false,stim,false,2,696.5,2,1,0,62338,task2,215110,false,false,205,image-keyboard-response,10
true,2,1,2,1,true,z,false,true,0.0-2.0-0.4-0.36-3.36,1,0,0,90,false,stim,false,0,1192.3000000715256,2,0,1,62338,task2,217825,false,false,208,image-keyboard-response,11
true,2,1,2,1,true,z,false,true,0.0-2.0-0.4-0.37-3.37,1,0,0,90,false,stim,false,0,415.39999997615814,2,0,1,62338,task2,219756,false,false,211,image-keyboard-response,12
true,2,1,2,1,true,z,false,true,0.0-2.0-0.4-0.38-3.38,1,0,0,90,false,stim,false,2,429.2000000476837,2,0,2,62338,task2,221696,false,false,214,image-keyboard-response,13
true,2,1,2,1,true,z,false,true,0.0-2.0-0.4-0.39-3.39,1,0,0,90,false,stim,false,2,459.8000000715256,2,0,2,62338,task2,223666,false,false,217,image-keyboard-response,14
true,2,1,2,1,true,z,false,true,0.0-2.0-0.4-0.40-3.40,1,0,0,90,false,stim,false,2,367.60000002384186,2,0,2,62338,task2,225566,false,false,220,image-keyboard-response,15
true,2,2,2,2,true,d,false,true,0.0-2.0-0.4-0.41-3.41,1,0,0,68,false,stim,false,2,633.4000000953674,2,1,0,62338,task2,227721,false,false,223,image-keyboard-response,16
true,2,1,2,1,true,z,false,true,0.0-2.0-0.4-0.42-3.42,1,0,0,90,false,stim,false,0,362.3000000715256,2,0,1,62338,task2,229592,false,false,226,image-keyboard-response,17
true,2,2,2,2,true,d,false,true,0.0-2.0-0.4-0.43-3.43,1,0,0,68,false,stim,false,2,491.60000002384186,2,1,0,62338,task2,231596,false,false,229,image-keyboard-response,18
true,2,2,2,2,true,d,false,true,0.0-2.0-0.4-0.44-3.44,1,0,0,68,false,stim,false,2,518.1000000238419,2,1,0,62338,task2,233630,false,false,232,image-keyboard-response,19
true,2,2,2,2,true,d,false,true,0.0-2.0-0.5-0.45-3.45,1,0,0,68,false,stim,false,2,423.0,2,1,0,62338,task2,235574,false,false,235,image-keyboard-response,20
true,2,1,2,1,true,z,false,false,0.0-2.0-0.5-0.46-3.46,1,0,0,90,false,stim,false,0,692.7000000476837,2,0,1,62338,task2,237786,false,true,238,image-keyboard-response,21
true,2,1,2,1,true,z,false,true,0.0-2.0-0.5-0.47-3.47,1,0,0,90,false,stim,false,2,357.39999997615814,2,0,2,62338,task2,239659,false,false,241,image-keyboard-response,22
true,2,1,2,1,true,z,false,true,0.0-2.0-0.5-0.48-3.48,1,0,0,90,false,stim,false,0,333.10000002384186,2,0,1,62338,task2,241498,false,false,244,image-keyboard-response,23
true,2,1,2,1,true,z,false,true,0.0-2.0-0.5-0.49-3.49,1,0,0,90,false,stim,false,2,847.6000000238419,2,0,2,62338,task2,243852,false,false,247,image-keyboard-response,24
true,2,2,2,2,true,d,false,false,0.0-2.0-0.5-0.50-3.50,1,0,0,68,false,stim,false,2,563.8000000715256,2,1,0,62338,task2,245925,false,true,250,image-keyboard-response,25
true,2,1,2,1,true,z,false,false,0.0-2.0-0.5-0.51-3.51,1,0,0,90,false,stim,false,0,423.2000000476837,2,0,1,62338,task2,247857,false,true,253,image-keyboard-response,26
true,2,1,2,1,true,z,false,false,0.0-2.0-0.5-0.52-3.52,1,0,0,90,false,stim,false,2,533.5999999046326,2,1,2,62338,task2,249907,false,true,256,image-keyboard-response,27
true,2,2,2,2,true,d,false,true,0.0-2.0-0.5-0.53-3.53,1,0,0,68,false,stim,false,2,864.0,2,0,0,62338,task2,252295,false,false,259,image-keyboard-response,28
true,2,1,2,1,true,z,false,true,0.0-2.0-0.6-0.54-3.54,1,0,0,90,false,stim,false,0,418.7000000476837,2,0,1,62338,task2,254230,false,false,262,image-keyboard-response,29
true,2,2,2,2,true,d,false,true,0.0-2.0-0.6-0.55-3.55,1,0,0,68,false,stim,false,2,508.10000002384186,2,0,0,62338,task2,256249,false,false,265,image-keyboard-response,30
true,2,1,2,1,true,z,false,true,0.0-2.0-0.6-0.56-3.56,1,0,0,90,false,stim,false,2,367.39999997615814,2,1,2,62338,task2,258130,false,false,268,image-keyboard-response,31
true,3,2,2,0,false,q,false,false,0.0-2.0-0.6-0.57-3.57,0,0,1,68,true,stim,true,2,451.90000009536743,2,0,0,62338,task2,260090,false,false,271,image-keyboard-response,1
true,3,1,2,2,false,d,false,false,0.0-2.0-0.6-0.58-3.58,0,0,1,90,false,stim,true,1,347.8000000715256,2,0,1,62338,task2,261970,false,false,274,image-keyboard-response,2
true,3,1,2,1,true,z,false,true,0.0-2.0-0.6-0.59-3.59,0,0,1,90,false,stim,false,1,384.3000000715256,2,1,2,62338,task2,263868,false,false,277,image-keyboard-response,3
true,3,2,2,0,false,q,false,false,0.0-2.0-0.6-0.60-3.60,0,0,1,68,false,stim,true,2,523.8000000715256,2,0,0,62338,task2,265898,false,false,280,image-keyboard-response,4
true,3,1,2,1,true,z,false,true,0.0-2.0-0.6-0.61-3.61,0,0,1,90,false,stim,false,1,594.3999999761581,2,1,2,62338,task2,268001,false,false,283,image-keyboard-response,5
true,3,1,2,2,false,d,false,false,0.0-2.0-0.6-0.62-3.62,0,0,1,90,false,stim,true,1,497.39999997615814,2,0,1,62338,task2,270026,false,false,286,image-keyboard-response,6
true,3,2,2,2,true,d,false,false,0.0-2.0-0.7-0.63-3.63,0,0,1,68,false,stim,false,1,663.7999999523163,2,0,1,62338,task2,272225,false,true,289,image-keyboard-response,7
true,3,0,2,0,true,q,false,true,0.0-2.0-0.7-0.64-3.64,0,0,1,81,false,stim,false,2,1153.8000000715256,2,0,0,62338,task2,274897,false,false,292,image-keyboard-response,8
true,3,0,2,2,false,d,true,false,0.0-2.0-0.7-0.65-3.65,0,0,1,81,false,stim,false,1,552.6000000238419,2,0,1,62338,task2,276972,false,false,295,image-keyboard-response,9
true,3,1,2,1,true,z,false,true,0.0-2.0-0.7-0.66-3.66,0,0,1,90,false,stim,false,1,455.60000002384186,2,1,2,62338,task2,278942,false,false,298,image-keyboard-response,10
true,3,1,2,1,true,z,false,false,0.0-2.0-0.7-0.67-3.67,0,0,1,90,false,stim,false,1,411.39999997615814,2,1,2,62338,task2,280871,false,true,301,image-keyboard-response,11
true,3,0,2,2,false,d,true,false,0.0-2.0-0.7-0.68-3.68,0,0,1,81,false,stim,false,1,1627.3000000715256,2,0,1,62338,task2,284026,false,false,304,image-keyboard-response,12
true,3,0,2,0,true,q,false,false,0.0-2.0-0.7-0.69-3.69,0,0,1,81,false,stim,false,2,663.5,2,0,0,62338,task2,286210,false,true,307,image-keyboard-response,13
true,3,0,2,0,true,q,false,true,0.0-2.0-0.7-0.70-3.70,0,0,1,81,false,stim,false,2,554.4000000953674,2,0,0,62338,task2,288274,false,false,310,image-keyboard-response,14
true,3,1,2,1,true,z,false,true,0.0-2.0-0.7-0.71-3.71,0,0,1,90,false,stim,false,1,526.1000000238419,2,1,2,62338,task2,290306,false,false,313,image-keyboard-response,15
true,3,1,2,1,true,z,false,true,0.0-2.0-0.8-0.72-3.72,0,0,1,90,false,stim,false,1,621.7999999523163,2,1,2,62338,task2,292460,false,false,316,image-keyboard-response,16
true,3,1,2,1,true,z,false,true,0.0-2.0-0.8-0.73-3.73,0,0,1,90,false,stim,false,1,440.60000002384186,2,1,2,62338,task2,294423,false,false,319,image-keyboard-response,17
true,3,1,2,2,false,d,false,false,0.0-2.0-0.8-0.74-3.74,0,0,1,90,false,stim,true,1,847.2999999523163,2,0,1,62338,task2,296778,false,false,322,image-keyboard-response,18
true,3,1,2,2,false,d,false,false,0.0-2.0-0.8-0.75-3.75,0,0,1,90,false,stim,true,1,664.1999999284744,2,0,1,62338,task2,298970,false,false,325,image-keyboard-response,19
true,3,0,2,0,true,q,false,true,0.0-2.0-0.8-0.76-3.76,0,0,1,81,false,stim,false,2,536.8000000715256,2,0,0,62338,task2,301023,false,false,328,image-keyboard-response,20
true,3,0,2,0,true,q,false,true,0.0-2.0-0.8-0.77-3.77,0,0,1,81,false,stim,false,2,362.89999997615814,2,0,0,62338,task2,302918,false,false,331,image-keyboard-response,21
true,3,2,2,2,true,d,false,true,0.0-2.0-0.8-0.78-3.78,0,0,1,68,false,stim,false,1,704.7999999523163,2,0,1,62338,task2,305152,false,false,334,image-keyboard-response,22
true,3,1,2,1,true,z,false,true,0.0-2.0-0.8-0.79-3.79,0,0,1,90,false,stim,false,1,488.7000000476837,2,1,2,62338,task2,307161,false,false,337,image-keyboard-response,23
true,3,0,2,0,true,q,false,true,0.0-2.0-0.8-0.80-3.80,0,0,1,81,false,stim,false,2,477.39999997615814,2,0,0,62338,task2,309156,false,false,340,image-keyboard-response,24
true,3,1,2,1,true,z,false,true,0.0-2.0-0.9-0.81-3.81,0,0,1,90,false,stim,false,1,728.2000000476837,2,1,2,62338,task2,311402,false,false,343,image-keyboard-response,25
true,3,0,2,0,true,q,false,true,0.0-2.0-0.9-0.82-3.82,0,0,1,81,false,stim,false,2,390.2999999523163,2,0,0,62338,task2,313321,false,false,346,image-keyboard-response,26
true,3,2,2,2,true,d,false,true,0.0-2.0-0.9-0.83-3.83,0,0,1,68,false,stim,false,1,713.8999999761581,2,0,1,62338,task2,315554,false,false,349,image-keyboard-response,27
true,3,0,2,0,true,q,false,true,0.0-2.0-0.9-0.84-3.84,0,0,1,81,false,stim,false,2,1209.3000000715256,2,0,0,62338,task2,318279,false,false,352,image-keyboard-response,28
true,3,1,2,1,true,z,false,true,0.0-2.0-0.9-0.85-3.85,0,0,1,90,false,stim,false,1,496.40000009536743,2,1,2,62338,task2,320293,false,false,355,image-keyboard-response,29
true,3,2,2,2,true,d,false,true,0.0-2.0-0.9-0.86-3.86,0,0,1,68,false,stim,false,1,416.0,2,0,1,62338,task2,322220,false,false,358,image-keyboard-response,30
true,3,0,2,0,true,q,false,true,0.0-2.0-0.9-0.87-3.87,0,0,1,81,false,stim,false,2,505.89999997615814,2,0,0,62338,task2,324241,false,false,361,image-keyboard-response,31
true,3,2,2,2,true,d,false,true,0.0-2.0-0.9-0.88-3.88,0,0,1,68,false,stim,false,1,1021.0,2,0,1,62338,task2,326777,false,false,364,image-keyboard-response,32
true,3,1,2,1,true,z,false,true,0.0-2.0-0.9-0.89-3.89,0,0,1,90,false,stim,false,1,758.6000000238419,2,0,2,62338,task2,329077,false,false,367,image-keyboard-response,33
true,3,1,2,1,true,z,false,true,0.0-2.0-0.10-0.90-3.90,0,0,1,90,false,stim,false,1,450.5,2,0,2,62338,task2,331044,false,false,370,image-keyboard-response,34
true,4,0,1,2,false,d,false,false,0.0-2.0-0.10-0.91-3.91,0,0,0,81,true,stim,true,0,625.9000000953674,2,0,0,62338,task2,333198,false,false,373,image-keyboard-response,1
true,4,0,1,2,false,d,false,false,0.0-2.0-0.10-0.92-3.92,0,0,0,81,false,stim,true,0,454.59999990463257,2,0,0,62338,task2,335167,false,false,376,image-keyboard-response,2
true,4,2,1,1,false,z,false,false,0.0-2.0-0.10-0.93-3.93,0,0,0,68,false,stim,true,2,764.3999999761581,2,0,1,62338,task2,337453,false,false,379,image-keyboard-response,3
true,4,1,1,2,false,d,false,false,0.0-2.0-0.10-0.94-3.94,0,0,0,90,false,stim,true,1,551.0,2,0,2,62338,task2,339517,false,false,382,image-keyboard-response,4
true,4,1,1,2,false,d,true,false,0.0-2.0-0.10-0.95-3.95,0,0,0,90,false,stim,false,0,806.1000000238419,2,0,0,62338,task2,341846,false,false,385,image-keyboard-response,5
true,4,0,1,1,false,z,true,false,0.0-2.0-0.10-0.96-3.96,0,0,0,81,false,stim,false,2,1890.1000000238419,2,0,1,62338,task2,345260,false,false,388,image-keyboard-response,6
true,4,1,1,1,true,z,false,true,0.0-2.0-0.10-0.97-3.97,0,0,0,90,false,stim,false,2,401.7000000476837,2,0,1,62338,task2,347182,false,false,391,image-keyboard-response,7
true,4,0,1,2,false,d,true,false,0.0-2.0-0.10-0.98-3.98,0,0,0,81,false,stim,false,1,889.8999999761581,2,0,2,62338,task2,349580,false,false,394,image-keyboard-response,8
true,4,1,1,1,true,z,false,true,0.0-2.0-0.11-0.99-3.99,0,0,0,90,false,stim,false,2,646.8999999761581,2,0,1,62338,task2,351748,false,false,397,image-keyboard-response,9
true,4,1,1,1,true,z,false,true,0.0-2.0-0.11-0.100-3.100,0,0,0,90,false,stim,false,2,655.6999999284744,2,0,1,62338,task2,353919,false,false,400,image-keyboard-response,10
true,4,1,1,1,true,z,false,false,0.0-2.0-0.11-0.101-3.101,0,0,0,90,false,stim,false,2,511.6999999284744,2,0,1,62338,task2,355950,false,true,403,image-keyboard-response,11
true,4,2,1,2,true,d,false,true,0.0-2.0-0.11-0.102-3.102,0,0,0,68,false,stim,false,1,652.6000000238419,2,0,2,62338,task2,358115,false,false,406,image-keyboard-response,12
true,4,2,1,2,true,d,false,true,0.0-2.0-0.11-0.103-3.103,0,0,0,68,false,stim,false,1,387.60000002384186,2,0,2,62338,task2,360028,false,false,409,image-keyboard-response,13
true,4,2,1,2,true,d,false,true,0.0-2.0-0.11-0.104-3.104,0,0,0,68,false,stim,false,1,421.2999999523163,2,0,2,62338,task2,361970,false,false,412,image-keyboard-response,14
true,4,0,1,2,false,d,false,false,0.0-2.0-0.11-0.105-3.105,0,0,0,81,false,stim,true,0,904.2999999523163,2,0,0,62338,task2,364396,false,false,415,image-keyboard-response,15
true,4,1,1,2,false,d,true,false,0.0-2.0-0.11-0.106-3.106,0,0,0,90,false,stim,false,0,446.60000002384186,2,0,0,62338,task2,366352,false,false,418,image-keyboard-response,16
true,4,2,1,2,true,d,false,true,0.0-2.0-0.11-0.107-3.107,0,0,0,68,false,stim,false,0,1042.8999999761581,2,0,0,62338,task2,368920,false,false,421,image-keyboard-response,17
true,4,2,1,1,false,z,false,false,0.0-2.0-0.12-0.108-3.108,0,0,0,68,false,stim,true,2,1360.6000000238419,2,0,1,62338,task2,371795,false,false,424,image-keyboard-response,18
true,4,2,1,2,true,d,false,true,0.0-2.0-0.12-0.109-3.109,0,0,0,68,false,stim,false,0,421.39999997615814,2,0,0,62338,task2,373739,false,false,427,image-keyboard-response,19
true,4,2,1,2,true,d,false,true,0.0-2.0-0.12-0.110-3.110,0,0,0,68,false,stim,false,1,457.5,2,0,2,62338,task2,375715,false,false,430,image-keyboard-response,20
true,4,0,1,1,false,z,true,true,0.0-2.0-0.12-0.111-3.111,0,0,0,81,false,stim,false,2,1298.0,2,0,1,62338,task2,378529,false,true,433,image-keyboard-response,21
true,4,0,1,1,false,z,true,false,0.0-2.0-0.12-0.112-3.112,0,0,0,81,false,stim,false,2,391.10000002384186,2,0,1,62338,task2,380452,false,false,436,image-keyboard-response,22
true,4,2,1,2,true,d,false,true,0.0-2.0-0.12-0.113-3.113,0,0,0,68,false,stim,false,1,514.4000000953674,2,0,2,62338,task2,382495,false,false,439,image-keyboard-response,23
true,4,2,1,2,true,d,false,true,0.0-2.0-0.12-0.114-3.114,0,0,0,68,false,stim,false,1,535.7000000476837,2,0,2,62338,task2,384561,false,false,442,image-keyboard-response,24
true,4,2,1,2,true,d,false,true,0.0-2.0-0.12-0.115-3.115,0,0,0,68,false,stim,false,0,856.9000000953674,2,0,0,62338,task2,386929,false,false,445,image-keyboard-response,25
true,4,2,1,2,true,d,false,false,0.0-2.0-0.12-0.116-3.116,0,0,0,68,false,stim,false,0,404.89999997615814,2,0,0,62338,task2,388866,false,true,448,image-keyboard-response,26
true,4,2,1,2,true,d,false,true,0.0-2.0-0.13-0.117-3.117,0,0,0,68,false,stim,false,1,665.2999999523163,2,0,2,62338,task2,391057,false,false,451,image-keyboard-response,27
true,4,2,1,2,true,d,false,true,0.0-2.0-0.13-0.118-3.118,0,0,0,68,false,stim,false,0,417.89999997615814,2,0,0,62338,task2,393017,false,false,454,image-keyboard-response,28
true,4,0,1,1,false,z,true,false,0.0-2.0-0.13-0.119-3.119,0,0,0,81,false,stim,false,2,750.7000000476837,2,0,1,62338,task2,395283,false,false,457,image-keyboard-response,29
true,4,2,1,2,true,d,false,false,0.0-2.0-0.13-0.120-3.120,0,0,0,68,false,stim,false,0,496.3000000715256,2,0,0,62338,task2,397292,false,true,460,image-keyboard-response,30
true,4,2,1,2,true,d,false,true,0.0-2.0-0.13-0.121-3.121,0,0,0,68,false,stim,false,0,659.5,2,0,0,62338,task2,399467,false,false,463,image-keyboard-response,31
true,4,1,1,1,true,z,false,true,0.0-2.0-0.13-0.122-3.122,0,0,0,90,false,stim,false,2,888.1999999284744,2,0,1,62338,task2,401880,false,false,466,image-keyboard-response,32
true,4,2,1,2,true,d,false,true,0.0-2.0-0.13-0.123-3.123,0,0,0,68,false,stim,false,1,460.0,2,0,2,62338,task2,403861,false,false,469,image-keyboard-response,33
true,4,1,1,1,true,z,false,true,0.0-2.0-0.13-0.124-3.124,0,0,0,90,false,stim,false,2,1071.8999999761581,2,0,1,62338,task2,406450,false,false,472,image-keyboard-response,34
true,5,2,1,1,false,z,false,true,0.0-2.0-0.13-0.125-3.125,0,0,0,68,true,stim,true,2,567.7000000476837,2,0,2,62338,task2,408553,false,true,475,image-keyboard-response,1
true,5,1,1,2,false,d,false,false,0.0-2.0-0.14-0.126-3.126,0,0,0,90,false,stim,true,1,1190.5,2,0,1,62338,task2,411268,false,false,478,image-keyboard-response,2
true,5,2,1,1,false,z,false,true,0.0-2.0-0.14-0.127-3.127,0,0,0,68,false,stim,true,2,492.40000009536743,2,0,2,62338,task2,413282,false,true,481,image-keyboard-response,3
true,5,2,1,1,false,z,false,false,0.0-2.0-0.14-0.128-3.128,0,0,0,68,false,stim,true,2,462.2000000476837,2,0,2,62338,task2,415273,false,false,484,image-keyboard-response,4
true,5,2,1,1,false,z,false,false,0.0-2.0-0.14-0.129-3.129,0,0,0,68,false,stim,true,2,481.59999990463257,2,0,0,62338,task2,417279,false,false,487,image-keyboard-response,5
true,5,2,1,1,false,z,false,false,0.0-2.0-0.14-0.130-3.130,0,0,0,68,false,stim,true,2,465.10000002384186,2,0,0,62338,task2,419261,false,false,490,image-keyboard-response,6
true,5,0,1,1,false,z,true,false,0.0-2.0-0.14-0.131-3.131,0,0,0,81,false,stim,false,2,1019.5,2,0,2,62338,task2,421804,false,false,493,image-keyboard-response,7
true,5,0,1,2,false,d,true,false,0.0-2.0-0.14-0.132-3.132,0,0,0,81,false,stim,false,1,1262.3999999761581,2,0,1,62338,task2,424609,false,false,496,image-keyboard-response,8
true,5,1,1,1,true,z,false,true,0.0-2.0-0.14-0.133-3.133,0,0,0,90,false,stim,false,2,1136.3999999761581,2,0,0,62338,task2,427284,false,false,499,image-keyboard-response,9
true,5,2,1,2,true,d,false,true,0.0-2.0-0.14-0.134-3.134,0,0,0,68,false,stim,false,1,628.7999999523163,2,0,1,62338,task2,429435,false,false,502,image-keyboard-response,10
true,5,1,1,1,true,z,false,true,0.0-2.0-0.15-0.135-3.135,0,0,0,90,false,stim,false,2,1812.2999999523163,2,0,0,62338,task2,432777,false,false,505,image-keyboard-response,11
true,5,1,1,1,true,z,false,true,0.0-2.0-0.15-0.136-3.136,0,0,0,90,false,stim,false,2,415.5,2,0,0,62338,task2,434718,false,false,508,image-keyboard-response,12
true,5,2,1,2,true,d,false,true,0.0-2.0-0.15-0.137-3.137,0,0,0,68,false,stim,false,1,467.60000002384186,2,0,1,62338,task2,436714,false,false,511,image-keyboard-response,13
true,5,0,1,1,false,z,true,false,0.0-2.0-0.15-0.138-3.138,0,0,0,81,false,stim,false,2,570.6000000238419,2,0,2,62338,task2,438815,false,false,514,image-keyboard-response,14
true,5,1,1,1,true,z,false,false,0.0-2.0-0.15-0.139-3.139,0,0,0,90,false,stim,false,2,850.6000000238419,2,0,0,62338,task2,441180,false,true,517,image-keyboard-response,15
true,5,2,1,2,true,d,false,false,0.0-2.0-0.15-0.140-3.140,0,0,0,68,false,stim,false,1,520.3999999761581,2,0,1,62338,task2,443228,false,true,520,image-keyboard-response,16
true,5,2,1,2,true,d,false,true,0.0-2.0-0.15-0.141-3.141,0,0,0,68,false,stim,false,1,824.4000000953674,2,0,1,62338,task2,445566,false,false,523,image-keyboard-response,17
true,5,1,1,1,true,z,false,true,0.0-2.0-0.15-0.142-3.142,0,0,0,90,false,stim,false,2,1109.8000000715256,2,0,2,62338,task2,448208,false,false,526,image-keyboard-response,18
true,5,1,1,1,true,z,false,true,0.0-2.0-0.15-0.143-3.143,0,0,0,90,false,stim,false,2,413.0,2,0,2,62338,task2,450136,false,false,529,image-keyboard-response,19
true,5,2,1,2,true,d,false,true,0.0-2.0-0.16-0.144-3.144,0,0,0,68,false,stim,false,1,571.1000000238419,2,0,1,62338,task2,452222,false,false,532,image-keyboard-response,20
true,5,1,1,1,true,z,false,true,0.0-2.0-0.16-0.145-3.145,0,0,0,90,false,stim,false,2,564.0999999046326,2,0,2,62338,task2,454323,false,false,535,image-keyboard-response,21
true,5,2,1,2,true,d,false,true,0.0-2.0-0.16-0.146-3.146,0,0,0,68,false,stim,false,1,669.0999999046326,2,0,1,62338,task2,456519,false,false,538,image-keyboard-response,22
true,5,2,1,2,true,d,false,true,0.0-2.0-0.16-0.147-3.147,0,0,0,68,false,stim,false,1,487.7999999523163,2,0,1,62338,task2,458519,false,false,541,image-keyboard-response,23
true,5,1,1,1,true,z,false,true,0.0-2.0-0.16-0.148-3.148,0,0,0,90,false,stim,false,2,572.3999999761581,2,0,2,62338,task2,460597,false,false,544,image-keyboard-response,24
true,5,1,1,1,true,z,false,true,0.0-2.0-0.16-0.149-3.149,0,0,0,90,false,stim,false,2,481.7999999523163,2,0,0,62338,task2,462603,false,false,547,image-keyboard-response,25
true,5,1,1,1,true,z,false,true,0.0-2.0-0.16-0.150-3.150,0,0,0,90,false,stim,false,2,461.7000000476837,2,0,0,62338,task2,464578,false,false,550,image-keyboard-response,26
true,5,1,1,1,true,z,false,true,0.0-2.0-0.16-0.151-3.151,0,0,0,90,false,stim,false,2,702.7000000476837,2,0,0,62338,task2,466806,false,false,553,image-keyboard-response,27
true,5,1,1,1,true,z,false,false,0.0-2.0-0.16-0.152-3.152,0,0,0,90,false,stim,false,2,1229.7999999523163,2,0,2,62338,task2,469548,false,true,556,image-keyboard-response,28
true,5,1,1,1,true,z,false,true,0.0-2.0-0.17-0.153-3.153,0,0,0,90,false,stim,false,2,698.3000000715256,2,0,0,62338,task2,471759,false,false,559,image-keyboard-response,29
true,5,2,1,2,true,d,false,true,0.0-2.0-0.17-0.154-3.154,0,0,0,68,false,stim,false,1,622.8000000715256,2,0,1,62338,task2,473905,false,false,562,image-keyboard-response,30
true,5,1,1,1,true,z,false,true,0.0-2.0-0.17-0.155-3.155,0,0,0,90,false,stim,false,2,622.9000000953674,2,0,0,62338,task2,476056,false,false,565,image-keyboard-response,31
true,5,2,1,2,true,d,false,true,0.0-2.0-0.17-0.156-3.156,0,0,0,68,false,stim,false,1,1508.8999999761581,2,0,1,62338,task2,479093,false,false,568,image-keyboard-response,32
true,5,1,1,1,true,z,false,true,0.0-2.0-0.17-0.157-3.157,0,0,0,90,false,stim,false,2,569.1999999284744,2,0,2,62338,task2,481197,false,false,571,image-keyboard-response,33
true,5,1,1,1,true,z,false,true,0.0-2.0-0.17-0.158-3.158,0,0,0,90,false,stim,false,2,738.6999999284744,2,1,0,62338,task2,483457,false,false,574,image-keyboard-response,34
true,5,1,1,1,true,z,false,true,0.0-2.0-0.17-0.159-3.159,0,0,0,90,false,stim,false,2,959.1000000238419,2,0,2,62338,task2,485937,false,false,577,image-keyboard-response,35
true,5,1,1,1,true,z,false,true,0.0-2.0-0.17-0.160-3.160,0,0,0,90,false,stim,false,2,498.3000000715256,2,0,2,62338,task2,487970,false,false,580,image-keyboard-response,36
true,6,2,2,0,false,q,false,false,0.0-2.0-0.17-0.161-3.161,1,0,0,68,true,stim,true,2,727.8999999761581,2,0,1,62338,task2,490232,false,false,583,image-keyboard-response,1
true,6,1,2,1,true,z,false,true,0.0-2.0-0.18-0.162-3.162,1,0,0,90,false,stim,false,1,494.39999997615814,2,1,0,62338,task2,492255,false,false,586,image-keyboard-response,2
true,6,1,2,2,false,d,false,false,0.0-2.0-0.18-0.163-3.163,1,0,0,90,false,stim,true,1,742.0,2,0,2,62338,task2,494509,false,false,589,image-keyboard-response,3
true,6,1,2,2,false,d,false,false,0.0-2.0-0.18-0.164-3.164,1,0,0,90,false,stim,true,1,482.3000000715256,2,0,2,62338,task2,496527,false,false,592,image-keyboard-response,4
true,6,1,2,1,true,z,false,true,0.0-2.0-0.18-0.165-3.165,1,0,0,90,false,stim,false,1,698.0,2,1,0,62338,task2,498735,false,false,595,image-keyboard-response,5
true,6,0,2,2,false,d,true,false,0.0-2.0-0.18-0.166-3.166,1,0,0,81,false,stim,false,1,632.3999999761581,2,0,2,62338,task2,500895,false,false,598,image-keyboard-response,6
true,6,0,2,0,true,q,false,false,0.0-2.0-0.18-0.167-3.167,1,0,0,81,false,stim,false,2,974.1999999284744,2,0,1,62338,task2,503401,false,true,601,image-keyboard-response,7
true,6,1,2,0,false,q,true,false,0.0-2.0-0.18-0.168-3.168,1,0,0,90,false,stim,false,2,826.5999999046326,2,0,1,62338,task2,505745,false,false,604,image-keyboard-response,8
true,6,1,2,1,true,z,false,true,0.0-2.0-0.18-0.169-3.169,1,0,0,90,false,stim,false,1,816.6000000238419,2,1,0,62338,task2,508095,false,false,607,image-keyboard-response,9
true,6,2,2,0,false,q,false,false,0.0-2.0-0.18-0.170-3.170,1,0,0,68,false,stim,true,2,1133.0,2,0,1,62338,task2,510739,false,false,610,image-keyboard-response,10
true,6,1,2,0,false,q,true,false,0.0-2.0-0.19-0.171-3.171,1,0,0,90,false,stim,false,2,522.8000000715256,2,0,1,62338,task2,512775,false,false,613,image-keyboard-response,11
true,6,0,2,0,true,q,false,true,0.0-2.0-0.19-0.172-3.172,1,0,0,81,false,stim,false,2,665.8000000715256,2,0,1,62338,task2,514973,false,false,616,image-keyboard-response,12
true,6,2,2,2,true,d,false,true,0.0-2.0-0.19-0.173-3.173,1,0,0,68,false,stim,false,1,1021.7000000476837,2,0,2,62338,task2,517509,false,false,619,image-keyboard-response,13
true,6,2,2,2,true,d,false,false,0.0-2.0-0.19-0.174-3.174,1,0,0,68,false,stim,false,1,428.60000002384186,2,0,2,62338,task2,519471,false,true,622,image-keyboard-response,14
true,6,1,2,1,true,z,false,true,0.0-2.0-0.19-0.175-3.175,1,0,0,90,false,stim,false,1,839.3000000715256,2,1,0,62338,task2,521841,false,false,625,image-keyboard-response,15
true,6,1,2,1,true,z,false,true,0.0-2.0-0.19-0.176-3.176,1,0,0,90,false,stim,false,1,468.7999999523163,2,1,0,62338,task2,523843,false,false,628,image-keyboard-response,16
true,6,2,2,2,true,d,false,true,0.0-2.0-0.19-0.177-3.177,1,0,0,68,false,stim,false,1,481.0,2,0,2,62338,task2,525846,false,false,631,image-keyboard-response,17
true,6,0,2,0,true,q,false,true,0.0-2.0-0.19-0.178-3.178,1,0,0,81,false,stim,false,2,582.2999999523163,2,0,1,62338,task2,527946,false,false,634,image-keyboard-response,18
true,6,1,2,1,true,z,false,true,0.0-2.0-0.19-0.179-3.179,1,0,0,90,false,stim,false,1,1216.1999999284744,2,1,0,62338,task2,530695,false,false,637,image-keyboard-response,19
true,6,2,2,2,true,d,false,true,0.0-2.0-0.20-0.180-3.180,1,0,0,68,false,stim,false,1,535.6000000238419,2,0,2,62338,task2,532762,false,false,640,image-keyboard-response,20
true,6,1,2,1,true,z,false,true,0.0-2.0-0.20-0.181-3.181,1,0,0,90,false,stim,false,1,593.3999999761581,2,1,0,62338,task2,534877,false,false,643,image-keyboard-response,21
true,6,0,2,0,true,q,false,true,0.0-2.0-0.20-0.182-3.182,1,0,0,81,false,stim,false,2,2133.600000023842,2,0,1,62338,task2,538545,false,false,646,image-keyboard-response,22
true,6,0,2,0,true,q,false,true,0.0-2.0-0.20-0.183-3.183,1,0,0,81,false,stim,false,2,407.2000000476837,2,0,1,62338,task2,540475,false,false,649,image-keyboard-response,23
true,6,0,2,0,true,q,false,true,0.0-2.0-0.20-0.184-3.184,1,0,0,81,false,stim,false,2,349.0,2,0,1,62338,task2,542346,false,false,652,image-keyboard-response,24
true,6,2,2,2,true,d,false,true,0.0-2.0-0.20-0.185-3.185,1,0,0,68,false,stim,false,1,769.1999999284744,2,0,2,62338,task2,544625,false,false,655,image-keyboard-response,25
true,6,2,2,2,true,d,false,true,0.0-2.0-0.20-0.186-3.186,1,0,0,68,false,stim,false,1,444.60000002384186,2,0,2,62338,task2,546576,false,false,658,image-keyboard-response,26
true,6,1,2,1,true,z,false,true,0.0-2.0-0.20-0.187-3.187,1,0,0,90,false,stim,false,1,492.60000002384186,2,1,0,62338,task2,548587,false,false,661,image-keyboard-response,27
true,6,1,2,1,true,z,false,true,0.0-2.0-0.20-0.188-3.188,1,0,0,90,false,stim,false,1,527.5999999046326,2,1,0,62338,task2,550629,false,false,664,image-keyboard-response,28
true,6,0,2,0,true,q,false,true,0.0-2.0-0.21-0.189-3.189,1,0,0,81,false,stim,false,2,1847.8999999761581,2,0,1,62338,task2,554010,false,false,667,image-keyboard-response,29
true,6,2,2,2,true,d,false,true,0.0-2.0-0.21-0.190-3.190,1,0,0,68,false,stim,false,1,882.3999999761581,2,0,2,62338,task2,556428,false,false,670,image-keyboard-response,30
true,6,1,2,1,true,z,false,false,0.0-2.0-0.21-0.191-3.191,1,0,0,90,false,stim,false,1,1372.1999999284744,2,1,0,62338,task2,559318,false,true,673,image-keyboard-response,31
true,6,2,2,2,true,d,false,true,0.0-2.0-0.21-0.192-3.192,1,0,0,68,false,stim,false,1,601.0,2,0,2,62338,task2,561457,false,false,676,image-keyboard-response,32
true,6,2,2,2,true,d,false,true,0.0-2.0-0.21-0.193-3.193,1,0,0,68,false,stim,false,1,470.10000002384186,2,0,2,62338,task2,563451,false,false,679,image-keyboard-response,33
true,6,0,2,0,true,q,false,true,0.0-2.0-0.21-0.194-3.194,1,0,0,81,false,stim,false,2,426.6999999284744,2,0,1,62338,task2,565412,false,false,682,image-keyboard-response,34
true,7,1,2,1,true,z,false,true,0.0-2.0-0.21-0.195-3.195,1,0,0,90,true,stim,false,1,326.3000000715256,2,1,0,62338,task2,567250,false,false,685,image-keyboard-response,1
true,7,0,2,1,false,z,false,false,0.0-2.0-0.21-0.196-3.196,1,0,0,81,false,stim,true,0,896.4000000953674,2,0,1,62338,task2,569681,false,false,688,image-keyboard-response,2
true,7,0,2,1,false,z,true,false,0.0-2.0-0.21-0.197-3.197,1,0,0,81,false,stim,false,1,657.7999999523163,2,1,0,62338,task2,571851,false,false,691,image-keyboard-response,3
true,7,1,2,1,true,z,false,true,0.0-2.0-0.22-0.198-3.198,1,0,0,90,false,stim,false,1,430.2999999523163,2,1,0,62338,task2,573811,false,false,694,image-keyboard-response,4
true,7,2,2,0,false,q,false,true,0.0-2.0-0.22-0.199-3.199,1,0,0,68,false,stim,true,2,717.3999999761581,2,0,2,62338,task2,576059,false,true,697,image-keyboard-response,5
true,7,2,2,0,false,q,false,false,0.0-2.0-0.22-0.200-3.200,1,0,0,68,false,stim,true,2,503.60000002384186,2,0,2,62338,task2,578069,false,false,700,image-keyboard-response,6
true,7,1,2,1,true,z,false,false,0.0-2.0-0.22-0.201-3.201,1,0,0,90,false,stim,false,1,988.8000000715256,2,1,0,62338,task2,580585,false,true,703,image-keyboard-response,7
true,7,0,2,1,false,z,false,false,0.0-2.0-0.22-0.202-3.202,1,0,0,81,false,stim,true,0,693.7999999523163,2,0,1,62338,task2,582798,false,false,706,image-keyboard-response,8
true,7,2,2,1,false,z,true,false,0.0-2.0-0.22-0.203-3.203,1,0,0,68,false,stim,false,0,1590.7999999523163,2,0,1,62338,task2,585903,false,false,709,image-keyboard-response,9
true,7,2,2,1,false,z,true,false,0.0-2.0-0.22-0.204-3.204,1,0,0,68,false,stim,false,1,1579.7000000476837,2,1,0,62338,task2,589002,false,false,712,image-keyboard-response,10
true,7,1,2,1,true,z,false,true,0.0-2.0-0.22-0.205-3.205,1,0,0,90,false,stim,false,0,904.0,2,0,1,62338,task2,591425,false,false,715,image-keyboard-response,11
true,7,2,2,0,false,q,false,false,0.0-2.0-0.22-0.206-3.206,1,0,0,68,false,stim,true,2,503.40000009536743,2,0,2,62338,task2,593446,false,false,718,image-keyboard-response,12
true,7,1,2,1,true,z,false,true,0.0-2.0-0.23-0.207-3.207,1,0,0,90,false,stim,false,0,667.8999999761581,2,0,1,62338,task2,595637,false,false,721,image-keyboard-response,13
true,7,0,2,0,true,q,false,true,0.0-2.0-0.23-0.208-3.208,1,0,0,81,false,stim,false,2,1025.2999999523163,2,0,2,62338,task2,598185,false,false,724,image-keyboard-response,14
true,7,2,2,1,false,z,true,false,0.0-2.0-0.23-0.209-3.209,1,0,0,68,false,stim,false,1,711.5,2,1,0,62338,task2,600415,false,false,727,image-keyboard-response,15
true,7,0,2,0,true,q,false,false,0.0-2.0-0.23-0.210-3.210,1,0,0,81,false,stim,false,2,607.5,2,0,2,62338,task2,602540,false,true,730,image-keyboard-response,16
true,7,1,2,1,true,z,false,true,0.0-2.0-0.23-0.211-3.211,1,0,0,90,false,stim,false,0,855.1999999284744,2,0,1,62338,task2,604914,false,false,733,image-keyboard-response,17
true,7,0,2,0,true,q,false,true,0.0-2.0-0.23-0.212-3.212,1,0,0,81,false,stim,false,2,975.8999999761581,2,0,2,62338,task2,607398,false,false,736,image-keyboard-response,18
true,7,1,2,1,true,z,false,true,0.0-2.0-0.23-0.213-3.213,1,0,0,90,false,stim,false,0,517.0,2,0,1,62338,task2,609442,false,false,739,image-keyboard-response,19
true,7,0,2,1,false,z,true,false,0.0-2.0-0.23-0.214-3.214,1,0,0,81,false,stim,false,1,965.8999999761581,2,1,0,62338,task2,611918,false,false,742,image-keyboard-response,20
true,7,0,2,1,false,z,true,false,0.0-2.0-0.23-0.215-3.215,1,0,0,81,false,stim,false,1,600.0,2,1,0,62338,task2,614043,false,false,745,image-keyboard-response,21
true,7,1,2,1,true,z,false,true,0.0-2.0-0.24-0.216-3.216,1,0,0,90,false,stim,false,0,1041.7999999523163,2,0,1,62338,task2,616609,false,false,748,image-keyboard-response,22
true,7,0,2,0,true,q,false,false,0.0-2.0-0.24-0.217-3.217,1,0,0,81,false,stim,false,2,641.0,2,0,2,62338,task2,618755,false,true,751,image-keyboard-response,23
true,7,1,2,1,true,z,false,true,0.0-2.0-0.24-0.218-3.218,1,0,0,90,false,stim,false,0,506.7000000476837,2,0,1,62338,task2,620779,false,false,754,image-keyboard-response,24
true,7,2,2,1,false,z,true,false,0.0-2.0-0.24-0.219-3.219,1,0,0,68,false,stim,false,1,1510.3999999761581,2,1,0,62338,task2,623806,false,false,757,image-keyboard-response,25
true,7,1,2,1,true,z,false,true,0.0-2.0-0.24-0.220-3.220,1,0,0,90,false,stim,false,1,547.1000000238419,2,1,0,62338,task2,625890,false,false,760,image-keyboard-response,26
true,7,0,2,0,true,q,false,true,0.0-2.0-0.24-0.221-3.221,1,0,0,81,false,stim,false,2,501.09999990463257,2,0,2,62338,task2,627916,false,false,763,image-keyboard-response,27
true,7,0,2,0,true,q,false,true,0.0-2.0-0.24-0.222-3.222,1,0,0,81,false,stim,false,2,626.0,2,0,2,62338,task2,630050,false,false,766,image-keyboard-response,28
true,7,1,2,1,true,z,false,false,0.0-2.0-0.24-0.223-3.223,1,0,0,90,false,stim,false,1,503.1999999284744,2,1,0,62338,task2,632087,false,true,769,image-keyboard-response,29
true,7,1,2,1,true,z,false,true,0.0-2.0-0.24-0.224-3.224,1,0,0,90,false,stim,false,0,464.5,2,0,1,62338,task2,634071,false,false,772,image-keyboard-response,30
true,7,0,2,0,true,q,false,true,0.0-2.0-0.25-0.225-3.225,1,0,0,81,false,stim,false,2,566.0999999046326,2,0,2,62338,task2,636165,false,false,775,image-keyboard-response,31
true,7,1,2,1,true,z,false,true,0.0-2.0-0.25-0.226-3.226,1,0,0,90,false,stim,false,1,756.5,2,0,0,62338,task2,638447,false,false,778,image-keyboard-response,32
true,7,1,2,1,true,z,false,true,0.0-2.0-0.25-0.227-3.227,1,0,0,90,false,stim,false,0,1107.3999999761581,2,0,1,62338,task2,641074,false,false,781,image-keyboard-response,33
true,7,0,2,0,true,q,false,true,0.0-2.0-0.25-0.228-3.228,1,0,0,81,false,stim,false,2,590.3999999761581,2,0,2,62338,task2,643200,false,false,784,image-keyboard-response,34
true,8,1,1,2,false,d,false,true,0.0-2.0-0.25-0.229-3.229,0,0,0,90,true,stim,true,1,832.5,2,0,0,62338,task2,645566,false,true,787,image-keyboard-response,1
true,8,1,1,2,false,d,false,false,0.0-2.0-0.25-0.230-3.230,0,0,0,90,false,stim,true,1,809.1000000238419,2,0,0,62338,task2,647900,false,false,790,image-keyboard-response,2
true,8,0,1,1,false,z,false,false,0.0-2.0-0.25-0.231-3.231,0,0,0,81,false,stim,true,0,532.2000000476837,2,0,2,62338,task2,649970,false,false,793,image-keyboard-response,3
true,8,1,1,0,false,q,false,false,0.0-2.0-0.25-0.232-3.232,0,0,0,90,false,stim,true,1,1575.9000000953674,2,0,1,62338,task2,653073,false,false,796,image-keyboard-response,4
true,8,1,1,0,false,q,false,false,0.0-2.0-0.25-0.233-3.233,0,0,0,90,false,stim,true,1,387.60000002384186,2,0,1,62338,task2,654981,false,false,799,image-keyboard-response,5
true,8,2,1,0,false,q,true,false,0.0-2.0-0.26-0.234-3.234,0,0,0,68,false,stim,false,1,387.39999997615814,2,0,1,62338,task2,656903,false,false,802,image-keyboard-response,6
true,8,1,1,1,true,z,false,false,0.0-2.0-0.26-0.235-3.235,0,0,0,90,false,stim,false,0,1163.3999999761581,2,0,2,62338,task2,659577,false,true,805,image-keyboard-response,7
true,8,0,1,2,false,d,true,false,0.0-2.0-0.26-0.236-3.236,0,0,0,81,false,stim,false,1,928.5,2,0,0,62338,task2,662018,false,false,808,image-keyboard-response,8
true,8,1,1,2,false,d,false,false,0.0-2.0-0.26-0.237-3.237,0,0,0,90,false,stim,true,1,903.5999999046326,2,0,0,62338,task2,664434,false,false,811,image-keyboard-response,9
true,8,1,1,1,true,z,false,true,0.0-2.0-0.26-0.238-3.238,0,0,0,90,false,stim,false,0,1393.5,2,0,2,62338,task2,667351,false,false,814,image-keyboard-response,10
true,8,2,1,2,true,d,false,true,0.0-2.0-0.26-0.239-3.239,0,0,0,68,false,stim,false,1,509.90000009536743,2,0,0,62338,task2,669392,false,false,817,image-keyboard-response,11
true,8,1,1,1,true,z,false,true,0.0-2.0-0.26-0.240-3.240,0,0,0,90,false,stim,false,0,475.10000002384186,2,0,2,62338,task2,671396,false,false,820,image-keyboard-response,12
true,8,0,1,0,true,q,false,true,0.0-2.0-0.26-0.241-3.241,0,0,0,81,false,stim,false,1,450.3000000715256,2,0,1,62338,task2,673366,false,false,823,image-keyboard-response,13
true,8,0,1,0,true,q,false,false,0.0-2.0-0.26-0.242-3.242,0,0,0,81,false,stim,false,1,449.5,2,0,1,62338,task2,675356,false,true,826,image-keyboard-response,14
true,8,0,1,0,true,q,false,true,0.0-2.0-0.27-0.243-3.243,0,0,0,81,false,stim,false,1,424.39999997615814,2,0,1,62338,task2,677301,false,false,829,image-keyboard-response,15
true,8,1,1,1,true,z,false,true,0.0-2.0-0.27-0.244-3.244,0,0,0,90,false,stim,false,0,698.7999999523163,2,0,2,62338,task2,679512,false,false,832,image-keyboard-response,16
true,8,1,1,1,true,z,false,true,0.0-2.0-0.27-0.245-3.245,0,0,0,90,false,stim,false,0,432.5,2,0,2,62338,task2,681469,false,false,835,image-keyboard-response,17
true,8,1,1,1,true,z,false,true,0.0-2.0-0.27-0.246-3.246,0,0,0,90,false,stim,false,0,539.1999999284744,2,0,2,62338,task2,683536,false,false,838,image-keyboard-response,18
true,8,0,1,2,false,d,true,false,0.0-2.0-0.27-0.247-3.247,0,0,0,81,false,stim,false,1,762.5,2,0,0,62338,task2,685836,false,false,841,image-keyboard-response,19
true,8,0,1,0,true,q,false,true,0.0-2.0-0.27-0.248-3.248,0,0,0,81,false,stim,false,1,913.5999999046326,2,0,1,62338,task2,688263,false,false,844,image-keyboard-response,20
true,8,0,1,0,true,q,false,true,0.0-2.0-0.27-0.249-3.249,0,0,0,81,false,stim,false,1,533.3999999761581,2,0,1,62338,task2,690309,false,false,847,image-keyboard-response,21
true,8,2,1,2,true,d,false,true,0.0-2.0-0.27-0.250-3.250,0,0,0,68,false,stim,false,1,947.5,2,0,0,62338,task2,692781,false,false,850,image-keyboard-response,22
true,8,2,1,2,true,d,false,true,0.0-2.0-0.27-0.251-3.251,0,0,0,68,false,stim,false,1,689.1000000238419,2,0,0,62338,task2,694979,false,false,853,image-keyboard-response,23
true,8,1,1,1,true,z,false,true,0.0-2.0-0.28-0.252-3.252,0,0,0,90,false,stim,false,0,675.2999999523163,2,0,2,62338,task2,697170,false,false,856,image-keyboard-response,24
true,8,1,1,1,true,z,false,true,0.0-2.0-0.28-0.253-3.253,0,0,0,90,false,stim,false,0,487.6999999284744,2,0,2,62338,task2,699188,false,false,859,image-keyboard-response,25
true,8,0,1,0,true,q,false,true,0.0-2.0-0.28-0.254-3.254,0,0,0,81,false,stim,false,1,1281.5,2,0,1,62338,task2,702005,false,false,862,image-keyboard-response,26
true,8,2,1,2,true,d,false,true,0.0-2.0-0.28-0.255-3.255,0,0,0,68,false,stim,false,1,978.2000000476837,2,0,0,62338,task2,704500,false,false,865,image-keyboard-response,27
true,8,0,1,0,true,q,false,true,0.0-2.0-0.28-0.256-3.256,0,0,0,81,false,stim,false,1,772.6000000238419,2,0,1,62338,task2,706791,false,false,868,image-keyboard-response,28
true,8,2,1,2,true,d,false,true,0.0-2.0-0.28-0.257-3.257,0,0,0,68,false,stim,false,1,1151.7000000476837,2,0,0,62338,task2,709465,false,false,871,image-keyboard-response,29
true,8,2,1,2,true,d,false,true,0.0-2.0-0.28-0.258-3.258,0,0,0,68,false,stim,false,1,489.89999997615814,2,0,0,62338,task2,711475,false,false,874,image-keyboard-response,30
true,8,0,1,0,true,q,false,true,0.0-2.0-0.28-0.259-3.259,0,0,0,81,false,stim,false,1,537.1000000238419,2,0,1,62338,task2,713541,false,false,877,image-keyboard-response,31
true,8,1,1,1,true,z,false,true,0.0-2.0-0.28-0.260-3.260,0,0,0,90,false,stim,false,0,460.0,2,0,2,62338,task2,715522,false,false,880,image-keyboard-response,32
true,8,1,1,0,false,q,false,false,0.0-2.0-0.29-0.261-3.261,0,0,0,90,false,stim,true,1,402.2999999523163,2,0,1,62338,task2,717441,false,false,883,image-keyboard-response,33
true,8,0,1,0,true,q,false,true,0.0-2.0-0.29-0.262-3.262,0,0,0,81,false,stim,false,1,370.5,2,0,1,62338,task2,719337,false,false,886,image-keyboard-response,34
true,9,1,1,0,false,q,false,false,0.0-2.0-0.29-0.263-3.263,0,0,0,90,true,stim,true,1,863.1000000238419,2,0,2,62338,task2,721723,false,false,889,image-keyboard-response,1
true,9,1,1,0,false,q,false,false,0.0-2.0-0.29-0.264-3.264,0,0,0,90,false,stim,true,1,365.0,2,0,2,62338,task2,723618,false,false,892,image-keyboard-response,2
true,9,2,1,1,false,z,false,false,0.0-2.0-0.29-0.265-3.265,0,0,0,68,false,stim,true,2,881.1000000238419,2,0,0,62338,task2,726010,false,false,895,image-keyboard-response,3
true,9,1,1,2,false,d,true,false,0.0-2.0-0.29-0.266-3.266,0,0,0,90,false,stim,false,0,1357.1000000238419,2,0,1,62338,task2,728873,false,false,898,image-keyboard-response,4
true,9,0,1,1,false,z,true,false,0.0-2.0-0.29-0.267-3.267,0,0,0,81,false,stim,false,2,1372.0,2,0,0,62338,task2,731777,false,false,901,image-keyboard-response,5
true,9,2,1,0,false,q,true,false,0.0-2.0-0.29-0.268-3.268,0,0,0,68,false,stim,false,1,912.8999999761581,2,0,2,62338,task2,734210,false,false,904,image-keyboard-response,6
true,9,2,1,1,false,z,false,false,0.0-2.0-0.29-0.269-3.269,0,0,0,68,false,stim,true,2,962.0,2,0,0,62338,task2,736699,false,false,907,image-keyboard-response,7
true,9,2,1,0,false,q,true,false,0.0-2.0-0.30-0.270-3.270,0,0,0,68,false,stim,false,1,1344.1999999284744,2,0,2,62338,task2,739565,false,false,910,image-keyboard-response,8
true,9,1,1,2,false,d,true,false,0.0-2.0-0.30-0.271-3.271,0,0,0,90,false,stim,false,0,2081.5,2,0,1,62338,task2,743166,false,false,913,image-keyboard-response,9
true,9,0,1,0,true,q,false,true,0.0-2.0-0.30-0.272-3.272,0,0,0,81,false,stim,false,1,662.6000000238419,2,0,2,62338,task2,745349,false,false,916,image-keyboard-response,10
true,9,0,1,0,true,q,false,true,0.0-2.0-0.30-0.273-3.273,0,0,0,81,false,stim,false,1,539.7000000476837,2,0,2,62338,task2,747403,false,false,919,image-keyboard-response,11
true,9,2,1,1,false,z,false,false,0.0-2.0-0.30-0.274-3.274,0,0,0,68,false,stim,true,2,1472.8999999761581,2,0,0,62338,task2,750411,false,false,922,image-keyboard-response,12
true,9,1,1,1,true,z,false,true,0.0-2.0-0.30-0.275-3.275,0,0,0,90,false,stim,false,2,698.8999999761581,2,0,0,62338,task2,752628,false,false,925,image-keyboard-response,13
true,9,2,1,2,true,d,false,true,0.0-2.0-0.30-0.276-3.276,0,0,0,68,false,stim,false,0,633.8999999761581,2,0,1,62338,task2,754789,false,false,928,image-keyboard-response,14
true,9,2,1,2,true,d,false,true,0.0-2.0-0.30-0.277-3.277,0,0,0,68,false,stim,false,0,427.7999999523163,2,0,1,62338,task2,756740,false,false,931,image-keyboard-response,15
true,9,1,1,1,true,z,false,true,0.0-2.0-0.30-0.278-3.278,0,0,0,90,false,stim,false,2,727.7000000476837,2,0,0,62338,task2,759000,false,false,934,image-keyboard-response,16
true,9,1,1,1,true,z,false,true,0.0-2.0-0.31-0.279-3.279,0,0,0,90,false,stim,false,2,572.1000000238419,2,0,0,62338,task2,761103,false,false,937,image-keyboard-response,17
true,9,0,1,0,true,q,false,true,0.0-2.0-0.31-0.280-3.280,0,0,0,81,false,stim,false,1,697.6999999284744,2,0,2,62338,task2,763335,false,false,940,image-keyboard-response,18
true,9,1,1,1,true,z,false,true,0.0-2.0-0.31-0.281-3.281,0,0,0,90,false,stim,false,2,1042.0,2,0,0,62338,task2,765890,false,false,943,image-keyboard-response,19
true,9,0,1,0,true,q,false,true,0.0-2.0-0.31-0.282-3.282,0,0,0,81,false,stim,false,1,610.8999999761581,2,0,2,62338,task2,768035,false,false,946,image-keyboard-response,20
true,9,2,1,2,true,d,false,true,0.0-2.0-0.31-0.283-3.283,0,0,0,68,false,stim,false,0,710.7000000476837,2,0,1,62338,task2,770258,false,false,949,image-keyboard-response,21
true,9,0,1,0,true,q,false,true,0.0-2.0-0.31-0.284-3.284,0,0,0,81,false,stim,false,1,663.8000000715256,2,0,2,62338,task2,772440,false,false,952,image-keyboard-response,22
true,9,1,1,1,true,z,false,true,0.0-2.0-0.31-0.285-3.285,0,0,0,90,false,stim,false,2,1764.2999999523163,2,0,0,62338,task2,775718,false,false,955,image-keyboard-response,23
true,9,2,1,2,true,d,false,true,0.0-2.0-0.31-0.286-3.286,0,0,0,68,false,stim,false,0,949.7999999523163,2,0,1,62338,task2,778198,false,false,958,image-keyboard-response,24
true,9,2,1,2,true,d,false,true,0.0-2.0-0.31-0.287-3.287,0,0,0,68,false,stim,false,0,496.3000000715256,2,0,1,62338,task2,780218,false,false,961,image-keyboard-response,25
true,9,2,1,2,true,d,false,true,0.0-2.0-0.32-0.288-3.288,0,0,0,68,false,stim,false,0,449.8000000715256,2,0,1,62338,task2,782178,false,false,964,image-keyboard-response,26
true,9,2,1,2,true,d,false,true,0.0-2.0-0.32-0.289-3.289,0,0,0,68,false,stim,false,0,415.39999997615814,2,0,1,62338,task2,784104,false,false,967,image-keyboard-response,27
true,9,1,1,1,true,z,false,true,0.0-2.0-0.32-0.290-3.290,0,0,0,90,false,stim,false,2,1063.2999999523163,2,0,0,62338,task2,786701,false,false,970,image-keyboard-response,28
true,9,0,1,0,true,q,false,true,0.0-2.0-0.32-0.291-3.291,0,0,0,81,false,stim,false,1,816.6000000238419,2,0,2,62338,task2,789039,false,false,973,image-keyboard-response,29
true,9,0,1,0,true,q,false,true,0.0-2.0-0.32-0.292-3.292,0,0,0,81,false,stim,false,1,751.2000000476837,2,0,2,62338,task2,791313,false,false,976,image-keyboard-response,30
true,9,2,1,1,false,z,false,false,0.0-2.0-0.32-0.293-3.293,0,0,0,68,false,stim,true,2,1323.6000000238419,2,0,0,62338,task2,794165,false,false,979,image-keyboard-response,31
true,9,2,1,2,true,d,false,true,0.0-2.0-0.32-0.294-3.294,0,0,0,68,false,stim,false,0,2162.899999976158,2,0,1,62338,task2,797838,false,false,982,image-keyboard-response,32
true,9,0,1,0,true,q,false,true,0.0-2.0-0.32-0.295-3.295,0,0,0,81,false,stim,false,1,529.7999999523163,2,0,2,62338,task2,799890,false,false,985,image-keyboard-response,33
true,9,1,1,1,true,z,false,true,0.0-2.0-0.32-0.296-3.296,0,0,0,90,false,stim,false,2,514.6000000238419,2,0,0,62338,task2,801917,false,false,988,image-keyboard-response,34
true,9,1,1,1,true,z,false,true,0.0-2.0-0.33-0.297-3.297,0,0,0,90,false,stim,false,2,571.1999999284744,2,0,0,62338,task2,804018,false,false,991,image-keyboard-response,35
false,9,-1,1,2,false,d,true,false,0.0-2.0-0.33-0.298-3.298,0,0,0,,false,stim,false,0,,2,0,1,62338,task2,808545,false,false,994,image-keyboard-response,36
true,10,1,1,0,false,q,false,false,0.0-2.0-0.33-0.299-3.299,0,0,0,90,true,stim,true,1,695.6000000238419,2,0,0,62338,task2,810748,false,false,997,image-keyboard-response,1
true,10,0,1,2,false,d,false,false,0.0-2.0-0.33-0.300-3.300,0,0,0,81,false,stim,true,0,1182.0,2,0,2,62338,task2,813463,false,false,1000,image-keyboard-response,2
true,10,1,1,2,false,d,true,false,0.0-2.0-0.33-0.301-3.301,0,0,0,90,false,stim,false,0,497.89999997615814,2,0,2,62338,task2,815506,false,false,1003,image-keyboard-response,3
true,10,0,1,0,true,q,false,true,0.0-2.0-0.33-0.302-3.302,0,0,0,81,false,stim,false,2,1230.0999999046326,2,0,1,62338,task2,818245,false,false,1006,image-keyboard-response,4
true,10,2,1,2,true,d,false,false,0.0-2.0-0.33-0.303-3.303,0,0,0,68,false,stim,false,0,477.7999999523163,2,0,2,62338,task2,820234,false,true,1009,image-keyboard-response,5
true,10,1,1,0,false,q,false,false,0.0-2.0-0.33-0.304-3.304,0,0,0,90,false,stim,true,1,553.7000000476837,2,0,0,62338,task2,822310,false,false,1012,image-keyboard-response,6
true,10,0,1,0,true,q,false,true,0.0-2.0-0.33-0.305-3.305,0,0,0,81,false,stim,false,2,624.1000000238419,2,0,1,62338,task2,824472,false,false,1015,image-keyboard-response,7
true,10,2,1,0,false,q,true,false,0.0-2.0-0.34-0.306-3.306,0,0,0,68,false,stim,false,1,690.7999999523163,2,0,0,62338,task2,826696,false,false,1018,image-keyboard-response,8
true,10,1,1,2,false,d,true,false,0.0-2.0-0.34-0.307-3.307,0,0,0,90,false,stim,false,0,385.5,2,0,2,62338,task2,828597,false,false,1021,image-keyboard-response,9
true,10,0,1,2,false,d,false,false,0.0-2.0-0.34-0.308-3.308,0,0,0,81,false,stim,true,0,466.0,2,0,2,62338,task2,830578,false,false,1024,image-keyboard-response,10
true,10,0,1,0,true,q,false,true,0.0-2.0-0.34-0.309-3.309,0,0,0,81,false,stim,false,1,972.5,2,0,0,62338,task2,833069,false,false,1027,image-keyboard-response,11
true,10,0,1,0,true,q,false,true,0.0-2.0-0.34-0.310-3.310,0,0,0,81,false,stim,false,2,354.10000002384186,2,0,1,62338,task2,834961,false,false,1030,image-keyboard-response,12
true,10,0,1,0,true,q,false,false,0.0-2.0-0.34-0.311-3.311,0,0,0,81,false,stim,false,2,339.2000000476837,2,0,1,62338,task2,836820,false,true,1033,image-keyboard-response,13
true,10,0,1,0,true,q,false,true,0.0-2.0-0.34-0.312-3.312,0,0,0,81,false,stim,false,1,396.0,2,0,0,62338,task2,838734,false,false,1036,image-keyboard-response,14
true,10,1,1,2,false,d,true,false,0.0-2.0-0.34-0.313-3.313,0,0,0,90,false,stim,false,0,724.7999999523163,2,0,2,62338,task2,840985,false,false,1039,image-keyboard-response,15
true,10,0,1,0,true,q,false,true,0.0-2.0-0.34-0.314-3.314,0,0,0,81,false,stim,false,2,478.2999999523163,2,0,1,62338,task2,842985,false,false,1042,image-keyboard-response,16
true,10,2,1,2,true,d,false,true,0.0-2.0-0.35-0.315-3.315,0,0,0,68,false,stim,false,0,502.6999999284744,2,0,2,62338,task2,845004,false,false,1045,image-keyboard-response,17
true,10,2,1,2,true,d,false,true,0.0-2.0-0.35-0.316-3.316,0,0,0,68,false,stim,false,0,457.5,2,0,2,62338,task2,846998,false,false,1048,image-keyboard-response,18
true,10,0,1,0,true,q,false,true,0.0-2.0-0.35-0.317-3.317,0,0,0,81,false,stim,false,2,462.10000002384186,2,0,1,62338,task2,848979,false,false,1051,image-keyboard-response,19
true,10,0,1,0,true,q,false,true,0.0-2.0-0.35-0.318-3.318,0,0,0,81,false,stim,false,2,669.9000000953674,2,0,1,62338,task2,851160,false,false,1054,image-keyboard-response,20
true,10,2,1,2,true,d,false,true,0.0-2.0-0.35-0.319-3.319,0,0,0,68,false,stim,false,0,613.8999999761581,2,0,2,62338,task2,853280,false,false,1057,image-keyboard-response,21
true,10,0,1,0,true,q,false,true,0.0-2.0-0.35-0.320-3.320,0,0,0,81,false,stim,false,1,444.2000000476837,2,0,0,62338,task2,855247,false,false,1060,image-keyboard-response,22
true,10,0,1,0,true,q,false,true,0.0-2.0-0.35-0.321-3.321,0,0,0,81,false,stim,false,1,455.60000002384186,2,0,0,62338,task2,857224,false,false,1063,image-keyboard-response,23
true,10,0,1,0,true,q,false,true,0.0-2.0-0.35-0.322-3.322,0,0,0,81,false,stim,false,1,468.89999997615814,2,0,0,62338,task2,859228,false,false,1066,image-keyboard-response,24
true,10,0,1,0,true,q,false,true,0.0-2.0-0.35-0.323-3.323,0,0,0,81,false,stim,false,2,1494.6000000238419,2,0,1,62338,task2,862248,false,false,1069,image-keyboard-response,25
true,10,0,1,0,true,q,false,true,0.0-2.0-0.36-0.324-3.324,0,0,0,81,false,stim,false,2,459.0,2,0,1,62338,task2,864225,false,false,1072,image-keyboard-response,26
true,10,2,1,0,false,q,true,false,0.0-2.0-0.36-0.325-3.325,0,0,0,68,false,stim,false,1,653.5,2,0,0,62338,task2,866404,false,false,1075,image-keyboard-response,27
true,10,2,1,2,true,d,false,true,0.0-2.0-0.36-0.326-3.326,0,0,0,68,false,stim,false,0,589.7000000476837,2,0,2,62338,task2,868530,false,false,1078,image-keyboard-response,28
true,10,0,1,0,true,q,false,true,0.0-2.0-0.36-0.327-3.327,0,0,0,81,false,stim,false,2,496.7999999523163,2,0,1,62338,task2,870547,false,false,1081,image-keyboard-response,29
true,10,0,1,0,true,q,false,true,0.0-2.0-0.36-0.328-3.328,0,0,0,81,false,stim,false,2,351.5,2,0,1,62338,task2,872409,false,false,1084,image-keyboard-response,30
true,10,0,1,2,false,d,false,false,0.0-2.0-0.36-0.329-3.329,0,0,0,81,false,stim,true,0,433.7999999523163,2,0,2,62338,task2,874364,false,false,1087,image-keyboard-response,31
true,10,0,1,0,true,q,false,false,0.0-2.0-0.36-0.330-3.330,0,0,0,81,false,stim,false,1,673.3000000715256,2,1,0,62338,task2,876566,false,true,1090,image-keyboard-response,32
true,10,2,1,2,true,d,false,false,0.0-2.0-0.36-0.331-3.331,0,0,0,68,false,stim,false,0,356.60000002384186,2,0,2,62338,task2,878444,false,true,1093,image-keyboard-response,33
true,10,0,1,0,true,q,false,true,0.0-2.0-0.36-0.332-3.332,0,0,0,81,false,stim,false,1,575.0,2,1,0,62338,task2,880550,false,false,1096,image-keyboard-response,34
true,10,2,1,2,true,d,false,true,0.0-2.0-0.37-0.333-3.333,0,0,0,68,false,stim,false,0,639.6000000238419,2,0,2,62338,task2,882696,false,false,1099,image-keyboard-response,35
true,11,0,2,1,false,z,false,false,0.0-2.0-0.37-0.334-3.334,1,0,0,81,true,stim,true,0,415.0,2,0,1,62338,task2,884649,false,false,1102,image-keyboard-response,1
true,11,0,2,0,true,q,false,false,0.0-2.0-0.37-0.335-3.335,1,0,0,81,false,stim,false,0,576.6000000238419,2,1,0,62338,task2,886747,false,true,1105,image-keyboard-response,2
true,11,0,2,1,false,z,false,false,0.0-2.0-0.37-0.336-3.336,1,0,0,81,false,stim,true,0,438.2000000476837,2,0,1,62338,task2,888701,false,false,1108,image-keyboard-response,3
true,11,2,2,0,false,q,false,false,0.0-2.0-0.37-0.337-3.337,1,0,0,68,false,stim,true,2,685.2000000476837,2,0,2,62338,task2,890911,false,false,1111,image-keyboard-response,4
true,11,0,2,0,true,q,false,true,0.0-2.0-0.37-0.338-3.338,1,0,0,81,false,stim,false,0,748.2999999523163,2,1,0,62338,task2,893165,false,false,1114,image-keyboard-response,5
true,11,0,2,0,true,q,false,true,0.0-2.0-0.37-0.339-3.339,1,0,0,81,false,stim,false,0,485.1999999284744,2,1,0,62338,task2,895163,false,false,1117,image-keyboard-response,6
true,11,2,2,0,false,q,false,false,0.0-2.0-0.37-0.340-3.340,1,0,0,68,false,stim,true,2,543.7000000476837,2,0,2,62338,task2,897229,false,false,1120,image-keyboard-response,7
true,11,2,2,1,false,z,true,false,0.0-2.0-0.37-0.341-3.341,1,0,0,68,false,stim,false,0,1190.0,2,0,1,62338,task2,899941,false,false,1123,image-keyboard-response,8
true,11,1,2,0,false,q,true,false,0.0-2.0-0.38-0.342-3.342,1,0,0,90,false,stim,false,2,401.3000000715256,2,0,2,62338,task2,901882,false,false,1126,image-keyboard-response,9
true,11,0,2,0,true,q,false,true,0.0-2.0-0.38-0.343-3.343,1,0,0,81,false,stim,false,2,572.7999999523163,2,0,2,62338,task2,903990,false,false,1129,image-keyboard-response,10
true,11,0,2,0,true,q,false,true,0.0-2.0-0.38-0.344-3.344,1,0,0,81,false,stim,false,2,487.3000000715256,2,0,2,62338,task2,905998,false,false,1132,image-keyboard-response,11
true,11,1,2,1,true,z,false,true,0.0-2.0-0.38-0.345-3.345,1,0,0,90,false,stim,false,0,1217.6000000238419,2,0,1,62338,task2,908736,false,false,1135,image-keyboard-response,12
true,11,0,2,0,true,q,false,true,0.0-2.0-0.38-0.346-3.346,1,0,0,81,false,stim,false,0,545.8999999761581,2,1,0,62338,task2,910790,false,false,1138,image-keyboard-response,13
true,11,0,2,0,true,q,false,true,0.0-2.0-0.38-0.347-3.347,1,0,0,81,false,stim,false,0,500.89999997615814,2,1,0,62338,task2,912823,false,false,1141,image-keyboard-response,14
true,11,0,2,0,true,q,false,true,0.0-2.0-0.38-0.348-3.348,1,0,0,81,false,stim,false,0,638.3999999761581,2,1,0,62338,task2,914999,false,false,1144,image-keyboard-response,15
true,11,1,2,1,true,z,false,true,0.0-2.0-0.38-0.349-3.349,1,0,0,90,false,stim,false,0,1379.6000000238419,2,0,1,62338,task2,917915,false,false,1147,image-keyboard-response,16
true,11,1,2,1,true,z,false,true,0.0-2.0-0.38-0.350-3.350,1,0,0,90,false,stim,false,0,568.7000000476837,2,0,1,62338,task2,920001,false,false,1150,image-keyboard-response,17
true,11,0,2,0,true,q,false,true,0.0-2.0-0.39-0.351-3.351,1,0,0,81,false,stim,false,2,531.8999999761581,2,0,2,62338,task2,922069,false,false,1153,image-keyboard-response,18
true,11,0,2,0,true,q,false,true,0.0-2.0-0.39-0.352-3.352,1,0,0,81,false,stim,false,2,1182.7999999523163,2,0,2,62338,task2,924777,false,false,1156,image-keyboard-response,19
true,11,0,2,0,true,q,false,false,0.0-2.0-0.39-0.353-3.353,1,0,0,81,false,stim,false,0,1151.0,2,1,0,62338,task2,927441,false,true,1159,image-keyboard-response,20
true,11,0,2,0,true,q,false,true,0.0-2.0-0.39-0.354-3.354,1,0,0,81,false,stim,false,0,663.6000000238419,2,1,0,62338,task2,929632,false,false,1162,image-keyboard-response,21
true,11,1,2,1,true,z,false,true,0.0-2.0-0.39-0.355-3.355,1,0,0,90,false,stim,false,0,1011.2000000476837,2,0,1,62338,task2,932170,false,false,1165,image-keyboard-response,22
true,11,1,2,1,true,z,false,true,0.0-2.0-0.39-0.356-3.356,1,0,0,90,false,stim,false,0,450.2000000476837,2,0,1,62338,task2,934155,false,false,1168,image-keyboard-response,23
true,11,0,2,0,true,q,false,true,0.0-2.0-0.39-0.357-3.357,1,0,0,81,false,stim,false,2,543.8000000715256,2,0,2,62338,task2,936219,false,false,1171,image-keyboard-response,24
true,11,1,2,1,true,z,false,true,0.0-2.0-0.39-0.358-3.358,1,0,0,90,false,stim,false,0,807.1000000238419,2,0,1,62338,task2,938558,false,false,1174,image-keyboard-response,25
true,11,0,2,0,true,q,false,true,0.0-2.0-0.39-0.359-3.359,1,0,0,81,false,stim,false,0,686.0,2,1,0,62338,task2,940777,false,false,1177,image-keyboard-response,26
true,11,1,2,0,false,q,true,false,0.0-2.0-0.40-0.360-3.360,1,0,0,90,false,stim,false,2,844.7000000476837,2,0,2,62338,task2,943148,false,false,1180,image-keyboard-response,27
true,11,0,2,0,true,q,false,true,0.0-2.0-0.40-0.361-3.361,1,0,0,81,false,stim,false,2,423.39999997615814,2,0,2,62338,task2,945105,false,false,1183,image-keyboard-response,28
true,11,1,2,1,true,z,false,true,0.0-2.0-0.40-0.362-3.362,1,0,0,90,false,stim,false,0,708.1999999284744,2,0,1,62338,task2,947345,false,false,1186,image-keyboard-response,29
true,11,0,2,0,true,q,false,true,0.0-2.0-0.40-0.363-3.363,1,0,0,81,false,stim,false,0,1522.6000000238419,2,0,0,62338,task2,950399,false,false,1189,image-keyboard-response,30
true,11,1,2,1,true,z,false,false,0.0-2.0-0.40-0.364-3.364,1,0,0,90,false,stim,false,0,873.8999999761581,2,0,1,62338,task2,952782,false,true,1192,image-keyboard-response,31
true,11,0,2,0,true,q,false,true,0.0-2.0-0.40-0.365-3.365,1,0,0,81,false,stim,false,0,580.3999999761581,2,0,0,62338,task2,954884,false,false,1195,image-keyboard-response,32
true,11,0,2,0,true,q,false,true,0.0-2.0-0.40-0.366-3.366,1,0,0,81,false,stim,false,2,481.10000002384186,2,0,2,62338,task2,956889,false,false,1198,image-keyboard-response,33
true,12,1,1,2,false,d,false,false,0.0-2.0-0.40-0.367-3.367,0,0,0,90,true,stim,true,1,428.09999990463257,2,0,1,62338,task2,958860,false,false,1201,image-keyboard-response,1
true,12,0,1,2,false,d,false,false,0.0-2.0-0.40-0.368-3.368,0,0,0,81,false,stim,true,0,374.39999997615814,2,0,0,62338,task2,960757,false,false,1204,image-keyboard-response,2
true,12,0,1,1,false,z,false,true,0.0-2.0-0.41-0.369-3.369,0,0,0,81,false,stim,true,0,454.60000002384186,2,0,2,62338,task2,962747,false,true,1207,image-keyboard-response,3
true,12,2,1,2,true,d,false,true,0.0-2.0-0.41-0.370-3.370,0,0,0,68,false,stim,false,1,908.0,2,0,1,62338,task2,965184,false,false,1210,image-keyboard-response,4
true,12,2,1,2,true,d,false,true,0.0-2.0-0.41-0.371-3.371,0,0,0,68,false,stim,false,1,402.1999999284744,2,0,1,62338,task2,967109,false,false,1213,image-keyboard-response,5
true,12,0,1,2,false,d,false,false,0.0-2.0-0.41-0.372-3.372,0,0,0,81,false,stim,true,0,1206.5,2,0,0,62338,task2,969838,false,false,1216,image-keyboard-response,6
true,12,2,1,2,true,d,false,true,0.0-2.0-0.41-0.373-3.373,0,0,0,68,false,stim,false,0,1326.6999999284744,2,0,0,62338,task2,972685,false,false,1219,image-keyboard-response,7
true,12,2,1,2,true,d,false,true,0.0-2.0-0.41-0.374-3.374,0,0,0,68,false,stim,false,1,364.7999999523163,2,0,1,62338,task2,974573,false,false,1222,image-keyboard-response,8
true,12,2,1,2,true,d,false,true,0.0-2.0-0.41-0.375-3.375,0,0,0,68,false,stim,false,0,623.0,2,0,0,62338,task2,976716,false,false,1225,image-keyboard-response,9
true,12,0,1,1,false,z,false,true,0.0-2.0-0.41-0.376-3.376,0,0,0,81,false,stim,true,0,995.1000000238419,2,0,2,62338,task2,979221,false,true,1228,image-keyboard-response,10
true,12,0,1,1,false,z,false,false,0.0-2.0-0.41-0.377-3.377,0,0,0,81,false,stim,true,0,559.6999999284744,2,0,2,62338,task2,981316,false,false,1231,image-keyboard-response,11
true,12,2,1,2,true,d,false,true,0.0-2.0-0.42-0.378-3.378,0,0,0,68,false,stim,false,1,839.0,2,0,1,62338,task2,983684,false,false,1234,image-keyboard-response,12
true,12,2,1,2,true,d,false,true,0.0-2.0-0.42-0.379-3.379,0,0,0,68,false,stim,false,0,2400.8000000715256,2,0,0,62338,task2,987609,false,false,1237,image-keyboard-response,13
true,12,0,1,1,false,z,false,false,0.0-2.0-0.42-0.380-3.380,0,0,0,81,false,stim,true,0,422.5,2,0,2,62338,task2,989560,false,false,1240,image-keyboard-response,14
true,12,2,1,2,true,d,false,true,0.0-2.0-0.42-0.381-3.381,0,0,0,68,false,stim,false,1,524.8999999761581,2,0,1,62338,task2,991623,false,false,1243,image-keyboard-response,15
true,12,1,1,1,true,z,false,true,0.0-2.0-0.42-0.382-3.382,0,0,0,90,false,stim,false,0,877.9000000953674,2,0,2,62338,task2,994037,false,false,1246,image-keyboard-response,16
true,12,2,1,2,true,d,false,true,0.0-2.0-0.42-0.383-3.383,0,0,0,68,false,stim,false,0,478.0,2,0,0,62338,task2,996046,false,false,1249,image-keyboard-response,17
true,12,2,1,2,true,d,false,true,0.0-2.0-0.42-0.384-3.384,0,0,0,68,false,stim,false,1,458.5,2,0,1,62338,task2,998037,false,false,1252,image-keyboard-response,18
true,12,1,1,1,true,z,false,true,0.0-2.0-0.42-0.385-3.385,0,0,0,90,false,stim,false,0,279.7999999523163,2,0,2,62338,task2,999851,false,false,1255,image-keyboard-response,19
true,12,2,1,2,true,d,false,true,0.0-2.0-0.42-0.386-3.386,0,0,0,68,false,stim,false,0,436.90000009536743,2,0,0,62338,task2,1001810,false,false,1258,image-keyboard-response,20
true,12,2,1,2,true,d,false,true,0.0-2.0-0.43-0.387-3.387,0,0,0,68,false,stim,false,1,458.3000000715256,2,0,1,62338,task2,1003790,false,false,1261,image-keyboard-response,21
true,12,1,1,1,true,z,false,true,0.0-2.0-0.43-0.388-3.388,0,0,0,90,false,stim,false,0,363.1999999284744,2,0,2,62338,task2,1005682,false,false,1264,image-keyboard-response,22
true,12,1,1,1,true,z,false,true,0.0-2.0-0.43-0.389-3.389,0,0,0,90,false,stim,false,0,579.8999999761581,2,0,2,62338,task2,1007807,false,false,1267,image-keyboard-response,23
true,12,2,1,2,true,d,false,true,0.0-2.0-0.43-0.390-3.390,0,0,0,68,false,stim,false,0,350.5,2,0,0,62338,task2,1009683,false,false,1270,image-keyboard-response,24
true,12,2,1,2,true,d,false,true,0.0-2.0-0.43-0.391-3.391,0,0,0,68,false,stim,false,1,686.6000000238419,2,0,1,62338,task2,1011911,false,false,1273,image-keyboard-response,25
true,12,2,1,2,true,d,false,true,0.0-2.0-0.43-0.392-3.392,0,0,0,68,false,stim,false,0,441.60000002384186,2,0,0,62338,task2,1013884,false,false,1276,image-keyboard-response,26
true,12,2,1,2,true,d,false,true,0.0-2.0-0.43-0.393-3.393,0,0,0,68,false,stim,false,1,770.2999999523163,2,0,1,62338,task2,1016178,false,false,1279,image-keyboard-response,27
true,12,2,1,2,true,d,false,true,0.0-2.0-0.43-0.394-3.394,0,0,0,68,false,stim,false,0,576.5999999046326,2,0,0,62338,task2,1018295,false,false,1282,image-keyboard-response,28
true,12,1,1,1,true,z,false,true,0.0-2.0-0.43-0.395-3.395,0,0,0,90,false,stim,false,0,782.5,2,0,2,62338,task2,1020608,false,false,1285,image-keyboard-response,29
true,12,2,1,2,true,d,false,true,0.0-2.0-0.44-0.396-3.396,0,0,0,68,false,stim,false,1,1238.7999999523163,2,0,1,62338,task2,1023377,false,false,1288,image-keyboard-response,30
true,12,2,1,2,true,d,false,true,0.0-2.0-0.44-0.397-3.397,0,0,0,68,false,stim,false,0,499.5,2,0,0,62338,task2,1025398,false,false,1291,image-keyboard-response,31
true,12,2,1,2,true,d,false,true,0.0-2.0-0.44-0.398-3.398,0,0,0,68,false,stim,false,0,417.10000002384186,2,0,0,62338,task2,1027335,false,false,1294,image-keyboard-response,32
true,12,2,1,2,true,d,false,false,0.0-2.0-0.44-0.399-3.399,0,0,0,68,false,stim,false,1,507.09999990463257,2,0,1,62338,task2,1029359,false,true,1297,image-keyboard-response,33
true,12,1,1,1,true,z,false,true,0.0-2.0-0.44-0.400-3.400,0,0,0,90,false,stim,false,0,654.6000000238419,2,0,2,62338,task2,1031538,false,false,1300,image-keyboard-response,34
true,12,1,1,1,true,z,false,true,0.0-2.0-0.44-0.401-3.401,0,0,0,90,false,stim,false,0,774.3000000715256,2,0,2,62338,task2,1033850,false,false,1303,image-keyboard-response,35
true,12,1,1,1,true,z,false,true,0.0-2.0-0.44-0.402-3.402,0,0,0,90,false,stim,false,0,536.5,2,0,2,62338,task2,1035903,false,false,1306,image-keyboard-response,36
true,12,2,1,2,true,d,false,true,0.0-2.0-0.44-0.403-3.403,0,0,0,68,false,stim,false,1,969.1000000238419,2,0,1,62338,task2,1038410,false,false,1309,image-keyboard-response,37
true,12,2,1,2,true,d,false,true,0.0-2.0-0.44-0.404-3.404,0,0,0,68,false,stim,false,0,422.8000000715256,2,0,0,62338,task2,1040361,false,false,1312,image-keyboard-response,38
true,13,2,1,0,false,q,false,false,0.0-2.0-0.45-0.405-3.405,0,0,0,68,true,stim,true,2,563.6000000238419,2,0,1,62338,task2,1042457,false,false,1315,image-keyboard-response,1
true,13,2,1,0,false,q,false,false,0.0-2.0-0.45-0.406-3.406,0,0,0,68,false,stim,true,2,507.2000000476837,2,0,1,62338,task2,1044486,false,false,1318,image-keyboard-response,2
true,13,2,1,1,false,z,false,false,0.0-2.0-0.45-0.407-3.407,0,0,0,68,false,stim,true,2,649.1000000238419,2,0,0,62338,task2,1046650,false,false,1321,image-keyboard-response,3
true,13,2,1,1,false,z,false,true,0.0-2.0-0.45-0.408-3.408,0,0,0,68,false,stim,true,2,403.2000000476837,2,0,0,62338,task2,1048581,false,true,1324,image-keyboard-response,4
true,13,1,1,0,false,q,true,false,0.0-2.0-0.45-0.409-3.409,0,0,0,90,false,stim,false,2,654.7000000476837,2,0,1,62338,task2,1050762,false,false,1327,image-keyboard-response,5
true,13,1,1,0,false,q,false,false,0.0-2.0-0.45-0.410-3.410,0,0,0,90,false,stim,true,1,955.3000000715256,2,0,2,62338,task2,1053228,false,false,1330,image-keyboard-response,6
true,13,1,1,0,false,q,false,false,0.0-2.0-0.45-0.411-3.411,0,0,0,90,false,stim,true,1,410.2999999523163,2,0,2,62338,task2,1055178,false,false,1333,image-keyboard-response,7
true,13,2,1,1,false,z,false,true,0.0-2.0-0.45-0.412-3.412,0,0,0,68,false,stim,true,2,677.6000000238419,2,0,0,62338,task2,1057383,false,true,1336,image-keyboard-response,8
true,13,0,1,0,true,q,false,true,0.0-2.0-0.45-0.413-3.413,0,0,0,81,false,stim,false,1,1084.8999999761581,2,0,2,62338,task2,1059984,false,false,1339,image-keyboard-response,9
true,13,2,1,1,false,z,false,false,0.0-2.0-0.46-0.414-3.414,0,0,0,68,false,stim,true,2,817.3000000715256,2,0,0,62338,task2,1062327,false,false,1342,image-keyboard-response,10
true,13,1,1,0,false,q,true,false,0.0-2.0-0.46-0.415-3.415,0,0,0,90,false,stim,false,2,1304.0999999046326,2,0,1,62338,task2,1065164,false,false,1345,image-keyboard-response,11
true,13,0,1,0,true,q,false,true,0.0-2.0-0.46-0.416-3.416,0,0,0,81,false,stim,false,2,619.6999999284744,2,0,1,62338,task2,1067311,false,false,1348,image-keyboard-response,12
true,13,2,1,1,false,z,false,false,0.0-2.0-0.46-0.417-3.417,0,0,0,68,false,stim,true,2,720.7999999523163,2,0,0,62338,task2,1069545,false,false,1351,image-keyboard-response,13
true,13,0,1,0,true,q,false,true,0.0-2.0-0.46-0.418-3.418,0,0,0,81,false,stim,false,1,769.0,2,0,2,62338,task2,1071854,false,false,1354,image-keyboard-response,14
true,13,1,1,1,true,z,false,true,0.0-2.0-0.46-0.419-3.419,0,0,0,90,false,stim,false,2,754.3000000715256,2,0,0,62338,task2,1074132,false,false,1357,image-keyboard-response,15
true,13,0,1,0,true,q,false,false,0.0-2.0-0.46-0.420-3.420,0,0,0,81,false,stim,false,1,505.39999997615814,2,0,2,62338,task2,1076161,false,true,1360,image-keyboard-response,16
true,13,0,1,0,true,q,false,true,0.0-2.0-0.46-0.421-3.421,0,0,0,81,false,stim,false,2,729.0,2,0,1,62338,task2,1078413,false,false,1363,image-keyboard-response,17
true,13,0,1,0,true,q,false,true,0.0-2.0-0.46-0.422-3.422,0,0,0,81,false,stim,false,1,2855.600000023842,2,0,2,62338,task2,1082800,false,false,1366,image-keyboard-response,18
true,13,1,1,1,true,z,false,true,0.0-2.0-0.47-0.423-3.423,0,0,0,90,false,stim,false,2,852.3999999761581,2,0,0,62338,task2,1085181,false,false,1369,image-keyboard-response,19
true,13,0,1,0,true,q,false,false,0.0-2.0-0.47-0.424-3.424,0,0,0,81,false,stim,false,2,488.39999997615814,2,0,1,62338,task2,1087190,false,true,1372,image-keyboard-response,20
true,13,0,1,0,true,q,false,true,0.0-2.0-0.47-0.425-3.425,0,0,0,81,false,stim,false,1,549.1000000238419,2,0,2,62338,task2,1089258,false,false,1375,image-keyboard-response,21
true,13,0,1,0,true,q,false,true,0.0-2.0-0.47-0.426-3.426,0,0,0,81,false,stim,false,2,370.60000002384186,2,0,1,62338,task2,1091156,false,false,1378,image-keyboard-response,22
true,13,1,1,1,true,z,false,true,0.0-2.0-0.47-0.427-3.427,0,0,0,90,false,stim,false,2,403.7999999523163,2,0,0,62338,task2,1093082,false,false,1381,image-keyboard-response,23
true,13,0,1,0,true,q,false,true,0.0-2.0-0.47-0.428-3.428,0,0,0,81,false,stim,false,1,464.2999999523163,2,0,2,62338,task2,1095081,false,false,1384,image-keyboard-response,24
true,13,0,1,0,true,q,false,true,0.0-2.0-0.47-0.429-3.429,0,0,0,81,false,stim,false,2,471.0,2,0,1,62338,task2,1097079,false,false,1387,image-keyboard-response,25
true,13,0,1,1,false,z,true,false,0.0-2.0-0.47-0.430-3.430,0,0,0,81,false,stim,false,2,644.3999999761581,2,0,0,62338,task2,1099231,false,false,1390,image-keyboard-response,26
true,13,0,1,0,true,q,false,false,0.0-2.0-0.47-0.431-3.431,0,0,0,81,false,stim,false,1,1094.0,2,0,2,62338,task2,1101839,false,true,1393,image-keyboard-response,27
true,13,0,1,0,true,q,false,true,0.0-2.0-0.48-0.432-3.432,0,0,0,81,false,stim,false,1,614.7999999523163,2,0,2,62338,task2,1103987,false,false,1396,image-keyboard-response,28
true,13,0,1,0,true,q,false,true,0.0-2.0-0.48-0.433-3.433,0,0,0,81,false,stim,false,2,330.39999997615814,2,0,1,62338,task2,1105848,false,false,1399,image-keyboard-response,29
true,13,1,1,1,true,z,false,false,0.0-2.0-0.48-0.434-3.434,0,0,0,90,false,stim,false,2,404.2000000476837,2,0,0,62338,task2,1107768,false,true,1402,image-keyboard-response,30
true,13,0,1,0,true,q,false,true,0.0-2.0-0.48-0.435-3.435,0,0,0,81,false,stim,false,2,449.3000000715256,2,0,1,62338,task2,1109748,false,false,1405,image-keyboard-response,31
true,13,1,1,1,true,z,false,true,0.0-2.0-0.48-0.436-3.436,0,0,0,90,false,stim,false,2,493.6999999284744,2,0,0,62338,task2,1111770,false,false,1408,image-keyboard-response,32
true,13,0,1,0,true,q,false,true,0.0-2.0-0.48-0.437-3.437,0,0,0,81,false,stim,false,2,283.39999997615814,2,0,1,62338,task2,1113584,false,false,1411,image-keyboard-response,33
true,13,1,1,1,true,z,false,true,0.0-2.0-0.48-0.438-3.438,0,0,0,90,false,stim,false,2,392.60000002384186,2,1,0,62338,task2,1115485,false,false,1414,image-keyboard-response,34
true,13,0,1,0,true,q,false,true,0.0-2.0-0.48-0.439-3.439,0,0,0,81,false,stim,false,1,655.0,2,0,2,62338,task2,1117655,false,false,1417,image-keyboard-response,35
true,13,0,1,0,true,q,false,true,0.0-2.0-0.48-0.440-3.440,0,0,0,81,false,stim,false,1,486.10000002384186,2,0,2,62338,task2,1119672,false,false,1420,image-keyboard-response,36
true,13,0,1,0,true,q,false,true,0.0-2.0-0.49-0.441-3.441,0,0,0,81,false,stim,false,2,1084.1000000238419,2,0,1,62338,task2,1122283,false,false,1423,image-keyboard-response,37
true,14,0,2,2,false,d,false,false,0.0-2.0-0.49-0.442-3.442,1,0,0,81,true,stim,true,0,424.90000009536743,2,0,1,62338,task2,1124235,false,false,1426,image-keyboard-response,1
true,14,1,2,2,false,d,true,false,0.0-2.0-0.49-0.443-3.443,1,0,0,90,false,stim,false,0,429.10000002384186,2,0,1,62338,task2,1126196,false,false,1429,image-keyboard-response,2
true,14,1,2,1,true,z,false,true,0.0-2.0-0.49-0.444-3.444,1,0,0,90,false,stim,false,1,662.0,2,1,0,62338,task2,1128375,false,false,1432,image-keyboard-response,3
true,14,1,2,1,true,z,false,true,0.0-2.0-0.49-0.445-3.445,1,0,0,90,false,stim,false,1,495.60000002384186,2,1,0,62338,task2,1130387,false,false,1435,image-keyboard-response,4
true,14,0,2,2,false,d,false,false,0.0-2.0-0.49-0.446-3.446,1,0,0,81,false,stim,true,0,517.5,2,0,2,62338,task2,1132441,false,false,1438,image-keyboard-response,5
true,14,0,2,2,false,d,false,false,0.0-2.0-0.49-0.447-3.447,1,0,0,81,false,stim,true,0,411.10000002384186,2,0,2,62338,task2,1134364,false,false,1441,image-keyboard-response,6
true,14,2,2,2,true,d,false,false,0.0-2.0-0.49-0.448-3.448,1,0,0,68,false,stim,false,0,396.3000000715256,2,0,2,62338,task2,1136288,false,true,1444,image-keyboard-response,7
true,14,1,2,1,true,z,false,true,0.0-2.0-0.49-0.449-3.449,1,0,0,90,false,stim,false,1,589.6000000238419,2,1,0,62338,task2,1138404,false,false,1447,image-keyboard-response,8
true,14,0,2,2,false,d,false,false,0.0-2.0-0.50-0.450-3.450,1,0,0,81,false,stim,true,0,803.0,2,0,1,62338,task2,1140732,false,false,1450,image-keyboard-response,9
true,14,1,2,2,false,d,true,false,0.0-2.0-0.50-0.451-3.451,1,0,0,90,false,stim,false,0,666.5,2,0,2,62338,task2,1142922,false,false,1453,image-keyboard-response,10
true,14,1,2,2,false,d,true,false,0.0-2.0-0.50-0.452-3.452,1,0,0,90,false,stim,false,0,1058.1000000238419,2,0,2,62338,task2,1145502,false,false,1456,image-keyboard-response,11
true,14,2,2,2,true,d,false,true,0.0-2.0-0.50-0.453-3.453,1,0,0,68,false,stim,false,0,567.3000000715256,2,0,2,62338,task2,1147576,false,false,1459,image-keyboard-response,12
true,14,1,2,1,true,z,false,true,0.0-2.0-0.50-0.454-3.454,1,0,0,90,false,stim,false,1,840.5,2,1,0,62338,task2,1149939,false,false,1462,image-keyboard-response,13
true,14,0,2,2,false,d,false,true,0.0-2.0-0.50-0.455-3.455,1,0,0,81,false,stim,true,0,678.1000000238419,2,0,1,62338,task2,1152150,false,true,1465,image-keyboard-response,14
true,14,0,2,2,false,d,false,false,0.0-2.0-0.50-0.456-3.456,1,0,0,81,false,stim,true,0,431.2999999523163,2,0,1,62338,task2,1154101,false,false,1468,image-keyboard-response,15
true,14,1,2,1,true,z,false,true,0.0-2.0-0.50-0.457-3.457,1,0,0,90,false,stim,false,1,1691.7999999523163,2,1,0,62338,task2,1157332,false,false,1471,image-keyboard-response,16
true,14,1,2,1,true,z,false,true,0.0-2.0-0.50-0.458-3.458,1,0,0,90,false,stim,false,1,412.90000009536743,2,1,0,62338,task2,1159282,false,false,1474,image-keyboard-response,17
true,14,2,2,2,true,d,false,true,0.0-2.0-0.51-0.459-3.459,1,0,0,68,false,stim,false,0,1030.5,2,0,1,62338,task2,1161835,false,false,1477,image-keyboard-response,18
true,14,1,2,1,true,z,false,true,0.0-2.0-0.51-0.460-3.460,1,0,0,90,false,stim,false,1,611.7999999523163,2,1,0,62338,task2,1163982,false,false,1480,image-keyboard-response,19
true,14,2,2,2,true,d,false,true,0.0-2.0-0.51-0.461-3.461,1,0,0,68,false,stim,false,0,863.8999999761581,2,0,1,62338,task2,1166362,false,false,1483,image-keyboard-response,20
true,14,0,2,1,false,z,true,false,0.0-2.0-0.51-0.462-3.462,1,0,0,81,false,stim,false,1,1742.5,2,1,0,62338,task2,1169634,false,false,1486,image-keyboard-response,21
true,14,0,2,2,false,d,false,false,0.0-2.0-0.51-0.463-3.463,1,0,0,81,false,stim,true,0,1393.6999999284744,2,0,2,62338,task2,1172545,false,false,1489,image-keyboard-response,22
true,14,2,2,2,true,d,false,true,0.0-2.0-0.51-0.464-3.464,1,0,0,68,false,stim,false,0,726.3000000715256,2,0,1,62338,task2,1174792,false,false,1492,image-keyboard-response,23
true,14,1,2,2,false,d,true,false,0.0-2.0-0.51-0.465-3.465,1,0,0,90,false,stim,false,0,442.7000000476837,2,0,2,62338,task2,1176775,false,false,1495,image-keyboard-response,24
true,14,1,2,1,true,z,false,true,0.0-2.0-0.51-0.466-3.466,1,0,0,90,false,stim,false,1,580.7000000476837,2,1,0,62338,task2,1178868,false,false,1498,image-keyboard-response,25
true,14,2,2,2,true,d,false,true,0.0-2.0-0.51-0.467-3.467,1,0,0,68,false,stim,false,0,564.7000000476837,2,0,2,62338,task2,1180963,false,false,1501,image-keyboard-response,26
true,14,1,2,1,true,z,false,true,0.0-2.0-0.52-0.468-3.468,1,0,0,90,false,stim,false,1,506.0,2,0,0,62338,task2,1182991,false,false,1504,image-keyboard-response,27
true,14,2,2,2,true,d,false,true,0.0-2.0-0.52-0.469-3.469,1,0,0,68,false,stim,false,0,357.6999999284744,2,0,2,62338,task2,1184869,false,false,1507,image-keyboard-response,28
true,14,1,2,1,true,z,false,true,0.0-2.0-0.52-0.470-3.470,1,0,0,90,false,stim,false,1,674.6000000238419,2,0,0,62338,task2,1187076,false,false,1510,image-keyboard-response,29
true,14,1,2,2,false,d,true,false,0.0-2.0-0.52-0.471-3.471,1,0,0,90,false,stim,false,0,949.7999999523163,2,0,2,62338,task2,1189545,false,false,1513,image-keyboard-response,30
true,14,2,2,2,true,d,false,true,0.0-2.0-0.52-0.472-3.472,1,0,0,68,false,stim,false,0,568.1000000238419,2,1,1,62338,task2,1191621,false,false,1516,image-keyboard-response,31
true,15,1,2,0,false,q,true,true,0.0-2.0-0.52-0.473-3.473,0,1,0,90,true,stim,false,2,356.10000002384186,2,0,2,62338,task2,1193501,false,true,1519,image-keyboard-response,1
true,15,1,2,2,false,d,false,false,0.0-2.0-0.52-0.474-3.474,0,1,0,90,false,stim,true,1,333.39999997615814,2,0,0,62338,task2,1195374,false,false,1522,image-keyboard-response,2
true,15,2,2,2,true,d,false,true,0.0-2.0-0.52-0.475-3.475,0,1,0,68,false,stim,false,2,1384.0,2,1,1,62338,task2,1198299,false,false,1525,image-keyboard-response,3
true,15,2,2,2,true,d,false,true,0.0-2.0-0.52-0.476-3.476,0,1,0,68,false,stim,false,2,513.1999999284744,2,1,1,62338,task2,1200338,false,false,1528,image-keyboard-response,4
true,15,1,2,0,false,q,true,false,0.0-2.0-0.53-0.477-3.477,0,1,0,90,false,stim,false,2,452.7999999523163,2,0,2,62338,task2,1202316,false,false,1531,image-keyboard-response,5
true,15,1,2,2,false,d,false,false,0.0-2.0-0.53-0.478-3.478,0,1,0,90,false,stim,true,1,670.1000000238419,2,0,0,62338,task2,1204510,false,false,1534,image-keyboard-response,6
true,15,0,2,0,true,q,false,true,0.0-2.0-0.53-0.479-3.479,0,1,0,81,false,stim,false,2,571.7999999523163,2,0,2,62338,task2,1206620,false,false,1537,image-keyboard-response,7
true,15,0,2,2,false,d,true,false,0.0-2.0-0.53-0.480-3.480,0,1,0,81,false,stim,false,1,1320.0,2,0,0,62338,task2,1209464,false,false,1540,image-keyboard-response,8
true,15,2,2,2,true,d,false,true,0.0-2.0-0.53-0.481-3.481,0,1,0,68,false,stim,false,2,610.2999999523163,2,1,1,62338,task2,1211591,false,false,1543,image-keyboard-response,9
true,15,2,2,2,true,d,false,true,0.0-2.0-0.53-0.482-3.482,0,1,0,68,false,stim,false,2,652.7999999523163,2,1,1,62338,task2,1213790,false,false,1546,image-keyboard-response,10
true,15,0,2,0,true,q,false,true,0.0-2.0-0.53-0.483-3.483,0,1,0,81,false,stim,false,2,498.1999999284744,2,0,2,62338,task2,1215822,false,false,1549,image-keyboard-response,11
true,15,2,2,2,true,d,false,true,0.0-2.0-0.53-0.484-3.484,0,1,0,68,false,stim,false,2,626.1999999284744,2,1,1,62338,task2,1217967,false,false,1552,image-keyboard-response,12
true,15,2,2,2,true,d,false,true,0.0-2.0-0.53-0.485-3.485,0,1,0,68,false,stim,false,1,477.7000000476837,2,0,0,62338,task2,1219962,false,false,1555,image-keyboard-response,13
true,15,2,2,2,true,d,false,true,0.0-2.0-0.54-0.486-3.486,0,1,0,68,false,stim,false,2,349.7999999523163,2,1,1,62338,task2,1221840,false,false,1558,image-keyboard-response,14
true,15,2,2,2,true,d,false,true,0.0-2.0-0.54-0.487-3.487,0,1,0,68,false,stim,false,2,351.8000000715256,2,1,1,62338,task2,1223733,false,false,1561,image-keyboard-response,15
true,15,2,2,2,true,d,false,true,0.0-2.0-0.54-0.488-3.488,0,1,0,68,false,stim,false,1,577.8999999761581,2,0,0,62338,task2,1225833,false,false,1564,image-keyboard-response,16
true,15,2,2,2,true,d,false,true,0.0-2.0-0.54-0.489-3.489,0,1,0,68,false,stim,false,1,562.8999999761581,2,0,0,62338,task2,1227915,false,false,1567,image-keyboard-response,17
true,15,0,2,0,true,q,false,true,0.0-2.0-0.54-0.490-3.490,0,1,0,81,false,stim,false,2,509.10000002384186,2,0,2,62338,task2,1229953,false,false,1570,image-keyboard-response,18
true,15,2,2,0,false,q,false,false,0.0-2.0-0.54-0.491-3.491,0,1,0,68,false,stim,true,2,536.0999999046326,2,0,2,62338,task2,1232024,false,false,1573,image-keyboard-response,19
true,15,0,2,0,true,q,false,true,0.0-2.0-0.54-0.492-3.492,0,1,0,81,false,stim,false,2,1017.5,2,0,2,62338,task2,1234564,false,false,1576,image-keyboard-response,20
true,15,2,2,2,true,d,false,true,0.0-2.0-0.54-0.493-3.493,0,1,0,68,false,stim,false,1,1144.3999999761581,2,0,0,62338,task2,1237237,false,false,1579,image-keyboard-response,21
true,15,2,2,2,true,d,false,true,0.0-2.0-0.54-0.494-3.494,0,1,0,68,false,stim,false,2,707.2000000476837,2,1,1,62338,task2,1239459,false,false,1582,image-keyboard-response,22
true,15,0,2,0,true,q,false,true,0.0-2.0-0.55-0.495-3.495,0,1,0,81,false,stim,false,2,633.0999999046326,2,0,2,62338,task2,1241626,false,false,1585,image-keyboard-response,23
true,15,2,2,2,true,d,false,true,0.0-2.0-0.55-0.496-3.496,0,1,0,68,false,stim,false,2,694.0999999046326,2,1,1,62338,task2,1243842,false,false,1588,image-keyboard-response,24
true,15,2,2,2,true,d,false,true,0.0-2.0-0.55-0.497-3.497,0,1,0,68,false,stim,false,1,1274.5,2,0,0,62338,task2,1246646,false,false,1591,image-keyboard-response,25
true,15,2,2,2,true,d,false,true,0.0-2.0-0.55-0.498-3.498,0,1,0,68,false,stim,false,2,752.0,2,1,1,62338,task2,1248922,false,false,1594,image-keyboard-response,26
true,15,0,2,0,true,q,false,true,0.0-2.0-0.55-0.499-3.499,0,1,0,81,false,stim,false,2,391.5,2,0,2,62338,task2,1250838,false,false,1597,image-keyboard-response,27
true,15,2,2,2,true,d,false,true,0.0-2.0-0.55-0.500-3.500,0,1,0,68,false,stim,false,1,439.0,2,0,0,62338,task2,1252795,false,false,1600,image-keyboard-response,28
true,15,2,2,2,true,d,false,true,0.0-2.0-0.55-0.501-3.501,0,1,0,68,false,stim,false,1,433.10000002384186,2,0,0,62338,task2,1254764,false,false,1603,image-keyboard-response,29
true,15,0,2,0,true,q,false,true,0.0-2.0-0.55-0.502-3.502,0,1,0,81,false,stim,false,2,558.0999999046326,2,0,2,62338,task2,1256844,false,false,1606,image-keyboard-response,30
true,15,2,2,2,true,d,false,true,0.0-2.0-0.55-0.503-3.503,0,1,0,68,false,stim,false,2,869.0,2,1,1,62338,task2,1259249,false,false,1609,image-keyboard-response,31
true,15,2,2,2,true,d,false,true,0.0-2.0-0.56-0.504-3.504,0,1,0,68,false,stim,false,2,456.6999999284744,2,1,1,62338,task2,1261218,false,false,1612,image-keyboard-response,32
true,15,0,2,0,true,q,false,false,0.0-2.0-0.56-0.505-3.505,0,1,0,81,false,stim,false,2,414.1999999284744,2,0,2,62338,task2,1263161,false,true,1615,image-keyboard-response,33
true,15,0,2,0,true,q,false,true,0.0-2.0-0.56-0.506-3.506,0,1,0,81,false,stim,false,2,554.0,2,0,2,62338,task2,1265245,false,false,1618,image-keyboard-response,34
true,16,2,2,0,false,q,false,true,0.0-2.0-0.56-0.507-3.507,0,1,0,68,true,stim,true,2,463.0,2,0,0,62338,task2,1267245,false,true,1621,image-keyboard-response,1
true,16,2,2,0,false,q,false,true,0.0-2.0-0.56-0.508-3.508,0,1,0,68,false,stim,true,2,447.7000000476837,2,0,0,62338,task2,1269218,false,true,1624,image-keyboard-response,2
true,16,2,2,2,true,d,false,true,0.0-2.0-0.56-0.509-3.509,0,1,0,68,false,stim,false,2,802.3999999761581,2,1,1,62338,task2,1271553,false,false,1627,image-keyboard-response,3
true,16,2,2,0,false,q,false,false,0.0-2.0-0.56-0.510-3.510,0,1,0,68,false,stim,true,2,697.8999999761581,2,0,0,62338,task2,1273790,false,false,1630,image-keyboard-response,4
true,16,2,2,2,true,d,false,true,0.0-2.0-0.56-0.511-3.511,0,1,0,68,false,stim,false,2,619.7000000476837,2,1,1,62338,task2,1275936,false,false,1633,image-keyboard-response,5
true,16,2,2,2,true,d,false,true,0.0-2.0-0.56-0.512-3.512,0,1,0,68,false,stim,false,0,2157.8000000715256,2,0,2,62338,task2,1279620,false,false,1636,image-keyboard-response,6
true,16,2,2,2,true,d,false,true,0.0-2.0-0.57-0.513-3.513,0,1,0,68,false,stim,false,0,377.60000002384186,2,0,2,62338,task2,1281526,false,false,1639,image-keyboard-response,7
true,16,2,2,0,false,q,false,false,0.0-2.0-0.57-0.514-3.514,0,1,0,68,false,stim,true,2,610.2000000476837,2,0,0,62338,task2,1283667,false,false,1642,image-keyboard-response,8
true,16,2,2,2,true,d,false,true,0.0-2.0-0.57-0.515-3.515,0,1,0,68,false,stim,false,2,574.5,2,1,1,62338,task2,1285776,false,false,1645,image-keyboard-response,9
true,16,2,2,2,true,d,false,true,0.0-2.0-0.57-0.516-3.516,0,1,0,68,false,stim,false,2,394.7000000476837,2,1,1,62338,task2,1287705,false,false,1648,image-keyboard-response,10
true,16,2,2,2,true,d,false,true,0.0-2.0-0.57-0.517-3.517,0,1,0,68,false,stim,false,0,391.8000000715256,2,0,2,62338,task2,1289621,false,false,1651,image-keyboard-response,11
true,16,2,2,2,true,d,false,true,0.0-2.0-0.57-0.518-3.518,0,1,0,68,false,stim,false,2,566.5999999046326,2,1,1,62338,task2,1291711,false,false,1654,image-keyboard-response,12
true,16,2,2,2,true,d,false,true,0.0-2.0-0.57-0.519-3.519,0,1,0,68,false,stim,false,0,439.39999997615814,2,0,2,62338,task2,1293682,false,false,1657,image-keyboard-response,13
true,16,0,2,0,true,q,false,false,0.0-2.0-0.57-0.520-3.520,0,1,0,81,false,stim,false,2,691.2999999523163,2,0,0,62338,task2,1295906,false,true,1660,image-keyboard-response,14
true,16,1,2,0,false,q,true,false,0.0-2.0-0.57-0.521-3.521,0,1,0,90,false,stim,false,2,423.7000000476837,2,0,0,62338,task2,1297848,false,false,1663,image-keyboard-response,15
true,16,1,2,0,false,q,true,false,0.0-2.0-0.58-0.522-3.522,0,1,0,90,false,stim,false,2,489.39999997615814,2,0,0,62338,task2,1299874,false,false,1666,image-keyboard-response,16
true,16,2,2,2,true,d,false,true,0.0-2.0-0.58-0.523-3.523,0,1,0,68,false,stim,false,2,581.6999999284744,2,1,1,62338,task2,1301981,false,false,1669,image-keyboard-response,17
true,16,2,2,2,true,d,false,true,0.0-2.0-0.58-0.524-3.524,0,1,0,68,false,stim,false,0,460.7999999523163,2,0,2,62338,task2,1303967,false,false,1672,image-keyboard-response,18
true,16,2,2,2,true,d,false,true,0.0-2.0-0.58-0.525-3.525,0,1,0,68,false,stim,false,2,368.39999997615814,2,1,1,62338,task2,1305872,false,false,1675,image-keyboard-response,19
true,16,0,2,0,true,q,false,true,0.0-2.0-0.58-0.526-3.526,0,1,0,81,false,stim,false,2,596.1000000238419,2,0,0,62338,task2,1308004,false,false,1678,image-keyboard-response,20
false,16,-1,2,2,false,d,true,false,0.0-2.0-0.58-0.527-3.527,0,1,0,,false,stim,false,0,,2,0,2,62338,task2,1312546,false,false,1681,image-keyboard-response,21
true,16,2,2,0,false,q,false,false,0.0-2.0-0.58-0.528-3.528,0,1,0,68,false,stim,true,2,1819.7000000476837,2,0,0,62338,task2,1315877,false,false,1684,image-keyboard-response,22
true,16,2,2,2,true,d,false,true,0.0-2.0-0.58-0.529-3.529,0,1,0,68,false,stim,false,0,333.7000000476837,2,0,2,62338,task2,1317739,false,false,1687,image-keyboard-response,23
true,16,2,2,2,true,d,false,true,0.0-2.0-0.58-0.530-3.530,0,1,0,68,false,stim,false,2,423.2000000476837,2,1,1,62338,task2,1319685,false,false,1690,image-keyboard-response,24
true,16,2,2,2,true,d,false,true,0.0-2.0-0.59-0.531-3.531,0,1,0,68,false,stim,false,2,314.60000002384186,2,1,1,62338,task2,1321523,false,false,1693,image-keyboard-response,25
true,16,2,2,2,true,d,false,true,0.0-2.0-0.59-0.532-3.532,0,1,0,68,false,stim,false,2,335.8000000715256,2,1,1,62338,task2,1323402,false,false,1696,image-keyboard-response,26
true,16,2,2,2,true,d,false,true,0.0-2.0-0.59-0.533-3.533,0,1,0,68,false,stim,false,0,641.3999999761581,2,0,2,62338,task2,1325577,false,false,1699,image-keyboard-response,27
true,16,0,2,0,true,q,false,true,0.0-2.0-0.59-0.534-3.534,0,1,0,81,false,stim,false,2,821.3999999761581,2,0,0,62338,task2,1327934,false,false,1702,image-keyboard-response,28
true,16,0,2,0,true,q,false,true,0.0-2.0-0.59-0.535-3.535,0,1,0,81,false,stim,false,2,376.60000002384186,2,0,0,62338,task2,1329831,false,false,1705,image-keyboard-response,29
true,16,2,2,2,true,d,false,true,0.0-2.0-0.59-0.536-3.536,0,1,0,68,false,stim,false,0,781.0,2,0,2,62338,task2,1332142,false,false,1708,image-keyboard-response,30
true,16,2,2,2,true,d,false,true,0.0-2.0-0.59-0.537-3.537,0,1,0,68,false,stim,false,2,335.89999997615814,2,1,1,62338,task2,1334010,false,false,1711,image-keyboard-response,31
true,16,0,2,0,true,q,false,true,0.0-2.0-0.59-0.538-3.538,0,1,0,81,false,stim,false,2,482.0,2,1,0,62338,task2,1336002,false,false,1714,image-keyboard-response,32
true,16,2,2,2,true,d,false,true,0.0-2.0-0.59-0.539-3.539,0,1,0,68,false,stim,false,0,309.89999997615814,2,1,2,62338,task2,1337837,false,false,1717,image-keyboard-response,33
true,16,2,2,2,true,d,false,true,0.0-2.0-0.60-0.540-3.540,0,1,0,68,false,stim,false,0,613.7000000476837,2,1,2,62338,task2,1339969,false,false,1720,image-keyboard-response,34
true,16,2,2,2,true,d,false,true,0.0-2.0-0.60-0.541-3.541,0,1,0,68,false,stim,false,2,440.5,2,1,1,62338,task2,1341934,false,false,1723,image-keyboard-response,35
true,17,0,0,0,true,q,false,true,0.0-2.0-0.60-0.542-3.542,1,1,1,81,true,stim,false,0,693.3000000715256,2,1,0,62338,task2,1464938,false,false,1846,image-keyboard-response,1
true,17,0,0,0,true,q,false,true,0.0-2.0-0.60-0.543-3.543,1,1,1,81,false,stim,false,0,397.0,2,1,0,62338,task2,1466859,false,false,1849,image-keyboard-response,2
true,17,2,0,2,true,d,false,true,0.0-2.0-0.60-0.544-3.544,1,1,1,68,false,stim,false,2,603.6000000238419,2,1,1,62338,task2,1468986,false,false,1852,image-keyboard-response,3
true,17,2,0,2,true,d,false,true,0.0-2.0-0.60-0.545-3.545,1,1,1,68,false,stim,false,2,392.60000002384186,2,1,1,62338,task2,1470905,false,false,1855,image-keyboard-response,4
true,17,0,0,0,true,q,false,true,0.0-2.0-0.60-0.546-3.546,1,1,1,81,false,stim,false,0,584.5,2,1,0,62338,task2,1473020,false,false,1858,image-keyboard-response,5
true,17,2,0,2,true,d,false,false,0.0-2.0-0.60-0.547-3.547,1,1,1,68,false,stim,false,2,421.1999999284744,2,1,2,62338,task2,1474965,false,true,1861,image-keyboard-response,6
true,17,2,0,2,true,d,false,true,0.0-2.0-0.60-0.548-3.548,1,1,1,68,false,stim,false,2,436.0,2,1,2,62338,task2,1476948,false,false,1864,image-keyboard-response,7
true,17,0,0,0,true,q,false,true,0.0-2.0-0.61-0.549-3.549,1,1,1,81,false,stim,false,0,439.3000000715256,2,1,0,62338,task2,1478901,false,false,1867,image-keyboard-response,8
true,17,2,0,2,true,d,false,true,0.0-2.0-0.61-0.550-3.550,1,1,1,68,false,stim,false,2,574.6000000238419,2,0,2,62338,task2,1481005,false,false,1870,image-keyboard-response,9
true,17,0,0,0,true,q,false,true,0.0-2.0-0.61-0.551-3.551,1,1,1,81,false,stim,false,0,422.8000000715256,2,1,0,62338,task2,1482965,false,false,1873,image-keyboard-response,10
true,17,2,0,2,true,d,false,true,0.0-2.0-0.61-0.552-3.552,1,1,1,68,false,stim,false,2,481.1999999284744,2,0,1,62338,task2,1484971,false,false,1876,image-keyboard-response,11
true,17,2,0,2,true,d,false,true,0.0-2.0-0.61-0.553-3.553,1,1,1,68,false,stim,false,2,355.60000002384186,2,0,1,62338,task2,1486848,false,false,1879,image-keyboard-response,12
true,17,0,0,0,true,q,false,true,0.0-2.0-0.61-0.554-3.554,1,1,1,81,false,stim,false,0,634.8999999761581,2,1,0,62338,task2,1489024,false,false,1882,image-keyboard-response,13
true,18,2,2,1,false,z,false,false,0.0-2.0-0.61-0.555-3.555,1,0,0,68,true,stim,true,2,536.8999999761581,2,0,2,62338,task2,1491088,false,false,1885,image-keyboard-response,1
true,18,2,2,0,false,q,false,false,0.0-2.0-0.61-0.556-3.556,1,0,0,68,false,stim,true,2,537.1000000238419,2,0,1,62338,task2,1493146,false,false,1888,image-keyboard-response,2
true,18,2,2,1,false,z,false,true,0.0-2.0-0.61-0.557-3.557,1,0,0,68,false,stim,true,2,558.1999999284744,2,0,2,62338,task2,1495231,false,true,1891,image-keyboard-response,3
true,18,2,2,1,false,z,false,false,0.0-2.0-0.62-0.558-3.558,1,0,0,68,false,stim,true,2,548.4000000953674,2,0,2,62338,task2,1497307,false,false,1894,image-keyboard-response,4
true,18,2,2,1,false,z,false,false,0.0-2.0-0.62-0.559-3.559,1,0,0,68,false,stim,true,2,459.0,2,0,2,62338,task2,1499296,false,false,1897,image-keyboard-response,5
true,18,2,2,0,false,q,false,false,0.0-2.0-0.62-0.560-3.560,1,0,0,68,false,stim,true,2,498.2000000476837,2,0,1,62338,task2,1501329,false,false,1900,image-keyboard-response,6
true,18,1,2,0,false,q,true,false,0.0-2.0-0.62-0.561-3.561,1,0,0,90,false,stim,false,2,479.89999997615814,2,0,1,62338,task2,1503350,false,false,1903,image-keyboard-response,7
true,18,0,2,0,true,q,false,true,0.0-2.0-0.62-0.562-3.562,1,0,0,81,false,stim,false,0,443.6999999284744,2,1,0,62338,task2,1505321,false,false,1906,image-keyboard-response,8
true,18,1,2,1,true,z,false,true,0.0-2.0-0.62-0.563-3.563,1,0,0,90,false,stim,false,2,971.0,2,0,2,62338,task2,1507828,false,false,1909,image-keyboard-response,9
true,18,0,2,0,true,q,false,true,0.0-2.0-0.62-0.564-3.564,1,0,0,81,false,stim,false,2,935.6000000238419,2,0,1,62338,task2,1510304,false,false,1912,image-keyboard-response,10
true,18,0,2,0,true,q,false,true,0.0-2.0-0.62-0.565-3.565,1,0,0,81,false,stim,false,0,448.39999997615814,2,1,0,62338,task2,1512282,false,false,1915,image-keyboard-response,11
true,18,0,2,0,true,q,false,true,0.0-2.0-0.62-0.566-3.566,1,0,0,81,false,stim,false,0,342.40000009536743,2,1,0,62338,task2,1514144,false,false,1918,image-keyboard-response,12
true,18,1,2,1,true,z,false,true,0.0-2.0-0.63-0.567-3.567,1,0,0,90,false,stim,false,2,632.8999999761581,2,0,2,62338,task2,1516310,false,false,1921,image-keyboard-response,13
true,18,1,2,1,true,z,false,true,0.0-2.0-0.63-0.568-3.568,1,0,0,90,false,stim,false,2,366.2000000476837,2,0,2,62338,task2,1518198,false,false,1924,image-keyboard-response,14
true,18,0,2,0,true,q,false,true,0.0-2.0-0.63-0.569-3.569,1,0,0,81,false,stim,false,0,460.5,2,1,0,62338,task2,1520184,false,false,1927,image-keyboard-response,15
true,18,0,2,0,true,q,false,true,0.0-2.0-0.63-0.570-3.570,1,0,0,81,false,stim,false,2,412.7000000476837,2,0,1,62338,task2,1522128,false,false,1930,image-keyboard-response,16
true,18,0,2,0,true,q,false,true,0.0-2.0-0.63-0.571-3.571,1,0,0,81,false,stim,false,2,392.7999999523163,2,0,1,62338,task2,1524034,false,false,1933,image-keyboard-response,17
true,18,0,2,0,true,q,false,true,0.0-2.0-0.63-0.572-3.572,1,0,0,81,false,stim,false,0,502.2000000476837,2,1,0,62338,task2,1526063,false,false,1936,image-keyboard-response,18
true,18,0,2,0,true,q,false,true,0.0-2.0-0.63-0.573-3.573,1,0,0,81,false,stim,false,0,452.89999997615814,2,1,0,62338,task2,1528036,false,false,1939,image-keyboard-response,19
true,18,0,2,0,true,q,false,true,0.0-2.0-0.63-0.574-3.574,1,0,0,81,false,stim,false,2,852.8999999761581,2,0,1,62338,task2,1530399,false,false,1942,image-keyboard-response,20
true,18,1,2,1,true,z,false,true,0.0-2.0-0.63-0.575-3.575,1,0,0,90,false,stim,false,2,940.2999999523163,2,0,2,62338,task2,1532858,false,false,1945,image-keyboard-response,21
true,18,1,2,1,true,z,false,true,0.0-2.0-0.64-0.576-3.576,1,0,0,90,false,stim,false,2,439.5,2,0,2,62338,task2,1534840,false,false,1948,image-keyboard-response,22
true,18,0,2,0,true,q,false,true,0.0-2.0-0.64-0.577-3.577,1,0,0,81,false,stim,false,0,538.2999999523163,2,1,0,62338,task2,1536915,false,false,1951,image-keyboard-response,23
true,18,0,2,0,true,q,false,true,0.0-2.0-0.64-0.578-3.578,1,0,0,81,false,stim,false,2,700.2999999523163,2,0,1,62338,task2,1539137,false,false,1954,image-keyboard-response,24
true,18,1,2,1,true,z,false,true,0.0-2.0-0.64-0.579-3.579,1,0,0,90,false,stim,false,2,785.3000000715256,2,0,2,62338,task2,1541446,false,false,1957,image-keyboard-response,25
true,18,0,2,0,true,q,false,true,0.0-2.0-0.64-0.580-3.580,1,0,0,81,false,stim,false,2,1067.7000000476837,2,0,1,62338,task2,1544032,false,false,1960,image-keyboard-response,26
true,18,0,2,0,true,q,false,true,0.0-2.0-0.64-0.581-3.581,1,0,0,81,false,stim,false,2,359.6999999284744,2,0,1,62338,task2,1545926,false,false,1963,image-keyboard-response,27
true,18,1,2,1,true,z,false,true,0.0-2.0-0.64-0.582-3.582,1,0,0,90,false,stim,false,2,859.8999999761581,2,0,2,62338,task2,1548312,false,false,1966,image-keyboard-response,28
true,18,0,2,0,true,q,false,true,0.0-2.0-0.64-0.583-3.583,1,0,0,81,false,stim,false,0,514.6000000238419,2,1,0,62338,task2,1550361,false,false,1969,image-keyboard-response,29
true,18,0,2,0,true,q,false,true,0.0-2.0-0.64-0.584-3.584,1,0,0,81,false,stim,false,0,387.89999997615814,2,1,0,62338,task2,1552264,false,false,1972,image-keyboard-response,30
true,18,1,2,1,true,z,false,true,0.0-2.0-0.65-0.585-3.585,1,0,0,90,false,stim,false,2,466.89999997615814,2,0,2,62338,task2,1554266,false,false,1975,image-keyboard-response,31
true,18,0,2,0,true,q,false,true,0.0-2.0-0.65-0.586-3.586,1,0,0,81,false,stim,false,2,987.0,2,0,1,62338,task2,1556785,false,false,1978,image-keyboard-response,32
true,18,0,2,0,true,q,false,true,0.0-2.0-0.65-0.587-3.587,1,0,0,81,false,stim,false,2,477.39999997615814,2,0,1,62338,task2,1558787,false,false,1981,image-keyboard-response,33
true,19,0,2,0,true,q,false,true,0.0-2.0-0.65-0.588-3.588,1,0,0,81,true,stim,false,0,1092.4000000953674,2,1,0,62338,task2,1561414,false,false,1984,image-keyboard-response,1
true,19,1,2,2,false,d,false,false,0.0-2.0-0.65-0.589-3.589,1,0,0,90,false,stim,true,1,610.7999999523163,2,0,2,62338,task2,1563559,false,false,1987,image-keyboard-response,2
true,19,1,2,2,false,d,false,false,0.0-2.0-0.65-0.590-3.590,1,0,0,90,false,stim,true,1,505.2999999523163,2,0,2,62338,task2,1565594,false,false,1990,image-keyboard-response,3
