answered,blockNum,choice,condition,corResp,correct,correct_response,explo,fb,internal_node_id,isStable_1,isStable_2,isStable_3,key_press,newBlock,part,persev,persevResp,rt,sessNum,stableAS,stimulus,subject,task,time_elapsed,training,trap,trial_index,trial_type,trialsInBlock
true,1,0,0,2,false,d,true,false,0.0-2.0-0.0-0.0-3.0,0,0,0,81,true,stim,false,-1,595.8999999761581,1,0,0,62338,task1,101921,false,false,79,image-keyboard-response,1
true,1,0,0,0,true,q,false,true,0.0-2.0-0.0-0.1-3.1,0,0,0,81,false,stim,false,-1,792.7000000476837,1,0,2,62338,task1,104236,false,false,82,image-keyboard-response,2
true,1,0,0,2,false,d,true,false,0.0-2.0-0.0-0.2-3.2,0,0,0,81,false,stim,false,-1,718.8000000715256,1,0,1,62338,task1,106472,false,false,85,image-keyboard-response,3
true,1,0,0,0,true,q,false,true,0.0-2.0-0.0-0.3-3.3,0,0,0,81,false,stim,false,-1,647.1000000238419,1,0,2,62338,task1,108637,false,false,88,image-keyboard-response,4
true,1,1,0,2,false,d,true,false,0.0-2.0-0.0-0.4-3.4,0,0,0,90,false,stim,false,-1,385.60000002384186,1,0,0,62338,task1,110559,false,false,91,image-keyboard-response,5
true,1,1,0,2,false,d,true,false,0.0-2.0-0.0-0.5-3.5,0,0,0,90,false,stim,false,-1,1268.1999999284744,1,0,1,62338,task1,113342,false,false,94,image-keyboard-response,6
true,1,2,0,2,true,d,false,true,0.0-2.0-0.0-0.6-3.6,0,0,0,68,false,stim,false,-1,762.7000000476837,1,0,1,62338,task1,115639,false,false,97,image-keyboard-response,7
true,1,0,0,0,true,q,false,true,0.0-2.0-0.0-0.7-3.7,0,0,0,81,false,stim,false,-1,456.89999997615814,1,0,2,62338,task1,117629,false,false,100,image-keyboard-response,8
true,1,2,0,2,true,d,false,true,0.0-2.0-0.0-0.8-3.8,0,0,0,68,false,stim,false,-1,672.2999999523163,1,0,0,62338,task1,119824,false,false,103,image-keyboard-response,9
true,1,2,0,2,true,d,false,false,0.0-2.0-0.1-0.9-3.9,0,0,0,68,false,stim,false,-1,813.5,1,0,1,62338,task1,122159,false,true,106,image-keyboard-response,10
true,1,2,0,2,true,d,false,true,0.0-2.0-0.1-0.10-3.10,0,0,0,68,false,stim,false,-1,1394.7999999523163,1,0,0,62338,task1,125081,false,false,109,image-keyboard-response,11
true,1,2,0,2,true,d,false,true,0.0-2.0-0.1-0.11-3.11,0,0,0,68,false,stim,false,-1,525.7999999523163,1,0,1,62338,task1,127128,false,false,112,image-keyboard-response,12
true,1,2,0,2,true,d,false,true,0.0-2.0-0.1-0.12-3.12,0,0,0,68,false,stim,false,-1,516.7000000476837,1,0,1,62338,task1,129171,false,false,115,image-keyboard-response,13
true,1,0,0,0,true,q,false,true,0.0-2.0-0.1-0.13-3.13,0,0,0,81,false,stim,false,-1,488.0,1,0,2,62338,task1,131185,false,false,118,image-keyboard-response,14
true,1,0,0,0,true,q,false,true,0.0-2.0-0.1-0.14-3.14,0,0,0,81,false,stim,false,-1,445.10000002384186,1,0,2,62338,task1,133144,false,false,121,image-keyboard-response,15
true,1,2,0,2,true,d,false,true,0.0-2.0-0.1-0.15-3.15,0,0,0,68,false,stim,false,-1,553.2000000476837,1,0,0,62338,task1,135212,false,false,124,image-keyboard-response,16
true,1,0,0,0,true,q,false,true,0.0-2.0-0.1-0.16-3.16,0,0,0,81,false,stim,false,-1,1116.7000000476837,1,0,2,62338,task1,137857,false,false,127,image-keyboard-response,17
true,1,2,0,2,true,d,false,true,0.0-2.0-0.1-0.17-3.17,0,0,0,68,false,stim,false,-1,538.0,1,0,0,62338,task1,139925,false,false,130,image-keyboard-response,18
true,1,2,0,2,true,d,false,true,0.0-2.0-0.2-0.18-3.18,0,0,0,68,false,stim,false,-1,580.1999999284744,1,0,1,62338,task1,142035,false,false,133,image-keyboard-response,19
true,1,2,0,2,true,d,false,true,0.0-2.0-0.2-0.19-3.19,0,0,0,68,false,stim,false,-1,1113.2000000476837,1,0,0,62338,task1,144657,false,false,136,image-keyboard-response,20
true,1,2,0,2,true,d,false,true,0.0-2.0-0.2-0.20-3.20,0,0,0,68,false,stim,false,-1,535.8999999761581,1,0,0,62338,task1,146722,false,false,139,image-keyboard-response,21
true,1,2,0,2,true,d,false,true,0.0-2.0-0.2-0.21-3.21,0,0,0,68,false,stim,false,-1,1033.1999999284744,1,0,1,62338,task1,149286,false,false,142,image-keyboard-response,22
true,1,2,0,2,true,d,false,true,0.0-2.0-0.2-0.22-3.22,0,0,0,68,false,stim,false,-1,627.1000000238419,1,0,0,62338,task1,151432,false,false,145,image-keyboard-response,23
true,1,0,0,0,true,q,false,true,0.0-2.0-0.2-0.23-3.23,0,0,0,81,false,stim,false,-1,801.6000000238419,1,0,2,62338,task1,153757,false,false,148,image-keyboard-response,24
true,1,0,0,0,true,q,false,true,0.0-2.0-0.2-0.24-3.24,0,0,0,81,false,stim,false,-1,447.89999997615814,1,0,2,62338,task1,155714,false,false,151,image-keyboard-response,25
true,1,0,0,0,true,q,false,true,0.0-2.0-0.2-0.25-3.25,0,0,0,81,false,stim,false,-1,397.1999999284744,1,0,2,62338,task1,157639,false,false,154,image-keyboard-response,26
true,2,2,1,1,false,z,false,false,0.0-2.0-0.2-0.26-3.26,0,0,0,68,true,stim,true,2,508.7000000476837,1,0,1,62338,task1,159665,false,false,157,image-keyboard-response,1
true,2,2,1,1,false,z,false,false,0.0-2.0-0.3-0.27-3.27,0,0,0,68,false,stim,true,2,414.5,1,0,0,62338,task1,161610,false,false,160,image-keyboard-response,2
true,2,2,1,1,false,z,false,false,0.0-2.0-0.3-0.28-3.28,0,0,0,68,false,stim,true,2,417.39999997615814,1,0,1,62338,task1,163534,false,false,163,image-keyboard-response,3
true,2,2,1,1,false,z,false,false,0.0-2.0-0.3-0.29-3.29,0,0,0,68,false,stim,true,2,488.5,1,0,0,62338,task1,165547,false,false,166,image-keyboard-response,4
true,2,1,1,1,true,z,false,false,0.0-2.0-0.3-0.30-3.30,0,0,0,90,false,stim,false,2,783.6000000238419,1,0,1,62338,task1,167854,false,true,169,image-keyboard-response,5
true,2,0,1,2,false,d,false,false,0.0-2.0-0.3-0.31-3.31,0,0,0,81,false,stim,true,0,527.3999999761581,1,0,2,62338,task1,169897,false,false,172,image-keyboard-response,6
true,2,1,1,1,true,z,false,true,0.0-2.0-0.3-0.32-3.32,0,0,0,90,false,stim,false,2,846.0,1,0,1,62338,task1,172260,false,false,175,image-keyboard-response,7
true,2,1,1,1,true,z,false,false,0.0-2.0-0.3-0.33-3.33,0,0,0,90,false,stim,false,2,1039.5,1,0,0,62338,task1,174818,false,true,178,image-keyboard-response,8
true,2,1,1,2,false,d,true,false,0.0-2.0-0.3-0.34-3.34,0,0,0,90,false,stim,false,0,1247.2000000476837,1,0,2,62338,task1,177572,false,false,181,image-keyboard-response,9
true,2,2,1,2,true,d,false,true,0.0-2.0-0.3-0.35-3.35,0,0,0,68,false,stim,false,0,981.8999999761581,1,0,2,62338,task1,180071,false,false,184,image-keyboard-response,10
true,2,0,1,1,false,z,true,false,0.0-2.0-0.4-0.36-3.36,0,0,0,81,false,stim,false,2,1060.8000000715256,1,0,0,62338,task1,182658,false,false,187,image-keyboard-response,11
true,2,2,1,2,true,d,false,true,0.0-2.0-0.4-0.37-3.37,0,0,0,68,false,stim,false,0,690.8999999761581,1,0,2,62338,task1,184863,false,false,190,image-keyboard-response,12
true,2,1,1,1,true,z,false,true,0.0-2.0-0.4-0.38-3.38,0,0,0,90,false,stim,false,2,1607.5,1,0,1,62338,task1,187990,false,false,193,image-keyboard-response,13
true,2,1,1,1,true,z,false,true,0.0-2.0-0.4-0.39-3.39,0,0,0,90,false,stim,false,2,960.7999999523163,1,0,0,62338,task1,190465,false,false,196,image-keyboard-response,14
true,2,2,1,2,true,d,false,true,0.0-2.0-0.4-0.40-3.40,0,0,0,68,false,stim,false,0,486.39999997615814,1,0,2,62338,task1,192470,false,false,199,image-keyboard-response,15
true,2,2,1,2,true,d,false,true,0.0-2.0-0.4-0.41-3.41,0,0,0,68,false,stim,false,0,403.89999997615814,1,0,2,62338,task1,194389,false,false,202,image-keyboard-response,16
true,2,1,1,1,true,z,false,true,0.0-2.0-0.4-0.42-3.42,0,0,0,90,false,stim,false,2,449.2000000476837,1,0,0,62338,task1,196367,false,false,205,image-keyboard-response,17
true,2,1,1,1,true,z,false,true,0.0-2.0-0.4-0.43-3.43,0,0,0,90,false,stim,false,2,1222.9000000953674,1,0,1,62338,task1,199113,false,false,208,image-keyboard-response,18
true,2,1,1,1,true,z,false,true,0.0-2.0-0.4-0.44-3.44,0,0,0,90,false,stim,false,2,444.2999999523163,1,0,1,62338,task1,201076,false,false,211,image-keyboard-response,19
true,2,1,1,1,true,z,false,true,0.0-2.0-0.5-0.45-3.45,0,0,0,90,false,stim,false,2,1070.2999999523163,1,0,0,62338,task1,203670,false,false,214,image-keyboard-response,20
true,2,2,1,2,true,d,false,true,0.0-2.0-0.5-0.46-3.46,0,0,0,68,false,stim,false,0,671.0,1,0,2,62338,task1,205862,false,false,217,image-keyboard-response,21
true,2,1,1,1,true,z,false,true,0.0-2.0-0.5-0.47-3.47,0,0,0,90,false,stim,false,2,802.7000000476837,1,0,1,62338,task1,208177,false,false,220,image-keyboard-response,22
true,2,1,1,1,true,z,false,false,0.0-2.0-0.5-0.48-3.48,0,0,0,90,false,stim,false,2,520.2000000476837,1,0,1,62338,task1,210216,false,true,223,image-keyboard-response,23
true,2,2,1,2,true,d,false,false,0.0-2.0-0.5-0.49-3.49,0,0,0,68,false,stim,false,0,685.2999999523163,1,0,2,62338,task1,212420,false,true,226,image-keyboard-response,24
true,2,1,1,1,true,z,false,true,0.0-2.0-0.5-0.50-3.50,0,0,0,90,false,stim,false,2,390.60000002384186,1,0,0,62338,task1,214336,false,false,229,image-keyboard-response,25
true,2,2,1,2,true,d,false,true,0.0-2.0-0.5-0.51-3.51,0,0,0,68,false,stim,false,0,512.5,1,0,2,62338,task1,216360,false,false,232,image-keyboard-response,26
true,2,1,1,1,true,z,false,true,0.0-2.0-0.5-0.52-3.52,0,0,0,90,false,stim,false,2,594.3999999761581,1,0,0,62338,task1,218483,false,false,235,image-keyboard-response,27
true,2,1,1,1,true,z,false,true,0.0-2.0-0.5-0.53-3.53,0,0,0,90,false,stim,false,2,539.3999999761581,1,0,1,62338,task1,220551,false,false,238,image-keyboard-response,28
true,2,1,1,1,true,z,false,true,0.0-2.0-0.6-0.54-3.54,0,0,0,90,false,stim,false,2,686.5,1,0,0,62338,task1,222762,false,false,241,image-keyboard-response,29
true,2,1,1,1,true,z,false,true,0.0-2.0-0.6-0.55-3.55,0,0,0,90,false,stim,false,2,628.8999999761581,1,0,1,62338,task1,224922,false,false,244,image-keyboard-response,30
true,2,1,1,1,true,z,false,true,0.0-2.0-0.6-0.56-3.56,0,0,0,90,false,stim,false,2,619.7999999523163,1,0,1,62338,task1,227077,false,false,247,image-keyboard-response,31
true,2,2,1,2,true,d,false,true,0.0-2.0-0.6-0.57-3.57,0,0,0,68,false,stim,false,0,1367.1999999284744,1,0,2,62338,task1,229953,false,false,250,image-keyboard-response,32
true,2,1,1,1,true,z,false,true,0.0-2.0-0.6-0.58-3.58,0,0,0,90,false,stim,false,2,560.6999999284744,1,0,1,62338,task1,232030,false,false,253,image-keyboard-response,33
true,2,2,1,2,true,d,false,true,0.0-2.0-0.6-0.59-3.59,0,0,0,68,false,stim,false,0,421.3000000715256,1,0,2,62338,task1,233987,false,false,256,image-keyboard-response,34
true,2,1,1,1,true,z,false,true,0.0-2.0-0.6-0.60-3.60,0,0,0,90,false,stim,false,2,457.89999997615814,1,0,0,62338,task1,235964,false,false,259,image-keyboard-response,35
true,2,1,1,1,true,z,false,false,0.0-2.0-0.6-0.61-3.61,0,0,0,90,false,stim,false,2,475.89999997615814,1,0,0,62338,task1,237952,false,true,262,image-keyboard-response,36
true,2,2,1,2,true,d,false,true,0.0-2.0-0.6-0.62-3.62,0,0,0,68,false,stim,false,0,588.7999999523163,1,0,2,62338,task1,240047,false,false,265,image-keyboard-response,37
true,2,1,1,1,true,z,false,true,0.0-2.0-0.7-0.63-3.63,0,0,0,90,false,stim,false,2,556.7000000476837,1,0,1,62338,task1,242119,false,false,268,image-keyboard-response,38
true,2,2,1,2,true,d,false,true,0.0-2.0-0.7-0.64-3.64,0,0,0,68,false,stim,false,0,584.6000000238419,1,0,2,62338,task1,244219,false,false,271,image-keyboard-response,39
true,2,1,1,1,true,z,false,false,0.0-2.0-0.7-0.65-3.65,0,0,0,90,false,stim,false,2,333.2999999523163,1,0,0,62338,task1,246063,false,true,274,image-keyboard-response,40
true,2,1,1,1,true,z,false,true,0.0-2.0-0.7-0.66-3.66,0,0,0,90,false,stim,false,2,672.1000000238419,1,0,1,62338,task1,248263,false,false,277,image-keyboard-response,41
true,2,0,1,1,false,z,true,false,0.0-2.0-0.7-0.67-3.67,0,0,0,81,false,stim,false,2,522.8000000715256,1,0,0,62338,task1,250304,false,false,280,image-keyboard-response,42
true,2,2,1,2,true,d,false,true,0.0-2.0-0.7-0.68-3.68,0,0,0,68,false,stim,false,0,659.5,1,0,2,62338,task1,252480,false,false,283,image-keyboard-response,43
true,3,2,1,2,true,d,false,true,0.0-2.0-0.7-0.69-3.69,0,0,0,68,true,stim,false,1,629.0,1,0,0,62338,task1,254629,false,false,286,image-keyboard-response,1
true,3,1,1,0,false,q,false,false,0.0-2.0-0.7-0.70-3.70,0,0,0,90,false,stim,true,1,577.9000000953674,1,0,1,62338,task1,256732,false,false,289,image-keyboard-response,2
true,3,2,1,1,false,z,false,false,0.0-2.0-0.7-0.71-3.71,0,0,0,68,false,stim,true,2,564.8999999761581,1,0,2,62338,task1,258826,false,false,292,image-keyboard-response,3
true,3,1,1,0,false,q,false,false,0.0-2.0-0.8-0.72-3.72,0,0,0,90,false,stim,true,1,623.5999999046326,1,0,1,62338,task1,260969,false,false,295,image-keyboard-response,4
true,3,2,1,0,false,q,true,false,0.0-2.0-0.8-0.73-3.73,0,0,0,68,false,stim,false,1,723.3999999761581,1,0,1,62338,task1,263213,false,false,298,image-keyboard-response,5
true,3,2,1,1,false,z,false,false,0.0-2.0-0.8-0.74-3.74,0,0,0,68,false,stim,true,2,659.6000000238419,1,0,2,62338,task1,265398,false,false,301,image-keyboard-response,6
true,3,1,1,1,true,z,false,true,0.0-2.0-0.8-0.75-3.75,0,0,0,90,false,stim,false,2,952.6999999284744,1,0,2,62338,task1,267878,false,false,304,image-keyboard-response,7
true,3,1,1,2,false,d,false,false,0.0-2.0-0.8-0.76-3.76,0,0,0,90,false,stim,true,1,450.5,1,0,0,62338,task1,269856,false,false,307,image-keyboard-response,8
true,3,1,1,2,false,d,false,false,0.0-2.0-0.8-0.77-3.77,0,0,0,90,false,stim,true,1,635.7000000476837,1,0,0,62338,task1,272013,false,false,310,image-keyboard-response,9
true,3,0,1,2,false,d,true,false,0.0-2.0-0.8-0.78-3.78,0,0,0,81,false,stim,false,1,451.7999999523163,1,0,0,62338,task1,273995,false,false,313,image-keyboard-response,10
true,3,0,1,0,true,q,false,true,0.0-2.0-0.8-0.79-3.79,0,0,0,81,false,stim,false,1,866.1999999284744,1,0,1,62338,task1,276380,false,false,316,image-keyboard-response,11
true,3,1,1,1,true,z,false,true,0.0-2.0-0.8-0.80-3.80,0,0,0,90,false,stim,false,2,730.8000000715256,1,0,2,62338,task1,278626,false,false,319,image-keyboard-response,12
true,3,0,1,0,true,q,false,true,0.0-2.0-0.9-0.81-3.81,0,0,0,81,false,stim,false,1,710.3000000715256,1,0,1,62338,task1,280866,false,false,322,image-keyboard-response,13
true,3,0,1,0,true,q,false,true,0.0-2.0-0.9-0.82-3.82,0,0,0,81,false,stim,false,1,505.3000000715256,1,0,1,62338,task1,282880,false,false,325,image-keyboard-response,14
true,3,1,1,1,true,z,false,true,0.0-2.0-0.9-0.83-3.83,0,0,0,90,false,stim,false,2,514.0,1,0,2,62338,task1,284908,false,false,328,image-keyboard-response,15
true,3,0,1,0,true,q,false,true,0.0-2.0-0.9-0.84-3.84,0,0,0,81,false,stim,false,1,361.40000009536743,1,0,1,62338,task1,286787,false,false,331,image-keyboard-response,16
true,3,1,1,1,true,z,false,true,0.0-2.0-0.9-0.85-3.85,0,0,0,90,false,stim,false,2,355.7999999523163,1,0,2,62338,task1,288665,false,false,334,image-keyboard-response,17
true,3,1,1,1,true,z,false,true,0.0-2.0-0.9-0.86-3.86,0,0,0,90,false,stim,false,2,752.6000000238419,1,0,2,62338,task1,290927,false,false,337,image-keyboard-response,18
true,3,2,1,2,true,d,false,true,0.0-2.0-0.9-0.87-3.87,0,0,0,68,false,stim,false,1,1262.1999999284744,1,0,0,62338,task1,293705,false,false,340,image-keyboard-response,19
true,3,2,1,2,true,d,false,true,0.0-2.0-0.9-0.88-3.88,0,0,0,68,false,stim,false,1,552.5999999046326,1,0,0,62338,task1,295775,false,false,343,image-keyboard-response,20
true,3,2,1,2,true,d,false,false,0.0-2.0-0.9-0.89-3.89,0,0,0,68,false,stim,false,1,422.10000002384186,1,0,0,62338,task1,297722,false,true,346,image-keyboard-response,21
true,3,2,1,2,true,d,false,true,0.0-2.0-0.10-0.90-3.90,0,0,0,68,false,stim,false,1,407.7000000476837,1,0,0,62338,task1,299655,false,false,349,image-keyboard-response,22
true,3,2,1,2,true,d,false,true,0.0-2.0-0.10-0.91-3.91,0,0,0,68,false,stim,false,1,508.6999999284744,1,0,0,62338,task1,301681,false,false,352,image-keyboard-response,23
true,3,2,1,2,true,d,false,true,0.0-2.0-0.10-0.92-3.92,0,0,0,68,false,stim,false,1,424.39999997615814,1,0,0,62338,task1,303623,false,false,355,image-keyboard-response,24
true,3,0,1,0,true,q,false,true,0.0-2.0-0.10-0.93-3.93,0,0,0,81,false,stim,false,1,873.0,1,0,1,62338,task1,306022,false,false,358,image-keyboard-response,25
true,3,1,1,1,true,z,false,true,0.0-2.0-0.10-0.94-3.94,0,0,0,90,false,stim,false,2,578.1999999284744,1,0,2,62338,task1,308110,false,false,361,image-keyboard-response,26
true,3,0,1,0,true,q,false,true,0.0-2.0-0.10-0.95-3.95,0,0,0,81,false,stim,false,1,624.7999999523163,1,0,1,62338,task1,310256,false,false,364,image-keyboard-response,27
true,3,1,1,1,true,z,false,true,0.0-2.0-0.10-0.96-3.96,0,0,0,90,false,stim,false,2,436.7000000476837,1,0,2,62338,task1,312200,false,false,367,image-keyboard-response,28
true,3,1,1,1,true,z,false,true,0.0-2.0-0.10-0.97-3.97,0,0,0,90,false,stim,false,2,505.10000002384186,1,0,2,62338,task1,314223,false,false,370,image-keyboard-response,29
true,3,0,1,0,true,q,false,true,0.0-2.0-0.10-0.98-3.98,0,0,0,81,false,stim,false,1,504.0,1,0,1,62338,task1,316238,false,false,373,image-keyboard-response,30
true,3,1,1,1,true,z,false,true,0.0-2.0-0.11-0.99-3.99,0,0,0,90,false,stim,false,2,413.7999999523163,1,0,2,62338,task1,318165,false,false,376,image-keyboard-response,31
true,3,2,1,2,true,d,false,true,0.0-2.0-0.11-0.100-3.100,0,0,0,68,false,stim,false,1,633.8000000715256,1,0,0,62338,task1,320323,false,false,379,image-keyboard-response,32
true,3,1,1,1,true,z,false,true,0.0-2.0-0.11-0.101-3.101,0,0,0,90,false,stim,false,2,1168.8000000715256,1,0,2,62338,task1,323019,false,false,382,image-keyboard-response,33
true,3,0,1,0,true,q,false,true,0.0-2.0-0.11-0.102-3.102,0,0,0,81,false,stim,false,1,620.1000000238419,1,0,1,62338,task1,325158,false,false,385,image-keyboard-response,34
true,3,0,1,0,true,q,false,true,0.0-2.0-0.11-0.103-3.103,0,0,0,81,false,stim,false,1,469.90000009536743,1,0,1,62338,task1,327158,false,false,388,image-keyboard-response,35
true,3,0,1,0,true,q,false,true,0.0-2.0-0.11-0.104-3.104,0,0,0,81,false,stim,false,1,420.5,1,0,1,62338,task1,329090,false,false,391,image-keyboard-response,36
true,3,2,1,2,true,d,false,true,0.0-2.0-0.11-0.105-3.105,0,0,0,68,false,stim,false,1,532.8999999761581,1,0,0,62338,task1,331152,false,false,394,image-keyboard-response,37
true,3,2,1,2,true,d,false,true,0.0-2.0-0.11-0.106-3.106,0,0,0,68,false,stim,false,1,426.5,1,0,0,62338,task1,333105,false,false,397,image-keyboard-response,38
true,3,1,1,1,true,z,false,false,0.0-2.0-0.11-0.107-3.107,0,0,0,90,false,stim,false,2,606.0,1,0,2,62338,task1,335236,false,true,400,image-keyboard-response,39
true,3,0,1,0,true,q,false,true,0.0-2.0-0.12-0.108-3.108,0,0,0,81,false,stim,false,1,729.2000000476837,1,0,1,62338,task1,337485,false,false,403,image-keyboard-response,40
true,3,2,1,2,true,d,false,true,0.0-2.0-0.12-0.109-3.109,0,0,0,68,false,stim,false,1,615.1999999284744,1,0,0,62338,task1,339627,false,false,406,image-keyboard-response,41
true,4,0,1,2,false,d,false,false,0.0-2.0-0.12-0.110-3.110,0,0,0,81,true,stim,true,0,663.0,1,0,1,62338,task1,341812,false,false,409,image-keyboard-response,1
true,4,2,1,1,false,z,false,false,0.0-2.0-0.12-0.111-3.111,0,0,0,68,false,stim,true,2,747.3999999761581,1,0,0,62338,task1,344079,false,false,412,image-keyboard-response,2
true,4,1,1,0,false,q,false,false,0.0-2.0-0.12-0.112-3.112,0,0,0,90,false,stim,true,1,1007.7999999523163,1,0,2,62338,task1,346595,false,false,415,image-keyboard-response,3
true,4,2,1,1,false,z,false,false,0.0-2.0-0.12-0.113-3.113,0,0,0,68,false,stim,true,2,1253.4000000953674,1,0,0,62338,task1,349368,false,false,418,image-keyboard-response,4
true,4,0,1,2,false,d,false,false,0.0-2.0-0.12-0.114-3.114,0,0,0,81,false,stim,true,0,732.0,1,0,1,62338,task1,351622,false,false,421,image-keyboard-response,5
true,4,0,1,0,true,q,false,true,0.0-2.0-0.12-0.115-3.115,0,0,0,81,false,stim,false,1,730.7999999523163,1,0,2,62338,task1,353876,false,false,424,image-keyboard-response,6
true,4,0,1,0,true,q,false,false,0.0-2.0-0.12-0.116-3.116,0,0,0,81,false,stim,false,1,589.0,1,0,2,62338,task1,355984,false,true,427,image-keyboard-response,7
true,4,0,1,0,true,q,false,true,0.0-2.0-0.13-0.117-3.117,0,0,0,81,false,stim,false,1,563.1999999284744,1,0,2,62338,task1,358056,false,false,430,image-keyboard-response,8
true,4,0,1,0,true,q,false,true,0.0-2.0-0.13-0.118-3.118,0,0,0,81,false,stim,false,1,489.2999999523163,1,0,2,62338,task1,360075,false,false,433,image-keyboard-response,9
true,4,1,1,1,true,z,false,true,0.0-2.0-0.13-0.119-3.119,0,0,0,90,false,stim,false,2,751.2000000476837,1,0,0,62338,task1,362351,false,false,436,image-keyboard-response,10
true,4,1,1,2,false,d,true,false,0.0-2.0-0.13-0.120-3.120,0,0,0,90,false,stim,false,0,1214.5,1,0,1,62338,task1,365095,false,false,439,image-keyboard-response,11
true,4,0,1,1,false,z,true,false,0.0-2.0-0.13-0.121-3.121,0,0,0,81,false,stim,false,2,1555.6000000238419,1,0,0,62338,task1,368166,false,false,442,image-keyboard-response,12
true,4,0,1,0,true,q,false,true,0.0-2.0-0.13-0.122-3.122,0,0,0,81,false,stim,false,1,753.3999999761581,1,0,2,62338,task1,370449,false,false,445,image-keyboard-response,13
true,4,2,1,2,true,d,false,true,0.0-2.0-0.13-0.123-3.123,0,0,0,68,false,stim,false,0,643.7000000476837,1,0,1,62338,task1,372620,false,false,448,image-keyboard-response,14
true,4,1,1,1,true,z,false,true,0.0-2.0-0.13-0.124-3.124,0,0,0,90,false,stim,false,2,1428.6000000238419,1,0,0,62338,task1,375575,false,false,451,image-keyboard-response,15
true,4,2,1,2,true,d,false,true,0.0-2.0-0.13-0.125-3.125,0,0,0,68,false,stim,false,0,1061.5,1,0,1,62338,task1,378166,false,false,454,image-keyboard-response,16
true,4,0,1,0,true,q,false,false,0.0-2.0-0.14-0.126-3.126,0,0,0,81,false,stim,false,1,567.6999999284744,1,0,2,62338,task1,380254,false,true,457,image-keyboard-response,17
true,4,0,1,0,true,q,false,true,0.0-2.0-0.14-0.127-3.127,0,0,0,81,false,stim,false,1,630.3999999761581,1,0,2,62338,task1,382425,false,false,460,image-keyboard-response,18
true,4,1,1,1,true,z,false,true,0.0-2.0-0.14-0.128-3.128,0,0,0,90,false,stim,false,2,869.0,1,0,0,62338,task1,384817,false,false,463,image-keyboard-response,19
true,4,2,1,2,true,d,false,true,0.0-2.0-0.14-0.129-3.129,0,0,0,68,false,stim,false,0,667.6999999284744,1,0,1,62338,task1,387019,false,false,466,image-keyboard-response,20
true,4,1,1,1,true,z,false,true,0.0-2.0-0.14-0.130-3.130,0,0,0,90,false,stim,false,2,1519.5,1,0,0,62338,task1,390065,false,false,469,image-keyboard-response,21
true,4,2,1,2,true,d,false,true,0.0-2.0-0.14-0.131-3.131,0,0,0,68,false,stim,false,0,1134.4000000953674,1,0,1,62338,task1,392716,false,false,472,image-keyboard-response,22
true,4,1,1,1,true,z,false,true,0.0-2.0-0.14-0.132-3.132,0,0,0,90,false,stim,false,2,743.0,1,0,0,62338,task1,394986,false,false,475,image-keyboard-response,23
true,4,0,1,0,true,q,false,true,0.0-2.0-0.14-0.133-3.133,0,0,0,81,false,stim,false,1,428.0,1,0,2,62338,task1,396940,false,false,478,image-keyboard-response,24
true,4,2,1,2,true,d,false,true,0.0-2.0-0.14-0.134-3.134,0,0,0,68,false,stim,false,0,752.2999999523163,1,0,1,62338,task1,399210,false,false,481,image-keyboard-response,25
true,4,0,1,0,true,q,false,false,0.0-2.0-0.15-0.135-3.135,0,0,0,81,false,stim,false,1,739.5,1,0,2,62338,task1,401491,false,true,484,image-keyboard-response,26
true,4,1,1,1,true,z,false,true,0.0-2.0-0.15-0.136-3.136,0,0,0,90,false,stim,false,2,772.5,1,0,0,62338,task1,403786,false,false,487,image-keyboard-response,27
true,4,2,1,2,true,d,false,true,0.0-2.0-0.15-0.137-3.137,0,0,0,68,false,stim,false,0,676.4000000953674,1,0,1,62338,task1,406001,false,false,490,image-keyboard-response,28
true,4,1,1,1,true,z,false,true,0.0-2.0-0.15-0.138-3.138,0,0,0,90,false,stim,false,2,565.6999999284744,1,0,0,62338,task1,408084,false,false,493,image-keyboard-response,29
true,4,2,1,2,true,d,false,true,0.0-2.0-0.15-0.139-3.139,0,0,0,68,false,stim,false,0,600.5,1,0,1,62338,task1,410201,false,false,496,image-keyboard-response,30
true,4,1,1,1,true,z,false,true,0.0-2.0-0.15-0.140-3.140,0,0,0,90,false,stim,false,2,512.1000000238419,1,0,0,62338,task1,412220,false,false,499,image-keyboard-response,31
true,4,0,1,0,true,q,false,true,0.0-2.0-0.15-0.141-3.141,0,0,0,81,false,stim,false,1,564.0,1,0,2,62338,task1,414308,false,false,502,image-keyboard-response,32
true,4,0,1,0,true,q,false,true,0.0-2.0-0.15-0.142-3.142,0,0,0,81,false,stim,false,1,379.2000000476837,1,0,2,62338,task1,416206,false,false,505,image-keyboard-response,33
true,4,2,1,2,true,d,false,true,0.0-2.0-0.15-0.143-3.143,0,0,0,68,false,stim,false,0,953.5,1,0,1,62338,task1,418683,false,false,508,image-keyboard-response,34
true,4,1,1,1,true,z,false,true,0.0-2.0-0.16-0.144-3.144,0,0,0,90,false,stim,false,2,526.8999999761581,1,0,0,62338,task1,420736,false,false,511,image-keyboard-response,35
true,4,2,1,2,true,d,false,true,0.0-2.0-0.16-0.145-3.145,0,0,0,68,false,stim,false,0,509.39999997615814,1,0,1,62338,task1,422752,false,false,514,image-keyboard-response,36
true,4,0,1,0,true,q,false,true,0.0-2.0-0.16-0.146-3.146,0,0,0,81,false,stim,false,1,873.2000000476837,1,0,2,62338,task1,425146,false,false,517,image-keyboard-response,37
true,4,1,1,2,false,d,true,false,0.0-2.0-0.16-0.147-3.147,0,0,0,90,false,stim,false,0,956.3000000715256,1,0,1,62338,task1,427624,false,false,520,image-keyboard-response,38
true,4,2,1,2,true,d,false,true,0.0-2.0-0.16-0.148-3.148,0,0,0,68,false,stim,false,0,412.6999999284744,1,0,1,62338,task1,429573,false,false,523,image-keyboard-response,39
true,4,1,1,1,true,z,false,true,0.0-2.0-0.16-0.149-3.149,0,0,0,90,false,stim,false,2,1150.5,1,0,0,62338,task1,432245,false,false,526,image-keyboard-response,40
true,4,0,1,0,true,q,false,true,0.0-2.0-0.16-0.150-3.150,0,0,0,81,false,stim,false,1,689.8000000715256,1,0,2,62338,task1,434446,false,false,529,image-keyboard-response,41
true,4,0,1,0,true,q,false,true,0.0-2.0-0.16-0.151-3.151,0,0,0,81,false,stim,false,1,448.59999990463257,1,0,2,62338,task1,436428,false,false,532,image-keyboard-response,42
true,4,1,1,1,true,z,false,false,0.0-2.0-0.16-0.152-3.152,0,0,0,90,false,stim,false,2,779.7999999523163,1,0,0,62338,task1,438725,false,true,535,image-keyboard-response,43
true,5,2,2,0,false,q,false,true,0.0-2.0-0.17-0.153-3.153,0,0,0,68,true,stim,true,2,499.90000009536743,1,0,1,62338,task1,440738,false,true,538,image-keyboard-response,1
true,5,0,2,1,false,z,false,false,0.0-2.0-0.17-0.154-3.154,0,0,0,81,false,stim,true,0,584.5,1,0,2,62338,task1,442840,false,false,541,image-keyboard-response,2
true,5,1,2,2,false,d,false,false,0.0-2.0-0.17-0.155-3.155,0,0,0,90,false,stim,true,1,432.89999997615814,1,0,0,62338,task1,444806,false,false,544,image-keyboard-response,3
true,5,0,2,1,false,z,false,false,0.0-2.0-0.17-0.156-3.156,0,0,0,81,false,stim,true,0,966.5,1,0,2,62338,task1,447288,false,false,547,image-keyboard-response,4
true,5,2,2,0,false,q,false,false,0.0-2.0-0.17-0.157-3.157,0,0,0,68,false,stim,true,2,606.1000000238419,1,0,1,62338,task1,449424,false,false,550,image-keyboard-response,5
true,5,1,2,1,true,z,false,true,0.0-2.0-0.17-0.158-3.158,0,0,0,90,false,stim,false,0,944.0999999046326,1,0,2,62338,task1,451876,false,false,553,image-keyboard-response,6
true,5,2,2,2,true,d,false,true,0.0-2.0-0.17-0.159-3.159,0,0,0,68,false,stim,false,1,845.3999999761581,1,0,0,62338,task1,454237,false,false,556,image-keyboard-response,7
true,5,2,2,0,false,q,false,false,0.0-2.0-0.17-0.160-3.160,0,0,0,68,false,stim,true,2,1276.3999999761581,1,0,1,62338,task1,457036,false,false,559,image-keyboard-response,8
true,5,2,2,2,true,d,false,true,0.0-2.0-0.17-0.161-3.161,0,0,0,68,false,stim,false,1,408.8000000715256,1,0,0,62338,task1,458958,false,false,562,image-keyboard-response,9
true,5,1,2,1,true,z,false,true,0.0-2.0-0.18-0.162-3.162,0,0,0,90,false,stim,false,0,678.1000000238419,1,0,2,62338,task1,461159,false,false,565,image-keyboard-response,10
true,5,0,2,0,true,q,false,true,0.0-2.0-0.18-0.163-3.163,0,0,0,81,false,stim,false,2,716.6000000238419,1,0,1,62338,task1,463384,false,false,568,image-keyboard-response,11
true,5,2,2,2,true,d,false,true,0.0-2.0-0.18-0.164-3.164,0,0,0,68,false,stim,false,1,800.7000000476837,1,0,0,62338,task1,465703,false,false,571,image-keyboard-response,12
true,5,1,2,1,true,z,false,true,0.0-2.0-0.18-0.165-3.165,0,0,0,90,false,stim,false,0,981.6000000238419,1,0,2,62338,task1,468206,false,false,574,image-keyboard-response,13
true,5,0,2,0,true,q,false,true,0.0-2.0-0.18-0.166-3.166,0,0,0,81,false,stim,false,2,671.5999999046326,1,0,1,62338,task1,470394,false,false,577,image-keyboard-response,14
true,5,2,2,2,true,d,false,true,0.0-2.0-0.18-0.167-3.167,0,0,0,68,false,stim,false,1,528.2999999523163,1,0,0,62338,task1,472436,false,false,580,image-keyboard-response,15
true,5,2,2,2,true,d,false,true,0.0-2.0-0.18-0.168-3.168,0,0,0,68,false,stim,false,1,531.2999999523163,1,0,0,62338,task1,474493,false,false,583,image-keyboard-response,16
true,5,0,2,0,true,q,false,false,0.0-2.0-0.18-0.169-3.169,0,0,0,81,false,stim,false,2,1184.2999999523163,1,0,1,62338,task1,477191,false,true,586,image-keyboard-response,17
true,5,1,2,1,true,z,false,true,0.0-2.0-0.18-0.170-3.170,0,0,0,90,false,stim,false,0,365.2000000476837,1,0,2,62338,task1,479066,false,false,589,image-keyboard-response,18
true,5,2,2,2,true,d,false,false,0.0-2.0-0.19-0.171-3.171,0,0,0,68,false,stim,false,1,507.10000002384186,1,0,0,62338,task1,481088,false,true,592,image-keyboard-response,19
true,5,2,2,2,true,d,false,false,0.0-2.0-0.19-0.172-3.172,0,0,0,68,false,stim,false,1,580.1000000238419,1,0,0,62338,task1,483177,false,true,595,image-keyboard-response,20
true,5,0,2,2,false,d,true,false,0.0-2.0-0.19-0.173-3.173,0,0,0,81,false,stim,false,1,807.3000000715256,1,0,0,62338,task1,485499,false,false,598,image-keyboard-response,21
true,5,1,2,1,true,z,false,true,0.0-2.0-0.19-0.174-3.174,0,0,0,90,false,stim,false,0,586.7999999523163,1,0,2,62338,task1,487612,false,false,601,image-keyboard-response,22
true,5,0,2,0,true,q,false,false,0.0-2.0-0.19-0.175-3.175,0,0,0,81,false,stim,false,2,988.2999999523163,1,0,1,62338,task1,490112,false,true,604,image-keyboard-response,23
true,5,1,2,1,true,z,false,true,0.0-2.0-0.19-0.176-3.176,0,0,0,90,false,stim,false,0,362.6999999284744,1,0,2,62338,task1,492003,false,false,607,image-keyboard-response,24
true,5,1,2,0,false,q,true,false,0.0-2.0-0.19-0.177-3.177,0,0,0,90,false,stim,false,2,1557.9000000953674,1,0,1,62338,task1,495082,false,false,610,image-keyboard-response,25
true,5,1,2,1,true,z,false,true,0.0-2.0-0.19-0.178-3.178,0,0,0,90,false,stim,false,0,670.0999999046326,1,0,2,62338,task1,497273,false,false,613,image-keyboard-response,26
true,5,2,2,0,false,q,false,false,0.0-2.0-0.19-0.179-3.179,0,0,0,68,false,stim,true,2,851.8999999761581,1,0,1,62338,task1,499636,false,false,616,image-keyboard-response,27
true,5,1,2,1,true,z,false,true,0.0-2.0-0.20-0.180-3.180,0,0,0,90,false,stim,false,0,426.60000002384186,1,0,2,62338,task1,501597,false,false,619,image-keyboard-response,28
true,5,1,2,0,false,q,true,true,0.0-2.0-0.20-0.181-3.181,0,0,0,90,false,stim,false,2,492.2999999523163,1,0,1,62338,task1,503604,false,true,622,image-keyboard-response,29
true,5,1,2,1,true,z,false,true,0.0-2.0-0.20-0.182-3.182,0,0,0,90,false,stim,false,0,456.39999997615814,1,0,2,62338,task1,505580,false,false,625,image-keyboard-response,30
true,5,0,2,2,false,d,true,false,0.0-2.0-0.20-0.183-3.183,0,0,0,81,false,stim,false,1,1315.3000000715256,1,0,0,62338,task1,508420,false,false,628,image-keyboard-response,31
true,5,1,2,2,false,d,false,false,0.0-2.0-0.20-0.184-3.184,0,0,0,90,false,stim,true,1,765.5999999046326,1,0,0,62338,task1,510708,false,false,631,image-keyboard-response,32
true,5,1,2,0,false,q,true,false,0.0-2.0-0.20-0.185-3.185,0,0,0,90,false,stim,false,2,481.60000002384186,1,0,1,62338,task1,512731,false,false,634,image-keyboard-response,33
true,5,1,2,1,true,z,false,true,0.0-2.0-0.20-0.186-3.186,0,0,0,90,false,stim,false,0,377.39999997615814,1,0,2,62338,task1,514632,false,false,637,image-keyboard-response,34
true,5,1,2,0,false,q,true,false,0.0-2.0-0.20-0.187-3.187,0,0,0,90,false,stim,false,2,380.2000000476837,1,0,1,62338,task1,516546,false,false,640,image-keyboard-response,35
true,5,2,2,2,true,d,false,true,0.0-2.0-0.20-0.188-3.188,0,0,0,68,false,stim,false,1,527.8999999761581,1,0,0,62338,task1,518634,false,false,643,image-keyboard-response,36
true,5,2,2,0,false,q,false,false,0.0-2.0-0.21-0.189-3.189,0,0,0,68,false,stim,true,2,882.3999999761581,1,0,1,62338,task1,521034,false,false,646,image-keyboard-response,37
true,5,2,2,2,true,d,false,false,0.0-2.0-0.21-0.190-3.190,0,0,0,68,false,stim,false,1,620.7999999523163,1,0,0,62338,task1,523184,false,true,649,image-keyboard-response,38
true,5,2,2,2,true,d,false,true,0.0-2.0-0.21-0.191-3.191,0,0,0,68,false,stim,false,1,565.5,1,0,0,62338,task1,525270,false,false,652,image-keyboard-response,39
true,5,0,2,0,true,q,false,true,0.0-2.0-0.21-0.192-3.192,0,0,0,81,false,stim,false,2,1564.0,1,0,1,62338,task1,528361,false,false,655,image-keyboard-response,40
true,5,1,2,1,true,z,false,true,0.0-2.0-0.21-0.193-3.193,0,0,0,90,false,stim,false,0,483.2999999523163,1,0,2,62338,task1,530371,false,false,658,image-keyboard-response,41
true,5,0,2,0,true,q,false,true,0.0-2.0-0.21-0.194-3.194,0,0,0,81,false,stim,false,2,484.10000002384186,1,0,1,62338,task1,532373,false,false,661,image-keyboard-response,42
true,5,1,2,1,true,z,false,true,0.0-2.0-0.21-0.195-3.195,0,0,0,90,false,stim,false,0,829.7999999523163,1,0,2,62338,task1,534721,false,false,664,image-keyboard-response,43
true,5,2,2,2,true,d,false,true,0.0-2.0-0.21-0.196-3.196,0,0,0,68,false,stim,false,1,587.0,1,0,0,62338,task1,536831,false,false,667,image-keyboard-response,44
true,5,1,2,1,true,z,false,true,0.0-2.0-0.21-0.197-3.197,0,0,0,90,false,stim,false,0,611.2999999523163,1,0,2,62338,task1,538983,false,false,670,image-keyboard-response,45
true,6,1,1,2,false,d,false,false,0.0-2.0-0.22-0.198-3.198,0,0,0,90,true,stim,true,1,442.5,1,0,2,62338,task1,540960,false,false,673,image-keyboard-response,1
true,6,1,1,2,false,d,false,false,0.0-2.0-0.22-0.199-3.199,0,0,0,90,false,stim,true,1,381.7000000476837,1,0,2,62338,task1,542862,false,false,676,image-keyboard-response,2
true,6,0,1,2,false,d,false,false,0.0-2.0-0.22-0.200-3.200,0,0,0,81,false,stim,true,0,1069.1999999284744,1,0,1,62338,task1,545465,false,false,679,image-keyboard-response,3
true,6,2,1,0,false,q,false,false,0.0-2.0-0.22-0.201-3.201,0,0,0,68,false,stim,true,2,544.5,1,0,0,62338,task1,547528,false,false,682,image-keyboard-response,4
true,6,0,1,2,false,d,false,false,0.0-2.0-0.22-0.202-3.202,0,0,0,81,false,stim,true,0,418.09999990463257,1,0,1,62338,task1,549461,false,false,685,image-keyboard-response,5
true,6,1,1,2,false,d,true,false,0.0-2.0-0.22-0.203-3.203,0,0,0,90,false,stim,false,0,784.5,1,0,1,62338,task1,551773,false,false,688,image-keyboard-response,6
true,6,2,1,0,false,q,false,false,0.0-2.0-0.22-0.204-3.204,0,0,0,68,false,stim,true,2,1124.0999999046326,1,0,0,62338,task1,554420,false,false,691,image-keyboard-response,7
true,6,2,1,2,true,d,false,true,0.0-2.0-0.22-0.205-3.205,0,0,0,68,false,stim,false,1,1039.1000000238419,1,0,2,62338,task1,556983,false,false,694,image-keyboard-response,8
true,6,1,1,0,false,q,true,false,0.0-2.0-0.22-0.206-3.206,0,0,0,90,false,stim,false,2,1231.6000000238419,1,0,0,62338,task1,559740,false,false,697,image-keyboard-response,9
true,6,0,1,2,false,d,false,false,0.0-2.0-0.23-0.207-3.207,0,0,0,81,false,stim,true,0,1517.7000000476837,1,0,1,62338,task1,562787,false,false,700,image-keyboard-response,10
true,6,2,1,2,true,d,false,true,0.0-2.0-0.23-0.208-3.208,0,0,0,68,false,stim,false,1,430.89999997615814,1,0,2,62338,task1,564754,false,false,703,image-keyboard-response,11
true,6,2,1,0,false,q,false,false,0.0-2.0-0.23-0.209-3.209,0,0,0,68,false,stim,true,2,2074.7000000476837,1,0,0,62338,task1,568346,false,false,706,image-keyboard-response,12
true,6,2,1,2,true,d,false,true,0.0-2.0-0.23-0.210-3.210,0,0,0,68,false,stim,false,1,492.5,1,0,2,62338,task1,570372,false,false,709,image-keyboard-response,13
true,6,0,1,2,false,d,false,false,0.0-2.0-0.23-0.211-3.211,0,0,0,81,false,stim,true,0,722.8000000715256,1,0,1,62338,task1,572626,false,false,712,image-keyboard-response,14
true,6,2,1,2,true,d,false,true,0.0-2.0-0.23-0.212-3.212,0,0,0,68,false,stim,false,1,770.8000000715256,1,0,2,62338,task1,574911,false,false,715,image-keyboard-response,15
true,6,0,1,0,true,q,false,true,0.0-2.0-0.23-0.213-3.213,0,0,0,81,false,stim,false,2,1245.9000000953674,1,0,0,62338,task1,577682,false,false,718,image-keyboard-response,16
true,6,0,1,0,true,q,false,true,0.0-2.0-0.23-0.214-3.214,0,0,0,81,false,stim,false,2,485.10000002384186,1,0,0,62338,task1,579697,false,false,721,image-keyboard-response,17
true,6,2,1,2,true,d,false,true,0.0-2.0-0.23-0.215-3.215,0,0,0,68,false,stim,false,0,1422.2000000476837,1,0,1,62338,task1,582637,false,false,724,image-keyboard-response,18
true,6,2,1,2,true,d,false,true,0.0-2.0-0.24-0.216-3.216,0,0,0,68,false,stim,false,0,366.90000009536743,1,0,1,62338,task1,584523,false,false,727,image-keyboard-response,19
true,6,0,1,0,true,q,false,true,0.0-2.0-0.24-0.217-3.217,0,0,0,81,false,stim,false,2,612.0,1,0,0,62338,task1,586646,false,false,730,image-keyboard-response,20
true,6,0,1,0,true,q,false,false,0.0-2.0-0.24-0.218-3.218,0,0,0,81,false,stim,false,2,371.39999997615814,1,0,0,62338,task1,588532,false,true,733,image-keyboard-response,21
true,6,0,1,0,true,q,false,false,0.0-2.0-0.24-0.219-3.219,0,0,0,81,false,stim,false,2,431.5,1,0,0,62338,task1,590494,false,true,736,image-keyboard-response,22
true,6,2,1,2,true,d,false,true,0.0-2.0-0.24-0.220-3.220,0,0,0,68,false,stim,false,1,573.3999999761581,1,0,2,62338,task1,592588,false,false,739,image-keyboard-response,23
true,6,2,1,2,true,d,false,true,0.0-2.0-0.24-0.221-3.221,0,0,0,68,false,stim,false,0,413.39999997615814,1,0,1,62338,task1,594526,false,false,742,image-keyboard-response,24
true,6,2,1,2,true,d,false,false,0.0-2.0-0.24-0.222-3.222,0,0,0,68,false,stim,false,1,647.8999999761581,1,0,2,62338,task1,596682,false,true,745,image-keyboard-response,25
true,6,2,1,2,true,d,false,true,0.0-2.0-0.24-0.223-3.223,0,0,0,68,false,stim,false,0,506.2000000476837,1,0,1,62338,task1,598703,false,false,748,image-keyboard-response,26
true,6,2,1,2,true,d,false,true,0.0-2.0-0.24-0.224-3.224,0,0,0,68,false,stim,false,1,385.2000000476837,1,0,2,62338,task1,600616,false,false,751,image-keyboard-response,27
true,6,2,1,2,true,d,false,true,0.0-2.0-0.25-0.225-3.225,0,0,0,68,false,stim,false,0,352.5,1,0,1,62338,task1,602493,false,false,754,image-keyboard-response,28
true,6,2,1,2,true,d,false,true,0.0-2.0-0.25-0.226-3.226,0,0,0,68,false,stim,false,1,421.60000002384186,1,0,2,62338,task1,604435,false,false,757,image-keyboard-response,29
true,6,2,1,2,true,d,false,true,0.0-2.0-0.25-0.227-3.227,0,0,0,68,false,stim,false,0,478.10000002384186,1,0,1,62338,task1,606434,false,false,760,image-keyboard-response,30
true,6,1,1,0,false,q,true,true,0.0-2.0-0.25-0.228-3.228,0,0,0,90,false,stim,false,2,730.1000000238419,1,0,0,62338,task1,608682,false,true,763,image-keyboard-response,31
true,6,1,1,0,false,q,true,false,0.0-2.0-0.25-0.229-3.229,0,0,0,90,false,stim,false,2,444.09999990463257,1,0,0,62338,task1,610644,false,false,766,image-keyboard-response,32
true,6,2,1,2,true,d,false,true,0.0-2.0-0.25-0.230-3.230,0,0,0,68,false,stim,false,1,436.60000002384186,1,0,2,62338,task1,612600,false,false,769,image-keyboard-response,33
true,6,2,1,2,true,d,false,false,0.0-2.0-0.25-0.231-3.231,0,0,0,68,false,stim,false,1,383.10000002384186,1,0,2,62338,task1,614494,false,true,772,image-keyboard-response,34
true,6,1,1,0,false,q,true,false,0.0-2.0-0.25-0.232-3.232,0,0,0,90,false,stim,false,2,383.0,1,0,0,62338,task1,616394,false,false,775,image-keyboard-response,35
true,6,2,1,2,true,d,false,false,0.0-2.0-0.25-0.233-3.233,0,0,0,68,false,stim,false,0,519.7000000476837,1,0,1,62338,task1,618434,false,true,778,image-keyboard-response,36
true,6,2,1,2,true,d,false,true,0.0-2.0-0.26-0.234-3.234,0,0,0,68,false,stim,false,1,452.40000009536743,1,0,2,62338,task1,620409,false,false,781,image-keyboard-response,37
true,6,2,1,0,false,q,false,false,0.0-2.0-0.26-0.235-3.235,0,0,0,68,false,stim,true,2,1230.8000000715256,1,0,0,62338,task1,623149,false,false,784,image-keyboard-response,38
true,6,0,1,0,true,q,false,true,0.0-2.0-0.26-0.236-3.236,0,0,0,81,false,stim,false,2,567.4000000953674,1,0,0,62338,task1,625248,false,false,787,image-keyboard-response,39
true,6,2,1,2,true,d,false,true,0.0-2.0-0.26-0.237-3.237,0,0,0,68,false,stim,false,1,531.7999999523163,1,0,2,62338,task1,627312,false,false,790,image-keyboard-response,40
true,6,2,1,2,true,d,false,true,0.0-2.0-0.26-0.238-3.238,0,0,0,68,false,stim,false,1,623.1999999284744,1,0,2,62338,task1,629457,false,false,793,image-keyboard-response,41
true,6,2,1,2,true,d,false,true,0.0-2.0-0.26-0.239-3.239,0,0,0,68,false,stim,false,0,562.1000000238419,1,0,1,62338,task1,631531,false,false,796,image-keyboard-response,42
true,7,2,2,0,false,q,false,false,0.0-2.0-0.26-0.240-3.240,0,0,0,68,true,stim,true,2,433.10000002384186,1,0,1,62338,task1,633484,false,false,799,image-keyboard-response,1
true,7,0,2,2,false,d,false,false,0.0-2.0-0.26-0.241-3.241,0,0,0,81,false,stim,true,0,807.1999999284744,1,0,0,62338,task1,635820,false,false,802,image-keyboard-response,2
true,7,2,2,0,false,q,false,false,0.0-2.0-0.26-0.242-3.242,0,0,0,68,false,stim,true,2,415.60000002384186,1,0,1,62338,task1,637759,false,false,805,image-keyboard-response,3
true,7,2,2,1,false,z,false,false,0.0-2.0-0.27-0.243-3.243,0,0,0,68,false,stim,true,2,636.0999999046326,1,0,2,62338,task1,639933,false,false,808,image-keyboard-response,4
true,7,2,2,1,false,z,false,false,0.0-2.0-0.27-0.244-3.244,0,0,0,68,false,stim,true,2,871.0,1,0,2,62338,task1,642320,false,false,811,image-keyboard-response,5
true,7,0,2,0,true,q,false,true,0.0-2.0-0.27-0.245-3.245,0,0,0,81,false,stim,false,2,1208.2000000476837,1,0,1,62338,task1,645047,false,false,814,image-keyboard-response,6
true,7,0,2,0,true,q,false,true,0.0-2.0-0.27-0.246-3.246,0,0,0,81,false,stim,false,2,488.89999997615814,1,0,1,62338,task1,647047,false,false,817,image-keyboard-response,7
true,7,0,2,2,false,d,false,false,0.0-2.0-0.27-0.247-3.247,0,0,0,81,false,stim,true,0,643.4000000953674,1,0,0,62338,task1,649217,false,false,820,image-keyboard-response,8
true,7,0,2,0,true,q,false,true,0.0-2.0-0.27-0.248-3.248,0,0,0,81,false,stim,false,2,393.39999997615814,1,0,1,62338,task1,651132,false,false,823,image-keyboard-response,9
true,7,1,2,2,false,d,true,false,0.0-2.0-0.27-0.249-3.249,0,0,0,90,false,stim,false,0,403.5,1,0,0,62338,task1,653067,false,false,826,image-keyboard-response,10
true,7,2,2,2,true,d,false,false,0.0-2.0-0.27-0.250-3.250,0,0,0,68,false,stim,false,0,486.6999999284744,1,0,0,62338,task1,655064,false,true,829,image-keyboard-response,11
true,7,2,2,1,false,z,false,false,0.0-2.0-0.27-0.251-3.251,0,0,0,68,false,stim,true,2,1270.8999999761581,1,0,2,62338,task1,657859,false,false,832,image-keyboard-response,12
true,7,1,2,2,false,d,true,false,0.0-2.0-0.28-0.252-3.252,0,0,0,90,false,stim,false,0,915.9000000953674,1,0,0,62338,task1,660292,false,false,835,image-keyboard-response,13
true,7,1,2,1,true,z,false,false,0.0-2.0-0.28-0.253-3.253,0,0,0,90,false,stim,false,2,1041.2000000476837,1,0,2,62338,task1,662854,false,true,838,image-keyboard-response,14
true,7,0,2,1,false,z,true,false,0.0-2.0-0.28-0.254-3.254,0,0,0,81,false,stim,false,2,781.5,1,0,2,62338,task1,665147,false,false,841,image-keyboard-response,15
true,7,0,2,0,true,q,false,true,0.0-2.0-0.28-0.255-3.255,0,0,0,81,false,stim,false,2,1409.0999999046326,1,0,1,62338,task1,668065,false,false,844,image-keyboard-response,16
true,7,2,2,2,true,d,false,true,0.0-2.0-0.28-0.256-3.256,0,0,0,68,false,stim,false,0,1157.7000000476837,1,0,0,62338,task1,670744,false,false,847,image-keyboard-response,17
true,7,0,2,0,true,q,false,true,0.0-2.0-0.28-0.257-3.257,0,0,0,81,false,stim,false,2,593.4000000953674,1,0,1,62338,task1,672852,false,false,850,image-keyboard-response,18
true,7,0,2,1,false,z,true,false,0.0-2.0-0.28-0.258-3.258,0,0,0,81,false,stim,false,2,1016.7999999523163,1,0,2,62338,task1,675388,false,false,853,image-keyboard-response,19
true,7,0,2,0,true,q,false,true,0.0-2.0-0.28-0.259-3.259,0,0,0,81,false,stim,false,2,338.3000000715256,1,0,1,62338,task1,677247,false,false,856,image-keyboard-response,20
true,7,2,2,2,true,d,false,true,0.0-2.0-0.28-0.260-3.260,0,0,0,68,false,stim,false,0,342.2000000476837,1,0,0,62338,task1,679099,false,false,859,image-keyboard-response,21
true,7,0,2,0,true,q,false,true,0.0-2.0-0.29-0.261-3.261,0,0,0,81,false,stim,false,2,509.0,1,0,1,62338,task1,681138,false,false,862,image-keyboard-response,22
true,7,0,2,1,false,z,true,false,0.0-2.0-0.29-0.262-3.262,0,0,0,81,false,stim,false,2,1347.6000000238419,1,0,2,62338,task1,684007,false,false,865,image-keyboard-response,23
true,7,2,2,2,true,d,false,true,0.0-2.0-0.29-0.263-3.263,0,0,0,68,false,stim,false,0,943.9000000953674,1,0,0,62338,task1,686458,false,false,868,image-keyboard-response,24
true,7,1,2,1,true,z,false,true,0.0-2.0-0.29-0.264-3.264,0,0,0,90,false,stim,false,2,1777.6000000238419,1,0,2,62338,task1,689763,false,false,871,image-keyboard-response,25
true,7,2,2,2,true,d,false,true,0.0-2.0-0.29-0.265-3.265,0,0,0,68,false,stim,false,0,1874.0,1,0,0,62338,task1,693161,false,false,874,image-keyboard-response,26
true,7,0,2,0,true,q,false,true,0.0-2.0-0.29-0.266-3.266,0,0,0,81,false,stim,false,2,893.0,1,0,1,62338,task1,695570,false,false,877,image-keyboard-response,27
true,7,2,2,2,true,d,false,true,0.0-2.0-0.29-0.267-3.267,0,0,0,68,false,stim,false,0,1111.3000000715256,1,0,0,62338,task1,698207,false,false,880,image-keyboard-response,28
true,7,0,2,0,true,q,false,true,0.0-2.0-0.29-0.268-3.268,0,0,0,81,false,stim,false,2,529.5,1,0,1,62338,task1,700250,false,false,883,image-keyboard-response,29
true,7,1,2,1,true,z,false,true,0.0-2.0-0.29-0.269-3.269,0,0,0,90,false,stim,false,2,545.9000000953674,1,0,2,62338,task1,702308,false,false,886,image-keyboard-response,30
true,7,0,2,0,true,q,false,true,0.0-2.0-0.30-0.270-3.270,0,0,0,81,false,stim,false,2,705.5,1,0,1,62338,task1,704522,false,false,889,image-keyboard-response,31
true,7,1,2,1,true,z,false,true,0.0-2.0-0.30-0.271-3.271,0,0,0,90,false,stim,false,2,719.7000000476837,1,0,2,62338,task1,706769,false,false,892,image-keyboard-response,32
true,7,1,2,1,true,z,false,true,0.0-2.0-0.30-0.272-3.272,0,0,0,90,false,stim,false,2,891.2999999523163,1,0,2,62338,task1,709174,false,false,895,image-keyboard-response,33
true,7,1,2,1,true,z,false,true,0.0-2.0-0.30-0.273-3.273,0,0,0,90,false,stim,false,2,370.89999997615814,1,0,2,62338,task1,711062,false,false,898,image-keyboard-response,34
true,7,0,2,0,true,q,false,true,0.0-2.0-0.30-0.274-3.274,0,0,0,81,false,stim,false,2,1873.0,1,0,1,62338,task1,714473,false,false,901,image-keyboard-response,35
true,7,2,2,2,true,d,false,true,0.0-2.0-0.30-0.275-3.275,0,0,0,68,false,stim,false,0,466.39999997615814,1,0,0,62338,task1,716466,false,false,904,image-keyboard-response,36
true,7,2,2,2,true,d,false,true,0.0-2.0-0.30-0.276-3.276,0,0,0,68,false,stim,false,0,553.7000000476837,1,0,0,62338,task1,718532,false,false,907,image-keyboard-response,37
true,7,2,2,2,true,d,false,true,0.0-2.0-0.30-0.277-3.277,0,0,0,68,false,stim,false,0,901.6999999284744,1,0,0,62338,task1,720943,false,false,910,image-keyboard-response,38
true,7,0,2,0,true,q,false,true,0.0-2.0-0.30-0.278-3.278,0,0,0,81,false,stim,false,2,708.0,1,0,1,62338,task1,723173,false,false,913,image-keyboard-response,39
true,7,2,2,2,true,d,false,true,0.0-2.0-0.31-0.279-3.279,0,0,0,68,false,stim,false,0,1166.2999999523163,1,0,0,62338,task1,725865,false,false,916,image-keyboard-response,40
true,7,0,2,0,true,q,false,true,0.0-2.0-0.31-0.280-3.280,0,0,0,81,false,stim,false,2,632.0,1,0,1,62338,task1,728030,false,false,919,image-keyboard-response,41
true,7,2,2,2,true,d,false,true,0.0-2.0-0.31-0.281-3.281,0,0,0,68,false,stim,false,0,1455.1000000238419,1,0,0,62338,task1,731006,false,false,922,image-keyboard-response,42
true,8,0,2,2,false,d,false,false,0.0-2.0-0.31-0.282-3.282,0,0,0,81,true,stim,true,0,988.6000000238419,1,0,1,62338,task1,733523,false,false,925,image-keyboard-response,1
true,8,1,2,0,false,q,false,false,0.0-2.0-0.31-0.283-3.283,0,0,0,90,false,stim,true,1,609.6000000238419,1,0,2,62338,task1,735659,false,false,928,image-keyboard-response,2
true,8,2,2,1,false,z,false,false,0.0-2.0-0.31-0.284-3.284,0,0,0,68,false,stim,true,2,498.5,1,0,0,62338,task1,737686,false,false,931,image-keyboard-response,3
true,8,0,2,2,false,d,false,false,0.0-2.0-0.31-0.285-3.285,0,0,0,81,false,stim,true,0,652.1000000238419,1,0,1,62338,task1,739867,false,false,934,image-keyboard-response,4
true,8,1,2,0,false,q,false,false,0.0-2.0-0.31-0.286-3.286,0,0,0,90,false,stim,true,1,842.0,1,0,2,62338,task1,742228,false,false,937,image-keyboard-response,5
true,8,1,2,0,false,q,false,false,0.0-2.0-0.31-0.287-3.287,0,0,0,90,false,stim,true,1,471.60000002384186,1,0,2,62338,task1,744232,false,false,940,image-keyboard-response,6
true,8,1,2,2,false,d,true,false,0.0-2.0-0.32-0.288-3.288,0,0,0,90,false,stim,false,0,1569.9000000953674,1,0,1,62338,task1,747338,false,false,943,image-keyboard-response,7
true,8,2,2,2,true,d,false,true,0.0-2.0-0.32-0.289-3.289,0,0,0,68,false,stim,false,0,734.8000000715256,1,0,1,62338,task1,749602,false,false,946,image-keyboard-response,8
true,8,0,2,0,true,q,false,true,0.0-2.0-0.32-0.290-3.290,0,0,0,81,false,stim,false,1,1254.2000000476837,1,0,2,62338,task1,752382,false,false,949,image-keyboard-response,9
true,8,0,2,0,true,q,false,true,0.0-2.0-0.32-0.291-3.291,0,0,0,81,false,stim,false,1,417.09999990463257,1,0,2,62338,task1,754319,false,false,952,image-keyboard-response,10
true,8,0,2,0,true,q,false,true,0.0-2.0-0.32-0.292-3.292,0,0,0,81,false,stim,false,1,564.8000000715256,1,0,2,62338,task1,756414,false,false,955,image-keyboard-response,11
true,8,2,2,2,true,d,false,true,0.0-2.0-0.32-0.293-3.293,0,0,0,68,false,stim,false,0,550.6999999284744,1,0,1,62338,task1,758484,false,false,958,image-keyboard-response,12
true,8,2,2,1,false,z,false,false,0.0-2.0-0.32-0.294-3.294,0,0,0,68,false,stim,true,2,851.1999999284744,1,0,0,62338,task1,760847,false,false,961,image-keyboard-response,13
true,8,1,2,1,true,z,false,true,0.0-2.0-0.32-0.295-3.295,0,0,0,90,false,stim,false,2,780.6000000238419,1,0,0,62338,task1,763145,false,false,964,image-keyboard-response,14
true,8,1,2,1,true,z,false,true,0.0-2.0-0.32-0.296-3.296,0,0,0,90,false,stim,false,2,398.90000009536743,1,0,0,62338,task1,765073,false,false,967,image-keyboard-response,15
true,8,0,2,0,true,q,false,true,0.0-2.0-0.33-0.297-3.297,0,0,0,81,false,stim,false,1,743.2000000476837,1,0,2,62338,task1,767338,false,false,970,image-keyboard-response,16
true,8,0,2,0,true,q,false,true,0.0-2.0-0.33-0.298-3.298,0,0,0,81,false,stim,false,1,534.2999999523163,1,0,2,62338,task1,769384,false,false,973,image-keyboard-response,17
true,8,0,2,0,true,q,false,true,0.0-2.0-0.33-0.299-3.299,0,0,0,81,false,stim,false,1,367.7999999523163,1,0,2,62338,task1,771280,false,false,976,image-keyboard-response,18
true,8,2,2,2,true,d,false,true,0.0-2.0-0.33-0.300-3.300,0,0,0,68,false,stim,false,0,678.6000000238419,1,0,1,62338,task1,773473,false,false,979,image-keyboard-response,19
true,8,2,2,2,true,d,false,true,0.0-2.0-0.33-0.301-3.301,0,0,0,68,false,stim,false,0,378.0,1,0,1,62338,task1,775385,false,false,982,image-keyboard-response,20
true,8,1,2,1,true,z,false,true,0.0-2.0-0.33-0.302-3.302,0,0,0,90,false,stim,false,2,537.7000000476837,1,0,0,62338,task1,777445,false,false,985,image-keyboard-response,21
true,8,1,2,1,true,z,false,false,0.0-2.0-0.33-0.303-3.303,0,0,0,90,false,stim,false,2,418.6999999284744,1,0,0,62338,task1,779380,false,true,988,image-keyboard-response,22
true,8,1,2,1,true,z,false,true,0.0-2.0-0.33-0.304-3.304,0,0,0,90,false,stim,false,2,413.0,1,0,0,62338,task1,781305,false,false,991,image-keyboard-response,23
true,8,2,2,2,true,d,false,true,0.0-2.0-0.33-0.305-3.305,0,0,0,68,false,stim,false,0,1045.5,1,0,1,62338,task1,783866,false,false,994,image-keyboard-response,24
true,8,1,2,1,true,z,false,true,0.0-2.0-0.34-0.306-3.306,0,0,0,90,false,stim,false,2,1116.7999999523163,1,0,0,62338,task1,786508,false,false,997,image-keyboard-response,25
true,8,0,2,0,true,q,false,false,0.0-2.0-0.34-0.307-3.307,0,0,0,81,false,stim,false,1,589.0,1,0,2,62338,task1,788617,false,true,1000,image-keyboard-response,26
true,8,1,2,1,true,z,false,true,0.0-2.0-0.34-0.308-3.308,0,0,0,90,false,stim,false,2,1076.2999999523163,1,0,0,62338,task1,791210,false,false,1003,image-keyboard-response,27
true,8,0,2,0,true,q,false,true,0.0-2.0-0.34-0.309-3.309,0,0,0,81,false,stim,false,1,559.9000000953674,1,0,2,62338,task1,793296,false,false,1006,image-keyboard-response,28
true,8,2,2,2,true,d,false,false,0.0-2.0-0.34-0.310-3.310,0,0,0,68,false,stim,false,0,555.1000000238419,1,0,1,62338,task1,795385,false,true,1009,image-keyboard-response,29
true,8,0,2,0,true,q,false,true,0.0-2.0-0.34-0.311-3.311,0,0,0,81,false,stim,false,1,478.40000009536743,1,0,2,62338,task1,797390,false,false,1012,image-keyboard-response,30
true,8,1,2,1,true,z,false,true,0.0-2.0-0.34-0.312-3.312,0,0,0,90,false,stim,false,2,526.5,1,0,0,62338,task1,799448,false,false,1015,image-keyboard-response,31
true,8,2,2,2,true,d,false,true,0.0-2.0-0.34-0.313-3.313,0,0,0,68,false,stim,false,0,529.0999999046326,1,0,1,62338,task1,801490,false,false,1018,image-keyboard-response,32
true,8,2,2,2,true,d,false,true,0.0-2.0-0.34-0.314-3.314,0,0,0,68,false,stim,false,0,531.3000000715256,1,0,1,62338,task1,803541,false,false,1021,image-keyboard-response,33
true,8,0,2,0,true,q,false,true,0.0-2.0-0.35-0.315-3.315,0,0,0,81,false,stim,false,1,643.4000000953674,1,0,2,62338,task1,805713,false,false,1024,image-keyboard-response,34
true,8,0,2,0,true,q,false,true,0.0-2.0-0.35-0.316-3.316,0,0,0,81,false,stim,false,1,409.39999997615814,1,0,2,62338,task1,807647,false,false,1027,image-keyboard-response,35
true,8,0,2,0,true,q,false,true,0.0-2.0-0.35-0.317-3.317,0,0,0,81,false,stim,false,1,550.0,1,0,2,62338,task1,809725,false,false,1030,image-keyboard-response,36
true,8,1,2,1,true,z,false,true,0.0-2.0-0.35-0.318-3.318,0,0,0,90,false,stim,false,2,1835.6000000238419,1,0,0,62338,task1,813078,false,false,1033,image-keyboard-response,37
true,8,2,2,2,true,d,false,true,0.0-2.0-0.35-0.319-3.319,0,0,0,68,false,stim,false,0,659.1000000238419,1,0,1,62338,task1,815254,false,false,1036,image-keyboard-response,38
true,8,2,2,2,true,d,false,true,0.0-2.0-0.35-0.320-3.320,0,0,0,68,false,stim,false,0,418.7999999523163,1,0,1,62338,task1,817205,false,false,1039,image-keyboard-response,39
true,8,1,2,1,true,z,false,true,0.0-2.0-0.35-0.321-3.321,0,0,0,90,false,stim,false,2,558.1000000238419,1,0,0,62338,task1,819287,false,false,1042,image-keyboard-response,40
true,8,2,2,2,true,d,false,true,0.0-2.0-0.35-0.322-3.322,0,0,0,68,false,stim,false,0,1185.5,1,0,1,62338,task1,821988,false,false,1045,image-keyboard-response,41
true,8,1,2,1,true,z,false,true,0.0-2.0-0.35-0.323-3.323,0,0,0,90,false,stim,false,2,558.3000000715256,1,0,0,62338,task1,824058,false,false,1048,image-keyboard-response,42
true,8,1,2,1,true,z,false,true,0.0-2.0-0.36-0.324-3.324,0,0,0,90,false,stim,false,2,465.6999999284744,1,0,0,62338,task1,826035,false,false,1051,image-keyboard-response,43
true,8,0,2,0,true,q,false,true,0.0-2.0-0.36-0.325-3.325,0,0,0,81,false,stim,false,1,655.7000000476837,1,0,2,62338,task1,828220,false,false,1054,image-keyboard-response,44
true,8,2,2,2,true,d,false,true,0.0-2.0-0.36-0.326-3.326,0,0,0,68,false,stim,false,0,656.5,1,0,1,62338,task1,830396,false,false,1057,image-keyboard-response,45
true,9,1,1,2,false,d,true,true,0.0-2.0-0.36-0.327-3.327,0,0,0,90,true,stim,false,0,787.7999999523163,1,0,2,62338,task1,832708,false,true,1060,image-keyboard-response,1
true,9,2,1,1,false,z,false,false,0.0-2.0-0.36-0.328-3.328,0,0,0,68,false,stim,true,2,1866.5,1,0,1,62338,task1,836091,false,false,1063,image-keyboard-response,2
true,9,1,1,2,false,d,true,false,0.0-2.0-0.36-0.329-3.329,0,0,0,90,false,stim,false,0,416.7999999523163,1,0,2,62338,task1,838034,false,false,1066,image-keyboard-response,3
true,9,1,1,2,false,d,false,false,0.0-2.0-0.36-0.330-3.330,0,0,0,90,false,stim,true,1,728.1999999284744,1,0,0,62338,task1,840285,false,false,1069,image-keyboard-response,4
true,9,1,1,1,true,z,false,true,0.0-2.0-0.36-0.331-3.331,0,0,0,90,false,stim,false,2,1071.7999999523163,1,0,1,62338,task1,842881,false,false,1072,image-keyboard-response,5
true,9,0,1,2,false,d,true,false,0.0-2.0-0.36-0.332-3.332,0,0,0,81,false,stim,false,1,700.1000000238419,1,0,0,62338,task1,845097,false,false,1075,image-keyboard-response,6
true,9,1,1,2,false,d,true,false,0.0-2.0-0.37-0.333-3.333,0,0,0,90,false,stim,false,0,561.3000000715256,1,0,2,62338,task1,847180,false,false,1078,image-keyboard-response,7
true,9,1,1,1,true,z,false,true,0.0-2.0-0.37-0.334-3.334,0,0,0,90,false,stim,false,2,859.1000000238419,1,0,1,62338,task1,849554,false,false,1081,image-keyboard-response,8
true,9,1,1,1,true,z,false,true,0.0-2.0-0.37-0.335-3.335,0,0,0,90,false,stim,false,2,1114.3999999761581,1,0,1,62338,task1,852184,false,false,1084,image-keyboard-response,9
true,9,0,1,2,false,d,true,false,0.0-2.0-0.37-0.336-3.336,0,0,0,81,false,stim,false,1,481.7999999523163,1,0,0,62338,task1,854183,false,false,1087,image-keyboard-response,10
true,9,1,1,1,true,z,false,true,0.0-2.0-0.37-0.337-3.337,0,0,0,90,false,stim,false,2,775.5,1,0,1,62338,task1,856477,false,false,1090,image-keyboard-response,11
true,9,2,1,2,true,d,false,false,0.0-2.0-0.37-0.338-3.338,0,0,0,68,false,stim,false,0,1400.8000000715256,1,0,2,62338,task1,859399,false,true,1093,image-keyboard-response,12
true,9,0,1,2,false,d,true,false,0.0-2.0-0.37-0.339-3.339,0,0,0,81,false,stim,false,1,1166.3999999761581,1,0,0,62338,task1,862092,false,false,1096,image-keyboard-response,13
true,9,2,1,2,true,d,false,true,0.0-2.0-0.37-0.340-3.340,0,0,0,68,false,stim,false,1,1227.8999999761581,1,0,0,62338,task1,864840,false,false,1099,image-keyboard-response,14
true,9,2,1,2,true,d,false,true,0.0-2.0-0.37-0.341-3.341,0,0,0,68,false,stim,false,0,1418.8999999761581,1,0,2,62338,task1,867795,false,false,1102,image-keyboard-response,15
true,9,1,1,1,true,z,false,true,0.0-2.0-0.38-0.342-3.342,0,0,0,90,false,stim,false,2,806.7000000476837,1,0,1,62338,task1,870145,false,false,1105,image-keyboard-response,16
true,9,2,1,2,true,d,false,true,0.0-2.0-0.38-0.343-3.343,0,0,0,68,false,stim,false,1,460.7999999523163,1,0,0,62338,task1,872126,false,false,1108,image-keyboard-response,17
true,9,2,1,2,true,d,false,false,0.0-2.0-0.38-0.344-3.344,0,0,0,68,false,stim,false,0,635.3999999761581,1,0,2,62338,task1,874283,false,true,1111,image-keyboard-response,18
true,9,2,1,2,true,d,false,false,0.0-2.0-0.38-0.345-3.345,0,0,0,68,false,stim,false,1,588.8999999761581,1,0,0,62338,task1,876385,false,true,1114,image-keyboard-response,19
true,9,2,1,2,true,d,false,false,0.0-2.0-0.38-0.346-3.346,0,0,0,68,false,stim,false,0,427.89999997615814,1,0,2,62338,task1,878331,false,true,1117,image-keyboard-response,20
true,9,0,1,2,false,d,false,false,0.0-2.0-0.38-0.347-3.347,0,0,0,81,false,stim,true,0,838.6000000238419,1,0,2,62338,task1,880691,false,false,1120,image-keyboard-response,21
true,9,1,1,1,true,z,false,true,0.0-2.0-0.38-0.348-3.348,0,0,0,90,false,stim,false,2,815.5,1,0,1,62338,task1,883031,false,false,1123,image-keyboard-response,22
true,9,1,1,1,true,z,false,true,0.0-2.0-0.38-0.349-3.349,0,0,0,90,false,stim,false,2,587.4000000953674,1,0,1,62338,task1,885134,false,false,1126,image-keyboard-response,23
true,9,1,1,2,false,d,false,false,0.0-2.0-0.38-0.350-3.350,0,0,0,90,false,stim,true,1,2156.5,1,0,0,62338,task1,888810,false,false,1129,image-keyboard-response,24
true,9,0,1,2,false,d,true,false,0.0-2.0-0.39-0.351-3.351,0,0,0,81,false,stim,false,1,412.39999997615814,1,0,0,62338,task1,890738,false,false,1132,image-keyboard-response,25
true,9,1,1,1,true,z,false,true,0.0-2.0-0.39-0.352-3.352,0,0,0,90,false,stim,false,2,629.5,1,0,1,62338,task1,892877,false,false,1135,image-keyboard-response,26
true,9,1,1,1,true,z,false,true,0.0-2.0-0.39-0.353-3.353,0,0,0,90,false,stim,false,2,617.5,1,0,1,62338,task1,895018,false,false,1138,image-keyboard-response,27
true,9,1,1,2,false,d,true,false,0.0-2.0-0.39-0.354-3.354,0,0,0,90,false,stim,false,0,1361.0,1,0,2,62338,task1,897911,false,false,1141,image-keyboard-response,28
true,9,2,1,2,true,d,false,true,0.0-2.0-0.39-0.355-3.355,0,0,0,68,false,stim,false,1,1166.8999999761581,1,0,0,62338,task1,900598,false,false,1144,image-keyboard-response,29
true,9,1,1,1,true,z,false,true,0.0-2.0-0.39-0.356-3.356,0,0,0,90,false,stim,false,2,748.8999999761581,1,0,1,62338,task1,902864,false,false,1147,image-keyboard-response,30
true,9,2,1,2,true,d,false,true,0.0-2.0-0.39-0.357-3.357,0,0,0,68,false,stim,false,0,1113.7000000476837,1,0,2,62338,task1,905491,false,false,1150,image-keyboard-response,31
true,9,1,1,2,false,d,true,false,0.0-2.0-0.39-0.358-3.358,0,0,0,90,false,stim,false,0,2297.600000023842,1,0,2,62338,task1,909309,false,false,1153,image-keyboard-response,32
true,9,2,1,2,true,d,false,true,0.0-2.0-0.39-0.359-3.359,0,0,0,68,false,stim,false,1,719.2999999523163,1,0,0,62338,task1,911548,false,false,1156,image-keyboard-response,33
true,9,2,1,2,true,d,false,true,0.0-2.0-0.40-0.360-3.360,0,0,0,68,false,stim,false,0,954.1999999284744,1,0,2,62338,task1,914027,false,false,1159,image-keyboard-response,34
true,9,2,1,2,true,d,false,true,0.0-2.0-0.40-0.361-3.361,0,0,0,68,false,stim,false,1,456.89999997615814,1,0,0,62338,task1,916018,false,false,1162,image-keyboard-response,35
true,9,1,1,1,true,z,false,true,0.0-2.0-0.40-0.362-3.362,0,0,0,90,false,stim,false,2,541.8999999761581,1,0,1,62338,task1,918080,false,false,1165,image-keyboard-response,36
true,9,2,1,2,true,d,false,true,0.0-2.0-0.40-0.363-3.363,0,0,0,68,false,stim,false,0,389.39999997615814,1,0,2,62338,task1,919986,false,false,1168,image-keyboard-response,37
true,9,2,1,1,false,z,false,false,0.0-2.0-0.40-0.364-3.364,0,0,0,68,false,stim,true,2,1073.6999999284744,1,0,1,62338,task1,922581,false,false,1171,image-keyboard-response,38
true,9,2,1,2,true,d,false,true,0.0-2.0-0.40-0.365-3.365,0,0,0,68,false,stim,false,1,495.39999997615814,1,0,0,62338,task1,924596,false,false,1174,image-keyboard-response,39
true,9,2,1,2,true,d,false,true,0.0-2.0-0.40-0.366-3.366,0,0,0,68,false,stim,false,1,491.10000002384186,1,0,0,62338,task1,926612,false,false,1177,image-keyboard-response,40
true,9,2,1,2,true,d,false,true,0.0-2.0-0.40-0.367-3.367,0,0,0,68,false,stim,false,0,512.8999999761581,1,0,2,62338,task1,928651,false,false,1180,image-keyboard-response,41
true,9,1,1,1,true,z,false,true,0.0-2.0-0.40-0.368-3.368,0,0,0,90,false,stim,false,2,615.7999999523163,1,0,1,62338,task1,930788,false,false,1183,image-keyboard-response,42
true,9,1,1,1,true,z,false,true,0.0-2.0-0.41-0.369-3.369,0,0,0,90,false,stim,false,2,599.6000000238419,1,0,1,62338,task1,932903,false,false,1186,image-keyboard-response,43
true,9,2,1,2,true,d,false,true,0.0-2.0-0.41-0.370-3.370,0,0,0,68,false,stim,false,0,489.10000002384186,1,0,2,62338,task1,934915,false,false,1189,image-keyboard-response,44
true,10,2,1,1,false,z,false,false,0.0-2.0-0.41-0.371-3.371,0,0,0,68,true,stim,true,2,537.7000000476837,1,0,2,62338,task1,936980,false,false,1192,image-keyboard-response,1
true,10,1,1,0,false,q,false,false,0.0-2.0-0.41-0.372-3.372,0,0,0,90,false,stim,true,1,917.8999999761581,1,0,1,62338,task1,939420,false,false,1195,image-keyboard-response,2
true,10,2,1,0,false,q,false,false,0.0-2.0-0.41-0.373-3.373,0,0,0,68,false,stim,true,2,686.3999999761581,1,0,0,62338,task1,941629,false,false,1198,image-keyboard-response,3
true,10,2,1,0,false,q,false,false,0.0-2.0-0.41-0.374-3.374,0,0,0,68,false,stim,true,2,991.2000000476837,1,0,0,62338,task1,944145,false,false,1201,image-keyboard-response,4
true,10,0,1,0,true,q,false,true,0.0-2.0-0.41-0.375-3.375,0,0,0,81,false,stim,false,2,697.6000000238419,1,0,0,62338,task1,946370,false,false,1204,image-keyboard-response,5
true,10,1,1,0,false,q,false,false,0.0-2.0-0.41-0.376-3.376,0,0,0,90,false,stim,true,1,1003.8000000715256,1,0,1,62338,task1,948898,false,false,1207,image-keyboard-response,6
true,10,1,1,1,true,z,false,true,0.0-2.0-0.41-0.377-3.377,0,0,0,90,false,stim,false,2,1580.8999999761581,1,0,2,62338,task1,951992,false,false,1210,image-keyboard-response,7
true,10,2,1,0,false,q,true,false,0.0-2.0-0.42-0.378-3.378,0,0,0,68,false,stim,false,1,1009.2000000476837,1,0,1,62338,task1,954533,false,false,1213,image-keyboard-response,8
true,10,0,1,0,true,q,false,true,0.0-2.0-0.42-0.379-3.379,0,0,0,81,false,stim,false,2,514.2000000476837,1,0,0,62338,task1,956571,false,false,1216,image-keyboard-response,9
true,10,1,1,0,false,q,false,false,0.0-2.0-0.42-0.380-3.380,0,0,0,90,false,stim,true,1,1094.5,1,0,1,62338,task1,959181,false,false,1219,image-keyboard-response,10
true,10,1,1,1,true,z,false,true,0.0-2.0-0.42-0.381-3.381,0,0,0,90,false,stim,false,2,894.3000000715256,1,0,2,62338,task1,961606,false,false,1222,image-keyboard-response,11
true,10,0,1,0,true,q,false,true,0.0-2.0-0.42-0.382-3.382,0,0,0,81,false,stim,false,2,482.40000009536743,1,0,0,62338,task1,963617,false,false,1225,image-keyboard-response,12
true,10,1,1,1,true,z,false,true,0.0-2.0-0.42-0.383-3.383,0,0,0,90,false,stim,false,2,587.2999999523163,1,0,2,62338,task1,965730,false,false,1228,image-keyboard-response,13
true,10,0,1,0,true,q,false,true,0.0-2.0-0.42-0.384-3.384,0,0,0,81,false,stim,false,1,704.3999999761581,1,0,1,62338,task1,967954,false,false,1231,image-keyboard-response,14
true,10,0,1,0,true,q,false,true,0.0-2.0-0.42-0.385-3.385,0,0,0,81,false,stim,false,2,469.89999997615814,1,0,0,62338,task1,969956,false,false,1234,image-keyboard-response,15
true,10,1,1,1,true,z,false,true,0.0-2.0-0.42-0.386-3.386,0,0,0,90,false,stim,false,2,510.5,1,0,2,62338,task1,971986,false,false,1237,image-keyboard-response,16
true,10,0,1,0,true,q,false,true,0.0-2.0-0.43-0.387-3.387,0,0,0,81,false,stim,false,2,2283.399999976158,1,0,0,62338,task1,975795,false,false,1240,image-keyboard-response,17
true,10,0,1,0,true,q,false,true,0.0-2.0-0.43-0.388-3.388,0,0,0,81,false,stim,false,2,499.39999997615814,1,0,0,62338,task1,977829,false,false,1243,image-keyboard-response,18
true,10,0,1,0,true,q,false,true,0.0-2.0-0.43-0.389-3.389,0,0,0,81,false,stim,false,1,1031.3000000715256,1,0,1,62338,task1,980385,false,false,1246,image-keyboard-response,19
true,10,1,1,1,true,z,false,false,0.0-2.0-0.43-0.390-3.390,0,0,0,90,false,stim,false,2,617.0,1,0,2,62338,task1,982512,false,true,1249,image-keyboard-response,20
true,10,0,1,0,true,q,false,true,0.0-2.0-0.43-0.391-3.391,0,0,0,81,false,stim,false,1,467.2000000476837,1,0,1,62338,task1,984496,false,false,1252,image-keyboard-response,21
true,10,1,1,1,true,z,false,true,0.0-2.0-0.43-0.392-3.392,0,0,0,90,false,stim,false,2,464.60000002384186,1,0,2,62338,task1,986475,false,false,1255,image-keyboard-response,22
true,10,0,1,1,false,z,true,false,0.0-2.0-0.43-0.393-3.393,0,0,0,81,false,stim,false,2,668.3000000715256,1,0,2,62338,task1,988669,false,false,1258,image-keyboard-response,23
true,10,1,1,0,false,q,false,false,0.0-2.0-0.43-0.394-3.394,0,0,0,90,false,stim,true,1,462.8000000715256,1,0,1,62338,task1,990660,false,false,1261,image-keyboard-response,24
true,10,0,1,0,true,q,false,false,0.0-2.0-0.43-0.395-3.395,0,0,0,81,false,stim,false,2,531.7000000476837,1,0,0,62338,task1,992707,false,true,1264,image-keyboard-response,25
true,10,0,1,0,true,q,false,true,0.0-2.0-0.44-0.396-3.396,0,0,0,81,false,stim,false,2,483.7999999523163,1,0,0,62338,task1,994723,false,false,1267,image-keyboard-response,26
true,10,0,1,0,true,q,false,true,0.0-2.0-0.44-0.397-3.397,0,0,0,81,false,stim,false,2,395.39999997615814,1,0,0,62338,task1,996643,false,false,1270,image-keyboard-response,27
true,10,1,1,0,false,q,false,false,0.0-2.0-0.44-0.398-3.398,0,0,0,90,false,stim,true,1,680.7000000476837,1,0,1,62338,task1,998847,false,false,1273,image-keyboard-response,28
true,10,1,1,1,true,z,false,true,0.0-2.0-0.44-0.399-3.399,0,0,0,90,false,stim,false,2,985.0999999046326,1,0,2,62338,task1,1001363,false,false,1276,image-keyboard-response,29
true,10,1,1,1,true,z,false,true,0.0-2.0-0.44-0.400-3.400,0,0,0,90,false,stim,false,2,523.7999999523163,1,0,2,62338,task1,1003406,false,false,1279,image-keyboard-response,30
true,10,1,1,1,true,z,false,true,0.0-2.0-0.44-0.401-3.401,0,0,0,90,false,stim,false,2,450.90000009536743,1,0,2,62338,task1,1005379,false,false,1282,image-keyboard-response,31
true,10,0,1,0,true,q,false,true,0.0-2.0-0.44-0.402-3.402,0,0,0,81,false,stim,false,1,608.6999999284744,1,0,1,62338,task1,1007506,false,false,1285,image-keyboard-response,32
true,10,0,1,0,true,q,false,false,0.0-2.0-0.44-0.403-3.403,0,0,0,81,false,stim,false,1,387.7999999523163,1,0,1,62338,task1,1009409,false,true,1288,image-keyboard-response,33
true,10,0,1,0,true,q,false,false,0.0-2.0-0.44-0.404-3.404,0,0,0,81,false,stim,false,2,577.1999999284744,1,0,0,62338,task1,1011513,false,true,1291,image-keyboard-response,34
true,10,0,1,0,true,q,false,true,0.0-2.0-0.45-0.405-3.405,0,0,0,81,false,stim,false,1,551.5,1,0,1,62338,task1,1013577,false,false,1294,image-keyboard-response,35
true,10,0,1,0,true,q,false,true,0.0-2.0-0.45-0.406-3.406,0,0,0,81,false,stim,false,2,464.39999997615814,1,0,0,62338,task1,1015558,false,false,1297,image-keyboard-response,36
true,10,1,1,1,true,z,false,true,0.0-2.0-0.45-0.407-3.407,0,0,0,90,false,stim,false,2,505.89999997615814,1,0,2,62338,task1,1017583,false,false,1300,image-keyboard-response,37
true,10,0,1,0,true,q,false,true,0.0-2.0-0.45-0.408-3.408,0,0,0,81,false,stim,false,1,465.7000000476837,1,0,1,62338,task1,1019576,false,false,1303,image-keyboard-response,38
true,10,0,1,0,true,q,false,true,0.0-2.0-0.45-0.409-3.409,0,0,0,81,false,stim,false,2,578.6000000238419,1,0,0,62338,task1,1021674,false,false,1306,image-keyboard-response,39
true,10,0,1,0,true,q,false,true,0.0-2.0-0.45-0.410-3.410,0,0,0,81,false,stim,false,2,604.1999999284744,1,0,0,62338,task1,1023801,false,false,1309,image-keyboard-response,40
true,10,1,1,1,true,z,false,true,0.0-2.0-0.45-0.411-3.411,0,0,0,90,false,stim,false,2,575.0,1,0,2,62338,task1,1025897,false,false,1312,image-keyboard-response,41
true,10,1,1,1,true,z,false,true,0.0-2.0-0.45-0.412-3.412,0,0,0,90,false,stim,false,2,962.9000000953674,1,0,2,62338,task1,1028385,false,false,1315,image-keyboard-response,42
true,10,0,1,0,true,q,false,false,0.0-2.0-0.45-0.413-3.413,0,0,0,81,false,stim,false,1,488.40000009536743,1,0,1,62338,task1,1030400,false,true,1318,image-keyboard-response,43
true,11,1,2,0,false,q,false,true,0.0-2.0-0.46-0.414-3.414,0,0,0,90,true,stim,true,1,518.2999999523163,1,0,2,62338,task1,1032448,false,true,1321,image-keyboard-response,1
true,11,0,2,2,false,d,false,false,0.0-2.0-0.46-0.415-3.415,0,0,0,81,false,stim,true,0,830.7999999523163,1,0,1,62338,task1,1034792,false,false,1324,image-keyboard-response,2
true,11,0,2,1,false,z,false,false,0.0-2.0-0.46-0.416-3.416,0,0,0,81,false,stim,true,0,613.8999999761581,1,0,0,62338,task1,1036923,false,false,1327,image-keyboard-response,3
true,11,2,2,2,true,d,false,true,0.0-2.0-0.46-0.417-3.417,0,0,0,68,false,stim,false,0,1267.7000000476837,1,0,1,62338,task1,1039722,false,false,1330,image-keyboard-response,4
true,11,0,2,1,false,z,false,false,0.0-2.0-0.46-0.418-3.418,0,0,0,81,false,stim,true,0,511.0,1,0,0,62338,task1,1041752,false,false,1333,image-keyboard-response,5
true,11,1,2,0,false,q,false,false,0.0-2.0-0.46-0.419-3.419,0,0,0,90,false,stim,true,1,647.7000000476837,1,0,2,62338,task1,1043926,false,false,1336,image-keyboard-response,6
true,11,1,2,1,true,z,false,false,0.0-2.0-0.46-0.420-3.420,0,0,0,90,false,stim,false,0,889.1000000238419,1,0,0,62338,task1,1046339,false,true,1339,image-keyboard-response,7
true,11,2,2,2,true,d,false,true,0.0-2.0-0.46-0.421-3.421,0,0,0,68,false,stim,false,0,579.6000000238419,1,0,1,62338,task1,1048437,false,false,1342,image-keyboard-response,8
true,11,1,2,0,false,q,false,false,0.0-2.0-0.46-0.422-3.422,0,0,0,90,false,stim,true,1,1504.5,1,0,2,62338,task1,1051464,false,false,1345,image-keyboard-response,9
true,11,2,2,1,false,z,true,false,0.0-2.0-0.47-0.423-3.423,0,0,0,68,false,stim,false,0,1103.6999999284744,1,0,0,62338,task1,1054090,false,false,1348,image-keyboard-response,10
true,11,0,2,1,false,z,false,true,0.0-2.0-0.47-0.424-3.424,0,0,0,81,false,stim,true,0,793.8000000715256,1,0,0,62338,task1,1056405,false,true,1351,image-keyboard-response,11
true,11,0,2,0,true,q,false,true,0.0-2.0-0.47-0.425-3.425,0,0,0,81,false,stim,false,1,1020.5,1,0,2,62338,task1,1058936,false,false,1354,image-keyboard-response,12
true,11,2,2,2,true,d,false,true,0.0-2.0-0.47-0.426-3.426,0,0,0,68,false,stim,false,0,608.6000000238419,1,0,1,62338,task1,1061059,false,false,1357,image-keyboard-response,13
true,11,0,2,0,true,q,false,true,0.0-2.0-0.47-0.427-3.427,0,0,0,81,false,stim,false,1,807.0,1,0,2,62338,task1,1063394,false,false,1360,image-keyboard-response,14
true,11,0,2,0,true,q,false,true,0.0-2.0-0.47-0.428-3.428,0,0,0,81,false,stim,false,1,515.7999999523163,1,0,2,62338,task1,1065436,false,false,1363,image-keyboard-response,15
true,11,0,2,1,false,z,false,false,0.0-2.0-0.47-0.429-3.429,0,0,0,81,false,stim,true,0,391.2999999523163,1,0,0,62338,task1,1067346,false,false,1366,image-keyboard-response,16
true,11,2,2,2,true,d,false,true,0.0-2.0-0.47-0.430-3.430,0,0,0,68,false,stim,false,0,1289.8999999761581,1,0,1,62338,task1,1070158,false,false,1369,image-keyboard-response,17
true,11,2,2,2,true,d,false,false,0.0-2.0-0.47-0.431-3.431,0,0,0,68,false,stim,false,0,412.0,1,0,1,62338,task1,1072098,false,true,1372,image-keyboard-response,18
true,11,0,2,0,true,q,false,true,0.0-2.0-0.48-0.432-3.432,0,0,0,81,false,stim,false,1,676.7000000476837,1,0,2,62338,task1,1074301,false,false,1375,image-keyboard-response,19
true,11,2,2,2,true,d,false,true,0.0-2.0-0.48-0.433-3.433,0,0,0,68,false,stim,false,0,389.39999997615814,1,0,1,62338,task1,1076215,false,false,1378,image-keyboard-response,20
true,11,0,2,1,false,z,false,false,0.0-2.0-0.48-0.434-3.434,0,0,0,81,false,stim,true,0,768.4000000953674,1,0,0,62338,task1,1078502,false,false,1381,image-keyboard-response,21
true,11,1,2,1,true,z,false,true,0.0-2.0-0.48-0.435-3.435,0,0,0,90,false,stim,false,0,659.1000000238419,1,0,0,62338,task1,1080692,false,false,1384,image-keyboard-response,22
true,11,2,2,2,true,d,false,true,0.0-2.0-0.48-0.436-3.436,0,0,0,68,false,stim,false,0,894.6000000238419,1,0,1,62338,task1,1083115,false,false,1387,image-keyboard-response,23
true,11,2,2,2,true,d,false,true,0.0-2.0-0.48-0.437-3.437,0,0,0,68,false,stim,false,0,551.1000000238419,1,0,1,62338,task1,1085188,false,false,1390,image-keyboard-response,24
true,11,0,2,0,true,q,false,true,0.0-2.0-0.48-0.438-3.438,0,0,0,81,false,stim,false,1,1401.8000000715256,1,0,2,62338,task1,1088112,false,false,1393,image-keyboard-response,25
true,11,1,2,1,true,z,false,true,0.0-2.0-0.48-0.439-3.439,0,0,0,90,false,stim,false,0,462.40000009536743,1,0,0,62338,task1,1090101,false,false,1396,image-keyboard-response,26
true,11,0,2,0,true,q,false,true,0.0-2.0-0.48-0.440-3.440,0,0,0,81,false,stim,false,1,454.6999999284744,1,0,2,62338,task1,1092078,false,false,1399,image-keyboard-response,27
true,11,1,2,1,true,z,false,true,0.0-2.0-0.49-0.441-3.441,0,0,0,90,false,stim,false,0,567.6000000238419,1,0,0,62338,task1,1094173,false,false,1402,image-keyboard-response,28
true,11,0,2,0,true,q,false,false,0.0-2.0-0.49-0.442-3.442,0,0,0,81,false,stim,false,1,977.2000000476837,1,0,2,62338,task1,1096677,false,true,1405,image-keyboard-response,29
true,11,2,2,2,true,d,false,true,0.0-2.0-0.49-0.443-3.443,0,0,0,68,false,stim,false,0,466.2999999523163,1,0,1,62338,task1,1098671,false,false,1408,image-keyboard-response,30
true,11,2,2,2,true,d,false,true,0.0-2.0-0.49-0.444-3.444,0,0,0,68,false,stim,false,0,399.8000000715256,1,0,1,62338,task1,1100588,false,false,1411,image-keyboard-response,31
true,11,1,2,1,true,z,false,false,0.0-2.0-0.49-0.445-3.445,0,0,0,90,false,stim,false,0,1049.3999999761581,1,0,0,62338,task1,1103160,false,true,1414,image-keyboard-response,32
true,11,0,2,0,true,q,false,true,0.0-2.0-0.49-0.446-3.446,0,0,0,81,false,stim,false,1,693.0,1,0,2,62338,task1,1105379,false,false,1417,image-keyboard-response,33
true,11,2,2,2,true,d,false,true,0.0-2.0-0.49-0.447-3.447,0,0,0,68,false,stim,false,0,608.1000000238419,1,0,1,62338,task1,1107505,false,false,1420,image-keyboard-response,34
true,11,0,2,0,true,q,false,true,0.0-2.0-0.49-0.448-3.448,0,0,0,81,false,stim,false,1,677.6999999284744,1,0,2,62338,task1,1109707,false,false,1423,image-keyboard-response,35
true,11,2,2,1,false,z,true,false,0.0-2.0-0.49-0.449-3.449,0,0,0,68,false,stim,false,0,794.8999999761581,1,0,0,62338,task1,1112030,false,false,1426,image-keyboard-response,36
true,11,2,2,2,true,d,false,true,0.0-2.0-0.50-0.450-3.450,0,0,0,68,false,stim,false,0,991.6000000238419,1,0,1,62338,task1,1114542,false,false,1429,image-keyboard-response,37
true,11,0,2,1,false,z,false,false,0.0-2.0-0.50-0.451-3.451,0,0,0,81,false,stim,true,0,2068.1999999284744,1,0,0,62338,task1,1118136,false,false,1432,image-keyboard-response,38
true,11,1,2,1,true,z,false,true,0.0-2.0-0.50-0.452-3.452,0,0,0,90,false,stim,false,0,594.6000000238419,1,0,0,62338,task1,1120260,false,false,1435,image-keyboard-response,39
true,12,0,2,1,false,z,false,false,0.0-2.0-0.50-0.453-3.453,0,0,0,81,true,stim,true,0,1153.5,1,0,2,62338,task1,1122937,false,false,1438,image-keyboard-response,1
true,12,0,2,1,false,z,false,false,0.0-2.0-0.50-0.454-3.454,0,0,0,81,false,stim,true,0,538.7000000476837,1,0,2,62338,task1,1125004,false,false,1441,image-keyboard-response,2
true,12,2,2,0,false,q,false,false,0.0-2.0-0.50-0.455-3.455,0,0,0,68,false,stim,true,2,673.8999999761581,1,0,1,62338,task1,1127208,false,false,1444,image-keyboard-response,3
true,12,1,2,2,false,d,false,true,0.0-2.0-0.50-0.456-3.456,0,0,0,90,false,stim,true,1,573.3999999761581,1,0,0,62338,task1,1129307,false,true,1447,image-keyboard-response,4
true,12,2,2,0,false,q,false,false,0.0-2.0-0.50-0.457-3.457,0,0,0,68,false,stim,true,2,672.5,1,0,1,62338,task1,1131490,false,false,1450,image-keyboard-response,5
true,12,1,2,1,true,z,false,true,0.0-2.0-0.50-0.458-3.458,0,0,0,90,false,stim,false,0,850.5,1,0,2,62338,task1,1133868,false,false,1453,image-keyboard-response,6
true,12,1,2,1,true,z,false,false,0.0-2.0-0.51-0.459-3.459,0,0,0,90,false,stim,false,0,405.3000000715256,1,0,2,62338,task1,1135789,false,true,1456,image-keyboard-response,7
true,12,2,2,0,false,q,false,false,0.0-2.0-0.51-0.460-3.460,0,0,0,68,false,stim,true,2,571.7000000476837,1,0,1,62338,task1,1137876,false,false,1459,image-keyboard-response,8
true,12,1,2,1,true,z,false,true,0.0-2.0-0.51-0.461-3.461,0,0,0,90,false,stim,false,0,398.2999999523163,1,0,2,62338,task1,1139797,false,false,1462,image-keyboard-response,9
true,12,1,2,0,false,q,true,false,0.0-2.0-0.51-0.462-3.462,0,0,0,90,false,stim,false,2,725.5,1,0,1,62338,task1,1142053,false,false,1465,image-keyboard-response,10
true,12,1,2,2,false,d,false,false,0.0-2.0-0.51-0.463-3.463,0,0,0,90,false,stim,true,1,842.2000000476837,1,0,0,62338,task1,1144412,false,false,1468,image-keyboard-response,11
true,12,0,2,2,false,d,true,false,0.0-2.0-0.51-0.464-3.464,0,0,0,81,false,stim,false,1,573.1000000238419,1,0,0,62338,task1,1146502,false,false,1471,image-keyboard-response,12
true,12,0,2,0,true,q,false,true,0.0-2.0-0.51-0.465-3.465,0,0,0,81,false,stim,false,2,1146.6000000238419,1,0,1,62338,task1,1149158,false,false,1474,image-keyboard-response,13
true,12,1,2,1,true,z,false,false,0.0-2.0-0.51-0.466-3.466,0,0,0,90,false,stim,false,0,457.39999997615814,1,0,2,62338,task1,1151153,false,true,1477,image-keyboard-response,14
true,12,2,2,2,true,d,false,true,0.0-2.0-0.51-0.467-3.467,0,0,0,68,false,stim,false,1,947.2999999523163,1,0,0,62338,task1,1153629,false,false,1480,image-keyboard-response,15
true,12,1,2,1,true,z,false,true,0.0-2.0-0.52-0.468-3.468,0,0,0,90,false,stim,false,0,1076.5,1,0,2,62338,task1,1156227,false,false,1483,image-keyboard-response,16
true,12,0,2,0,true,q,false,true,0.0-2.0-0.52-0.469-3.469,0,0,0,81,false,stim,false,2,603.5,1,0,1,62338,task1,1158355,false,false,1486,image-keyboard-response,17
true,12,0,2,0,true,q,false,false,0.0-2.0-0.52-0.470-3.470,0,0,0,81,false,stim,false,2,661.0,1,0,1,62338,task1,1160540,false,true,1489,image-keyboard-response,18
true,12,1,2,1,true,z,false,true,0.0-2.0-0.52-0.471-3.471,0,0,0,90,false,stim,false,0,575.8000000715256,1,0,2,62338,task1,1162625,false,false,1492,image-keyboard-response,19
true,12,2,2,2,true,d,false,true,0.0-2.0-0.52-0.472-3.472,0,0,0,68,false,stim,false,1,567.7000000476837,1,0,0,62338,task1,1164709,false,false,1495,image-keyboard-response,20
true,12,1,2,1,true,z,false,true,0.0-2.0-0.52-0.473-3.473,0,0,0,90,false,stim,false,0,979.1999999284744,1,0,2,62338,task1,1167208,false,false,1498,image-keyboard-response,21
true,12,0,2,0,true,q,false,true,0.0-2.0-0.52-0.474-3.474,0,0,0,81,false,stim,false,2,1199.7999999523163,1,0,1,62338,task1,1169951,false,false,1501,image-keyboard-response,22
true,12,2,2,2,true,d,false,true,0.0-2.0-0.52-0.475-3.475,0,0,0,68,false,stim,false,1,828.3999999761581,1,0,0,62338,task1,1172301,false,false,1504,image-keyboard-response,23
true,12,2,2,2,true,d,false,true,0.0-2.0-0.52-0.476-3.476,0,0,0,68,false,stim,false,1,453.60000002384186,1,0,0,62338,task1,1174283,false,false,1507,image-keyboard-response,24
true,12,1,2,1,true,z,false,true,0.0-2.0-0.53-0.477-3.477,0,0,0,90,false,stim,false,0,679.6000000238419,1,0,2,62338,task1,1176496,false,false,1510,image-keyboard-response,25
true,12,0,2,2,false,d,true,false,0.0-2.0-0.53-0.478-3.478,0,0,0,81,false,stim,false,1,2585.6999999284744,1,0,0,62338,task1,1180608,false,false,1513,image-keyboard-response,26
true,12,0,2,0,true,q,false,true,0.0-2.0-0.53-0.479-3.479,0,0,0,81,false,stim,false,2,428.2999999523163,1,0,1,62338,task1,1182558,false,false,1516,image-keyboard-response,27
true,12,1,2,1,true,z,false,true,0.0-2.0-0.53-0.480-3.480,0,0,0,90,false,stim,false,0,476.7999999523163,1,0,2,62338,task1,1184553,false,false,1519,image-keyboard-response,28
true,12,0,2,0,true,q,false,true,0.0-2.0-0.53-0.481-3.481,0,0,0,81,false,stim,false,2,576.3999999761581,1,0,1,62338,task1,1186648,false,false,1522,image-keyboard-response,29
true,12,2,2,2,true,d,false,true,0.0-2.0-0.53-0.482-3.482,0,0,0,68,false,stim,false,1,419.7999999523163,1,0,0,62338,task1,1188595,false,false,1525,image-keyboard-response,30
true,12,0,2,0,true,q,false,true,0.0-2.0-0.53-0.483-3.483,0,0,0,81,false,stim,false,2,538.8999999761581,1,0,1,62338,task1,1190653,false,false,1528,image-keyboard-response,31
true,12,2,2,2,true,d,false,true,0.0-2.0-0.53-0.484-3.484,0,0,0,68,false,stim,false,1,894.7000000476837,1,0,0,62338,task1,1193068,false,false,1531,image-keyboard-response,32
true,12,1,2,1,true,z,false,true,0.0-2.0-0.53-0.485-3.485,0,0,0,90,false,stim,false,0,564.6000000238419,1,0,2,62338,task1,1195142,false,false,1534,image-keyboard-response,33
true,12,1,2,1,true,z,false,false,0.0-2.0-0.54-0.486-3.486,0,0,0,90,false,stim,false,0,1152.3999999761581,1,0,2,62338,task1,1197809,false,true,1537,image-keyboard-response,34
true,12,0,2,2,false,d,true,true,0.0-2.0-0.54-0.487-3.487,0,0,0,81,false,stim,false,1,1261.2999999523163,1,0,0,62338,task1,1200602,false,true,1540,image-keyboard-response,35
true,12,1,2,1,true,z,false,true,0.0-2.0-0.54-0.488-3.488,0,0,0,90,false,stim,false,0,760.2999999523163,1,0,2,62338,task1,1202884,false,false,1543,image-keyboard-response,36
true,12,2,2,0,false,q,false,false,0.0-2.0-0.54-0.489-3.489,0,0,0,68,false,stim,true,2,1140.7999999523163,1,0,1,62338,task1,1205548,false,false,1546,image-keyboard-response,37
true,12,0,2,2,false,d,true,false,0.0-2.0-0.54-0.490-3.490,0,0,0,81,false,stim,false,1,503.89999997615814,1,0,0,62338,task1,1207577,false,false,1549,image-keyboard-response,38
true,12,2,2,2,true,d,false,true,0.0-2.0-0.54-0.491-3.491,0,0,0,68,false,stim,false,1,766.9000000953674,1,0,0,62338,task1,1209856,false,false,1552,image-keyboard-response,39
true,12,0,2,0,true,q,false,true,0.0-2.0-0.54-0.492-3.492,0,0,0,81,false,stim,false,2,482.1999999284744,1,0,1,62338,task1,1211859,false,false,1555,image-keyboard-response,40
true,12,1,2,1,true,z,false,true,0.0-2.0-0.54-0.493-3.493,0,0,0,90,false,stim,false,0,490.7999999523163,1,0,2,62338,task1,1213878,false,false,1558,image-keyboard-response,41
true,13,2,2,2,true,d,false,true,0.0-2.0-0.54-0.494-3.494,0,0,0,68,true,stim,false,0,992.0,1,0,1,62338,task1,1216393,false,false,1561,image-keyboard-response,1
true,13,1,2,0,false,q,false,true,0.0-2.0-0.55-0.495-3.495,0,0,0,90,false,stim,true,1,647.8999999761581,1,0,2,62338,task1,1218560,false,true,1564,image-keyboard-response,2
true,13,0,2,1,false,z,true,false,0.0-2.0-0.55-0.496-3.496,0,0,0,81,false,stim,false,2,556.6000000238419,1,0,0,62338,task1,1220634,false,false,1567,image-keyboard-response,3
true,13,2,2,2,true,d,false,true,0.0-2.0-0.55-0.497-3.497,0,0,0,68,false,stim,false,0,598.5,1,0,1,62338,task1,1222745,false,false,1570,image-keyboard-response,4
true,13,2,2,1,false,z,false,false,0.0-2.0-0.55-0.498-3.498,0,0,0,68,false,stim,true,2,1128.3000000715256,1,0,0,62338,task1,1225397,false,false,1573,image-keyboard-response,5
true,13,2,2,2,true,d,false,true,0.0-2.0-0.55-0.499-3.499,0,0,0,68,false,stim,false,0,410.10000002384186,1,0,1,62338,task1,1227325,false,false,1576,image-keyboard-response,6
true,13,1,2,0,false,q,false,false,0.0-2.0-0.55-0.500-3.500,0,0,0,90,false,stim,true,1,429.89999997615814,1,0,2,62338,task1,1229275,false,false,1579,image-keyboard-response,7
true,13,1,2,0,false,q,false,false,0.0-2.0-0.55-0.501-3.501,0,0,0,90,false,stim,true,1,439.60000002384186,1,0,2,62338,task1,1231235,false,false,1582,image-keyboard-response,8
true,13,0,2,2,false,d,false,false,0.0-2.0-0.55-0.502-3.502,0,0,0,81,false,stim,true,0,1135.6000000238419,1,0,1,62338,task1,1233906,false,false,1585,image-keyboard-response,9
true,13,2,2,1,false,z,false,true,0.0-2.0-0.55-0.503-3.503,0,0,0,68,false,stim,true,2,1681.1999999284744,1,0,0,62338,task1,1237110,false,true,1588,image-keyboard-response,10
true,13,2,2,2,true,d,false,true,0.0-2.0-0.56-0.504-3.504,0,0,0,68,false,stim,false,0,651.2000000476837,1,0,1,62338,task1,1239290,false,false,1591,image-keyboard-response,11
true,13,2,2,1,false,z,false,false,0.0-2.0-0.56-0.505-3.505,0,0,0,68,false,stim,true,2,353.1999999284744,1,0,0,62338,task1,1241170,false,false,1594,image-keyboard-response,12
true,13,2,2,0,false,q,true,false,0.0-2.0-0.56-0.506-3.506,0,0,0,68,false,stim,false,1,1285.1999999284744,1,0,2,62338,task1,1243983,false,false,1597,image-keyboard-response,13
true,13,2,2,2,true,d,false,true,0.0-2.0-0.56-0.507-3.507,0,0,0,68,false,stim,false,0,372.7999999523163,1,0,1,62338,task1,1245890,false,false,1600,image-keyboard-response,14
true,13,2,2,1,false,z,false,false,0.0-2.0-0.56-0.508-3.508,0,0,0,68,false,stim,true,2,614.1999999284744,1,0,0,62338,task1,1248049,false,false,1603,image-keyboard-response,15
true,13,0,2,0,true,q,false,true,0.0-2.0-0.56-0.509-3.509,0,0,0,81,false,stim,false,1,802.2999999523163,1,0,2,62338,task1,1250368,false,false,1606,image-keyboard-response,16
true,13,1,2,1,true,z,false,true,0.0-2.0-0.56-0.510-3.510,0,0,0,90,false,stim,false,2,1040.7000000476837,1,0,0,62338,task1,1252917,false,false,1609,image-keyboard-response,17
true,13,0,2,0,true,q,false,true,0.0-2.0-0.56-0.511-3.511,0,0,0,81,false,stim,false,1,565.3000000715256,1,0,2,62338,task1,1254998,false,false,1612,image-keyboard-response,18
true,13,2,2,2,true,d,false,true,0.0-2.0-0.56-0.512-3.512,0,0,0,68,false,stim,false,0,569.8999999761581,1,0,1,62338,task1,1257087,false,false,1615,image-keyboard-response,19
true,13,2,2,2,true,d,false,true,0.0-2.0-0.57-0.513-3.513,0,0,0,68,false,stim,false,0,486.8000000715256,1,0,1,62338,task1,1259093,false,false,1618,image-keyboard-response,20
true,13,2,2,2,true,d,false,true,0.0-2.0-0.57-0.514-3.514,0,0,0,68,false,stim,false,0,844.6000000238419,1,0,1,62338,task1,1261455,false,false,1621,image-keyboard-response,21
true,13,0,2,0,true,q,false,true,0.0-2.0-0.57-0.515-3.515,0,0,0,81,false,stim,false,1,773.8999999761581,1,0,2,62338,task1,1263752,false,false,1624,image-keyboard-response,22
true,13,2,2,2,true,d,false,true,0.0-2.0-0.57-0.516-3.516,0,0,0,68,false,stim,false,0,640.7000000476837,1,0,1,62338,task1,1265922,false,false,1627,image-keyboard-response,23
true,13,1,2,0,false,q,false,false,0.0-2.0-0.57-0.517-3.517,0,0,0,90,false,stim,true,1,524.5999999046326,1,0,2,62338,task1,1267957,false,false,1630,image-keyboard-response,24
true,13,1,2,1,true,z,false,true,0.0-2.0-0.57-0.518-3.518,0,0,0,90,false,stim,false,2,573.6000000238419,1,0,0,62338,task1,1270051,false,false,1633,image-keyboard-response,25
true,13,0,2,0,true,q,false,true,0.0-2.0-0.57-0.519-3.519,0,0,0,81,false,stim,false,1,439.7999999523163,1,0,2,62338,task1,1272011,false,false,1636,image-keyboard-response,26
true,13,1,2,1,true,z,false,true,0.0-2.0-0.57-0.520-3.520,0,0,0,90,false,stim,false,2,1821.5999999046326,1,0,0,62338,task1,1275371,false,false,1639,image-keyboard-response,27
true,13,1,2,1,true,z,false,true,0.0-2.0-0.57-0.521-3.521,0,0,0,90,false,stim,false,2,393.0,1,0,0,62338,task1,1277285,false,false,1642,image-keyboard-response,28
true,13,1,2,1,true,z,false,true,0.0-2.0-0.58-0.522-3.522,0,0,0,90,false,stim,false,2,297.0,1,0,0,62338,task1,1279102,false,false,1645,image-keyboard-response,29
true,13,1,2,1,true,z,false,true,0.0-2.0-0.58-0.523-3.523,0,0,0,90,false,stim,false,2,397.7000000476837,1,0,0,62338,task1,1281010,false,false,1648,image-keyboard-response,30
true,13,2,2,2,true,d,false,true,0.0-2.0-0.58-0.524-3.524,0,0,0,68,false,stim,false,0,1116.5,1,0,1,62338,task1,1283645,false,false,1651,image-keyboard-response,31
true,13,2,2,2,true,d,false,true,0.0-2.0-0.58-0.525-3.525,0,0,0,68,false,stim,false,0,414.60000002384186,1,0,1,62338,task1,1285588,false,false,1654,image-keyboard-response,32
true,13,0,2,0,true,q,false,true,0.0-2.0-0.58-0.526-3.526,0,0,0,81,false,stim,false,1,789.3999999761581,1,0,2,62338,task1,1287902,false,false,1657,image-keyboard-response,33
true,13,0,2,0,true,q,false,true,0.0-2.0-0.58-0.527-3.527,0,0,0,81,false,stim,false,1,631.3000000715256,1,0,2,62338,task1,1290058,false,false,1660,image-keyboard-response,34
true,13,2,2,2,true,d,false,true,0.0-2.0-0.58-0.528-3.528,0,0,0,68,false,stim,false,0,1424.1000000238419,1,0,1,62338,task1,1293014,false,false,1663,image-keyboard-response,35
true,13,1,2,1,true,z,false,true,0.0-2.0-0.58-0.529-3.529,0,0,0,90,false,stim,false,2,976.2999999523163,1,0,0,62338,task1,1295519,false,false,1666,image-keyboard-response,36
true,13,0,2,0,true,q,false,true,0.0-2.0-0.58-0.530-3.530,0,0,0,81,false,stim,false,1,443.89999997615814,1,1,2,62338,task1,1297480,false,false,1669,image-keyboard-response,37
true,13,0,2,0,true,q,false,true,0.0-2.0-0.59-0.531-3.531,0,0,0,81,false,stim,false,1,727.3000000715256,1,1,2,62338,task1,1299740,false,false,1672,image-keyboard-response,38
true,13,1,2,1,true,z,false,true,0.0-2.0-0.59-0.532-3.532,0,0,0,90,false,stim,false,2,722.0999999046326,1,1,0,62338,task1,1301989,false,false,1675,image-keyboard-response,39
true,13,2,2,2,true,d,false,true,0.0-2.0-0.59-0.533-3.533,0,0,0,68,false,stim,false,0,1628.1999999284744,1,1,1,62338,task1,1305135,false,false,1678,image-keyboard-response,40
true,13,0,2,0,true,q,false,true,0.0-2.0-0.59-0.534-3.534,0,0,0,81,false,stim,false,1,630.5,1,1,2,62338,task1,1307295,false,false,1681,image-keyboard-response,41
true,14,0,0,1,false,z,true,false,0.0-2.0-0.59-0.535-3.535,1,1,1,81,true,stim,false,1,598.0,1,1,0,62338,task1,1430563,false,false,1804,image-keyboard-response,1
true,14,0,0,2,false,d,true,false,0.0-2.0-0.59-0.536-3.536,1,1,1,81,false,stim,false,2,715.5,1,1,1,62338,task1,1432808,false,false,1807,image-keyboard-response,2
true,14,1,0,0,false,q,true,false,0.0-2.0-0.59-0.537-3.537,1,1,1,90,false,stim,false,0,536.8000000715256,1,1,2,62338,task1,1434864,false,false,1810,image-keyboard-response,3
true,14,2,0,2,true,d,false,true,0.0-2.0-0.59-0.538-3.538,1,1,1,68,false,stim,false,2,1006.6999999284744,1,1,1,62338,task1,1437400,false,false,1813,image-keyboard-response,4
true,14,0,0,1,false,z,true,false,0.0-2.0-0.59-0.539-3.539,1,1,1,81,false,stim,false,1,597.5999999046326,1,1,0,62338,task1,1439520,false,false,1816,image-keyboard-response,5
true,14,1,0,1,true,z,false,true,0.0-2.0-0.60-0.540-3.540,1,1,1,90,false,stim,false,1,567.8999999761581,1,1,0,62338,task1,1441610,false,false,1819,image-keyboard-response,6
true,14,1,0,1,true,z,false,true,0.0-2.0-0.60-0.541-3.541,1,1,1,90,false,stim,false,1,556.3999999761581,1,1,0,62338,task1,1443698,false,false,1822,image-keyboard-response,7
true,14,2,0,2,true,d,false,true,0.0-2.0-0.60-0.542-3.542,1,1,1,68,false,stim,false,2,689.2999999523163,1,1,1,62338,task1,1445913,false,false,1825,image-keyboard-response,8
true,14,0,0,0,true,q,false,true,0.0-2.0-0.60-0.543-3.543,1,1,1,81,false,stim,false,0,426.90000009536743,1,0,2,62338,task1,1447874,false,false,1828,image-keyboard-response,9
true,14,2,0,2,true,d,false,true,0.0-2.0-0.60-0.544-3.544,1,1,1,68,false,stim,false,2,708.0999999046326,1,0,1,62338,task1,1450113,false,false,1831,image-keyboard-response,10
true,14,1,0,1,true,z,false,true,0.0-2.0-0.60-0.545-3.545,1,1,1,90,false,stim,false,1,1292.8999999761581,1,0,0,62338,task1,1452918,false,false,1834,image-keyboard-response,11
true,14,0,0,0,true,q,false,false,0.0-2.0-0.60-0.546-3.546,1,1,1,81,false,stim,false,0,551.2000000476837,1,0,2,62338,task1,1455005,false,true,1837,image-keyboard-response,12
true,14,0,0,0,true,q,false,true,0.0-2.0-0.60-0.547-3.547,1,1,1,81,false,stim,false,0,512.7999999523163,1,0,2,62338,task1,1457043,false,false,1840,image-keyboard-response,13
true,15,2,2,0,false,q,false,false,0.0-2.0-0.60-0.548-3.548,0,0,0,68,true,stim,true,2,591.2000000476837,1,0,1,62338,task1,1459165,false,false,1843,image-keyboard-response,1
true,15,0,2,1,false,z,false,false,0.0-2.0-0.61-0.549-3.549,0,0,0,81,false,stim,true,0,756.5999999046326,1,0,2,62338,task1,1461432,false,false,1846,image-keyboard-response,2
true,15,1,2,2,false,d,false,false,0.0-2.0-0.61-0.550-3.550,0,0,0,90,false,stim,true,1,573.7999999523163,1,0,0,62338,task1,1463515,false,false,1849,image-keyboard-response,3
true,15,0,2,1,false,z,false,false,0.0-2.0-0.61-0.551-3.551,0,0,0,81,false,stim,true,0,1172.6999999284744,1,0,2,62338,task1,1466199,false,false,1852,image-keyboard-response,4
true,15,1,2,1,true,z,false,true,0.0-2.0-0.61-0.552-3.552,0,0,0,90,false,stim,false,0,739.4000000953674,1,0,2,62338,task1,1468446,false,false,1855,image-keyboard-response,5
true,15,1,2,2,false,d,false,false,0.0-2.0-0.61-0.553-3.553,0,0,0,90,false,stim,true,1,678.3999999761581,1,0,0,62338,task1,1470645,false,false,1858,image-keyboard-response,6
true,15,2,2,0,false,q,false,false,0.0-2.0-0.61-0.554-3.554,0,0,0,68,false,stim,true,2,927.5,1,0,1,62338,task1,1473090,false,false,1861,image-keyboard-response,7
true,15,0,2,2,false,d,true,false,0.0-2.0-0.61-0.555-3.555,0,0,0,81,false,stim,false,1,499.8000000715256,1,0,0,62338,task1,1475123,false,false,1864,image-keyboard-response,8
true,15,0,2,0,true,q,false,true,0.0-2.0-0.61-0.556-3.556,0,0,0,81,false,stim,false,2,881.2999999523163,1,0,1,62338,task1,1477521,false,false,1867,image-keyboard-response,9
true,15,0,2,0,true,q,false,true,0.0-2.0-0.61-0.557-3.557,0,0,0,81,false,stim,false,2,484.0,1,0,1,62338,task1,1479525,false,false,1870,image-keyboard-response,10
true,15,2,2,2,true,d,false,true,0.0-2.0-0.62-0.558-3.558,0,0,0,68,false,stim,false,1,732.7999999523163,1,0,0,62338,task1,1481782,false,false,1873,image-keyboard-response,11
true,15,0,2,0,true,q,false,true,0.0-2.0-0.62-0.559-3.559,0,0,0,81,false,stim,false,2,1048.6000000238419,1,0,1,62338,task1,1484363,false,false,1876,image-keyboard-response,12
true,15,1,2,1,true,z,false,false,0.0-2.0-0.62-0.560-3.560,0,0,0,90,false,stim,false,0,439.7999999523163,1,0,2,62338,task1,1486312,false,true,1879,image-keyboard-response,13
true,15,1,2,1,true,z,false,true,0.0-2.0-0.62-0.561-3.561,0,0,0,90,false,stim,false,0,476.7000000476837,1,0,2,62338,task1,1488307,false,false,1882,image-keyboard-response,14
true,15,0,2,2,false,d,true,false,0.0-2.0-0.62-0.562-3.562,0,0,0,81,false,stim,false,1,663.9000000953674,1,0,0,62338,task1,1490495,false,false,1885,image-keyboard-response,15
true,15,0,2,0,true,q,false,true,0.0-2.0-0.62-0.563-3.563,0,0,0,81,false,stim,false,2,547.0,1,0,1,62338,task1,1492566,false,false,1888,image-keyboard-response,16
true,15,2,2,2,true,d,false,false,0.0-2.0-0.62-0.564-3.564,0,0,0,68,false,stim,false,1,357.7999999523163,1,0,0,62338,task1,1494454,false,true,1891,image-keyboard-response,17
true,15,0,2,0,true,q,false,true,0.0-2.0-0.62-0.565-3.565,0,0,0,81,false,stim,false,2,842.3999999761581,1,0,1,62338,task1,1496813,false,false,1894,image-keyboard-response,18
true,15,1,2,1,true,z,false,false,0.0-2.0-0.62-0.566-3.566,0,0,0,90,false,stim,false,0,657.1999999284744,1,0,2,62338,task1,1499002,false,true,1897,image-keyboard-response,19
true,15,1,2,1,true,z,false,true,0.0-2.0-0.63-0.567-3.567,0,0,0,90,false,stim,false,0,819.5,1,0,2,62338,task1,1501353,false,false,1900,image-keyboard-response,20
true,15,1,2,1,true,z,false,false,0.0-2.0-0.63-0.568-3.568,0,0,0,90,false,stim,false,0,464.10000002384186,1,0,2,62338,task1,1503355,false,true,1903,image-keyboard-response,21
true,15,2,2,2,true,d,false,false,0.0-2.0-0.63-0.569-3.569,0,0,0,68,false,stim,false,1,882.6000000238419,1,0,0,62338,task1,1505773,false,true,1906,image-keyboard-response,22
true,15,0,2,0,true,q,false,true,0.0-2.0-0.63-0.570-3.570,0,0,0,81,false,stim,false,2,689.6000000238419,1,0,1,62338,task1,1507989,false,false,1909,image-keyboard-response,23
true,15,1,2,2,false,d,false,false,0.0-2.0-0.63-0.571-3.571,0,0,0,90,false,stim,true,1,917.2999999523163,1,0,0,62338,task1,1510428,false,false,1912,image-keyboard-response,24
true,15,2,2,2,true,d,false,true,0.0-2.0-0.63-0.572-3.572,0,0,0,68,false,stim,false,1,510.5,1,0,0,62338,task1,1512451,false,false,1915,image-keyboard-response,25
true,15,0,2,0,true,q,false,true,0.0-2.0-0.63-0.573-3.573,0,0,0,81,false,stim,false,2,674.3999999761581,1,0,1,62338,task1,1514648,false,false,1918,image-keyboard-response,26
true,15,0,2,0,true,q,false,true,0.0-2.0-0.63-0.574-3.574,0,0,0,81,false,stim,false,2,641.3000000715256,1,0,1,62338,task1,1516811,false,false,1921,image-keyboard-response,27
true,15,0,2,1,false,z,false,false,0.0-2.0-0.63-0.575-3.575,0,0,0,81,false,stim,true,0,960.2999999523163,1,0,2,62338,task1,1519293,false,false,1924,image-keyboard-response,28
true,15,2,2,2,true,d,false,true,0.0-2.0-0.64-0.576-3.576,0,0,0,68,false,stim,false,1,1093.6000000238419,1,0,0,62338,task1,1521909,false,false,1927,image-keyboard-response,29
true,15,2,2,2,true,d,false,true,0.0-2.0-0.64-0.577-3.577,0,0,0,68,false,stim,false,1,746.7999999523163,1,0,0,62338,task1,1524189,false,false,1930,image-keyboard-response,30
true,15,0,2,1,false,z,false,false,0.0-2.0-0.64-0.578-3.578,0,0,0,81,false,stim,true,0,1300.6000000238419,1,0,2,62338,task1,1527001,false,false,1933,image-keyboard-response,31
true,15,0,2,0,true,q,false,true,0.0-2.0-0.64-0.579-3.579,0,0,0,81,false,stim,false,2,1254.8999999761581,1,0,1,62338,task1,1529781,false,false,1936,image-keyboard-response,32
true,15,0,2,0,true,q,false,true,0.0-2.0-0.64-0.580-3.580,0,0,0,81,false,stim,false,2,475.7000000476837,1,0,1,62338,task1,1531784,false,false,1939,image-keyboard-response,33
true,15,0,2,0,true,q,false,true,0.0-2.0-0.64-0.581-3.581,0,0,0,81,false,stim,false,2,359.10000002384186,1,0,1,62338,task1,1533674,false,false,1942,image-keyboard-response,34
true,15,2,2,2,true,d,false,true,0.0-2.0-0.64-0.582-3.582,0,0,0,68,false,stim,false,1,999.0,1,0,0,62338,task1,1536196,false,false,1945,image-keyboard-response,35
true,15,2,2,1,false,z,true,false,0.0-2.0-0.64-0.583-3.583,0,0,0,68,false,stim,false,0,974.1000000238419,1,0,2,62338,task1,1538693,false,false,1948,image-keyboard-response,36
true,15,1,2,1,true,z,false,true,0.0-2.0-0.64-0.584-3.584,0,0,0,90,false,stim,false,0,655.6000000238419,1,0,2,62338,task1,1540873,false,false,1951,image-keyboard-response,37
true,15,2,2,2,true,d,false,true,0.0-2.0-0.65-0.585-3.585,0,0,0,68,false,stim,false,1,885.0,1,0,0,62338,task1,1543288,false,false,1954,image-keyboard-response,38
true,15,0,2,0,true,q,false,true,0.0-2.0-0.65-0.586-3.586,0,0,0,81,false,stim,false,2,535.1000000238419,1,0,1,62338,task1,1545347,false,false,1957,image-keyboard-response,39
true,16,2,2,1,false,z,false,false,0.0-2.0-0.65-0.587-3.587,0,0,0,68,true,stim,true,2,864.7000000476837,1,0,0,62338,task1,1547723,false,false,1960,image-keyboard-response,1
true,16,1,2,0,false,q,false,false,0.0-2.0-0.65-0.588-3.588,0,0,0,90,false,stim,true,1,560.8999999761581,1,0,2,62338,task1,1549802,false,false,1963,image-keyboard-response,2
true,16,1,2,0,false,q,false,false,0.0-2.0-0.65-0.589-3.589,0,0,0,90,false,stim,true,1,597.0,1,0,2,62338,task1,1551909,false,false,1966,image-keyboard-response,3
true,16,0,2,2,false,d,false,true,0.0-2.0-0.65-0.590-3.590,0,0,0,81,false,stim,true,0,596.5,1,0,1,62338,task1,1554019,false,true,1969,image-keyboard-response,4
