answered,blockNum,choice,condition,corResp,correct,correct_response,explo,fb,internal_node_id,isStable_1,isStable_2,isStable_3,key_press,newBlock,part,persev,persevResp,rt,sessNum,stableAS,stimulus,subject,task,time_elapsed,training,trap,trial_index,trial_type,trialsInBlock
true,1,2,0,2,true,d,false,true,0.0-2.0-0.0-0.0-3.0,0,0,0,68,true,stim,false,-1,913.2000000476837,1,0,0,63598,task1,559741,false,false,145,image-keyboard-response,1
true,1,1,0,0,false,q,true,false,0.0-2.0-0.0-0.1-3.1,0,0,0,90,false,stim,false,-1,636.3999999761581,1,0,2,63598,task1,561901,false,false,148,image-keyboard-response,2
true,1,1,0,0,false,q,true,false,0.0-2.0-0.0-0.2-3.2,0,0,0,90,false,stim,false,-1,1178.6000000238419,1,0,1,63598,task1,564599,false,false,151,image-keyboard-response,3
true,1,2,0,2,true,d,false,false,0.0-2.0-0.0-0.3-3.3,0,0,0,68,false,stim,false,-1,569.3999999761581,1,0,0,63598,task1,566697,false,true,154,image-keyboard-response,4
true,1,0,0,0,true,q,false,true,0.0-2.0-0.0-0.4-3.4,0,0,0,81,false,stim,false,-1,977.0999999046326,1,0,1,63598,task1,569199,false,false,157,image-keyboard-response,5
true,1,2,0,0,false,q,true,false,0.0-2.0-0.0-0.5-3.5,0,0,0,68,false,stim,false,-1,1093.6000000238419,1,0,2,63598,task1,571806,false,false,160,image-keyboard-response,6
true,1,0,0,0,true,q,false,true,0.0-2.0-0.0-0.6-3.6,0,0,0,81,false,stim,false,-1,620.7999999523163,1,0,1,63598,task1,573959,false,false,163,image-keyboard-response,7
true,1,1,0,2,false,d,true,false,0.0-2.0-0.0-0.7-3.7,0,0,0,90,false,stim,false,-1,1015.1000000238419,1,0,0,63598,task1,576494,false,false,166,image-keyboard-response,8
true,1,1,0,0,false,q,true,false,0.0-2.0-0.0-0.8-3.8,0,0,0,90,false,stim,false,-1,896.3999999761581,1,0,2,63598,task1,578908,false,false,169,image-keyboard-response,9
true,1,0,0,0,true,q,false,true,0.0-2.0-0.1-0.9-3.9,0,0,0,81,false,stim,false,-1,698.6000000238419,1,0,2,63598,task1,581135,false,false,172,image-keyboard-response,10
true,1,0,0,0,true,q,false,true,0.0-2.0-0.1-0.10-3.10,0,0,0,81,false,stim,false,-1,505.89999997615814,1,0,2,63598,task1,583151,false,false,175,image-keyboard-response,11
true,1,0,0,0,true,q,false,true,0.0-2.0-0.1-0.11-3.11,0,0,0,81,false,stim,false,-1,733.8000000715256,1,0,2,63598,task1,585395,false,false,178,image-keyboard-response,12
true,1,2,0,2,true,d,false,true,0.0-2.0-0.1-0.12-3.12,0,0,0,68,false,stim,false,-1,1114.6999999284744,1,0,0,63598,task1,588025,false,false,181,image-keyboard-response,13
true,1,0,0,0,true,q,false,true,0.0-2.0-0.1-0.13-3.13,0,0,0,81,false,stim,false,-1,686.8999999761581,1,0,1,63598,task1,590223,false,false,184,image-keyboard-response,14
true,1,0,0,0,true,q,false,true,0.0-2.0-0.1-0.14-3.14,0,0,0,81,false,stim,false,-1,340.60000002384186,1,0,1,63598,task1,592083,false,false,187,image-keyboard-response,15
true,1,0,0,0,true,q,false,true,0.0-2.0-0.1-0.15-3.15,0,0,0,81,false,stim,false,-1,379.60000002384186,1,0,1,63598,task1,593989,false,false,190,image-keyboard-response,16
true,1,2,0,2,true,d,false,true,0.0-2.0-0.1-0.16-3.16,0,0,0,68,false,stim,false,-1,664.7000000476837,1,0,0,63598,task1,596173,false,false,193,image-keyboard-response,17
true,1,2,0,2,true,d,false,false,0.0-2.0-0.1-0.17-3.17,0,0,0,68,false,stim,false,-1,580.0,1,0,0,63598,task1,598278,false,true,196,image-keyboard-response,18
true,1,1,0,2,false,d,true,false,0.0-2.0-0.2-0.18-3.18,0,0,0,90,false,stim,false,-1,717.6000000238419,1,0,0,63598,task1,600527,false,false,199,image-keyboard-response,19
true,1,0,0,2,false,d,true,false,0.0-2.0-0.2-0.19-3.19,0,0,0,81,false,stim,false,-1,576.2999999523163,1,0,0,63598,task1,602622,false,false,202,image-keyboard-response,20
true,1,0,0,0,true,q,false,true,0.0-2.0-0.2-0.20-3.20,0,0,0,81,false,stim,false,-1,630.2000000476837,1,0,1,63598,task1,604774,false,false,205,image-keyboard-response,21
true,1,0,0,0,true,q,false,true,0.0-2.0-0.2-0.21-3.21,0,0,0,81,false,stim,false,-1,388.40000009536743,1,0,2,63598,task1,606682,false,false,208,image-keyboard-response,22
true,1,0,0,0,true,q,false,true,0.0-2.0-0.2-0.22-3.22,0,0,0,81,false,stim,false,-1,462.89999997615814,1,0,2,63598,task1,608657,false,false,211,image-keyboard-response,23
true,1,2,0,2,true,d,false,true,0.0-2.0-0.2-0.23-3.23,0,0,0,68,false,stim,false,-1,1228.5,1,0,0,63598,task1,611390,false,false,214,image-keyboard-response,24
true,1,0,0,0,true,q,false,true,0.0-2.0-0.2-0.24-3.24,0,0,0,81,false,stim,false,-1,508.5,1,0,1,63598,task1,613422,false,false,217,image-keyboard-response,25
true,1,0,0,0,true,q,false,true,0.0-2.0-0.2-0.25-3.25,0,0,0,81,false,stim,false,-1,1026.2000000476837,1,0,2,63598,task1,615973,false,false,220,image-keyboard-response,26
true,2,0,1,2,false,d,false,false,0.0-2.0-0.2-0.26-3.26,0,0,0,81,true,stim,true,0,528.2000000476837,1,0,1,63598,task1,618022,false,false,223,image-keyboard-response,1
true,2,2,1,0,false,q,false,false,0.0-2.0-0.3-0.27-3.27,0,0,0,68,false,stim,true,2,547.6000000238419,1,0,0,63598,task1,620104,false,false,226,image-keyboard-response,2
true,2,1,1,2,false,d,true,true,0.0-2.0-0.3-0.28-3.28,0,0,0,90,false,stim,false,0,812.8999999761581,1,0,1,63598,task1,622423,false,true,229,image-keyboard-response,3
true,2,1,1,2,false,d,true,false,0.0-2.0-0.3-0.29-3.29,0,0,0,90,false,stim,false,0,1227.0,1,0,1,63598,task1,625181,false,false,232,image-keyboard-response,4
true,2,2,1,0,false,q,false,false,0.0-2.0-0.3-0.30-3.30,0,0,0,68,false,stim,true,2,1061.7999999523163,1,0,0,63598,task1,627754,false,false,235,image-keyboard-response,5
true,2,0,1,2,false,d,false,false,0.0-2.0-0.3-0.31-3.31,0,0,0,81,false,stim,true,0,1010.1000000238419,1,0,1,63598,task1,630278,false,false,238,image-keyboard-response,6
true,2,0,1,1,false,z,false,false,0.0-2.0-0.3-0.32-3.32,0,0,0,81,false,stim,true,0,1236.2000000476837,1,0,2,63598,task1,633043,false,false,241,image-keyboard-response,7
true,2,2,1,0,false,q,false,false,0.0-2.0-0.3-0.33-3.33,0,0,0,68,false,stim,true,2,889.5999999046326,1,0,0,63598,task1,635449,false,false,244,image-keyboard-response,8
true,2,2,1,1,false,z,true,false,0.0-2.0-0.3-0.34-3.34,0,0,0,68,false,stim,false,0,553.8999999761581,1,0,2,63598,task1,637534,false,false,247,image-keyboard-response,9
true,2,1,1,1,true,z,false,false,0.0-2.0-0.3-0.35-3.35,0,0,0,90,false,stim,false,0,592.7999999523163,1,0,2,63598,task1,639653,false,true,250,image-keyboard-response,10
true,2,2,1,2,true,d,false,false,0.0-2.0-0.4-0.36-3.36,0,0,0,68,false,stim,false,0,824.6999999284744,1,0,1,63598,task1,641996,false,true,253,image-keyboard-response,11
true,2,0,1,1,false,z,false,false,0.0-2.0-0.4-0.37-3.37,0,0,0,81,false,stim,true,0,680.1000000238419,1,0,2,63598,task1,644210,false,false,256,image-keyboard-response,12
true,2,1,1,1,true,z,false,true,0.0-2.0-0.4-0.38-3.38,0,0,0,90,false,stim,false,0,586.3999999761581,1,0,2,63598,task1,646310,false,false,259,image-keyboard-response,13
true,2,2,1,0,false,q,false,false,0.0-2.0-0.4-0.39-3.39,0,0,0,68,false,stim,true,2,901.6000000238419,1,0,0,63598,task1,648727,false,false,262,image-keyboard-response,14
true,2,1,1,1,true,z,false,true,0.0-2.0-0.4-0.40-3.40,0,0,0,90,false,stim,false,0,772.6000000238419,1,0,2,63598,task1,651030,false,false,265,image-keyboard-response,15
true,2,0,1,0,true,q,false,true,0.0-2.0-0.4-0.41-3.41,0,0,0,81,false,stim,false,2,668.9000000953674,1,0,0,63598,task1,653226,false,false,268,image-keyboard-response,16
true,2,0,1,0,true,q,false,true,0.0-2.0-0.4-0.42-3.42,0,0,0,81,false,stim,false,2,407.6999999284744,1,0,0,63598,task1,655148,false,false,271,image-keyboard-response,17
true,2,2,1,2,true,d,false,true,0.0-2.0-0.4-0.43-3.43,0,0,0,68,false,stim,false,0,787.3999999761581,1,0,1,63598,task1,657454,false,false,274,image-keyboard-response,18
true,2,2,1,2,true,d,false,true,0.0-2.0-0.4-0.44-3.44,0,0,0,68,false,stim,false,0,375.40000009536743,1,0,1,63598,task1,659349,false,false,277,image-keyboard-response,19
true,2,0,1,0,true,q,false,true,0.0-2.0-0.5-0.45-3.45,0,0,0,81,false,stim,false,2,634.0,1,0,0,63598,task1,661508,false,false,280,image-keyboard-response,20
true,2,0,1,0,true,q,false,true,0.0-2.0-0.5-0.46-3.46,0,0,0,81,false,stim,false,2,572.7999999523163,1,0,0,63598,task1,663596,false,false,283,image-keyboard-response,21
true,2,2,1,2,true,d,false,true,0.0-2.0-0.5-0.47-3.47,0,0,0,68,false,stim,false,0,741.0,1,0,1,63598,task1,665864,false,false,286,image-keyboard-response,22
true,2,0,1,0,true,q,false,true,0.0-2.0-0.5-0.48-3.48,0,0,0,81,false,stim,false,2,630.2999999523163,1,0,0,63598,task1,668024,false,false,289,image-keyboard-response,23
true,2,1,1,1,true,z,false,true,0.0-2.0-0.5-0.49-3.49,0,0,0,90,false,stim,false,0,415.2000000476837,1,0,2,63598,task1,669965,false,false,292,image-keyboard-response,24
true,2,1,1,1,true,z,false,true,0.0-2.0-0.5-0.50-3.50,0,0,0,90,false,stim,false,0,484.60000002384186,1,0,2,63598,task1,671974,false,false,295,image-keyboard-response,25
true,2,2,1,2,true,d,false,true,0.0-2.0-0.5-0.51-3.51,0,0,0,68,false,stim,false,0,541.1000000238419,1,0,1,63598,task1,674047,false,false,298,image-keyboard-response,26
true,2,1,1,1,true,z,false,true,0.0-2.0-0.5-0.52-3.52,0,0,0,90,false,stim,false,0,514.0,1,0,2,63598,task1,676085,false,false,301,image-keyboard-response,27
true,2,2,1,2,true,d,false,true,0.0-2.0-0.5-0.53-3.53,0,0,0,68,false,stim,false,0,568.7999999523163,1,0,1,63598,task1,678187,false,false,304,image-keyboard-response,28
true,2,0,1,0,true,q,false,true,0.0-2.0-0.6-0.54-3.54,0,0,0,81,false,stim,false,2,752.7000000476837,1,0,0,63598,task1,680467,false,false,307,image-keyboard-response,29
true,2,2,1,2,true,d,false,true,0.0-2.0-0.6-0.55-3.55,0,0,0,68,false,stim,false,0,530.7000000476837,1,0,1,63598,task1,682520,false,false,310,image-keyboard-response,30
true,2,1,1,1,true,z,false,true,0.0-2.0-0.6-0.56-3.56,0,0,0,90,false,stim,false,0,547.6000000238419,1,0,2,63598,task1,684588,false,false,313,image-keyboard-response,31
true,2,1,1,1,true,z,false,true,0.0-2.0-0.6-0.57-3.57,0,0,0,90,false,stim,false,0,540.6000000238419,1,0,2,63598,task1,686646,false,false,316,image-keyboard-response,32
true,2,0,1,0,true,q,false,true,0.0-2.0-0.6-0.58-3.58,0,0,0,81,false,stim,false,2,448.5,1,0,0,63598,task1,688621,false,false,319,image-keyboard-response,33
true,2,1,1,1,true,z,false,true,0.0-2.0-0.6-0.59-3.59,0,0,0,90,false,stim,false,0,546.9000000953674,1,0,2,63598,task1,690687,false,false,322,image-keyboard-response,34
true,2,2,1,2,true,d,false,true,0.0-2.0-0.6-0.60-3.60,0,0,0,68,false,stim,false,0,596.1999999284744,1,0,1,63598,task1,692802,false,false,325,image-keyboard-response,35
true,2,2,1,2,true,d,false,true,0.0-2.0-0.6-0.61-3.61,0,0,0,68,false,stim,false,0,658.3999999761581,1,0,1,63598,task1,694965,false,false,328,image-keyboard-response,36
true,2,0,1,0,true,q,false,true,0.0-2.0-0.6-0.62-3.62,0,0,0,81,false,stim,false,2,522.6000000238419,1,0,0,63598,task1,697013,false,false,331,image-keyboard-response,37
true,2,0,1,0,true,q,false,true,0.0-2.0-0.7-0.63-3.63,0,0,0,81,false,stim,false,2,394.60000002384186,1,0,0,63598,task1,698923,false,false,334,image-keyboard-response,38
true,2,2,1,2,true,d,false,true,0.0-2.0-0.7-0.64-3.64,0,0,0,68,false,stim,false,0,567.5,1,0,1,63598,task1,701009,false,false,337,image-keyboard-response,39
true,2,1,1,1,true,z,false,false,0.0-2.0-0.7-0.65-3.65,0,0,0,90,false,stim,false,0,584.1000000238419,1,0,2,63598,task1,703107,false,true,340,image-keyboard-response,40
true,3,0,1,2,false,d,false,true,0.0-2.0-0.7-0.66-3.66,0,0,0,81,true,stim,true,0,680.3999999761581,1,0,0,63598,task1,705320,false,true,343,image-keyboard-response,1
true,3,0,1,0,true,q,false,true,0.0-2.0-0.7-0.67-3.67,0,0,0,81,false,stim,false,1,507.39999997615814,1,0,2,63598,task1,707353,false,false,346,image-keyboard-response,2
true,3,0,1,0,true,q,false,true,0.0-2.0-0.7-0.68-3.68,0,0,0,81,false,stim,false,1,390.7000000476837,1,0,2,63598,task1,709269,false,false,349,image-keyboard-response,3
true,3,2,1,1,false,z,false,false,0.0-2.0-0.7-0.69-3.69,0,0,0,68,false,stim,true,2,558.3999999761581,1,0,1,63598,task1,711350,false,false,352,image-keyboard-response,4
true,3,1,1,1,true,z,false,false,0.0-2.0-0.7-0.70-3.70,0,0,0,90,false,stim,false,2,910.5,1,0,1,63598,task1,713792,false,true,355,image-keyboard-response,5
true,3,0,1,2,false,d,false,false,0.0-2.0-0.7-0.71-3.71,0,0,0,81,false,stim,true,0,801.2000000476837,1,0,0,63598,task1,716126,false,false,358,image-keyboard-response,6
true,3,2,1,2,true,d,false,true,0.0-2.0-0.8-0.72-3.72,0,0,0,68,false,stim,false,0,566.6000000238419,1,0,0,63598,task1,718203,false,false,361,image-keyboard-response,7
true,3,0,1,0,true,q,false,true,0.0-2.0-0.8-0.73-3.73,0,0,0,81,false,stim,false,1,396.2000000476837,1,0,2,63598,task1,720119,false,false,364,image-keyboard-response,8
true,3,1,1,1,true,z,false,true,0.0-2.0-0.8-0.74-3.74,0,0,0,90,false,stim,false,2,543.6999999284744,1,0,1,63598,task1,722169,false,false,367,image-keyboard-response,9
true,3,2,1,2,true,d,false,false,0.0-2.0-0.8-0.75-3.75,0,0,0,68,false,stim,false,0,482.6999999284744,1,0,0,63598,task1,724187,false,true,370,image-keyboard-response,10
true,3,1,1,1,true,z,false,true,0.0-2.0-0.8-0.76-3.76,0,0,0,90,false,stim,false,2,363.60000002384186,1,0,1,63598,task1,726069,false,false,373,image-keyboard-response,11
true,3,0,1,0,true,q,false,true,0.0-2.0-0.8-0.77-3.77,0,0,0,81,false,stim,false,1,488.6999999284744,1,0,2,63598,task1,728077,false,false,376,image-keyboard-response,12
true,3,0,1,0,true,q,false,true,0.0-2.0-0.8-0.78-3.78,0,0,0,81,false,stim,false,1,902.1999999284744,1,0,2,63598,task1,730493,false,false,379,image-keyboard-response,13
true,3,1,1,1,true,z,false,true,0.0-2.0-0.8-0.79-3.79,0,0,0,90,false,stim,false,2,656.8999999761581,1,0,1,63598,task1,732663,false,false,382,image-keyboard-response,14
true,3,0,1,2,false,d,false,false,0.0-2.0-0.8-0.80-3.80,0,0,0,81,false,stim,true,0,1023.0,1,0,0,63598,task1,735203,false,false,385,image-keyboard-response,15
true,3,0,1,0,true,q,false,true,0.0-2.0-0.9-0.81-3.81,0,0,0,81,false,stim,false,1,1108.5,1,0,2,63598,task1,737830,false,false,388,image-keyboard-response,16
true,3,1,1,1,true,z,false,true,0.0-2.0-0.9-0.82-3.82,0,0,0,90,false,stim,false,2,420.7000000476837,1,0,1,63598,task1,739778,false,false,391,image-keyboard-response,17
true,3,1,1,1,true,z,false,true,0.0-2.0-0.9-0.83-3.83,0,0,0,90,false,stim,false,2,616.7999999523163,1,0,1,63598,task1,741913,false,false,394,image-keyboard-response,18
true,3,1,1,2,false,d,true,false,0.0-2.0-0.9-0.84-3.84,0,0,0,90,false,stim,false,0,350.60000002384186,1,0,0,63598,task1,743788,false,false,397,image-keyboard-response,19
true,3,2,1,2,true,d,false,true,0.0-2.0-0.9-0.85-3.85,0,0,0,68,false,stim,false,0,465.2999999523163,1,0,0,63598,task1,745781,false,false,400,image-keyboard-response,20
true,3,2,1,2,true,d,false,true,0.0-2.0-0.9-0.86-3.86,0,0,0,68,false,stim,false,0,346.5,1,0,0,63598,task1,747653,false,false,403,image-keyboard-response,21
true,3,1,1,0,false,q,false,false,0.0-2.0-0.9-0.87-3.87,0,0,0,90,false,stim,true,1,419.2999999523163,1,0,2,63598,task1,749591,false,false,406,image-keyboard-response,22
true,3,1,1,1,true,z,false,true,0.0-2.0-0.9-0.88-3.88,0,0,0,90,false,stim,false,2,417.2999999523163,1,0,1,63598,task1,751523,false,false,409,image-keyboard-response,23
true,3,0,1,0,true,q,false,true,0.0-2.0-0.9-0.89-3.89,0,0,0,81,false,stim,false,1,554.7999999523163,1,0,2,63598,task1,753610,false,false,412,image-keyboard-response,24
true,3,2,1,2,true,d,false,true,0.0-2.0-0.10-0.90-3.90,0,0,0,68,false,stim,false,0,538.3999999761581,1,0,0,63598,task1,755661,false,false,415,image-keyboard-response,25
true,3,2,1,2,true,d,false,true,0.0-2.0-0.10-0.91-3.91,0,0,0,68,false,stim,false,0,508.3000000715256,1,0,0,63598,task1,757680,false,false,418,image-keyboard-response,26
true,3,0,1,0,true,q,false,true,0.0-2.0-0.10-0.92-3.92,0,0,0,81,false,stim,false,1,561.3000000715256,1,0,2,63598,task1,759751,false,false,421,image-keyboard-response,27
true,3,0,1,0,true,q,false,true,0.0-2.0-0.10-0.93-3.93,0,0,0,81,false,stim,false,1,465.5,1,0,2,63598,task1,761738,false,false,424,image-keyboard-response,28
true,3,2,1,2,true,d,false,true,0.0-2.0-0.10-0.94-3.94,0,0,0,68,false,stim,false,0,577.0,1,0,0,63598,task1,763833,false,false,427,image-keyboard-response,29
true,3,0,1,0,true,q,false,true,0.0-2.0-0.10-0.95-3.95,0,0,0,81,false,stim,false,1,605.4000000953674,1,0,2,63598,task1,765959,false,false,430,image-keyboard-response,30
true,3,1,1,1,true,z,false,true,0.0-2.0-0.10-0.96-3.96,0,0,0,90,false,stim,false,2,730.5,1,0,1,63598,task1,768227,false,false,433,image-keyboard-response,31
true,3,1,1,1,true,z,false,true,0.0-2.0-0.10-0.97-3.97,0,0,0,90,false,stim,false,2,532.4000000953674,1,0,1,63598,task1,770274,false,false,436,image-keyboard-response,32
true,3,1,1,1,true,z,false,true,0.0-2.0-0.10-0.98-3.98,0,0,0,90,false,stim,false,2,496.10000002384186,1,0,1,63598,task1,772288,false,false,439,image-keyboard-response,33
true,3,2,1,2,true,d,false,true,0.0-2.0-0.11-0.99-3.99,0,0,0,68,false,stim,false,0,424.10000002384186,1,0,0,63598,task1,774233,false,false,442,image-keyboard-response,34
true,3,1,1,1,true,z,false,true,0.0-2.0-0.11-0.100-3.100,0,0,0,90,false,stim,false,2,558.8999999761581,1,0,1,63598,task1,776322,false,false,445,image-keyboard-response,35
true,3,0,1,0,true,q,false,true,0.0-2.0-0.11-0.101-3.101,0,0,0,81,false,stim,false,1,827.5,1,0,2,63598,task1,778671,false,false,448,image-keyboard-response,36
true,3,0,1,0,true,q,false,true,0.0-2.0-0.11-0.102-3.102,0,0,0,81,false,stim,false,1,408.40000009536743,1,0,2,63598,task1,780598,false,false,451,image-keyboard-response,37
true,3,1,1,1,true,z,false,true,0.0-2.0-0.11-0.103-3.103,0,0,0,90,false,stim,false,2,607.8999999761581,1,0,1,63598,task1,782735,false,false,454,image-keyboard-response,38
true,3,0,1,0,true,q,false,false,0.0-2.0-0.11-0.104-3.104,0,0,0,81,false,stim,false,1,586.6000000238419,1,0,2,63598,task1,784842,false,true,457,image-keyboard-response,39
true,3,2,1,2,true,d,false,false,0.0-2.0-0.11-0.105-3.105,0,0,0,68,false,stim,false,0,529.2999999523163,1,0,0,63598,task1,786901,false,true,460,image-keyboard-response,40
true,3,1,1,1,true,z,false,true,0.0-2.0-0.11-0.106-3.106,0,0,0,90,false,stim,false,2,514.3999999761581,1,0,1,63598,task1,788934,false,false,463,image-keyboard-response,41
true,3,1,1,2,false,d,true,false,0.0-2.0-0.11-0.107-3.107,0,0,0,90,false,stim,false,0,440.60000002384186,1,0,0,63598,task1,790896,false,false,466,image-keyboard-response,42
true,4,0,1,1,false,z,true,false,0.0-2.0-0.12-0.108-3.108,0,0,0,81,true,stim,false,2,554.0,1,0,0,63598,task1,792975,false,false,469,image-keyboard-response,1
true,4,2,1,1,false,z,false,false,0.0-2.0-0.12-0.109-3.109,0,0,0,68,false,stim,true,2,549.5,1,0,0,63598,task1,795055,false,false,472,image-keyboard-response,2
true,4,1,1,2,false,d,true,false,0.0-2.0-0.12-0.110-3.110,0,0,0,90,false,stim,false,0,673.3999999761581,1,0,2,63598,task1,797244,false,false,475,image-keyboard-response,3
true,4,1,1,0,false,q,false,false,0.0-2.0-0.12-0.111-3.111,0,0,0,90,false,stim,true,1,602.5,1,0,1,63598,task1,799346,false,false,478,image-keyboard-response,4
true,4,1,1,1,true,z,false,true,0.0-2.0-0.12-0.112-3.112,0,0,0,90,false,stim,false,2,800.3999999761581,1,0,0,63598,task1,801658,false,false,481,image-keyboard-response,5
true,4,2,1,2,true,d,false,true,0.0-2.0-0.12-0.113-3.113,0,0,0,68,false,stim,false,0,623.7000000476837,1,0,2,63598,task1,803805,false,false,484,image-keyboard-response,6
true,4,2,1,2,true,d,false,true,0.0-2.0-0.12-0.114-3.114,0,0,0,68,false,stim,false,0,962.2999999523163,1,0,2,63598,task1,806285,false,false,487,image-keyboard-response,7
true,4,0,1,0,true,q,false,true,0.0-2.0-0.12-0.115-3.115,0,0,0,81,false,stim,false,1,612.0,1,0,1,63598,task1,808420,false,false,490,image-keyboard-response,8
true,4,0,1,0,true,q,false,true,0.0-2.0-0.12-0.116-3.116,0,0,0,81,false,stim,false,1,691.0,1,0,1,63598,task1,810634,false,false,493,image-keyboard-response,9
true,4,0,1,0,true,q,false,false,0.0-2.0-0.13-0.117-3.117,0,0,0,81,false,stim,false,1,748.8999999761581,1,0,1,63598,task1,812907,false,true,496,image-keyboard-response,10
true,4,2,1,2,true,d,false,false,0.0-2.0-0.13-0.118-3.118,0,0,0,68,false,stim,false,0,695.2999999523163,1,0,2,63598,task1,815135,false,true,499,image-keyboard-response,11
true,4,1,1,0,false,q,false,false,0.0-2.0-0.13-0.119-3.119,0,0,0,90,false,stim,true,1,837.0,1,0,1,63598,task1,817495,false,false,502,image-keyboard-response,12
true,4,1,1,1,true,z,false,false,0.0-2.0-0.13-0.120-3.120,0,0,0,90,false,stim,false,2,1197.2000000476837,1,0,0,63598,task1,820206,false,true,505,image-keyboard-response,13
true,4,2,1,1,false,z,false,false,0.0-2.0-0.13-0.121-3.121,0,0,0,68,false,stim,true,2,609.8000000715256,1,0,0,63598,task1,822335,false,false,508,image-keyboard-response,14
true,4,0,1,1,false,z,true,false,0.0-2.0-0.13-0.122-3.122,0,0,0,81,false,stim,false,2,678.5,1,0,0,63598,task1,824541,false,false,511,image-keyboard-response,15
true,4,2,1,2,true,d,false,true,0.0-2.0-0.13-0.123-3.123,0,0,0,68,false,stim,false,0,766.6999999284744,1,0,2,63598,task1,826825,false,false,514,image-keyboard-response,16
true,4,2,1,2,true,d,false,true,0.0-2.0-0.13-0.124-3.124,0,0,0,68,false,stim,false,0,629.1999999284744,1,0,2,63598,task1,828970,false,false,517,image-keyboard-response,17
true,4,2,1,0,false,q,true,false,0.0-2.0-0.13-0.125-3.125,0,0,0,68,false,stim,false,1,744.1000000238419,1,0,1,63598,task1,831240,false,false,520,image-keyboard-response,18
true,4,0,1,1,false,z,true,false,0.0-2.0-0.14-0.126-3.126,0,0,0,81,false,stim,false,2,1229.7000000476837,1,0,0,63598,task1,833993,false,false,523,image-keyboard-response,19
true,4,0,1,0,true,q,false,true,0.0-2.0-0.14-0.127-3.127,0,0,0,81,false,stim,false,1,423.39999997615814,1,0,1,63598,task1,835940,false,false,526,image-keyboard-response,20
true,4,0,1,0,true,q,false,true,0.0-2.0-0.14-0.128-3.128,0,0,0,81,false,stim,false,1,529.2000000476837,1,0,1,63598,task1,837987,false,false,529,image-keyboard-response,21
true,4,2,1,1,false,z,false,false,0.0-2.0-0.14-0.129-3.129,0,0,0,68,false,stim,true,2,609.2999999523163,1,0,0,63598,task1,840117,false,false,532,image-keyboard-response,22
true,4,2,1,2,true,d,false,true,0.0-2.0-0.14-0.130-3.130,0,0,0,68,false,stim,false,0,732.8000000715256,1,0,2,63598,task1,842362,false,false,535,image-keyboard-response,23
true,4,0,1,0,true,q,false,true,0.0-2.0-0.14-0.131-3.131,0,0,0,81,false,stim,false,1,629.1000000238419,1,0,1,63598,task1,844511,false,false,538,image-keyboard-response,24
true,4,2,1,2,true,d,false,true,0.0-2.0-0.14-0.132-3.132,0,0,0,68,false,stim,false,0,608.8999999761581,1,0,2,63598,task1,846633,false,false,541,image-keyboard-response,25
true,4,0,1,1,false,z,true,false,0.0-2.0-0.14-0.133-3.133,0,0,0,81,false,stim,false,2,542.1000000238419,1,0,0,63598,task1,848700,false,false,544,image-keyboard-response,26
true,4,2,1,2,true,d,false,false,0.0-2.0-0.14-0.134-3.134,0,0,0,68,false,stim,false,0,467.10000002384186,1,0,2,63598,task1,850690,false,true,547,image-keyboard-response,27
true,4,0,1,0,true,q,false,true,0.0-2.0-0.15-0.135-3.135,0,0,0,81,false,stim,false,1,885.8000000715256,1,0,1,63598,task1,853110,false,false,550,image-keyboard-response,28
true,4,1,1,1,true,z,false,true,0.0-2.0-0.15-0.136-3.136,0,0,0,90,false,stim,false,2,413.2999999523163,1,0,0,63598,task1,855044,false,false,553,image-keyboard-response,29
true,4,0,1,0,true,q,false,true,0.0-2.0-0.15-0.137-3.137,0,0,0,81,false,stim,false,1,673.5,1,0,1,63598,task1,857230,false,false,556,image-keyboard-response,30
true,4,0,1,2,false,d,false,false,0.0-2.0-0.15-0.138-3.138,0,0,0,81,false,stim,true,0,403.09999990463257,1,0,2,63598,task1,859153,false,false,559,image-keyboard-response,31
true,4,0,1,0,true,q,false,true,0.0-2.0-0.15-0.139-3.139,0,0,0,81,false,stim,false,1,558.5,1,0,1,63598,task1,861251,false,false,562,image-keyboard-response,32
true,4,1,1,1,true,z,false,true,0.0-2.0-0.15-0.140-3.140,0,0,0,90,false,stim,false,2,520.8999999761581,1,0,0,63598,task1,863292,false,false,565,image-keyboard-response,33
true,4,1,1,2,false,d,true,false,0.0-2.0-0.15-0.141-3.141,0,0,0,90,false,stim,false,0,808.2999999523163,1,0,2,63598,task1,865628,false,false,568,image-keyboard-response,34
true,4,2,1,2,true,d,false,false,0.0-2.0-0.15-0.142-3.142,0,0,0,68,false,stim,false,0,655.3000000715256,1,0,2,63598,task1,867806,false,true,571,image-keyboard-response,35
true,4,1,1,1,true,z,false,false,0.0-2.0-0.15-0.143-3.143,0,0,0,90,false,stim,false,2,714.0999999046326,1,0,0,63598,task1,870038,false,true,574,image-keyboard-response,36
true,4,0,1,1,false,z,true,false,0.0-2.0-0.16-0.144-3.144,0,0,0,81,false,stim,false,2,782.1999999284744,1,0,0,63598,task1,872334,false,false,577,image-keyboard-response,37
true,4,2,1,1,false,z,false,false,0.0-2.0-0.16-0.145-3.145,0,0,0,68,false,stim,true,2,621.6999999284744,1,0,0,63598,task1,874481,false,false,580,image-keyboard-response,38
true,4,0,1,0,true,q,false,true,0.0-2.0-0.16-0.146-3.146,0,0,0,81,false,stim,false,1,505.5,1,0,1,63598,task1,876494,false,false,583,image-keyboard-response,39
true,4,0,1,2,false,d,false,false,0.0-2.0-0.16-0.147-3.147,0,0,0,81,false,stim,true,0,651.0,1,0,2,63598,task1,878671,false,false,586,image-keyboard-response,40
true,4,2,1,1,false,z,false,false,0.0-2.0-0.16-0.148-3.148,0,0,0,68,false,stim,true,2,910.0,1,0,0,63598,task1,881104,false,false,589,image-keyboard-response,41
true,4,1,1,2,false,d,true,false,0.0-2.0-0.16-0.149-3.149,0,0,0,90,false,stim,false,0,925.0,1,0,2,63598,task1,883560,false,false,592,image-keyboard-response,42
true,5,2,2,0,false,q,false,false,0.0-2.0-0.16-0.150-3.150,0,0,0,68,true,stim,true,2,748.5999999046326,1,0,2,63598,task1,885834,false,false,595,image-keyboard-response,1
true,5,0,2,1,false,z,false,true,0.0-2.0-0.16-0.151-3.151,0,0,0,81,false,stim,true,0,781.7999999523163,1,0,1,63598,task1,888137,false,true,598,image-keyboard-response,2
true,5,0,2,1,false,z,false,false,0.0-2.0-0.16-0.152-3.152,0,0,0,81,false,stim,true,0,737.6000000238419,1,0,1,63598,task1,890394,false,false,601,image-keyboard-response,3
true,5,0,2,0,true,q,false,true,0.0-2.0-0.17-0.153-3.153,0,0,0,81,false,stim,false,2,588.3000000715256,1,0,2,63598,task1,892507,false,false,604,image-keyboard-response,4
true,5,0,2,0,true,q,false,true,0.0-2.0-0.17-0.154-3.154,0,0,0,81,false,stim,false,2,552.8000000715256,1,0,2,63598,task1,894583,false,false,607,image-keyboard-response,5
true,5,2,2,1,false,z,true,false,0.0-2.0-0.17-0.155-3.155,0,0,0,68,false,stim,false,0,915.7000000476837,1,0,1,63598,task1,897019,false,false,610,image-keyboard-response,6
true,5,1,2,1,true,z,false,true,0.0-2.0-0.17-0.156-3.156,0,0,0,90,false,stim,false,0,580.6000000238419,1,0,1,63598,task1,899132,false,false,613,image-keyboard-response,7
true,5,0,2,0,true,q,false,true,0.0-2.0-0.17-0.157-3.157,0,0,0,81,false,stim,false,2,789.8999999761581,1,0,2,63598,task1,901453,false,false,616,image-keyboard-response,8
true,5,2,2,2,true,d,false,true,0.0-2.0-0.17-0.158-3.158,0,0,0,68,false,stim,false,1,737.6000000238419,1,0,0,63598,task1,903707,false,false,619,image-keyboard-response,9
true,5,2,2,2,true,d,false,true,0.0-2.0-0.17-0.159-3.159,0,0,0,68,false,stim,false,1,584.5,1,0,0,63598,task1,905806,false,false,622,image-keyboard-response,10
true,5,1,2,1,true,z,false,true,0.0-2.0-0.17-0.160-3.160,0,0,0,90,false,stim,false,0,692.0,1,0,1,63598,task1,908012,false,false,625,image-keyboard-response,11
true,5,2,2,2,true,d,false,true,0.0-2.0-0.17-0.161-3.161,0,0,0,68,false,stim,false,1,639.4000000953674,1,0,0,63598,task1,910164,false,false,628,image-keyboard-response,12
true,5,1,2,1,true,z,false,true,0.0-2.0-0.18-0.162-3.162,0,0,0,90,false,stim,false,0,486.90000009536743,1,0,1,63598,task1,912176,false,false,631,image-keyboard-response,13
true,5,2,2,2,true,d,false,true,0.0-2.0-0.18-0.163-3.163,0,0,0,68,false,stim,false,1,672.1000000238419,1,0,0,63598,task1,914364,false,false,634,image-keyboard-response,14
true,5,0,2,0,true,q,false,true,0.0-2.0-0.18-0.164-3.164,0,0,0,81,false,stim,false,2,563.0,1,0,2,63598,task1,916459,false,false,637,image-keyboard-response,15
true,5,2,2,2,true,d,false,true,0.0-2.0-0.18-0.165-3.165,0,0,0,68,false,stim,false,1,541.0999999046326,1,0,0,63598,task1,918533,false,false,640,image-keyboard-response,16
true,5,0,2,0,true,q,false,true,0.0-2.0-0.18-0.166-3.166,0,0,0,81,false,stim,false,2,384.90000009536743,1,0,2,63598,task1,920429,false,false,643,image-keyboard-response,17
true,5,2,2,2,true,d,false,true,0.0-2.0-0.18-0.167-3.167,0,0,0,68,false,stim,false,1,599.4000000953674,1,0,0,63598,task1,922537,false,false,646,image-keyboard-response,18
true,5,0,2,0,true,q,false,false,0.0-2.0-0.18-0.168-3.168,0,0,0,81,false,stim,false,2,495.7000000476837,1,0,2,63598,task1,924543,false,true,649,image-keyboard-response,19
true,5,1,2,1,true,z,false,true,0.0-2.0-0.18-0.169-3.169,0,0,0,90,false,stim,false,0,642.0,1,0,1,63598,task1,926708,false,false,652,image-keyboard-response,20
true,5,1,2,1,true,z,false,true,0.0-2.0-0.18-0.170-3.170,0,0,0,90,false,stim,false,0,674.0,1,0,1,63598,task1,928913,false,false,655,image-keyboard-response,21
true,5,2,2,2,true,d,false,true,0.0-2.0-0.19-0.171-3.171,0,0,0,68,false,stim,false,1,425.39999997615814,1,0,0,63598,task1,930860,false,false,658,image-keyboard-response,22
true,5,1,2,1,true,z,false,true,0.0-2.0-0.19-0.172-3.172,0,0,0,90,false,stim,false,0,569.1000000238419,1,0,1,63598,task1,932943,false,false,661,image-keyboard-response,23
true,5,2,2,0,false,q,false,false,0.0-2.0-0.19-0.173-3.173,0,0,0,68,false,stim,true,2,666.6999999284744,1,0,2,63598,task1,935122,false,false,664,image-keyboard-response,24
true,5,2,2,2,true,d,false,true,0.0-2.0-0.19-0.174-3.174,0,0,0,68,false,stim,false,1,832.1000000238419,1,0,0,63598,task1,937471,false,false,667,image-keyboard-response,25
true,5,1,2,1,true,z,false,true,0.0-2.0-0.19-0.175-3.175,0,0,0,90,false,stim,false,0,433.89999997615814,1,0,1,63598,task1,939431,false,false,670,image-keyboard-response,26
true,5,1,2,0,false,q,true,false,0.0-2.0-0.19-0.176-3.176,0,0,0,90,false,stim,false,2,343.7000000476837,1,0,2,63598,task1,941283,false,false,673,image-keyboard-response,27
true,5,1,2,1,true,z,false,true,0.0-2.0-0.19-0.177-3.177,0,0,0,90,false,stim,false,0,910.2000000476837,1,0,1,63598,task1,943717,false,false,676,image-keyboard-response,28
true,5,2,2,2,true,d,false,false,0.0-2.0-0.19-0.178-3.178,0,0,0,68,false,stim,false,1,355.10000002384186,1,0,0,63598,task1,945593,false,true,679,image-keyboard-response,29
true,5,2,2,0,false,q,false,false,0.0-2.0-0.19-0.179-3.179,0,0,0,68,false,stim,true,2,909.3999999761581,1,0,2,63598,task1,948023,false,false,682,image-keyboard-response,30
true,5,1,2,0,false,q,true,false,0.0-2.0-0.20-0.180-3.180,0,0,0,90,false,stim,false,2,770.1000000238419,1,0,2,63598,task1,950309,false,false,685,image-keyboard-response,31
true,5,0,2,0,true,q,false,false,0.0-2.0-0.20-0.181-3.181,0,0,0,81,false,stim,false,2,563.0,1,0,2,63598,task1,952386,false,true,688,image-keyboard-response,32
true,5,1,2,1,true,z,false,true,0.0-2.0-0.20-0.182-3.182,0,0,0,90,false,stim,false,0,797.3999999761581,1,0,1,63598,task1,954704,false,false,691,image-keyboard-response,33
true,5,1,2,2,false,d,false,false,0.0-2.0-0.20-0.183-3.183,0,0,0,90,false,stim,true,1,950.0,1,0,0,63598,task1,957179,false,false,694,image-keyboard-response,34
true,5,1,2,1,true,z,false,true,0.0-2.0-0.20-0.184-3.184,0,0,0,90,false,stim,false,0,832.1000000238419,1,0,1,63598,task1,959538,false,false,697,image-keyboard-response,35
true,5,0,2,2,false,d,true,false,0.0-2.0-0.20-0.185-3.185,0,0,0,81,false,stim,false,1,919.1000000238419,1,0,0,63598,task1,961973,false,false,700,image-keyboard-response,36
true,5,1,2,1,true,z,false,true,0.0-2.0-0.20-0.186-3.186,0,0,0,90,false,stim,false,0,716.5,1,0,1,63598,task1,964216,false,false,703,image-keyboard-response,37
true,5,2,2,2,true,d,false,false,0.0-2.0-0.20-0.187-3.187,0,0,0,68,false,stim,false,1,503.5,1,0,0,63598,task1,966239,false,true,706,image-keyboard-response,38
true,5,2,2,0,false,q,false,false,0.0-2.0-0.20-0.188-3.188,0,0,0,68,false,stim,true,2,598.2000000476837,1,0,2,63598,task1,968371,false,false,709,image-keyboard-response,39
true,5,1,2,1,true,z,false,true,0.0-2.0-0.21-0.189-3.189,0,0,0,90,false,stim,false,0,417.3000000715256,1,0,1,63598,task1,970306,false,false,712,image-keyboard-response,40
true,5,1,2,0,false,q,true,true,0.0-2.0-0.21-0.190-3.190,0,0,0,90,false,stim,false,2,742.6000000238419,1,0,2,63598,task1,972582,false,true,715,image-keyboard-response,41
true,5,0,2,2,false,d,true,false,0.0-2.0-0.21-0.191-3.191,0,0,0,81,false,stim,false,1,1251.6000000238419,1,0,0,63598,task1,975359,false,false,718,image-keyboard-response,42
true,6,1,2,0,false,q,false,false,0.0-2.0-0.21-0.192-3.192,0,0,0,90,true,stim,true,1,594.1999999284744,1,0,1,63598,task1,977468,false,false,721,image-keyboard-response,1
true,6,1,2,2,false,d,true,false,0.0-2.0-0.21-0.193-3.193,0,0,0,90,false,stim,false,0,410.89999997615814,1,0,2,63598,task1,979395,false,false,724,image-keyboard-response,2
true,6,2,2,0,false,q,true,false,0.0-2.0-0.21-0.194-3.194,0,0,0,68,false,stim,false,1,708.7999999523163,1,0,1,63598,task1,981643,false,false,727,image-keyboard-response,3
true,6,1,2,2,false,d,true,false,0.0-2.0-0.21-0.195-3.195,0,0,0,90,false,stim,false,0,1221.5,1,0,2,63598,task1,984384,false,false,730,image-keyboard-response,4
true,6,1,2,1,true,z,false,true,0.0-2.0-0.21-0.196-3.196,0,0,0,90,false,stim,false,2,418.1999999284744,1,0,0,63598,task1,986336,false,false,733,image-keyboard-response,5
true,6,1,2,1,true,z,false,true,0.0-2.0-0.21-0.197-3.197,0,0,0,90,false,stim,false,2,703.3999999761581,1,0,0,63598,task1,988560,false,false,736,image-keyboard-response,6
true,6,0,2,2,false,d,false,false,0.0-2.0-0.22-0.198-3.198,0,0,0,81,false,stim,true,0,626.0,1,0,2,63598,task1,990711,false,false,739,image-keyboard-response,7
true,6,2,2,2,true,d,false,true,0.0-2.0-0.22-0.199-3.199,0,0,0,68,false,stim,false,0,451.5,1,0,2,63598,task1,992686,false,false,742,image-keyboard-response,8
true,6,2,2,0,false,q,true,false,0.0-2.0-0.22-0.200-3.200,0,0,0,68,false,stim,false,1,1105.0,1,0,1,63598,task1,995322,false,false,745,image-keyboard-response,9
true,6,2,2,2,true,d,false,true,0.0-2.0-0.22-0.201-3.201,0,0,0,68,false,stim,false,0,507.7999999523163,1,0,2,63598,task1,997355,false,false,748,image-keyboard-response,10
true,6,1,2,1,true,z,false,true,0.0-2.0-0.22-0.202-3.202,0,0,0,90,false,stim,false,2,477.40000009536743,1,0,0,63598,task1,999352,false,false,751,image-keyboard-response,11
true,6,1,2,1,true,z,false,true,0.0-2.0-0.22-0.203-3.203,0,0,0,90,false,stim,false,2,487.1999999284744,1,0,0,63598,task1,1001370,false,false,754,image-keyboard-response,12
true,6,0,2,0,true,q,false,true,0.0-2.0-0.22-0.204-3.204,0,0,0,81,false,stim,false,1,535.1000000238419,1,0,1,63598,task1,1003435,false,false,757,image-keyboard-response,13
true,6,0,2,0,true,q,false,false,0.0-2.0-0.22-0.205-3.205,0,0,0,81,false,stim,false,1,471.0,1,0,1,63598,task1,1005434,false,true,760,image-keyboard-response,14
true,6,1,2,1,true,z,false,true,0.0-2.0-0.22-0.206-3.206,0,0,0,90,false,stim,false,2,727.0,1,0,0,63598,task1,1007692,false,false,763,image-keyboard-response,15
true,6,1,2,1,true,z,false,true,0.0-2.0-0.23-0.207-3.207,0,0,0,90,false,stim,false,2,430.6999999284744,1,0,0,63598,task1,1009649,false,false,766,image-keyboard-response,16
true,6,2,2,2,true,d,false,true,0.0-2.0-0.23-0.208-3.208,0,0,0,68,false,stim,false,0,336.8000000715256,1,0,2,63598,task1,1011507,false,false,769,image-keyboard-response,17
true,6,1,2,1,true,z,false,true,0.0-2.0-0.23-0.209-3.209,0,0,0,90,false,stim,false,2,617.1000000238419,1,0,0,63598,task1,1013647,false,false,772,image-keyboard-response,18
true,6,2,2,2,true,d,false,true,0.0-2.0-0.23-0.210-3.210,0,0,0,68,false,stim,false,0,335.2000000476837,1,0,2,63598,task1,1015507,false,false,775,image-keyboard-response,19
true,6,2,2,0,false,q,true,false,0.0-2.0-0.23-0.211-3.211,0,0,0,68,false,stim,false,1,397.60000002384186,1,0,1,63598,task1,1017429,false,false,778,image-keyboard-response,20
true,6,2,2,2,true,d,false,true,0.0-2.0-0.23-0.212-3.212,0,0,0,68,false,stim,false,0,716.0,1,0,2,63598,task1,1019672,false,false,781,image-keyboard-response,21
true,6,1,2,0,false,q,false,false,0.0-2.0-0.23-0.213-3.213,0,0,0,90,false,stim,true,1,922.1000000238419,1,0,1,63598,task1,1022115,false,false,784,image-keyboard-response,22
true,6,1,2,1,true,z,false,true,0.0-2.0-0.23-0.214-3.214,0,0,0,90,false,stim,false,2,386.59999990463257,1,0,0,63598,task1,1024021,false,false,787,image-keyboard-response,23
true,6,0,2,0,true,q,false,true,0.0-2.0-0.23-0.215-3.215,0,0,0,81,false,stim,false,1,468.5,1,0,1,63598,task1,1025995,false,false,790,image-keyboard-response,24
true,6,0,2,0,true,q,false,true,0.0-2.0-0.24-0.216-3.216,0,0,0,81,false,stim,false,1,445.10000002384186,1,0,1,63598,task1,1027962,false,false,793,image-keyboard-response,25
true,6,1,2,1,true,z,false,true,0.0-2.0-0.24-0.217-3.217,0,0,0,90,false,stim,false,2,365.10000002384186,1,0,0,63598,task1,1029850,false,false,796,image-keyboard-response,26
true,6,0,2,0,true,q,false,true,0.0-2.0-0.24-0.218-3.218,0,0,0,81,false,stim,false,1,711.6000000238419,1,0,1,63598,task1,1032083,false,false,799,image-keyboard-response,27
true,6,2,2,2,true,d,false,true,0.0-2.0-0.24-0.219-3.219,0,0,0,68,false,stim,false,0,411.0,1,0,2,63598,task1,1034014,false,false,802,image-keyboard-response,28
true,6,2,2,2,true,d,false,true,0.0-2.0-0.24-0.220-3.220,0,0,0,68,false,stim,false,0,411.7000000476837,1,0,2,63598,task1,1035949,false,false,805,image-keyboard-response,29
true,6,0,2,0,true,q,false,true,0.0-2.0-0.24-0.221-3.221,0,0,0,81,false,stim,false,1,612.8999999761581,1,0,1,63598,task1,1038070,false,false,808,image-keyboard-response,30
true,6,1,2,1,true,z,false,true,0.0-2.0-0.24-0.222-3.222,0,0,0,90,false,stim,false,2,452.89999997615814,1,0,0,63598,task1,1040037,false,false,811,image-keyboard-response,31
true,6,0,2,1,false,z,true,false,0.0-2.0-0.24-0.223-3.223,0,0,0,81,false,stim,false,2,376.39999997615814,1,0,0,63598,task1,1041945,false,false,814,image-keyboard-response,32
true,6,2,2,2,true,d,false,true,0.0-2.0-0.24-0.224-3.224,0,0,0,68,false,stim,false,0,612.1000000238419,1,0,2,63598,task1,1044072,false,false,817,image-keyboard-response,33
true,6,0,2,0,true,q,false,true,0.0-2.0-0.25-0.225-3.225,0,0,0,81,false,stim,false,1,684.6000000238419,1,0,1,63598,task1,1046287,false,false,820,image-keyboard-response,34
true,6,2,2,2,true,d,false,false,0.0-2.0-0.25-0.226-3.226,0,0,0,68,false,stim,false,0,621.2999999523163,1,0,2,63598,task1,1048422,false,true,823,image-keyboard-response,35
true,6,1,2,2,false,d,true,false,0.0-2.0-0.25-0.227-3.227,0,0,0,90,false,stim,false,0,806.5,1,0,2,63598,task1,1050756,false,false,826,image-keyboard-response,36
true,6,1,2,1,true,z,false,true,0.0-2.0-0.25-0.228-3.228,0,0,0,90,false,stim,false,2,590.7000000476837,1,0,0,63598,task1,1052857,false,false,829,image-keyboard-response,37
true,6,0,2,0,true,q,false,true,0.0-2.0-0.25-0.229-3.229,0,0,0,81,false,stim,false,1,550.7000000476837,1,0,1,63598,task1,1054926,false,false,832,image-keyboard-response,38
true,6,1,2,1,true,z,false,false,0.0-2.0-0.25-0.230-3.230,0,0,0,90,false,stim,false,2,575.2000000476837,1,0,0,63598,task1,1057031,false,true,835,image-keyboard-response,39
true,7,1,2,0,false,q,true,false,0.0-2.0-0.25-0.231-3.231,0,0,0,90,true,stim,false,2,981.8999999761581,1,0,2,63598,task1,1059532,false,false,838,image-keyboard-response,1
true,7,0,2,1,false,z,false,false,0.0-2.0-0.25-0.232-3.232,0,0,0,81,false,stim,true,0,550.1000000238419,1,0,1,63598,task1,1061600,false,false,841,image-keyboard-response,2
true,7,0,2,2,false,d,true,true,0.0-2.0-0.25-0.233-3.233,0,0,0,81,false,stim,false,1,393.7999999523163,1,0,0,63598,task1,1063511,false,true,844,image-keyboard-response,3
true,7,1,2,0,false,q,true,false,0.0-2.0-0.26-0.234-3.234,0,0,0,90,false,stim,false,2,971.3999999761581,1,0,2,63598,task1,1066005,false,false,847,image-keyboard-response,4
true,7,0,2,0,true,q,false,true,0.0-2.0-0.26-0.235-3.235,0,0,0,81,false,stim,false,2,518.4000000953674,1,0,2,63598,task1,1068045,false,false,850,image-keyboard-response,5
true,7,2,2,1,false,z,true,false,0.0-2.0-0.26-0.236-3.236,0,0,0,68,false,stim,false,0,474.39999997615814,1,0,1,63598,task1,1070048,false,false,853,image-keyboard-response,6
true,7,0,2,2,false,d,true,false,0.0-2.0-0.26-0.237-3.237,0,0,0,81,false,stim,false,1,375.7999999523163,1,0,0,63598,task1,1071952,false,false,856,image-keyboard-response,7
true,7,2,2,2,true,d,false,false,0.0-2.0-0.26-0.238-3.238,0,0,0,68,false,stim,false,1,647.6000000238419,1,0,0,63598,task1,1074113,false,true,859,image-keyboard-response,8
true,7,0,2,1,false,z,false,false,0.0-2.0-0.26-0.239-3.239,0,0,0,81,false,stim,true,0,548.8999999761581,1,0,1,63598,task1,1076191,false,false,862,image-keyboard-response,9
true,7,0,2,0,true,q,false,true,0.0-2.0-0.26-0.240-3.240,0,0,0,81,false,stim,false,2,429.10000002384186,1,0,2,63598,task1,1078151,false,false,865,image-keyboard-response,10
true,7,2,2,2,true,d,false,true,0.0-2.0-0.26-0.241-3.241,0,0,0,68,false,stim,false,1,441.39999997615814,1,0,0,63598,task1,1080107,false,false,868,image-keyboard-response,11
true,7,1,2,1,true,z,false,true,0.0-2.0-0.26-0.242-3.242,0,0,0,90,false,stim,false,0,529.0,1,0,1,63598,task1,1082159,false,false,871,image-keyboard-response,12
true,7,2,2,2,true,d,false,true,0.0-2.0-0.27-0.243-3.243,0,0,0,68,false,stim,false,1,839.6000000238419,1,0,0,63598,task1,1084506,false,false,874,image-keyboard-response,13
true,7,1,2,1,true,z,false,true,0.0-2.0-0.27-0.244-3.244,0,0,0,90,false,stim,false,0,648.3999999761581,1,0,1,63598,task1,1086674,false,false,877,image-keyboard-response,14
true,7,0,2,0,true,q,false,true,0.0-2.0-0.27-0.245-3.245,0,0,0,81,false,stim,false,2,442.39999997615814,1,0,2,63598,task1,1088634,false,false,880,image-keyboard-response,15
true,7,1,2,1,true,z,false,true,0.0-2.0-0.27-0.246-3.246,0,0,0,90,false,stim,false,0,550.6999999284744,1,0,1,63598,task1,1090704,false,false,883,image-keyboard-response,16
true,7,0,2,0,true,q,false,true,0.0-2.0-0.27-0.247-3.247,0,0,0,81,false,stim,false,2,618.2000000476837,1,0,2,63598,task1,1092837,false,false,886,image-keyboard-response,17
true,7,0,2,0,true,q,false,true,0.0-2.0-0.27-0.248-3.248,0,0,0,81,false,stim,false,2,563.3999999761581,1,0,2,63598,task1,1094929,false,false,889,image-keyboard-response,18
true,7,2,2,2,true,d,false,true,0.0-2.0-0.27-0.249-3.249,0,0,0,68,false,stim,false,1,602.9000000953674,1,0,0,63598,task1,1097052,false,false,892,image-keyboard-response,19
true,7,2,2,2,true,d,false,true,0.0-2.0-0.27-0.250-3.250,0,0,0,68,false,stim,false,1,473.10000002384186,1,0,0,63598,task1,1099056,false,false,895,image-keyboard-response,20
true,7,1,2,1,true,z,false,true,0.0-2.0-0.27-0.251-3.251,0,0,0,90,false,stim,false,0,429.3000000715256,1,0,1,63598,task1,1101011,false,false,898,image-keyboard-response,21
true,7,1,2,1,true,z,false,true,0.0-2.0-0.28-0.252-3.252,0,0,0,90,false,stim,false,0,692.3999999761581,1,0,1,63598,task1,1103228,false,false,901,image-keyboard-response,22
true,7,0,2,0,true,q,false,true,0.0-2.0-0.28-0.253-3.253,0,0,0,81,false,stim,false,2,808.6000000238419,1,0,2,63598,task1,1105558,false,false,904,image-keyboard-response,23
true,7,2,2,2,true,d,false,false,0.0-2.0-0.28-0.254-3.254,0,0,0,68,false,stim,false,1,595.1000000238419,1,0,0,63598,task1,1107661,false,true,907,image-keyboard-response,24
true,7,1,2,2,false,d,false,false,0.0-2.0-0.28-0.255-3.255,0,0,0,90,false,stim,true,1,570.7999999523163,1,0,0,63598,task1,1109760,false,false,910,image-keyboard-response,25
true,7,1,2,1,true,z,false,true,0.0-2.0-0.28-0.256-3.256,0,0,0,90,false,stim,false,0,641.5,1,0,1,63598,task1,1111926,false,false,913,image-keyboard-response,26
true,7,0,2,0,true,q,false,false,0.0-2.0-0.28-0.257-3.257,0,0,0,81,false,stim,false,2,524.5,1,0,2,63598,task1,1113983,false,true,916,image-keyboard-response,27
true,7,0,2,2,false,d,true,false,0.0-2.0-0.28-0.258-3.258,0,0,0,81,false,stim,false,1,402.5,1,0,0,63598,task1,1115910,false,false,919,image-keyboard-response,28
true,7,1,2,1,true,z,false,true,0.0-2.0-0.28-0.259-3.259,0,0,0,90,false,stim,false,0,497.5,1,0,1,63598,task1,1117928,false,false,922,image-keyboard-response,29
true,7,1,2,0,false,q,true,false,0.0-2.0-0.28-0.260-3.260,0,0,0,90,false,stim,false,2,434.89999997615814,1,0,2,63598,task1,1119883,false,false,925,image-keyboard-response,30
true,7,2,2,0,false,q,false,false,0.0-2.0-0.29-0.261-3.261,0,0,0,68,false,stim,true,2,514.7999999523163,1,0,2,63598,task1,1121918,false,false,928,image-keyboard-response,31
true,7,1,2,1,true,z,false,true,0.0-2.0-0.29-0.262-3.262,0,0,0,90,false,stim,false,0,758.7999999523163,1,0,1,63598,task1,1124211,false,false,931,image-keyboard-response,32
true,7,1,2,1,true,z,false,true,0.0-2.0-0.29-0.263-3.263,0,0,0,90,false,stim,false,0,513.1000000238419,1,0,1,63598,task1,1126248,false,false,934,image-keyboard-response,33
true,7,1,2,2,false,d,false,false,0.0-2.0-0.29-0.264-3.264,0,0,0,90,false,stim,true,1,352.10000002384186,1,0,0,63598,task1,1128121,false,false,937,image-keyboard-response,34
true,7,1,2,1,true,z,false,true,0.0-2.0-0.29-0.265-3.265,0,0,0,90,false,stim,false,0,496.0,1,0,1,63598,task1,1130141,false,false,940,image-keyboard-response,35
true,7,0,2,0,true,q,false,true,0.0-2.0-0.29-0.266-3.266,0,0,0,81,false,stim,false,2,1245.7999999523163,1,0,2,63598,task1,1132909,false,false,943,image-keyboard-response,36
true,7,2,2,2,true,d,false,true,0.0-2.0-0.29-0.267-3.267,0,0,0,68,false,stim,false,1,453.5,1,0,0,63598,task1,1134869,false,false,946,image-keyboard-response,37
true,7,0,2,0,true,q,false,true,0.0-2.0-0.29-0.268-3.268,0,0,0,81,false,stim,false,2,688.9000000953674,1,0,2,63598,task1,1137078,false,false,949,image-keyboard-response,38
true,7,2,2,2,true,d,false,true,0.0-2.0-0.29-0.269-3.269,0,0,0,68,false,stim,false,1,566.5,1,0,0,63598,task1,1139171,false,false,952,image-keyboard-response,39
true,7,2,2,2,true,d,false,true,0.0-2.0-0.30-0.270-3.270,0,0,0,68,false,stim,false,1,536.7000000476837,1,0,0,63598,task1,1141236,false,false,955,image-keyboard-response,40
true,7,1,2,1,true,z,false,true,0.0-2.0-0.30-0.271-3.271,0,0,0,90,false,stim,false,0,714.5,1,0,1,63598,task1,1143477,false,false,958,image-keyboard-response,41
true,8,1,2,0,false,q,false,false,0.0-2.0-0.30-0.272-3.272,0,0,0,90,true,stim,true,1,712.3999999761581,1,0,1,63598,task1,1145700,false,false,961,image-keyboard-response,1
true,8,2,2,1,false,z,false,false,0.0-2.0-0.30-0.273-3.273,0,0,0,68,false,stim,true,2,620.2000000476837,1,0,0,63598,task1,1147852,false,false,964,image-keyboard-response,2
true,8,0,2,2,false,d,false,false,0.0-2.0-0.30-0.274-3.274,0,0,0,81,false,stim,true,0,378.3000000715256,1,0,2,63598,task1,1149744,false,false,967,image-keyboard-response,3
true,8,1,2,2,false,d,true,false,0.0-2.0-0.30-0.275-3.275,0,0,0,90,false,stim,false,0,610.8000000715256,1,0,2,63598,task1,1151874,false,false,970,image-keyboard-response,4
true,8,2,2,2,true,d,false,true,0.0-2.0-0.30-0.276-3.276,0,0,0,68,false,stim,false,0,583.1000000238419,1,0,2,63598,task1,1153964,false,false,973,image-keyboard-response,5
true,8,0,2,1,false,z,true,true,0.0-2.0-0.30-0.277-3.277,0,0,0,81,false,stim,false,2,523.1000000238419,1,0,0,63598,task1,1156008,false,true,976,image-keyboard-response,6
true,8,1,2,0,false,q,false,false,0.0-2.0-0.30-0.278-3.278,0,0,0,90,false,stim,true,1,466.2000000476837,1,0,1,63598,task1,1157996,false,false,979,image-keyboard-response,7
true,8,2,2,2,true,d,false,true,0.0-2.0-0.31-0.279-3.279,0,0,0,68,false,stim,false,0,629.0,1,0,2,63598,task1,1160144,false,false,982,image-keyboard-response,8
true,8,0,2,1,false,z,true,true,0.0-2.0-0.31-0.280-3.280,0,0,0,81,false,stim,false,2,404.10000002384186,1,0,0,63598,task1,1162059,false,true,985,image-keyboard-response,9
true,8,0,2,0,true,q,false,true,0.0-2.0-0.31-0.281-3.281,0,0,0,81,false,stim,false,1,494.0,1,0,1,63598,task1,1164079,false,false,988,image-keyboard-response,10
true,8,0,2,0,true,q,false,false,0.0-2.0-0.31-0.282-3.282,0,0,0,81,false,stim,false,1,672.5,1,0,1,63598,task1,1166262,false,true,991,image-keyboard-response,11
true,8,2,2,2,true,d,false,false,0.0-2.0-0.31-0.283-3.283,0,0,0,68,false,stim,false,0,479.39999997615814,1,0,2,63598,task1,1168269,false,true,994,image-keyboard-response,12
true,8,0,2,1,false,z,true,false,0.0-2.0-0.31-0.284-3.284,0,0,0,81,false,stim,false,2,482.6999999284744,1,0,0,63598,task1,1170272,false,false,997,image-keyboard-response,13
true,8,2,2,1,false,z,false,false,0.0-2.0-0.31-0.285-3.285,0,0,0,68,false,stim,true,2,487.0,1,0,0,63598,task1,1172276,false,false,1000,image-keyboard-response,14
true,8,1,2,0,false,q,false,false,0.0-2.0-0.31-0.286-3.286,0,0,0,90,false,stim,true,1,997.5,1,0,1,63598,task1,1174788,false,false,1003,image-keyboard-response,15
true,8,1,2,2,false,d,true,false,0.0-2.0-0.31-0.287-3.287,0,0,0,90,false,stim,false,0,369.39999997615814,1,0,2,63598,task1,1176684,false,false,1006,image-keyboard-response,16
true,8,0,2,2,false,d,false,true,0.0-2.0-0.32-0.288-3.288,0,0,0,81,false,stim,true,0,869.8000000715256,1,0,2,63598,task1,1179077,false,true,1009,image-keyboard-response,17
true,8,2,2,0,false,q,true,false,0.0-2.0-0.32-0.289-3.289,0,0,0,68,false,stim,false,1,509.0,1,0,1,63598,task1,1181115,false,false,1012,image-keyboard-response,18
true,8,2,2,1,false,z,false,false,0.0-2.0-0.32-0.290-3.290,0,0,0,68,false,stim,true,2,696.3999999761581,1,0,0,63598,task1,1183335,false,false,1015,image-keyboard-response,19
true,8,0,2,0,true,q,false,true,0.0-2.0-0.32-0.291-3.291,0,0,0,81,false,stim,false,1,1044.8999999761581,1,0,1,63598,task1,1185901,false,false,1018,image-keyboard-response,20
true,8,0,2,2,false,d,false,false,0.0-2.0-0.32-0.292-3.292,0,0,0,81,false,stim,true,0,444.7999999523163,1,0,2,63598,task1,1187878,false,false,1021,image-keyboard-response,21
true,8,0,2,1,false,z,true,false,0.0-2.0-0.32-0.293-3.293,0,0,0,81,false,stim,false,2,1407.5,1,0,0,63598,task1,1190811,false,false,1024,image-keyboard-response,22
true,8,2,2,1,false,z,false,false,0.0-2.0-0.32-0.294-3.294,0,0,0,68,false,stim,true,2,600.0,1,0,0,63598,task1,1192943,false,false,1027,image-keyboard-response,23
true,8,0,2,0,true,q,false,true,0.0-2.0-0.32-0.295-3.295,0,0,0,81,false,stim,false,1,443.40000009536743,1,0,1,63598,task1,1194914,false,false,1030,image-keyboard-response,24
true,8,1,2,2,false,d,true,false,0.0-2.0-0.32-0.296-3.296,0,0,0,90,false,stim,false,0,520.8999999761581,1,0,2,63598,task1,1196963,false,false,1033,image-keyboard-response,25
true,8,1,2,1,true,z,false,true,0.0-2.0-0.33-0.297-3.297,0,0,0,90,false,stim,false,2,344.39999997615814,1,0,0,63598,task1,1198835,false,false,1036,image-keyboard-response,26
true,8,0,2,0,true,q,false,true,0.0-2.0-0.33-0.298-3.298,0,0,0,81,false,stim,false,1,571.0,1,0,1,63598,task1,1200928,false,false,1039,image-keyboard-response,27
true,8,2,2,2,true,d,false,false,0.0-2.0-0.33-0.299-3.299,0,0,0,68,false,stim,false,0,458.40000009536743,1,0,2,63598,task1,1202905,false,true,1042,image-keyboard-response,28
true,8,0,2,0,true,q,false,true,0.0-2.0-0.33-0.300-3.300,0,0,0,81,false,stim,false,1,764.7999999523163,1,0,1,63598,task1,1205197,false,false,1045,image-keyboard-response,29
true,8,1,2,2,false,d,true,false,0.0-2.0-0.33-0.301-3.301,0,0,0,90,false,stim,false,0,685.7999999523163,1,0,2,63598,task1,1207416,false,false,1048,image-keyboard-response,30
true,8,0,2,2,false,d,false,false,0.0-2.0-0.33-0.302-3.302,0,0,0,81,false,stim,true,0,593.8999999761581,1,0,2,63598,task1,1209534,false,false,1051,image-keyboard-response,31
true,8,1,2,1,true,z,false,true,0.0-2.0-0.33-0.303-3.303,0,0,0,90,false,stim,false,2,680.6000000238419,1,0,0,63598,task1,1211736,false,false,1054,image-keyboard-response,32
true,8,2,2,1,false,z,false,false,0.0-2.0-0.33-0.304-3.304,0,0,0,68,false,stim,true,2,667.2000000476837,1,0,0,63598,task1,1213925,false,false,1057,image-keyboard-response,33
true,8,0,2,0,true,q,false,true,0.0-2.0-0.33-0.305-3.305,0,0,0,81,false,stim,false,1,1094.1999999284744,1,0,1,63598,task1,1216550,false,false,1060,image-keyboard-response,34
true,8,1,2,1,true,z,false,true,0.0-2.0-0.34-0.306-3.306,0,0,0,90,false,stim,false,2,341.0,1,0,0,63598,task1,1218414,false,false,1063,image-keyboard-response,35
true,8,1,2,1,true,z,false,true,0.0-2.0-0.34-0.307-3.307,0,0,0,90,false,stim,false,2,419.3000000715256,1,0,0,63598,task1,1220361,false,false,1066,image-keyboard-response,36
true,8,1,2,1,true,z,false,true,0.0-2.0-0.34-0.308-3.308,0,0,0,90,false,stim,false,2,347.3000000715256,1,0,0,63598,task1,1222223,false,false,1069,image-keyboard-response,37
true,8,2,2,2,true,d,false,true,0.0-2.0-0.34-0.309-3.309,0,0,0,68,false,stim,false,0,1645.0,1,0,2,63598,task1,1225398,false,false,1072,image-keyboard-response,38
true,8,0,2,0,true,q,false,true,0.0-2.0-0.34-0.310-3.310,0,0,0,81,false,stim,false,1,746.0,1,0,1,63598,task1,1227657,false,false,1075,image-keyboard-response,39
true,9,2,1,0,false,q,false,false,0.0-2.0-0.34-0.311-3.311,0,0,0,68,true,stim,true,2,679.2999999523163,1,0,2,63598,task1,1229851,false,false,1078,image-keyboard-response,1
true,9,0,1,2,false,d,false,false,0.0-2.0-0.34-0.312-3.312,0,0,0,81,false,stim,true,0,369.8000000715256,1,0,1,63598,task1,1231755,false,false,1081,image-keyboard-response,2
true,9,0,1,0,true,q,false,true,0.0-2.0-0.34-0.313-3.313,0,0,0,81,false,stim,false,2,560.7000000476837,1,0,2,63598,task1,1233828,false,false,1084,image-keyboard-response,3
true,9,2,1,2,true,d,false,true,0.0-2.0-0.34-0.314-3.314,0,0,0,68,false,stim,false,0,436.7000000476837,1,0,1,63598,task1,1235780,false,false,1087,image-keyboard-response,4
true,9,1,1,0,false,q,false,false,0.0-2.0-0.35-0.315-3.315,0,0,0,90,false,stim,true,1,400.0,1,0,0,63598,task1,1237700,false,false,1090,image-keyboard-response,5
true,9,0,1,0,true,q,false,true,0.0-2.0-0.35-0.316-3.316,0,0,0,81,false,stim,false,2,629.2000000476837,1,0,2,63598,task1,1239850,false,false,1093,image-keyboard-response,6
true,9,0,1,0,true,q,false,true,0.0-2.0-0.35-0.317-3.317,0,0,0,81,false,stim,false,2,784.1000000238419,1,0,2,63598,task1,1242159,false,false,1096,image-keyboard-response,7
true,9,0,1,0,true,q,false,false,0.0-2.0-0.35-0.318-3.318,0,0,0,81,false,stim,false,2,412.60000002384186,1,0,2,63598,task1,1244096,false,true,1099,image-keyboard-response,8
true,9,2,1,2,true,d,false,true,0.0-2.0-0.35-0.319-3.319,0,0,0,68,false,stim,false,0,565.4000000953674,1,0,1,63598,task1,1246187,false,false,1102,image-keyboard-response,9
true,9,0,1,0,true,q,false,true,0.0-2.0-0.35-0.320-3.320,0,0,0,81,false,stim,false,1,422.10000002384186,1,0,0,63598,task1,1248123,false,false,1105,image-keyboard-response,10
true,9,0,1,0,true,q,false,true,0.0-2.0-0.35-0.321-3.321,0,0,0,81,false,stim,false,1,633.7000000476837,1,0,0,63598,task1,1250282,false,false,1108,image-keyboard-response,11
true,9,2,1,2,true,d,false,true,0.0-2.0-0.35-0.322-3.322,0,0,0,68,false,stim,false,0,649.8999999761581,1,0,1,63598,task1,1252450,false,false,1111,image-keyboard-response,12
true,9,2,1,2,true,d,false,false,0.0-2.0-0.35-0.323-3.323,0,0,0,68,false,stim,false,0,596.7999999523163,1,0,1,63598,task1,1254579,false,true,1114,image-keyboard-response,13
true,9,0,1,2,false,d,false,false,0.0-2.0-0.36-0.324-3.324,0,0,0,81,false,stim,true,0,1017.1999999284744,1,0,1,63598,task1,1257126,false,false,1117,image-keyboard-response,14
true,9,2,1,0,false,q,false,false,0.0-2.0-0.36-0.325-3.325,0,0,0,68,false,stim,true,2,694.1999999284744,1,0,2,63598,task1,1259342,false,false,1120,image-keyboard-response,15
true,9,1,1,0,false,q,false,false,0.0-2.0-0.36-0.326-3.326,0,0,0,90,false,stim,true,1,1168.0,1,0,0,63598,task1,1262017,false,false,1123,image-keyboard-response,16
true,9,0,1,0,true,q,false,true,0.0-2.0-0.36-0.327-3.327,0,0,0,81,false,stim,false,1,333.09999990463257,1,0,0,63598,task1,1263884,false,false,1126,image-keyboard-response,17
true,9,1,1,0,false,q,true,false,0.0-2.0-0.36-0.328-3.328,0,0,0,90,false,stim,false,2,900.6000000238419,1,0,2,63598,task1,1266312,false,false,1129,image-keyboard-response,18
true,9,0,1,0,true,q,false,false,0.0-2.0-0.36-0.329-3.329,0,0,0,81,false,stim,false,1,307.7999999523163,1,0,0,63598,task1,1268139,false,true,1132,image-keyboard-response,19
true,9,1,1,2,false,d,true,false,0.0-2.0-0.36-0.330-3.330,0,0,0,90,false,stim,false,0,1455.0,1,0,1,63598,task1,1271120,false,false,1135,image-keyboard-response,20
true,9,2,1,0,false,q,false,false,0.0-2.0-0.36-0.331-3.331,0,0,0,68,false,stim,true,2,308.10000002384186,1,0,2,63598,task1,1272960,false,false,1138,image-keyboard-response,21
true,9,0,1,2,false,d,false,false,0.0-2.0-0.36-0.332-3.332,0,0,0,81,false,stim,true,0,795.2000000476837,1,0,1,63598,task1,1275278,false,false,1141,image-keyboard-response,22
true,9,1,1,0,false,q,false,true,0.0-2.0-0.37-0.333-3.333,0,0,0,90,false,stim,true,1,944.6000000238419,1,0,0,63598,task1,1277742,false,true,1144,image-keyboard-response,23
true,9,1,1,0,false,q,false,false,0.0-2.0-0.37-0.334-3.334,0,0,0,90,false,stim,true,1,616.5,1,0,0,63598,task1,1279883,false,false,1147,image-keyboard-response,24
true,9,2,1,0,false,q,false,false,0.0-2.0-0.37-0.335-3.335,0,0,0,68,false,stim,true,2,653.3000000715256,1,0,2,63598,task1,1282053,false,false,1150,image-keyboard-response,25
true,9,2,1,2,true,d,false,true,0.0-2.0-0.37-0.336-3.336,0,0,0,68,false,stim,false,0,605.6000000238419,1,0,1,63598,task1,1284203,false,false,1153,image-keyboard-response,26
true,9,1,1,0,false,q,true,false,0.0-2.0-0.37-0.337-3.337,0,0,0,90,false,stim,false,2,788.8000000715256,1,0,2,63598,task1,1286511,false,false,1156,image-keyboard-response,27
true,9,0,1,0,true,q,false,true,0.0-2.0-0.37-0.338-3.338,0,0,0,81,false,stim,false,1,329.1999999284744,1,0,0,63598,task1,1288357,false,false,1159,image-keyboard-response,28
true,9,0,1,0,true,q,false,true,0.0-2.0-0.37-0.339-3.339,0,0,0,81,false,stim,false,2,396.5,1,0,2,63598,task1,1290279,false,false,1162,image-keyboard-response,29
true,9,2,1,2,true,d,false,true,0.0-2.0-0.37-0.340-3.340,0,0,0,68,false,stim,false,0,468.6999999284744,1,0,1,63598,task1,1292275,false,false,1165,image-keyboard-response,30
true,9,2,1,2,true,d,false,true,0.0-2.0-0.37-0.341-3.341,0,0,0,68,false,stim,false,0,456.7000000476837,1,0,1,63598,task1,1294264,false,false,1168,image-keyboard-response,31
true,9,0,1,0,true,q,false,true,0.0-2.0-0.38-0.342-3.342,0,0,0,81,false,stim,false,1,332.1999999284744,1,0,0,63598,task1,1296126,false,false,1171,image-keyboard-response,32
true,9,2,1,2,true,d,false,true,0.0-2.0-0.38-0.343-3.343,0,0,0,68,false,stim,false,0,534.6999999284744,1,0,1,63598,task1,1298190,false,false,1174,image-keyboard-response,33
true,9,0,1,0,true,q,false,true,0.0-2.0-0.38-0.344-3.344,0,0,0,81,false,stim,false,1,666.2999999523163,1,0,0,63598,task1,1300386,false,false,1177,image-keyboard-response,34
true,9,2,1,2,true,d,false,true,0.0-2.0-0.38-0.345-3.345,0,0,0,68,false,stim,false,0,515.8999999761581,1,0,1,63598,task1,1302425,false,false,1180,image-keyboard-response,35
true,9,0,1,0,true,q,false,true,0.0-2.0-0.38-0.346-3.346,0,0,0,81,false,stim,false,2,338.39999997615814,1,0,2,63598,task1,1304296,false,false,1183,image-keyboard-response,36
true,9,0,1,0,true,q,false,true,0.0-2.0-0.38-0.347-3.347,0,0,0,81,false,stim,false,2,655.7000000476837,1,0,2,63598,task1,1306474,false,false,1186,image-keyboard-response,37
true,9,2,1,2,true,d,false,false,0.0-2.0-0.38-0.348-3.348,0,0,0,68,false,stim,false,0,503.5,1,0,1,63598,task1,1308496,false,true,1189,image-keyboard-response,38
true,9,0,1,0,true,q,false,true,0.0-2.0-0.38-0.349-3.349,0,0,0,81,false,stim,false,1,349.3000000715256,1,0,0,63598,task1,1310373,false,false,1192,image-keyboard-response,39
true,9,0,1,0,true,q,false,true,0.0-2.0-0.38-0.350-3.350,0,0,0,81,false,stim,false,2,403.5,1,0,2,63598,task1,1312306,false,false,1195,image-keyboard-response,40
true,9,1,1,2,false,d,true,false,0.0-2.0-0.39-0.351-3.351,0,0,0,90,false,stim,false,0,797.2000000476837,1,0,1,63598,task1,1314627,false,false,1198,image-keyboard-response,41
true,9,0,1,0,true,q,false,true,0.0-2.0-0.39-0.352-3.352,0,0,0,81,false,stim,false,2,445.2000000476837,1,0,2,63598,task1,1316606,false,false,1201,image-keyboard-response,42
true,10,0,2,0,true,q,false,true,0.0-2.0-0.39-0.353-3.353,0,0,0,81,true,stim,false,2,647.0,1,0,1,63598,task1,1318774,false,false,1204,image-keyboard-response,1
true,10,0,2,2,false,d,false,false,0.0-2.0-0.39-0.354-3.354,0,0,0,81,false,stim,true,0,806.3999999761581,1,0,2,63598,task1,1321107,false,false,1207,image-keyboard-response,2
true,10,0,2,1,false,z,false,false,0.0-2.0-0.39-0.355-3.355,0,0,0,81,false,stim,true,0,756.1000000238419,1,0,0,63598,task1,1323379,false,false,1210,image-keyboard-response,3
true,10,2,2,1,false,z,true,false,0.0-2.0-0.39-0.356-3.356,0,0,0,68,false,stim,false,0,502.89999997615814,1,0,0,63598,task1,1325414,false,false,1213,image-keyboard-response,4
true,10,2,2,2,true,d,false,true,0.0-2.0-0.39-0.357-3.357,0,0,0,68,false,stim,false,0,509.10000002384186,1,0,2,63598,task1,1327455,false,false,1216,image-keyboard-response,5
true,10,0,2,0,true,q,false,true,0.0-2.0-0.39-0.358-3.358,0,0,0,81,false,stim,false,2,399.60000002384186,1,0,1,63598,task1,1329377,false,false,1219,image-keyboard-response,6
true,10,1,2,1,true,z,false,true,0.0-2.0-0.39-0.359-3.359,0,0,0,90,false,stim,false,0,318.7999999523163,1,0,0,63598,task1,1331214,false,false,1222,image-keyboard-response,7
true,10,2,2,2,true,d,false,true,0.0-2.0-0.40-0.360-3.360,0,0,0,68,false,stim,false,0,372.40000009536743,1,0,2,63598,task1,1333116,false,false,1225,image-keyboard-response,8
true,10,1,2,1,true,z,false,false,0.0-2.0-0.40-0.361-3.361,0,0,0,90,false,stim,false,0,551.8999999761581,1,0,0,63598,task1,1335188,false,true,1228,image-keyboard-response,9
true,10,0,2,0,true,q,false,true,0.0-2.0-0.40-0.362-3.362,0,0,0,81,false,stim,false,2,407.10000002384186,1,0,1,63598,task1,1337118,false,false,1231,image-keyboard-response,10
true,10,2,2,2,true,d,false,true,0.0-2.0-0.40-0.363-3.363,0,0,0,68,false,stim,false,0,467.5,1,0,2,63598,task1,1339113,false,false,1234,image-keyboard-response,11
true,10,0,2,0,true,q,false,true,0.0-2.0-0.40-0.364-3.364,0,0,0,81,false,stim,false,2,471.60000002384186,1,0,1,63598,task1,1341115,false,false,1237,image-keyboard-response,12
true,10,2,2,2,true,d,false,true,0.0-2.0-0.40-0.365-3.365,0,0,0,68,false,stim,false,0,672.5,1,0,2,63598,task1,1343301,false,false,1240,image-keyboard-response,13
true,10,0,2,0,true,q,false,false,0.0-2.0-0.40-0.366-3.366,0,0,0,81,false,stim,false,2,553.7000000476837,1,0,1,63598,task1,1345369,false,true,1243,image-keyboard-response,14
true,10,0,2,1,false,z,false,false,0.0-2.0-0.40-0.367-3.367,0,0,0,81,false,stim,true,0,431.1999999284744,1,0,0,63598,task1,1347314,false,false,1246,image-keyboard-response,15
true,10,1,2,1,true,z,false,true,0.0-2.0-0.40-0.368-3.368,0,0,0,90,false,stim,false,0,530.6000000238419,1,0,0,63598,task1,1349364,false,false,1249,image-keyboard-response,16
true,10,2,2,2,true,d,false,true,0.0-2.0-0.41-0.369-3.369,0,0,0,68,false,stim,false,0,554.5,1,0,2,63598,task1,1351436,false,false,1252,image-keyboard-response,17
true,10,2,2,0,false,q,false,false,0.0-2.0-0.41-0.370-3.370,0,0,0,68,false,stim,true,2,738.9000000953674,1,0,1,63598,task1,1353704,false,false,1255,image-keyboard-response,18
true,10,2,2,2,true,d,false,true,0.0-2.0-0.41-0.371-3.371,0,0,0,68,false,stim,false,0,355.5,1,0,2,63598,task1,1355571,false,false,1258,image-keyboard-response,19
true,10,2,2,2,true,d,false,false,0.0-2.0-0.41-0.372-3.372,0,0,0,68,false,stim,false,0,451.60000002384186,1,0,2,63598,task1,1357551,false,true,1261,image-keyboard-response,20
true,10,1,2,1,true,z,false,true,0.0-2.0-0.41-0.373-3.373,0,0,0,90,false,stim,false,0,305.60000002384186,1,0,0,63598,task1,1359387,false,false,1264,image-keyboard-response,21
true,10,2,2,0,false,q,false,false,0.0-2.0-0.41-0.374-3.374,0,0,0,68,false,stim,true,2,748.8999999761581,1,0,1,63598,task1,1361663,false,false,1267,image-keyboard-response,22
true,10,1,2,1,true,z,false,true,0.0-2.0-0.41-0.375-3.375,0,0,0,90,false,stim,false,0,671.0,1,0,0,63598,task1,1363866,false,false,1270,image-keyboard-response,23
true,10,1,2,0,false,q,true,false,0.0-2.0-0.41-0.376-3.376,0,0,0,90,false,stim,false,2,316.5,1,0,1,63598,task1,1365699,false,false,1273,image-keyboard-response,24
true,10,1,2,1,true,z,false,true,0.0-2.0-0.41-0.377-3.377,0,0,0,90,false,stim,false,0,734.2000000476837,1,0,0,63598,task1,1367966,false,false,1276,image-keyboard-response,25
true,10,0,2,0,true,q,false,true,0.0-2.0-0.42-0.378-3.378,0,0,0,81,false,stim,false,2,396.6999999284744,1,0,1,63598,task1,1369880,false,false,1279,image-keyboard-response,26
true,10,0,2,0,true,q,false,true,0.0-2.0-0.42-0.379-3.379,0,0,0,81,false,stim,false,2,480.2000000476837,1,0,1,63598,task1,1371879,false,false,1282,image-keyboard-response,27
true,10,1,2,1,true,z,false,true,0.0-2.0-0.42-0.380-3.380,0,0,0,90,false,stim,false,0,482.89999997615814,1,0,0,63598,task1,1373881,false,false,1285,image-keyboard-response,28
true,10,1,2,1,true,z,false,true,0.0-2.0-0.42-0.381-3.381,0,0,0,90,false,stim,false,0,421.40000009536743,1,0,0,63598,task1,1375823,false,false,1288,image-keyboard-response,29
true,10,0,2,2,false,d,false,false,0.0-2.0-0.42-0.382-3.382,0,0,0,81,false,stim,true,0,457.0,1,0,2,63598,task1,1377806,false,false,1291,image-keyboard-response,30
true,10,1,2,1,true,z,false,true,0.0-2.0-0.42-0.383-3.383,0,0,0,90,false,stim,false,0,806.5,1,0,0,63598,task1,1380141,false,false,1294,image-keyboard-response,31
true,10,1,2,2,false,d,true,false,0.0-2.0-0.42-0.384-3.384,0,0,0,90,false,stim,false,0,1611.8000000715256,1,0,2,63598,task1,1383277,false,false,1297,image-keyboard-response,32
true,10,0,2,0,true,q,false,true,0.0-2.0-0.42-0.385-3.385,0,0,0,81,false,stim,false,2,655.7999999523163,1,0,1,63598,task1,1385464,false,false,1300,image-keyboard-response,33
true,10,2,2,2,true,d,false,true,0.0-2.0-0.42-0.386-3.386,0,0,0,68,false,stim,false,0,680.3999999761581,1,0,2,63598,task1,1387678,false,false,1303,image-keyboard-response,34
true,10,0,2,0,true,q,false,true,0.0-2.0-0.43-0.387-3.387,0,0,0,81,false,stim,false,2,437.7000000476837,1,0,1,63598,task1,1389640,false,false,1306,image-keyboard-response,35
true,10,2,2,2,true,d,false,true,0.0-2.0-0.43-0.388-3.388,0,0,0,68,false,stim,false,0,326.60000002384186,1,0,2,63598,task1,1391500,false,false,1309,image-keyboard-response,36
true,10,1,2,1,true,z,false,true,0.0-2.0-0.43-0.389-3.389,0,0,0,90,false,stim,false,0,405.7000000476837,1,0,0,63598,task1,1393439,false,false,1312,image-keyboard-response,37
true,10,1,2,1,true,z,false,true,0.0-2.0-0.43-0.390-3.390,0,0,0,90,false,stim,false,0,475.2000000476837,1,0,0,63598,task1,1395432,false,false,1315,image-keyboard-response,38
true,10,1,2,1,true,z,false,true,0.0-2.0-0.43-0.391-3.391,0,0,0,90,false,stim,false,0,437.60000002384186,1,0,0,63598,task1,1397389,false,false,1318,image-keyboard-response,39
true,10,0,2,0,true,q,false,true,0.0-2.0-0.43-0.392-3.392,0,0,0,81,false,stim,false,2,732.0,1,0,1,63598,task1,1399647,false,false,1321,image-keyboard-response,40
true,11,2,2,0,false,q,false,false,0.0-2.0-0.43-0.393-3.393,0,0,0,68,true,stim,true,2,293.39999997615814,1,0,2,63598,task1,1401460,false,false,1324,image-keyboard-response,1
true,11,1,2,0,false,q,true,false,0.0-2.0-0.43-0.394-3.394,0,0,0,90,false,stim,false,2,658.6999999284744,1,0,2,63598,task1,1403631,false,false,1327,image-keyboard-response,2
true,11,0,2,1,false,z,false,false,0.0-2.0-0.43-0.395-3.395,0,0,0,81,false,stim,true,0,496.89999997615814,1,0,1,63598,task1,1405656,false,false,1330,image-keyboard-response,3
true,11,1,2,1,true,z,false,true,0.0-2.0-0.44-0.396-3.396,0,0,0,90,false,stim,false,0,856.5999999046326,1,0,1,63598,task1,1408033,false,false,1333,image-keyboard-response,4
true,11,1,2,2,false,d,false,true,0.0-2.0-0.44-0.397-3.397,0,0,0,90,false,stim,true,1,332.60000002384186,1,0,0,63598,task1,1409880,false,true,1336,image-keyboard-response,5
true,11,0,2,0,true,q,false,true,0.0-2.0-0.44-0.398-3.398,0,0,0,81,false,stim,false,2,370.0,1,0,2,63598,task1,1411783,false,false,1339,image-keyboard-response,6
true,11,1,2,1,true,z,false,true,0.0-2.0-0.44-0.399-3.399,0,0,0,90,false,stim,false,0,552.6000000238419,1,0,1,63598,task1,1413858,false,false,1342,image-keyboard-response,7
true,11,1,2,2,false,d,false,false,0.0-2.0-0.44-0.400-3.400,0,0,0,90,false,stim,true,1,288.60000002384186,1,0,0,63598,task1,1415673,false,false,1345,image-keyboard-response,8
true,11,0,2,0,true,q,false,true,0.0-2.0-0.44-0.401-3.401,0,0,0,81,false,stim,false,2,615.8999999761581,1,0,2,63598,task1,1417805,false,false,1348,image-keyboard-response,9
true,11,0,2,0,true,q,false,true,0.0-2.0-0.44-0.402-3.402,0,0,0,81,false,stim,false,2,457.1999999284744,1,0,2,63598,task1,1419783,false,false,1351,image-keyboard-response,10
true,11,1,2,1,true,z,false,true,0.0-2.0-0.44-0.403-3.403,0,0,0,90,false,stim,false,0,613.0999999046326,1,0,1,63598,task1,1421926,false,false,1354,image-keyboard-response,11
true,11,0,2,2,false,d,true,false,0.0-2.0-0.44-0.404-3.404,0,0,0,81,false,stim,false,1,358.59999990463257,1,0,0,63598,task1,1423812,false,false,1357,image-keyboard-response,12
true,11,1,2,1,true,z,false,true,0.0-2.0-0.45-0.405-3.405,0,0,0,90,false,stim,false,0,510.89999997615814,1,0,1,63598,task1,1425857,false,false,1360,image-keyboard-response,13
true,11,0,2,0,true,q,false,true,0.0-2.0-0.45-0.406-3.406,0,0,0,81,false,stim,false,2,491.8000000715256,1,0,2,63598,task1,1427872,false,false,1363,image-keyboard-response,14
true,11,1,2,1,true,z,false,false,0.0-2.0-0.45-0.407-3.407,0,0,0,90,false,stim,false,0,433.0,1,0,1,63598,task1,1429839,false,true,1366,image-keyboard-response,15
true,11,2,2,2,true,d,false,true,0.0-2.0-0.45-0.408-3.408,0,0,0,68,false,stim,false,1,401.8000000715256,1,0,0,63598,task1,1431757,false,false,1369,image-keyboard-response,16
true,11,0,2,0,true,q,false,true,0.0-2.0-0.45-0.409-3.409,0,0,0,81,false,stim,false,2,638.8000000715256,1,0,2,63598,task1,1433927,false,false,1372,image-keyboard-response,17
true,11,0,2,1,false,z,false,false,0.0-2.0-0.45-0.410-3.410,0,0,0,81,false,stim,true,0,1053.2999999523163,1,0,1,63598,task1,1436493,false,false,1375,image-keyboard-response,18
true,11,2,2,2,true,d,false,true,0.0-2.0-0.45-0.411-3.411,0,0,0,68,false,stim,false,1,462.2000000476837,1,0,0,63598,task1,1438467,false,false,1378,image-keyboard-response,19
true,11,0,2,0,true,q,false,true,0.0-2.0-0.45-0.412-3.412,0,0,0,81,false,stim,false,2,512.1000000238419,1,0,2,63598,task1,1440499,false,false,1381,image-keyboard-response,20
true,11,2,2,2,true,d,false,true,0.0-2.0-0.45-0.413-3.413,0,0,0,68,false,stim,false,1,356.3000000715256,1,0,0,63598,task1,1442377,false,false,1384,image-keyboard-response,21
true,11,2,2,2,true,d,false,false,0.0-2.0-0.46-0.414-3.414,0,0,0,68,false,stim,false,1,479.2999999523163,1,0,0,63598,task1,1444385,false,true,1387,image-keyboard-response,22
true,11,0,2,0,true,q,false,true,0.0-2.0-0.46-0.415-3.415,0,0,0,81,false,stim,false,2,451.7999999523163,1,0,2,63598,task1,1446361,false,false,1390,image-keyboard-response,23
true,11,2,2,1,false,z,true,false,0.0-2.0-0.46-0.416-3.416,0,0,0,68,false,stim,false,0,440.7999999523163,1,0,1,63598,task1,1448337,false,false,1393,image-keyboard-response,24
true,11,1,2,1,true,z,false,true,0.0-2.0-0.46-0.417-3.417,0,0,0,90,false,stim,false,0,419.5,1,0,1,63598,task1,1450286,false,false,1396,image-keyboard-response,25
true,11,1,2,2,false,d,false,false,0.0-2.0-0.46-0.418-3.418,0,0,0,90,false,stim,true,1,516.8999999761581,1,0,0,63598,task1,1452323,false,false,1399,image-keyboard-response,26
true,11,0,2,2,false,d,true,false,0.0-2.0-0.46-0.419-3.419,0,0,0,81,false,stim,false,1,730.2000000476837,1,0,0,63598,task1,1454586,false,false,1402,image-keyboard-response,27
true,11,0,2,0,true,q,false,true,0.0-2.0-0.46-0.420-3.420,0,0,0,81,false,stim,false,2,722.1000000238419,1,0,2,63598,task1,1456830,false,false,1405,image-keyboard-response,28
true,11,1,2,1,true,z,false,true,0.0-2.0-0.46-0.421-3.421,0,0,0,90,false,stim,false,0,424.5,1,0,1,63598,task1,1458778,false,false,1408,image-keyboard-response,29
true,11,0,2,0,true,q,false,false,0.0-2.0-0.46-0.422-3.422,0,0,0,81,false,stim,false,2,701.5,1,0,2,63598,task1,1461005,false,true,1411,image-keyboard-response,30
true,11,2,2,2,true,d,false,true,0.0-2.0-0.47-0.423-3.423,0,0,0,68,false,stim,false,1,689.8000000715256,1,0,0,63598,task1,1463212,false,false,1414,image-keyboard-response,31
true,11,1,2,1,true,z,false,true,0.0-2.0-0.47-0.424-3.424,0,0,0,90,false,stim,false,0,537.6000000238419,1,0,1,63598,task1,1465280,false,false,1417,image-keyboard-response,32
true,11,2,2,2,true,d,false,true,0.0-2.0-0.47-0.425-3.425,0,0,0,68,false,stim,false,1,798.2000000476837,1,0,0,63598,task1,1467607,false,false,1420,image-keyboard-response,33
true,11,2,2,0,false,q,false,false,0.0-2.0-0.47-0.426-3.426,0,0,0,68,false,stim,true,2,500.2999999523163,1,0,2,63598,task1,1469637,false,false,1423,image-keyboard-response,34
true,11,1,2,1,true,z,false,true,0.0-2.0-0.47-0.427-3.427,0,0,0,90,false,stim,false,0,343.0,1,0,1,63598,task1,1471511,false,false,1426,image-keyboard-response,35
true,11,1,2,1,true,z,false,true,0.0-2.0-0.47-0.428-3.428,0,0,0,90,false,stim,false,0,708.2999999523163,1,0,1,63598,task1,1473740,false,false,1429,image-keyboard-response,36
true,11,1,2,0,false,q,true,false,0.0-2.0-0.47-0.429-3.429,0,0,0,90,false,stim,false,2,392.0,1,0,2,63598,task1,1475647,false,false,1432,image-keyboard-response,37
true,11,0,2,0,true,q,false,true,0.0-2.0-0.47-0.430-3.430,0,0,0,81,false,stim,false,2,620.5999999046326,1,0,2,63598,task1,1477794,false,false,1435,image-keyboard-response,38
true,11,2,2,2,true,d,false,true,0.0-2.0-0.47-0.431-3.431,0,0,0,68,false,stim,false,1,1276.2999999523163,1,0,0,63598,task1,1480599,false,false,1438,image-keyboard-response,39
true,11,1,2,1,true,z,false,true,0.0-2.0-0.48-0.432-3.432,0,0,0,90,false,stim,false,0,547.3999999761581,1,0,1,63598,task1,1482677,false,false,1441,image-keyboard-response,40
true,11,1,2,1,true,z,false,true,0.0-2.0-0.48-0.433-3.433,0,0,0,90,false,stim,false,0,336.39999997615814,1,0,1,63598,task1,1484545,false,false,1444,image-keyboard-response,41
true,11,1,2,1,true,z,false,true,0.0-2.0-0.48-0.434-3.434,0,0,0,90,false,stim,false,0,412.89999997615814,1,0,1,63598,task1,1486472,false,false,1447,image-keyboard-response,42
true,11,0,2,0,true,q,false,true,0.0-2.0-0.48-0.435-3.435,0,0,0,81,false,stim,false,2,529.0,1,0,2,63598,task1,1488520,false,false,1450,image-keyboard-response,43
true,11,0,2,0,true,q,false,true,0.0-2.0-0.48-0.436-3.436,0,0,0,81,false,stim,false,2,546.5,1,0,2,63598,task1,1490588,false,false,1453,image-keyboard-response,44
true,11,2,2,2,true,d,false,true,0.0-2.0-0.48-0.437-3.437,0,0,0,68,false,stim,false,1,561.3000000715256,1,0,0,63598,task1,1492670,false,false,1456,image-keyboard-response,45
true,12,2,1,1,false,z,false,false,0.0-2.0-0.48-0.438-3.438,0,0,0,68,true,stim,true,2,409.60000002384186,1,0,0,63598,task1,1494610,false,false,1459,image-keyboard-response,1
true,12,0,1,1,false,z,false,false,0.0-2.0-0.48-0.439-3.439,0,0,0,81,false,stim,true,0,917.1000000238419,1,0,2,63598,task1,1497042,false,false,1462,image-keyboard-response,2
true,12,1,1,1,true,z,false,true,0.0-2.0-0.48-0.440-3.440,0,0,0,90,false,stim,false,2,1163.0,1,0,0,63598,task1,1499726,false,false,1465,image-keyboard-response,3
true,12,1,1,2,false,d,false,false,0.0-2.0-0.49-0.441-3.441,0,0,0,90,false,stim,true,1,331.5,1,0,1,63598,task1,1501573,false,false,1468,image-keyboard-response,4
true,12,1,1,1,true,z,false,true,0.0-2.0-0.49-0.442-3.442,0,0,0,90,false,stim,false,0,788.3999999761581,1,0,2,63598,task1,1503879,false,false,1471,image-keyboard-response,5
true,12,1,1,1,true,z,false,true,0.0-2.0-0.49-0.443-3.443,0,0,0,90,false,stim,false,2,718.6999999284744,1,0,0,63598,task1,1506131,false,false,1474,image-keyboard-response,6
true,12,1,1,1,true,z,false,true,0.0-2.0-0.49-0.444-3.444,0,0,0,90,false,stim,false,0,498.10000002384186,1,0,2,63598,task1,1508147,false,false,1477,image-keyboard-response,7
true,12,1,1,1,true,z,false,true,0.0-2.0-0.49-0.445-3.445,0,0,0,90,false,stim,false,2,467.5,1,0,0,63598,task1,1510150,false,false,1480,image-keyboard-response,8
true,12,2,1,2,true,d,false,true,0.0-2.0-0.49-0.446-3.446,0,0,0,68,false,stim,false,1,524.5,1,0,1,63598,task1,1512209,false,false,1483,image-keyboard-response,9
true,12,2,1,2,true,d,false,true,0.0-2.0-0.49-0.447-3.447,0,0,0,68,false,stim,false,1,553.5,1,0,1,63598,task1,1514286,false,false,1486,image-keyboard-response,10
true,12,1,1,1,true,z,false,false,0.0-2.0-0.49-0.448-3.448,0,0,0,90,false,stim,false,2,708.3999999761581,1,0,0,63598,task1,1516520,false,true,1489,image-keyboard-response,11
true,12,1,1,1,true,z,false,true,0.0-2.0-0.49-0.449-3.449,0,0,0,90,false,stim,false,0,341.2999999523163,1,0,2,63598,task1,1518383,false,false,1492,image-keyboard-response,12
true,12,0,1,1,false,z,true,false,0.0-2.0-0.50-0.450-3.450,0,0,0,81,false,stim,false,2,365.5,1,0,0,63598,task1,1520275,false,false,1495,image-keyboard-response,13
true,12,2,1,2,true,d,false,true,0.0-2.0-0.50-0.451-3.451,0,0,0,68,false,stim,false,1,412.0,1,0,1,63598,task1,1522214,false,false,1498,image-keyboard-response,14
true,12,1,1,1,true,z,false,true,0.0-2.0-0.50-0.452-3.452,0,0,0,90,false,stim,false,0,339.60000002384186,1,0,2,63598,task1,1524086,false,false,1501,image-keyboard-response,15
true,12,1,1,1,true,z,false,true,0.0-2.0-0.50-0.453-3.453,0,0,0,90,false,stim,false,0,458.10000002384186,1,0,2,63598,task1,1526075,false,false,1504,image-keyboard-response,16
true,12,2,1,1,false,z,false,false,0.0-2.0-0.50-0.454-3.454,0,0,0,68,false,stim,true,2,521.2999999523163,1,0,0,63598,task1,1528111,false,false,1507,image-keyboard-response,17
true,12,1,1,1,true,z,false,false,0.0-2.0-0.50-0.455-3.455,0,0,0,90,false,stim,false,0,424.7999999523163,1,0,2,63598,task1,1530049,false,true,1510,image-keyboard-response,18
true,12,2,1,2,true,d,false,true,0.0-2.0-0.50-0.456-3.456,0,0,0,68,false,stim,false,1,1033.0999999046326,1,0,1,63598,task1,1532593,false,false,1513,image-keyboard-response,19
true,12,0,1,1,false,z,true,false,0.0-2.0-0.50-0.457-3.457,0,0,0,81,false,stim,false,2,515.1999999284744,1,0,0,63598,task1,1534624,false,false,1516,image-keyboard-response,20
true,12,2,1,2,true,d,false,true,0.0-2.0-0.50-0.458-3.458,0,0,0,68,false,stim,false,1,797.3000000715256,1,0,1,63598,task1,1536955,false,false,1519,image-keyboard-response,21
true,12,2,1,2,true,d,false,true,0.0-2.0-0.51-0.459-3.459,0,0,0,68,false,stim,false,1,577.1000000238419,1,0,1,63598,task1,1539050,false,false,1522,image-keyboard-response,22
true,12,1,1,1,true,z,false,true,0.0-2.0-0.51-0.460-3.460,0,0,0,90,false,stim,false,2,624.0,1,0,0,63598,task1,1541197,false,false,1525,image-keyboard-response,23
true,12,2,1,2,true,d,false,true,0.0-2.0-0.51-0.461-3.461,0,0,0,68,false,stim,false,1,730.6000000238419,1,0,1,63598,task1,1543455,false,false,1528,image-keyboard-response,24
true,12,2,1,1,false,z,true,false,0.0-2.0-0.51-0.462-3.462,0,0,0,68,false,stim,false,0,911.7000000476837,1,0,2,63598,task1,1545889,false,false,1531,image-keyboard-response,25
true,12,1,1,1,true,z,false,true,0.0-2.0-0.51-0.463-3.463,0,0,0,90,false,stim,false,2,328.39999997615814,1,0,0,63598,task1,1547744,false,false,1534,image-keyboard-response,26
true,12,1,1,1,true,z,false,true,0.0-2.0-0.51-0.464-3.464,0,0,0,90,false,stim,false,0,325.7000000476837,1,0,2,63598,task1,1549603,false,false,1537,image-keyboard-response,27
true,12,1,1,1,true,z,false,true,0.0-2.0-0.51-0.465-3.465,0,0,0,90,false,stim,false,0,493.10000002384186,1,0,2,63598,task1,1551616,false,false,1540,image-keyboard-response,28
true,12,2,1,2,true,d,false,true,0.0-2.0-0.51-0.466-3.466,0,0,0,68,false,stim,false,1,317.89999997615814,1,0,1,63598,task1,1553459,false,false,1543,image-keyboard-response,29
true,12,1,1,1,true,z,false,true,0.0-2.0-0.51-0.467-3.467,0,0,0,90,false,stim,false,2,275.0,1,0,0,63598,task1,1555250,false,false,1546,image-keyboard-response,30
true,12,1,1,1,true,z,false,true,0.0-2.0-0.52-0.468-3.468,0,0,0,90,false,stim,false,0,317.7000000476837,1,0,2,63598,task1,1557093,false,false,1549,image-keyboard-response,31
true,12,1,1,1,true,z,false,true,0.0-2.0-0.52-0.469-3.469,0,0,0,90,false,stim,false,0,511.60000002384186,1,0,2,63598,task1,1559139,false,false,1552,image-keyboard-response,32
true,12,1,1,1,true,z,false,true,0.0-2.0-0.52-0.470-3.470,0,0,0,90,false,stim,false,0,722.8999999761581,1,0,2,63598,task1,1561380,false,false,1555,image-keyboard-response,33
true,12,2,1,2,true,d,false,true,0.0-2.0-0.52-0.471-3.471,0,0,0,68,false,stim,false,1,787.0,1,0,1,63598,task1,1563703,false,false,1558,image-keyboard-response,34
true,12,1,1,1,true,z,false,true,0.0-2.0-0.52-0.472-3.472,0,0,0,90,false,stim,false,2,452.7999999523163,1,0,0,63598,task1,1565681,false,false,1561,image-keyboard-response,35
true,12,2,1,2,true,d,false,true,0.0-2.0-0.52-0.473-3.473,0,0,0,68,false,stim,false,1,598.3999999761581,1,0,1,63598,task1,1567813,false,false,1564,image-keyboard-response,36
true,12,1,1,1,true,z,false,true,0.0-2.0-0.52-0.474-3.474,0,0,0,90,false,stim,false,2,498.3000000715256,1,0,0,63598,task1,1569824,false,false,1567,image-keyboard-response,37
true,12,2,1,2,true,d,false,true,0.0-2.0-0.52-0.475-3.475,0,0,0,68,false,stim,false,1,420.10000002384186,1,0,1,63598,task1,1571779,false,false,1570,image-keyboard-response,38
true,12,1,1,1,true,z,false,true,0.0-2.0-0.52-0.476-3.476,0,0,0,90,false,stim,false,2,398.5,1,0,0,63598,task1,1573713,false,false,1573,image-keyboard-response,39
true,13,1,1,2,false,d,false,false,0.0-2.0-0.53-0.477-3.477,0,0,0,90,true,stim,true,1,627.3999999761581,1,0,2,63598,task1,1575851,false,false,1576,image-keyboard-response,1
true,13,2,1,0,false,q,false,false,0.0-2.0-0.53-0.478-3.478,0,0,0,68,false,stim,true,2,559.0,1,0,1,63598,task1,1577939,false,false,1579,image-keyboard-response,2
true,13,0,1,0,true,q,false,true,0.0-2.0-0.53-0.479-3.479,0,0,0,81,false,stim,false,2,776.7000000476837,1,0,1,63598,task1,1580225,false,false,1582,image-keyboard-response,3
true,13,1,1,0,false,q,false,false,0.0-2.0-0.53-0.480-3.480,0,0,0,90,false,stim,true,1,808.6000000238419,1,0,0,63598,task1,1582568,false,false,1585,image-keyboard-response,4
true,13,0,1,0,true,q,false,true,0.0-2.0-0.53-0.481-3.481,0,0,0,81,false,stim,false,2,350.7999999523163,1,0,1,63598,task1,1584441,false,false,1588,image-keyboard-response,5
true,13,2,1,0,false,q,true,false,0.0-2.0-0.53-0.482-3.482,0,0,0,68,false,stim,false,1,494.1999999284744,1,0,0,63598,task1,1586469,false,false,1591,image-keyboard-response,6
true,13,0,1,2,false,d,true,false,0.0-2.0-0.53-0.483-3.483,0,0,0,81,false,stim,false,1,1121.3000000715256,1,0,2,63598,task1,1589113,false,false,1594,image-keyboard-response,7
true,13,1,1,2,false,d,false,false,0.0-2.0-0.53-0.484-3.484,0,0,0,90,false,stim,true,1,404.10000002384186,1,0,2,63598,task1,1591049,false,false,1597,image-keyboard-response,8
true,13,0,1,0,true,q,false,false,0.0-2.0-0.53-0.485-3.485,0,0,0,81,false,stim,false,1,848.2000000476837,1,0,0,63598,task1,1593430,false,true,1600,image-keyboard-response,9
true,13,0,1,0,true,q,false,true,0.0-2.0-0.54-0.486-3.486,0,0,0,81,false,stim,false,2,568.2000000476837,1,0,1,63598,task1,1595528,false,false,1603,image-keyboard-response,10
true,13,0,1,0,true,q,false,true,0.0-2.0-0.54-0.487-3.487,0,0,0,81,false,stim,false,2,676.5,1,0,1,63598,task1,1597733,false,false,1606,image-keyboard-response,11
true,13,2,1,0,false,q,true,false,0.0-2.0-0.54-0.488-3.488,0,0,0,68,false,stim,false,1,1157.8999999761581,1,0,0,63598,task1,1600416,false,false,1609,image-keyboard-response,12
true,13,1,1,0,false,q,false,false,0.0-2.0-0.54-0.489-3.489,0,0,0,90,false,stim,true,1,640.0999999046326,1,0,0,63598,task1,1602589,false,false,1612,image-keyboard-response,13
true,13,0,1,0,true,q,false,true,0.0-2.0-0.54-0.490-3.490,0,0,0,81,false,stim,false,1,381.10000002384186,1,0,0,63598,task1,1604503,false,false,1615,image-keyboard-response,14
true,13,0,1,0,true,q,false,true,0.0-2.0-0.54-0.491-3.491,0,0,0,81,false,stim,false,2,429.09999990463257,1,0,1,63598,task1,1606459,false,false,1618,image-keyboard-response,15
true,13,2,1,2,true,d,false,true,0.0-2.0-0.54-0.492-3.492,0,0,0,68,false,stim,false,1,431.7000000476837,1,0,2,63598,task1,1608401,false,false,1621,image-keyboard-response,16
true,13,2,1,2,true,d,false,true,0.0-2.0-0.54-0.493-3.493,0,0,0,68,false,stim,false,1,472.39999997615814,1,0,2,63598,task1,1610395,false,false,1624,image-keyboard-response,17
true,13,2,1,2,true,d,false,true,0.0-2.0-0.54-0.494-3.494,0,0,0,68,false,stim,false,1,448.0,1,0,2,63598,task1,1612374,false,false,1627,image-keyboard-response,18
true,13,2,1,2,true,d,false,true,0.0-2.0-0.55-0.495-3.495,0,0,0,68,false,stim,false,1,387.60000002384186,1,0,2,63598,task1,1614285,false,false,1630,image-keyboard-response,19
true,13,0,1,0,true,q,false,true,0.0-2.0-0.55-0.496-3.496,0,0,0,81,false,stim,false,2,429.1999999284744,1,0,1,63598,task1,1616247,false,false,1633,image-keyboard-response,20
true,13,0,1,0,true,q,false,true,0.0-2.0-0.55-0.497-3.497,0,0,0,81,false,stim,false,1,300.7000000476837,1,0,0,63598,task1,1618069,false,false,1636,image-keyboard-response,21
true,13,0,1,0,true,q,false,true,0.0-2.0-0.55-0.498-3.498,0,0,0,81,false,stim,false,2,537.6000000238419,1,0,1,63598,task1,1620128,false,false,1639,image-keyboard-response,22
true,13,0,1,0,true,q,false,true,0.0-2.0-0.55-0.499-3.499,0,0,0,81,false,stim,false,1,320.5,1,0,0,63598,task1,1621961,false,false,1642,image-keyboard-response,23
true,13,2,1,2,true,d,false,true,0.0-2.0-0.55-0.500-3.500,0,0,0,68,false,stim,false,1,370.59999990463257,1,0,2,63598,task1,1623844,false,false,1645,image-keyboard-response,24
true,13,2,1,0,false,q,false,false,0.0-2.0-0.55-0.501-3.501,0,0,0,68,false,stim,true,2,392.1999999284744,1,0,1,63598,task1,1625757,false,false,1648,image-keyboard-response,25
true,13,2,1,2,true,d,false,true,0.0-2.0-0.55-0.502-3.502,0,0,0,68,false,stim,false,1,359.0,1,0,2,63598,task1,1627642,false,false,1651,image-keyboard-response,26
true,13,0,1,0,true,q,false,true,0.0-2.0-0.55-0.503-3.503,0,0,0,81,false,stim,false,1,330.09999990463257,1,0,0,63598,task1,1629505,false,false,1654,image-keyboard-response,27
true,13,0,1,0,true,q,false,true,0.0-2.0-0.56-0.504-3.504,0,0,0,81,false,stim,false,2,481.2000000476837,1,0,1,63598,task1,1631505,false,false,1657,image-keyboard-response,28
true,13,0,1,0,true,q,false,true,0.0-2.0-0.56-0.505-3.505,0,0,0,81,false,stim,false,2,364.10000002384186,1,0,1,63598,task1,1633403,false,false,1660,image-keyboard-response,29
true,13,0,1,0,true,q,false,true,0.0-2.0-0.56-0.506-3.506,0,0,0,81,false,stim,false,1,225.10000002384186,1,0,0,63598,task1,1635147,false,false,1663,image-keyboard-response,30
true,13,0,1,0,true,q,false,true,0.0-2.0-0.56-0.507-3.507,0,0,0,81,false,stim,false,1,421.10000002384186,1,0,0,63598,task1,1637089,false,false,1666,image-keyboard-response,31
true,13,0,1,0,true,q,false,true,0.0-2.0-0.56-0.508-3.508,0,0,0,81,false,stim,false,2,562.7999999523163,1,0,1,63598,task1,1639185,false,false,1669,image-keyboard-response,32
true,13,2,1,2,true,d,false,true,0.0-2.0-0.56-0.509-3.509,0,0,0,68,false,stim,false,1,415.40000009536743,1,0,2,63598,task1,1641118,false,false,1672,image-keyboard-response,33
true,13,0,1,0,true,q,false,true,0.0-2.0-0.56-0.510-3.510,0,0,0,81,false,stim,false,1,383.5,1,0,0,63598,task1,1643023,false,false,1675,image-keyboard-response,34
true,13,2,1,2,true,d,false,true,0.0-2.0-0.56-0.511-3.511,0,0,0,68,false,stim,false,1,391.89999997615814,1,0,2,63598,task1,1644936,false,false,1678,image-keyboard-response,35
true,13,2,1,2,true,d,false,true,0.0-2.0-0.56-0.512-3.512,0,0,0,68,false,stim,false,1,409.89999997615814,1,0,2,63598,task1,1646866,false,false,1681,image-keyboard-response,36
true,13,2,1,2,true,d,false,true,0.0-2.0-0.57-0.513-3.513,0,0,0,68,false,stim,false,1,479.8000000715256,1,0,2,63598,task1,1648872,false,false,1684,image-keyboard-response,37
true,13,2,1,2,true,d,false,true,0.0-2.0-0.57-0.514-3.514,0,0,0,68,false,stim,false,1,394.2000000476837,1,0,2,63598,task1,1650787,false,false,1687,image-keyboard-response,38
true,13,2,1,2,true,d,false,true,0.0-2.0-0.57-0.515-3.515,0,0,0,68,false,stim,false,1,389.60000002384186,1,1,2,63598,task1,1652698,false,false,1690,image-keyboard-response,39
true,13,0,1,0,true,q,false,true,0.0-2.0-0.57-0.516-3.516,0,0,0,81,false,stim,false,2,364.89999997615814,1,1,1,63598,task1,1654587,false,false,1693,image-keyboard-response,40
true,13,0,1,0,true,q,false,true,0.0-2.0-0.57-0.517-3.517,0,0,0,81,false,stim,false,1,378.39999997615814,1,1,0,63598,task1,1656486,false,false,1696,image-keyboard-response,41
true,13,0,1,0,true,q,false,true,0.0-2.0-0.57-0.518-3.518,0,0,0,81,false,stim,false,2,515.7000000476837,1,1,1,63598,task1,1658521,false,false,1699,image-keyboard-response,42
true,13,0,1,0,true,q,false,true,0.0-2.0-0.57-0.519-3.519,0,0,0,81,false,stim,false,1,321.40000009536743,1,1,0,63598,task1,1660367,false,false,1702,image-keyboard-response,43
true,14,2,0,0,false,q,true,false,0.0-2.0-0.57-0.520-3.520,1,1,1,68,true,stim,false,0,1653.1999999284744,1,1,1,63598,task1,1785004,false,false,1825,image-keyboard-response,1
true,14,2,0,0,false,q,true,false,0.0-2.0-0.57-0.521-3.521,1,1,1,68,false,stim,false,0,1042.1999999284744,1,1,0,63598,task1,1787567,false,false,1828,image-keyboard-response,2
true,14,1,0,0,false,q,true,true,0.0-2.0-0.58-0.522-3.522,1,1,1,90,false,stim,false,0,604.2999999523163,1,1,1,63598,task1,1789691,false,true,1831,image-keyboard-response,3
true,14,1,0,0,false,q,true,false,0.0-2.0-0.58-0.523-3.523,1,1,1,90,false,stim,false,0,395.0,1,1,0,63598,task1,1791598,false,false,1834,image-keyboard-response,4
true,14,0,0,0,true,q,false,true,0.0-2.0-0.58-0.524-3.524,1,1,1,81,false,stim,false,0,421.39999997615814,1,1,0,63598,task1,1793541,false,false,1837,image-keyboard-response,5
true,14,2,0,2,true,d,false,true,0.0-2.0-0.58-0.525-3.525,1,1,1,68,false,stim,false,2,713.2000000476837,1,1,2,63598,task1,1795767,false,false,1840,image-keyboard-response,6
true,14,0,0,0,true,q,false,true,0.0-2.0-0.58-0.526-3.526,1,1,1,81,false,stim,false,0,872.0,1,1,0,63598,task1,1798174,false,false,1843,image-keyboard-response,7
true,14,2,0,2,true,d,false,true,0.0-2.0-0.58-0.527-3.527,1,1,1,68,false,stim,false,2,594.2999999523163,1,1,2,63598,task1,1800289,false,false,1846,image-keyboard-response,8
true,14,1,0,0,false,q,true,false,0.0-2.0-0.58-0.528-3.528,1,1,1,90,false,stim,false,0,729.2000000476837,1,0,1,63598,task1,1802548,false,false,1849,image-keyboard-response,9
true,14,2,0,2,true,d,false,true,0.0-2.0-0.58-0.529-3.529,1,1,1,68,false,stim,false,2,754.1000000238419,1,0,2,63598,task1,1804823,false,false,1852,image-keyboard-response,10
true,14,0,0,0,true,q,false,false,0.0-2.0-0.58-0.530-3.530,1,1,1,81,false,stim,false,0,419.5,1,0,1,63598,task1,1806773,false,true,1855,image-keyboard-response,11
true,14,2,0,0,false,q,true,false,0.0-2.0-0.59-0.531-3.531,1,1,1,68,false,stim,false,0,534.7999999523163,1,0,1,63598,task1,1808820,false,false,1858,image-keyboard-response,12
true,14,2,0,2,true,d,false,true,0.0-2.0-0.59-0.532-3.532,1,1,1,68,false,stim,false,2,602.5,1,0,2,63598,task1,1810938,false,false,1861,image-keyboard-response,13
true,15,1,1,1,true,z,false,true,0.0-2.0-0.59-0.533-3.533,0,0,0,90,true,stim,false,0,703.1000000238419,1,0,1,63598,task1,1813157,false,false,1864,image-keyboard-response,1
true,15,1,1,1,true,z,false,false,0.0-2.0-0.59-0.534-3.534,0,0,0,90,false,stim,false,0,381.7999999523163,1,0,1,63598,task1,1815059,false,true,1867,image-keyboard-response,2
true,15,0,1,2,false,d,false,false,0.0-2.0-0.59-0.535-3.535,0,0,0,81,false,stim,true,0,470.10000002384186,1,0,0,63598,task1,1817040,false,false,1870,image-keyboard-response,3
true,15,2,1,2,true,d,false,true,0.0-2.0-0.59-0.536-3.536,0,0,0,68,false,stim,false,0,567.8999999761581,1,0,0,63598,task1,1819121,false,false,1873,image-keyboard-response,4
true,15,2,1,1,false,z,false,false,0.0-2.0-0.59-0.537-3.537,0,0,0,68,false,stim,true,2,328.10000002384186,1,0,2,63598,task1,1820974,false,false,1876,image-keyboard-response,5
true,15,1,1,1,true,z,false,true,0.0-2.0-0.59-0.538-3.538,0,0,0,90,false,stim,false,2,579.6999999284744,1,0,2,63598,task1,1823082,false,false,1879,image-keyboard-response,6
true,15,2,1,2,true,d,false,true,0.0-2.0-0.59-0.539-3.539,0,0,0,68,false,stim,false,0,388.7999999523163,1,0,0,63598,task1,1824991,false,false,1882,image-keyboard-response,7
true,15,2,1,2,true,d,false,true,0.0-2.0-0.60-0.540-3.540,0,0,0,68,false,stim,false,0,877.8999999761581,1,0,0,63598,task1,1827403,false,false,1885,image-keyboard-response,8
true,15,0,1,1,false,z,false,false,0.0-2.0-0.60-0.541-3.541,0,0,0,81,false,stim,true,0,675.7000000476837,1,0,1,63598,task1,1829608,false,false,1888,image-keyboard-response,9
true,15,1,1,1,true,z,false,true,0.0-2.0-0.60-0.542-3.542,0,0,0,90,false,stim,false,2,638.0,1,0,2,63598,task1,1831776,false,false,1891,image-keyboard-response,10
true,15,1,1,1,true,z,false,true,0.0-2.0-0.60-0.543-3.543,0,0,0,90,false,stim,false,0,396.5,1,0,1,63598,task1,1833699,false,false,1894,image-keyboard-response,11
true,15,1,1,1,true,z,false,true,0.0-2.0-0.60-0.544-3.544,0,0,0,90,false,stim,false,2,488.5,1,0,2,63598,task1,1835708,false,false,1897,image-keyboard-response,12
true,15,2,1,2,true,d,false,true,0.0-2.0-0.60-0.545-3.545,0,0,0,68,false,stim,false,0,422.5,1,0,0,63598,task1,1837658,false,false,1900,image-keyboard-response,13
true,15,1,1,1,true,z,false,true,0.0-2.0-0.60-0.546-3.546,0,0,0,90,false,stim,false,2,374.1999999284744,1,0,2,63598,task1,1839564,false,false,1903,image-keyboard-response,14
true,15,2,1,2,true,d,false,true,0.0-2.0-0.60-0.547-3.547,0,0,0,68,false,stim,false,0,446.10000002384186,1,0,0,63598,task1,1841527,false,false,1906,image-keyboard-response,15
true,15,1,1,1,true,z,false,true,0.0-2.0-0.60-0.548-3.548,0,0,0,90,false,stim,false,0,584.3999999761581,1,0,1,63598,task1,1843636,false,false,1909,image-keyboard-response,16
true,15,2,1,2,true,d,false,true,0.0-2.0-0.61-0.549-3.549,0,0,0,68,false,stim,false,0,581.0,1,0,0,63598,task1,1845745,false,false,1912,image-keyboard-response,17
true,15,1,1,1,true,z,false,false,0.0-2.0-0.61-0.550-3.550,0,0,0,90,false,stim,false,0,665.6999999284744,1,0,1,63598,task1,1847940,false,true,1915,image-keyboard-response,18
true,15,2,1,1,false,z,true,false,0.0-2.0-0.61-0.551-3.551,0,0,0,68,false,stim,false,0,623.8000000715256,1,0,1,63598,task1,1850092,false,false,1918,image-keyboard-response,19
true,15,2,1,2,true,d,false,true,0.0-2.0-0.61-0.552-3.552,0,0,0,68,false,stim,false,0,609.3999999761581,1,0,0,63598,task1,1852227,false,false,1921,image-keyboard-response,20
true,15,1,1,1,true,z,false,true,0.0-2.0-0.61-0.553-3.553,0,0,0,90,false,stim,false,2,743.3999999761581,1,0,2,63598,task1,1854486,false,false,1924,image-keyboard-response,21
true,15,0,1,1,false,z,false,false,0.0-2.0-0.61-0.554-3.554,0,0,0,81,false,stim,true,0,516.9000000953674,1,0,1,63598,task1,1856535,false,false,1927,image-keyboard-response,22
true,15,1,1,1,true,z,false,true,0.0-2.0-0.61-0.555-3.555,0,0,0,90,false,stim,false,2,429.10000002384186,1,0,2,63598,task1,1858481,false,false,1930,image-keyboard-response,23
true,15,1,1,1,true,z,false,false,0.0-2.0-0.61-0.556-3.556,0,0,0,90,false,stim,false,2,730.2999999523163,1,0,2,63598,task1,1860731,false,true,1933,image-keyboard-response,24
true,15,2,1,2,true,d,false,true,0.0-2.0-0.61-0.557-3.557,0,0,0,68,false,stim,false,0,471.0,1,0,0,63598,task1,1862725,false,false,1936,image-keyboard-response,25
true,15,1,1,1,true,z,false,false,0.0-2.0-0.62-0.558-3.558,0,0,0,90,false,stim,false,0,390.8000000715256,1,0,1,63598,task1,1864647,false,true,1939,image-keyboard-response,26
true,15,2,1,1,false,z,true,false,0.0-2.0-0.62-0.559-3.559,0,0,0,68,false,stim,false,0,775.3999999761581,1,0,1,63598,task1,1866946,false,false,1942,image-keyboard-response,27
true,15,2,1,2,true,d,false,true,0.0-2.0-0.62-0.560-3.560,0,0,0,68,false,stim,false,0,654.0,1,0,0,63598,task1,1869132,false,false,1945,image-keyboard-response,28
true,15,2,1,1,false,z,false,false,0.0-2.0-0.62-0.561-3.561,0,0,0,68,false,stim,true,2,300.0,1,0,2,63598,task1,1870968,false,false,1948,image-keyboard-response,29
true,15,0,1,1,false,z,true,false,0.0-2.0-0.62-0.562-3.562,0,0,0,81,false,stim,false,2,905.0,1,0,2,63598,task1,1873402,false,false,1951,image-keyboard-response,30
true,15,2,1,2,true,d,false,true,0.0-2.0-0.62-0.563-3.563,0,0,0,68,false,stim,false,0,677.5999999046326,1,0,0,63598,task1,1875595,false,false,1954,image-keyboard-response,31
true,15,1,1,1,true,z,false,true,0.0-2.0-0.62-0.564-3.564,0,0,0,90,false,stim,false,2,700.8999999761581,1,0,2,63598,task1,1877820,false,false,1957,image-keyboard-response,32
true,15,2,1,2,true,d,false,true,0.0-2.0-0.62-0.565-3.565,0,0,0,68,false,stim,false,0,629.6999999284744,1,0,0,63598,task1,1879964,false,false,1960,image-keyboard-response,33
true,15,0,1,1,false,z,false,false,0.0-2.0-0.62-0.566-3.566,0,0,0,81,false,stim,true,0,390.10000002384186,1,0,1,63598,task1,1881880,false,false,1963,image-keyboard-response,34
true,15,2,1,2,true,d,false,true,0.0-2.0-0.63-0.567-3.567,0,0,0,68,false,stim,false,0,463.8000000715256,1,0,0,63598,task1,1883868,false,false,1966,image-keyboard-response,35
true,15,1,1,1,true,z,false,true,0.0-2.0-0.63-0.568-3.568,0,0,0,90,false,stim,false,0,672.1000000238419,1,0,1,63598,task1,1886057,false,false,1969,image-keyboard-response,36
true,15,1,1,1,true,z,false,true,0.0-2.0-0.63-0.569-3.569,0,0,0,90,false,stim,false,0,466.2000000476837,1,0,1,63598,task1,1888054,false,false,1972,image-keyboard-response,37
true,15,2,1,2,true,d,false,true,0.0-2.0-0.63-0.570-3.570,0,0,0,68,false,stim,false,0,685.8000000715256,1,0,0,63598,task1,1890260,false,false,1975,image-keyboard-response,38
true,15,1,1,1,true,z,false,true,0.0-2.0-0.63-0.571-3.571,0,0,0,90,false,stim,false,2,553.5,1,0,2,63598,task1,1892348,false,false,1978,image-keyboard-response,39
true,15,1,1,1,true,z,false,true,0.0-2.0-0.63-0.572-3.572,0,0,0,90,false,stim,false,2,731.6999999284744,1,0,2,63598,task1,1894607,false,false,1981,image-keyboard-response,40
true,16,1,2,2,false,d,false,false,0.0-2.0-0.63-0.573-3.573,0,0,0,90,true,stim,true,1,599.6000000238419,1,0,2,63598,task1,1896735,false,false,1984,image-keyboard-response,1
true,16,2,2,1,false,z,false,false,0.0-2.0-0.63-0.574-3.574,0,0,0,68,false,stim,true,2,478.10000002384186,1,0,0,63598,task1,1898729,false,false,1987,image-keyboard-response,2
true,16,1,2,0,false,q,false,false,0.0-2.0-0.63-0.575-3.575,0,0,0,90,false,stim,true,1,601.8999999761581,1,0,1,63598,task1,1900854,false,false,1990,image-keyboard-response,3
true,16,0,2,1,false,z,true,false,0.0-2.0-0.64-0.576-3.576,0,0,0,81,false,stim,false,2,962.1000000238419,1,0,0,63598,task1,1903345,false,false,1993,image-keyboard-response,4
true,16,1,2,1,true,z,false,true,0.0-2.0-0.64-0.577-3.577,0,0,0,90,false,stim,false,2,1167.0,1,0,0,63598,task1,1906035,false,false,1996,image-keyboard-response,5
true,16,0,2,0,true,q,false,true,0.0-2.0-0.64-0.578-3.578,0,0,0,81,false,stim,false,1,1022.3999999761581,1,0,1,63598,task1,1908579,false,false,1999,image-keyboard-response,6
true,16,0,2,0,true,q,false,true,0.0-2.0-0.64-0.579-3.579,0,0,0,81,false,stim,false,1,580.3999999761581,1,0,1,63598,task1,1910687,false,false,2002,image-keyboard-response,7
true,16,2,2,2,true,d,false,true,0.0-2.0-0.64-0.580-3.580,0,0,0,68,false,stim,false,1,629.0,1,0,2,63598,task1,1912847,false,false,2005,image-keyboard-response,8
true,16,0,2,0,true,q,false,true,0.0-2.0-0.64-0.581-3.581,0,0,0,81,false,stim,false,1,690.8999999761581,1,0,1,63598,task1,1915058,false,false,2008,image-keyboard-response,9
true,16,2,2,2,true,d,false,true,0.0-2.0-0.64-0.582-3.582,0,0,0,68,false,stim,false,1,529.9000000953674,1,0,2,63598,task1,1917101,false,false,2011,image-keyboard-response,10
true,16,2,2,2,true,d,false,true,0.0-2.0-0.64-0.583-3.583,0,0,0,68,false,stim,false,1,566.8999999761581,1,0,2,63598,task1,1919185,false,false,2014,image-keyboard-response,11
true,16,1,2,1,true,z,false,true,0.0-2.0-0.64-0.584-3.584,0,0,0,90,false,stim,false,2,391.1999999284744,1,0,0,63598,task1,1921092,false,false,2017,image-keyboard-response,12
true,16,2,2,2,true,d,false,true,0.0-2.0-0.65-0.585-3.585,0,0,0,68,false,stim,false,1,440.60000002384186,1,0,2,63598,task1,1923047,false,false,2020,image-keyboard-response,13
true,16,0,2,0,true,q,false,true,0.0-2.0-0.65-0.586-3.586,0,0,0,81,false,stim,false,1,406.0,1,0,1,63598,task1,1924972,false,false,2023,image-keyboard-response,14
true,16,1,2,1,true,z,false,true,0.0-2.0-0.65-0.587-3.587,0,0,0,90,false,stim,false,2,481.0,1,0,0,63598,task1,1926966,false,false,2026,image-keyboard-response,15
true,16,0,2,2,false,d,true,false,0.0-2.0-0.65-0.588-3.588,0,0,0,81,false,stim,false,1,868.2999999523163,1,0,2,63598,task1,1929354,false,false,2029,image-keyboard-response,16
true,16,1,2,0,false,q,false,false,0.0-2.0-0.65-0.589-3.589,0,0,0,90,false,stim,true,1,678.6999999284744,1,0,1,63598,task1,1931563,false,false,2032,image-keyboard-response,17
true,16,2,2,0,false,q,true,false,0.0-2.0-0.65-0.590-3.590,0,0,0,68,false,stim,false,1,549.2999999523163,1,0,1,63598,task1,1933634,false,false,2035,image-keyboard-response,18
