answered,blockNum,choice,condition,corResp,correct,correct_response,explo,fb,internal_node_id,isStable_1,isStable_2,isStable_3,key_press,newBlock,part,persev,persevResp,rt,sessNum,stableAS,stimulus,subject,task,time_elapsed,training,trap,trial_index,trial_type,trialsInBlock
true,1,0,0,0,true,q,false,true,0.0-2.0-0.0-0.0-3.0,0,0,0,81,true,stim,false,-1,981.5,2,0,0,63598,task2,178721,false,false,178,image-keyboard-response,1
true,1,2,0,1,false,z,true,false,0.0-2.0-0.0-0.1-3.1,0,0,0,68,false,stim,false,-1,544.7999999523163,2,0,1,63598,task2,180784,false,false,181,image-keyboard-response,2
true,1,0,0,2,false,d,true,false,0.0-2.0-0.0-0.2-3.2,0,0,0,81,false,stim,false,-1,894.3999999761581,2,0,2,63598,task2,183192,false,false,184,image-keyboard-response,3
true,1,1,0,1,true,z,false,true,0.0-2.0-0.0-0.3-3.3,0,0,0,90,false,stim,false,-1,725.2999999523163,2,0,1,63598,task2,185433,false,false,187,image-keyboard-response,4
true,1,0,0,0,true,q,false,true,0.0-2.0-0.0-0.4-3.4,0,0,0,81,false,stim,false,-1,519.6999999284744,2,0,0,63598,task2,187469,false,false,190,image-keyboard-response,5
true,1,2,0,2,true,d,false,true,0.0-2.0-0.0-0.5-3.5,0,0,0,68,false,stim,false,-1,687.7000000476837,2,0,2,63598,task2,189684,false,false,193,image-keyboard-response,6
true,1,0,0,0,true,q,false,true,0.0-2.0-0.0-0.6-3.6,0,0,0,81,false,stim,false,-1,624.5,2,0,0,63598,task2,191823,false,false,196,image-keyboard-response,7
true,1,1,0,1,true,z,false,true,0.0-2.0-0.0-0.7-3.7,0,0,0,90,false,stim,false,-1,355.2999999523163,2,0,1,63598,task2,193694,false,false,199,image-keyboard-response,8
true,1,2,0,2,true,d,false,false,0.0-2.0-0.0-0.8-3.8,0,0,0,68,false,stim,false,-1,498.5,2,0,2,63598,task2,195707,false,true,202,image-keyboard-response,9
true,1,0,0,0,true,q,false,true,0.0-2.0-0.1-0.9-3.9,0,0,0,81,false,stim,false,-1,633.5,2,0,0,63598,task2,197862,false,false,205,image-keyboard-response,10
true,1,1,0,2,false,d,true,true,0.0-2.0-0.1-0.10-3.10,0,0,0,90,false,stim,false,-1,660.5,2,0,2,63598,task2,200039,false,true,208,image-keyboard-response,11
true,1,1,0,2,false,d,true,false,0.0-2.0-0.1-0.11-3.11,0,0,0,90,false,stim,false,-1,502.60000002384186,2,0,2,63598,task2,202061,false,false,211,image-keyboard-response,12
true,1,0,0,0,true,q,false,true,0.0-2.0-0.1-0.12-3.12,0,0,0,81,false,stim,false,-1,820.0999999046326,2,0,0,63598,task2,204399,false,false,214,image-keyboard-response,13
true,1,1,0,1,true,z,false,false,0.0-2.0-0.1-0.13-3.13,0,0,0,90,false,stim,false,-1,1173.6000000238419,2,0,1,63598,task2,207092,false,true,217,image-keyboard-response,14
true,1,0,0,1,false,z,true,false,0.0-2.0-0.1-0.14-3.14,0,0,0,81,false,stim,false,-1,673.2999999523163,2,0,1,63598,task2,209282,false,false,220,image-keyboard-response,15
true,1,2,0,1,false,z,true,false,0.0-2.0-0.1-0.15-3.15,0,0,0,68,false,stim,false,-1,385.10000002384186,2,0,1,63598,task2,211183,false,false,223,image-keyboard-response,16
true,1,1,0,2,false,d,true,false,0.0-2.0-0.1-0.16-3.16,0,0,0,90,false,stim,false,-1,402.2999999523163,2,0,2,63598,task2,213101,false,false,226,image-keyboard-response,17
true,1,0,0,0,true,q,false,true,0.0-2.0-0.1-0.17-3.17,0,0,0,81,false,stim,false,-1,499.2000000476837,2,0,0,63598,task2,215118,false,false,229,image-keyboard-response,18
true,1,0,0,1,false,z,true,false,0.0-2.0-0.2-0.18-3.18,0,0,0,81,false,stim,false,-1,1038.1000000238419,2,0,1,63598,task2,217676,false,false,232,image-keyboard-response,19
true,1,2,0,2,true,d,false,true,0.0-2.0-0.2-0.19-3.19,0,0,0,68,false,stim,false,-1,454.10000002384186,2,0,2,63598,task2,219652,false,false,235,image-keyboard-response,20
true,1,2,0,1,false,z,true,false,0.0-2.0-0.2-0.20-3.20,0,0,0,68,false,stim,false,-1,1250.7000000476837,2,0,1,63598,task2,222419,false,false,238,image-keyboard-response,21
true,1,0,0,0,true,q,false,true,0.0-2.0-0.2-0.21-3.21,0,0,0,81,false,stim,false,-1,366.2000000476837,2,0,0,63598,task2,224305,false,false,241,image-keyboard-response,22
true,1,2,0,2,true,d,false,true,0.0-2.0-0.2-0.22-3.22,0,0,0,68,false,stim,false,-1,364.5,2,0,2,63598,task2,226193,false,false,244,image-keyboard-response,23
true,1,1,0,1,true,z,false,true,0.0-2.0-0.2-0.23-3.23,0,0,0,90,false,stim,false,-1,357.60000002384186,2,1,1,63598,task2,228066,false,false,247,image-keyboard-response,24
true,1,0,0,0,true,q,false,true,0.0-2.0-0.2-0.24-3.24,0,0,0,81,false,stim,false,-1,558.1999999284744,2,0,0,63598,task2,230146,false,false,250,image-keyboard-response,25
true,1,2,0,2,true,d,false,true,0.0-2.0-0.2-0.25-3.25,0,0,0,68,false,stim,false,-1,468.60000002384186,2,0,2,63598,task2,232137,false,false,253,image-keyboard-response,26
true,2,0,2,1,false,z,false,false,0.0-2.0-0.2-0.26-3.26,0,1,0,81,true,stim,true,0,1125.7000000476837,2,0,0,63598,task2,234785,false,false,256,image-keyboard-response,1
true,2,1,2,1,true,z,false,true,0.0-2.0-0.3-0.27-3.27,0,1,0,90,false,stim,false,1,619.3999999761581,2,1,1,63598,task2,236917,false,false,259,image-keyboard-response,2
true,2,1,2,1,true,z,false,true,0.0-2.0-0.3-0.28-3.28,0,1,0,90,false,stim,false,1,521.5,2,1,1,63598,task2,238960,false,false,262,image-keyboard-response,3
true,2,1,2,1,true,z,false,true,0.0-2.0-0.3-0.29-3.29,0,1,0,90,false,stim,false,0,782.1999999284744,2,0,0,63598,task2,241261,false,false,265,image-keyboard-response,4
true,2,1,2,1,true,z,false,true,0.0-2.0-0.3-0.30-3.30,0,1,0,90,false,stim,false,1,582.3999999761581,2,1,1,63598,task2,243361,false,false,268,image-keyboard-response,5
true,2,2,2,0,false,q,false,false,0.0-2.0-0.3-0.31-3.31,0,1,0,68,false,stim,true,2,405.2999999523163,2,0,2,63598,task2,245284,false,false,271,image-keyboard-response,6
true,2,1,2,0,false,q,true,true,0.0-2.0-0.3-0.32-3.32,0,1,0,90,false,stim,false,2,1413.4000000953674,2,0,2,63598,task2,248212,false,true,274,image-keyboard-response,7
true,2,1,2,1,true,z,false,false,0.0-2.0-0.3-0.33-3.33,0,1,0,90,false,stim,false,0,770.7999999523163,2,0,0,63598,task2,250509,false,true,277,image-keyboard-response,8
true,2,1,2,0,false,q,true,false,0.0-2.0-0.3-0.34-3.34,0,1,0,90,false,stim,false,2,422.5,2,0,2,63598,task2,252451,false,false,280,image-keyboard-response,9
true,2,0,2,1,false,z,false,false,0.0-2.0-0.3-0.35-3.35,0,1,0,81,false,stim,true,0,1033.1999999284744,2,0,0,63598,task2,255001,false,false,283,image-keyboard-response,10
true,2,2,2,1,false,z,true,false,0.0-2.0-0.4-0.36-3.36,0,1,0,68,false,stim,false,0,555.0,2,0,0,63598,task2,257073,false,false,286,image-keyboard-response,11
true,2,1,2,1,true,z,false,true,0.0-2.0-0.4-0.37-3.37,0,1,0,90,false,stim,false,1,717.3999999761581,2,1,1,63598,task2,259305,false,false,289,image-keyboard-response,12
true,2,2,2,0,false,q,false,false,0.0-2.0-0.4-0.38-3.38,0,1,0,68,false,stim,true,2,1255.6000000238419,2,0,2,63598,task2,262074,false,false,292,image-keyboard-response,13
true,2,0,2,0,true,q,false,true,0.0-2.0-0.4-0.39-3.39,0,1,0,81,false,stim,false,2,558.0999999046326,2,0,2,63598,task2,264146,false,false,295,image-keyboard-response,14
true,2,0,2,0,true,q,false,true,0.0-2.0-0.4-0.40-3.40,0,1,0,81,false,stim,false,2,390.6999999284744,2,0,2,63598,task2,266059,false,false,298,image-keyboard-response,15
true,2,1,2,1,true,z,false,true,0.0-2.0-0.4-0.41-3.41,0,1,0,90,false,stim,false,1,1308.2000000476837,2,1,1,63598,task2,268888,false,false,301,image-keyboard-response,16
true,2,1,2,1,true,z,false,true,0.0-2.0-0.4-0.42-3.42,0,1,0,90,false,stim,false,1,717.0,2,1,1,63598,task2,271125,false,false,304,image-keyboard-response,17
true,2,0,2,1,false,z,false,false,0.0-2.0-0.4-0.43-3.43,0,1,0,81,false,stim,true,0,940.8999999761581,2,0,0,63598,task2,273578,false,false,307,image-keyboard-response,18
true,2,2,2,1,false,z,true,false,0.0-2.0-0.4-0.44-3.44,0,1,0,68,false,stim,false,0,615.6000000238419,2,0,0,63598,task2,275713,false,false,310,image-keyboard-response,19
true,2,1,2,1,true,z,false,true,0.0-2.0-0.5-0.45-3.45,0,1,0,90,false,stim,false,0,590.6000000238419,2,0,0,63598,task2,277819,false,false,313,image-keyboard-response,20
true,2,1,2,1,true,z,false,true,0.0-2.0-0.5-0.46-3.46,0,1,0,90,false,stim,false,0,468.10000002384186,2,0,0,63598,task2,279806,false,false,316,image-keyboard-response,21
true,2,1,2,1,true,z,false,true,0.0-2.0-0.5-0.47-3.47,0,1,0,90,false,stim,false,0,585.6000000238419,2,0,0,63598,task2,281914,false,false,319,image-keyboard-response,22
true,2,0,2,1,false,z,true,false,0.0-2.0-0.5-0.48-3.48,0,1,0,81,false,stim,false,1,972.5,2,1,1,63598,task2,284401,false,false,322,image-keyboard-response,23
true,2,1,2,1,true,z,false,true,0.0-2.0-0.5-0.49-3.49,0,1,0,90,false,stim,false,1,473.5,2,1,1,63598,task2,286402,false,false,325,image-keyboard-response,24
true,2,2,2,0,false,q,false,false,0.0-2.0-0.5-0.50-3.50,0,1,0,68,false,stim,true,2,908.6000000238419,2,0,2,63598,task2,288827,false,false,328,image-keyboard-response,25
true,2,0,2,0,true,q,false,true,0.0-2.0-0.5-0.51-3.51,0,1,0,81,false,stim,false,2,565.8999999761581,2,0,2,63598,task2,290914,false,false,331,image-keyboard-response,26
true,2,1,2,1,true,z,false,true,0.0-2.0-0.5-0.52-3.52,0,1,0,90,false,stim,false,1,919.8999999761581,2,1,1,63598,task2,293348,false,false,334,image-keyboard-response,27
true,2,0,2,0,true,q,false,true,0.0-2.0-0.5-0.53-3.53,0,1,0,81,false,stim,false,2,522.3000000715256,2,0,2,63598,task2,295390,false,false,337,image-keyboard-response,28
true,2,1,2,0,false,q,true,false,0.0-2.0-0.6-0.54-3.54,0,1,0,90,false,stim,false,2,581.5999999046326,2,0,2,63598,task2,297490,false,false,340,image-keyboard-response,29
true,2,1,2,1,true,z,false,true,0.0-2.0-0.6-0.55-3.55,0,1,0,90,false,stim,false,0,1557.6000000238419,2,0,0,63598,task2,300566,false,false,343,image-keyboard-response,30
true,2,1,2,1,true,z,false,false,0.0-2.0-0.6-0.56-3.56,0,1,0,90,false,stim,false,0,515.2999999523163,2,0,0,63598,task2,302604,false,true,346,image-keyboard-response,31
true,2,0,2,1,false,z,true,false,0.0-2.0-0.6-0.57-3.57,0,1,0,81,false,stim,false,1,1080.6999999284744,2,0,1,63598,task2,305208,false,false,349,image-keyboard-response,32
true,3,0,1,2,false,d,true,false,0.0-2.0-0.6-0.58-3.58,0,0,0,81,true,stim,false,1,357.39999997615814,2,0,0,63598,task2,307085,false,false,352,image-keyboard-response,1
true,3,1,1,2,false,d,false,false,0.0-2.0-0.6-0.59-3.59,0,0,0,90,false,stim,true,1,847.3999999761581,2,0,1,63598,task2,309456,false,false,355,image-keyboard-response,2
true,3,1,1,1,true,z,false,true,0.0-2.0-0.6-0.60-3.60,0,0,0,90,false,stim,false,0,626.2999999523163,2,0,2,63598,task2,311605,false,false,358,image-keyboard-response,3
true,3,1,1,1,true,z,false,true,0.0-2.0-0.6-0.61-3.61,0,0,0,90,false,stim,false,0,688.4000000953674,2,0,2,63598,task2,313806,false,false,361,image-keyboard-response,4
true,3,2,1,2,true,d,false,true,0.0-2.0-0.6-0.62-3.62,0,0,0,68,false,stim,false,1,1408.9000000953674,2,0,1,63598,task2,316737,false,false,364,image-keyboard-response,5
true,3,2,1,2,true,d,false,true,0.0-2.0-0.7-0.63-3.63,0,0,0,68,false,stim,false,1,1187.1000000238419,2,0,0,63598,task2,319446,false,false,367,image-keyboard-response,6
true,3,2,1,2,true,d,false,true,0.0-2.0-0.7-0.64-3.64,0,0,0,68,false,stim,false,1,638.6999999284744,2,0,1,63598,task2,321606,false,false,370,image-keyboard-response,7
true,3,1,1,1,true,z,false,true,0.0-2.0-0.7-0.65-3.65,0,0,0,90,false,stim,false,0,545.0999999046326,2,0,2,63598,task2,323675,false,false,373,image-keyboard-response,8
true,3,2,1,2,true,d,false,true,0.0-2.0-0.7-0.66-3.66,0,0,0,68,false,stim,false,1,584.7999999523163,2,0,0,63598,task2,325773,false,false,376,image-keyboard-response,9
true,3,1,1,2,false,d,false,false,0.0-2.0-0.7-0.67-3.67,0,0,0,90,false,stim,true,1,598.7000000476837,2,0,1,63598,task2,327887,false,false,379,image-keyboard-response,10
true,3,1,1,1,true,z,false,true,0.0-2.0-0.7-0.68-3.68,0,0,0,90,false,stim,false,0,516.4000000953674,2,0,2,63598,task2,329915,false,false,382,image-keyboard-response,11
true,3,2,1,2,true,d,false,true,0.0-2.0-0.7-0.69-3.69,0,0,0,68,false,stim,false,1,514.2999999523163,2,0,0,63598,task2,331943,false,false,385,image-keyboard-response,12
true,3,2,1,2,true,d,false,true,0.0-2.0-0.7-0.70-3.70,0,0,0,68,false,stim,false,1,355.5,2,0,1,63598,task2,333814,false,false,388,image-keyboard-response,13
true,3,1,1,1,true,z,false,true,0.0-2.0-0.7-0.71-3.71,0,0,0,90,false,stim,false,0,326.7000000476837,2,0,2,63598,task2,335655,false,false,391,image-keyboard-response,14
true,3,1,1,1,true,z,false,true,0.0-2.0-0.8-0.72-3.72,0,0,0,90,false,stim,false,0,369.39999997615814,2,0,2,63598,task2,337538,false,false,394,image-keyboard-response,15
true,3,1,1,1,true,z,false,true,0.0-2.0-0.8-0.73-3.73,0,0,0,90,false,stim,false,0,386.60000002384186,2,0,2,63598,task2,339445,false,false,397,image-keyboard-response,16
true,3,2,1,2,true,d,false,true,0.0-2.0-0.8-0.74-3.74,0,0,0,68,false,stim,false,1,541.7999999523163,2,0,1,63598,task2,341509,false,false,400,image-keyboard-response,17
true,3,2,1,2,true,d,false,true,0.0-2.0-0.8-0.75-3.75,0,0,0,68,false,stim,false,1,345.5,2,0,1,63598,task2,343374,false,false,403,image-keyboard-response,18
true,3,1,1,1,true,z,false,true,0.0-2.0-0.8-0.76-3.76,0,0,0,90,false,stim,false,0,1041.3999999761581,2,0,2,63598,task2,345929,false,false,406,image-keyboard-response,19
true,3,2,1,2,true,d,false,true,0.0-2.0-0.8-0.77-3.77,0,0,0,68,false,stim,false,1,1509.5,2,0,1,63598,task2,348959,false,false,409,image-keyboard-response,20
true,3,2,1,2,true,d,false,true,0.0-2.0-0.8-0.78-3.78,0,0,0,68,false,stim,false,1,572.6999999284744,2,0,0,63598,task2,351052,false,false,412,image-keyboard-response,21
true,3,2,1,2,true,d,false,true,0.0-2.0-0.8-0.79-3.79,0,0,0,68,false,stim,false,1,415.3000000715256,2,0,0,63598,task2,352984,false,false,415,image-keyboard-response,22
true,3,2,1,2,true,d,false,true,0.0-2.0-0.8-0.80-3.80,0,0,0,68,false,stim,false,1,460.7000000476837,2,0,0,63598,task2,354959,false,false,418,image-keyboard-response,23
true,3,2,1,2,true,d,false,true,0.0-2.0-0.9-0.81-3.81,0,0,0,68,false,stim,false,1,575.2000000476837,2,0,1,63598,task2,357053,false,false,421,image-keyboard-response,24
true,3,2,1,2,true,d,false,true,0.0-2.0-0.9-0.82-3.82,0,0,0,68,false,stim,false,1,387.5,2,0,1,63598,task2,358955,false,false,424,image-keyboard-response,25
true,3,2,1,2,true,d,false,true,0.0-2.0-0.9-0.83-3.83,0,0,0,68,false,stim,false,1,544.5,2,0,0,63598,task2,361008,false,false,427,image-keyboard-response,26
true,3,1,1,1,true,z,false,true,0.0-2.0-0.9-0.84-3.84,0,0,0,90,false,stim,false,0,473.40000009536743,2,0,2,63598,task2,363001,false,false,430,image-keyboard-response,27
true,3,1,1,1,true,z,false,true,0.0-2.0-0.9-0.85-3.85,0,0,0,90,false,stim,false,0,353.7999999523163,2,0,2,63598,task2,364872,false,false,433,image-keyboard-response,28
true,3,1,1,1,true,z,false,true,0.0-2.0-0.9-0.86-3.86,0,0,0,90,false,stim,false,0,439.3000000715256,2,0,2,63598,task2,366827,false,false,436,image-keyboard-response,29
true,3,2,1,2,true,d,false,true,0.0-2.0-0.9-0.87-3.87,0,0,0,68,false,stim,false,1,503.10000002384186,2,0,0,63598,task2,368852,false,false,439,image-keyboard-response,30
true,3,2,1,2,true,d,false,true,0.0-2.0-0.9-0.88-3.88,0,0,0,68,false,stim,false,1,585.3000000715256,2,0,1,63598,task2,370954,false,false,442,image-keyboard-response,31
true,3,2,1,2,true,d,false,true,0.0-2.0-0.9-0.89-3.89,0,0,0,68,false,stim,false,1,473.7999999523163,2,0,0,63598,task2,372942,false,false,445,image-keyboard-response,32
true,3,2,1,2,true,d,false,true,0.0-2.0-0.10-0.90-3.90,0,0,0,68,false,stim,false,1,639.7999999523163,2,0,1,63598,task2,375098,false,false,448,image-keyboard-response,33
true,3,1,1,1,true,z,false,false,0.0-2.0-0.10-0.91-3.91,0,0,0,90,false,stim,false,0,775.0999999046326,2,0,2,63598,task2,377394,false,true,451,image-keyboard-response,34
true,3,2,1,2,true,d,false,false,0.0-2.0-0.10-0.92-3.92,0,0,0,68,false,stim,false,1,1811.1000000238419,2,0,1,63598,task2,380720,false,true,454,image-keyboard-response,35
true,4,2,1,1,false,z,false,false,0.0-2.0-0.10-0.93-3.93,0,0,0,68,true,stim,true,2,528.0999999046326,2,0,0,63598,task2,382768,false,false,457,image-keyboard-response,1
true,4,1,1,1,true,z,false,true,0.0-2.0-0.10-0.94-3.94,0,0,0,90,false,stim,false,2,410.89999997615814,2,0,0,63598,task2,384699,false,false,460,image-keyboard-response,2
true,4,1,1,0,false,q,false,false,0.0-2.0-0.10-0.95-3.95,0,0,0,90,false,stim,true,1,560.0,2,0,2,63598,task2,386779,false,false,463,image-keyboard-response,3
true,4,1,1,1,true,z,false,true,0.0-2.0-0.10-0.96-3.96,0,0,0,90,false,stim,false,2,444.2000000476837,2,0,0,63598,task2,388742,false,false,466,image-keyboard-response,4
true,4,1,1,0,false,q,true,false,0.0-2.0-0.10-0.97-3.97,0,0,0,90,false,stim,false,2,605.0999999046326,2,0,1,63598,task2,390863,false,false,469,image-keyboard-response,5
true,4,0,1,0,true,q,false,true,0.0-2.0-0.10-0.98-3.98,0,0,0,81,false,stim,false,1,731.0999999046326,2,0,2,63598,task2,393109,false,false,472,image-keyboard-response,6
true,4,0,1,0,true,q,false,true,0.0-2.0-0.11-0.99-3.99,0,0,0,81,false,stim,false,1,625.8000000715256,2,0,2,63598,task2,395252,false,false,475,image-keyboard-response,7
true,4,0,1,0,true,q,false,true,0.0-2.0-0.11-0.100-3.100,0,0,0,81,false,stim,false,2,1167.2000000476837,2,0,1,63598,task2,397935,false,false,478,image-keyboard-response,8
true,4,0,1,0,true,q,false,true,0.0-2.0-0.11-0.101-3.101,0,0,0,81,false,stim,false,2,531.7999999523163,2,0,1,63598,task2,399980,false,false,481,image-keyboard-response,9
true,4,0,1,0,true,q,false,true,0.0-2.0-0.11-0.102-3.102,0,0,0,81,false,stim,false,1,361.0,2,0,2,63598,task2,401859,false,false,484,image-keyboard-response,10
true,4,0,1,0,true,q,false,true,0.0-2.0-0.11-0.103-3.103,0,0,0,81,false,stim,false,1,504.0,2,0,2,63598,task2,403882,false,false,487,image-keyboard-response,11
true,4,1,1,1,true,z,false,true,0.0-2.0-0.11-0.104-3.104,0,0,0,90,false,stim,false,2,625.6000000238419,2,0,0,63598,task2,406024,false,false,490,image-keyboard-response,12
true,4,1,1,1,true,z,false,true,0.0-2.0-0.11-0.105-3.105,0,0,0,90,false,stim,false,2,357.0,2,0,0,63598,task2,407896,false,false,493,image-keyboard-response,13
true,4,1,1,1,true,z,false,true,0.0-2.0-0.11-0.106-3.106,0,0,0,90,false,stim,false,2,390.60000002384186,2,0,0,63598,task2,409799,false,false,496,image-keyboard-response,14
true,4,0,1,0,true,q,false,true,0.0-2.0-0.11-0.107-3.107,0,0,0,81,false,stim,false,2,629.7999999523163,2,0,1,63598,task2,411948,false,false,499,image-keyboard-response,15
true,4,0,1,0,true,q,false,true,0.0-2.0-0.12-0.108-3.108,0,0,0,81,false,stim,false,1,355.10000002384186,2,0,2,63598,task2,413823,false,false,502,image-keyboard-response,16
true,4,0,1,0,true,q,false,true,0.0-2.0-0.12-0.109-3.109,0,0,0,81,false,stim,false,1,316.7000000476837,2,0,2,63598,task2,415655,false,false,505,image-keyboard-response,17
true,4,0,1,0,true,q,false,true,0.0-2.0-0.12-0.110-3.110,0,0,0,81,false,stim,false,2,494.6999999284744,2,0,1,63598,task2,417663,false,false,508,image-keyboard-response,18
true,4,1,1,1,true,z,false,true,0.0-2.0-0.12-0.111-3.111,0,0,0,90,false,stim,false,2,546.6999999284744,2,0,0,63598,task2,419725,false,false,511,image-keyboard-response,19
true,4,1,1,1,true,z,false,true,0.0-2.0-0.12-0.112-3.112,0,0,0,90,false,stim,false,2,414.0,2,0,0,63598,task2,421652,false,false,514,image-keyboard-response,20
true,4,0,1,0,true,q,false,true,0.0-2.0-0.12-0.113-3.113,0,0,0,81,false,stim,false,1,485.89999997615814,2,0,2,63598,task2,423654,false,false,517,image-keyboard-response,21
true,4,0,1,0,true,q,false,true,0.0-2.0-0.12-0.114-3.114,0,0,0,81,false,stim,false,2,587.6000000238419,2,0,1,63598,task2,425756,false,false,520,image-keyboard-response,22
true,4,1,1,1,true,z,false,true,0.0-2.0-0.12-0.115-3.115,0,0,0,90,false,stim,false,2,615.3999999761581,2,0,0,63598,task2,427893,false,false,523,image-keyboard-response,23
true,4,0,1,0,true,q,false,true,0.0-2.0-0.12-0.116-3.116,0,0,0,81,false,stim,false,2,677.1000000238419,2,0,1,63598,task2,430086,false,false,526,image-keyboard-response,24
true,4,1,1,1,true,z,false,true,0.0-2.0-0.13-0.117-3.117,0,0,0,90,false,stim,false,2,574.7999999523163,2,0,0,63598,task2,432183,false,false,529,image-keyboard-response,25
true,4,1,1,1,true,z,false,true,0.0-2.0-0.13-0.118-3.118,0,0,0,90,false,stim,false,2,474.1999999284744,2,0,0,63598,task2,434172,false,false,532,image-keyboard-response,26
true,4,0,1,0,true,q,false,true,0.0-2.0-0.13-0.119-3.119,0,0,0,81,false,stim,false,1,419.8000000715256,2,0,2,63598,task2,436107,false,false,535,image-keyboard-response,27
true,4,0,1,0,true,q,false,true,0.0-2.0-0.13-0.120-3.120,0,0,0,81,false,stim,false,2,956.2999999523163,2,0,1,63598,task2,438585,false,false,538,image-keyboard-response,28
true,4,0,1,0,true,q,false,true,0.0-2.0-0.13-0.121-3.121,0,0,0,81,false,stim,false,2,373.7000000476837,2,0,1,63598,task2,440472,false,false,541,image-keyboard-response,29
true,4,1,1,1,true,z,false,true,0.0-2.0-0.13-0.122-3.122,0,0,0,90,false,stim,false,2,606.5,2,0,0,63598,task2,442605,false,false,544,image-keyboard-response,30
true,4,0,1,0,true,q,false,true,0.0-2.0-0.13-0.123-3.123,0,0,0,81,false,stim,false,2,395.60000002384186,2,0,1,63598,task2,444513,false,false,547,image-keyboard-response,31
true,4,0,1,0,true,q,false,false,0.0-2.0-0.13-0.124-3.124,0,0,0,81,false,stim,false,1,476.7999999523163,2,0,2,63598,task2,446504,false,true,550,image-keyboard-response,32
true,4,2,1,0,false,q,true,false,0.0-2.0-0.13-0.125-3.125,0,0,0,68,false,stim,false,1,657.3000000715256,2,0,2,63598,task2,448686,false,false,553,image-keyboard-response,33
true,4,0,1,0,true,q,false,true,0.0-2.0-0.14-0.126-3.126,0,0,0,81,false,stim,false,2,525.8999999761581,2,1,1,63598,task2,450724,false,false,556,image-keyboard-response,34
true,4,1,1,1,true,z,false,true,0.0-2.0-0.14-0.127-3.127,0,0,0,90,false,stim,false,2,336.7999999523163,2,0,0,63598,task2,452575,false,false,559,image-keyboard-response,35
true,4,1,1,0,false,q,false,false,0.0-2.0-0.14-0.128-3.128,0,0,0,90,false,stim,true,1,617.5,2,0,2,63598,task2,454705,false,false,562,image-keyboard-response,36
true,4,0,1,0,true,q,false,true,0.0-2.0-0.14-0.129-3.129,0,0,0,81,false,stim,false,1,559.8000000715256,2,0,2,63598,task2,456789,false,false,565,image-keyboard-response,37
true,5,1,2,0,false,q,false,false,0.0-2.0-0.14-0.130-3.130,0,1,0,90,true,stim,true,1,2135.2999999523163,2,0,0,63598,task2,460453,false,false,568,image-keyboard-response,1
true,5,0,2,2,false,d,false,false,0.0-2.0-0.14-0.131-3.131,0,1,0,81,false,stim,true,0,633.2999999523163,2,0,2,63598,task2,462601,false,false,571,image-keyboard-response,2
true,5,0,2,0,true,q,false,true,0.0-2.0-0.14-0.132-3.132,0,1,0,81,false,stim,false,1,737.3000000715256,2,0,0,63598,task2,464855,false,false,574,image-keyboard-response,3
true,5,2,2,0,false,q,true,false,0.0-2.0-0.14-0.133-3.133,0,1,0,68,false,stim,false,0,939.0,2,1,1,63598,task2,467317,false,false,577,image-keyboard-response,4
true,5,1,2,0,false,q,true,false,0.0-2.0-0.14-0.134-3.134,0,1,0,90,false,stim,false,0,582.3000000715256,2,1,1,63598,task2,469421,false,false,580,image-keyboard-response,5
true,5,0,2,0,true,q,false,true,0.0-2.0-0.15-0.135-3.135,0,1,0,81,false,stim,false,1,797.6999999284744,2,0,0,63598,task2,471732,false,false,583,image-keyboard-response,6
true,5,0,2,2,false,d,false,false,0.0-2.0-0.15-0.136-3.136,0,1,0,81,false,stim,true,0,515.5999999046326,2,0,2,63598,task2,473764,false,false,586,image-keyboard-response,7
true,5,2,2,2,true,d,false,true,0.0-2.0-0.15-0.137-3.137,0,1,0,68,false,stim,false,0,401.8000000715256,2,0,2,63598,task2,475680,false,false,589,image-keyboard-response,8
true,5,1,2,0,false,q,true,false,0.0-2.0-0.15-0.138-3.138,0,1,0,90,false,stim,false,0,1191.3999999761581,2,1,1,63598,task2,478390,false,false,592,image-keyboard-response,9
true,5,2,2,0,false,q,true,false,0.0-2.0-0.15-0.139-3.139,0,1,0,68,false,stim,false,0,530.0999999046326,2,1,1,63598,task2,480448,false,false,595,image-keyboard-response,10
true,5,0,2,0,true,q,false,false,0.0-2.0-0.15-0.140-3.140,0,1,0,81,false,stim,false,1,598.7000000476837,2,0,0,63598,task2,482567,false,true,598,image-keyboard-response,11
true,5,2,2,0,false,q,true,false,0.0-2.0-0.15-0.141-3.141,0,1,0,68,false,stim,false,1,637.0,2,0,0,63598,task2,484728,false,false,601,image-keyboard-response,12
true,5,0,2,2,false,d,false,false,0.0-2.0-0.15-0.142-3.142,0,1,0,81,false,stim,true,0,1310.2000000476837,2,0,2,63598,task2,487558,false,false,604,image-keyboard-response,13
true,5,0,2,0,true,q,false,true,0.0-2.0-0.15-0.143-3.143,0,1,0,81,false,stim,false,0,1220.3000000715256,2,1,1,63598,task2,490299,false,false,607,image-keyboard-response,14
true,5,0,2,0,true,q,false,true,0.0-2.0-0.16-0.144-3.144,0,1,0,81,false,stim,false,0,462.6999999284744,2,1,1,63598,task2,492281,false,false,610,image-keyboard-response,15
true,5,0,2,2,false,d,false,false,0.0-2.0-0.16-0.145-3.145,0,1,0,81,false,stim,true,0,1421.1999999284744,2,0,2,63598,task2,495219,false,false,613,image-keyboard-response,16
true,5,2,2,2,true,d,false,true,0.0-2.0-0.16-0.146-3.146,0,1,0,68,false,stim,false,0,547.6999999284744,2,0,2,63598,task2,497286,false,false,616,image-keyboard-response,17
true,5,1,2,0,false,q,false,false,0.0-2.0-0.16-0.147-3.147,0,1,0,90,false,stim,true,1,537.5,2,0,0,63598,task2,499345,false,false,619,image-keyboard-response,18
true,5,0,2,0,true,q,false,true,0.0-2.0-0.16-0.148-3.148,0,1,0,81,false,stim,false,0,719.5,2,1,1,63598,task2,501587,false,false,622,image-keyboard-response,19
true,5,2,2,2,true,d,false,true,0.0-2.0-0.16-0.149-3.149,0,1,0,68,false,stim,false,0,439.2999999523163,2,0,2,63598,task2,503548,false,false,625,image-keyboard-response,20
true,5,2,2,0,false,q,true,false,0.0-2.0-0.16-0.150-3.150,0,1,0,68,false,stim,false,1,326.60000002384186,2,0,0,63598,task2,505394,false,false,628,image-keyboard-response,21
true,5,0,2,0,true,q,false,true,0.0-2.0-0.16-0.151-3.151,0,1,0,81,false,stim,false,0,389.2999999523163,2,1,1,63598,task2,507298,false,false,631,image-keyboard-response,22
true,5,0,2,0,true,q,false,true,0.0-2.0-0.16-0.152-3.152,0,1,0,81,false,stim,false,1,657.5,2,0,0,63598,task2,509476,false,false,634,image-keyboard-response,23
true,5,2,2,2,true,d,false,true,0.0-2.0-0.17-0.153-3.153,0,1,0,68,false,stim,false,0,537.3999999761581,2,0,2,63598,task2,511536,false,false,637,image-keyboard-response,24
true,5,0,2,0,true,q,false,false,0.0-2.0-0.17-0.154-3.154,0,1,0,81,false,stim,false,0,341.10000002384186,2,1,1,63598,task2,513389,false,true,640,image-keyboard-response,25
true,5,2,2,2,true,d,false,false,0.0-2.0-0.17-0.155-3.155,0,1,0,68,false,stim,false,0,486.09999990463257,2,0,2,63598,task2,515395,false,true,643,image-keyboard-response,26
true,5,0,2,0,true,q,false,true,0.0-2.0-0.17-0.156-3.156,0,1,0,81,false,stim,false,1,424.1999999284744,2,0,0,63598,task2,517332,false,false,646,image-keyboard-response,27
true,5,0,2,0,true,q,false,true,0.0-2.0-0.17-0.157-3.157,0,1,0,81,false,stim,false,1,427.3000000715256,2,0,0,63598,task2,519275,false,false,649,image-keyboard-response,28
true,5,2,2,0,false,q,true,false,0.0-2.0-0.17-0.158-3.158,0,1,0,68,false,stim,false,0,781.6000000238419,2,0,1,63598,task2,521580,false,false,652,image-keyboard-response,29
true,5,0,2,0,true,q,false,true,0.0-2.0-0.17-0.159-3.159,0,1,0,81,false,stim,false,1,860.6000000238419,2,0,0,63598,task2,523959,false,false,655,image-keyboard-response,30
true,5,0,2,0,true,q,false,true,0.0-2.0-0.17-0.160-3.160,0,1,0,81,false,stim,false,0,433.39999997615814,2,0,1,63598,task2,525912,false,false,658,image-keyboard-response,31
true,5,1,2,2,false,d,true,false,0.0-2.0-0.17-0.161-3.161,0,1,0,90,false,stim,false,0,900.2999999523163,2,0,2,63598,task2,528328,false,false,661,image-keyboard-response,32
true,6,0,1,2,false,d,false,false,0.0-2.0-0.18-0.162-3.162,0,0,0,81,true,stim,true,0,788.7000000476837,2,0,0,63598,task2,530637,false,false,664,image-keyboard-response,1
true,6,2,1,0,false,q,false,false,0.0-2.0-0.18-0.163-3.163,0,0,0,68,false,stim,true,2,812.5,2,0,2,63598,task2,532971,false,false,667,image-keyboard-response,2
true,6,0,1,1,false,z,false,false,0.0-2.0-0.18-0.164-3.164,0,0,0,81,false,stim,true,0,376.89999997615814,2,0,1,63598,task2,534876,false,false,670,image-keyboard-response,3
true,6,1,1,1,true,z,false,true,0.0-2.0-0.18-0.165-3.165,0,0,0,90,false,stim,false,0,849.6000000238419,2,0,1,63598,task2,537248,false,false,673,image-keyboard-response,4
true,6,1,1,1,true,z,false,true,0.0-2.0-0.18-0.166-3.166,0,0,0,90,false,stim,false,0,711.5,2,0,1,63598,task2,539480,false,false,676,image-keyboard-response,5
true,6,0,1,0,true,q,false,true,0.0-2.0-0.18-0.167-3.167,0,0,0,81,false,stim,false,2,664.3999999761581,2,0,2,63598,task2,541662,false,false,679,image-keyboard-response,6
true,6,2,1,2,true,d,false,true,0.0-2.0-0.18-0.168-3.168,0,0,0,68,false,stim,false,0,359.60000002384186,2,0,0,63598,task2,543538,false,false,682,image-keyboard-response,7
true,6,0,1,0,true,q,false,false,0.0-2.0-0.18-0.169-3.169,0,0,0,81,false,stim,false,2,833.1000000238419,2,0,2,63598,task2,545891,false,true,685,image-keyboard-response,8
true,6,2,1,2,true,d,false,true,0.0-2.0-0.18-0.170-3.170,0,0,0,68,false,stim,false,0,399.89999997615814,2,0,0,63598,task2,547808,false,false,688,image-keyboard-response,9
true,6,2,1,0,false,q,false,false,0.0-2.0-0.19-0.171-3.171,0,0,0,68,false,stim,true,2,443.5,2,0,2,63598,task2,549772,false,false,691,image-keyboard-response,10
true,6,2,1,2,true,d,false,true,0.0-2.0-0.19-0.172-3.172,0,0,0,68,false,stim,false,0,339.90000009536743,2,0,0,63598,task2,551638,false,false,694,image-keyboard-response,11
true,6,2,1,2,true,d,false,false,0.0-2.0-0.19-0.173-3.173,0,0,0,68,false,stim,false,0,921.7000000476837,2,0,0,63598,task2,554080,false,true,697,image-keyboard-response,12
true,6,1,1,1,true,z,false,true,0.0-2.0-0.19-0.174-3.174,0,0,0,90,false,stim,false,0,534.1000000238419,2,0,1,63598,task2,556132,false,false,700,image-keyboard-response,13
true,6,1,1,2,false,d,true,true,0.0-2.0-0.19-0.175-3.175,0,0,0,90,false,stim,false,0,500.3000000715256,2,0,0,63598,task2,558149,false,true,703,image-keyboard-response,14
true,6,2,1,0,false,q,false,false,0.0-2.0-0.19-0.176-3.176,0,0,0,68,false,stim,true,2,669.7999999523163,2,0,2,63598,task2,560337,false,false,706,image-keyboard-response,15
true,6,1,1,1,true,z,false,true,0.0-2.0-0.19-0.177-3.177,0,0,0,90,false,stim,false,0,520.2999999523163,2,0,1,63598,task2,562378,false,false,709,image-keyboard-response,16
true,6,1,1,0,false,q,true,false,0.0-2.0-0.19-0.178-3.178,0,0,0,90,false,stim,false,2,715.3999999761581,2,0,2,63598,task2,564614,false,false,712,image-keyboard-response,17
true,6,1,1,1,true,z,false,true,0.0-2.0-0.19-0.179-3.179,0,0,0,90,false,stim,false,0,430.7999999523163,2,0,1,63598,task2,566559,false,false,715,image-keyboard-response,18
true,6,1,1,2,false,d,true,false,0.0-2.0-0.20-0.180-3.180,0,0,0,90,false,stim,false,0,657.2000000476837,2,0,0,63598,task2,568735,false,false,718,image-keyboard-response,19
true,6,0,1,2,false,d,false,false,0.0-2.0-0.20-0.181-3.181,0,0,0,81,false,stim,true,0,593.5,2,0,0,63598,task2,570852,false,false,721,image-keyboard-response,20
true,6,1,1,1,true,z,false,true,0.0-2.0-0.20-0.182-3.182,0,0,0,90,false,stim,false,0,421.09999990463257,2,0,1,63598,task2,572789,false,false,724,image-keyboard-response,21
true,6,1,1,0,false,q,true,true,0.0-2.0-0.20-0.183-3.183,0,0,0,90,false,stim,false,2,831.1000000238419,2,0,2,63598,task2,575150,false,true,727,image-keyboard-response,22
true,6,1,1,0,false,q,true,false,0.0-2.0-0.20-0.184-3.184,0,0,0,90,false,stim,false,2,466.2000000476837,2,0,2,63598,task2,577134,false,false,730,image-keyboard-response,23
true,6,1,1,1,true,z,false,true,0.0-2.0-0.20-0.185-3.185,0,0,0,90,false,stim,false,0,407.60000002384186,2,0,1,63598,task2,579055,false,false,733,image-keyboard-response,24
true,6,2,1,2,true,d,false,false,0.0-2.0-0.20-0.186-3.186,0,0,0,68,false,stim,false,0,764.5,2,0,0,63598,task2,581343,false,true,736,image-keyboard-response,25
true,6,0,1,0,true,q,false,false,0.0-2.0-0.20-0.187-3.187,0,0,0,81,false,stim,false,2,1428.0999999046326,2,0,2,63598,task2,584296,false,true,739,image-keyboard-response,26
true,6,1,1,1,true,z,false,false,0.0-2.0-0.20-0.188-3.188,0,0,0,90,false,stim,false,0,623.5999999046326,2,0,1,63598,task2,586441,false,true,742,image-keyboard-response,27
true,6,2,1,1,false,z,true,true,0.0-2.0-0.21-0.189-3.189,0,0,0,68,false,stim,false,0,733.0,2,0,1,63598,task2,588691,false,true,745,image-keyboard-response,28
true,6,0,1,2,false,d,false,false,0.0-2.0-0.21-0.190-3.190,0,0,0,81,false,stim,true,0,941.1000000238419,2,0,0,63598,task2,591149,false,false,748,image-keyboard-response,29
true,6,2,1,1,false,z,true,false,0.0-2.0-0.21-0.191-3.191,0,0,0,68,false,stim,false,0,617.3999999761581,2,0,1,63598,task2,593286,false,false,751,image-keyboard-response,30
true,6,1,1,1,true,z,false,true,0.0-2.0-0.21-0.192-3.192,0,0,0,90,false,stim,false,0,630.6999999284744,2,0,1,63598,task2,595438,false,false,754,image-keyboard-response,31
true,6,2,1,0,false,q,false,false,0.0-2.0-0.21-0.193-3.193,0,0,0,68,false,stim,true,2,1064.7999999523163,2,0,2,63598,task2,598033,false,false,757,image-keyboard-response,32
true,6,1,1,0,false,q,true,false,0.0-2.0-0.21-0.194-3.194,0,0,0,90,false,stim,false,2,474.7999999523163,2,0,2,63598,task2,600022,false,false,760,image-keyboard-response,33
true,6,1,1,2,false,d,true,false,0.0-2.0-0.21-0.195-3.195,0,0,0,90,false,stim,false,0,1093.2000000476837,2,1,0,63598,task2,602631,false,false,763,image-keyboard-response,34
true,7,0,2,2,false,d,true,false,0.0-2.0-0.21-0.196-3.196,1,0,0,81,true,stim,false,2,540.5,2,1,0,63598,task2,604688,false,false,766,image-keyboard-response,1
true,7,0,2,2,false,d,false,false,0.0-2.0-0.21-0.197-3.197,1,0,0,81,false,stim,true,0,462.60000002384186,2,0,2,63598,task2,606671,false,false,769,image-keyboard-response,2
true,7,1,2,0,false,q,false,true,0.0-2.0-0.22-0.198-3.198,1,0,0,90,false,stim,true,1,833.6000000238419,2,0,1,63598,task2,609022,false,true,772,image-keyboard-response,3
true,7,1,2,0,false,q,false,false,0.0-2.0-0.22-0.199-3.199,1,0,0,90,false,stim,true,1,618.4000000953674,2,0,1,63598,task2,611166,false,false,775,image-keyboard-response,4
true,7,1,2,2,false,d,true,false,0.0-2.0-0.22-0.200-3.200,1,0,0,90,false,stim,false,0,355.40000009536743,2,0,2,63598,task2,613044,false,false,778,image-keyboard-response,5
true,7,2,2,2,true,d,false,true,0.0-2.0-0.22-0.201-3.201,1,0,0,68,false,stim,false,0,472.0,2,0,2,63598,task2,615025,false,false,781,image-keyboard-response,6
true,7,1,2,2,false,d,true,false,0.0-2.0-0.22-0.202-3.202,1,0,0,90,false,stim,false,2,780.1000000238419,2,1,0,63598,task2,617318,false,false,784,image-keyboard-response,7
true,7,2,2,2,true,d,false,true,0.0-2.0-0.22-0.203-3.203,1,0,0,68,false,stim,false,0,524.7000000476837,2,0,2,63598,task2,619363,false,false,787,image-keyboard-response,8
true,7,0,2,2,false,d,true,false,0.0-2.0-0.22-0.204-3.204,1,0,0,81,false,stim,false,2,514.6000000238419,2,1,0,63598,task2,621393,false,false,790,image-keyboard-response,9
true,7,2,2,2,true,d,false,true,0.0-2.0-0.22-0.205-3.205,1,0,0,68,false,stim,false,2,307.10000002384186,2,1,0,63598,task2,623215,false,false,793,image-keyboard-response,10
true,7,1,2,0,false,q,false,false,0.0-2.0-0.22-0.206-3.206,1,0,0,90,false,stim,true,1,740.7000000476837,2,0,1,63598,task2,625478,false,false,796,image-keyboard-response,11
true,7,2,2,2,true,d,false,true,0.0-2.0-0.23-0.207-3.207,1,0,0,68,false,stim,false,2,816.2999999523163,2,1,0,63598,task2,627815,false,false,799,image-keyboard-response,12
true,7,0,2,0,true,q,false,true,0.0-2.0-0.23-0.208-3.208,1,0,0,81,false,stim,false,1,532.8000000715256,2,0,1,63598,task2,629860,false,false,802,image-keyboard-response,13
true,7,0,2,0,true,q,false,true,0.0-2.0-0.23-0.209-3.209,1,0,0,81,false,stim,false,1,455.2000000476837,2,0,1,63598,task2,631834,false,false,805,image-keyboard-response,14
true,7,2,2,2,true,d,false,true,0.0-2.0-0.23-0.210-3.210,1,0,0,68,false,stim,false,2,483.10000002384186,2,1,0,63598,task2,633841,false,false,808,image-keyboard-response,15
true,7,2,2,2,true,d,false,true,0.0-2.0-0.23-0.211-3.211,1,0,0,68,false,stim,false,0,516.5,2,0,2,63598,task2,635873,false,false,811,image-keyboard-response,16
true,7,2,2,0,false,q,true,false,0.0-2.0-0.23-0.212-3.212,1,0,0,68,false,stim,false,1,347.2000000476837,2,0,1,63598,task2,637735,false,false,814,image-keyboard-response,17
true,7,2,2,2,true,d,false,true,0.0-2.0-0.23-0.213-3.213,1,0,0,68,false,stim,false,2,495.2999999523163,2,1,0,63598,task2,639743,false,false,817,image-keyboard-response,18
true,7,2,2,2,true,d,false,true,0.0-2.0-0.23-0.214-3.214,1,0,0,68,false,stim,false,0,330.0,2,0,2,63598,task2,641587,false,false,820,image-keyboard-response,19
true,7,2,2,2,true,d,false,true,0.0-2.0-0.23-0.215-3.215,1,0,0,68,false,stim,false,0,378.60000002384186,2,0,2,63598,task2,643496,false,false,823,image-keyboard-response,20
true,7,2,2,2,true,d,false,true,0.0-2.0-0.24-0.216-3.216,1,0,0,68,false,stim,false,2,295.5,2,1,0,63598,task2,645313,false,false,826,image-keyboard-response,21
true,7,2,2,2,true,d,false,true,0.0-2.0-0.24-0.217-3.217,1,0,0,68,false,stim,false,0,393.0,2,0,2,63598,task2,647220,false,false,829,image-keyboard-response,22
true,7,0,2,0,true,q,false,true,0.0-2.0-0.24-0.218-3.218,1,0,0,81,false,stim,false,1,310.7000000476837,2,0,1,63598,task2,649048,false,false,832,image-keyboard-response,23
true,7,2,2,2,true,d,false,true,0.0-2.0-0.24-0.219-3.219,1,0,0,68,false,stim,false,2,460.89999997615814,2,1,0,63598,task2,651029,false,false,835,image-keyboard-response,24
true,7,2,2,2,true,d,false,true,0.0-2.0-0.24-0.220-3.220,1,0,0,68,false,stim,false,2,406.89999997615814,2,1,0,63598,task2,652955,false,false,838,image-keyboard-response,25
true,7,2,2,2,true,d,false,true,0.0-2.0-0.24-0.221-3.221,1,0,0,68,false,stim,false,0,319.8000000715256,2,0,2,63598,task2,654798,false,false,841,image-keyboard-response,26
true,7,0,2,0,true,q,false,true,0.0-2.0-0.24-0.222-3.222,1,0,0,81,false,stim,false,1,487.10000002384186,2,0,1,63598,task2,656805,false,false,844,image-keyboard-response,27
true,7,2,2,2,true,d,false,false,0.0-2.0-0.24-0.223-3.223,1,0,0,68,false,stim,false,0,536.0,2,0,2,63598,task2,658853,false,true,847,image-keyboard-response,28
true,7,0,2,0,true,q,false,false,0.0-2.0-0.24-0.224-3.224,1,0,0,81,false,stim,false,1,620.9000000953674,2,0,1,63598,task2,660999,false,true,850,image-keyboard-response,29
true,7,2,2,2,true,d,false,true,0.0-2.0-0.25-0.225-3.225,1,0,0,68,false,stim,false,0,601.3999999761581,2,0,2,63598,task2,663120,false,false,853,image-keyboard-response,30
true,7,2,2,2,true,d,false,true,0.0-2.0-0.25-0.226-3.226,1,0,0,68,false,stim,false,2,930.7999999523163,2,1,0,63598,task2,665569,false,false,856,image-keyboard-response,31
true,7,0,2,0,true,q,false,true,0.0-2.0-0.25-0.227-3.227,1,0,0,81,false,stim,false,1,759.0,2,0,1,63598,task2,667847,false,false,859,image-keyboard-response,32
true,8,2,2,1,false,z,false,true,0.0-2.0-0.25-0.228-3.228,1,0,0,68,true,stim,true,2,897.1000000238419,2,0,2,63598,task2,670265,false,true,862,image-keyboard-response,1
true,8,0,2,1,false,z,false,true,0.0-2.0-0.25-0.229-3.229,1,0,0,81,false,stim,true,0,615.2000000476837,2,0,1,63598,task2,672402,false,true,865,image-keyboard-response,2
true,8,2,2,2,true,d,false,true,0.0-2.0-0.25-0.230-3.230,1,0,0,68,false,stim,false,2,1110.6000000238419,2,1,0,63598,task2,675028,false,false,868,image-keyboard-response,3
true,8,2,2,1,false,z,false,false,0.0-2.0-0.25-0.231-3.231,1,0,0,68,false,stim,true,2,640.3000000715256,2,0,2,63598,task2,677188,false,false,871,image-keyboard-response,4
true,8,0,2,1,false,z,false,false,0.0-2.0-0.25-0.232-3.232,1,0,0,81,false,stim,true,0,337.7999999523163,2,0,1,63598,task2,679049,false,false,874,image-keyboard-response,5
true,8,2,2,2,true,d,false,true,0.0-2.0-0.25-0.233-3.233,1,0,0,68,false,stim,false,2,828.7000000476837,2,1,0,63598,task2,681397,false,false,877,image-keyboard-response,6
true,8,2,2,2,true,d,false,true,0.0-2.0-0.26-0.234-3.234,1,0,0,68,false,stim,false,2,967.2999999523163,2,1,0,63598,task2,683885,false,false,880,image-keyboard-response,7
true,8,0,2,1,false,z,true,false,0.0-2.0-0.26-0.235-3.235,1,0,0,81,false,stim,false,2,343.0,2,0,2,63598,task2,685750,false,false,883,image-keyboard-response,8
true,8,2,2,2,true,d,false,true,0.0-2.0-0.26-0.236-3.236,1,0,0,68,false,stim,false,2,541.0999999046326,2,1,0,63598,task2,687809,false,false,886,image-keyboard-response,9
true,8,0,2,1,false,z,false,false,0.0-2.0-0.26-0.237-3.237,1,0,0,81,false,stim,true,0,699.5,2,0,1,63598,task2,690027,false,false,889,image-keyboard-response,10
true,8,2,2,1,false,z,false,false,0.0-2.0-0.26-0.238-3.238,1,0,0,68,false,stim,true,2,415.10000002384186,2,0,2,63598,task2,691963,false,false,892,image-keyboard-response,11
true,8,2,2,2,true,d,false,true,0.0-2.0-0.26-0.239-3.239,1,0,0,68,false,stim,false,2,313.59999990463257,2,1,0,63598,task2,693791,false,false,895,image-keyboard-response,12
true,8,1,2,1,true,z,false,true,0.0-2.0-0.26-0.240-3.240,1,0,0,90,false,stim,false,0,667.1999999284744,2,0,1,63598,task2,695975,false,false,898,image-keyboard-response,13
true,8,2,2,1,false,z,false,false,0.0-2.0-0.26-0.241-3.241,1,0,0,68,false,stim,true,2,895.5,2,0,2,63598,task2,698399,false,false,901,image-keyboard-response,14
true,8,1,2,1,true,z,false,true,0.0-2.0-0.26-0.242-3.242,1,0,0,90,false,stim,false,0,412.39999997615814,2,0,1,63598,task2,700333,false,false,904,image-keyboard-response,15
true,8,2,2,2,true,d,false,true,0.0-2.0-0.27-0.243-3.243,1,0,0,68,false,stim,false,2,302.7000000476837,2,1,0,63598,task2,702151,false,false,907,image-keyboard-response,16
true,8,1,2,1,true,z,false,true,0.0-2.0-0.27-0.244-3.244,1,0,0,90,false,stim,false,0,839.0999999046326,2,0,1,63598,task2,704507,false,false,910,image-keyboard-response,17
true,8,2,2,1,false,z,false,false,0.0-2.0-0.27-0.245-3.245,1,0,0,68,false,stim,true,2,1076.7000000476837,2,0,2,63598,task2,707104,false,false,913,image-keyboard-response,18
true,8,0,2,1,false,z,true,false,0.0-2.0-0.27-0.246-3.246,1,0,0,81,false,stim,false,2,629.5,2,0,2,63598,task2,709253,false,false,916,image-keyboard-response,19
true,8,1,2,1,true,z,false,true,0.0-2.0-0.27-0.247-3.247,1,0,0,90,false,stim,false,0,1057.0,2,0,1,63598,task2,711825,false,false,919,image-keyboard-response,20
true,8,1,2,1,true,z,false,true,0.0-2.0-0.27-0.248-3.248,1,0,0,90,false,stim,false,0,610.8000000715256,2,0,1,63598,task2,713959,false,false,922,image-keyboard-response,21
true,8,2,2,2,true,d,false,true,0.0-2.0-0.27-0.249-3.249,1,0,0,68,false,stim,false,2,751.0,2,1,0,63598,task2,716229,false,false,925,image-keyboard-response,22
true,8,2,2,2,true,d,false,true,0.0-2.0-0.27-0.250-3.250,1,0,0,68,false,stim,false,2,599.4000000953674,2,1,0,63598,task2,718347,false,false,928,image-keyboard-response,23
true,8,1,2,1,true,z,false,true,0.0-2.0-0.27-0.251-3.251,1,0,0,90,false,stim,false,2,839.0,2,0,2,63598,task2,720707,false,false,931,image-keyboard-response,24
true,8,2,2,2,true,d,false,true,0.0-2.0-0.28-0.252-3.252,1,0,0,68,false,stim,false,2,403.39999997615814,2,1,0,63598,task2,722630,false,false,934,image-keyboard-response,25
true,8,1,2,1,true,z,false,true,0.0-2.0-0.28-0.253-3.253,1,0,0,90,false,stim,false,2,559.1000000238419,2,0,2,63598,task2,724697,false,false,937,image-keyboard-response,26
true,8,2,2,2,true,d,false,false,0.0-2.0-0.28-0.254-3.254,1,0,0,68,false,stim,false,2,531.5,2,1,0,63598,task2,726740,false,true,940,image-keyboard-response,27
true,8,2,2,1,false,z,true,false,0.0-2.0-0.28-0.255-3.255,1,0,0,68,false,stim,false,0,782.2999999523163,2,0,1,63598,task2,729050,false,false,943,image-keyboard-response,28
true,8,0,2,1,false,z,false,false,0.0-2.0-0.28-0.256-3.256,1,0,0,81,false,stim,true,0,626.7999999523163,2,0,1,63598,task2,731204,false,false,946,image-keyboard-response,29
true,8,1,2,1,true,z,false,true,0.0-2.0-0.28-0.257-3.257,1,0,0,90,false,stim,false,2,593.3000000715256,2,0,2,63598,task2,733311,false,false,949,image-keyboard-response,30
true,8,1,2,1,true,z,false,true,0.0-2.0-0.28-0.258-3.258,1,0,0,90,false,stim,false,2,441.0,2,0,2,63598,task2,735269,false,false,952,image-keyboard-response,31
true,8,0,2,2,false,d,true,false,0.0-2.0-0.28-0.259-3.259,1,0,0,81,false,stim,false,2,1104.2999999523163,2,0,0,63598,task2,737892,false,false,955,image-keyboard-response,32
true,8,1,2,1,true,z,false,true,0.0-2.0-0.28-0.260-3.260,1,0,0,90,false,stim,false,0,408.39999997615814,2,0,1,63598,task2,739813,false,false,958,image-keyboard-response,33
true,9,1,1,0,false,q,false,false,0.0-2.0-0.29-0.261-3.261,0,0,0,90,true,stim,true,1,488.89999997615814,2,0,1,63598,task2,741817,false,false,961,image-keyboard-response,1
true,9,2,1,0,false,q,true,false,0.0-2.0-0.29-0.262-3.262,0,0,0,68,false,stim,false,1,894.1000000238419,2,0,1,63598,task2,744230,false,false,964,image-keyboard-response,2
true,9,1,1,1,true,z,false,true,0.0-2.0-0.29-0.263-3.263,0,0,0,90,false,stim,false,2,1041.6000000238419,2,0,0,63598,task2,746789,false,false,967,image-keyboard-response,3
true,9,1,1,2,false,d,false,false,0.0-2.0-0.29-0.264-3.264,0,0,0,90,false,stim,true,1,623.8000000715256,2,0,2,63598,task2,748931,false,false,970,image-keyboard-response,4
true,9,0,1,0,true,q,false,false,0.0-2.0-0.29-0.265-3.265,0,0,0,81,false,stim,false,1,869.6000000238419,2,0,1,63598,task2,751318,false,true,973,image-keyboard-response,5
true,9,2,1,2,true,d,false,true,0.0-2.0-0.29-0.266-3.266,0,0,0,68,false,stim,false,1,495.39999997615814,2,0,2,63598,task2,753333,false,false,976,image-keyboard-response,6
true,9,1,1,1,true,z,false,true,0.0-2.0-0.29-0.267-3.267,0,0,0,90,false,stim,false,2,402.2999999523163,2,0,0,63598,task2,755250,false,false,979,image-keyboard-response,7
true,9,2,1,2,true,d,false,true,0.0-2.0-0.29-0.268-3.268,0,0,0,68,false,stim,false,1,290.6999999284744,2,0,2,63598,task2,757058,false,false,982,image-keyboard-response,8
true,9,1,1,1,true,z,false,true,0.0-2.0-0.29-0.269-3.269,0,0,0,90,false,stim,false,2,523.5,2,0,0,63598,task2,759101,false,false,985,image-keyboard-response,9
true,9,0,1,0,true,q,false,false,0.0-2.0-0.30-0.270-3.270,0,0,0,81,false,stim,false,1,728.6000000238419,2,0,1,63598,task2,761346,false,true,988,image-keyboard-response,10
true,9,1,1,1,true,z,false,true,0.0-2.0-0.30-0.271-3.271,0,0,0,90,false,stim,false,2,714.8999999761581,2,0,0,63598,task2,763583,false,false,991,image-keyboard-response,11
true,9,1,1,1,true,z,false,true,0.0-2.0-0.30-0.272-3.272,0,0,0,90,false,stim,false,2,702.7999999523163,2,0,0,63598,task2,765801,false,false,994,image-keyboard-response,12
true,9,1,1,1,true,z,false,true,0.0-2.0-0.30-0.273-3.273,0,0,0,90,false,stim,false,2,409.39999997615814,2,0,0,63598,task2,767728,false,false,997,image-keyboard-response,13
true,9,2,1,2,true,d,false,true,0.0-2.0-0.30-0.274-3.274,0,0,0,68,false,stim,false,1,643.2000000476837,2,0,2,63598,task2,769891,false,false,1000,image-keyboard-response,14
true,9,2,1,2,true,d,false,true,0.0-2.0-0.30-0.275-3.275,0,0,0,68,false,stim,false,1,529.1999999284744,2,0,2,63598,task2,771947,false,false,1003,image-keyboard-response,15
true,9,2,1,0,false,q,true,true,0.0-2.0-0.30-0.276-3.276,0,0,0,68,false,stim,false,1,899.8999999761581,2,0,1,63598,task2,774363,false,true,1006,image-keyboard-response,16
true,9,2,1,2,true,d,false,true,0.0-2.0-0.30-0.277-3.277,0,0,0,68,false,stim,false,1,638.6999999284744,2,0,2,63598,task2,776517,false,false,1009,image-keyboard-response,17
true,9,2,1,0,false,q,true,false,0.0-2.0-0.30-0.278-3.278,0,0,0,68,false,stim,false,1,396.10000002384186,2,0,1,63598,task2,778429,false,false,1012,image-keyboard-response,18
true,9,2,1,2,true,d,false,true,0.0-2.0-0.31-0.279-3.279,0,0,0,68,false,stim,false,1,393.10000002384186,2,0,2,63598,task2,780341,false,false,1015,image-keyboard-response,19
true,9,1,1,1,true,z,false,true,0.0-2.0-0.31-0.280-3.280,0,0,0,90,false,stim,false,2,358.89999997615814,2,0,0,63598,task2,782217,false,false,1018,image-keyboard-response,20
true,9,0,1,0,true,q,false,true,0.0-2.0-0.31-0.281-3.281,0,0,0,81,false,stim,false,1,775.0,2,0,1,63598,task2,784513,false,false,1021,image-keyboard-response,21
true,9,0,1,0,true,q,false,true,0.0-2.0-0.31-0.282-3.282,0,0,0,81,false,stim,false,1,572.3999999761581,2,0,1,63598,task2,786600,false,false,1024,image-keyboard-response,22
true,9,2,1,1,false,z,false,false,0.0-2.0-0.31-0.283-3.283,0,0,0,68,false,stim,true,2,1125.8999999761581,2,0,0,63598,task2,789244,false,false,1027,image-keyboard-response,23
true,9,1,1,1,true,z,false,false,0.0-2.0-0.31-0.284-3.284,0,0,0,90,false,stim,false,2,405.2999999523163,2,0,0,63598,task2,791163,false,true,1030,image-keyboard-response,24
true,9,2,1,2,true,d,false,false,0.0-2.0-0.31-0.285-3.285,0,0,0,68,false,stim,false,1,601.0,2,0,2,63598,task2,793279,false,true,1033,image-keyboard-response,25
true,9,1,1,2,false,d,false,false,0.0-2.0-0.31-0.286-3.286,0,0,0,90,false,stim,true,1,581.0,2,0,2,63598,task2,795379,false,false,1036,image-keyboard-response,26
true,9,2,1,0,false,q,true,false,0.0-2.0-0.31-0.287-3.287,0,0,0,68,false,stim,false,1,946.2000000476837,2,0,1,63598,task2,797843,false,false,1039,image-keyboard-response,27
true,9,0,1,2,false,d,true,false,0.0-2.0-0.32-0.288-3.288,0,0,0,81,false,stim,false,1,1005.2999999523163,2,0,2,63598,task2,800363,false,false,1042,image-keyboard-response,28
true,9,0,1,1,false,z,true,false,0.0-2.0-0.32-0.289-3.289,0,0,0,81,false,stim,false,2,353.39999997615814,2,0,0,63598,task2,802231,false,false,1045,image-keyboard-response,29
true,9,0,1,0,true,q,false,false,0.0-2.0-0.32-0.290-3.290,0,0,0,81,false,stim,false,1,403.6999999284744,2,0,1,63598,task2,804152,false,true,1048,image-keyboard-response,30
true,9,1,1,2,false,d,false,false,0.0-2.0-0.32-0.291-3.291,0,0,0,90,false,stim,true,1,505.2000000476837,2,0,2,63598,task2,806172,false,false,1051,image-keyboard-response,31
true,9,1,1,0,false,q,false,false,0.0-2.0-0.32-0.292-3.292,0,0,0,90,false,stim,true,1,432.8000000715256,2,0,1,63598,task2,808121,false,false,1054,image-keyboard-response,32
true,9,2,1,2,true,d,false,true,0.0-2.0-0.32-0.293-3.293,0,0,0,68,false,stim,false,1,746.7000000476837,2,0,2,63598,task2,810385,false,false,1057,image-keyboard-response,33
true,9,1,1,1,true,z,false,true,0.0-2.0-0.32-0.294-3.294,0,0,0,90,false,stim,false,2,709.8000000715256,2,0,0,63598,task2,812614,false,false,1060,image-keyboard-response,34
true,9,0,1,0,true,q,false,true,0.0-2.0-0.32-0.295-3.295,0,0,0,81,false,stim,false,1,748.1000000238419,2,0,1,63598,task2,814876,false,false,1063,image-keyboard-response,35
true,10,1,1,2,false,d,false,false,0.0-2.0-0.32-0.296-3.296,0,0,0,90,true,stim,true,1,537.7999999523163,2,0,0,63598,task2,816946,false,false,1066,image-keyboard-response,1
true,10,2,1,2,true,d,false,true,0.0-2.0-0.33-0.297-3.297,0,0,0,68,false,stim,false,1,693.0,2,0,0,63598,task2,819161,false,false,1069,image-keyboard-response,2
true,10,0,1,2,false,d,false,true,0.0-2.0-0.33-0.298-3.298,0,0,0,81,false,stim,true,0,480.10000002384186,2,0,1,63598,task2,821158,false,true,1072,image-keyboard-response,3
true,10,2,1,2,true,d,false,true,0.0-2.0-0.33-0.299-3.299,0,0,0,68,false,stim,false,1,709.5,2,0,0,63598,task2,823387,false,false,1075,image-keyboard-response,4
true,10,0,1,2,false,d,false,false,0.0-2.0-0.33-0.300-3.300,0,0,0,81,false,stim,true,0,491.0,2,0,1,63598,task2,825399,false,false,1078,image-keyboard-response,5
true,10,1,1,2,false,d,true,false,0.0-2.0-0.33-0.301-3.301,0,0,0,90,false,stim,false,0,647.5,2,0,1,63598,task2,827565,false,false,1081,image-keyboard-response,6
true,10,2,1,0,false,q,false,false,0.0-2.0-0.33-0.302-3.302,0,0,0,68,false,stim,true,2,461.7000000476837,2,0,2,63598,task2,829549,false,false,1084,image-keyboard-response,7
true,10,2,1,2,true,d,false,true,0.0-2.0-0.33-0.303-3.303,0,0,0,68,false,stim,false,1,369.2999999523163,2,0,0,63598,task2,831437,false,false,1087,image-keyboard-response,8
true,10,0,1,0,true,q,false,true,0.0-2.0-0.33-0.304-3.304,0,0,0,81,false,stim,false,2,653.2999999523163,2,0,2,63598,task2,833611,false,false,1090,image-keyboard-response,9
true,10,0,1,0,true,q,false,true,0.0-2.0-0.33-0.305-3.305,0,0,0,81,false,stim,false,2,554.5,2,0,2,63598,task2,835682,false,false,1093,image-keyboard-response,10
true,10,2,1,2,true,d,false,false,0.0-2.0-0.34-0.306-3.306,0,0,0,68,false,stim,false,0,339.60000002384186,2,0,1,63598,task2,837537,false,true,1096,image-keyboard-response,11
true,10,1,1,2,false,d,true,false,0.0-2.0-0.34-0.307-3.307,0,0,0,90,false,stim,false,0,839.7999999523163,2,0,1,63598,task2,839897,false,false,1099,image-keyboard-response,12
true,10,0,1,0,true,q,false,true,0.0-2.0-0.34-0.308-3.308,0,0,0,81,false,stim,false,2,864.5,2,0,2,63598,task2,842282,false,false,1102,image-keyboard-response,13
true,10,0,1,0,true,q,false,true,0.0-2.0-0.34-0.309-3.309,0,0,0,81,false,stim,false,2,527.5,2,0,2,63598,task2,844326,false,false,1105,image-keyboard-response,14
true,10,0,1,2,false,d,true,false,0.0-2.0-0.34-0.310-3.310,0,0,0,81,false,stim,false,1,584.6999999284744,2,0,0,63598,task2,846422,false,false,1108,image-keyboard-response,15
true,10,2,1,2,true,d,false,true,0.0-2.0-0.34-0.311-3.311,0,0,0,68,false,stim,false,1,491.0,2,0,0,63598,task2,848424,false,false,1111,image-keyboard-response,16
true,10,2,1,2,true,d,false,true,0.0-2.0-0.34-0.312-3.312,0,0,0,68,false,stim,false,1,418.89999997615814,2,0,0,63598,task2,850367,false,false,1114,image-keyboard-response,17
true,10,1,1,2,false,d,true,false,0.0-2.0-0.34-0.313-3.313,0,0,0,90,false,stim,false,0,914.6000000238419,2,0,1,63598,task2,852803,false,false,1117,image-keyboard-response,18
true,10,0,1,0,true,q,false,true,0.0-2.0-0.34-0.314-3.314,0,0,0,81,false,stim,false,2,557.6999999284744,2,0,2,63598,task2,854875,false,false,1120,image-keyboard-response,19
true,10,2,1,2,true,d,false,true,0.0-2.0-0.35-0.315-3.315,0,0,0,68,false,stim,false,0,570.5999999046326,2,0,1,63598,task2,856968,false,false,1123,image-keyboard-response,20
true,10,0,1,0,true,q,false,true,0.0-2.0-0.35-0.316-3.316,0,0,0,81,false,stim,false,2,587.5,2,0,2,63598,task2,859075,false,false,1126,image-keyboard-response,21
true,10,0,1,0,true,q,false,true,0.0-2.0-0.35-0.317-3.317,0,0,0,81,false,stim,false,2,501.89999997615814,2,0,2,63598,task2,861099,false,false,1129,image-keyboard-response,22
true,10,2,1,2,true,d,false,true,0.0-2.0-0.35-0.318-3.318,0,0,0,68,false,stim,false,0,450.3000000715256,2,0,1,63598,task2,863068,false,false,1132,image-keyboard-response,23
true,10,2,1,2,true,d,false,false,0.0-2.0-0.35-0.319-3.319,0,0,0,68,false,stim,false,1,409.2000000476837,2,0,0,63598,task2,864997,false,true,1135,image-keyboard-response,24
true,10,1,1,2,false,d,false,false,0.0-2.0-0.35-0.320-3.320,0,0,0,90,false,stim,true,1,596.6000000238419,2,0,0,63598,task2,867114,false,false,1138,image-keyboard-response,25
true,10,0,1,2,false,d,true,false,0.0-2.0-0.35-0.321-3.321,0,0,0,81,false,stim,false,1,528.2000000476837,2,0,0,63598,task2,869156,false,false,1141,image-keyboard-response,26
true,10,0,1,0,true,q,false,true,0.0-2.0-0.35-0.322-3.322,0,0,0,81,false,stim,false,2,440.6999999284744,2,0,2,63598,task2,871118,false,false,1144,image-keyboard-response,27
true,10,2,1,2,true,d,false,true,0.0-2.0-0.35-0.323-3.323,0,0,0,68,false,stim,false,0,320.39999997615814,2,0,1,63598,task2,872958,false,false,1147,image-keyboard-response,28
true,10,0,1,0,true,q,false,true,0.0-2.0-0.36-0.324-3.324,0,0,0,81,false,stim,false,2,519.1000000238419,2,0,2,63598,task2,874997,false,false,1150,image-keyboard-response,29
true,10,2,1,2,true,d,false,true,0.0-2.0-0.36-0.325-3.325,0,0,0,68,false,stim,false,0,443.1999999284744,2,0,1,63598,task2,876961,false,false,1153,image-keyboard-response,30
true,10,0,1,0,true,q,false,true,0.0-2.0-0.36-0.326-3.326,0,0,0,81,false,stim,false,2,524.3999999761581,2,0,2,63598,task2,879002,false,false,1156,image-keyboard-response,31
true,10,2,1,2,true,d,false,true,0.0-2.0-0.36-0.327-3.327,0,0,0,68,false,stim,false,1,371.5,2,0,0,63598,task2,880889,false,false,1159,image-keyboard-response,32
true,10,2,1,2,true,d,false,true,0.0-2.0-0.36-0.328-3.328,0,0,0,68,false,stim,false,1,434.60000002384186,2,0,0,63598,task2,882842,false,false,1162,image-keyboard-response,33
true,10,2,1,2,true,d,false,true,0.0-2.0-0.36-0.329-3.329,0,0,0,68,false,stim,false,0,609.2000000476837,2,1,1,63598,task2,884967,false,false,1165,image-keyboard-response,34
true,10,2,1,2,true,d,false,true,0.0-2.0-0.36-0.330-3.330,0,0,0,68,false,stim,false,1,582.5999999046326,2,0,0,63598,task2,887070,false,false,1168,image-keyboard-response,35
true,10,2,1,2,true,d,false,true,0.0-2.0-0.36-0.331-3.331,0,0,0,68,false,stim,false,0,573.7000000476837,2,1,1,63598,task2,889161,false,false,1171,image-keyboard-response,36
true,10,0,1,0,true,q,false,true,0.0-2.0-0.36-0.332-3.332,0,0,0,81,false,stim,false,2,420.89999997615814,2,0,2,63598,task2,891099,false,false,1174,image-keyboard-response,37
true,11,0,2,1,false,z,false,false,0.0-2.0-0.37-0.333-3.333,0,1,0,81,true,stim,true,0,408.7000000476837,2,0,2,63598,task2,893027,false,false,1177,image-keyboard-response,1
true,11,1,2,1,true,z,false,true,0.0-2.0-0.37-0.334-3.334,0,1,0,90,false,stim,false,0,587.8999999761581,2,0,2,63598,task2,895131,false,false,1180,image-keyboard-response,2
true,11,2,2,1,false,z,false,false,0.0-2.0-0.37-0.335-3.335,0,1,0,68,false,stim,true,2,510.5,2,0,0,63598,task2,897159,false,false,1183,image-keyboard-response,3
true,11,2,2,2,true,d,false,false,0.0-2.0-0.37-0.336-3.336,0,1,0,68,false,stim,false,2,788.7999999523163,2,1,1,63598,task2,899467,false,true,1186,image-keyboard-response,4
true,11,1,2,1,true,z,false,true,0.0-2.0-0.37-0.337-3.337,0,1,0,90,false,stim,false,2,756.1999999284744,2,0,0,63598,task2,901744,false,false,1189,image-keyboard-response,5
true,11,1,2,1,true,z,false,true,0.0-2.0-0.37-0.338-3.338,0,1,0,90,false,stim,false,0,565.1000000238419,2,0,2,63598,task2,903823,false,false,1192,image-keyboard-response,6
true,11,1,2,1,true,z,false,false,0.0-2.0-0.37-0.339-3.339,0,1,0,90,false,stim,false,2,600.1999999284744,2,0,0,63598,task2,905938,false,true,1195,image-keyboard-response,7
true,11,1,2,2,false,d,true,true,0.0-2.0-0.37-0.340-3.340,0,1,0,90,false,stim,false,2,894.6999999284744,2,1,1,63598,task2,908362,false,true,1198,image-keyboard-response,8
true,11,1,2,2,false,d,true,false,0.0-2.0-0.37-0.341-3.341,0,1,0,90,false,stim,false,2,510.2000000476837,2,1,1,63598,task2,910403,false,false,1201,image-keyboard-response,9
true,11,0,2,1,false,z,true,false,0.0-2.0-0.38-0.342-3.342,0,1,0,81,false,stim,false,2,707.5,2,0,0,63598,task2,912625,false,false,1204,image-keyboard-response,10
true,11,1,2,1,true,z,false,true,0.0-2.0-0.38-0.343-3.343,0,1,0,90,false,stim,false,0,646.2000000476837,2,0,2,63598,task2,914784,false,false,1207,image-keyboard-response,11
true,11,2,2,2,true,d,false,true,0.0-2.0-0.38-0.344-3.344,0,1,0,68,false,stim,false,2,1144.9000000953674,2,1,1,63598,task2,917443,false,false,1210,image-keyboard-response,12
true,11,2,2,1,false,z,false,true,0.0-2.0-0.38-0.345-3.345,0,1,0,68,false,stim,true,2,919.3000000715256,2,0,0,63598,task2,919877,false,true,1213,image-keyboard-response,13
true,11,2,2,1,false,z,false,false,0.0-2.0-0.38-0.346-3.346,0,1,0,68,false,stim,true,2,545.2999999523163,2,0,0,63598,task2,921943,false,false,1216,image-keyboard-response,14
true,11,1,2,1,true,z,false,false,0.0-2.0-0.38-0.347-3.347,0,1,0,90,false,stim,false,0,435.60000002384186,2,0,2,63598,task2,923894,false,true,1219,image-keyboard-response,15
true,11,2,2,2,true,d,false,true,0.0-2.0-0.38-0.348-3.348,0,1,0,68,false,stim,false,2,410.7999999523163,2,1,1,63598,task2,925818,false,false,1222,image-keyboard-response,16
true,11,2,2,1,false,z,true,false,0.0-2.0-0.38-0.349-3.349,0,1,0,68,false,stim,false,0,1219.6000000238419,2,0,2,63598,task2,928557,false,false,1225,image-keyboard-response,17
true,11,2,2,2,true,d,false,true,0.0-2.0-0.38-0.350-3.350,0,1,0,68,false,stim,false,2,679.6000000238419,2,1,1,63598,task2,930757,false,false,1228,image-keyboard-response,18
true,11,0,2,1,false,z,false,false,0.0-2.0-0.39-0.351-3.351,0,1,0,81,false,stim,true,0,430.2000000476837,2,0,2,63598,task2,932708,false,false,1231,image-keyboard-response,19
true,11,2,2,1,false,z,false,false,0.0-2.0-0.39-0.352-3.352,0,1,0,68,false,stim,true,2,796.5999999046326,2,0,0,63598,task2,935024,false,false,1234,image-keyboard-response,20
true,11,1,2,1,true,z,false,true,0.0-2.0-0.39-0.353-3.353,0,1,0,90,false,stim,false,2,426.0,2,0,0,63598,task2,936963,false,false,1237,image-keyboard-response,21
true,11,2,2,1,false,z,true,false,0.0-2.0-0.39-0.354-3.354,0,1,0,68,false,stim,false,0,969.6000000238419,2,0,2,63598,task2,939457,false,false,1240,image-keyboard-response,22
true,11,2,2,2,true,d,false,true,0.0-2.0-0.39-0.355-3.355,0,1,0,68,false,stim,false,2,488.0,2,1,1,63598,task2,941466,false,false,1243,image-keyboard-response,23
true,11,1,2,1,true,z,false,true,0.0-2.0-0.39-0.356-3.356,0,1,0,90,false,stim,false,2,445.2000000476837,2,0,0,63598,task2,943432,false,false,1246,image-keyboard-response,24
true,11,2,2,2,true,d,false,true,0.0-2.0-0.39-0.357-3.357,0,1,0,68,false,stim,false,2,465.40000009536743,2,1,1,63598,task2,945413,false,false,1249,image-keyboard-response,25
true,11,1,2,1,true,z,false,true,0.0-2.0-0.39-0.358-3.358,0,1,0,90,false,stim,false,0,339.0,2,0,2,63598,task2,947267,false,false,1252,image-keyboard-response,26
true,11,2,2,2,true,d,false,true,0.0-2.0-0.39-0.359-3.359,0,1,0,68,false,stim,false,2,753.8999999761581,2,1,1,63598,task2,949541,false,false,1255,image-keyboard-response,27
true,11,1,2,1,true,z,false,true,0.0-2.0-0.40-0.360-3.360,0,1,0,90,false,stim,false,0,636.8999999761581,2,0,2,63598,task2,951694,false,false,1258,image-keyboard-response,28
true,11,2,2,2,true,d,false,true,0.0-2.0-0.40-0.361-3.361,0,1,0,68,false,stim,false,2,448.7999999523163,2,1,1,63598,task2,953656,false,false,1261,image-keyboard-response,29
true,11,1,2,1,true,z,false,true,0.0-2.0-0.40-0.362-3.362,0,1,0,90,false,stim,false,2,584.2999999523163,2,0,0,63598,task2,955762,false,false,1264,image-keyboard-response,30
true,11,1,2,1,true,z,false,true,0.0-2.0-0.40-0.363-3.363,0,1,0,90,false,stim,false,2,436.8000000715256,2,0,0,63598,task2,957715,false,false,1267,image-keyboard-response,31
true,11,1,2,1,true,z,false,true,0.0-2.0-0.40-0.364-3.364,0,1,0,90,false,stim,false,0,360.10000002384186,2,0,2,63598,task2,959588,false,false,1270,image-keyboard-response,32
true,11,1,2,1,true,z,false,true,0.0-2.0-0.40-0.365-3.365,0,1,0,90,false,stim,false,2,1435.0,2,0,0,63598,task2,962543,false,false,1273,image-keyboard-response,33
true,11,1,2,1,true,z,false,true,0.0-2.0-0.40-0.366-3.366,0,1,0,90,false,stim,false,0,595.2999999523163,2,0,2,63598,task2,964653,false,false,1276,image-keyboard-response,34
true,12,2,1,1,false,z,false,false,0.0-2.0-0.40-0.367-3.367,0,0,0,68,true,stim,true,2,656.7000000476837,2,0,1,63598,task2,966824,false,false,1279,image-keyboard-response,1
true,12,1,1,1,true,z,false,true,0.0-2.0-0.40-0.368-3.368,0,0,0,90,false,stim,false,2,802.0,2,0,1,63598,task2,969150,false,false,1282,image-keyboard-response,2
true,12,1,1,1,true,z,false,true,0.0-2.0-0.41-0.369-3.369,0,0,0,90,false,stim,false,2,524.5,2,0,1,63598,task2,971202,false,false,1285,image-keyboard-response,3
true,12,1,1,2,false,d,false,false,0.0-2.0-0.41-0.370-3.370,0,0,0,90,false,stim,true,1,1049.3999999761581,2,0,2,63598,task2,973767,false,false,1288,image-keyboard-response,4
true,12,1,1,2,false,d,false,false,0.0-2.0-0.41-0.371-3.371,0,0,0,90,false,stim,true,1,481.1999999284744,2,0,0,63598,task2,975769,false,false,1291,image-keyboard-response,5
true,12,1,1,1,true,z,false,true,0.0-2.0-0.41-0.372-3.372,0,0,0,90,false,stim,false,2,400.1999999284744,2,0,1,63598,task2,977698,false,false,1294,image-keyboard-response,6
true,12,2,1,2,true,d,false,true,0.0-2.0-0.41-0.373-3.373,0,0,0,68,false,stim,false,1,572.2000000476837,2,0,2,63598,task2,979791,false,false,1297,image-keyboard-response,7
true,12,2,1,2,true,d,false,true,0.0-2.0-0.41-0.374-3.374,0,0,0,68,false,stim,false,1,412.60000002384186,2,0,2,63598,task2,981731,false,false,1300,image-keyboard-response,8
true,12,0,1,2,false,d,true,false,0.0-2.0-0.41-0.375-3.375,0,0,0,81,false,stim,false,1,1032.0,2,0,0,63598,task2,984290,false,false,1303,image-keyboard-response,9
true,12,1,1,1,true,z,false,true,0.0-2.0-0.41-0.376-3.376,0,0,0,90,false,stim,false,2,437.7999999523163,2,0,1,63598,task2,986255,false,false,1306,image-keyboard-response,10
true,12,1,1,2,false,d,false,true,0.0-2.0-0.41-0.377-3.377,0,0,0,90,false,stim,true,1,508.2999999523163,2,0,0,63598,task2,988285,false,true,1309,image-keyboard-response,11
true,12,2,1,2,true,d,false,true,0.0-2.0-0.42-0.378-3.378,0,0,0,68,false,stim,false,1,420.5,2,0,2,63598,task2,990238,false,false,1312,image-keyboard-response,12
true,12,1,1,1,true,z,false,true,0.0-2.0-0.42-0.379-3.379,0,0,0,90,false,stim,false,2,369.40000009536743,2,0,1,63598,task2,992127,false,false,1315,image-keyboard-response,13
true,12,1,1,1,true,z,false,true,0.0-2.0-0.42-0.380-3.380,0,0,0,90,false,stim,false,2,682.2999999523163,2,0,1,63598,task2,994329,false,false,1318,image-keyboard-response,14
true,12,1,1,1,true,z,false,false,0.0-2.0-0.42-0.381-3.381,0,0,0,90,false,stim,false,2,427.39999997615814,2,0,1,63598,task2,996275,false,true,1321,image-keyboard-response,15
true,12,2,1,2,true,d,false,true,0.0-2.0-0.42-0.382-3.382,0,0,0,68,false,stim,false,1,753.2999999523163,2,0,2,63598,task2,998551,false,false,1324,image-keyboard-response,16
true,12,1,1,2,false,d,false,false,0.0-2.0-0.42-0.383-3.383,0,0,0,90,false,stim,true,1,716.1000000238419,2,0,0,63598,task2,1000784,false,false,1327,image-keyboard-response,17
true,12,0,1,2,false,d,true,false,0.0-2.0-0.42-0.384-3.384,0,0,0,81,false,stim,false,1,720.0,2,0,0,63598,task2,1003028,false,false,1330,image-keyboard-response,18
true,12,2,1,2,true,d,false,false,0.0-2.0-0.42-0.385-3.385,0,0,0,68,false,stim,false,1,444.6999999284744,2,0,0,63598,task2,1004992,false,true,1333,image-keyboard-response,19
true,12,2,1,2,true,d,false,true,0.0-2.0-0.42-0.386-3.386,0,0,0,68,false,stim,false,1,1101.1000000238419,2,0,2,63598,task2,1007608,false,false,1336,image-keyboard-response,20
true,12,2,1,2,true,d,false,true,0.0-2.0-0.43-0.387-3.387,0,0,0,68,false,stim,false,1,450.60000002384186,2,0,2,63598,task2,1009578,false,false,1339,image-keyboard-response,21
true,12,1,1,2,false,d,false,false,0.0-2.0-0.43-0.388-3.388,0,0,0,90,false,stim,true,1,840.0,2,0,0,63598,task2,1011937,false,false,1342,image-keyboard-response,22
true,12,0,1,1,false,z,true,false,0.0-2.0-0.43-0.389-3.389,0,0,0,81,false,stim,false,2,286.0,2,0,1,63598,task2,1013744,false,false,1345,image-keyboard-response,23
true,12,2,1,2,true,d,false,true,0.0-2.0-0.43-0.390-3.390,0,0,0,68,false,stim,false,1,350.1999999284744,2,0,2,63598,task2,1015607,false,false,1348,image-keyboard-response,24
true,12,2,1,2,true,d,false,true,0.0-2.0-0.43-0.391-3.391,0,0,0,68,false,stim,false,1,1216.2000000476837,2,0,0,63598,task2,1018344,false,false,1351,image-keyboard-response,25
true,12,2,1,1,false,z,false,false,0.0-2.0-0.43-0.392-3.392,0,0,0,68,false,stim,true,2,1684.9000000953674,2,0,1,63598,task2,1021552,false,false,1354,image-keyboard-response,26
true,12,2,1,2,true,d,false,true,0.0-2.0-0.43-0.393-3.393,0,0,0,68,false,stim,false,1,936.5,2,0,0,63598,task2,1024004,false,false,1357,image-keyboard-response,27
true,12,2,1,2,true,d,false,true,0.0-2.0-0.43-0.394-3.394,0,0,0,68,false,stim,false,1,311.3000000715256,2,0,2,63598,task2,1025838,false,false,1360,image-keyboard-response,28
true,12,0,1,1,false,z,true,false,0.0-2.0-0.43-0.395-3.395,0,0,0,81,false,stim,false,2,293.09999990463257,2,0,1,63598,task2,1027650,false,false,1363,image-keyboard-response,29
true,12,2,1,2,true,d,false,true,0.0-2.0-0.44-0.396-3.396,0,0,0,68,false,stim,false,1,369.2000000476837,2,0,0,63598,task2,1029536,false,false,1366,image-keyboard-response,30
true,12,2,1,1,false,z,false,false,0.0-2.0-0.44-0.397-3.397,0,0,0,68,false,stim,true,2,439.89999997615814,2,0,1,63598,task2,1031497,false,false,1369,image-keyboard-response,31
true,12,2,1,2,true,d,false,true,0.0-2.0-0.44-0.398-3.398,0,0,0,68,false,stim,false,1,313.7000000476837,2,0,2,63598,task2,1033339,false,false,1372,image-keyboard-response,32
true,12,1,1,1,true,z,false,true,0.0-2.0-0.44-0.399-3.399,0,0,0,90,false,stim,false,2,454.1999999284744,2,0,1,63598,task2,1035313,false,false,1375,image-keyboard-response,33
true,12,2,1,2,true,d,false,true,0.0-2.0-0.44-0.400-3.400,0,0,0,68,false,stim,false,1,453.39999997615814,2,1,0,63598,task2,1037281,false,false,1378,image-keyboard-response,34
true,12,1,1,1,true,z,false,true,0.0-2.0-0.44-0.401-3.401,0,0,0,90,false,stim,false,2,470.7999999523163,2,0,1,63598,task2,1039268,false,false,1381,image-keyboard-response,35
true,12,2,1,2,true,d,false,true,0.0-2.0-0.44-0.402-3.402,0,0,0,68,false,stim,false,1,376.39999997615814,2,0,2,63598,task2,1041164,false,false,1384,image-keyboard-response,36
true,12,2,1,2,true,d,false,false,0.0-2.0-0.44-0.403-3.403,0,0,0,68,false,stim,false,1,512.7999999523163,2,0,2,63598,task2,1043190,false,true,1387,image-keyboard-response,37
true,13,2,2,2,true,d,false,true,0.0-2.0-0.44-0.404-3.404,1,0,0,68,true,stim,false,2,503.8000000715256,2,1,0,63598,task2,1045212,false,false,1390,image-keyboard-response,1
true,13,2,2,1,false,z,false,false,0.0-2.0-0.45-0.405-3.405,1,0,0,68,false,stim,true,2,532.1999999284744,2,0,2,63598,task2,1047260,false,false,1393,image-keyboard-response,2
true,13,2,2,2,true,d,false,true,0.0-2.0-0.45-0.406-3.406,1,0,0,68,false,stim,false,2,414.5,2,1,0,63598,task2,1049193,false,false,1396,image-keyboard-response,3
true,13,2,2,2,true,d,false,true,0.0-2.0-0.45-0.407-3.407,1,0,0,68,false,stim,false,2,545.0,2,1,0,63598,task2,1051253,false,false,1399,image-keyboard-response,4
true,13,1,2,0,false,q,false,false,0.0-2.0-0.45-0.408-3.408,1,0,0,90,false,stim,true,1,626.8999999761581,2,0,1,63598,task2,1053394,false,false,1402,image-keyboard-response,5
true,13,2,2,2,true,d,false,true,0.0-2.0-0.45-0.409-3.409,1,0,0,68,false,stim,false,2,735.2999999523163,2,1,0,63598,task2,1055642,false,false,1405,image-keyboard-response,6
true,13,0,2,0,true,q,false,true,0.0-2.0-0.45-0.410-3.410,1,0,0,81,false,stim,false,1,397.6999999284744,2,0,1,63598,task2,1057555,false,false,1408,image-keyboard-response,7
true,13,0,2,0,true,q,false,true,0.0-2.0-0.45-0.411-3.411,1,0,0,81,false,stim,false,1,860.8000000715256,2,0,1,63598,task2,1059938,false,false,1411,image-keyboard-response,8
true,13,1,2,1,true,z,false,true,0.0-2.0-0.45-0.412-3.412,1,0,0,90,false,stim,false,2,868.3000000715256,2,0,2,63598,task2,1062326,false,false,1414,image-keyboard-response,9
true,13,1,2,1,true,z,false,true,0.0-2.0-0.45-0.413-3.413,1,0,0,90,false,stim,false,2,460.7000000476837,2,0,2,63598,task2,1064306,false,false,1417,image-keyboard-response,10
true,13,1,2,1,true,z,false,false,0.0-2.0-0.46-0.414-3.414,1,0,0,90,false,stim,false,2,405.1999999284744,2,0,2,63598,task2,1066233,false,true,1420,image-keyboard-response,11
true,13,2,2,2,true,d,false,false,0.0-2.0-0.46-0.415-3.415,1,0,0,68,false,stim,false,2,483.8000000715256,2,1,0,63598,task2,1068231,false,true,1423,image-keyboard-response,12
true,13,0,2,2,false,d,true,false,0.0-2.0-0.46-0.416-3.416,1,0,0,81,false,stim,false,2,436.39999997615814,2,1,0,63598,task2,1070184,false,false,1426,image-keyboard-response,13
true,13,2,2,0,false,q,true,false,0.0-2.0-0.46-0.417-3.417,1,0,0,68,false,stim,false,1,616.0,2,0,1,63598,task2,1072313,false,false,1429,image-keyboard-response,14
true,13,0,2,1,false,z,true,false,0.0-2.0-0.46-0.418-3.418,1,0,0,81,false,stim,false,2,1427.0,2,0,2,63598,task2,1075254,false,false,1432,image-keyboard-response,15
true,13,0,2,2,false,d,true,false,0.0-2.0-0.46-0.419-3.419,1,0,0,81,false,stim,false,2,822.6000000238419,2,1,0,63598,task2,1077590,false,false,1435,image-keyboard-response,16
true,13,1,2,1,true,z,false,true,0.0-2.0-0.46-0.420-3.420,1,0,0,90,false,stim,false,2,786.3999999761581,2,0,2,63598,task2,1079894,false,false,1438,image-keyboard-response,17
true,13,0,2,0,true,q,false,true,0.0-2.0-0.46-0.421-3.421,1,0,0,81,false,stim,false,1,1064.3000000715256,2,0,1,63598,task2,1082492,false,false,1441,image-keyboard-response,18
true,13,0,2,0,true,q,false,true,0.0-2.0-0.46-0.422-3.422,1,0,0,81,false,stim,false,1,522.6000000238419,2,0,1,63598,task2,1084530,false,false,1444,image-keyboard-response,19
true,13,2,2,2,true,d,false,true,0.0-2.0-0.47-0.423-3.423,1,0,0,68,false,stim,false,2,513.1000000238419,2,1,0,63598,task2,1086560,false,false,1447,image-keyboard-response,20
true,13,1,2,1,true,z,false,true,0.0-2.0-0.47-0.424-3.424,1,0,0,90,false,stim,false,2,654.7999999523163,2,0,2,63598,task2,1088732,false,false,1450,image-keyboard-response,21
true,13,1,2,1,true,z,false,true,0.0-2.0-0.47-0.425-3.425,1,0,0,90,false,stim,false,2,712.2999999523163,2,0,2,63598,task2,1090959,false,false,1453,image-keyboard-response,22
true,13,0,2,0,true,q,false,true,0.0-2.0-0.47-0.426-3.426,1,0,0,81,false,stim,false,1,665.5,2,0,1,63598,task2,1093143,false,false,1456,image-keyboard-response,23
true,13,0,2,0,true,q,false,true,0.0-2.0-0.47-0.427-3.427,1,0,0,81,false,stim,false,1,653.3999999761581,2,0,1,63598,task2,1095311,false,false,1459,image-keyboard-response,24
true,13,2,2,2,true,d,false,true,0.0-2.0-0.47-0.428-3.428,1,0,0,68,false,stim,false,2,534.3999999761581,2,1,0,63598,task2,1097362,false,false,1462,image-keyboard-response,25
true,13,1,2,1,true,z,false,true,0.0-2.0-0.47-0.429-3.429,1,0,0,90,false,stim,false,2,773.7999999523163,2,0,2,63598,task2,1099652,false,false,1465,image-keyboard-response,26
true,13,2,2,2,true,d,false,true,0.0-2.0-0.47-0.430-3.430,1,0,0,68,false,stim,false,2,688.6999999284744,2,1,0,63598,task2,1101856,false,false,1468,image-keyboard-response,27
true,13,0,2,0,true,q,false,true,0.0-2.0-0.47-0.431-3.431,1,0,0,81,false,stim,false,1,1410.5,2,0,1,63598,task2,1104789,false,false,1471,image-keyboard-response,28
true,13,2,2,2,true,d,false,true,0.0-2.0-0.48-0.432-3.432,1,0,0,68,false,stim,false,2,1614.8999999761581,2,1,0,63598,task2,1107932,false,false,1474,image-keyboard-response,29
true,13,0,2,0,true,q,false,true,0.0-2.0-0.48-0.433-3.433,1,0,0,81,false,stim,false,1,704.5,2,0,1,63598,task2,1110153,false,false,1477,image-keyboard-response,30
true,13,0,2,0,true,q,false,true,0.0-2.0-0.48-0.434-3.434,1,0,0,81,false,stim,false,1,501.3000000715256,2,0,1,63598,task2,1112169,false,false,1480,image-keyboard-response,31
true,13,1,2,1,true,z,false,true,0.0-2.0-0.48-0.435-3.435,1,0,0,90,false,stim,false,2,504.0,2,1,2,63598,task2,1114192,false,false,1483,image-keyboard-response,32
true,13,2,2,2,true,d,false,true,0.0-2.0-0.48-0.436-3.436,1,0,0,68,false,stim,false,2,422.39999997615814,2,0,0,63598,task2,1116130,false,false,1486,image-keyboard-response,33
true,13,0,2,0,true,q,false,true,0.0-2.0-0.48-0.437-3.437,1,0,0,81,false,stim,false,1,478.2000000476837,2,0,1,63598,task2,1118126,false,false,1489,image-keyboard-response,34
true,14,2,2,0,false,q,false,false,0.0-2.0-0.48-0.438-3.438,0,0,1,68,true,stim,true,2,663.8999999761581,2,0,0,63598,task2,1120311,false,false,1492,image-keyboard-response,1
true,14,1,2,1,true,z,false,true,0.0-2.0-0.48-0.439-3.439,0,0,1,90,false,stim,false,1,611.2999999523163,2,1,2,63598,task2,1122438,false,false,1495,image-keyboard-response,2
true,14,1,2,1,true,z,false,true,0.0-2.0-0.48-0.440-3.440,0,0,1,90,false,stim,false,1,484.3000000715256,2,1,2,63598,task2,1124442,false,false,1498,image-keyboard-response,3
true,14,1,2,0,false,q,true,false,0.0-2.0-0.49-0.441-3.441,0,0,1,90,false,stim,false,2,725.0,2,0,0,63598,task2,1126699,false,false,1501,image-keyboard-response,4
true,14,0,2,0,true,q,false,true,0.0-2.0-0.49-0.442-3.442,0,0,1,81,false,stim,false,2,713.1999999284744,2,0,0,63598,task2,1128931,false,false,1504,image-keyboard-response,5
true,14,1,2,1,true,z,false,true,0.0-2.0-0.49-0.443-3.443,0,0,1,90,false,stim,false,1,608.8999999761581,2,1,2,63598,task2,1131055,false,false,1507,image-keyboard-response,6
true,14,1,2,1,true,z,false,true,0.0-2.0-0.49-0.444-3.444,0,0,1,90,false,stim,false,1,545.3000000715256,2,1,2,63598,task2,1133122,false,false,1510,image-keyboard-response,7
true,14,0,2,1,false,z,false,false,0.0-2.0-0.49-0.445-3.445,0,0,1,81,false,stim,true,0,563.8999999761581,2,0,1,63598,task2,1135201,false,false,1513,image-keyboard-response,8
true,14,2,2,1,false,z,true,false,0.0-2.0-0.49-0.446-3.446,0,0,1,68,false,stim,false,0,614.8999999761581,2,0,1,63598,task2,1137333,false,false,1516,image-keyboard-response,9
true,14,1,2,1,true,z,false,false,0.0-2.0-0.49-0.447-3.447,0,0,1,90,false,stim,false,0,586.0,2,0,1,63598,task2,1139434,false,true,1519,image-keyboard-response,10
true,14,1,2,1,true,z,false,true,0.0-2.0-0.49-0.448-3.448,0,0,1,90,false,stim,false,1,922.0,2,1,2,63598,task2,1141869,false,false,1522,image-keyboard-response,11
true,14,0,2,0,true,q,false,true,0.0-2.0-0.49-0.449-3.449,0,0,1,81,false,stim,false,2,404.0,2,0,0,63598,task2,1143787,false,false,1525,image-keyboard-response,12
true,14,0,2,0,true,q,false,true,0.0-2.0-0.50-0.450-3.450,0,0,1,81,false,stim,false,2,541.7999999523163,2,0,0,63598,task2,1145850,false,false,1528,image-keyboard-response,13
true,14,2,2,1,false,z,true,true,0.0-2.0-0.50-0.451-3.451,0,0,1,68,false,stim,false,0,1200.6999999284744,2,0,1,63598,task2,1148578,false,true,1531,image-keyboard-response,14
true,14,0,2,0,true,q,false,true,0.0-2.0-0.50-0.452-3.452,0,0,1,81,false,stim,false,2,732.2999999523163,2,0,0,63598,task2,1150829,false,false,1534,image-keyboard-response,15
true,14,1,2,1,true,z,false,true,0.0-2.0-0.50-0.453-3.453,0,0,1,90,false,stim,false,1,372.89999997615814,2,1,2,63598,task2,1152719,false,false,1537,image-keyboard-response,16
true,14,2,2,1,false,z,true,false,0.0-2.0-0.50-0.454-3.454,0,0,1,68,false,stim,false,0,364.2000000476837,2,0,1,63598,task2,1154611,false,false,1540,image-keyboard-response,17
true,14,0,2,0,true,q,false,false,0.0-2.0-0.50-0.455-3.455,0,0,1,81,false,stim,false,2,912.3999999761581,2,0,0,63598,task2,1157039,false,true,1543,image-keyboard-response,18
true,14,1,2,1,true,z,false,true,0.0-2.0-0.50-0.456-3.456,0,0,1,90,false,stim,false,1,338.60000002384186,2,1,2,63598,task2,1158897,false,false,1546,image-keyboard-response,19
true,14,0,2,1,false,z,false,false,0.0-2.0-0.50-0.457-3.457,0,0,1,81,false,stim,true,0,610.3999999761581,2,0,1,63598,task2,1161028,false,false,1549,image-keyboard-response,20
true,14,1,2,1,true,z,false,true,0.0-2.0-0.50-0.458-3.458,0,0,1,90,false,stim,false,1,689.5,2,1,2,63598,task2,1163237,false,false,1552,image-keyboard-response,21
true,14,1,2,0,false,q,true,false,0.0-2.0-0.51-0.459-3.459,0,0,1,90,false,stim,false,2,1209.2999999523163,2,0,0,63598,task2,1165966,false,false,1555,image-keyboard-response,22
true,14,1,2,1,true,z,false,true,0.0-2.0-0.51-0.460-3.460,0,0,1,90,false,stim,false,0,286.0,2,0,1,63598,task2,1167774,false,false,1558,image-keyboard-response,23
true,14,1,2,1,true,z,false,true,0.0-2.0-0.51-0.461-3.461,0,0,1,90,false,stim,false,0,833.7999999523163,2,0,1,63598,task2,1170121,false,false,1561,image-keyboard-response,24
true,14,1,2,1,true,z,false,true,0.0-2.0-0.51-0.462-3.462,0,0,1,90,false,stim,false,1,423.7000000476837,2,1,2,63598,task2,1172061,false,false,1564,image-keyboard-response,25
true,14,2,2,0,false,q,false,false,0.0-2.0-0.51-0.463-3.463,0,0,1,68,false,stim,true,2,326.5,2,0,0,63598,task2,1173901,false,false,1567,image-keyboard-response,26
true,14,1,2,1,true,z,false,true,0.0-2.0-0.51-0.464-3.464,0,0,1,90,false,stim,false,1,441.5,2,0,2,63598,task2,1175858,false,false,1570,image-keyboard-response,27
true,14,0,2,0,true,q,false,true,0.0-2.0-0.51-0.465-3.465,0,0,1,81,false,stim,false,2,1088.8999999761581,2,0,0,63598,task2,1178467,false,false,1573,image-keyboard-response,28
true,14,1,2,1,true,z,false,true,0.0-2.0-0.51-0.466-3.466,0,0,1,90,false,stim,false,1,502.5,2,0,2,63598,task2,1180499,false,false,1576,image-keyboard-response,29
true,14,1,2,1,true,z,false,true,0.0-2.0-0.51-0.467-3.467,0,0,1,90,false,stim,false,0,407.5,2,0,1,63598,task2,1182425,false,false,1579,image-keyboard-response,30
true,14,1,2,1,true,z,false,true,0.0-2.0-0.52-0.468-3.468,0,0,1,90,false,stim,false,0,481.7999999523163,2,0,1,63598,task2,1184429,false,false,1582,image-keyboard-response,31
true,15,1,1,0,false,q,false,false,0.0-2.0-0.52-0.469-3.469,0,0,0,90,true,stim,true,1,630.8999999761581,2,0,2,63598,task2,1186579,false,false,1585,image-keyboard-response,1
true,15,2,1,0,false,q,true,false,0.0-2.0-0.52-0.470-3.470,0,0,0,68,false,stim,false,1,519.5999999046326,2,0,2,63598,task2,1188617,false,false,1588,image-keyboard-response,2
true,15,0,1,1,false,z,false,false,0.0-2.0-0.52-0.471-3.471,0,0,0,81,false,stim,true,0,722.8999999761581,2,0,0,63598,task2,1190860,false,false,1591,image-keyboard-response,3
true,15,1,1,1,true,z,false,true,0.0-2.0-0.52-0.472-3.472,0,0,0,90,false,stim,false,0,613.5,2,0,0,63598,task2,1193001,false,false,1594,image-keyboard-response,4
true,15,0,1,0,true,q,false,true,0.0-2.0-0.52-0.473-3.473,0,0,0,81,false,stim,false,1,433.89999997615814,2,0,2,63598,task2,1194951,false,false,1597,image-keyboard-response,5
true,15,1,1,1,true,z,false,true,0.0-2.0-0.52-0.474-3.474,0,0,0,90,false,stim,false,0,1267.1999999284744,2,0,0,63598,task2,1197734,false,false,1600,image-keyboard-response,6
true,15,1,1,2,false,d,false,false,0.0-2.0-0.52-0.475-3.475,0,0,0,90,false,stim,true,1,884.3999999761581,2,0,1,63598,task2,1200142,false,false,1603,image-keyboard-response,7
true,15,0,1,2,false,d,true,false,0.0-2.0-0.52-0.476-3.476,0,0,0,81,false,stim,false,1,987.3999999761581,2,0,1,63598,task2,1202645,false,false,1606,image-keyboard-response,8
true,15,1,1,0,false,q,false,false,0.0-2.0-0.53-0.477-3.477,0,0,0,90,false,stim,true,1,781.8999999761581,2,0,2,63598,task2,1204949,false,false,1609,image-keyboard-response,9
true,15,0,1,0,true,q,false,true,0.0-2.0-0.53-0.478-3.478,0,0,0,81,false,stim,false,1,583.3999999761581,2,0,2,63598,task2,1207051,false,false,1612,image-keyboard-response,10
true,15,1,1,1,true,z,false,true,0.0-2.0-0.53-0.479-3.479,0,0,0,90,false,stim,false,0,419.90000009536743,2,0,0,63598,task2,1208988,false,false,1615,image-keyboard-response,11
true,15,0,1,0,true,q,false,true,0.0-2.0-0.53-0.480-3.480,0,0,0,81,false,stim,false,1,444.39999997615814,2,0,2,63598,task2,1210951,false,false,1618,image-keyboard-response,12
true,15,1,1,1,true,z,false,false,0.0-2.0-0.53-0.481-3.481,0,0,0,90,false,stim,false,0,376.10000002384186,2,0,0,63598,task2,1212843,false,true,1621,image-keyboard-response,13
true,15,2,1,2,true,d,false,true,0.0-2.0-0.53-0.482-3.482,0,0,0,68,false,stim,false,1,852.2999999523163,2,0,1,63598,task2,1215210,false,false,1624,image-keyboard-response,14
true,15,2,1,2,true,d,false,true,0.0-2.0-0.53-0.483-3.483,0,0,0,68,false,stim,false,1,797.3000000715256,2,0,1,63598,task2,1217525,false,false,1627,image-keyboard-response,15
true,15,2,1,2,true,d,false,true,0.0-2.0-0.53-0.484-3.484,0,0,0,68,false,stim,false,1,580.3999999761581,2,0,1,63598,task2,1219627,false,false,1630,image-keyboard-response,16
true,15,0,1,1,false,z,false,false,0.0-2.0-0.53-0.485-3.485,0,0,0,81,false,stim,true,0,773.1999999284744,2,0,0,63598,task2,1221921,false,false,1633,image-keyboard-response,17
true,15,2,1,2,true,d,false,true,0.0-2.0-0.54-0.486-3.486,0,0,0,68,false,stim,false,1,600.9000000953674,2,0,1,63598,task2,1224038,false,false,1636,image-keyboard-response,18
true,15,2,1,1,false,z,true,false,0.0-2.0-0.54-0.487-3.487,0,0,0,68,false,stim,false,0,876.5,2,0,0,63598,task2,1226424,false,false,1639,image-keyboard-response,19
true,15,2,1,2,true,d,false,true,0.0-2.0-0.54-0.488-3.488,0,0,0,68,false,stim,false,1,582.0999999046326,2,0,1,63598,task2,1228529,false,false,1642,image-keyboard-response,20
true,15,0,1,0,true,q,false,true,0.0-2.0-0.54-0.489-3.489,0,0,0,81,false,stim,false,1,531.1000000238419,2,0,2,63598,task2,1230578,false,false,1645,image-keyboard-response,21
true,15,1,1,1,true,z,false,true,0.0-2.0-0.54-0.490-3.490,0,0,0,90,false,stim,false,0,921.5,2,0,0,63598,task2,1233020,false,false,1648,image-keyboard-response,22
true,15,0,1,0,true,q,false,true,0.0-2.0-0.54-0.491-3.491,0,0,0,81,false,stim,false,1,599.7000000476837,2,0,2,63598,task2,1235137,false,false,1651,image-keyboard-response,23
true,15,1,1,1,true,z,false,true,0.0-2.0-0.54-0.492-3.492,0,0,0,90,false,stim,false,0,601.3999999761581,2,0,0,63598,task2,1237259,false,false,1654,image-keyboard-response,24
true,15,0,1,0,true,q,false,true,0.0-2.0-0.54-0.493-3.493,0,0,0,81,false,stim,false,1,435.8000000715256,2,0,2,63598,task2,1239213,false,false,1657,image-keyboard-response,25
true,15,2,1,2,true,d,false,true,0.0-2.0-0.54-0.494-3.494,0,0,0,68,false,stim,false,1,678.7999999523163,2,0,1,63598,task2,1241406,false,false,1660,image-keyboard-response,26
true,15,2,1,2,true,d,false,true,0.0-2.0-0.55-0.495-3.495,0,0,0,68,false,stim,false,1,416.60000002384186,2,0,1,63598,task2,1243343,false,false,1663,image-keyboard-response,27
true,15,1,1,1,true,z,false,true,0.0-2.0-0.55-0.496-3.496,0,0,0,90,false,stim,false,0,850.2000000476837,2,0,0,63598,task2,1245707,false,false,1666,image-keyboard-response,28
true,15,0,1,0,true,q,false,true,0.0-2.0-0.55-0.497-3.497,0,0,0,81,false,stim,false,1,623.5999999046326,2,0,2,63598,task2,1247851,false,false,1669,image-keyboard-response,29
true,15,0,1,0,true,q,false,true,0.0-2.0-0.55-0.498-3.498,0,0,0,81,false,stim,false,1,469.7999999523163,2,0,2,63598,task2,1249847,false,false,1672,image-keyboard-response,30
true,15,1,1,1,true,z,false,true,0.0-2.0-0.55-0.499-3.499,0,0,0,90,false,stim,false,0,402.10000002384186,2,0,0,63598,task2,1251769,false,false,1675,image-keyboard-response,31
true,15,1,1,1,true,z,false,true,0.0-2.0-0.55-0.500-3.500,0,0,0,90,false,stim,false,0,355.0,2,0,0,63598,task2,1253641,false,false,1678,image-keyboard-response,32
true,15,2,1,2,true,d,false,true,0.0-2.0-0.55-0.501-3.501,0,0,0,68,false,stim,false,1,623.8999999761581,2,0,1,63598,task2,1255780,false,false,1681,image-keyboard-response,33
true,15,2,1,2,true,d,false,false,0.0-2.0-0.55-0.502-3.502,0,0,0,68,false,stim,false,1,539.0,2,0,1,63598,task2,1257837,false,true,1684,image-keyboard-response,34
true,15,0,1,0,true,q,false,true,0.0-2.0-0.55-0.503-3.503,0,0,0,81,false,stim,false,1,820.2999999523163,2,0,2,63598,task2,1260178,false,false,1687,image-keyboard-response,35
true,15,0,1,0,true,q,false,true,0.0-2.0-0.56-0.504-3.504,0,0,0,81,false,stim,false,1,501.3000000715256,2,0,2,63598,task2,1262198,false,false,1690,image-keyboard-response,36
true,15,1,1,2,false,d,false,false,0.0-2.0-0.56-0.505-3.505,0,0,0,90,false,stim,true,1,793.5,2,0,1,63598,task2,1264511,false,false,1693,image-keyboard-response,37
true,15,1,1,1,true,z,false,true,0.0-2.0-0.56-0.506-3.506,0,0,0,90,false,stim,false,0,1526.8999999761581,2,1,0,63598,task2,1267564,false,false,1696,image-keyboard-response,38
true,16,1,2,1,true,z,false,true,0.0-2.0-0.56-0.507-3.507,1,0,0,90,true,stim,false,1,489.7000000476837,2,1,0,63598,task2,1269567,false,false,1699,image-keyboard-response,1
true,16,0,2,1,false,z,false,false,0.0-2.0-0.56-0.508-3.508,1,0,0,81,false,stim,true,0,710.3999999761581,2,0,2,63598,task2,1271798,false,false,1702,image-keyboard-response,2
true,16,0,2,0,true,q,false,true,0.0-2.0-0.56-0.509-3.509,1,0,0,81,false,stim,false,2,329.10000002384186,2,0,1,63598,task2,1273647,false,false,1705,image-keyboard-response,3
true,16,1,2,1,true,z,false,true,0.0-2.0-0.56-0.510-3.510,1,0,0,90,false,stim,false,1,457.7999999523163,2,1,0,63598,task2,1275625,false,false,1708,image-keyboard-response,4
true,16,2,2,1,false,z,true,false,0.0-2.0-0.56-0.511-3.511,1,0,0,68,false,stim,false,0,665.2999999523163,2,0,2,63598,task2,1277813,false,false,1711,image-keyboard-response,5
true,16,0,2,0,true,q,false,true,0.0-2.0-0.56-0.512-3.512,1,0,0,81,false,stim,false,2,627.3000000715256,2,0,1,63598,task2,1279966,false,false,1714,image-keyboard-response,6
true,16,1,2,1,true,z,false,true,0.0-2.0-0.57-0.513-3.513,1,0,0,90,false,stim,false,1,548.2000000476837,2,1,0,63598,task2,1282036,false,false,1717,image-keyboard-response,7
true,16,0,2,0,true,q,false,true,0.0-2.0-0.57-0.514-3.514,1,0,0,81,false,stim,false,2,543.2999999523163,2,0,1,63598,task2,1284101,false,false,1720,image-keyboard-response,8
true,16,1,2,1,true,z,false,true,0.0-2.0-0.57-0.515-3.515,1,0,0,90,false,stim,false,0,465.7000000476837,2,0,2,63598,task2,1286084,false,false,1723,image-keyboard-response,9
true,16,1,2,1,true,z,false,true,0.0-2.0-0.57-0.516-3.516,1,0,0,90,false,stim,false,1,394.1999999284744,2,1,0,63598,task2,1287991,false,false,1726,image-keyboard-response,10
true,16,1,2,1,true,z,false,false,0.0-2.0-0.57-0.517-3.517,1,0,0,90,false,stim,false,1,400.7999999523163,2,1,0,63598,task2,1289908,false,true,1729,image-keyboard-response,11
true,16,1,2,1,true,z,false,true,0.0-2.0-0.57-0.518-3.518,1,0,0,90,false,stim,false,0,1117.1000000238419,2,0,2,63598,task2,1292544,false,false,1732,image-keyboard-response,12
true,16,0,2,0,true,q,false,true,0.0-2.0-0.57-0.519-3.519,1,0,0,81,false,stim,false,2,352.7000000476837,2,0,1,63598,task2,1294416,false,false,1735,image-keyboard-response,13
true,16,0,2,0,true,q,false,true,0.0-2.0-0.57-0.520-3.520,1,0,0,81,false,stim,false,2,559.9000000953674,2,0,1,63598,task2,1296497,false,false,1738,image-keyboard-response,14
true,16,1,2,1,true,z,false,true,0.0-2.0-0.57-0.521-3.521,1,0,0,90,false,stim,false,0,494.6999999284744,2,0,2,63598,task2,1298512,false,false,1741,image-keyboard-response,15
true,16,0,2,1,false,z,true,false,0.0-2.0-0.58-0.522-3.522,1,0,0,81,false,stim,false,1,691.7000000476837,2,1,0,63598,task2,1300719,false,false,1744,image-keyboard-response,16
true,16,1,2,1,true,z,false,true,0.0-2.0-0.58-0.523-3.523,1,0,0,90,false,stim,false,0,412.7000000476837,2,0,2,63598,task2,1302649,false,false,1747,image-keyboard-response,17
true,16,0,2,0,true,q,false,true,0.0-2.0-0.58-0.524-3.524,1,0,0,81,false,stim,false,2,497.40000009536743,2,0,1,63598,task2,1304664,false,false,1750,image-keyboard-response,18
true,16,0,2,0,true,q,false,true,0.0-2.0-0.58-0.525-3.525,1,0,0,81,false,stim,false,2,383.89999997615814,2,0,1,63598,task2,1306571,false,false,1753,image-keyboard-response,19
true,16,2,2,1,false,z,true,false,0.0-2.0-0.58-0.526-3.526,1,0,0,68,false,stim,false,1,707.8999999761581,2,1,0,63598,task2,1308795,false,false,1756,image-keyboard-response,20
true,16,1,2,1,true,z,false,true,0.0-2.0-0.58-0.527-3.527,1,0,0,90,false,stim,false,1,686.3999999761581,2,1,0,63598,task2,1311003,false,false,1759,image-keyboard-response,21
true,16,1,2,1,true,z,false,false,0.0-2.0-0.58-0.528-3.528,1,0,0,90,false,stim,false,0,474.89999997615814,2,0,2,63598,task2,1313002,false,true,1762,image-keyboard-response,22
true,16,0,2,1,false,z,false,false,0.0-2.0-0.58-0.529-3.529,1,0,0,81,false,stim,true,0,625.6000000238419,2,0,2,63598,task2,1315142,false,false,1765,image-keyboard-response,23
true,16,0,2,0,true,q,false,false,0.0-2.0-0.58-0.530-3.530,1,0,0,81,false,stim,false,2,478.2999999523163,2,0,1,63598,task2,1317145,false,true,1768,image-keyboard-response,24
true,16,1,2,1,true,z,false,true,0.0-2.0-0.59-0.531-3.531,1,0,0,90,false,stim,false,1,765.5,2,1,0,63598,task2,1319433,false,false,1771,image-keyboard-response,25
true,16,2,2,1,false,z,true,false,0.0-2.0-0.59-0.532-3.532,1,0,0,68,false,stim,false,1,403.0,2,1,0,63598,task2,1321360,false,false,1774,image-keyboard-response,26
true,16,2,2,0,false,q,false,false,0.0-2.0-0.59-0.533-3.533,1,0,0,68,false,stim,true,2,368.0,2,1,1,63598,task2,1323245,false,false,1777,image-keyboard-response,27
true,16,0,2,0,true,q,false,true,0.0-2.0-0.59-0.534-3.534,1,0,0,81,false,stim,false,2,892.7999999523163,2,1,1,63598,task2,1325660,false,false,1780,image-keyboard-response,28
true,16,1,2,1,true,z,false,true,0.0-2.0-0.59-0.535-3.535,1,0,0,90,false,stim,false,1,446.40000009536743,2,1,0,63598,task2,1327623,false,false,1783,image-keyboard-response,29
true,16,2,2,1,false,z,true,false,0.0-2.0-0.59-0.536-3.536,1,0,0,68,false,stim,false,0,828.7999999523163,2,1,2,63598,task2,1329966,false,false,1786,image-keyboard-response,30
true,16,1,2,1,true,z,false,true,0.0-2.0-0.59-0.537-3.537,1,0,0,90,false,stim,false,0,682.2000000476837,2,1,2,63598,task2,1332169,false,false,1789,image-keyboard-response,31
true,17,2,0,0,false,q,true,false,0.0-2.0-0.59-0.538-3.538,1,1,1,68,true,stim,false,0,606.7999999523163,2,1,1,63598,task2,1455514,false,false,1912,image-keyboard-response,1
true,17,2,0,1,false,z,true,false,0.0-2.0-0.59-0.539-3.539,1,1,1,68,false,stim,false,1,495.3000000715256,2,1,2,63598,task2,1457523,false,false,1915,image-keyboard-response,2
true,17,1,0,1,true,z,false,true,0.0-2.0-0.60-0.540-3.540,1,1,1,90,false,stim,false,1,562.4000000953674,2,1,2,63598,task2,1459600,false,false,1918,image-keyboard-response,3
true,17,2,0,1,false,z,true,false,0.0-2.0-0.60-0.541-3.541,1,1,1,68,false,stim,false,1,616.8999999761581,2,1,0,63598,task2,1461734,false,false,1921,image-keyboard-response,4
true,17,1,0,1,true,z,false,true,0.0-2.0-0.60-0.542-3.542,1,1,1,90,false,stim,false,1,651.3999999761581,2,1,0,63598,task2,1463899,false,false,1924,image-keyboard-response,5
true,17,1,0,1,true,z,false,true,0.0-2.0-0.60-0.543-3.543,1,1,1,90,false,stim,false,1,509.0,2,1,0,63598,task2,1465926,false,false,1927,image-keyboard-response,6
true,17,0,0,0,true,q,false,false,0.0-2.0-0.60-0.544-3.544,1,1,1,81,false,stim,false,0,480.10000002384186,2,1,1,63598,task2,1467926,false,true,1930,image-keyboard-response,7
true,17,1,0,0,false,q,true,false,0.0-2.0-0.60-0.545-3.545,1,1,1,90,false,stim,false,0,781.7000000476837,2,1,1,63598,task2,1470229,false,false,1933,image-keyboard-response,8
true,17,1,0,1,true,z,false,true,0.0-2.0-0.60-0.546-3.546,1,1,1,90,false,stim,false,1,447.3000000715256,2,0,2,63598,task2,1472196,false,false,1936,image-keyboard-response,9
true,17,2,0,0,false,q,true,false,0.0-2.0-0.60-0.547-3.547,1,1,1,68,false,stim,false,0,551.1000000238419,2,0,1,63598,task2,1474268,false,false,1939,image-keyboard-response,10
true,17,1,0,1,true,z,false,true,0.0-2.0-0.60-0.548-3.548,1,1,1,90,false,stim,false,1,731.6999999284744,2,0,2,63598,task2,1476519,false,false,1942,image-keyboard-response,11
true,17,0,0,0,true,q,false,true,0.0-2.0-0.61-0.549-3.549,1,1,1,81,false,stim,false,0,1247.0,2,0,1,63598,task2,1479284,false,false,1945,image-keyboard-response,12
true,17,1,0,1,true,z,false,false,0.0-2.0-0.61-0.550-3.550,1,1,1,90,false,stim,false,1,635.3000000715256,2,1,0,63598,task2,1481443,false,true,1948,image-keyboard-response,13
true,18,0,2,1,false,z,true,false,0.0-2.0-0.61-0.551-3.551,1,0,0,81,true,stim,false,1,848.5,2,1,0,63598,task2,1483805,false,false,1951,image-keyboard-response,1
true,18,1,2,2,false,d,false,false,0.0-2.0-0.61-0.552-3.552,1,0,0,90,false,stim,true,1,410.0,2,0,2,63598,task2,1485737,false,false,1954,image-keyboard-response,2
true,18,2,2,1,false,z,true,false,0.0-2.0-0.61-0.553-3.553,1,0,0,68,false,stim,false,1,650.6999999284744,2,1,0,63598,task2,1487907,false,false,1957,image-keyboard-response,3
true,18,0,2,2,false,d,false,false,0.0-2.0-0.61-0.554-3.554,1,0,0,81,false,stim,true,0,685.2000000476837,2,0,1,63598,task2,1490113,false,false,1960,image-keyboard-response,4
true,18,0,2,2,false,d,true,false,0.0-2.0-0.61-0.555-3.555,1,0,0,81,false,stim,false,1,792.6999999284744,2,0,2,63598,task2,1492420,false,false,1963,image-keyboard-response,5
true,18,2,2,2,true,d,false,true,0.0-2.0-0.61-0.556-3.556,1,0,0,68,false,stim,false,0,875.7999999523163,2,0,1,63598,task2,1494813,false,false,1966,image-keyboard-response,6
true,18,2,2,2,true,d,false,true,0.0-2.0-0.61-0.557-3.557,1,0,0,68,false,stim,false,1,984.0,2,0,2,63598,task2,1497311,false,false,1969,image-keyboard-response,7
true,18,1,2,1,true,z,false,true,0.0-2.0-0.62-0.558-3.558,1,0,0,90,false,stim,false,1,699.8999999761581,2,1,0,63598,task2,1499527,false,false,1972,image-keyboard-response,8
true,18,2,2,2,true,d,false,true,0.0-2.0-0.62-0.559-3.559,1,0,0,68,false,stim,false,1,530.1999999284744,2,0,2,63598,task2,1501577,false,false,1975,image-keyboard-response,9
true,18,2,2,2,true,d,false,true,0.0-2.0-0.62-0.560-3.560,1,0,0,68,false,stim,false,1,632.2999999523163,2,0,2,63598,task2,1503729,false,false,1978,image-keyboard-response,10
true,18,1,2,1,true,z,false,true,0.0-2.0-0.62-0.561-3.561,1,0,0,90,false,stim,false,1,393.5,2,1,0,63598,task2,1505641,false,false,1981,image-keyboard-response,11
true,18,1,2,1,true,z,false,true,0.0-2.0-0.62-0.562-3.562,1,0,0,90,false,stim,false,1,496.8000000715256,2,1,0,63598,task2,1507654,false,false,1984,image-keyboard-response,12
true,18,2,2,2,true,d,false,true,0.0-2.0-0.62-0.563-3.563,1,0,0,68,false,stim,false,1,532.3999999761581,2,0,2,63598,task2,1509705,false,false,1987,image-keyboard-response,13
true,18,2,2,2,true,d,false,true,0.0-2.0-0.62-0.564-3.564,1,0,0,68,false,stim,false,0,710.7999999523163,2,0,1,63598,task2,1511948,false,false,1990,image-keyboard-response,14
true,18,2,2,2,true,d,false,true,0.0-2.0-0.62-0.565-3.565,1,0,0,68,false,stim,false,0,585.2000000476837,2,0,1,63598,task2,1514052,false,false,1993,image-keyboard-response,15
true,18,2,2,2,true,d,false,true,0.0-2.0-0.62-0.566-3.566,1,0,0,68,false,stim,false,0,477.1999999284744,2,0,1,63598,task2,1516043,false,false,1996,image-keyboard-response,16
true,18,1,2,1,true,z,false,true,0.0-2.0-0.63-0.567-3.567,1,0,0,90,false,stim,false,1,454.5,2,1,0,63598,task2,1518021,false,false,1999,image-keyboard-response,17
true,18,2,2,2,true,d,false,true,0.0-2.0-0.63-0.568-3.568,1,0,0,68,false,stim,false,1,528.7000000476837,2,0,2,63598,task2,1520066,false,false,2002,image-keyboard-response,18
true,18,1,2,1,true,z,false,true,0.0-2.0-0.63-0.569-3.569,1,0,0,90,false,stim,false,1,534.1000000238419,2,1,0,63598,task2,1522110,false,false,2005,image-keyboard-response,19
true,18,2,2,2,true,d,false,true,0.0-2.0-0.63-0.570-3.570,1,0,0,68,false,stim,false,1,521.4000000953674,2,0,2,63598,task2,1524158,false,false,2008,image-keyboard-response,20
true,18,2,2,2,true,d,false,true,0.0-2.0-0.63-0.571-3.571,1,0,0,68,false,stim,false,0,618.1999999284744,2,0,1,63598,task2,1526295,false,false,2011,image-keyboard-response,21
true,18,2,2,2,true,d,false,true,0.0-2.0-0.63-0.572-3.572,1,0,0,68,false,stim,false,0,452.5,2,0,1,63598,task2,1528269,false,false,2014,image-keyboard-response,22
true,18,2,2,2,true,d,false,true,0.0-2.0-0.63-0.573-3.573,1,0,0,68,false,stim,false,1,672.1999999284744,2,0,2,63598,task2,1530469,false,false,2017,image-keyboard-response,23
true,18,1,2,1,true,z,false,true,0.0-2.0-0.63-0.574-3.574,1,0,0,90,false,stim,false,1,580.8999999761581,2,1,0,63598,task2,1532577,false,false,2020,image-keyboard-response,24
true,18,2,2,2,true,d,false,true,0.0-2.0-0.63-0.575-3.575,1,0,0,68,false,stim,false,0,540.2000000476837,2,0,1,63598,task2,1534647,false,false,2023,image-keyboard-response,25
true,18,2,2,2,true,d,false,false,0.0-2.0-0.64-0.576-3.576,1,0,0,68,false,stim,false,0,511.2000000476837,2,0,1,63598,task2,1536678,false,true,2026,image-keyboard-response,26
true,18,2,2,2,true,d,false,true,0.0-2.0-0.64-0.577-3.577,1,0,0,68,false,stim,false,1,539.6000000238419,2,0,2,63598,task2,1538736,false,false,2029,image-keyboard-response,27
true,18,2,2,2,true,d,false,true,0.0-2.0-0.64-0.578-3.578,1,0,0,68,false,stim,false,1,803.8000000715256,2,0,2,63598,task2,1541060,false,false,2032,image-keyboard-response,28
true,18,0,2,2,false,d,false,false,0.0-2.0-0.64-0.579-3.579,1,0,0,81,false,stim,true,0,503.7000000476837,2,1,1,63598,task2,1543080,false,false,2035,image-keyboard-response,29
true,18,2,2,2,true,d,false,true,0.0-2.0-0.64-0.580-3.580,1,0,0,68,false,stim,false,1,630.7000000476837,2,0,2,63598,task2,1545228,false,false,2038,image-keyboard-response,30
true,18,1,2,2,false,d,true,false,0.0-2.0-0.64-0.581-3.581,1,0,0,90,false,stim,false,0,741.3999999761581,2,1,1,63598,task2,1547488,false,false,2041,image-keyboard-response,31
true,19,1,2,0,false,q,false,false,0.0-2.0-0.64-0.582-3.582,0,1,0,90,true,stim,true,1,402.39999997615814,2,0,0,63598,task2,1549410,false,false,2044,image-keyboard-response,1
true,19,2,2,0,false,q,true,false,0.0-2.0-0.64-0.583-3.583,0,1,0,68,false,stim,false,1,558.0,2,0,0,63598,task2,1551485,false,false,2047,image-keyboard-response,2
true,19,0,2,0,true,q,false,true,0.0-2.0-0.64-0.584-3.584,0,1,0,81,false,stim,false,1,648.6999999284744,2,0,0,63598,task2,1553655,false,false,2050,image-keyboard-response,3
true,19,2,2,2,true,d,false,true,0.0-2.0-0.65-0.585-3.585,0,1,0,68,false,stim,false,2,625.3999999761581,2,1,1,63598,task2,1555802,false,false,2053,image-keyboard-response,4
true,19,2,2,2,true,d,false,true,0.0-2.0-0.65-0.586-3.586,0,1,0,68,false,stim,false,2,572.8000000715256,2,1,1,63598,task2,1557890,false,false,2056,image-keyboard-response,5
true,19,0,2,0,true,q,false,true,0.0-2.0-0.65-0.587-3.587,0,1,0,81,false,stim,false,1,439.7999999523163,2,0,0,63598,task2,1559847,false,false,2059,image-keyboard-response,6
true,19,0,2,0,true,q,false,true,0.0-2.0-0.65-0.588-3.588,0,1,0,81,false,stim,false,1,421.0,2,0,0,63598,task2,1561788,false,false,2062,image-keyboard-response,7
true,19,2,2,2,true,d,false,true,0.0-2.0-0.65-0.589-3.589,0,1,0,68,false,stim,false,2,604.8000000715256,2,1,1,63598,task2,1563912,false,false,2065,image-keyboard-response,8
true,19,0,2,0,true,q,false,true,0.0-2.0-0.65-0.590-3.590,0,1,0,81,false,stim,false,1,637.1999999284744,2,0,0,63598,task2,1566064,false,false,2068,image-keyboard-response,9
