answered,blockNum,choice,condition,corResp,correct,correct_response,explo,fb,internal_node_id,isStable_1,isStable_2,isStable_3,key_press,newBlock,part,persev,persevResp,rt,sessNum,stableAS,stimulus,subject,task,time_elapsed,training,trap,trial_index,trial_type,trialsInBlock
true,1,1,0,2,false,d,true,false,0.0-2.0-0.0-0.0-3.0,0,0,0,90,true,stim,false,-1,984.5,0,0,1,63598,task3,808373,false,false,124,image-keyboard-response,1
true,1,1,0,0,false,q,true,false,0.0-2.0-0.0-0.1-3.1,0,0,0,90,false,stim,false,-1,1258.6999999284744,0,0,0,63598,task3,811151,false,false,127,image-keyboard-response,2
true,1,0,0,2,false,d,true,false,0.0-2.0-0.0-0.2-3.2,0,0,0,81,false,stim,false,-1,1009.2000000476837,0,0,1,63598,task3,813682,false,false,130,image-keyboard-response,3
true,1,2,0,0,false,q,true,false,0.0-2.0-0.0-0.3-3.3,0,0,0,68,false,stim,false,-1,810.2999999523163,0,0,0,63598,task3,816014,false,false,133,image-keyboard-response,4
true,1,0,0,0,true,q,false,false,0.0-2.0-0.0-0.4-3.4,0,0,0,81,false,stim,false,-1,1701.3999999761581,0,0,0,63598,task3,819234,false,true,136,image-keyboard-response,5
true,1,2,0,1,false,z,true,false,0.0-2.0-0.0-0.5-3.5,0,0,0,68,false,stim,false,-1,1066.5,0,0,2,63598,task3,821823,false,false,139,image-keyboard-response,6
true,1,1,0,1,true,z,false,true,0.0-2.0-0.0-0.6-3.6,0,0,0,90,false,stim,false,-1,765.1000000238419,0,0,2,63598,task3,824120,false,false,142,image-keyboard-response,7
true,1,2,0,2,true,d,false,true,0.0-2.0-0.0-0.7-3.7,0,0,0,68,false,stim,false,-1,1080.2000000476837,0,0,1,63598,task3,826722,false,false,145,image-keyboard-response,8
true,1,1,0,1,true,z,false,true,0.0-2.0-0.0-0.8-3.8,0,0,0,90,false,stim,false,-1,716.6000000238419,0,0,2,63598,task3,828968,false,false,148,image-keyboard-response,9
true,1,1,0,1,true,z,false,true,0.0-2.0-0.1-0.9-3.9,0,0,0,90,false,stim,false,-1,786.0,0,0,2,63598,task3,831280,false,false,151,image-keyboard-response,10
true,1,2,0,2,true,d,false,true,0.0-2.0-0.1-0.10-3.10,0,0,0,68,false,stim,false,-1,889.7999999523163,0,0,1,63598,task3,833692,false,false,154,image-keyboard-response,11
true,1,0,0,0,true,q,false,true,0.0-2.0-0.1-0.11-3.11,0,0,0,81,false,stim,false,-1,1014.1999999284744,0,0,0,63598,task3,836219,false,false,157,image-keyboard-response,12
true,1,0,0,0,true,q,false,true,0.0-2.0-0.1-0.12-3.12,0,0,0,81,false,stim,false,-1,588.2000000476837,0,0,0,63598,task3,838331,false,false,160,image-keyboard-response,13
true,1,1,0,1,true,z,false,true,0.0-2.0-0.1-0.13-3.13,0,0,0,90,false,stim,false,-1,951.8000000715256,0,0,2,63598,task3,840808,false,false,163,image-keyboard-response,14
true,1,2,0,2,true,d,false,true,0.0-2.0-0.1-0.14-3.14,0,0,0,68,false,stim,false,-1,650.8999999761581,0,0,1,63598,task3,842982,false,false,166,image-keyboard-response,15
true,1,2,0,2,true,d,false,true,0.0-2.0-0.1-0.15-3.15,0,0,0,68,false,stim,false,-1,794.2000000476837,0,0,1,63598,task3,845306,false,false,169,image-keyboard-response,16
true,1,1,0,1,true,z,false,true,0.0-2.0-0.1-0.16-3.16,0,0,0,90,false,stim,false,-1,846.6000000238419,0,0,2,63598,task3,847670,false,false,172,image-keyboard-response,17
true,1,0,0,0,true,q,false,true,0.0-2.0-0.1-0.17-3.17,0,0,0,81,false,stim,false,-1,707.6000000238419,0,0,0,63598,task3,849910,false,false,175,image-keyboard-response,18
true,1,0,0,0,true,q,false,true,0.0-2.0-0.2-0.18-3.18,0,0,0,81,false,stim,false,-1,723.2000000476837,0,0,0,63598,task3,852151,false,false,178,image-keyboard-response,19
true,1,0,0,0,true,q,false,false,0.0-2.0-0.2-0.19-3.19,0,0,0,81,false,stim,false,-1,595.0,0,0,0,63598,task3,854266,false,true,181,image-keyboard-response,20
true,1,1,0,1,true,z,false,true,0.0-2.0-0.2-0.20-3.20,0,0,0,90,false,stim,false,-1,1696.5,0,0,2,63598,task3,857485,false,false,184,image-keyboard-response,21
true,1,1,0,1,true,z,false,true,0.0-2.0-0.2-0.21-3.21,0,0,0,90,false,stim,false,-1,589.1000000238419,0,0,2,63598,task3,859597,false,false,187,image-keyboard-response,22
true,1,0,0,2,false,d,true,false,0.0-2.0-0.2-0.22-3.22,0,0,0,81,false,stim,false,-1,1001.8999999761581,0,1,1,63598,task3,862124,false,false,190,image-keyboard-response,23
true,1,2,0,2,true,d,false,true,0.0-2.0-0.2-0.23-3.23,0,0,0,68,false,stim,false,-1,748.1999999284744,0,1,1,63598,task3,864389,false,false,193,image-keyboard-response,24
true,1,2,0,2,true,d,false,true,0.0-2.0-0.2-0.24-3.24,0,0,0,68,false,stim,false,-1,584.3000000715256,0,1,1,63598,task3,866497,false,false,196,image-keyboard-response,25
true,1,1,0,0,false,q,true,false,0.0-2.0-0.2-0.25-3.25,0,0,0,90,false,stim,false,-1,980.5,0,0,0,63598,task3,868995,false,false,199,image-keyboard-response,26
true,2,2,1,2,true,d,false,true,0.0-2.0-0.2-0.26-3.26,0,1,0,68,true,stim,false,1,1588.6999999284744,0,0,2,63598,task3,872111,false,false,202,image-keyboard-response,1
true,2,2,1,2,true,d,false,true,0.0-2.0-0.3-0.27-3.27,0,1,0,68,false,stim,false,1,671.1999999284744,0,0,2,63598,task3,874302,false,false,205,image-keyboard-response,2
true,2,1,1,1,true,z,false,true,0.0-2.0-0.3-0.28-3.28,0,1,0,90,false,stim,false,0,1479.8999999761581,0,0,0,63598,task3,877307,false,false,208,image-keyboard-response,3
true,2,0,1,2,false,d,true,false,0.0-2.0-0.3-0.29-3.29,0,1,0,81,false,stim,false,2,1245.3999999761581,0,1,1,63598,task3,880076,false,false,211,image-keyboard-response,4
true,2,2,1,2,true,d,false,true,0.0-2.0-0.3-0.30-3.30,0,1,0,68,false,stim,false,1,683.0,0,0,2,63598,task3,882284,false,false,214,image-keyboard-response,5
true,2,1,1,2,false,d,true,true,0.0-2.0-0.3-0.31-3.31,0,1,0,90,false,stim,false,2,744.0,0,1,1,63598,task3,884556,false,true,217,image-keyboard-response,6
true,2,1,1,1,true,z,false,true,0.0-2.0-0.3-0.32-3.32,0,1,0,90,false,stim,false,0,1163.2999999523163,0,0,0,63598,task3,887249,false,false,220,image-keyboard-response,7
true,2,1,1,2,false,d,true,false,0.0-2.0-0.3-0.33-3.33,0,1,0,90,false,stim,false,2,700.7000000476837,0,1,1,63598,task3,889473,false,false,223,image-keyboard-response,8
true,2,1,1,1,true,z,false,true,0.0-2.0-0.3-0.34-3.34,0,1,0,90,false,stim,false,0,811.7999999523163,0,0,0,63598,task3,891809,false,false,226,image-keyboard-response,9
true,2,2,1,2,true,d,false,false,0.0-2.0-0.3-0.35-3.35,0,1,0,68,false,stim,false,1,689.5999999046326,0,0,2,63598,task3,894024,false,true,229,image-keyboard-response,10
true,2,1,1,2,false,d,false,false,0.0-2.0-0.4-0.36-3.36,0,1,0,90,false,stim,true,1,628.7000000476837,0,0,2,63598,task3,896171,false,false,232,image-keyboard-response,11
true,2,1,1,1,true,z,false,true,0.0-2.0-0.4-0.37-3.37,0,1,0,90,false,stim,false,0,1241.8999999761581,0,0,0,63598,task3,898933,false,false,235,image-keyboard-response,12
true,2,2,1,2,true,d,false,false,0.0-2.0-0.4-0.38-3.38,0,1,0,68,false,stim,false,2,975.8000000715256,0,1,1,63598,task3,901432,false,true,238,image-keyboard-response,13
true,2,1,1,2,false,d,true,false,0.0-2.0-0.4-0.39-3.39,0,1,0,90,false,stim,false,2,771.2000000476837,0,1,1,63598,task3,903732,false,false,241,image-keyboard-response,14
true,2,1,1,1,true,z,false,true,0.0-2.0-0.4-0.40-3.40,0,1,0,90,false,stim,false,0,659.7999999523163,0,0,0,63598,task3,905922,false,false,244,image-keyboard-response,15
true,2,1,1,2,false,d,false,false,0.0-2.0-0.4-0.41-3.41,0,1,0,90,false,stim,true,1,1216.2999999523163,0,0,2,63598,task3,908664,false,false,247,image-keyboard-response,16
true,2,1,1,2,false,d,true,false,0.0-2.0-0.4-0.42-3.42,0,1,0,90,false,stim,false,2,829.9000000953674,0,1,1,63598,task3,911015,false,false,250,image-keyboard-response,17
true,2,0,1,2,false,d,true,false,0.0-2.0-0.4-0.43-3.43,0,1,0,81,false,stim,false,1,1476.4000000953674,0,0,2,63598,task3,914010,false,false,253,image-keyboard-response,18
true,2,1,1,1,true,z,false,true,0.0-2.0-0.4-0.44-3.44,0,1,0,90,false,stim,false,0,709.0,0,0,0,63598,task3,916244,false,false,256,image-keyboard-response,19
true,2,0,1,2,false,d,true,false,0.0-2.0-0.5-0.45-3.45,0,1,0,81,false,stim,false,2,748.2000000476837,0,1,1,63598,task3,918521,false,false,259,image-keyboard-response,20
true,2,0,1,2,false,d,true,false,0.0-2.0-0.5-0.46-3.46,0,1,0,81,false,stim,false,1,723.3999999761581,0,0,2,63598,task3,920766,false,false,262,image-keyboard-response,21
true,2,1,1,1,true,z,false,true,0.0-2.0-0.5-0.47-3.47,0,1,0,90,false,stim,false,0,695.8000000715256,0,0,0,63598,task3,922993,false,false,265,image-keyboard-response,22
true,2,1,1,2,false,d,true,false,0.0-2.0-0.5-0.48-3.48,0,1,0,90,false,stim,false,2,912.0999999046326,0,0,1,63598,task3,925433,false,false,268,image-keyboard-response,23
true,2,1,1,1,true,z,false,true,0.0-2.0-0.5-0.49-3.49,0,1,0,90,false,stim,false,0,738.7999999523163,0,1,0,63598,task3,927688,false,false,271,image-keyboard-response,24
true,2,1,1,2,false,d,false,false,0.0-2.0-0.5-0.50-3.50,0,1,0,90,false,stim,true,1,1315.1000000238419,0,0,2,63598,task3,930520,false,false,274,image-keyboard-response,25
true,2,2,1,2,true,d,false,true,0.0-2.0-0.5-0.51-3.51,0,1,0,68,false,stim,false,1,581.7000000476837,0,0,2,63598,task3,932621,false,false,277,image-keyboard-response,26
true,2,2,1,2,true,d,false,true,0.0-2.0-0.5-0.52-3.52,0,1,0,68,false,stim,false,2,1175.0,0,0,1,63598,task3,935314,false,false,280,image-keyboard-response,27
true,3,1,1,1,true,z,false,true,0.0-2.0-0.5-0.53-3.53,1,0,0,90,true,stim,false,1,782.2000000476837,0,1,0,63598,task3,937617,false,false,283,image-keyboard-response,1
true,3,2,1,0,false,q,false,false,0.0-2.0-0.6-0.54-3.54,1,0,0,68,false,stim,true,2,593.1000000238419,0,0,1,63598,task3,939731,false,false,286,image-keyboard-response,2
true,3,2,1,0,false,q,false,true,0.0-2.0-0.6-0.55-3.55,1,0,0,68,false,stim,true,2,669.8999999761581,0,0,2,63598,task3,941922,false,true,289,image-keyboard-response,3
true,3,1,1,1,true,z,false,true,0.0-2.0-0.6-0.56-3.56,1,0,0,90,false,stim,false,1,430.2999999523163,0,1,0,63598,task3,943874,false,false,292,image-keyboard-response,4
true,3,0,1,0,true,q,false,true,0.0-2.0-0.6-0.57-3.57,1,0,0,81,false,stim,false,2,975.0,0,0,1,63598,task3,946375,false,false,295,image-keyboard-response,5
true,3,0,1,0,true,q,false,false,0.0-2.0-0.6-0.58-3.58,1,0,0,81,false,stim,false,2,704.6000000238419,0,0,1,63598,task3,948610,false,true,298,image-keyboard-response,6
true,3,2,1,0,false,q,false,false,0.0-2.0-0.6-0.59-3.59,1,0,0,68,false,stim,true,2,1473.0,0,1,2,63598,task3,951603,false,false,301,image-keyboard-response,7
true,3,1,1,0,false,q,true,false,0.0-2.0-0.6-0.60-3.60,1,0,0,90,false,stim,false,2,790.7000000476837,0,1,2,63598,task3,953926,false,false,304,image-keyboard-response,8
true,3,1,1,1,true,z,false,true,0.0-2.0-0.6-0.61-3.61,1,0,0,90,false,stim,false,1,1653.6999999284744,0,0,0,63598,task3,957107,false,false,307,image-keyboard-response,9
true,3,1,1,1,true,z,false,true,0.0-2.0-0.6-0.62-3.62,1,0,0,90,false,stim,false,1,663.1999999284744,0,0,0,63598,task3,959292,false,false,310,image-keyboard-response,10
true,3,1,1,1,true,z,false,false,0.0-2.0-0.7-0.63-3.63,1,0,0,90,false,stim,false,1,755.3000000715256,0,0,0,63598,task3,961576,false,true,313,image-keyboard-response,11
true,4,2,2,0,false,q,true,false,0.0-2.0-0.7-0.64-3.64,0,1,1,68,true,stim,false,0,1500.7999999523163,0,1,2,63598,task3,964608,false,false,316,image-keyboard-response,1
true,4,2,2,0,false,q,true,false,0.0-2.0-0.7-0.65-3.65,0,1,1,68,false,stim,false,0,1212.3000000715256,0,1,1,63598,task3,967349,false,false,319,image-keyboard-response,2
true,4,1,2,0,false,q,true,false,0.0-2.0-0.7-0.66-3.66,0,1,1,90,false,stim,false,0,724.5,0,1,1,63598,task3,969603,false,false,322,image-keyboard-response,3
true,4,0,2,0,true,q,false,true,0.0-2.0-0.7-0.67-3.67,0,1,1,81,false,stim,false,0,841.8000000715256,0,1,1,63598,task3,971963,false,false,325,image-keyboard-response,4
true,4,2,2,0,false,q,true,false,0.0-2.0-0.7-0.68-3.68,0,1,1,68,false,stim,false,0,1578.7999999523163,0,1,2,63598,task3,975064,false,false,328,image-keyboard-response,5
true,4,1,2,2,false,d,false,false,0.0-2.0-0.7-0.69-3.69,0,1,1,90,false,stim,true,1,1171.0,0,0,0,63598,task3,977755,false,false,331,image-keyboard-response,6
true,4,0,2,0,true,q,false,true,0.0-2.0-0.7-0.70-3.70,0,1,1,81,false,stim,false,0,976.3000000715256,0,1,2,63598,task3,980249,false,false,334,image-keyboard-response,7
true,4,0,2,2,false,d,true,false,0.0-2.0-0.7-0.71-3.71,0,1,1,81,false,stim,false,1,1227.3999999761581,0,0,0,63598,task3,982994,false,false,337,image-keyboard-response,8
true,4,0,2,0,true,q,false,true,0.0-2.0-0.8-0.72-3.72,0,1,1,81,false,stim,false,0,846.3999999761581,0,1,2,63598,task3,985365,false,false,340,image-keyboard-response,9
true,4,0,2,0,true,q,false,true,0.0-2.0-0.8-0.73-3.73,0,1,1,81,false,stim,false,0,754.3999999761581,0,1,2,63598,task3,987638,false,false,343,image-keyboard-response,10
true,4,2,2,2,true,d,false,true,0.0-2.0-0.8-0.74-3.74,0,1,1,68,false,stim,false,1,1212.0,0,0,0,63598,task3,990367,false,false,346,image-keyboard-response,11
true,4,0,2,0,true,q,false,false,0.0-2.0-0.8-0.75-3.75,0,1,1,81,false,stim,false,0,1245.2999999523163,0,1,1,63598,task3,993137,false,true,349,image-keyboard-response,12
true,4,2,2,2,true,d,false,true,0.0-2.0-0.8-0.76-3.76,0,1,1,68,false,stim,false,1,1008.1000000238419,0,0,0,63598,task3,995668,false,false,352,image-keyboard-response,13
true,4,1,2,0,false,q,true,false,0.0-2.0-0.8-0.77-3.77,0,1,1,90,false,stim,false,0,974.0,0,1,1,63598,task3,998170,false,false,355,image-keyboard-response,14
true,4,2,2,2,true,d,false,true,0.0-2.0-0.8-0.78-3.78,0,1,1,68,false,stim,false,1,1621.7000000476837,0,0,0,63598,task3,1001320,false,false,358,image-keyboard-response,15
true,4,2,2,0,false,q,true,false,0.0-2.0-0.8-0.79-3.79,0,1,1,68,false,stim,false,0,810.0,0,1,1,63598,task3,1003653,false,false,361,image-keyboard-response,16
true,4,0,2,0,true,q,false,true,0.0-2.0-0.8-0.80-3.80,0,1,1,81,false,stim,false,0,1133.8999999761581,0,1,2,63598,task3,1006315,false,false,364,image-keyboard-response,17
true,4,0,2,0,true,q,false,true,0.0-2.0-0.9-0.81-3.81,0,1,1,81,false,stim,false,0,809.1000000238419,0,1,2,63598,task3,1008652,false,false,367,image-keyboard-response,18
true,4,0,2,0,true,q,false,true,0.0-2.0-0.9-0.82-3.82,0,1,1,81,false,stim,false,0,1184.1000000238419,0,1,1,63598,task3,1011361,false,false,370,image-keyboard-response,19
true,4,0,2,0,true,q,false,true,0.0-2.0-0.9-0.83-3.83,0,1,1,81,false,stim,false,0,836.5,0,1,2,63598,task3,1013720,false,false,373,image-keyboard-response,20
true,4,0,2,0,true,q,false,true,0.0-2.0-0.9-0.84-3.84,0,1,1,81,false,stim,false,0,588.2999999523163,0,1,1,63598,task3,1015837,false,false,376,image-keyboard-response,21
true,4,0,2,0,true,q,false,true,0.0-2.0-0.9-0.85-3.85,0,1,1,81,false,stim,false,0,798.2999999523163,0,1,1,63598,task3,1018163,false,false,379,image-keyboard-response,22
true,4,0,2,0,true,q,false,true,0.0-2.0-0.9-0.86-3.86,0,1,1,81,false,stim,false,0,883.5,0,1,2,63598,task3,1020564,false,false,382,image-keyboard-response,23
true,4,2,2,2,true,d,false,true,0.0-2.0-0.9-0.87-3.87,0,1,1,68,false,stim,false,1,943.8999999761581,0,0,0,63598,task3,1023039,false,false,385,image-keyboard-response,24
true,4,2,2,2,true,d,false,true,0.0-2.0-0.9-0.88-3.88,0,1,1,68,false,stim,false,1,717.5,0,0,0,63598,task3,1025273,false,false,388,image-keyboard-response,25
true,4,2,2,2,true,d,false,false,0.0-2.0-0.9-0.89-3.89,0,1,1,68,false,stim,false,1,801.7999999523163,0,0,0,63598,task3,1027597,false,true,391,image-keyboard-response,26
true,4,0,2,0,true,q,false,true,0.0-2.0-0.10-0.90-3.90,0,1,1,81,false,stim,false,0,564.2000000476837,0,1,1,63598,task3,1029678,false,false,394,image-keyboard-response,27
true,4,1,2,2,false,d,false,false,0.0-2.0-0.10-0.91-3.91,0,1,1,90,false,stim,true,1,1480.7000000476837,0,0,0,63598,task3,1032680,false,false,397,image-keyboard-response,28
true,5,0,1,0,true,q,false,true,0.0-2.0-0.10-0.92-3.92,0,1,0,81,true,stim,false,0,464.10000002384186,0,1,1,63598,task3,1034670,false,false,400,image-keyboard-response,1
true,5,0,1,1,false,z,false,false,0.0-2.0-0.10-0.93-3.93,0,1,0,81,false,stim,true,0,920.0999999046326,0,0,2,63598,task3,1037118,false,false,403,image-keyboard-response,2
true,5,1,1,1,true,z,false,true,0.0-2.0-0.10-0.94-3.94,0,1,0,90,false,stim,false,0,832.3999999761581,0,0,2,63598,task3,1039475,false,false,406,image-keyboard-response,3
true,5,0,1,0,true,q,false,false,0.0-2.0-0.10-0.95-3.95,0,1,0,81,false,stim,false,0,1571.6999999284744,0,1,1,63598,task3,1042567,false,true,409,image-keyboard-response,4
true,5,2,1,1,false,z,false,true,0.0-2.0-0.10-0.96-3.96,0,1,0,68,false,stim,true,2,2137.600000023842,0,0,0,63598,task3,1046232,false,true,412,image-keyboard-response,5
true,5,1,1,1,true,z,false,true,0.0-2.0-0.10-0.97-3.97,0,1,0,90,false,stim,false,0,987.8999999761581,0,0,2,63598,task3,1048741,false,false,415,image-keyboard-response,6
true,5,2,1,1,false,z,false,false,0.0-2.0-0.10-0.98-3.98,0,1,0,68,false,stim,true,2,704.5999999046326,0,0,0,63598,task3,1050973,false,false,418,image-keyboard-response,7
true,5,0,1,0,true,q,false,true,0.0-2.0-0.11-0.99-3.99,0,1,0,81,false,stim,false,0,1107.6000000238419,0,1,1,63598,task3,1053599,false,false,421,image-keyboard-response,8
true,5,1,1,1,true,z,false,false,0.0-2.0-0.11-0.100-3.100,0,1,0,90,false,stim,false,0,780.7999999523163,0,0,2,63598,task3,1055901,false,true,424,image-keyboard-response,9
true,5,0,1,1,false,z,true,false,0.0-2.0-0.11-0.101-3.101,0,1,0,81,false,stim,false,2,607.0,0,0,0,63598,task3,1058030,false,false,427,image-keyboard-response,10
true,5,0,1,1,false,z,false,false,0.0-2.0-0.11-0.102-3.102,0,1,0,81,false,stim,true,0,817.0,0,1,2,63598,task3,1060373,false,false,430,image-keyboard-response,11
true,5,2,1,1,false,z,true,false,0.0-2.0-0.11-0.103-3.103,0,1,0,68,false,stim,false,0,721.1999999284744,0,1,2,63598,task3,1062614,false,false,433,image-keyboard-response,12
true,5,1,1,1,true,z,false,true,0.0-2.0-0.11-0.104-3.104,0,1,0,90,false,stim,false,2,1068.3999999761581,0,1,0,63598,task3,1065201,false,false,436,image-keyboard-response,13
true,5,1,1,1,true,z,false,false,0.0-2.0-0.11-0.105-3.105,0,1,0,90,false,stim,false,2,643.3999999761581,0,1,0,63598,task3,1067374,false,true,439,image-keyboard-response,14
true,5,1,1,0,false,q,true,false,0.0-2.0-0.11-0.106-3.106,0,1,0,90,false,stim,false,0,1081.0,0,0,1,63598,task3,1069977,false,false,442,image-keyboard-response,15
true,6,2,2,2,true,d,false,true,0.0-2.0-0.11-0.107-3.107,1,0,1,68,true,stim,false,0,791.6999999284744,0,0,1,63598,task3,1072286,false,false,445,image-keyboard-response,1
true,6,2,2,1,false,z,true,false,0.0-2.0-0.12-0.108-3.108,1,0,1,68,false,stim,false,1,1014.1000000238419,0,1,0,63598,task3,1074822,false,false,448,image-keyboard-response,2
true,6,2,2,2,true,d,false,true,0.0-2.0-0.12-0.109-3.109,1,0,1,68,false,stim,false,0,684.7000000476837,0,0,1,63598,task3,1077029,false,false,451,image-keyboard-response,3
true,6,0,2,1,false,z,true,false,0.0-2.0-0.12-0.110-3.110,1,0,1,81,false,stim,false,1,1415.8000000715256,0,1,2,63598,task3,1079970,false,false,454,image-keyboard-response,4
true,6,0,2,1,false,z,true,false,0.0-2.0-0.12-0.111-3.111,1,0,1,81,false,stim,false,1,1252.2999999523163,0,1,0,63598,task3,1082749,false,false,457,image-keyboard-response,5
true,6,1,2,1,true,z,false,true,0.0-2.0-0.12-0.112-3.112,1,0,1,90,false,stim,false,1,1250.6999999284744,0,1,2,63598,task3,1085519,false,false,460,image-keyboard-response,6
true,6,0,2,2,false,d,false,true,0.0-2.0-0.12-0.113-3.113,1,0,1,81,false,stim,true,0,1207.3999999761581,0,0,1,63598,task3,1088245,false,true,463,image-keyboard-response,7
true,6,1,2,1,true,z,false,true,0.0-2.0-0.12-0.114-3.114,1,0,1,90,false,stim,false,1,623.1999999284744,0,1,2,63598,task3,1090387,false,false,466,image-keyboard-response,8
true,6,0,2,2,false,d,false,false,0.0-2.0-0.12-0.115-3.115,1,0,1,81,false,stim,true,0,896.3999999761581,0,1,1,63598,task3,1092806,false,false,469,image-keyboard-response,9
true,6,2,2,1,false,z,true,false,0.0-2.0-0.12-0.116-3.116,1,0,1,68,false,stim,false,1,734.5,0,0,0,63598,task3,1095069,false,false,472,image-keyboard-response,10
true,6,2,2,2,true,d,false,true,0.0-2.0-0.13-0.117-3.117,1,0,1,68,false,stim,false,0,1451.2999999523163,0,1,1,63598,task3,1098041,false,false,475,image-keyboard-response,11
true,6,1,2,1,true,z,false,true,0.0-2.0-0.13-0.118-3.118,1,0,1,90,false,stim,false,1,1133.6999999284744,0,1,2,63598,task3,1100693,false,false,478,image-keyboard-response,12
true,6,1,2,1,true,z,false,true,0.0-2.0-0.13-0.119-3.119,1,0,1,90,false,stim,false,1,919.3999999761581,0,0,0,63598,task3,1103142,false,false,481,image-keyboard-response,13
true,7,2,2,2,true,d,false,false,0.0-2.0-0.13-0.120-3.120,0,1,1,68,true,stim,false,2,1178.0,0,1,1,63598,task3,1105846,false,true,484,image-keyboard-response,1
true,7,1,2,1,true,z,false,true,0.0-2.0-0.13-0.121-3.121,0,1,1,90,false,stim,false,1,1341.2999999523163,0,1,2,63598,task3,1108717,false,false,487,image-keyboard-response,2
true,7,0,2,2,false,d,true,false,0.0-2.0-0.13-0.122-3.122,0,1,1,81,false,stim,false,2,1314.2000000476837,0,1,1,63598,task3,1111559,false,false,490,image-keyboard-response,3
true,7,1,2,2,false,d,false,false,0.0-2.0-0.13-0.123-3.123,0,1,1,90,false,stim,true,1,630.8000000715256,0,0,0,63598,task3,1113708,false,false,493,image-keyboard-response,4
true,7,0,2,2,false,d,true,false,0.0-2.0-0.13-0.124-3.124,0,1,1,81,false,stim,false,1,1515.1000000238419,0,0,0,63598,task3,1116742,false,false,496,image-keyboard-response,5
true,7,1,2,1,true,z,false,true,0.0-2.0-0.13-0.125-3.125,0,1,1,90,false,stim,false,1,1063.3999999761581,0,1,2,63598,task3,1119329,false,false,499,image-keyboard-response,6
true,7,2,2,2,true,d,false,true,0.0-2.0-0.14-0.126-3.126,0,1,1,68,false,stim,false,1,662.8999999761581,0,0,0,63598,task3,1121510,false,false,502,image-keyboard-response,7
true,7,2,2,2,true,d,false,true,0.0-2.0-0.14-0.127-3.127,0,1,1,68,false,stim,false,1,487.39999997615814,0,0,0,63598,task3,1123527,false,false,505,image-keyboard-response,8
true,7,1,2,1,true,z,false,true,0.0-2.0-0.14-0.128-3.128,0,1,1,90,false,stim,false,1,661.1000000238419,0,1,2,63598,task3,1125707,false,false,508,image-keyboard-response,9
true,7,1,2,1,true,z,false,true,0.0-2.0-0.14-0.129-3.129,0,1,1,90,false,stim,false,1,667.6999999284744,0,1,2,63598,task3,1127895,false,false,511,image-keyboard-response,10
true,7,2,2,2,true,d,false,true,0.0-2.0-0.14-0.130-3.130,0,1,1,68,false,stim,false,1,843.8999999761581,0,1,0,63598,task3,1130266,false,false,514,image-keyboard-response,11
true,7,0,2,2,false,d,true,true,0.0-2.0-0.14-0.131-3.131,0,1,1,81,false,stim,false,2,835.6999999284744,0,0,1,63598,task3,1132633,false,true,517,image-keyboard-response,12
true,7,0,2,2,false,d,true,false,0.0-2.0-0.14-0.132-3.132,0,1,1,81,false,stim,false,2,705.0,0,0,1,63598,task3,1134858,false,false,520,image-keyboard-response,13
true,7,1,2,1,true,z,false,true,0.0-2.0-0.14-0.133-3.133,0,1,1,90,false,stim,false,1,1337.2000000476837,0,1,2,63598,task3,1137719,false,false,523,image-keyboard-response,14
true,7,2,2,2,true,d,false,true,0.0-2.0-0.14-0.134-3.134,0,1,1,68,false,stim,false,2,1215.1000000238419,0,0,1,63598,task3,1140462,false,false,526,image-keyboard-response,15
true,8,2,2,2,true,d,false,true,0.0-2.0-0.15-0.135-3.135,1,0,1,68,true,stim,false,2,1258.7000000476837,0,1,0,63598,task3,1143249,false,false,529,image-keyboard-response,1
true,8,2,2,1,false,z,false,false,0.0-2.0-0.15-0.136-3.136,1,0,1,68,false,stim,true,2,773.1000000238419,0,0,1,63598,task3,1145550,false,false,532,image-keyboard-response,2
true,8,2,2,2,true,d,false,true,0.0-2.0-0.15-0.137-3.137,1,0,1,68,false,stim,false,2,755.2999999523163,0,1,0,63598,task3,1147834,false,false,535,image-keyboard-response,3
true,8,0,2,1,false,z,true,false,0.0-2.0-0.15-0.138-3.138,1,0,1,81,false,stim,false,1,1367.3999999761581,0,1,2,63598,task3,1150719,false,false,538,image-keyboard-response,4
true,8,2,2,1,false,z,false,false,0.0-2.0-0.15-0.139-3.139,1,0,1,68,false,stim,true,2,566.9000000953674,0,0,1,63598,task3,1152810,false,false,541,image-keyboard-response,5
true,8,0,2,2,false,d,true,false,0.0-2.0-0.15-0.140-3.140,1,0,1,81,false,stim,false,2,1491.7000000476837,0,1,0,63598,task3,1155822,false,false,544,image-keyboard-response,6
true,8,1,2,1,true,z,false,true,0.0-2.0-0.15-0.141-3.141,1,0,1,90,false,stim,false,1,1180.2000000476837,0,0,2,63598,task3,1158526,false,false,547,image-keyboard-response,7
true,8,1,2,1,true,z,false,true,0.0-2.0-0.15-0.142-3.142,1,0,1,90,false,stim,false,1,925.0,0,0,2,63598,task3,1160976,false,false,550,image-keyboard-response,8
true,8,2,2,1,false,z,false,false,0.0-2.0-0.15-0.143-3.143,1,0,1,68,false,stim,true,2,1159.5,0,1,1,63598,task3,1163652,false,false,553,image-keyboard-response,9
true,8,1,2,2,false,d,true,false,0.0-2.0-0.16-0.144-3.144,1,0,1,90,false,stim,false,2,1479.1000000238419,0,1,0,63598,task3,1166649,false,false,556,image-keyboard-response,10
true,8,2,2,2,true,d,false,true,0.0-2.0-0.16-0.145-3.145,1,0,1,68,false,stim,false,2,673.1999999284744,0,1,0,63598,task3,1168847,false,false,559,image-keyboard-response,11
true,9,0,2,1,false,z,true,false,0.0-2.0-0.16-0.146-3.146,1,1,0,81,true,stim,false,1,2073.899999976158,0,1,1,63598,task3,1172441,false,false,562,image-keyboard-response,1
true,9,1,2,0,false,q,false,false,0.0-2.0-0.16-0.147-3.147,1,1,0,90,false,stim,true,1,1249.2000000476837,0,0,2,63598,task3,1175223,false,false,565,image-keyboard-response,2
true,9,2,2,2,true,d,false,true,0.0-2.0-0.16-0.148-3.148,1,1,0,68,false,stim,false,2,949.6000000238419,0,1,0,63598,task3,1177694,false,false,568,image-keyboard-response,3
true,9,0,2,0,true,q,false,true,0.0-2.0-0.16-0.149-3.149,1,1,0,81,false,stim,false,1,851.8999999761581,0,0,2,63598,task3,1180069,false,false,571,image-keyboard-response,4
true,9,1,2,1,true,z,false,true,0.0-2.0-0.16-0.150-3.150,1,1,0,90,false,stim,false,1,1092.5,0,1,1,63598,task3,1182688,false,false,574,image-keyboard-response,5
true,9,0,2,0,true,q,false,true,0.0-2.0-0.16-0.151-3.151,1,1,0,81,false,stim,false,1,1115.7000000476837,0,0,2,63598,task3,1185325,false,false,577,image-keyboard-response,6
true,9,1,2,1,true,z,false,true,0.0-2.0-0.16-0.152-3.152,1,1,0,90,false,stim,false,1,704.1999999284744,0,1,1,63598,task3,1187546,false,false,580,image-keyboard-response,7
true,9,1,2,1,true,z,false,false,0.0-2.0-0.17-0.153-3.153,1,1,0,90,false,stim,false,1,756.3999999761581,0,1,1,63598,task3,1189828,false,true,583,image-keyboard-response,8
true,9,2,2,2,true,d,false,true,0.0-2.0-0.17-0.154-3.154,1,1,0,68,false,stim,false,2,902.7999999523163,0,1,0,63598,task3,1192242,false,false,586,image-keyboard-response,9
true,9,0,2,0,true,q,false,true,0.0-2.0-0.17-0.155-3.155,1,1,0,81,false,stim,false,1,584.6000000238419,0,0,2,63598,task3,1194347,false,false,589,image-keyboard-response,10
true,9,0,2,0,true,q,false,true,0.0-2.0-0.17-0.156-3.156,1,1,0,81,false,stim,false,1,1215.6000000238419,0,1,2,63598,task3,1197073,false,false,592,image-keyboard-response,11
true,9,2,2,1,false,z,true,false,0.0-2.0-0.17-0.157-3.157,1,1,0,68,false,stim,false,1,1240.5,0,0,1,63598,task3,1199840,false,false,595,image-keyboard-response,12
true,9,2,2,2,true,d,false,true,0.0-2.0-0.17-0.158-3.158,1,1,0,68,false,stim,false,2,729.7000000476837,0,1,0,63598,task3,1202091,false,false,598,image-keyboard-response,13
true,9,0,2,1,false,z,true,false,0.0-2.0-0.17-0.159-3.159,1,1,0,81,false,stim,false,1,967.7999999523163,0,0,1,63598,task3,1204582,false,false,601,image-keyboard-response,14
true,9,2,2,2,true,d,false,true,0.0-2.0-0.17-0.160-3.160,1,1,0,68,false,stim,false,2,775.0999999046326,0,1,0,63598,task3,1206870,false,false,604,image-keyboard-response,15
true,10,0,2,0,true,q,false,true,0.0-2.0-0.17-0.161-3.161,1,0,1,81,true,stim,false,0,846.5,0,1,2,63598,task3,1209241,false,false,607,image-keyboard-response,1
true,10,1,2,2,false,d,false,false,0.0-2.0-0.18-0.162-3.162,1,0,1,90,false,stim,true,1,669.1000000238419,0,0,1,63598,task3,1211433,false,false,610,image-keyboard-response,2
true,10,2,2,2,true,d,false,true,0.0-2.0-0.18-0.163-3.163,1,0,1,68,false,stim,false,1,688.7000000476837,0,0,1,63598,task3,1213635,false,false,613,image-keyboard-response,3
true,10,2,2,2,true,d,false,true,0.0-2.0-0.18-0.164-3.164,1,0,1,68,false,stim,false,2,555.3000000715256,0,1,0,63598,task3,1215700,false,false,616,image-keyboard-response,4
true,10,2,2,2,true,d,false,true,0.0-2.0-0.18-0.165-3.165,1,0,1,68,false,stim,false,2,1013.6000000238419,0,1,0,63598,task3,1218238,false,false,619,image-keyboard-response,5
true,10,0,2,0,true,q,false,true,0.0-2.0-0.18-0.166-3.166,1,0,1,81,false,stim,false,0,928.3999999761581,0,1,2,63598,task3,1220690,false,false,622,image-keyboard-response,6
true,10,0,2,0,true,q,false,true,0.0-2.0-0.18-0.167-3.167,1,0,1,81,false,stim,false,0,984.0,0,1,2,63598,task3,1223193,false,false,625,image-keyboard-response,7
true,10,2,2,2,true,d,false,true,0.0-2.0-0.18-0.168-3.168,1,0,1,68,false,stim,false,2,1270.2000000476837,0,1,0,63598,task3,1225984,false,false,628,image-keyboard-response,8
true,10,0,2,0,true,q,false,true,0.0-2.0-0.18-0.169-3.169,1,0,1,81,false,stim,false,0,1050.2999999523163,0,1,2,63598,task3,1228551,false,false,631,image-keyboard-response,9
true,10,2,2,2,true,d,false,true,0.0-2.0-0.18-0.170-3.170,1,0,1,68,false,stim,false,1,686.5,0,1,1,63598,task3,1230759,false,false,634,image-keyboard-response,10
true,10,0,2,0,true,q,false,true,0.0-2.0-0.19-0.171-3.171,1,0,1,81,false,stim,false,0,1018.6000000238419,0,1,2,63598,task3,1233291,false,false,637,image-keyboard-response,11
true,10,2,2,2,true,d,false,true,0.0-2.0-0.19-0.172-3.172,1,0,1,68,false,stim,false,1,760.0,0,1,1,63598,task3,1235569,false,false,640,image-keyboard-response,12
true,10,0,2,0,true,q,false,true,0.0-2.0-0.19-0.173-3.173,1,0,1,81,false,stim,false,0,1360.8000000715256,0,1,2,63598,task3,1238450,false,false,643,image-keyboard-response,13
true,10,0,2,0,true,q,false,true,0.0-2.0-0.19-0.174-3.174,1,0,1,81,false,stim,false,0,905.3000000715256,0,1,2,63598,task3,1240879,false,false,646,image-keyboard-response,14
true,11,2,2,0,false,q,false,false,0.0-2.0-0.19-0.175-3.175,0,1,1,68,true,stim,true,2,1273.7000000476837,0,0,0,63598,task3,1243666,false,false,649,image-keyboard-response,1
true,11,2,2,2,true,d,false,true,0.0-2.0-0.19-0.176-3.176,0,1,1,68,false,stim,false,2,1292.7999999523163,0,1,1,63598,task3,1246480,false,false,652,image-keyboard-response,2
true,11,1,2,0,false,q,true,false,0.0-2.0-0.19-0.177-3.177,0,1,1,90,false,stim,false,2,729.8999999761581,0,0,0,63598,task3,1248721,false,false,655,image-keyboard-response,3
true,11,0,2,0,true,q,false,false,0.0-2.0-0.19-0.178-3.178,0,1,1,81,false,stim,false,2,729.6000000238419,0,0,0,63598,task3,1250974,false,true,658,image-keyboard-response,4
true,11,2,2,2,true,d,false,true,0.0-2.0-0.19-0.179-3.179,0,1,1,68,false,stim,false,2,992.3000000715256,0,1,1,63598,task3,1253486,false,false,661,image-keyboard-response,5
true,11,2,2,2,true,d,false,true,0.0-2.0-0.20-0.180-3.180,0,1,1,68,false,stim,false,2,1401.0,0,1,1,63598,task3,1256410,false,false,664,image-keyboard-response,6
true,11,0,2,0,true,q,false,true,0.0-2.0-0.20-0.181-3.181,0,1,1,81,false,stim,false,0,1129.4000000953674,0,1,2,63598,task3,1259055,false,false,667,image-keyboard-response,7
true,11,0,2,0,true,q,false,true,0.0-2.0-0.20-0.182-3.182,0,1,1,81,false,stim,false,0,940.2000000476837,0,1,2,63598,task3,1261511,false,false,670,image-keyboard-response,8
true,11,1,2,0,false,q,true,false,0.0-2.0-0.20-0.183-3.183,0,1,1,90,false,stim,false,0,969.8000000715256,0,1,2,63598,task3,1263997,false,false,673,image-keyboard-response,9
true,11,0,2,0,true,q,false,true,0.0-2.0-0.20-0.184-3.184,0,1,1,81,false,stim,false,2,1369.8999999761581,0,0,0,63598,task3,1266890,false,false,676,image-keyboard-response,10
true,11,0,2,0,true,q,false,true,0.0-2.0-0.20-0.185-3.185,0,1,1,81,false,stim,false,2,776.3999999761581,0,0,0,63598,task3,1269183,false,false,679,image-keyboard-response,11
true,11,0,2,0,true,q,false,true,0.0-2.0-0.20-0.186-3.186,0,1,1,81,false,stim,false,2,1211.2999999523163,0,0,0,63598,task3,1271910,false,false,682,image-keyboard-response,12
true,11,2,2,2,true,d,false,true,0.0-2.0-0.20-0.187-3.187,0,1,1,68,false,stim,false,2,1090.4000000953674,0,1,1,63598,task3,1274518,false,false,685,image-keyboard-response,13
true,11,2,2,2,true,d,false,true,0.0-2.0-0.20-0.188-3.188,0,1,1,68,false,stim,false,2,681.7999999523163,0,1,1,63598,task3,1276711,false,false,688,image-keyboard-response,14
true,11,2,2,2,true,d,false,true,0.0-2.0-0.21-0.189-3.189,0,1,1,68,false,stim,false,2,1020.8999999761581,0,1,1,63598,task3,1279253,false,false,691,image-keyboard-response,15
true,11,0,2,0,true,q,false,true,0.0-2.0-0.21-0.190-3.190,0,1,1,81,false,stim,false,0,801.5,0,1,2,63598,task3,1281567,false,false,694,image-keyboard-response,16
true,11,0,2,0,true,q,false,true,0.0-2.0-0.21-0.191-3.191,0,1,1,81,false,stim,false,0,805.2000000476837,0,1,2,63598,task3,1283905,false,false,697,image-keyboard-response,17
true,11,2,2,0,false,q,false,false,0.0-2.0-0.21-0.192-3.192,0,1,1,68,false,stim,true,2,960.1999999284744,0,0,0,63598,task3,1286393,false,false,700,image-keyboard-response,18
true,11,0,2,2,false,d,true,false,0.0-2.0-0.21-0.193-3.193,0,1,1,81,false,stim,false,2,1691.0999999046326,0,0,1,63598,task3,1289609,false,false,703,image-keyboard-response,19
true,11,1,2,0,false,q,true,false,0.0-2.0-0.21-0.194-3.194,0,1,1,90,false,stim,false,2,1105.2999999523163,0,0,0,63598,task3,1292244,false,false,706,image-keyboard-response,20
true,11,2,2,2,true,d,false,true,0.0-2.0-0.21-0.195-3.195,0,1,1,68,false,stim,false,2,1229.3999999761581,0,0,1,63598,task3,1294998,false,false,709,image-keyboard-response,21
true,11,0,2,0,true,q,false,true,0.0-2.0-0.21-0.196-3.196,0,1,1,81,false,stim,false,0,1202.5,0,1,2,63598,task3,1297717,false,false,712,image-keyboard-response,22
true,11,2,2,0,false,q,false,false,0.0-2.0-0.21-0.197-3.197,0,1,1,68,false,stim,true,2,1190.7999999523163,0,0,0,63598,task3,1300427,false,false,715,image-keyboard-response,23
true,12,0,1,0,true,q,false,true,0.0-2.0-0.22-0.198-3.198,0,0,1,81,true,stim,false,0,816.0,0,1,2,63598,task3,1302772,false,false,718,image-keyboard-response,1
true,12,2,1,1,false,z,false,false,0.0-2.0-0.22-0.199-3.199,0,0,1,68,false,stim,true,2,518.1999999284744,0,0,1,63598,task3,1304809,false,false,721,image-keyboard-response,2
true,12,1,1,1,true,z,false,true,0.0-2.0-0.22-0.200-3.200,0,0,1,90,false,stim,false,2,1012.0,0,0,1,63598,task3,1307335,false,false,724,image-keyboard-response,3
true,12,0,1,0,true,q,false,true,0.0-2.0-0.22-0.201-3.201,0,0,1,81,false,stim,false,0,990.9000000953674,0,1,2,63598,task3,1309852,false,false,727,image-keyboard-response,4
true,12,2,1,1,false,z,true,false,0.0-2.0-0.22-0.202-3.202,0,0,1,68,false,stim,false,0,1656.0,0,0,0,63598,task3,1313033,false,false,730,image-keyboard-response,5
true,12,1,1,1,true,z,false,true,0.0-2.0-0.22-0.203-3.203,0,0,1,90,false,stim,false,2,514.8999999761581,0,0,1,63598,task3,1315068,false,false,733,image-keyboard-response,6
true,12,0,1,0,true,q,false,true,0.0-2.0-0.22-0.204-3.204,0,0,1,81,false,stim,false,0,589.8000000715256,0,1,2,63598,task3,1317181,false,false,736,image-keyboard-response,7
true,12,1,1,1,true,z,false,false,0.0-2.0-0.22-0.205-3.205,0,0,1,90,false,stim,false,0,606.6999999284744,0,0,0,63598,task3,1319313,false,true,739,image-keyboard-response,8
true,12,0,1,1,false,z,false,false,0.0-2.0-0.22-0.206-3.206,0,0,1,81,false,stim,true,0,560.0999999046326,0,0,0,63598,task3,1321395,false,false,742,image-keyboard-response,9
true,12,0,1,0,true,q,false,true,0.0-2.0-0.23-0.207-3.207,0,0,1,81,false,stim,false,0,1555.0,0,1,2,63598,task3,1324476,false,false,745,image-keyboard-response,10
true,12,0,1,0,true,q,false,true,0.0-2.0-0.23-0.208-3.208,0,0,1,81,false,stim,false,0,705.5,0,1,2,63598,task3,1326702,false,false,748,image-keyboard-response,11
true,12,1,1,1,true,z,false,true,0.0-2.0-0.23-0.209-3.209,0,0,1,90,false,stim,false,2,776.7999999523163,0,0,1,63598,task3,1328998,false,false,751,image-keyboard-response,12
true,12,0,1,0,true,q,false,true,0.0-2.0-0.23-0.210-3.210,0,0,1,81,false,stim,false,0,942.5,0,1,2,63598,task3,1331471,false,false,754,image-keyboard-response,13
true,12,2,1,1,false,z,true,true,0.0-2.0-0.23-0.211-3.211,0,0,1,68,false,stim,false,0,947.3000000715256,0,0,0,63598,task3,1333948,false,true,757,image-keyboard-response,14
true,12,1,1,1,true,z,false,true,0.0-2.0-0.23-0.212-3.212,0,0,1,90,false,stim,false,2,986.2999999523163,0,0,1,63598,task3,1336466,false,false,760,image-keyboard-response,15
true,12,2,1,1,false,z,true,false,0.0-2.0-0.23-0.213-3.213,0,0,1,68,false,stim,false,0,796.5,0,0,0,63598,task3,1338779,false,false,763,image-keyboard-response,16
true,12,1,1,1,true,z,false,true,0.0-2.0-0.23-0.214-3.214,0,0,1,90,false,stim,false,2,722.5,0,0,1,63598,task3,1341022,false,false,766,image-keyboard-response,17
true,12,1,1,1,true,z,false,true,0.0-2.0-0.23-0.215-3.215,0,0,1,90,false,stim,false,0,906.8000000715256,0,0,0,63598,task3,1343448,false,false,769,image-keyboard-response,18
true,12,1,1,1,true,z,false,true,0.0-2.0-0.24-0.216-3.216,0,0,1,90,false,stim,false,0,767.3999999761581,0,0,0,63598,task3,1345732,false,false,772,image-keyboard-response,19
true,12,0,1,0,true,q,false,true,0.0-2.0-0.24-0.217-3.217,0,0,1,81,false,stim,false,0,771.3999999761581,0,1,2,63598,task3,1348021,false,false,775,image-keyboard-response,20
true,12,0,1,1,false,z,true,false,0.0-2.0-0.24-0.218-3.218,0,0,1,81,false,stim,false,2,1546.5,0,1,1,63598,task3,1351097,false,false,778,image-keyboard-response,21
true,12,1,1,1,true,z,false,true,0.0-2.0-0.24-0.219-3.219,0,0,1,90,false,stim,false,0,794.3000000715256,0,0,0,63598,task3,1353410,false,false,781,image-keyboard-response,22
true,12,0,1,0,true,q,false,true,0.0-2.0-0.24-0.220-3.220,0,0,1,81,false,stim,false,0,526.8000000715256,0,1,2,63598,task3,1355461,false,false,784,image-keyboard-response,23
true,12,2,1,1,false,z,false,true,0.0-2.0-0.24-0.221-3.221,0,0,1,68,false,stim,true,2,691.1000000238419,0,1,1,63598,task3,1357678,false,true,787,image-keyboard-response,24
true,12,0,1,0,true,q,false,true,0.0-2.0-0.24-0.222-3.222,0,0,1,81,false,stim,false,0,915.5999999046326,0,1,2,63598,task3,1360109,false,false,790,image-keyboard-response,25
true,13,1,2,0,false,q,false,false,0.0-2.0-0.24-0.223-3.223,0,1,1,90,true,stim,true,1,687.7000000476837,0,0,0,63598,task3,1362323,false,false,793,image-keyboard-response,1
true,13,2,2,1,false,z,true,false,0.0-2.0-0.24-0.224-3.224,0,1,1,68,false,stim,false,1,845.2999999523163,0,1,1,63598,task3,1364691,false,false,796,image-keyboard-response,2
true,13,0,2,0,true,q,false,true,0.0-2.0-0.25-0.225-3.225,0,1,1,81,false,stim,false,1,903.0,0,0,0,63598,task3,1367125,false,false,799,image-keyboard-response,3
true,13,0,2,0,true,q,false,true,0.0-2.0-0.25-0.226-3.226,0,1,1,81,false,stim,false,1,886.3999999761581,0,0,0,63598,task3,1369531,false,false,802,image-keyboard-response,4
true,13,1,2,1,true,z,false,true,0.0-2.0-0.25-0.227-3.227,0,1,1,90,false,stim,false,1,1139.2000000476837,0,1,1,63598,task3,1372192,false,false,805,image-keyboard-response,5
true,13,0,2,0,true,q,false,true,0.0-2.0-0.25-0.228-3.228,0,1,1,81,false,stim,false,1,566.0,0,0,0,63598,task3,1374277,false,false,808,image-keyboard-response,6
true,13,0,2,0,true,q,false,true,0.0-2.0-0.25-0.229-3.229,0,1,1,81,false,stim,false,0,1021.7000000476837,0,1,2,63598,task3,1376829,false,false,811,image-keyboard-response,7
true,13,1,2,1,true,z,false,true,0.0-2.0-0.25-0.230-3.230,0,1,1,90,false,stim,false,1,667.1000000238419,0,1,1,63598,task3,1379021,false,false,814,image-keyboard-response,8
true,13,0,2,0,true,q,false,true,0.0-2.0-0.25-0.231-3.231,0,1,1,81,false,stim,false,0,1654.4000000953674,0,0,2,63598,task3,1382199,false,false,817,image-keyboard-response,9
true,13,1,2,1,true,z,false,true,0.0-2.0-0.25-0.232-3.232,0,1,1,90,false,stim,false,1,633.8000000715256,0,1,1,63598,task3,1384353,false,false,820,image-keyboard-response,10
true,13,0,2,0,true,q,false,true,0.0-2.0-0.25-0.233-3.233,0,1,1,81,false,stim,false,0,636.0,0,0,2,63598,task3,1386518,false,false,823,image-keyboard-response,11
true,13,1,2,1,true,z,false,true,0.0-2.0-0.26-0.234-3.234,0,1,1,90,false,stim,false,1,716.7000000476837,0,1,1,63598,task3,1388760,false,false,826,image-keyboard-response,12
true,13,1,2,1,true,z,false,true,0.0-2.0-0.26-0.235-3.235,0,1,1,90,false,stim,false,1,837.0999999046326,0,1,1,63598,task3,1391128,false,false,829,image-keyboard-response,13
true,14,0,2,2,false,d,false,false,0.0-2.0-0.26-0.236-3.236,1,1,0,81,true,stim,true,0,566.1000000238419,0,0,2,63598,task3,1393206,false,false,832,image-keyboard-response,1
true,14,2,2,2,true,d,false,false,0.0-2.0-0.26-0.237-3.237,1,1,0,68,false,stim,false,0,762.1000000238419,0,0,2,63598,task3,1395489,false,true,835,image-keyboard-response,2
true,14,0,2,0,true,q,false,true,0.0-2.0-0.26-0.238-3.238,1,1,0,81,false,stim,false,0,1192.3000000715256,0,1,0,63598,task3,1398206,false,false,838,image-keyboard-response,3
true,14,0,2,0,true,q,false,true,0.0-2.0-0.26-0.239-3.239,1,1,0,81,false,stim,false,0,691.8000000715256,0,1,0,63598,task3,1400426,false,false,841,image-keyboard-response,4
true,14,1,2,2,false,d,true,true,0.0-2.0-0.26-0.240-3.240,1,1,0,90,false,stim,false,0,793.2999999523163,0,0,2,63598,task3,1402738,false,true,844,image-keyboard-response,5
true,14,0,2,0,true,q,false,true,0.0-2.0-0.26-0.241-3.241,1,1,0,81,false,stim,false,0,1029.2000000476837,0,1,0,63598,task3,1405292,false,false,847,image-keyboard-response,6
true,14,1,2,1,true,z,false,true,0.0-2.0-0.26-0.242-3.242,1,1,0,90,false,stim,false,1,682.5,0,0,1,63598,task3,1407495,false,false,850,image-keyboard-response,7
true,14,1,2,2,false,d,true,false,0.0-2.0-0.27-0.243-3.243,1,1,0,90,false,stim,false,0,532.7000000476837,0,1,2,63598,task3,1409554,false,false,853,image-keyboard-response,8
true,14,0,2,0,true,q,false,true,0.0-2.0-0.27-0.244-3.244,1,1,0,81,false,stim,false,0,968.1000000238419,0,0,0,63598,task3,1412041,false,false,856,image-keyboard-response,9
true,14,0,2,0,true,q,false,true,0.0-2.0-0.27-0.245-3.245,1,1,0,81,false,stim,false,0,797.5,0,0,0,63598,task3,1414360,false,false,859,image-keyboard-response,10
true,14,1,2,1,true,z,false,true,0.0-2.0-0.27-0.246-3.246,1,1,0,90,false,stim,false,1,782.9000000953674,0,0,1,63598,task3,1416666,false,false,862,image-keyboard-response,11
true,15,0,1,1,false,z,false,false,0.0-2.0-0.27-0.247-3.247,0,0,1,81,true,stim,true,0,827.2999999523163,0,0,0,63598,task3,1419008,false,false,865,image-keyboard-response,1
true,15,2,1,2,true,d,false,true,0.0-2.0-0.27-0.248-3.248,0,0,1,68,false,stim,false,2,1027.7000000476837,0,1,2,63598,task3,1421561,false,false,868,image-keyboard-response,2
true,15,2,1,2,true,d,false,true,0.0-2.0-0.27-0.249-3.249,0,0,1,68,false,stim,false,2,567.5,0,1,2,63598,task3,1423647,false,false,871,image-keyboard-response,3
true,15,1,1,0,false,q,false,false,0.0-2.0-0.27-0.250-3.250,0,0,1,90,false,stim,true,1,787.0,0,0,1,63598,task3,1425966,false,false,874,image-keyboard-response,4
true,15,0,1,0,true,q,false,true,0.0-2.0-0.27-0.251-3.251,0,0,1,81,false,stim,false,1,902.4000000953674,0,0,1,63598,task3,1428399,false,false,877,image-keyboard-response,5
true,15,1,1,1,true,z,false,true,0.0-2.0-0.28-0.252-3.252,0,0,1,90,false,stim,false,0,1704.0,0,0,0,63598,task3,1431628,false,false,880,image-keyboard-response,6
true,15,1,1,1,true,z,false,true,0.0-2.0-0.28-0.253-3.253,0,0,1,90,false,stim,false,0,700.1000000238419,0,0,0,63598,task3,1433847,false,false,883,image-keyboard-response,7
true,15,0,1,0,true,q,false,true,0.0-2.0-0.28-0.254-3.254,0,0,1,81,false,stim,false,1,864.5,0,0,1,63598,task3,1436236,false,false,886,image-keyboard-response,8
true,15,2,1,2,true,d,false,true,0.0-2.0-0.28-0.255-3.255,0,0,1,68,false,stim,false,2,672.2000000476837,0,1,2,63598,task3,1438428,false,false,889,image-keyboard-response,9
true,15,0,1,1,false,z,false,false,0.0-2.0-0.28-0.256-3.256,0,0,1,81,false,stim,true,0,1607.5999999046326,0,0,0,63598,task3,1441556,false,false,892,image-keyboard-response,10
true,15,2,1,2,true,d,false,true,0.0-2.0-0.28-0.257-3.257,0,0,1,68,false,stim,false,2,976.3999999761581,0,1,2,63598,task3,1444051,false,false,895,image-keyboard-response,11
true,15,0,1,0,true,q,false,true,0.0-2.0-0.28-0.258-3.258,0,0,1,81,false,stim,false,1,1163.9000000953674,0,0,1,63598,task3,1446744,false,false,898,image-keyboard-response,12
true,15,2,1,2,true,d,false,true,0.0-2.0-0.28-0.259-3.259,0,0,1,68,false,stim,false,2,1837.3999999761581,0,1,2,63598,task3,1450112,false,false,901,image-keyboard-response,13
true,15,0,1,0,true,q,false,true,0.0-2.0-0.28-0.260-3.260,0,0,1,81,false,stim,false,1,1017.2000000476837,0,0,1,63598,task3,1452660,false,false,904,image-keyboard-response,14
true,15,1,1,1,true,z,false,true,0.0-2.0-0.29-0.261-3.261,0,0,1,90,false,stim,false,0,688.8000000715256,0,0,0,63598,task3,1454866,false,false,907,image-keyboard-response,15
true,15,2,1,2,true,d,false,true,0.0-2.0-0.29-0.262-3.262,0,0,1,68,false,stim,false,2,852.0,0,1,2,63598,task3,1457243,false,false,910,image-keyboard-response,16
true,15,2,1,2,true,d,false,true,0.0-2.0-0.29-0.263-3.263,0,0,1,68,false,stim,false,2,715.8000000715256,0,1,2,63598,task3,1459485,false,false,913,image-keyboard-response,17
true,15,0,1,0,true,q,false,true,0.0-2.0-0.29-0.264-3.264,0,0,1,81,false,stim,false,1,1748.2999999523163,0,0,1,63598,task3,1462755,false,false,916,image-keyboard-response,18
true,15,1,1,1,true,z,false,true,0.0-2.0-0.29-0.265-3.265,0,0,1,90,false,stim,false,0,650.0999999046326,0,0,0,63598,task3,1464924,false,false,919,image-keyboard-response,19
true,15,2,1,2,true,d,false,true,0.0-2.0-0.29-0.266-3.266,0,0,1,68,false,stim,false,2,713.8999999761581,0,1,2,63598,task3,1467166,false,false,922,image-keyboard-response,20
true,15,1,1,0,false,q,false,false,0.0-2.0-0.29-0.267-3.267,0,0,1,90,false,stim,true,1,800.7000000476837,0,1,1,63598,task3,1469494,false,false,925,image-keyboard-response,21
true,15,0,1,0,true,q,false,true,0.0-2.0-0.29-0.268-3.268,0,0,1,81,false,stim,false,1,765.7000000476837,0,1,1,63598,task3,1471791,false,false,928,image-keyboard-response,22
true,15,1,1,1,true,z,false,true,0.0-2.0-0.29-0.269-3.269,0,0,1,90,false,stim,false,0,881.6000000238419,0,0,0,63598,task3,1474198,false,false,931,image-keyboard-response,23
true,16,0,2,0,true,q,false,true,0.0-2.0-0.30-0.270-3.270,0,1,1,81,true,stim,false,0,817.1000000238419,0,1,1,63598,task3,1476532,false,false,934,image-keyboard-response,1
true,16,1,2,0,false,q,false,false,0.0-2.0-0.30-0.271-3.271,0,1,1,90,false,stim,true,1,534.5,0,0,0,63598,task3,1478586,false,false,937,image-keyboard-response,2
true,16,2,2,2,true,d,false,true,0.0-2.0-0.30-0.272-3.272,0,1,1,68,false,stim,false,2,698.0,0,1,2,63598,task3,1480803,false,false,940,image-keyboard-response,3
true,16,2,2,2,true,d,false,true,0.0-2.0-0.30-0.273-3.273,0,1,1,68,false,stim,false,2,681.8999999761581,0,1,2,63598,task3,1483015,false,false,943,image-keyboard-response,4
true,16,0,2,0,true,q,false,true,0.0-2.0-0.30-0.274-3.274,0,1,1,81,false,stim,false,0,600.3999999761581,0,1,1,63598,task3,1485141,false,false,946,image-keyboard-response,5
true,16,0,2,0,true,q,false,true,0.0-2.0-0.30-0.275-3.275,0,1,1,81,false,stim,false,1,837.6000000238419,0,0,0,63598,task3,1487496,false,false,949,image-keyboard-response,6
true,16,0,2,0,true,q,false,true,0.0-2.0-0.30-0.276-3.276,0,1,1,81,false,stim,false,1,686.7000000476837,0,0,0,63598,task3,1489711,false,false,952,image-keyboard-response,7
true,16,2,2,2,true,d,false,true,0.0-2.0-0.30-0.277-3.277,0,1,1,68,false,stim,false,2,735.0999999046326,0,1,2,63598,task3,1491967,false,false,955,image-keyboard-response,8
true,16,0,2,0,true,q,false,false,0.0-2.0-0.30-0.278-3.278,0,1,1,81,false,stim,false,0,931.7000000476837,0,1,1,63598,task3,1494419,false,true,958,image-keyboard-response,9
true,16,1,2,0,false,q,true,false,0.0-2.0-0.31-0.279-3.279,0,1,1,90,false,stim,false,0,705.9000000953674,0,1,1,63598,task3,1496646,false,false,961,image-keyboard-response,10
true,16,2,2,2,true,d,false,true,0.0-2.0-0.31-0.280-3.280,0,1,1,68,false,stim,false,2,976.5,0,0,2,63598,task3,1499141,false,false,964,image-keyboard-response,11
true,16,2,2,2,true,d,false,true,0.0-2.0-0.31-0.281-3.281,0,1,1,68,false,stim,false,2,1478.0,0,0,2,63598,task3,1502145,false,false,967,image-keyboard-response,12
true,16,1,2,0,false,q,false,false,0.0-2.0-0.31-0.282-3.282,0,1,1,90,false,stim,true,1,891.6000000238419,0,1,0,63598,task3,1504557,false,false,970,image-keyboard-response,13
true,16,1,2,0,false,q,true,false,0.0-2.0-0.31-0.283-3.283,0,1,1,90,false,stim,false,0,1373.0,0,1,1,63598,task3,1507450,false,false,973,image-keyboard-response,14
true,17,2,2,1,false,z,false,false,0.0-2.0-0.31-0.284-3.284,1,1,0,68,true,stim,true,2,1099.0,0,0,2,63598,task3,1510070,false,false,976,image-keyboard-response,1
true,17,2,2,0,false,q,true,false,0.0-2.0-0.31-0.285-3.285,1,1,0,68,false,stim,false,0,789.6999999284744,0,1,0,63598,task3,1512380,false,false,979,image-keyboard-response,2
true,17,2,2,0,false,q,true,false,0.0-2.0-0.31-0.286-3.286,1,1,0,68,false,stim,false,0,962.6000000238419,0,1,1,63598,task3,1514871,false,false,982,image-keyboard-response,3
true,17,0,2,0,true,q,false,true,0.0-2.0-0.31-0.287-3.287,1,1,0,81,false,stim,false,0,899.8000000715256,0,1,0,63598,task3,1517293,false,false,985,image-keyboard-response,4
true,17,1,2,1,true,z,false,true,0.0-2.0-0.32-0.288-3.288,1,1,0,90,false,stim,false,2,893.2000000476837,0,0,2,63598,task3,1519711,false,false,988,image-keyboard-response,5
true,17,2,2,0,false,q,true,false,0.0-2.0-0.32-0.289-3.289,1,1,0,68,false,stim,false,0,674.8999999761581,0,1,1,63598,task3,1521904,false,false,991,image-keyboard-response,6
true,17,0,2,0,true,q,false,true,0.0-2.0-0.32-0.290-3.290,1,1,0,81,false,stim,false,0,1167.0,0,1,0,63598,task3,1524589,false,false,994,image-keyboard-response,7
true,17,0,2,0,true,q,false,true,0.0-2.0-0.32-0.291-3.291,1,1,0,81,false,stim,false,0,665.8999999761581,0,1,0,63598,task3,1526780,false,false,997,image-keyboard-response,8
true,17,1,2,0,false,q,true,false,0.0-2.0-0.32-0.292-3.292,1,1,0,90,false,stim,false,0,884.7000000476837,0,1,1,63598,task3,1529193,false,false,1000,image-keyboard-response,9
true,17,0,2,0,true,q,false,true,0.0-2.0-0.32-0.293-3.293,1,1,0,81,false,stim,false,0,942.0,0,1,0,63598,task3,1531659,false,false,1003,image-keyboard-response,10
true,17,1,2,1,true,z,false,true,0.0-2.0-0.32-0.294-3.294,1,1,0,90,false,stim,false,2,757.3999999761581,0,1,2,63598,task3,1533943,false,false,1006,image-keyboard-response,11
true,17,0,2,0,true,q,false,true,0.0-2.0-0.32-0.295-3.295,1,1,0,81,false,stim,false,0,633.6000000238419,0,1,1,63598,task3,1536103,false,false,1009,image-keyboard-response,12
true,17,1,2,1,true,z,false,true,0.0-2.0-0.32-0.296-3.296,1,1,0,90,false,stim,false,2,778.8999999761581,0,1,2,63598,task3,1538409,false,false,1012,image-keyboard-response,13
true,17,0,2,0,true,q,false,true,0.0-2.0-0.33-0.297-3.297,1,1,0,81,false,stim,false,0,841.7999999523163,0,1,1,63598,task3,1540771,false,false,1015,image-keyboard-response,14
true,17,0,2,0,true,q,false,true,0.0-2.0-0.33-0.298-3.298,1,1,0,81,false,stim,false,0,841.1000000238419,0,0,0,63598,task3,1543132,false,false,1018,image-keyboard-response,15
true,18,1,2,0,false,q,true,false,0.0-2.0-0.33-0.299-3.299,0,1,1,90,true,stim,false,0,1155.6000000238419,0,1,1,63598,task3,1545813,false,false,1021,image-keyboard-response,1
true,18,0,2,0,true,q,false,true,0.0-2.0-0.33-0.300-3.300,0,1,1,81,false,stim,false,0,614.1000000238419,0,1,1,63598,task3,1547951,false,false,1024,image-keyboard-response,2
true,18,0,2,1,false,z,true,false,0.0-2.0-0.33-0.301-3.301,0,1,1,81,false,stim,false,1,684.3000000715256,0,1,2,63598,task3,1550153,false,false,1027,image-keyboard-response,3
true,18,2,2,1,false,z,true,false,0.0-2.0-0.33-0.302-3.302,0,1,1,68,false,stim,false,1,534.2000000476837,0,1,2,63598,task3,1552210,false,false,1030,image-keyboard-response,4
true,18,0,2,2,false,d,false,false,0.0-2.0-0.33-0.303-3.303,0,1,1,81,false,stim,true,0,1386.7000000476837,0,0,0,63598,task3,1555116,false,false,1033,image-keyboard-response,5
true,18,1,2,1,true,z,false,true,0.0-2.0-0.33-0.304-3.304,0,1,1,90,false,stim,false,1,754.4000000953674,0,1,2,63598,task3,1557395,false,false,1036,image-keyboard-response,6
true,18,2,2,2,true,d,false,true,0.0-2.0-0.33-0.305-3.305,0,1,1,68,false,stim,false,0,632.8999999761581,0,0,0,63598,task3,1559545,false,false,1039,image-keyboard-response,7
true,18,0,2,0,true,q,false,true,0.0-2.0-0.34-0.306-3.306,0,1,1,81,false,stim,false,0,672.3999999761581,0,1,1,63598,task3,1561747,false,false,1042,image-keyboard-response,8
true,18,1,2,1,true,z,false,true,0.0-2.0-0.34-0.307-3.307,0,1,1,90,false,stim,false,1,1202.7999999523163,0,1,2,63598,task3,1564468,false,false,1045,image-keyboard-response,9
true,18,2,2,2,true,d,false,true,0.0-2.0-0.34-0.308-3.308,0,1,1,68,false,stim,false,0,704.7000000476837,0,0,0,63598,task3,1566705,false,false,1048,image-keyboard-response,10
true,18,2,2,2,true,d,false,true,0.0-2.0-0.34-0.309-3.309,0,1,1,68,false,stim,false,0,649.2999999523163,0,0,0,63598,task3,1568871,false,false,1051,image-keyboard-response,11
true,18,2,2,2,true,d,false,true,0.0-2.0-0.34-0.310-3.310,0,1,1,68,false,stim,false,0,701.8999999761581,0,0,0,63598,task3,1571102,false,false,1054,image-keyboard-response,12
true,18,1,2,1,true,z,false,false,0.0-2.0-0.34-0.311-3.311,0,1,1,90,false,stim,false,1,780.8000000715256,0,1,2,63598,task3,1573405,false,true,1057,image-keyboard-response,13
true,18,0,2,1,false,z,true,false,0.0-2.0-0.34-0.312-3.312,0,1,1,81,false,stim,false,1,741.8999999761581,0,1,2,63598,task3,1575671,false,false,1060,image-keyboard-response,14
true,18,0,2,0,true,q,false,true,0.0-2.0-0.34-0.313-3.313,0,1,1,81,false,stim,false,0,1018.8000000715256,0,1,1,63598,task3,1578218,false,false,1063,image-keyboard-response,15
true,18,0,2,0,true,q,false,true,0.0-2.0-0.34-0.314-3.314,0,1,1,81,false,stim,false,0,701.0,0,1,1,63598,task3,1580439,false,false,1066,image-keyboard-response,16
true,18,0,2,0,true,q,false,true,0.0-2.0-0.35-0.315-3.315,0,1,1,81,false,stim,false,0,701.7999999523163,0,1,1,63598,task3,1582662,false,false,1069,image-keyboard-response,17
true,18,2,2,2,true,d,false,false,0.0-2.0-0.35-0.316-3.316,0,1,1,68,false,stim,false,0,1052.0,0,0,0,63598,task3,1585239,false,true,1072,image-keyboard-response,18
true,18,0,2,0,true,q,false,true,0.0-2.0-0.35-0.317-3.317,0,1,1,81,false,stim,false,0,634.5,0,1,1,63598,task3,1587404,false,false,1075,image-keyboard-response,19
true,18,2,2,1,false,z,true,false,0.0-2.0-0.35-0.318-3.318,0,1,1,68,false,stim,false,1,1688.5,0,1,2,63598,task3,1590614,false,false,1078,image-keyboard-response,20
true,18,1,2,1,true,z,false,true,0.0-2.0-0.35-0.319-3.319,0,1,1,90,false,stim,false,1,553.1000000238419,0,1,2,63598,task3,1592698,false,false,1081,image-keyboard-response,21
true,18,2,2,2,true,d,false,true,0.0-2.0-0.35-0.320-3.320,0,1,1,68,false,stim,false,0,1061.2999999523163,0,0,0,63598,task3,1595285,false,false,1084,image-keyboard-response,22
true,18,1,2,1,true,z,false,true,0.0-2.0-0.35-0.321-3.321,0,1,1,90,false,stim,false,1,737.7999999523163,0,1,2,63598,task3,1597543,false,false,1087,image-keyboard-response,23
true,18,0,2,0,true,q,false,true,0.0-2.0-0.35-0.322-3.322,0,1,1,81,false,stim,false,0,723.5,0,0,1,63598,task3,1599784,false,false,1090,image-keyboard-response,24
true,18,2,2,2,true,d,false,true,0.0-2.0-0.35-0.323-3.323,0,1,1,68,false,stim,false,0,900.2000000476837,0,0,0,63598,task3,1602204,false,false,1093,image-keyboard-response,25
true,18,2,2,2,true,d,false,true,0.0-2.0-0.36-0.324-3.324,0,1,1,68,false,stim,false,0,422.40000009536743,0,0,0,63598,task3,1604157,false,false,1096,image-keyboard-response,26
true,18,2,2,2,true,d,false,true,0.0-2.0-0.36-0.325-3.325,0,1,1,68,false,stim,false,0,672.1000000238419,0,0,0,63598,task3,1606340,false,false,1099,image-keyboard-response,27
true,18,2,2,2,true,d,false,true,0.0-2.0-0.36-0.326-3.326,0,1,1,68,false,stim,false,0,666.3999999761581,0,0,0,63598,task3,1608522,false,false,1102,image-keyboard-response,28
true,19,0,1,1,false,z,false,false,0.0-2.0-0.36-0.327-3.327,0,0,1,81,true,stim,true,0,860.8000000715256,0,0,1,63598,task3,1610908,false,false,1105,image-keyboard-response,1
true,19,1,1,1,true,z,false,true,0.0-2.0-0.36-0.328-3.328,0,0,1,90,false,stim,false,1,1104.6000000238419,0,1,2,63598,task3,1613529,false,false,1108,image-keyboard-response,2
true,19,1,1,1,true,z,false,true,0.0-2.0-0.36-0.329-3.329,0,0,1,90,false,stim,false,1,1010.9000000953674,0,1,2,63598,task3,1616063,false,false,1111,image-keyboard-response,3
true,19,2,1,1,false,z,true,false,0.0-2.0-0.36-0.330-3.330,0,0,1,68,false,stim,false,0,857.7000000476837,0,0,1,63598,task3,1618439,false,false,1114,image-keyboard-response,4
true,19,1,1,1,true,z,false,true,0.0-2.0-0.36-0.331-3.331,0,0,1,90,false,stim,false,1,627.6999999284744,0,1,2,63598,task3,1620591,false,false,1117,image-keyboard-response,5
true,19,1,1,1,true,z,false,true,0.0-2.0-0.36-0.332-3.332,0,0,1,90,false,stim,false,0,546.9000000953674,0,0,1,63598,task3,1622662,false,false,1120,image-keyboard-response,6
true,19,2,1,0,false,q,false,true,0.0-2.0-0.37-0.333-3.333,0,0,1,68,false,stim,true,2,623.2000000476837,0,0,0,63598,task3,1624806,false,true,1123,image-keyboard-response,7
true,19,2,1,0,false,q,false,false,0.0-2.0-0.37-0.334-3.334,0,0,1,68,false,stim,true,2,644.1000000238419,0,0,0,63598,task3,1626975,false,false,1126,image-keyboard-response,8
true,19,1,1,1,true,z,false,true,0.0-2.0-0.37-0.335-3.335,0,0,1,90,false,stim,false,0,629.1999999284744,0,0,1,63598,task3,1629136,false,false,1129,image-keyboard-response,9
true,19,1,1,1,true,z,false,true,0.0-2.0-0.37-0.336-3.336,0,0,1,90,false,stim,false,0,720.6999999284744,0,0,1,63598,task3,1631373,false,false,1132,image-keyboard-response,10
true,19,0,1,0,true,q,false,true,0.0-2.0-0.37-0.337-3.337,0,0,1,81,false,stim,false,2,743.3999999761581,0,0,0,63598,task3,1633641,false,false,1135,image-keyboard-response,11
true,19,1,1,1,true,z,false,true,0.0-2.0-0.37-0.338-3.338,0,0,1,90,false,stim,false,1,977.0,0,1,2,63598,task3,1636140,false,false,1138,image-keyboard-response,12
true,19,1,1,1,true,z,false,true,0.0-2.0-0.37-0.339-3.339,0,0,1,90,false,stim,false,1,667.1999999284744,0,1,2,63598,task3,1638324,false,false,1141,image-keyboard-response,13
true,19,1,1,1,true,z,false,true,0.0-2.0-0.37-0.340-3.340,0,0,1,90,false,stim,false,1,620.1000000238419,0,1,2,63598,task3,1640466,false,false,1144,image-keyboard-response,14
true,19,1,1,1,true,z,false,true,0.0-2.0-0.37-0.341-3.341,0,0,1,90,false,stim,false,0,780.3999999761581,0,0,1,63598,task3,1642773,false,false,1147,image-keyboard-response,15
true,19,0,1,0,true,q,false,true,0.0-2.0-0.38-0.342-3.342,0,0,1,81,false,stim,false,2,418.7000000476837,0,0,0,63598,task3,1644713,false,false,1150,image-keyboard-response,16
true,19,0,1,0,true,q,false,true,0.0-2.0-0.38-0.343-3.343,0,0,1,81,false,stim,false,2,481.0,0,0,0,63598,task3,1646722,false,false,1153,image-keyboard-response,17
true,19,0,1,0,true,q,false,true,0.0-2.0-0.38-0.344-3.344,0,0,1,81,false,stim,false,2,501.59999990463257,0,0,0,63598,task3,1648751,false,false,1156,image-keyboard-response,18
true,19,1,1,1,true,z,false,true,0.0-2.0-0.38-0.345-3.345,0,0,1,90,false,stim,false,1,530.7000000476837,0,1,2,63598,task3,1650802,false,false,1159,image-keyboard-response,19
true,19,1,1,1,true,z,false,true,0.0-2.0-0.38-0.346-3.346,0,0,1,90,false,stim,false,1,398.7999999523163,0,1,2,63598,task3,1652724,false,false,1162,image-keyboard-response,20
true,19,1,1,1,true,z,false,true,0.0-2.0-0.38-0.347-3.347,0,0,1,90,false,stim,false,0,411.5,0,0,1,63598,task3,1654665,false,false,1165,image-keyboard-response,21
true,19,1,1,1,true,z,false,true,0.0-2.0-0.38-0.348-3.348,0,0,1,90,false,stim,false,0,549.9000000953674,0,0,1,63598,task3,1656740,false,false,1168,image-keyboard-response,22
true,19,1,1,1,true,z,false,false,0.0-2.0-0.38-0.349-3.349,0,0,1,90,false,stim,false,0,667.5,0,0,1,63598,task3,1658925,false,true,1171,image-keyboard-response,23
true,19,1,1,1,true,z,false,true,0.0-2.0-0.38-0.350-3.350,0,0,1,90,false,stim,false,1,404.60000002384186,0,0,2,63598,task3,1660855,false,false,1174,image-keyboard-response,24
true,19,0,1,0,true,q,false,true,0.0-2.0-0.39-0.351-3.351,0,0,1,81,false,stim,false,2,551.7999999523163,0,1,0,63598,task3,1662931,false,false,1177,image-keyboard-response,25
true,20,0,1,0,true,q,false,true,0.0-2.0-0.39-0.352-3.352,1,0,0,81,true,stim,false,0,467.59999990463257,0,1,0,63598,task3,1664928,false,false,1180,image-keyboard-response,1
true,20,1,1,2,false,d,false,false,0.0-2.0-0.39-0.353-3.353,1,0,0,90,false,stim,true,1,1112.1000000238419,0,0,2,63598,task3,1667568,false,false,1183,image-keyboard-response,2
true,20,2,1,2,true,d,false,true,0.0-2.0-0.39-0.354-3.354,1,0,0,68,false,stim,false,1,608.8999999761581,0,0,2,63598,task3,1669697,false,false,1186,image-keyboard-response,3
true,20,2,1,2,true,d,false,false,0.0-2.0-0.39-0.355-3.355,1,0,0,68,false,stim,false,1,606.6000000238419,0,0,2,63598,task3,1671823,false,true,1189,image-keyboard-response,4
true,20,2,1,2,true,d,false,true,0.0-2.0-0.39-0.356-3.356,1,0,0,68,false,stim,false,1,898.1000000238419,0,0,1,63598,task3,1674244,false,false,1192,image-keyboard-response,5
true,20,2,1,2,true,d,false,true,0.0-2.0-0.39-0.357-3.357,1,0,0,68,false,stim,false,1,600.3999999761581,0,0,1,63598,task3,1676376,false,false,1195,image-keyboard-response,6
true,20,2,1,2,true,d,false,true,0.0-2.0-0.39-0.358-3.358,1,0,0,68,false,stim,false,1,501.5,0,0,1,63598,task3,1678392,false,false,1198,image-keyboard-response,7
true,20,0,1,0,true,q,false,true,0.0-2.0-0.39-0.359-3.359,1,0,0,81,false,stim,false,0,881.4000000953674,0,1,0,63598,task3,1680795,false,false,1201,image-keyboard-response,8
true,20,1,1,2,false,d,false,false,0.0-2.0-0.40-0.360-3.360,1,0,0,90,false,stim,true,1,592.0,0,0,2,63598,task3,1682911,false,false,1204,image-keyboard-response,9
true,20,0,1,0,true,q,false,false,0.0-2.0-0.40-0.361-3.361,1,0,0,81,false,stim,false,0,787.2999999523163,0,1,0,63598,task3,1685222,false,true,1207,image-keyboard-response,10
true,20,2,1,2,true,d,false,true,0.0-2.0-0.40-0.362-3.362,1,0,0,68,false,stim,false,1,782.3999999761581,0,0,1,63598,task3,1687539,false,false,1210,image-keyboard-response,11
true,20,0,1,2,false,d,true,false,0.0-2.0-0.40-0.363-3.363,1,0,0,81,false,stim,false,1,1539.3999999761581,0,0,2,63598,task3,1690599,false,false,1213,image-keyboard-response,12
true,20,2,1,2,true,d,false,true,0.0-2.0-0.40-0.364-3.364,1,0,0,68,false,stim,false,1,707.0,0,0,1,63598,task3,1692834,false,false,1216,image-keyboard-response,13
true,20,2,1,0,false,q,true,false,0.0-2.0-0.40-0.365-3.365,1,0,0,68,false,stim,false,0,1500.3000000715256,0,1,0,63598,task3,1695854,false,false,1219,image-keyboard-response,14
true,20,0,1,0,true,q,false,true,0.0-2.0-0.40-0.366-3.366,1,0,0,81,false,stim,false,0,591.2000000476837,0,1,0,63598,task3,1697965,false,false,1222,image-keyboard-response,15
true,20,1,1,2,false,d,false,false,0.0-2.0-0.40-0.367-3.367,1,0,0,90,false,stim,true,1,1012.8999999761581,0,0,2,63598,task3,1700498,false,false,1225,image-keyboard-response,16
true,20,2,1,2,true,d,false,true,0.0-2.0-0.40-0.368-3.368,1,0,0,68,false,stim,false,1,807.6000000238419,0,0,1,63598,task3,1702838,false,false,1228,image-keyboard-response,17
true,20,2,1,2,true,d,false,true,0.0-2.0-0.41-0.369-3.369,1,0,0,68,false,stim,false,1,937.1000000238419,0,0,2,63598,task3,1705302,false,false,1231,image-keyboard-response,18
true,20,0,1,0,true,q,false,true,0.0-2.0-0.41-0.370-3.370,1,0,0,81,false,stim,false,0,1099.1000000238419,0,1,0,63598,task3,1707923,false,false,1234,image-keyboard-response,19
true,20,0,1,0,true,q,false,true,0.0-2.0-0.41-0.371-3.371,1,0,0,81,false,stim,false,0,519.0,0,1,0,63598,task3,1709975,false,false,1237,image-keyboard-response,20
true,20,2,1,2,true,d,false,true,0.0-2.0-0.41-0.372-3.372,1,0,0,68,false,stim,false,1,520.1999999284744,0,0,1,63598,task3,1712012,false,false,1240,image-keyboard-response,21
true,20,2,1,2,true,d,false,true,0.0-2.0-0.41-0.373-3.373,1,0,0,68,false,stim,false,1,510.39999997615814,0,0,1,63598,task3,1714041,false,false,1243,image-keyboard-response,22
true,20,2,1,2,true,d,false,true,0.0-2.0-0.41-0.374-3.374,1,0,0,68,false,stim,false,1,444.5,0,0,2,63598,task3,1716014,false,false,1246,image-keyboard-response,23
true,20,2,1,2,true,d,false,true,0.0-2.0-0.41-0.375-3.375,1,0,0,68,false,stim,false,1,708.2999999523163,0,0,1,63598,task3,1718242,false,false,1249,image-keyboard-response,24
true,20,0,1,0,true,q,false,true,0.0-2.0-0.41-0.376-3.376,1,0,0,81,false,stim,false,0,516.6999999284744,0,0,0,63598,task3,1720277,false,false,1252,image-keyboard-response,25
true,20,2,1,2,true,d,false,true,0.0-2.0-0.41-0.377-3.377,1,0,0,68,false,stim,false,1,644.6999999284744,0,1,2,63598,task3,1722444,false,false,1255,image-keyboard-response,26
true,20,2,1,2,true,d,false,true,0.0-2.0-0.42-0.378-3.378,1,0,0,68,false,stim,false,1,661.1000000238419,0,0,1,63598,task3,1724623,false,false,1258,image-keyboard-response,27
true,20,2,1,2,true,d,false,true,0.0-2.0-0.42-0.379-3.379,1,0,0,68,false,stim,false,1,566.2000000476837,0,0,1,63598,task3,1726721,false,false,1261,image-keyboard-response,28
true,20,0,1,0,true,q,false,false,0.0-2.0-0.42-0.380-3.380,1,0,0,81,false,stim,false,0,623.5999999046326,0,0,0,63598,task3,1728864,false,true,1264,image-keyboard-response,29
true,21,2,1,2,true,d,false,true,0.0-2.0-0.42-0.381-3.381,0,0,1,68,true,stim,false,2,507.6999999284744,0,1,2,63598,task3,1730894,false,false,1267,image-keyboard-response,1
true,21,2,1,0,false,q,false,false,0.0-2.0-0.42-0.382-3.382,0,0,1,68,false,stim,true,2,620.2000000476837,0,0,1,63598,task3,1733046,false,false,1270,image-keyboard-response,2
true,21,1,1,2,false,d,true,false,0.0-2.0-0.42-0.383-3.383,0,0,1,90,false,stim,false,0,718.1000000238419,0,0,0,63598,task3,1735290,false,false,1273,image-keyboard-response,3
true,21,2,1,2,true,d,false,true,0.0-2.0-0.42-0.384-3.384,0,0,1,68,false,stim,false,0,569.6999999284744,0,0,0,63598,task3,1737384,false,false,1276,image-keyboard-response,4
true,21,2,1,2,true,d,false,true,0.0-2.0-0.42-0.385-3.385,0,0,1,68,false,stim,false,2,780.7000000476837,0,1,2,63598,task3,1739695,false,false,1279,image-keyboard-response,5
true,21,2,1,2,true,d,false,true,0.0-2.0-0.42-0.386-3.386,0,0,1,68,false,stim,false,2,541.8000000715256,0,1,2,63598,task3,1741761,false,false,1282,image-keyboard-response,6
true,21,2,1,2,true,d,false,true,0.0-2.0-0.43-0.387-3.387,0,0,1,68,false,stim,false,0,1120.6999999284744,0,0,0,63598,task3,1744408,false,false,1285,image-keyboard-response,7
true,21,1,1,0,false,q,true,false,0.0-2.0-0.43-0.388-3.388,0,0,1,90,false,stim,false,2,604.0999999046326,0,0,1,63598,task3,1746538,false,false,1288,image-keyboard-response,8
true,21,0,1,0,true,q,false,true,0.0-2.0-0.43-0.389-3.389,0,0,1,81,false,stim,false,2,689.3000000715256,0,0,1,63598,task3,1748756,false,false,1291,image-keyboard-response,9
true,21,2,1,2,true,d,false,true,0.0-2.0-0.43-0.390-3.390,0,0,1,68,false,stim,false,2,1706.8999999761581,0,1,2,63598,task3,1751984,false,false,1294,image-keyboard-response,10
true,21,2,1,2,true,d,false,true,0.0-2.0-0.43-0.391-3.391,0,0,1,68,false,stim,false,0,496.89999997615814,0,0,0,63598,task3,1754009,false,false,1297,image-keyboard-response,11
true,21,2,1,2,true,d,false,true,0.0-2.0-0.43-0.392-3.392,0,0,1,68,false,stim,false,2,831.3999999761581,0,1,2,63598,task3,1756366,false,false,1300,image-keyboard-response,12
true,21,2,1,2,true,d,false,true,0.0-2.0-0.43-0.393-3.393,0,0,1,68,false,stim,false,0,1219.8999999761581,0,0,0,63598,task3,1759117,false,false,1303,image-keyboard-response,13
true,21,0,1,0,true,q,false,true,0.0-2.0-0.43-0.394-3.394,0,0,1,81,false,stim,false,2,435.2999999523163,0,0,1,63598,task3,1761070,false,false,1306,image-keyboard-response,14
true,21,2,1,2,true,d,false,true,0.0-2.0-0.43-0.395-3.395,0,0,1,68,false,stim,false,2,559.7000000476837,0,1,2,63598,task3,1763157,false,false,1309,image-keyboard-response,15
true,21,0,1,0,true,q,false,false,0.0-2.0-0.44-0.396-3.396,0,0,1,81,false,stim,false,2,662.4000000953674,0,0,1,63598,task3,1765328,false,true,1312,image-keyboard-response,16
true,21,2,1,2,true,d,false,true,0.0-2.0-0.44-0.397-3.397,0,0,1,68,false,stim,false,2,606.7999999523163,0,1,2,63598,task3,1767465,false,false,1315,image-keyboard-response,17
true,21,1,1,0,false,q,true,true,0.0-2.0-0.44-0.398-3.398,0,0,1,90,false,stim,false,2,489.10000002384186,0,0,1,63598,task3,1769483,false,true,1318,image-keyboard-response,18
true,21,2,1,2,true,d,false,true,0.0-2.0-0.44-0.399-3.399,0,0,1,68,false,stim,false,2,410.2999999523163,0,1,2,63598,task3,1771412,false,false,1321,image-keyboard-response,19
true,21,2,1,2,true,d,false,true,0.0-2.0-0.44-0.400-3.400,0,0,1,68,false,stim,false,0,648.3000000715256,0,0,0,63598,task3,1773577,false,false,1324,image-keyboard-response,20
true,21,2,1,2,true,d,false,true,0.0-2.0-0.44-0.401-3.401,0,0,1,68,false,stim,false,0,510.7999999523163,0,0,0,63598,task3,1775619,false,false,1327,image-keyboard-response,21
true,21,1,1,0,false,q,true,false,0.0-2.0-0.44-0.402-3.402,0,0,1,90,false,stim,false,2,647.6000000238419,0,0,1,63598,task3,1777790,false,false,1330,image-keyboard-response,22
true,21,2,1,2,true,d,false,true,0.0-2.0-0.44-0.403-3.403,0,0,1,68,false,stim,false,2,843.0,0,1,2,63598,task3,1780150,false,false,1333,image-keyboard-response,23
true,21,2,1,2,true,d,false,true,0.0-2.0-0.44-0.404-3.404,0,0,1,68,false,stim,false,0,997.1000000238419,0,0,0,63598,task3,1782670,false,false,1336,image-keyboard-response,24
true,21,2,1,2,true,d,false,true,0.0-2.0-0.45-0.405-3.405,0,0,1,68,false,stim,false,0,624.2000000476837,0,0,0,63598,task3,1784820,false,false,1339,image-keyboard-response,25
true,21,2,1,0,false,q,false,true,0.0-2.0-0.45-0.406-3.406,0,0,1,68,false,stim,true,2,611.2000000476837,0,0,1,63598,task3,1786951,false,true,1342,image-keyboard-response,26
true,21,2,1,2,true,d,false,true,0.0-2.0-0.45-0.407-3.407,0,0,1,68,false,stim,false,2,776.8999999761581,0,1,2,63598,task3,1789248,false,false,1345,image-keyboard-response,27
true,22,2,1,1,false,z,false,false,0.0-2.0-0.45-0.408-3.408,0,0,1,68,true,stim,true,2,439.2000000476837,0,0,0,63598,task3,1791212,false,false,1348,image-keyboard-response,1
true,22,2,1,1,false,z,true,false,0.0-2.0-0.45-0.409-3.409,0,0,1,68,false,stim,false,0,546.3000000715256,0,0,1,63598,task3,1793280,false,false,1351,image-keyboard-response,2
true,22,1,1,1,true,z,false,true,0.0-2.0-0.45-0.410-3.410,0,0,1,90,false,stim,false,2,943.6000000238419,0,0,0,63598,task3,1795748,false,false,1354,image-keyboard-response,3
true,22,2,1,2,true,d,false,true,0.0-2.0-0.45-0.411-3.411,0,0,1,68,false,stim,false,2,673.6999999284744,0,1,2,63598,task3,1797953,false,false,1357,image-keyboard-response,4
true,22,2,1,2,true,d,false,true,0.0-2.0-0.45-0.412-3.412,0,0,1,68,false,stim,false,2,1220.1000000238419,0,1,2,63598,task3,1800691,false,false,1360,image-keyboard-response,5
true,22,0,1,1,false,z,false,false,0.0-2.0-0.45-0.413-3.413,0,0,1,81,false,stim,true,0,803.6999999284744,0,0,1,63598,task3,1803016,false,false,1363,image-keyboard-response,6
true,22,1,1,1,true,z,false,false,0.0-2.0-0.46-0.414-3.414,0,0,1,90,false,stim,false,2,955.5,0,0,0,63598,task3,1805489,false,true,1366,image-keyboard-response,7
true,22,2,1,1,false,z,true,false,0.0-2.0-0.46-0.415-3.415,0,0,1,68,false,stim,false,0,1109.3999999761581,0,0,1,63598,task3,1808131,false,false,1369,image-keyboard-response,8
true,22,2,1,1,false,z,false,false,0.0-2.0-0.46-0.416-3.416,0,0,1,68,false,stim,true,2,1343.7000000476837,0,0,0,63598,task3,1810993,false,false,1372,image-keyboard-response,9
true,22,1,1,1,true,z,false,true,0.0-2.0-0.46-0.417-3.417,0,0,1,90,false,stim,false,2,704.4000000953674,0,0,0,63598,task3,1813217,false,false,1375,image-keyboard-response,10
true,22,2,1,2,true,d,false,true,0.0-2.0-0.46-0.418-3.418,0,0,1,68,false,stim,false,2,1000.6000000238419,0,1,2,63598,task3,1815740,false,false,1378,image-keyboard-response,11
true,22,2,1,2,true,d,false,true,0.0-2.0-0.46-0.419-3.419,0,0,1,68,false,stim,false,2,593.3999999761581,0,1,2,63598,task3,1817852,false,false,1381,image-keyboard-response,12
true,22,2,1,1,false,z,true,false,0.0-2.0-0.46-0.420-3.420,0,0,1,68,false,stim,false,0,1395.1999999284744,0,0,1,63598,task3,1820769,false,false,1384,image-keyboard-response,13
true,22,2,1,2,true,d,false,true,0.0-2.0-0.46-0.421-3.421,0,0,1,68,false,stim,false,2,1141.6000000238419,0,1,2,63598,task3,1823438,false,false,1387,image-keyboard-response,14
true,22,0,1,1,false,z,false,false,0.0-2.0-0.46-0.422-3.422,0,0,1,81,false,stim,true,0,857.6000000238419,0,0,1,63598,task3,1825817,false,false,1390,image-keyboard-response,15
true,22,1,1,1,true,z,false,false,0.0-2.0-0.47-0.423-3.423,0,0,1,90,false,stim,false,0,638.2999999523163,0,0,1,63598,task3,1827979,false,true,1393,image-keyboard-response,16
true,22,1,1,1,true,z,false,true,0.0-2.0-0.47-0.424-3.424,0,0,1,90,false,stim,false,2,1058.8999999761581,0,0,0,63598,task3,1830560,false,false,1396,image-keyboard-response,17
true,22,2,1,1,false,z,false,false,0.0-2.0-0.47-0.425-3.425,0,0,1,68,false,stim,true,2,746.0,0,0,0,63598,task3,1832832,false,false,1399,image-keyboard-response,18
true,22,2,1,2,true,d,false,true,0.0-2.0-0.47-0.426-3.426,0,0,1,68,false,stim,false,2,406.0,0,1,2,63598,task3,1834761,false,false,1402,image-keyboard-response,19
true,22,2,1,1,false,z,true,false,0.0-2.0-0.47-0.427-3.427,0,0,1,68,false,stim,false,0,839.5,0,0,1,63598,task3,1837120,false,false,1405,image-keyboard-response,20
true,22,2,1,2,true,d,false,true,0.0-2.0-0.47-0.428-3.428,0,0,1,68,false,stim,false,2,806.2000000476837,0,1,2,63598,task3,1839457,false,false,1408,image-keyboard-response,21
true,22,0,1,1,false,z,false,false,0.0-2.0-0.47-0.429-3.429,0,0,1,81,false,stim,true,0,808.5,0,0,1,63598,task3,1841793,false,false,1411,image-keyboard-response,22
true,22,1,1,1,true,z,false,true,0.0-2.0-0.47-0.430-3.430,0,0,1,90,false,stim,false,2,809.7999999523163,0,1,0,63598,task3,1844130,false,false,1414,image-keyboard-response,23
true,22,2,1,2,true,d,false,true,0.0-2.0-0.47-0.431-3.431,0,0,1,68,false,stim,false,2,571.3999999761581,0,0,2,63598,task3,1846229,false,false,1417,image-keyboard-response,24
true,22,2,1,2,true,d,false,true,0.0-2.0-0.48-0.432-3.432,0,0,1,68,false,stim,false,2,498.0,0,0,2,63598,task3,1848253,false,false,1420,image-keyboard-response,25
true,22,1,1,1,true,z,false,true,0.0-2.0-0.48-0.433-3.433,0,0,1,90,false,stim,false,0,898.2999999523163,0,0,1,63598,task3,1850675,false,false,1423,image-keyboard-response,26
true,22,1,1,1,true,z,false,false,0.0-2.0-0.48-0.434-3.434,0,0,1,90,false,stim,false,0,708.5,0,0,1,63598,task3,1852911,false,true,1426,image-keyboard-response,27
true,23,2,1,0,false,q,false,false,0.0-2.0-0.48-0.435-3.435,1,0,0,68,true,stim,true,2,627.4000000953674,0,0,2,63598,task3,1855056,false,false,1429,image-keyboard-response,1
true,23,2,1,2,true,d,false,true,0.0-2.0-0.48-0.436-3.436,1,0,0,68,false,stim,false,1,734.1000000238419,0,0,1,63598,task3,1857312,false,false,1432,image-keyboard-response,2
true,23,1,1,1,true,z,false,false,0.0-2.0-0.48-0.437-3.437,1,0,0,90,false,stim,false,1,674.5,0,1,0,63598,task3,1859510,false,true,1435,image-keyboard-response,3
true,23,0,1,0,true,q,false,false,0.0-2.0-0.48-0.438-3.438,1,0,0,81,false,stim,false,2,804.6999999284744,0,0,2,63598,task3,1861832,false,true,1438,image-keyboard-response,4
true,23,2,1,1,false,z,true,false,0.0-2.0-0.48-0.439-3.439,1,0,0,68,false,stim,false,1,1291.5,0,1,0,63598,task3,1864649,false,false,1441,image-keyboard-response,5
true,23,1,1,1,true,z,false,true,0.0-2.0-0.48-0.440-3.440,1,0,0,90,false,stim,false,1,777.8999999761581,0,1,0,63598,task3,1866950,false,false,1444,image-keyboard-response,6
true,23,2,1,2,true,d,false,true,0.0-2.0-0.49-0.441-3.441,1,0,0,68,false,stim,false,1,1197.8999999761581,0,0,1,63598,task3,1869675,false,false,1447,image-keyboard-response,7
true,23,0,1,0,true,q,false,true,0.0-2.0-0.49-0.442-3.442,1,0,0,81,false,stim,false,2,1134.6999999284744,0,0,2,63598,task3,1872333,false,false,1450,image-keyboard-response,8
true,23,0,1,0,true,q,false,true,0.0-2.0-0.49-0.443-3.443,1,0,0,81,false,stim,false,2,684.1999999284744,0,0,2,63598,task3,1874546,false,false,1453,image-keyboard-response,9
true,23,1,1,1,true,z,false,true,0.0-2.0-0.49-0.444-3.444,1,0,0,90,false,stim,false,1,870.8999999761581,0,1,0,63598,task3,1876941,false,false,1456,image-keyboard-response,10
true,23,2,1,2,true,d,false,false,0.0-2.0-0.49-0.445-3.445,1,0,0,68,false,stim,false,1,490.2999999523163,0,0,1,63598,task3,1878958,false,true,1459,image-keyboard-response,11
true,23,1,1,1,true,z,false,true,0.0-2.0-0.49-0.446-3.446,1,0,0,90,false,stim,false,1,713.6000000238419,0,1,0,63598,task3,1881192,false,false,1462,image-keyboard-response,12
true,23,0,1,2,false,d,true,false,0.0-2.0-0.49-0.447-3.447,1,0,0,81,false,stim,false,1,825.2999999523163,0,0,1,63598,task3,1883551,false,false,1465,image-keyboard-response,13
true,23,0,1,0,true,q,false,true,0.0-2.0-0.49-0.448-3.448,1,0,0,81,false,stim,false,2,951.5,0,0,2,63598,task3,1886023,false,false,1468,image-keyboard-response,14
true,23,1,1,1,true,z,false,true,0.0-2.0-0.49-0.449-3.449,1,0,0,90,false,stim,false,1,598.0,0,1,0,63598,task3,1888144,false,false,1471,image-keyboard-response,15
true,23,0,1,2,false,d,true,false,0.0-2.0-0.50-0.450-3.450,1,0,0,81,false,stim,false,1,1044.1999999284744,0,0,1,63598,task3,1890720,false,false,1474,image-keyboard-response,16
true,23,0,1,0,true,q,false,true,0.0-2.0-0.50-0.451-3.451,1,0,0,81,false,stim,false,2,1689.0,0,0,2,63598,task3,1893935,false,false,1477,image-keyboard-response,17
true,23,0,1,0,true,q,false,true,0.0-2.0-0.50-0.452-3.452,1,0,0,81,false,stim,false,2,645.2999999523163,0,0,2,63598,task3,1896109,false,false,1480,image-keyboard-response,18
true,23,1,1,2,false,d,false,false,0.0-2.0-0.50-0.453-3.453,1,0,0,90,false,stim,true,1,899.3999999761581,0,0,1,63598,task3,1898527,false,false,1483,image-keyboard-response,19
true,23,1,1,1,true,z,false,true,0.0-2.0-0.50-0.454-3.454,1,0,0,90,false,stim,false,1,713.6000000238419,0,1,0,63598,task3,1900767,false,false,1486,image-keyboard-response,20
true,23,2,1,2,true,d,false,true,0.0-2.0-0.50-0.455-3.455,1,0,0,68,false,stim,false,1,656.7000000476837,0,1,1,63598,task3,1902954,false,false,1489,image-keyboard-response,21
true,23,1,1,1,true,z,false,true,0.0-2.0-0.50-0.456-3.456,1,0,0,90,false,stim,false,1,712.6000000238419,0,0,0,63598,task3,1905188,false,false,1492,image-keyboard-response,22
true,23,1,1,1,true,z,false,false,0.0-2.0-0.50-0.457-3.457,1,0,0,90,false,stim,false,1,449.8000000715256,0,0,0,63598,task3,1907162,false,true,1495,image-keyboard-response,23
true,23,0,1,0,true,q,false,true,0.0-2.0-0.50-0.458-3.458,1,0,0,81,false,stim,false,2,666.2000000476837,0,0,2,63598,task3,1909358,false,false,1498,image-keyboard-response,24
true,23,0,1,0,true,q,false,true,0.0-2.0-0.51-0.459-3.459,1,0,0,81,false,stim,false,2,596.1000000238419,0,0,2,63598,task3,1911490,false,false,1501,image-keyboard-response,25
true,24,2,1,0,false,q,true,false,0.0-2.0-0.51-0.460-3.460,0,1,0,68,true,stim,false,1,924.2999999523163,0,0,0,63598,task3,1913941,false,false,1504,image-keyboard-response,1
true,24,0,1,1,false,z,false,false,0.0-2.0-0.51-0.461-3.461,0,1,0,81,false,stim,true,0,844.1999999284744,0,0,2,63598,task3,1916305,false,false,1507,image-keyboard-response,2
true,24,1,1,1,true,z,false,true,0.0-2.0-0.51-0.462-3.462,0,1,0,90,false,stim,false,0,937.3999999761581,0,0,2,63598,task3,1918764,false,false,1510,image-keyboard-response,3
true,24,2,1,2,true,d,false,true,0.0-2.0-0.51-0.463-3.463,0,1,0,68,false,stim,false,2,644.6000000238419,0,1,1,63598,task3,1920930,false,false,1513,image-keyboard-response,4
true,24,0,1,0,true,q,false,true,0.0-2.0-0.51-0.464-3.464,0,1,0,81,false,stim,false,1,833.2000000476837,0,0,0,63598,task3,1923283,false,false,1516,image-keyboard-response,5
true,24,2,1,2,true,d,false,true,0.0-2.0-0.51-0.465-3.465,0,1,0,68,false,stim,false,2,719.8000000715256,0,1,1,63598,task3,1925518,false,false,1519,image-keyboard-response,6
true,24,2,1,2,true,d,false,true,0.0-2.0-0.51-0.466-3.466,0,1,0,68,false,stim,false,2,694.6000000238419,0,1,1,63598,task3,1927733,false,false,1522,image-keyboard-response,7
true,24,0,1,0,true,q,false,true,0.0-2.0-0.51-0.467-3.467,0,1,0,81,false,stim,false,1,692.8000000715256,0,0,0,63598,task3,1929956,false,false,1525,image-keyboard-response,8
true,24,1,1,1,true,z,false,true,0.0-2.0-0.52-0.468-3.468,0,1,0,90,false,stim,false,0,795.6000000238419,0,0,2,63598,task3,1932283,false,false,1528,image-keyboard-response,9
true,24,0,1,0,true,q,false,true,0.0-2.0-0.52-0.469-3.469,0,1,0,81,false,stim,false,1,886.2999999523163,0,0,0,63598,task3,1934694,false,false,1531,image-keyboard-response,10
true,24,0,1,0,true,q,false,true,0.0-2.0-0.52-0.470-3.470,0,1,0,81,false,stim,false,1,984.7000000476837,0,0,0,63598,task3,1937207,false,false,1534,image-keyboard-response,11
true,24,1,1,1,true,z,false,true,0.0-2.0-0.52-0.471-3.471,0,1,0,90,false,stim,false,0,575.8999999761581,0,0,2,63598,task3,1939306,false,false,1537,image-keyboard-response,12
true,24,2,1,2,true,d,false,true,0.0-2.0-0.52-0.472-3.472,0,1,0,68,false,stim,false,2,627.5,0,1,1,63598,task3,1941455,false,false,1540,image-keyboard-response,13
true,24,2,1,2,true,d,false,true,0.0-2.0-0.52-0.473-3.473,0,1,0,68,false,stim,false,2,545.8000000715256,0,1,1,63598,task3,1943521,false,false,1543,image-keyboard-response,14
true,24,1,1,1,true,z,false,true,0.0-2.0-0.52-0.474-3.474,0,1,0,90,false,stim,false,0,922.2999999523163,0,0,2,63598,task3,1945963,false,false,1546,image-keyboard-response,15
true,24,2,1,2,true,d,false,true,0.0-2.0-0.52-0.475-3.475,0,1,0,68,false,stim,false,2,444.60000002384186,0,1,1,63598,task3,1947929,false,false,1549,image-keyboard-response,16
true,24,0,1,0,true,q,false,true,0.0-2.0-0.52-0.476-3.476,0,1,0,81,false,stim,false,1,559.6000000238419,0,0,0,63598,task3,1950008,false,false,1552,image-keyboard-response,17
true,24,0,1,0,true,q,false,true,0.0-2.0-0.53-0.477-3.477,0,1,0,81,false,stim,false,1,632.3999999761581,0,0,0,63598,task3,1952167,false,false,1555,image-keyboard-response,18
true,24,0,1,0,true,q,false,true,0.0-2.0-0.53-0.478-3.478,0,1,0,81,false,stim,false,1,562.5,0,0,0,63598,task3,1954264,false,false,1558,image-keyboard-response,19
true,24,2,1,2,true,d,false,false,0.0-2.0-0.53-0.479-3.479,0,1,0,68,false,stim,false,2,712.2999999523163,0,1,1,63598,task3,1956500,false,true,1561,image-keyboard-response,20
true,24,1,1,1,true,z,false,true,0.0-2.0-0.53-0.480-3.480,0,1,0,90,false,stim,false,0,640.8999999761581,0,0,2,63598,task3,1958657,false,false,1564,image-keyboard-response,21
true,24,1,1,1,true,z,false,false,0.0-2.0-0.53-0.481-3.481,0,1,0,90,false,stim,false,0,518.3999999761581,0,0,2,63598,task3,1960691,false,true,1567,image-keyboard-response,22
true,24,0,1,0,true,q,false,false,0.0-2.0-0.53-0.482-3.482,0,1,0,81,false,stim,false,1,643.6999999284744,0,0,0,63598,task3,1962855,false,true,1570,image-keyboard-response,23
true,24,2,1,1,false,z,true,false,0.0-2.0-0.53-0.483-3.483,0,1,0,68,false,stim,false,0,800.2999999523163,0,0,2,63598,task3,1965176,false,false,1573,image-keyboard-response,24
true,24,0,1,2,false,d,true,false,0.0-2.0-0.53-0.484-3.484,0,1,0,81,false,stim,false,2,1242.7999999523163,0,1,1,63598,task3,1967938,false,false,1576,image-keyboard-response,25
true,24,1,1,2,false,d,true,false,0.0-2.0-0.53-0.485-3.485,0,1,0,90,false,stim,false,2,614.2999999523163,0,1,1,63598,task3,1970076,false,false,1579,image-keyboard-response,26
true,24,2,1,0,false,q,true,true,0.0-2.0-0.54-0.486-3.486,0,1,0,68,false,stim,false,1,840.5,0,0,0,63598,task3,1972439,false,true,1582,image-keyboard-response,27
true,24,2,1,2,true,d,false,true,0.0-2.0-0.54-0.487-3.487,0,1,0,68,false,stim,false,2,925.3999999761581,0,1,1,63598,task3,1974893,false,false,1585,image-keyboard-response,28
true,25,2,1,2,true,d,false,true,0.0-2.0-0.54-0.488-3.488,0,1,0,68,true,stim,false,2,758.1000000238419,0,1,1,63598,task3,1977169,false,false,1588,image-keyboard-response,1
true,25,2,1,1,false,z,true,false,0.0-2.0-0.54-0.489-3.489,0,1,0,68,false,stim,false,0,405.0,0,0,0,63598,task3,1979090,false,false,1591,image-keyboard-response,2
true,25,2,1,2,true,d,false,true,0.0-2.0-0.54-0.490-3.490,0,1,0,68,false,stim,false,1,1522.3000000715256,0,0,2,63598,task3,1982139,false,false,1594,image-keyboard-response,3
true,25,0,1,1,false,z,false,false,0.0-2.0-0.54-0.491-3.491,0,1,0,81,false,stim,true,0,969.0999999046326,0,0,0,63598,task3,1984632,false,false,1597,image-keyboard-response,4
true,25,2,1,2,true,d,false,true,0.0-2.0-0.54-0.492-3.492,0,1,0,68,false,stim,false,1,475.2999999523163,0,0,2,63598,task3,1986627,false,false,1600,image-keyboard-response,5
true,25,2,1,2,true,d,false,true,0.0-2.0-0.54-0.493-3.493,0,1,0,68,false,stim,false,1,601.5999999046326,0,0,2,63598,task3,1988757,false,false,1603,image-keyboard-response,6
true,25,2,1,2,true,d,false,true,0.0-2.0-0.54-0.494-3.494,0,1,0,68,false,stim,false,2,563.3000000715256,0,1,1,63598,task3,1990844,false,false,1606,image-keyboard-response,7
true,25,2,1,2,true,d,false,true,0.0-2.0-0.55-0.495-3.495,0,1,0,68,false,stim,false,2,564.5,0,1,1,63598,task3,1992930,false,false,1609,image-keyboard-response,8
true,25,2,1,2,true,d,false,true,0.0-2.0-0.55-0.496-3.496,0,1,0,68,false,stim,false,1,768.8999999761581,0,1,2,63598,task3,1995220,false,false,1612,image-keyboard-response,9
true,25,1,1,1,true,z,false,true,0.0-2.0-0.55-0.497-3.497,0,1,0,90,false,stim,false,0,561.8999999761581,0,1,0,63598,task3,1997298,false,false,1615,image-keyboard-response,10
true,25,1,1,1,true,z,false,true,0.0-2.0-0.55-0.498-3.498,0,1,0,90,false,stim,false,0,484.39999997615814,0,1,0,63598,task3,1999305,false,false,1618,image-keyboard-response,11
true,25,2,1,2,true,d,false,true,0.0-2.0-0.55-0.499-3.499,0,1,0,68,false,stim,false,1,521.9000000953674,0,1,2,63598,task3,2001351,false,false,1621,image-keyboard-response,12
true,26,2,0,1,false,z,true,false,0.0-2.0-0.55-0.500-3.500,1,1,1,68,true,stim,false,1,833.8000000715256,0,1,0,63598,task3,2125067,false,false,1744,image-keyboard-response,1
true,26,2,0,2,true,d,false,true,0.0-2.0-0.55-0.501-3.501,1,1,1,68,false,stim,false,2,832.5,0,1,1,63598,task3,2127431,false,false,1747,image-keyboard-response,2
true,26,2,0,2,true,d,false,true,0.0-2.0-0.55-0.502-3.502,1,1,1,68,false,stim,false,2,562.6000000238419,0,1,2,63598,task3,2129513,false,false,1750,image-keyboard-response,3
true,26,2,0,2,true,d,false,true,0.0-2.0-0.55-0.503-3.503,1,1,1,68,false,stim,false,2,596.1000000238419,0,1,1,63598,task3,2131634,false,false,1753,image-keyboard-response,4
true,26,0,0,1,false,z,true,false,0.0-2.0-0.56-0.504-3.504,1,1,1,81,false,stim,false,1,712.0,0,1,0,63598,task3,2133866,false,false,1756,image-keyboard-response,5
true,26,1,0,1,true,z,false,false,0.0-2.0-0.56-0.505-3.505,1,1,1,90,false,stim,false,1,603.7999999523163,0,1,0,63598,task3,2135999,false,true,1759,image-keyboard-response,6
true,26,2,0,2,true,d,false,true,0.0-2.0-0.56-0.506-3.506,1,1,1,68,false,stim,false,2,590.2999999523163,0,1,2,63598,task3,2138119,false,false,1762,image-keyboard-response,7
true,26,2,0,2,true,d,false,true,0.0-2.0-0.56-0.507-3.507,1,1,1,68,false,stim,false,2,567.4000000953674,0,0,2,63598,task3,2140204,false,false,1765,image-keyboard-response,8
true,26,2,0,2,true,d,false,true,0.0-2.0-0.56-0.508-3.508,1,1,1,68,false,stim,false,2,685.8999999761581,0,1,1,63598,task3,2142421,false,false,1768,image-keyboard-response,9
true,26,0,0,1,false,z,true,false,0.0-2.0-0.56-0.509-3.509,1,1,1,81,false,stim,false,1,378.7000000476837,0,1,0,63598,task3,2144327,false,false,1771,image-keyboard-response,10
true,26,2,0,2,true,d,false,true,0.0-2.0-0.56-0.510-3.510,1,1,1,68,false,stim,false,2,619.1000000238419,0,1,1,63598,task3,2146467,false,false,1774,image-keyboard-response,11
true,26,2,0,2,true,d,false,true,0.0-2.0-0.56-0.511-3.511,1,1,1,68,false,stim,false,2,605.0999999046326,0,1,1,63598,task3,2148600,false,false,1777,image-keyboard-response,12
true,27,2,2,1,false,z,false,false,0.0-2.0-0.56-0.512-3.512,1,1,0,68,true,stim,true,2,448.0,0,0,2,63598,task3,2150576,false,false,1780,image-keyboard-response,1
true,27,2,2,2,true,d,false,true,0.0-2.0-0.57-0.513-3.513,1,1,0,68,false,stim,false,2,349.5,0,1,1,63598,task3,2152452,false,false,1783,image-keyboard-response,2
true,27,1,2,1,true,z,false,true,0.0-2.0-0.57-0.514-3.514,1,1,0,90,false,stim,false,2,573.6000000238419,0,0,2,63598,task3,2154544,false,false,1786,image-keyboard-response,3
true,27,2,2,2,true,d,false,true,0.0-2.0-0.57-0.515-3.515,1,1,0,68,false,stim,false,2,557.1000000238419,0,1,1,63598,task3,2156629,false,false,1789,image-keyboard-response,4
true,27,1,2,1,true,z,false,true,0.0-2.0-0.57-0.516-3.516,1,1,0,90,false,stim,false,2,721.2000000476837,0,0,2,63598,task3,2158878,false,false,1792,image-keyboard-response,5
true,27,1,2,1,true,z,false,true,0.0-2.0-0.57-0.517-3.517,1,1,0,90,false,stim,false,2,643.0,0,0,2,63598,task3,2161038,false,false,1795,image-keyboard-response,6
true,27,2,2,2,true,d,false,true,0.0-2.0-0.57-0.518-3.518,1,1,0,68,false,stim,false,2,628.3999999761581,0,1,1,63598,task3,2163185,false,false,1798,image-keyboard-response,7
true,27,0,2,1,false,z,true,false,0.0-2.0-0.57-0.519-3.519,1,1,0,81,false,stim,false,1,942.5,0,1,0,63598,task3,2165656,false,false,1801,image-keyboard-response,8
true,27,2,2,1,false,z,true,false,0.0-2.0-0.57-0.520-3.520,1,1,0,68,false,stim,false,1,656.1000000238419,0,1,0,63598,task3,2167832,false,false,1804,image-keyboard-response,9
true,27,1,2,1,true,z,false,true,0.0-2.0-0.57-0.521-3.521,1,1,0,90,false,stim,false,1,670.8000000715256,0,1,0,63598,task3,2170024,false,false,1807,image-keyboard-response,10
true,27,1,2,1,true,z,false,true,0.0-2.0-0.58-0.522-3.522,1,1,0,90,false,stim,false,1,627.1000000238419,0,0,0,63598,task3,2172173,false,false,1810,image-keyboard-response,11
true,27,1,2,1,true,z,false,false,0.0-2.0-0.58-0.523-3.523,1,1,0,90,false,stim,false,1,617.3000000715256,0,0,0,63598,task3,2174307,false,true,1813,image-keyboard-response,12
true,27,1,2,2,false,d,true,false,0.0-2.0-0.58-0.524-3.524,1,1,0,90,false,stim,false,2,1242.2000000476837,0,1,1,63598,task3,2177059,false,false,1816,image-keyboard-response,13
true,27,1,2,1,true,z,false,true,0.0-2.0-0.58-0.525-3.525,1,1,0,90,false,stim,false,2,535.7000000476837,0,1,2,63598,task3,2179114,false,false,1819,image-keyboard-response,14
true,27,1,2,1,true,z,false,false,0.0-2.0-0.58-0.526-3.526,1,1,0,90,false,stim,false,2,578.8999999761581,0,1,2,63598,task3,2181222,false,true,1822,image-keyboard-response,15
true,28,2,2,2,true,d,false,true,0.0-2.0-0.58-0.527-3.527,0,1,1,68,true,stim,false,1,856.6999999284744,0,0,0,63598,task3,2183598,false,false,1825,image-keyboard-response,1
true,28,2,2,2,true,d,false,true,0.0-2.0-0.58-0.528-3.528,0,1,1,68,false,stim,false,2,559.8999999761581,0,1,1,63598,task3,2185680,false,false,1828,image-keyboard-response,2
true,28,2,2,2,true,d,false,true,0.0-2.0-0.58-0.529-3.529,0,1,1,68,false,stim,false,2,667.3000000715256,0,1,1,63598,task3,2187867,false,false,1831,image-keyboard-response,3
true,28,1,2,1,true,z,false,true,0.0-2.0-0.58-0.530-3.530,0,1,1,90,false,stim,false,1,713.5,0,1,2,63598,task3,2190101,false,false,1834,image-keyboard-response,4
true,28,1,2,1,true,z,false,true,0.0-2.0-0.59-0.531-3.531,0,1,1,90,false,stim,false,1,556.1000000238419,0,1,2,63598,task3,2192185,false,false,1837,image-keyboard-response,5
true,28,2,2,2,true,d,false,true,0.0-2.0-0.59-0.532-3.532,0,1,1,68,false,stim,false,1,857.6000000238419,0,0,0,63598,task3,2194571,false,false,1840,image-keyboard-response,6
true,28,1,2,1,true,z,false,true,0.0-2.0-0.59-0.533-3.533,0,1,1,90,false,stim,false,1,698.7999999523163,0,1,2,63598,task3,2196793,false,false,1843,image-keyboard-response,7
true,28,2,2,2,true,d,false,true,0.0-2.0-0.59-0.534-3.534,0,1,1,68,false,stim,false,1,616.0,0,0,0,63598,task3,2198930,false,false,1846,image-keyboard-response,8
true,28,2,2,2,true,d,false,true,0.0-2.0-0.59-0.535-3.535,0,1,1,68,false,stim,false,2,598.8999999761581,0,0,1,63598,task3,2201060,false,false,1849,image-keyboard-response,9
true,28,2,2,2,true,d,false,true,0.0-2.0-0.59-0.536-3.536,0,1,1,68,false,stim,false,2,488.6999999284744,0,0,1,63598,task3,2203079,false,false,1852,image-keyboard-response,10
true,28,1,2,2,false,d,false,false,0.0-2.0-0.59-0.537-3.537,0,1,1,90,false,stim,true,1,809.8999999761581,0,1,0,63598,task3,2205410,false,false,1855,image-keyboard-response,11
true,28,2,2,2,true,d,false,true,0.0-2.0-0.59-0.538-3.538,0,1,1,68,false,stim,false,2,880.7999999523163,0,0,1,63598,task3,2207816,false,false,1858,image-keyboard-response,12
true,28,1,2,1,true,z,false,true,0.0-2.0-0.59-0.539-3.539,0,1,1,90,false,stim,false,1,620.2999999523163,0,0,2,63598,task3,2209969,false,false,1861,image-keyboard-response,13
true,29,2,1,2,true,d,false,true,0.0-2.0-0.60-0.540-3.540,1,0,0,68,true,stim,false,2,481.0,0,1,0,63598,task3,2211972,false,false,1864,image-keyboard-response,1
true,29,1,1,2,false,d,false,false,0.0-2.0-0.60-0.541-3.541,1,0,0,90,false,stim,true,1,450.6999999284744,0,0,2,63598,task3,2213952,false,false,1867,image-keyboard-response,2
true,29,2,1,2,true,d,false,true,0.0-2.0-0.60-0.542-3.542,1,0,0,68,false,stim,false,2,1019.5,0,1,0,63598,task3,2216498,false,false,1870,image-keyboard-response,3
true,29,0,1,2,false,d,true,false,0.0-2.0-0.60-0.543-3.543,1,0,0,81,false,stim,false,1,717.9000000953674,0,0,2,63598,task3,2218744,false,false,1873,image-keyboard-response,4
true,29,2,1,1,false,z,false,false,0.0-2.0-0.60-0.544-3.544,1,0,0,68,false,stim,true,2,566.0,0,0,1,63598,task3,2220832,false,false,1876,image-keyboard-response,5
true,29,2,1,2,true,d,false,false,0.0-2.0-0.60-0.545-3.545,1,0,0,68,false,stim,false,2,660.7000000476837,0,1,0,63598,task3,2223011,false,true,1879,image-keyboard-response,6
true,29,1,1,1,true,z,false,true,0.0-2.0-0.60-0.546-3.546,1,0,0,90,false,stim,false,2,784.0,0,0,1,63598,task3,2225315,false,false,1882,image-keyboard-response,7
true,29,2,1,2,true,d,false,false,0.0-2.0-0.60-0.547-3.547,1,0,0,68,false,stim,false,1,888.6000000238419,0,0,2,63598,task3,2227725,false,true,1885,image-keyboard-response,8
true,29,1,1,1,true,z,false,true,0.0-2.0-0.60-0.548-3.548,1,0,0,90,false,stim,false,2,667.1000000238419,0,0,1,63598,task3,2229914,false,false,1888,image-keyboard-response,9
true,29,1,1,2,false,d,false,false,0.0-2.0-0.61-0.549-3.549,1,0,0,90,false,stim,true,1,377.0,0,0,2,63598,task3,2231823,false,false,1891,image-keyboard-response,10
true,29,0,1,2,false,d,true,false,0.0-2.0-0.61-0.550-3.550,1,0,0,81,false,stim,false,2,993.5,0,1,0,63598,task3,2234338,false,false,1894,image-keyboard-response,11
true,29,1,1,1,true,z,false,true,0.0-2.0-0.61-0.551-3.551,1,0,0,90,false,stim,false,2,803.8999999761581,0,0,1,63598,task3,2236673,false,false,1897,image-keyboard-response,12
true,29,0,1,2,false,d,true,false,0.0-2.0-0.61-0.552-3.552,1,0,0,81,false,stim,false,1,534.9000000953674,0,0,2,63598,task3,2238739,false,false,1900,image-keyboard-response,13
true,29,1,1,1,true,z,false,true,0.0-2.0-0.61-0.553-3.553,1,0,0,90,false,stim,false,2,488.3000000715256,0,0,1,63598,task3,2240759,false,false,1903,image-keyboard-response,14
true,29,1,1,2,false,d,true,false,0.0-2.0-0.61-0.554-3.554,1,0,0,90,false,stim,false,2,882.7000000476837,0,1,0,63598,task3,2243162,false,false,1906,image-keyboard-response,15
true,29,0,1,2,false,d,true,false,0.0-2.0-0.61-0.555-3.555,1,0,0,81,false,stim,false,1,1134.7999999523163,0,0,2,63598,task3,2245816,false,false,1909,image-keyboard-response,16
true,29,2,1,2,true,d,false,true,0.0-2.0-0.61-0.556-3.556,1,0,0,68,false,stim,false,2,731.3999999761581,0,1,0,63598,task3,2248069,false,false,1912,image-keyboard-response,17
true,29,1,1,1,true,z,false,true,0.0-2.0-0.61-0.557-3.557,1,0,0,90,false,stim,false,2,1107.3999999761581,0,0,1,63598,task3,2250701,false,false,1915,image-keyboard-response,18
true,29,2,1,2,true,d,false,true,0.0-2.0-0.62-0.558-3.558,1,0,0,68,false,stim,false,2,381.2999999523163,0,1,0,63598,task3,2252602,false,false,1918,image-keyboard-response,19
true,29,2,1,2,true,d,false,true,0.0-2.0-0.62-0.559-3.559,1,0,0,68,false,stim,false,2,624.5,0,1,0,63598,task3,2254749,false,false,1921,image-keyboard-response,20
true,29,2,1,2,true,d,false,true,0.0-2.0-0.62-0.560-3.560,1,0,0,68,false,stim,false,1,1236.1000000238419,0,0,2,63598,task3,2257508,false,false,1924,image-keyboard-response,21
true,29,1,1,1,true,z,false,true,0.0-2.0-0.62-0.561-3.561,1,0,0,90,false,stim,false,2,538.7000000476837,0,0,1,63598,task3,2259562,false,false,1927,image-keyboard-response,22
true,29,2,1,2,true,d,false,false,0.0-2.0-0.62-0.562-3.562,1,0,0,68,false,stim,false,2,667.2999999523163,0,1,0,63598,task3,2261758,false,true,1930,image-keyboard-response,23
true,29,1,1,1,true,z,false,true,0.0-2.0-0.62-0.563-3.563,1,0,0,90,false,stim,false,2,633.1000000238419,0,0,1,63598,task3,2263920,false,false,1933,image-keyboard-response,24
true,29,2,1,2,true,d,false,true,0.0-2.0-0.62-0.564-3.564,1,0,0,68,false,stim,false,1,381.5,0,0,2,63598,task3,2265827,false,false,1936,image-keyboard-response,25
true,30,2,1,0,false,q,false,false,0.0-2.0-0.62-0.565-3.565,1,0,0,68,true,stim,true,2,495.1999999284744,0,0,2,63598,task3,2267850,false,false,1939,image-keyboard-response,1
true,30,1,1,0,false,q,false,false,0.0-2.0-0.62-0.566-3.566,1,0,0,90,false,stim,true,1,522.7999999523163,0,0,1,63598,task3,2269899,false,false,1942,image-keyboard-response,2
true,30,0,1,0,true,q,false,true,0.0-2.0-0.63-0.567-3.567,1,0,0,81,false,stim,false,2,788.8000000715256,0,0,2,63598,task3,2272195,false,false,1945,image-keyboard-response,3
true,30,2,1,0,false,q,true,false,0.0-2.0-0.63-0.568-3.568,1,0,0,68,false,stim,false,1,779.8000000715256,0,0,1,63598,task3,2274508,false,false,1948,image-keyboard-response,4
true,30,1,1,2,false,d,true,false,0.0-2.0-0.63-0.569-3.569,1,0,0,90,false,stim,false,2,949.2999999523163,0,1,0,63598,task3,2276980,false,false,1951,image-keyboard-response,5
true,30,0,1,0,true,q,false,false,0.0-2.0-0.63-0.570-3.570,1,0,0,81,false,stim,false,1,1374.1000000238419,0,0,1,63598,task3,2279879,false,true,1954,image-keyboard-response,6
true,30,0,1,0,true,q,false,true,0.0-2.0-0.63-0.571-3.571,1,0,0,81,false,stim,false,2,413.39999997615814,0,0,2,63598,task3,2281808,false,false,1957,image-keyboard-response,7
true,30,2,1,0,false,q,true,false,0.0-2.0-0.63-0.572-3.572,1,0,0,68,false,stim,false,1,827.6999999284744,0,0,1,63598,task3,2284159,false,false,1960,image-keyboard-response,8
true,30,0,1,2,false,d,true,false,0.0-2.0-0.63-0.573-3.573,1,0,0,81,false,stim,false,2,1151.6000000238419,0,1,0,63598,task3,2286830,false,false,1963,image-keyboard-response,9
true,30,2,1,2,true,d,false,true,0.0-2.0-0.63-0.574-3.574,1,0,0,68,false,stim,false,2,558.6999999284744,0,1,0,63598,task3,2288906,false,false,1966,image-keyboard-response,10
true,30,0,1,0,true,q,false,true,0.0-2.0-0.63-0.575-3.575,1,0,0,81,false,stim,false,2,661.2999999523163,0,0,2,63598,task3,2291086,false,false,1969,image-keyboard-response,11
true,30,0,1,0,true,q,false,true,0.0-2.0-0.64-0.576-3.576,1,0,0,81,false,stim,false,2,555.8999999761581,0,0,2,63598,task3,2293165,false,false,1972,image-keyboard-response,12
true,30,2,1,2,true,d,false,true,0.0-2.0-0.64-0.577-3.577,1,0,0,68,false,stim,false,2,488.10000002384186,0,1,0,63598,task3,2295176,false,false,1975,image-keyboard-response,13
true,30,1,1,0,false,q,false,false,0.0-2.0-0.64-0.578-3.578,1,0,0,90,false,stim,true,1,887.1000000238419,0,0,1,63598,task3,2297577,false,false,1978,image-keyboard-response,14
true,30,0,1,0,true,q,false,false,0.0-2.0-0.64-0.579-3.579,1,0,0,81,false,stim,false,2,1249.3999999761581,0,0,2,63598,task3,2300351,false,true,1981,image-keyboard-response,15
true,30,0,1,0,true,q,false,true,0.0-2.0-0.64-0.580-3.580,1,0,0,81,false,stim,false,1,868.3999999761581,0,0,1,63598,task3,2302741,false,false,1984,image-keyboard-response,16
true,30,0,1,0,true,q,false,false,0.0-2.0-0.64-0.581-3.581,1,0,0,81,false,stim,false,1,601.2000000476837,0,0,1,63598,task3,2304865,false,true,1987,image-keyboard-response,17
true,30,2,1,2,true,d,false,true,0.0-2.0-0.64-0.582-3.582,1,0,0,68,false,stim,false,2,694.6000000238419,0,1,0,63598,task3,2307081,false,false,1990,image-keyboard-response,18
true,30,2,1,0,false,q,false,false,0.0-2.0-0.64-0.583-3.583,1,0,0,68,false,stim,true,2,788.2999999523163,0,0,2,63598,task3,2309393,false,false,1993,image-keyboard-response,19
true,30,2,1,2,true,d,false,false,0.0-2.0-0.64-0.584-3.584,1,0,0,68,false,stim,false,2,859.5,0,1,0,63598,task3,2311765,false,true,1996,image-keyboard-response,20
true,30,1,1,2,false,d,true,false,0.0-2.0-0.65-0.585-3.585,1,0,0,90,false,stim,false,2,1011.8000000715256,0,1,0,63598,task3,2314295,false,false,1999,image-keyboard-response,21
true,30,0,1,2,false,d,true,false,0.0-2.0-0.65-0.586-3.586,1,0,0,81,false,stim,false,2,445.39999997615814,0,1,0,63598,task3,2316264,false,false,2002,image-keyboard-response,22
true,30,0,1,0,true,q,false,true,0.0-2.0-0.65-0.587-3.587,1,0,0,81,false,stim,false,1,1843.3999999761581,0,0,1,63598,task3,2319627,false,false,2005,image-keyboard-response,23
true,30,0,1,0,true,q,false,true,0.0-2.0-0.65-0.588-3.588,1,0,0,81,false,stim,false,1,642.1000000238419,0,0,1,63598,task3,2321783,false,false,2008,image-keyboard-response,24
