answered,blockNum,choice,condition,corResp,correct,correct_response,explo,fb,internal_node_id,isStable_1,isStable_2,isStable_3,key_press,newBlock,part,persev,persevResp,rt,sessNum,stableAS,stimulus,subject,task,time_elapsed,training,trap,trial_index,trial_type,trialsInBlock
true,1,0,0,0,true,q,false,true,0.0-2.0-0.0-0.0-3.0,0,0,0,81,true,stim,false,-1,1542,2,0,0,64709,task1,167439,false,false,184,image-keyboard-response,1
true,1,0,0,2,false,d,true,false,0.0-2.0-0.0-0.1-3.1,0,0,0,81,false,stim,false,-1,846,2,0,2,64709,task1,169795,false,false,187,image-keyboard-response,2
true,1,1,0,0,false,q,true,false,0.0-2.0-0.0-0.2-3.2,0,0,0,90,false,stim,false,-1,472,2,0,0,64709,task1,171775,false,false,190,image-keyboard-response,3
true,1,2,0,0,false,q,true,false,0.0-2.0-0.0-0.3-3.3,0,0,0,68,false,stim,false,-1,677,2,0,0,64709,task1,173960,false,false,193,image-keyboard-response,4
true,1,0,0,2,false,d,true,false,0.0-2.0-0.0-0.4-3.4,0,0,0,81,false,stim,false,-1,421,2,0,1,64709,task1,175890,false,false,196,image-keyboard-response,5
true,1,2,0,2,true,d,false,true,0.0-2.0-0.0-0.5-3.5,0,0,0,68,false,stim,false,-1,505,2,0,1,64709,task1,177903,false,false,199,image-keyboard-response,6
true,1,1,0,2,false,d,true,false,0.0-2.0-0.0-0.6-3.6,0,0,0,90,false,stim,false,-1,657,2,0,2,64709,task1,180065,false,false,202,image-keyboard-response,7
true,1,2,0,2,true,d,false,true,0.0-2.0-0.0-0.7-3.7,0,0,0,68,false,stim,false,-1,596,2,0,1,64709,task1,182166,false,false,205,image-keyboard-response,8
true,1,2,0,2,true,d,false,true,0.0-2.0-0.0-0.8-3.8,0,0,0,68,false,stim,false,-1,457,2,0,2,64709,task1,184131,false,false,208,image-keyboard-response,9
true,1,0,0,2,false,d,true,false,0.0-2.0-0.1-0.9-3.9,0,0,0,81,false,stim,false,-1,516,2,0,2,64709,task1,186156,false,false,211,image-keyboard-response,10
true,1,2,0,0,false,q,true,false,0.0-2.0-0.1-0.10-3.10,0,0,0,68,false,stim,false,-1,1253,2,0,0,64709,task1,188915,false,false,214,image-keyboard-response,11
true,1,2,0,2,true,d,false,true,0.0-2.0-0.1-0.11-3.11,0,0,0,68,false,stim,false,-1,639,2,0,2,64709,task1,191064,false,false,217,image-keyboard-response,12
true,1,1,0,0,false,q,true,false,0.0-2.0-0.1-0.12-3.12,0,0,0,90,false,stim,false,-1,798,2,0,0,64709,task1,193369,false,false,220,image-keyboard-response,13
true,1,2,0,2,true,d,false,true,0.0-2.0-0.1-0.13-3.13,0,0,0,68,false,stim,false,-1,500,2,0,1,64709,task1,195375,false,false,223,image-keyboard-response,14
true,1,2,0,2,true,d,false,true,0.0-2.0-0.1-0.14-3.14,0,0,0,68,false,stim,false,-1,520,2,0,1,64709,task1,197398,false,false,226,image-keyboard-response,15
true,1,2,0,2,true,d,false,true,0.0-2.0-0.1-0.15-3.15,0,0,0,68,false,stim,false,-1,524,2,0,1,64709,task1,199431,false,false,229,image-keyboard-response,16
true,1,0,0,2,false,d,true,false,0.0-2.0-0.1-0.16-3.16,0,0,0,81,false,stim,false,-1,639,2,0,2,64709,task1,201577,false,false,232,image-keyboard-response,17
true,1,2,0,0,false,q,true,false,0.0-2.0-0.1-0.17-3.17,0,0,0,68,false,stim,false,-1,405,2,0,0,64709,task1,203488,false,false,235,image-keyboard-response,18
true,1,1,0,0,false,q,true,false,0.0-2.0-0.2-0.18-3.18,0,0,0,90,false,stim,false,-1,433,2,0,0,64709,task1,205430,false,false,238,image-keyboard-response,19
true,1,1,0,2,false,d,true,false,0.0-2.0-0.2-0.19-3.19,0,0,0,90,false,stim,false,-1,645,2,0,1,64709,task1,207583,false,false,241,image-keyboard-response,20
true,1,0,0,0,true,q,false,true,0.0-2.0-0.2-0.20-3.20,0,0,0,81,false,stim,false,-1,467,2,0,0,64709,task1,209559,false,false,244,image-keyboard-response,21
true,1,0,0,2,false,d,true,false,0.0-2.0-0.2-0.21-3.21,0,0,0,81,false,stim,false,-1,1037,2,0,2,64709,task1,212103,false,false,247,image-keyboard-response,22
true,1,1,0,2,false,d,true,false,0.0-2.0-0.2-0.22-3.22,0,0,0,90,false,stim,false,-1,745,2,0,2,64709,task1,214356,false,false,250,image-keyboard-response,23
true,1,2,0,2,true,d,false,true,0.0-2.0-0.2-0.23-3.23,0,0,0,68,false,stim,false,-1,1116,2,0,1,64709,task1,216979,false,false,253,image-keyboard-response,24
true,1,0,0,2,false,d,true,true,0.0-2.0-0.2-0.24-3.24,0,0,0,81,false,stim,false,-1,525,2,0,2,64709,task1,219012,false,true,256,image-keyboard-response,25
true,1,2,0,0,false,q,true,false,0.0-2.0-0.2-0.25-3.25,0,0,0,68,false,stim,false,-1,677,2,0,0,64709,task1,221196,false,false,259,image-keyboard-response,26
true,2,1,1,1,true,z,false,true,0.0-2.0-0.2-0.26-3.26,0,0,0,90,true,stim,false,2,439,2,0,1,64709,task1,223147,false,false,262,image-keyboard-response,1
true,2,0,1,1,false,z,true,false,0.0-2.0-0.3-0.27-3.27,0,0,0,81,false,stim,false,2,483,2,0,2,64709,task1,225136,false,false,265,image-keyboard-response,2
true,2,1,1,2,false,d,true,false,0.0-2.0-0.3-0.28-3.28,0,0,0,90,false,stim,false,0,21,2,0,0,64709,task1,226664,false,false,268,image-keyboard-response,3
true,2,1,1,1,true,z,false,true,0.0-2.0-0.3-0.29-3.29,0,0,0,90,false,stim,false,2,431,2,0,1,64709,task1,228601,false,false,271,image-keyboard-response,4
true,2,2,1,1,false,z,false,false,0.0-2.0-0.3-0.30-3.30,0,0,0,68,false,stim,true,2,515,2,0,1,64709,task1,230624,false,false,274,image-keyboard-response,5
true,2,1,1,1,true,z,false,true,0.0-2.0-0.3-0.31-3.31,0,0,0,90,false,stim,false,2,467,2,0,2,64709,task1,232595,false,false,277,image-keyboard-response,6
true,2,1,1,2,false,d,true,false,0.0-2.0-0.3-0.32-3.32,0,0,0,90,false,stim,false,0,497,2,0,0,64709,task1,234604,false,false,280,image-keyboard-response,7
true,2,0,1,1,false,z,true,false,0.0-2.0-0.3-0.33-3.33,0,0,0,81,false,stim,false,2,412,2,0,1,64709,task1,236527,false,false,283,image-keyboard-response,8
true,2,1,1,1,true,z,false,false,0.0-2.0-0.3-0.34-3.34,0,0,0,90,false,stim,false,2,433,2,0,2,64709,task1,238463,false,true,286,image-keyboard-response,9
true,2,1,1,2,false,d,true,false,0.0-2.0-0.3-0.35-3.35,0,0,0,90,false,stim,false,0,576,2,0,0,64709,task1,240542,false,false,289,image-keyboard-response,10
true,2,2,1,2,true,d,false,false,0.0-2.0-0.4-0.36-3.36,0,0,0,68,false,stim,false,0,114,2,0,0,64709,task1,242161,false,true,292,image-keyboard-response,11
true,2,2,1,1,false,z,false,false,0.0-2.0-0.4-0.37-3.37,0,0,0,68,false,stim,true,2,651,2,0,2,64709,task1,244315,false,false,295,image-keyboard-response,12
true,2,2,1,1,false,z,false,false,0.0-2.0-0.4-0.38-3.38,0,0,0,68,false,stim,true,2,761,2,0,1,64709,task1,246584,false,false,298,image-keyboard-response,13
true,2,0,1,2,false,d,false,false,0.0-2.0-0.4-0.39-3.39,0,0,0,81,false,stim,true,0,445,2,0,0,64709,task1,248538,false,false,301,image-keyboard-response,14
true,2,0,1,1,false,z,true,false,0.0-2.0-0.4-0.40-3.40,0,0,0,81,false,stim,false,2,909,2,0,1,64709,task1,250956,false,false,304,image-keyboard-response,15
true,2,1,1,1,true,z,false,true,0.0-2.0-0.4-0.41-3.41,0,0,0,90,false,stim,false,2,827,2,0,1,64709,task1,253295,false,false,307,image-keyboard-response,16
true,2,0,1,2,false,d,false,true,0.0-2.0-0.4-0.42-3.42,0,0,0,81,false,stim,true,0,242,2,0,0,64709,task1,255040,false,true,310,image-keyboard-response,17
true,2,1,1,1,true,z,false,true,0.0-2.0-0.4-0.43-3.43,0,0,0,90,false,stim,false,2,755,2,0,2,64709,task1,257300,false,false,313,image-keyboard-response,18
true,2,0,1,1,false,z,true,false,0.0-2.0-0.4-0.44-3.44,0,0,0,81,false,stim,false,2,666,2,0,2,64709,task1,259476,false,false,316,image-keyboard-response,19
true,2,0,1,1,false,z,true,false,0.0-2.0-0.5-0.45-3.45,0,0,0,81,false,stim,false,2,529,2,0,1,64709,task1,261513,false,false,319,image-keyboard-response,20
true,2,1,1,1,true,z,false,true,0.0-2.0-0.5-0.46-3.46,0,0,0,90,false,stim,false,2,1505,2,0,1,64709,task1,264525,false,false,322,image-keyboard-response,21
true,2,0,1,1,false,z,true,false,0.0-2.0-0.5-0.47-3.47,0,0,0,81,false,stim,false,2,685,2,0,2,64709,task1,266716,false,false,325,image-keyboard-response,22
true,2,2,1,2,true,d,false,true,0.0-2.0-0.5-0.48-3.48,0,0,0,68,false,stim,false,0,640,2,0,0,64709,task1,268865,false,false,328,image-keyboard-response,23
true,2,0,1,2,false,d,false,false,0.0-2.0-0.5-0.49-3.49,0,0,0,81,false,stim,true,0,424,2,0,0,64709,task1,270794,false,false,331,image-keyboard-response,24
true,2,1,1,1,true,z,false,true,0.0-2.0-0.5-0.50-3.50,0,0,0,90,false,stim,false,2,429,2,0,2,64709,task1,272730,false,false,334,image-keyboard-response,25
true,2,0,1,1,false,z,true,false,0.0-2.0-0.5-0.51-3.51,0,0,0,81,false,stim,false,2,401,2,0,2,64709,task1,274634,false,false,337,image-keyboard-response,26
true,2,1,1,1,true,z,false,true,0.0-2.0-0.5-0.52-3.52,0,0,0,90,false,stim,false,2,518,2,0,1,64709,task1,276658,false,false,340,image-keyboard-response,27
true,2,2,1,2,true,d,false,true,0.0-2.0-0.5-0.53-3.53,0,0,0,68,false,stim,false,0,541,2,0,0,64709,task1,278707,false,false,343,image-keyboard-response,28
true,2,2,1,1,false,z,false,false,0.0-2.0-0.6-0.54-3.54,0,0,0,68,false,stim,true,2,608,2,0,1,64709,task1,280826,false,false,346,image-keyboard-response,29
true,2,0,1,1,false,z,true,true,0.0-2.0-0.6-0.55-3.55,0,0,0,81,false,stim,false,2,747,2,0,1,64709,task1,283079,false,true,349,image-keyboard-response,30
true,2,1,1,2,false,d,true,false,0.0-2.0-0.6-0.56-3.56,0,0,0,90,false,stim,false,0,309,2,0,0,64709,task1,284894,false,false,352,image-keyboard-response,31
true,2,2,1,2,true,d,false,true,0.0-2.0-0.6-0.57-3.57,0,0,0,68,false,stim,false,0,457,2,0,0,64709,task1,286858,false,false,355,image-keyboard-response,32
true,2,2,1,1,false,z,false,false,0.0-2.0-0.6-0.58-3.58,0,0,0,68,false,stim,true,2,432,2,0,2,64709,task1,288800,false,false,358,image-keyboard-response,33
true,2,0,1,1,false,z,true,false,0.0-2.0-0.6-0.59-3.59,0,0,0,81,false,stim,false,2,387,2,0,1,64709,task1,290691,false,false,361,image-keyboard-response,34
true,2,1,1,2,false,d,true,false,0.0-2.0-0.6-0.60-3.60,0,0,0,90,false,stim,false,0,807,2,0,0,64709,task1,293009,false,false,364,image-keyboard-response,35
true,2,0,1,1,false,z,true,true,0.0-2.0-0.6-0.61-3.61,0,0,0,81,false,stim,false,2,386,2,0,2,64709,task1,294902,false,true,367,image-keyboard-response,36
true,2,1,1,1,true,z,false,true,0.0-2.0-0.6-0.62-3.62,0,0,0,90,false,stim,false,2,630,2,0,2,64709,task1,297035,false,false,370,image-keyboard-response,37
true,2,2,1,2,true,d,false,true,0.0-2.0-0.7-0.63-3.63,0,0,0,68,false,stim,false,0,1090,2,0,0,64709,task1,299636,false,false,373,image-keyboard-response,38
true,2,2,1,2,true,d,false,true,0.0-2.0-0.7-0.64-3.64,0,0,0,68,false,stim,false,0,665,2,0,0,64709,task1,301807,false,false,376,image-keyboard-response,39
true,2,0,1,1,false,z,true,false,0.0-2.0-0.7-0.65-3.65,0,0,0,81,false,stim,false,2,740,2,0,1,64709,task1,304056,false,false,379,image-keyboard-response,40
true,2,1,1,1,true,z,false,true,0.0-2.0-0.7-0.66-3.66,0,0,0,90,false,stim,false,2,949,2,0,2,64709,task1,306512,false,false,382,image-keyboard-response,41
true,2,2,1,2,true,d,false,true,0.0-2.0-0.7-0.67-3.67,0,0,0,68,false,stim,false,0,679,2,0,0,64709,task1,308695,false,false,385,image-keyboard-response,42
true,2,2,1,1,false,z,false,false,0.0-2.0-0.7-0.68-3.68,0,0,0,68,false,stim,true,2,561,2,0,2,64709,task1,310765,false,false,388,image-keyboard-response,43
true,2,0,1,1,false,z,true,false,0.0-2.0-0.7-0.69-3.69,0,0,0,81,false,stim,false,2,709,2,0,1,64709,task1,312979,false,false,391,image-keyboard-response,44
true,3,0,1,0,true,q,false,true,0.0-2.0-0.7-0.70-3.70,0,0,0,81,true,stim,false,1,419,2,0,1,64709,task1,314905,false,false,394,image-keyboard-response,1
true,3,2,1,0,false,q,true,false,0.0-2.0-0.7-0.71-3.71,0,0,0,68,false,stim,false,1,651,2,0,2,64709,task1,317067,false,false,397,image-keyboard-response,2
true,3,0,1,0,true,q,false,true,0.0-2.0-0.8-0.72-3.72,0,0,0,81,false,stim,false,1,452,2,0,1,64709,task1,319027,false,false,400,image-keyboard-response,3
true,3,1,1,0,false,q,false,false,0.0-2.0-0.8-0.73-3.73,0,0,0,90,false,stim,true,1,796,2,0,2,64709,task1,321334,false,false,403,image-keyboard-response,4
true,3,0,1,1,false,z,true,false,0.0-2.0-0.8-0.74-3.74,0,0,0,81,false,stim,false,2,881,2,0,0,64709,task1,323724,false,false,406,image-keyboard-response,5
true,3,2,1,1,false,z,false,false,0.0-2.0-0.8-0.75-3.75,0,0,0,68,false,stim,true,2,487,2,0,0,64709,task1,325718,false,false,409,image-keyboard-response,6
true,3,0,1,1,false,z,true,true,0.0-2.0-0.8-0.76-3.76,0,0,0,81,false,stim,false,2,961,2,0,0,64709,task1,328183,false,true,412,image-keyboard-response,7
true,3,1,1,0,false,q,false,false,0.0-2.0-0.8-0.77-3.77,0,0,0,90,false,stim,true,1,944,2,0,1,64709,task1,330638,false,false,415,image-keyboard-response,8
true,3,0,1,0,true,q,false,false,0.0-2.0-0.8-0.78-3.78,0,0,0,81,false,stim,false,1,422,2,0,1,64709,task1,332570,false,true,418,image-keyboard-response,9
true,3,2,1,0,false,q,true,false,0.0-2.0-0.8-0.79-3.79,0,0,0,68,false,stim,false,1,493,2,0,2,64709,task1,334574,false,false,421,image-keyboard-response,10
true,3,0,1,0,true,q,false,true,0.0-2.0-0.8-0.80-3.80,0,0,0,81,false,stim,false,1,363,2,0,2,64709,task1,336444,false,false,424,image-keyboard-response,11
true,3,0,1,0,true,q,false,true,0.0-2.0-0.9-0.81-3.81,0,0,0,81,false,stim,false,1,892,2,0,2,64709,task1,338848,false,false,427,image-keyboard-response,12
true,3,1,1,0,false,q,false,false,0.0-2.0-0.9-0.82-3.82,0,0,0,90,false,stim,true,1,473,2,0,1,64709,task1,340829,false,false,430,image-keyboard-response,13
true,3,0,1,1,false,z,true,false,0.0-2.0-0.9-0.83-3.83,0,0,0,81,false,stim,false,2,468,2,0,0,64709,task1,342806,false,false,433,image-keyboard-response,14
true,3,1,1,0,false,q,false,false,0.0-2.0-0.9-0.84-3.84,0,0,0,90,false,stim,true,1,557,2,0,2,64709,task1,344871,false,false,436,image-keyboard-response,15
true,3,2,1,0,false,q,true,false,0.0-2.0-0.9-0.85-3.85,0,0,0,68,false,stim,false,1,623,2,0,1,64709,task1,347003,false,false,439,image-keyboard-response,16
true,3,2,1,1,false,z,false,false,0.0-2.0-0.9-0.86-3.86,0,0,0,68,false,stim,true,2,469,2,0,0,64709,task1,348973,false,false,442,image-keyboard-response,17
true,3,0,1,0,true,q,false,true,0.0-2.0-0.9-0.87-3.87,0,0,0,81,false,stim,false,1,174,2,0,1,64709,task1,350654,false,false,445,image-keyboard-response,18
true,3,2,1,0,false,q,true,false,0.0-2.0-0.9-0.88-3.88,0,0,0,68,false,stim,false,1,136,2,0,2,64709,task1,352298,false,false,448,image-keyboard-response,19
true,3,2,1,1,false,z,false,false,0.0-2.0-0.9-0.89-3.89,0,0,0,68,false,stim,true,2,454,2,0,0,64709,task1,354257,false,false,451,image-keyboard-response,20
true,3,1,1,1,true,z,false,true,0.0-2.0-0.10-0.90-3.90,0,0,0,90,false,stim,false,2,513,2,0,0,64709,task1,356274,false,false,454,image-keyboard-response,21
true,3,0,1,0,true,q,false,true,0.0-2.0-0.10-0.91-3.91,0,0,0,81,false,stim,false,1,361,2,0,2,64709,task1,358142,false,false,457,image-keyboard-response,22
true,3,1,1,0,false,q,false,true,0.0-2.0-0.10-0.92-3.92,0,0,0,90,false,stim,true,1,526,2,0,1,64709,task1,360171,false,true,460,image-keyboard-response,23
true,3,1,1,0,false,q,false,false,0.0-2.0-0.10-0.93-3.93,0,0,0,90,false,stim,true,1,323,2,0,2,64709,task1,362005,false,false,463,image-keyboard-response,24
true,3,0,1,1,false,z,true,false,0.0-2.0-0.10-0.94-3.94,0,0,0,81,false,stim,false,2,497,2,0,0,64709,task1,364010,false,false,466,image-keyboard-response,25
true,3,1,1,0,false,q,false,false,0.0-2.0-0.10-0.95-3.95,0,0,0,90,false,stim,true,1,791,2,0,2,64709,task1,366305,false,false,469,image-keyboard-response,26
true,3,0,1,0,true,q,false,true,0.0-2.0-0.10-0.96-3.96,0,0,0,81,false,stim,false,1,534,2,0,1,64709,task1,368348,false,false,472,image-keyboard-response,27
true,3,1,1,0,false,q,false,false,0.0-2.0-0.10-0.97-3.97,0,0,0,90,false,stim,true,1,1287,2,0,1,64709,task1,371141,false,false,475,image-keyboard-response,28
true,3,2,1,1,false,z,false,false,0.0-2.0-0.10-0.98-3.98,0,0,0,68,false,stim,true,2,491,2,0,0,64709,task1,373140,false,false,478,image-keyboard-response,29
true,3,0,1,0,true,q,false,true,0.0-2.0-0.11-0.99-3.99,0,0,0,81,false,stim,false,1,453,2,0,1,64709,task1,375102,false,false,481,image-keyboard-response,30
true,3,0,1,0,true,q,false,true,0.0-2.0-0.11-0.100-3.100,0,0,0,81,false,stim,false,1,441,2,0,2,64709,task1,377053,false,false,484,image-keyboard-response,31
true,3,2,1,0,false,q,true,false,0.0-2.0-0.11-0.101-3.101,0,0,0,68,false,stim,false,1,491,2,0,2,64709,task1,379051,false,false,487,image-keyboard-response,32
true,3,1,1,1,true,z,false,false,0.0-2.0-0.11-0.102-3.102,0,0,0,90,false,stim,false,2,850,2,0,0,64709,task1,381408,false,true,490,image-keyboard-response,33
true,3,0,1,0,true,q,false,true,0.0-2.0-0.11-0.103-3.103,0,0,0,81,false,stim,false,1,494,2,0,1,64709,task1,383407,false,false,493,image-keyboard-response,34
true,3,1,1,1,true,z,false,true,0.0-2.0-0.11-0.104-3.104,0,0,0,90,false,stim,false,2,858,2,0,0,64709,task1,385773,false,false,496,image-keyboard-response,35
true,3,0,1,1,false,z,true,false,0.0-2.0-0.11-0.105-3.105,0,0,0,81,false,stim,false,2,374,2,0,0,64709,task1,387653,false,false,499,image-keyboard-response,36
true,3,1,1,0,false,q,false,false,0.0-2.0-0.11-0.106-3.106,0,0,0,90,false,stim,true,1,437,2,0,2,64709,task1,389599,false,false,502,image-keyboard-response,37
true,3,2,1,0,false,q,true,false,0.0-2.0-0.11-0.107-3.107,0,0,0,68,false,stim,false,1,1385,2,0,1,64709,task1,392495,false,false,505,image-keyboard-response,38
true,3,0,1,0,true,q,false,true,0.0-2.0-0.12-0.108-3.108,0,0,0,81,false,stim,false,1,352,2,0,2,64709,task1,394353,false,false,508,image-keyboard-response,39
true,3,1,1,1,true,z,false,true,0.0-2.0-0.12-0.109-3.109,0,0,0,90,false,stim,false,2,788,2,0,0,64709,task1,396645,false,false,511,image-keyboard-response,40
true,3,0,1,0,true,q,false,true,0.0-2.0-0.12-0.110-3.110,0,0,0,81,false,stim,false,1,548,2,0,1,64709,task1,398703,false,false,514,image-keyboard-response,41
true,4,1,2,1,true,z,false,true,0.0-2.0-0.12-0.111-3.111,0,0,0,90,true,stim,false,0,480,2,0,2,64709,task1,400692,false,false,517,image-keyboard-response,1
true,4,2,2,2,true,d,false,true,0.0-2.0-0.12-0.112-3.112,0,0,0,68,false,stim,false,1,470,2,0,0,64709,task1,402668,false,false,520,image-keyboard-response,2
true,4,0,2,2,false,d,true,false,0.0-2.0-0.12-0.113-3.113,0,0,0,81,false,stim,false,1,613,2,0,0,64709,task1,404790,false,false,523,image-keyboard-response,3
true,4,1,2,1,true,z,false,true,0.0-2.0-0.12-0.114-3.114,0,0,0,90,false,stim,false,0,396,2,0,2,64709,task1,406697,false,false,526,image-keyboard-response,4
true,4,1,2,1,true,z,false,true,0.0-2.0-0.12-0.115-3.115,0,0,0,90,false,stim,false,0,461,2,0,1,64709,task1,408663,false,false,529,image-keyboard-response,5
true,4,1,2,1,true,z,false,true,0.0-2.0-0.12-0.116-3.116,0,0,0,90,false,stim,false,0,810,2,0,1,64709,task1,410978,false,false,532,image-keyboard-response,6
true,4,0,2,2,false,d,true,false,0.0-2.0-0.13-0.117-3.117,0,0,0,81,false,stim,false,1,718,2,0,0,64709,task1,413207,false,false,535,image-keyboard-response,7
true,4,1,2,1,true,z,false,true,0.0-2.0-0.13-0.118-3.118,0,0,0,90,false,stim,false,0,462,2,0,2,64709,task1,415178,false,false,538,image-keyboard-response,8
true,4,2,2,1,false,z,true,false,0.0-2.0-0.13-0.119-3.119,0,0,0,68,false,stim,false,0,561,2,0,2,64709,task1,417250,false,false,541,image-keyboard-response,9
true,4,0,2,1,false,z,false,false,0.0-2.0-0.13-0.120-3.120,0,0,0,81,false,stim,true,0,404,2,0,1,64709,task1,419163,false,false,544,image-keyboard-response,10
true,4,1,2,1,true,z,false,true,0.0-2.0-0.13-0.121-3.121,0,0,0,90,false,stim,false,0,484,2,0,1,64709,task1,421154,false,false,547,image-keyboard-response,11
true,4,2,2,2,true,d,false,true,0.0-2.0-0.13-0.122-3.122,0,0,0,68,false,stim,false,1,961,2,0,0,64709,task1,423625,false,false,550,image-keyboard-response,12
true,4,0,2,1,false,z,false,false,0.0-2.0-0.13-0.123-3.123,0,0,0,81,false,stim,true,0,634,2,0,1,64709,task1,425764,false,false,553,image-keyboard-response,13
true,4,1,2,2,false,d,false,false,0.0-2.0-0.13-0.124-3.124,0,0,0,90,false,stim,true,1,518,2,0,0,64709,task1,427791,false,false,556,image-keyboard-response,14
true,4,2,2,1,false,z,true,true,0.0-2.0-0.13-0.125-3.125,0,0,0,68,false,stim,false,0,486,2,0,2,64709,task1,429785,false,true,559,image-keyboard-response,15
true,4,2,2,1,false,z,true,true,0.0-2.0-0.14-0.126-3.126,0,0,0,68,false,stim,false,0,489,2,0,1,64709,task1,431778,false,true,562,image-keyboard-response,16
true,4,0,2,2,false,d,true,false,0.0-2.0-0.14-0.127-3.127,0,0,0,81,false,stim,false,1,404,2,0,0,64709,task1,433686,false,false,565,image-keyboard-response,17
true,4,2,2,2,true,d,false,true,0.0-2.0-0.14-0.128-3.128,0,0,0,68,false,stim,false,1,506,2,0,0,64709,task1,435700,false,false,568,image-keyboard-response,18
true,4,2,2,1,false,z,true,false,0.0-2.0-0.14-0.129-3.129,0,0,0,68,false,stim,false,0,790,2,0,1,64709,task1,437995,false,false,571,image-keyboard-response,19
true,4,1,2,1,true,z,false,true,0.0-2.0-0.14-0.130-3.130,0,0,0,90,false,stim,false,0,951,2,0,2,64709,task1,440454,false,false,574,image-keyboard-response,20
true,4,1,2,1,true,z,false,true,0.0-2.0-0.14-0.131-3.131,0,0,0,90,false,stim,false,0,480,2,0,2,64709,task1,442439,false,false,577,image-keyboard-response,21
true,4,0,2,1,false,z,false,true,0.0-2.0-0.14-0.132-3.132,0,0,0,81,false,stim,true,0,834,2,0,1,64709,task1,444780,false,true,580,image-keyboard-response,22
true,4,1,2,1,true,z,false,false,0.0-2.0-0.14-0.133-3.133,0,0,0,90,false,stim,false,0,1138,2,0,2,64709,task1,447427,false,true,583,image-keyboard-response,23
true,4,2,2,2,true,d,false,true,0.0-2.0-0.14-0.134-3.134,0,0,0,68,false,stim,false,1,620,2,0,0,64709,task1,449552,false,false,586,image-keyboard-response,24
true,4,0,2,1,false,z,false,false,0.0-2.0-0.15-0.135-3.135,0,0,0,81,false,stim,true,0,421,2,0,1,64709,task1,451482,false,false,589,image-keyboard-response,25
true,4,1,2,2,false,d,false,false,0.0-2.0-0.15-0.136-3.136,0,0,0,90,false,stim,true,1,474,2,0,0,64709,task1,453460,false,false,592,image-keyboard-response,26
true,4,0,2,2,false,d,true,false,0.0-2.0-0.15-0.137-3.137,0,0,0,81,false,stim,false,1,525,2,0,0,64709,task1,455491,false,false,595,image-keyboard-response,27
true,4,1,2,1,true,z,false,true,0.0-2.0-0.15-0.138-3.138,0,0,0,90,false,stim,false,0,477,2,0,1,64709,task1,457470,false,false,598,image-keyboard-response,28
true,4,2,2,1,false,z,true,false,0.0-2.0-0.15-0.139-3.139,0,0,0,68,false,stim,false,0,452,2,0,2,64709,task1,459431,false,false,601,image-keyboard-response,29
true,4,1,2,1,true,z,false,true,0.0-2.0-0.15-0.140-3.140,0,0,0,90,false,stim,false,0,495,2,0,2,64709,task1,461435,false,false,604,image-keyboard-response,30
true,4,0,2,2,false,d,true,false,0.0-2.0-0.15-0.141-3.141,0,0,0,81,false,stim,false,1,478,2,0,0,64709,task1,463425,false,false,607,image-keyboard-response,31
true,4,1,2,1,true,z,false,true,0.0-2.0-0.15-0.142-3.142,0,0,0,90,false,stim,false,0,416,2,0,2,64709,task1,465350,false,false,610,image-keyboard-response,32
true,4,1,2,1,true,z,false,false,0.0-2.0-0.15-0.143-3.143,0,0,0,90,false,stim,false,0,155,2,0,1,64709,task1,467016,false,true,613,image-keyboard-response,33
true,4,1,2,2,false,d,false,false,0.0-2.0-0.16-0.144-3.144,0,0,0,90,false,stim,true,1,874,2,0,0,64709,task1,469398,false,false,616,image-keyboard-response,34
true,4,1,2,1,true,z,false,false,0.0-2.0-0.16-0.145-3.145,0,0,0,90,false,stim,false,0,751,2,0,2,64709,task1,471655,false,true,619,image-keyboard-response,35
true,4,1,2,1,true,z,false,true,0.0-2.0-0.16-0.146-3.146,0,0,0,90,false,stim,false,0,996,2,0,1,64709,task1,474153,false,false,622,image-keyboard-response,36
true,4,2,2,1,false,z,true,false,0.0-2.0-0.16-0.147-3.147,0,0,0,68,false,stim,false,0,540,2,0,1,64709,task1,476201,false,false,625,image-keyboard-response,37
true,4,0,2,1,false,z,false,false,0.0-2.0-0.16-0.148-3.148,0,0,0,81,false,stim,true,0,836,2,0,2,64709,task1,478542,false,false,628,image-keyboard-response,38
true,4,1,2,1,true,z,false,true,0.0-2.0-0.16-0.149-3.149,0,0,0,90,false,stim,false,0,856,2,0,2,64709,task1,480902,false,false,631,image-keyboard-response,39
true,5,2,2,0,false,q,true,false,0.0-2.0-0.16-0.150-3.150,0,0,0,68,true,stim,false,1,1102,2,0,1,64709,task1,483511,false,false,634,image-keyboard-response,1
true,5,0,2,1,false,z,true,false,0.0-2.0-0.16-0.151-3.151,0,0,0,81,false,stim,false,2,1015,2,0,0,64709,task1,486033,false,false,637,image-keyboard-response,2
true,5,1,2,1,true,z,false,true,0.0-2.0-0.16-0.152-3.152,0,0,0,90,false,stim,false,2,821,2,0,0,64709,task1,488364,false,false,640,image-keyboard-response,3
true,5,1,2,0,false,q,false,false,0.0-2.0-0.17-0.153-3.153,0,0,0,90,false,stim,true,1,769,2,0,1,64709,task1,490640,false,false,643,image-keyboard-response,4
true,5,1,2,1,true,z,false,true,0.0-2.0-0.17-0.154-3.154,0,0,0,90,false,stim,false,2,568,2,0,0,64709,task1,492717,false,false,646,image-keyboard-response,5
true,5,1,2,1,true,z,false,true,0.0-2.0-0.17-0.155-3.155,0,0,0,90,false,stim,false,2,853,2,0,0,64709,task1,495081,false,false,649,image-keyboard-response,6
true,5,0,2,0,true,q,false,true,0.0-2.0-0.17-0.156-3.156,0,0,0,81,false,stim,false,1,588,2,0,2,64709,task1,497176,false,false,652,image-keyboard-response,7
true,5,0,2,0,true,q,false,true,0.0-2.0-0.17-0.157-3.157,0,0,0,81,false,stim,false,1,786,2,0,2,64709,task1,499468,false,false,655,image-keyboard-response,8
true,5,0,2,0,true,q,false,true,0.0-2.0-0.17-0.158-3.158,0,0,0,81,false,stim,false,1,944,2,0,2,64709,task1,501923,false,false,658,image-keyboard-response,9
true,5,1,2,1,true,z,false,true,0.0-2.0-0.17-0.159-3.159,0,0,0,90,false,stim,false,2,887,2,0,0,64709,task1,504322,false,false,661,image-keyboard-response,10
true,5,2,2,0,false,q,true,false,0.0-2.0-0.17-0.160-3.160,0,0,0,68,false,stim,false,1,995,2,0,1,64709,task1,506819,false,false,664,image-keyboard-response,11
true,5,1,2,0,false,q,false,false,0.0-2.0-0.17-0.161-3.161,0,0,0,90,false,stim,true,1,707,2,0,1,64709,task1,509036,false,false,667,image-keyboard-response,12
true,5,0,2,0,true,q,false,true,0.0-2.0-0.18-0.162-3.162,0,0,0,81,false,stim,false,1,692,2,0,1,64709,task1,511232,false,false,670,image-keyboard-response,13
true,5,1,2,1,true,z,false,true,0.0-2.0-0.18-0.163-3.163,0,0,0,90,false,stim,false,2,706,2,0,0,64709,task1,513443,false,false,673,image-keyboard-response,14
true,5,2,2,0,false,q,true,false,0.0-2.0-0.18-0.164-3.164,0,0,0,68,false,stim,false,1,910,2,0,2,64709,task1,515857,false,false,676,image-keyboard-response,15
true,5,0,2,0,true,q,false,true,0.0-2.0-0.18-0.165-3.165,0,0,0,81,false,stim,false,1,493,2,0,1,64709,task1,517855,false,false,679,image-keyboard-response,16
true,5,1,2,1,true,z,false,true,0.0-2.0-0.18-0.166-3.166,0,0,0,90,false,stim,false,2,462,2,0,0,64709,task1,519821,false,false,682,image-keyboard-response,17
true,5,0,2,0,true,q,false,true,0.0-2.0-0.18-0.167-3.167,0,0,0,81,false,stim,false,1,702,2,0,1,64709,task1,522031,false,false,685,image-keyboard-response,18
true,5,0,2,0,true,q,false,true,0.0-2.0-0.18-0.168-3.168,0,0,0,81,false,stim,false,1,1126,2,0,2,64709,task1,524664,false,false,688,image-keyboard-response,19
true,5,0,2,0,true,q,false,true,0.0-2.0-0.18-0.169-3.169,0,0,0,81,false,stim,false,1,990,2,0,2,64709,task1,527161,false,false,691,image-keyboard-response,20
true,5,1,2,1,true,z,false,true,0.0-2.0-0.18-0.170-3.170,0,0,0,90,false,stim,false,2,820,2,0,0,64709,task1,529488,false,false,694,image-keyboard-response,21
true,5,1,2,1,true,z,false,false,0.0-2.0-0.19-0.171-3.171,0,0,0,90,false,stim,false,2,756,2,0,0,64709,task1,531750,false,true,697,image-keyboard-response,22
true,5,2,2,0,false,q,true,false,0.0-2.0-0.19-0.172-3.172,0,0,0,68,false,stim,false,1,1287,2,0,1,64709,task1,534545,false,false,700,image-keyboard-response,23
true,5,0,2,1,false,z,true,false,0.0-2.0-0.19-0.173-3.173,0,0,0,81,false,stim,false,2,458,2,0,0,64709,task1,536518,false,false,703,image-keyboard-response,24
true,5,1,2,1,true,z,false,true,0.0-2.0-0.19-0.174-3.174,0,0,0,90,false,stim,false,2,569,2,0,0,64709,task1,538591,false,false,706,image-keyboard-response,25
true,5,0,2,0,true,q,false,false,0.0-2.0-0.19-0.175-3.175,0,0,0,81,false,stim,false,1,1184,2,0,2,64709,task1,541286,false,true,709,image-keyboard-response,26
true,5,2,2,0,false,q,true,false,0.0-2.0-0.19-0.176-3.176,0,0,0,68,false,stim,false,1,1234,2,0,2,64709,task1,544025,false,false,712,image-keyboard-response,27
true,5,0,2,0,true,q,false,false,0.0-2.0-0.19-0.177-3.177,0,0,0,81,false,stim,false,1,935,2,0,1,64709,task1,546464,false,true,715,image-keyboard-response,28
true,5,1,2,0,false,q,false,false,0.0-2.0-0.19-0.178-3.178,0,0,0,90,false,stim,true,1,1066,2,0,1,64709,task1,549034,false,false,718,image-keyboard-response,29
true,5,0,2,0,true,q,false,true,0.0-2.0-0.19-0.179-3.179,0,0,0,81,false,stim,false,1,483,2,0,2,64709,task1,551026,false,false,721,image-keyboard-response,30
true,5,0,2,0,true,q,false,true,0.0-2.0-0.20-0.180-3.180,0,0,0,81,false,stim,false,1,858,2,0,2,64709,task1,553388,false,false,724,image-keyboard-response,31
true,5,1,2,0,false,q,false,false,0.0-2.0-0.20-0.181-3.181,0,0,0,90,false,stim,true,1,1270,2,0,1,64709,task1,556163,false,false,727,image-keyboard-response,32
true,5,2,2,0,false,q,true,false,0.0-2.0-0.20-0.182-3.182,0,0,0,68,false,stim,false,1,1229,2,0,2,64709,task1,558903,false,false,730,image-keyboard-response,33
true,5,0,2,1,false,z,true,false,0.0-2.0-0.20-0.183-3.183,0,0,0,81,false,stim,false,2,527,2,0,0,64709,task1,560935,false,false,733,image-keyboard-response,34
true,5,1,2,0,false,q,false,false,0.0-2.0-0.20-0.184-3.184,0,0,0,90,false,stim,true,1,686,2,0,2,64709,task1,563125,false,false,736,image-keyboard-response,35
true,5,2,2,0,false,q,true,true,0.0-2.0-0.20-0.185-3.185,0,0,0,68,false,stim,false,1,464,2,0,1,64709,task1,565093,false,true,739,image-keyboard-response,36
true,5,0,2,1,false,z,true,false,0.0-2.0-0.20-0.186-3.186,0,0,0,81,false,stim,false,2,796,2,0,0,64709,task1,567392,false,false,742,image-keyboard-response,37
true,5,2,2,1,false,z,false,false,0.0-2.0-0.20-0.187-3.187,0,0,0,68,false,stim,true,2,893,2,0,0,64709,task1,569791,false,false,745,image-keyboard-response,38
true,5,1,2,0,false,q,false,false,0.0-2.0-0.20-0.188-3.188,0,0,0,90,false,stim,true,1,938,2,0,1,64709,task1,572240,false,false,748,image-keyboard-response,39
true,5,0,2,1,false,z,true,false,0.0-2.0-0.21-0.189-3.189,0,0,0,81,false,stim,false,2,493,2,0,0,64709,task1,574245,false,false,751,image-keyboard-response,40
true,6,2,1,0,false,q,true,true,0.0-2.0-0.21-0.190-3.190,0,0,0,68,true,stim,false,1,480,2,0,0,64709,task1,576231,false,true,754,image-keyboard-response,1
true,6,2,1,0,false,q,true,true,0.0-2.0-0.21-0.191-3.191,0,0,0,68,false,stim,false,1,768,2,0,0,64709,task1,578508,false,true,757,image-keyboard-response,2
true,6,0,1,1,false,z,false,false,0.0-2.0-0.21-0.192-3.192,0,0,0,81,false,stim,true,0,730,2,0,1,64709,task1,580748,false,false,760,image-keyboard-response,3
true,6,1,1,1,true,z,false,true,0.0-2.0-0.21-0.193-3.193,0,0,0,90,false,stim,false,0,950,2,0,1,64709,task1,583203,false,false,763,image-keyboard-response,4
true,6,1,1,1,true,z,false,true,0.0-2.0-0.21-0.194-3.194,0,0,0,90,false,stim,false,0,999,2,0,1,64709,task1,585705,false,false,766,image-keyboard-response,5
true,6,0,1,2,false,d,false,false,0.0-2.0-0.21-0.195-3.195,0,0,0,81,false,stim,true,0,788,2,0,2,64709,task1,587998,false,false,769,image-keyboard-response,6
true,6,2,1,2,true,d,false,true,0.0-2.0-0.21-0.196-3.196,0,0,0,68,false,stim,false,0,1378,2,0,2,64709,task1,590887,false,false,772,image-keyboard-response,7
true,6,2,1,2,true,d,false,true,0.0-2.0-0.21-0.197-3.197,0,0,0,68,false,stim,false,0,535,2,0,2,64709,task1,592929,false,false,775,image-keyboard-response,8
true,6,2,1,2,true,d,false,true,0.0-2.0-0.22-0.198-3.198,0,0,0,68,false,stim,false,0,495,2,0,2,64709,task1,594930,false,false,778,image-keyboard-response,9
true,6,0,1,0,true,q,false,true,0.0-2.0-0.22-0.199-3.199,0,0,0,81,false,stim,false,1,729,2,0,0,64709,task1,597169,false,false,781,image-keyboard-response,10
true,6,2,1,2,true,d,false,true,0.0-2.0-0.22-0.200-3.200,0,0,0,68,false,stim,false,0,1124,2,0,2,64709,task1,599799,false,false,784,image-keyboard-response,11
true,6,2,1,1,false,z,true,false,0.0-2.0-0.22-0.201-3.201,0,0,0,68,false,stim,false,0,1652,2,0,1,64709,task1,602957,false,false,787,image-keyboard-response,12
true,6,1,1,1,true,z,false,true,0.0-2.0-0.22-0.202-3.202,0,0,0,90,false,stim,false,0,808,2,0,1,64709,task1,605275,false,false,790,image-keyboard-response,13
true,6,0,1,0,true,q,false,true,0.0-2.0-0.22-0.203-3.203,0,0,0,81,false,stim,false,1,581,2,0,0,64709,task1,607360,false,false,793,image-keyboard-response,14
true,6,1,1,1,true,z,false,true,0.0-2.0-0.22-0.204-3.204,0,0,0,90,false,stim,false,0,961,2,0,1,64709,task1,609825,false,false,796,image-keyboard-response,15
true,6,0,1,0,true,q,false,true,0.0-2.0-0.22-0.205-3.205,0,0,0,81,false,stim,false,1,820,2,0,0,64709,task1,612154,false,false,799,image-keyboard-response,16
true,6,1,1,2,false,d,true,false,0.0-2.0-0.22-0.206-3.206,0,0,0,90,false,stim,false,0,728,2,0,2,64709,task1,614391,false,false,802,image-keyboard-response,17
true,6,2,1,2,true,d,false,false,0.0-2.0-0.23-0.207-3.207,0,0,0,68,false,stim,false,0,1211,2,0,2,64709,task1,617110,false,true,805,image-keyboard-response,18
true,6,0,1,2,false,d,false,false,0.0-2.0-0.23-0.208-3.208,0,0,0,81,false,stim,true,0,575,2,0,2,64709,task1,619190,false,false,808,image-keyboard-response,19
true,6,1,1,2,false,d,true,false,0.0-2.0-0.23-0.209-3.209,0,0,0,90,false,stim,false,0,858,2,0,2,64709,task1,621557,false,false,811,image-keyboard-response,20
true,6,1,1,1,true,z,false,true,0.0-2.0-0.23-0.210-3.210,0,0,0,90,false,stim,false,0,732,2,0,1,64709,task1,623794,false,false,814,image-keyboard-response,21
true,6,2,1,0,false,q,true,false,0.0-2.0-0.23-0.211-3.211,0,0,0,68,false,stim,false,1,951,2,0,0,64709,task1,626252,false,false,817,image-keyboard-response,22
true,6,0,1,0,true,q,false,true,0.0-2.0-0.23-0.212-3.212,0,0,0,81,false,stim,false,1,709,2,0,0,64709,task1,628470,false,false,820,image-keyboard-response,23
true,6,1,1,1,true,z,false,true,0.0-2.0-0.23-0.213-3.213,0,0,0,90,false,stim,false,0,475,2,0,1,64709,task1,630454,false,false,823,image-keyboard-response,24
true,6,1,1,1,true,z,false,true,0.0-2.0-0.23-0.214-3.214,0,0,0,90,false,stim,false,0,653,2,0,1,64709,task1,632613,false,false,826,image-keyboard-response,25
true,6,0,1,0,true,q,false,true,0.0-2.0-0.23-0.215-3.215,0,0,0,81,false,stim,false,1,1368,2,0,0,64709,task1,635486,false,false,829,image-keyboard-response,26
true,6,1,1,1,true,z,false,true,0.0-2.0-0.24-0.216-3.216,0,0,0,90,false,stim,false,0,593,2,0,1,64709,task1,637589,false,false,832,image-keyboard-response,27
true,6,0,1,0,true,q,false,true,0.0-2.0-0.24-0.217-3.217,0,0,0,81,false,stim,false,1,646,2,0,0,64709,task1,639741,false,false,835,image-keyboard-response,28
true,6,0,1,0,true,q,false,true,0.0-2.0-0.24-0.218-3.218,0,0,0,81,false,stim,false,1,634,2,0,0,64709,task1,641879,false,false,838,image-keyboard-response,29
true,6,2,1,2,true,d,false,true,0.0-2.0-0.24-0.219-3.219,0,0,0,68,false,stim,false,0,1084,2,0,2,64709,task1,644473,false,false,841,image-keyboard-response,30
true,6,1,1,1,true,z,false,false,0.0-2.0-0.24-0.220-3.220,0,0,0,90,false,stim,false,0,938,2,0,1,64709,task1,646919,false,true,844,image-keyboard-response,31
true,6,2,1,2,true,d,false,true,0.0-2.0-0.24-0.221-3.221,0,0,0,68,false,stim,false,0,1258,2,0,2,64709,task1,649680,false,false,847,image-keyboard-response,32
true,6,0,1,1,false,z,false,false,0.0-2.0-0.24-0.222-3.222,0,0,0,81,false,stim,true,0,681,2,0,1,64709,task1,651866,false,false,850,image-keyboard-response,33
true,6,2,1,2,true,d,false,true,0.0-2.0-0.24-0.223-3.223,0,0,0,68,false,stim,false,0,1375,2,0,2,64709,task1,654745,false,false,853,image-keyboard-response,34
true,6,1,1,0,false,q,false,false,0.0-2.0-0.24-0.224-3.224,0,0,0,90,false,stim,true,1,670,2,0,0,64709,task1,656918,false,false,856,image-keyboard-response,35
true,6,2,1,2,true,d,false,false,0.0-2.0-0.25-0.225-3.225,0,0,0,68,false,stim,false,0,1192,2,0,2,64709,task1,659619,false,true,859,image-keyboard-response,36
true,6,0,1,1,false,z,false,false,0.0-2.0-0.25-0.226-3.226,0,0,0,81,false,stim,true,0,526,2,0,1,64709,task1,661649,false,false,862,image-keyboard-response,37
true,6,2,1,0,false,q,true,false,0.0-2.0-0.25-0.227-3.227,0,0,0,68,false,stim,false,1,1143,2,0,0,64709,task1,664297,false,false,865,image-keyboard-response,38
true,6,1,1,2,false,d,true,false,0.0-2.0-0.25-0.228-3.228,0,0,0,90,false,stim,false,0,1134,2,0,2,64709,task1,666942,false,false,868,image-keyboard-response,39
true,6,0,1,0,true,q,false,true,0.0-2.0-0.25-0.229-3.229,0,0,0,81,false,stim,false,1,651,2,0,0,64709,task1,669106,false,false,871,image-keyboard-response,40
true,6,1,1,1,true,z,false,true,0.0-2.0-0.25-0.230-3.230,0,0,0,90,false,stim,false,0,825,2,0,1,64709,task1,671442,false,false,874,image-keyboard-response,41
true,6,2,1,2,true,d,false,true,0.0-2.0-0.25-0.231-3.231,0,0,0,68,false,stim,false,0,1296,2,0,2,64709,task1,674249,false,false,877,image-keyboard-response,42
true,6,1,1,1,true,z,false,true,0.0-2.0-0.25-0.232-3.232,0,0,0,90,false,stim,false,0,1161,2,0,1,64709,task1,676921,false,false,880,image-keyboard-response,43
true,6,0,1,0,true,q,false,true,0.0-2.0-0.25-0.233-3.233,0,0,0,81,false,stim,false,1,553,2,0,0,64709,task1,678985,false,false,883,image-keyboard-response,44
true,7,1,1,0,false,q,false,true,0.0-2.0-0.26-0.234-3.234,0,0,0,90,true,stim,true,1,874,2,0,1,64709,task1,681368,false,true,886,image-keyboard-response,1
true,7,1,1,1,true,z,false,true,0.0-2.0-0.26-0.235-3.235,0,0,0,90,false,stim,false,0,1029,2,0,0,64709,task1,683903,false,false,889,image-keyboard-response,2
true,7,2,1,1,false,z,false,false,0.0-2.0-0.26-0.236-3.236,0,0,0,68,false,stim,true,2,1095,2,0,2,64709,task1,686507,false,false,892,image-keyboard-response,3
true,7,0,1,1,false,z,true,false,0.0-2.0-0.26-0.237-3.237,0,0,0,81,false,stim,false,2,630,2,0,2,64709,task1,688647,false,false,895,image-keyboard-response,4
true,7,1,1,1,true,z,false,true,0.0-2.0-0.26-0.238-3.238,0,0,0,90,false,stim,false,0,539,2,0,0,64709,task1,690697,false,false,898,image-keyboard-response,5
true,7,1,1,1,true,z,false,true,0.0-2.0-0.26-0.239-3.239,0,0,0,90,false,stim,false,0,505,2,0,0,64709,task1,692710,false,false,901,image-keyboard-response,6
true,7,0,1,1,false,z,true,false,0.0-2.0-0.26-0.240-3.240,0,0,0,81,false,stim,false,2,787,2,0,2,64709,task1,695006,false,false,904,image-keyboard-response,7
true,7,0,1,0,true,q,false,true,0.0-2.0-0.26-0.241-3.241,0,0,0,81,false,stim,false,1,1135,2,0,1,64709,task1,697651,false,false,907,image-keyboard-response,8
true,7,0,1,0,true,q,false,true,0.0-2.0-0.26-0.242-3.242,0,0,0,81,false,stim,false,1,628,2,0,1,64709,task1,699790,false,false,910,image-keyboard-response,9
true,7,2,1,1,false,z,true,false,0.0-2.0-0.27-0.243-3.243,0,0,0,68,false,stim,false,0,1043,2,0,0,64709,task1,702346,false,false,913,image-keyboard-response,10
true,7,1,1,0,false,q,false,false,0.0-2.0-0.27-0.244-3.244,0,0,0,90,false,stim,true,1,811,2,0,1,64709,task1,704670,false,false,916,image-keyboard-response,11
true,7,0,1,0,true,q,false,true,0.0-2.0-0.27-0.245-3.245,0,0,0,81,false,stim,false,1,609,2,0,1,64709,task1,706787,false,false,919,image-keyboard-response,12
true,7,1,1,1,true,z,false,true,0.0-2.0-0.27-0.246-3.246,0,0,0,90,false,stim,false,2,605,2,0,2,64709,task1,708896,false,false,922,image-keyboard-response,13
true,7,2,1,1,false,z,true,false,0.0-2.0-0.27-0.247-3.247,0,0,0,68,false,stim,false,0,975,2,0,0,64709,task1,711379,false,false,925,image-keyboard-response,14
true,7,0,1,1,false,z,true,false,0.0-2.0-0.27-0.248-3.248,0,0,0,81,false,stim,false,2,416,2,0,2,64709,task1,713307,false,false,928,image-keyboard-response,15
true,7,1,1,1,true,z,false,true,0.0-2.0-0.27-0.249-3.249,0,0,0,90,false,stim,false,0,515,2,0,0,64709,task1,715331,false,false,931,image-keyboard-response,16
true,7,0,1,1,false,z,true,false,0.0-2.0-0.27-0.250-3.250,0,0,0,81,false,stim,false,2,482,2,0,2,64709,task1,717322,false,false,934,image-keyboard-response,17
true,7,1,1,0,false,q,false,false,0.0-2.0-0.27-0.251-3.251,0,0,0,90,false,stim,true,1,826,2,0,1,64709,task1,719655,false,false,937,image-keyboard-response,18
true,7,0,1,0,true,q,false,true,0.0-2.0-0.28-0.252-3.252,0,0,0,81,false,stim,false,1,564,2,0,1,64709,task1,721727,false,false,940,image-keyboard-response,19
true,7,0,1,0,true,q,false,true,0.0-2.0-0.28-0.253-3.253,0,0,0,81,false,stim,false,1,816,2,0,1,64709,task1,724055,false,false,943,image-keyboard-response,20
true,7,2,1,1,false,z,false,false,0.0-2.0-0.28-0.254-3.254,0,0,0,68,false,stim,true,2,1700,2,0,2,64709,task1,727261,false,false,946,image-keyboard-response,21
true,7,1,1,1,true,z,false,true,0.0-2.0-0.28-0.255-3.255,0,0,0,90,false,stim,false,0,1609,2,0,0,64709,task1,730380,false,false,949,image-keyboard-response,22
true,7,1,1,1,true,z,false,true,0.0-2.0-0.28-0.256-3.256,0,0,0,90,false,stim,false,2,972,2,0,2,64709,task1,732864,false,false,952,image-keyboard-response,23
true,7,0,1,1,false,z,false,false,0.0-2.0-0.28-0.257-3.257,0,0,0,81,false,stim,true,0,878,2,0,0,64709,task1,735249,false,false,955,image-keyboard-response,24
true,7,1,1,1,true,z,false,true,0.0-2.0-0.28-0.258-3.258,0,0,0,90,false,stim,false,2,651,2,0,2,64709,task1,737409,false,false,958,image-keyboard-response,25
true,7,1,1,1,true,z,false,true,0.0-2.0-0.28-0.259-3.259,0,0,0,90,false,stim,false,0,457,2,0,0,64709,task1,739374,false,false,961,image-keyboard-response,26
true,7,0,1,0,true,q,false,true,0.0-2.0-0.28-0.260-3.260,0,0,0,81,false,stim,false,1,795,2,0,1,64709,task1,741678,false,false,964,image-keyboard-response,27
true,7,0,1,0,true,q,false,true,0.0-2.0-0.29-0.261-3.261,0,0,0,81,false,stim,false,1,458,2,0,1,64709,task1,743645,false,false,967,image-keyboard-response,28
true,7,1,1,1,true,z,false,true,0.0-2.0-0.29-0.262-3.262,0,0,0,90,false,stim,false,2,860,2,0,2,64709,task1,746013,false,false,970,image-keyboard-response,29
true,7,1,1,1,true,z,false,true,0.0-2.0-0.29-0.263-3.263,0,0,0,90,false,stim,false,0,545,2,0,0,64709,task1,748070,false,false,973,image-keyboard-response,30
true,7,1,1,0,false,q,false,false,0.0-2.0-0.29-0.264-3.264,0,0,0,90,false,stim,true,1,1191,2,0,1,64709,task1,750767,false,false,976,image-keyboard-response,31
true,7,0,1,1,false,z,false,true,0.0-2.0-0.29-0.265-3.265,0,0,0,81,false,stim,true,0,599,2,0,0,64709,task1,752877,false,true,979,image-keyboard-response,32
true,7,0,1,1,false,z,true,false,0.0-2.0-0.29-0.266-3.266,0,0,0,81,false,stim,false,2,937,2,0,2,64709,task1,755322,false,false,982,image-keyboard-response,33
true,7,0,1,1,false,z,false,false,0.0-2.0-0.29-0.267-3.267,0,0,0,81,false,stim,true,0,763,2,0,0,64709,task1,757589,false,false,985,image-keyboard-response,34
true,7,2,1,0,false,q,true,false,0.0-2.0-0.29-0.268-3.268,0,0,0,68,false,stim,false,1,1344,2,0,1,64709,task1,760440,false,false,988,image-keyboard-response,35
true,7,0,1,1,false,z,true,false,0.0-2.0-0.29-0.269-3.269,0,0,0,81,false,stim,false,2,651,2,0,2,64709,task1,762597,false,false,991,image-keyboard-response,36
true,7,1,1,1,true,z,false,true,0.0-2.0-0.30-0.270-3.270,0,0,0,90,false,stim,false,0,424,2,0,0,64709,task1,764527,false,false,994,image-keyboard-response,37
true,7,0,1,0,true,q,false,true,0.0-2.0-0.30-0.271-3.271,0,0,0,81,false,stim,false,1,614,2,0,1,64709,task1,766650,false,false,997,image-keyboard-response,38
true,7,0,1,1,false,z,true,false,0.0-2.0-0.30-0.272-3.272,0,0,0,81,false,stim,false,2,610,2,0,2,64709,task1,768771,false,false,1000,image-keyboard-response,39
true,7,1,1,0,false,q,false,false,0.0-2.0-0.30-0.273-3.273,0,0,0,90,false,stim,true,1,850,2,0,1,64709,task1,771128,false,false,1003,image-keyboard-response,40
true,7,2,1,1,false,z,false,false,0.0-2.0-0.30-0.274-3.274,0,0,0,68,false,stim,true,2,1083,2,0,2,64709,task1,773723,false,false,1006,image-keyboard-response,41
true,7,2,1,1,false,z,true,false,0.0-2.0-0.30-0.275-3.275,0,0,0,68,false,stim,false,0,865,2,0,0,64709,task1,776098,false,false,1009,image-keyboard-response,42
true,8,0,1,2,false,d,true,false,0.0-2.0-0.30-0.276-3.276,0,0,0,81,true,stim,false,1,427,2,0,0,64709,task1,778035,false,false,1012,image-keyboard-response,1
true,8,1,1,1,true,z,false,true,0.0-2.0-0.30-0.277-3.277,0,0,0,90,false,stim,false,0,1231,2,0,1,64709,task1,780776,false,false,1015,image-keyboard-response,2
true,8,0,1,2,false,d,true,false,0.0-2.0-0.30-0.278-3.278,0,0,0,81,false,stim,false,1,660,2,0,2,64709,task1,782944,false,false,1018,image-keyboard-response,3
true,8,1,1,2,false,d,false,false,0.0-2.0-0.31-0.279-3.279,0,0,0,90,false,stim,true,1,436,2,0,0,64709,task1,784887,false,false,1021,image-keyboard-response,4
true,8,1,1,2,false,d,false,false,0.0-2.0-0.31-0.280-3.280,0,0,0,90,false,stim,true,1,954,2,0,2,64709,task1,787346,false,false,1024,image-keyboard-response,5
true,8,0,1,2,false,d,true,false,0.0-2.0-0.31-0.281-3.281,0,0,0,81,false,stim,false,1,619,2,0,0,64709,task1,789469,false,false,1027,image-keyboard-response,6
true,8,2,1,1,false,z,true,false,0.0-2.0-0.31-0.282-3.282,0,0,0,68,false,stim,false,0,1057,2,0,1,64709,task1,792034,false,false,1030,image-keyboard-response,7
true,8,1,1,1,true,z,false,true,0.0-2.0-0.31-0.283-3.283,0,0,0,90,false,stim,false,0,754,2,0,1,64709,task1,794292,false,false,1033,image-keyboard-response,8
true,8,1,1,1,true,z,false,true,0.0-2.0-0.31-0.284-3.284,0,0,0,90,false,stim,false,0,530,2,0,1,64709,task1,796335,false,false,1036,image-keyboard-response,9
true,8,1,1,2,false,d,false,false,0.0-2.0-0.31-0.285-3.285,0,0,0,90,false,stim,true,1,470,2,0,2,64709,task1,798309,false,false,1039,image-keyboard-response,10
true,8,0,1,2,false,d,true,false,0.0-2.0-0.31-0.286-3.286,0,0,0,81,false,stim,false,1,866,2,0,2,64709,task1,800684,false,false,1042,image-keyboard-response,11
true,8,2,1,2,true,d,false,true,0.0-2.0-0.31-0.287-3.287,0,0,0,68,false,stim,false,1,1120,2,0,0,64709,task1,803315,false,false,1045,image-keyboard-response,12
true,8,2,1,1,false,z,true,false,0.0-2.0-0.32-0.288-3.288,0,0,0,68,false,stim,false,0,823,2,0,1,64709,task1,805642,false,false,1048,image-keyboard-response,13
true,8,1,1,1,true,z,false,true,0.0-2.0-0.32-0.289-3.289,0,0,0,90,false,stim,false,0,913,2,0,1,64709,task1,808059,false,false,1051,image-keyboard-response,14
true,8,0,1,2,false,d,true,false,0.0-2.0-0.32-0.290-3.290,0,0,0,81,false,stim,false,1,592,2,0,0,64709,task1,810159,false,false,1054,image-keyboard-response,15
true,8,1,1,2,false,d,false,false,0.0-2.0-0.32-0.291-3.291,0,0,0,90,false,stim,true,1,1532,2,0,2,64709,task1,813196,false,false,1057,image-keyboard-response,16
true,8,0,1,2,false,d,true,false,0.0-2.0-0.32-0.292-3.292,0,0,0,81,false,stim,false,1,607,2,0,2,64709,task1,815313,false,false,1060,image-keyboard-response,17
true,8,2,1,2,true,d,false,true,0.0-2.0-0.32-0.293-3.293,0,0,0,68,false,stim,false,1,994,2,0,2,64709,task1,817814,false,false,1063,image-keyboard-response,18
true,8,1,1,2,false,d,false,false,0.0-2.0-0.32-0.294-3.294,0,0,0,90,false,stim,true,1,908,2,0,0,64709,task1,820226,false,false,1066,image-keyboard-response,19
true,8,0,1,2,false,d,true,true,0.0-2.0-0.32-0.295-3.295,0,0,0,81,false,stim,false,1,1017,2,0,0,64709,task1,822752,false,true,1069,image-keyboard-response,20
true,8,1,1,1,true,z,false,true,0.0-2.0-0.32-0.296-3.296,0,0,0,90,false,stim,false,0,950,2,0,1,64709,task1,825210,false,false,1072,image-keyboard-response,21
true,8,1,1,1,true,z,false,true,0.0-2.0-0.33-0.297-3.297,0,0,0,90,false,stim,false,0,1029,2,0,1,64709,task1,827747,false,false,1075,image-keyboard-response,22
true,8,2,1,2,true,d,false,true,0.0-2.0-0.33-0.298-3.298,0,0,0,68,false,stim,false,1,596,2,0,2,64709,task1,829849,false,false,1078,image-keyboard-response,23
true,8,1,1,1,true,z,false,false,0.0-2.0-0.33-0.299-3.299,0,0,0,90,false,stim,false,0,1061,2,0,1,64709,task1,832419,false,true,1081,image-keyboard-response,24
true,8,2,1,2,true,d,false,true,0.0-2.0-0.33-0.300-3.300,0,0,0,68,false,stim,false,1,477,2,0,0,64709,task1,834406,false,false,1084,image-keyboard-response,25
true,8,2,1,2,true,d,false,true,0.0-2.0-0.33-0.301-3.301,0,0,0,68,false,stim,false,1,489,2,0,0,64709,task1,836403,false,false,1087,image-keyboard-response,26
true,8,0,1,2,false,d,true,false,0.0-2.0-0.33-0.302-3.302,0,0,0,81,false,stim,false,1,745,2,0,2,64709,task1,838658,false,false,1090,image-keyboard-response,27
true,8,2,1,2,true,d,false,true,0.0-2.0-0.33-0.303-3.303,0,0,0,68,false,stim,false,1,451,2,0,2,64709,task1,840620,false,false,1093,image-keyboard-response,28
true,8,1,1,1,true,z,false,true,0.0-2.0-0.33-0.304-3.304,0,0,0,90,false,stim,false,0,854,2,0,1,64709,task1,842979,false,false,1096,image-keyboard-response,29
true,8,2,1,2,true,d,false,true,0.0-2.0-0.33-0.305-3.305,0,0,0,68,false,stim,false,1,866,2,0,0,64709,task1,845353,false,false,1099,image-keyboard-response,30
true,8,0,1,1,false,z,false,false,0.0-2.0-0.34-0.306-3.306,0,0,0,81,false,stim,true,0,659,2,0,1,64709,task1,847525,false,false,1102,image-keyboard-response,31
true,8,1,1,2,false,d,false,false,0.0-2.0-0.34-0.307-3.307,0,0,0,90,false,stim,true,1,530,2,0,0,64709,task1,849562,false,false,1105,image-keyboard-response,32
true,8,2,1,2,true,d,false,true,0.0-2.0-0.34-0.308-3.308,0,0,0,68,false,stim,false,1,782,2,0,2,64709,task1,851850,false,false,1108,image-keyboard-response,33
true,8,2,1,1,false,z,true,false,0.0-2.0-0.34-0.309-3.309,0,0,0,68,false,stim,false,0,448,2,0,1,64709,task1,853806,false,false,1111,image-keyboard-response,34
true,8,1,1,2,false,d,false,false,0.0-2.0-0.34-0.310-3.310,0,0,0,90,false,stim,true,1,136,2,0,0,64709,task1,855454,false,false,1114,image-keyboard-response,35
true,8,0,1,2,false,d,true,false,0.0-2.0-0.34-0.311-3.311,0,0,0,81,false,stim,false,1,483,2,0,2,64709,task1,857443,false,false,1117,image-keyboard-response,36
true,8,2,1,1,false,z,true,false,0.0-2.0-0.34-0.312-3.312,0,0,0,68,false,stim,false,0,385,2,0,1,64709,task1,859335,false,false,1120,image-keyboard-response,37
true,8,1,1,2,false,d,false,false,0.0-2.0-0.34-0.313-3.313,0,0,0,90,false,stim,true,1,383,2,0,2,64709,task1,861228,false,false,1123,image-keyboard-response,38
true,8,0,1,2,false,d,true,false,0.0-2.0-0.34-0.314-3.314,0,0,0,81,false,stim,false,1,287,2,0,0,64709,task1,863021,false,false,1126,image-keyboard-response,39
true,8,2,1,2,true,d,false,true,0.0-2.0-0.35-0.315-3.315,0,0,0,68,false,stim,false,1,154,2,0,0,64709,task1,864681,false,false,1129,image-keyboard-response,40
true,8,2,1,1,false,z,true,false,0.0-2.0-0.35-0.316-3.316,0,0,0,68,false,stim,false,0,626,2,0,1,64709,task1,866812,false,false,1132,image-keyboard-response,41
true,8,0,1,2,false,d,true,false,0.0-2.0-0.35-0.317-3.317,0,0,0,81,false,stim,false,1,370,2,0,2,64709,task1,868694,false,false,1135,image-keyboard-response,42
true,9,1,1,0,false,q,true,false,0.0-2.0-0.35-0.318-3.318,0,0,0,90,true,stim,false,2,433,2,0,0,64709,task1,870634,false,false,1138,image-keyboard-response,1
true,9,2,1,0,false,q,false,false,0.0-2.0-0.35-0.319-3.319,0,0,0,68,false,stim,true,2,419,2,0,0,64709,task1,872562,false,false,1141,image-keyboard-response,2
true,9,0,1,0,true,q,false,true,0.0-2.0-0.35-0.320-3.320,0,0,0,81,false,stim,false,2,482,2,0,2,64709,task1,874549,false,false,1144,image-keyboard-response,3
true,9,0,1,2,false,d,true,false,0.0-2.0-0.35-0.321-3.321,0,0,0,81,false,stim,false,1,920,2,0,1,64709,task1,876976,false,false,1147,image-keyboard-response,4
true,9,1,1,2,false,d,false,false,0.0-2.0-0.35-0.322-3.322,0,0,0,90,false,stim,true,1,1026,2,0,1,64709,task1,879511,false,false,1150,image-keyboard-response,5
true,9,0,1,0,true,q,false,false,0.0-2.0-0.35-0.323-3.323,0,0,0,81,false,stim,false,2,828,2,0,2,64709,task1,881850,false,true,1153,image-keyboard-response,6
true,9,2,1,2,true,d,false,true,0.0-2.0-0.36-0.324-3.324,0,0,0,68,false,stim,false,1,1402,2,0,1,64709,task1,884763,false,false,1156,image-keyboard-response,7
true,9,2,1,0,false,q,false,false,0.0-2.0-0.36-0.325-3.325,0,0,0,68,false,stim,true,2,842,2,0,2,64709,task1,887111,false,false,1159,image-keyboard-response,8
true,9,1,1,0,false,q,true,false,0.0-2.0-0.36-0.326-3.326,0,0,0,90,false,stim,false,2,1261,2,0,0,64709,task1,889879,false,false,1162,image-keyboard-response,9
true,9,2,1,0,false,q,false,false,0.0-2.0-0.36-0.327-3.327,0,0,0,68,false,stim,true,2,1279,2,0,2,64709,task1,892665,false,false,1165,image-keyboard-response,10
true,9,1,1,0,false,q,true,false,0.0-2.0-0.36-0.328-3.328,0,0,0,90,false,stim,false,2,1021,2,0,0,64709,task1,895194,false,false,1168,image-keyboard-response,11
true,9,0,1,0,true,q,false,true,0.0-2.0-0.36-0.329-3.329,0,0,0,81,false,stim,false,2,844,2,0,0,64709,task1,897546,false,false,1171,image-keyboard-response,12
true,9,1,1,2,false,d,false,false,0.0-2.0-0.36-0.330-3.330,0,0,0,90,false,stim,true,1,1043,2,0,1,64709,task1,900099,false,false,1174,image-keyboard-response,13
true,9,1,1,0,false,q,true,false,0.0-2.0-0.36-0.331-3.331,0,0,0,90,false,stim,false,2,1531,2,0,2,64709,task1,903137,false,false,1177,image-keyboard-response,14
true,9,0,1,2,false,d,true,false,0.0-2.0-0.36-0.332-3.332,0,0,0,81,false,stim,false,1,637,2,0,1,64709,task1,905281,false,false,1180,image-keyboard-response,15
true,9,1,1,0,false,q,true,false,0.0-2.0-0.37-0.333-3.333,0,0,0,90,false,stim,false,2,614,2,0,2,64709,task1,907407,false,false,1183,image-keyboard-response,16
true,9,2,1,0,false,q,false,true,0.0-2.0-0.37-0.334-3.334,0,0,0,68,false,stim,true,2,1110,2,0,2,64709,task1,910028,false,true,1186,image-keyboard-response,17
true,9,1,1,0,false,q,true,false,0.0-2.0-0.37-0.335-3.335,0,0,0,90,false,stim,false,2,956,2,0,0,64709,task1,912489,false,false,1189,image-keyboard-response,18
true,9,2,1,0,false,q,false,false,0.0-2.0-0.37-0.336-3.336,0,0,0,68,false,stim,true,2,683,2,0,2,64709,task1,914681,false,false,1192,image-keyboard-response,19
true,9,0,1,0,true,q,false,true,0.0-2.0-0.37-0.337-3.337,0,0,0,81,false,stim,false,2,506,2,0,0,64709,task1,916695,false,false,1195,image-keyboard-response,20
true,9,1,1,2,false,d,false,false,0.0-2.0-0.37-0.338-3.338,0,0,0,90,false,stim,true,1,1023,2,0,1,64709,task1,919225,false,false,1198,image-keyboard-response,21
true,9,2,1,2,true,d,false,true,0.0-2.0-0.37-0.339-3.339,0,0,0,68,false,stim,false,1,442,2,0,1,64709,task1,921178,false,false,1201,image-keyboard-response,22
true,9,2,1,2,true,d,false,true,0.0-2.0-0.37-0.340-3.340,0,0,0,68,false,stim,false,1,656,2,0,1,64709,task1,923341,false,false,1204,image-keyboard-response,23
true,9,0,1,0,true,q,false,true,0.0-2.0-0.37-0.341-3.341,0,0,0,81,false,stim,false,2,764,2,0,0,64709,task1,925611,false,false,1207,image-keyboard-response,24
true,9,0,1,0,true,q,false,true,0.0-2.0-0.38-0.342-3.342,0,0,0,81,false,stim,false,2,508,2,0,0,64709,task1,927630,false,false,1210,image-keyboard-response,25
true,9,2,1,2,true,d,false,true,0.0-2.0-0.38-0.343-3.343,0,0,0,68,false,stim,false,1,905,2,0,1,64709,task1,930047,false,false,1213,image-keyboard-response,26
true,9,2,1,2,true,d,false,true,0.0-2.0-0.38-0.344-3.344,0,0,0,68,false,stim,false,1,619,2,0,1,64709,task1,932173,false,false,1216,image-keyboard-response,27
true,9,1,1,0,false,q,true,false,0.0-2.0-0.38-0.345-3.345,0,0,0,90,false,stim,false,2,989,2,0,2,64709,task1,934674,false,false,1219,image-keyboard-response,28
true,9,2,1,0,false,q,false,false,0.0-2.0-0.38-0.346-3.346,0,0,0,68,false,stim,true,2,805,2,0,0,64709,task1,936986,false,false,1222,image-keyboard-response,29
true,9,0,1,0,true,q,false,true,0.0-2.0-0.38-0.347-3.347,0,0,0,81,false,stim,false,2,740,2,0,0,64709,task1,939234,false,false,1225,image-keyboard-response,30
true,9,1,1,0,false,q,true,false,0.0-2.0-0.38-0.348-3.348,0,0,0,90,false,stim,false,2,868,2,0,2,64709,task1,941609,false,false,1228,image-keyboard-response,31
true,9,2,1,0,false,q,false,true,0.0-2.0-0.38-0.349-3.349,0,0,0,68,false,stim,true,2,2416,2,0,2,64709,task1,945532,false,true,1231,image-keyboard-response,32
true,9,2,1,2,true,d,false,true,0.0-2.0-0.38-0.350-3.350,0,0,0,68,false,stim,false,1,880,2,0,1,64709,task1,947920,false,false,1234,image-keyboard-response,33
true,9,2,1,0,false,q,false,false,0.0-2.0-0.39-0.351-3.351,0,0,0,68,false,stim,true,2,586,2,0,2,64709,task1,950012,false,false,1237,image-keyboard-response,34
true,9,2,1,2,true,d,false,true,0.0-2.0-0.39-0.352-3.352,0,0,0,68,false,stim,false,1,904,2,0,1,64709,task1,952422,false,false,1240,image-keyboard-response,35
true,9,2,1,2,true,d,false,true,0.0-2.0-0.39-0.353-3.353,0,0,0,68,false,stim,false,1,919,2,0,1,64709,task1,954846,false,false,1243,image-keyboard-response,36
true,9,2,1,2,true,d,false,true,0.0-2.0-0.39-0.354-3.354,0,0,0,68,false,stim,false,1,702,2,0,1,64709,task1,957056,false,false,1246,image-keyboard-response,37
true,9,2,1,0,false,q,false,false,0.0-2.0-0.39-0.355-3.355,0,0,0,68,false,stim,true,2,578,2,0,2,64709,task1,959140,false,false,1249,image-keyboard-response,38
true,9,1,1,0,false,q,true,false,0.0-2.0-0.39-0.356-3.356,0,0,0,90,false,stim,false,2,1313,2,0,0,64709,task1,961963,false,false,1252,image-keyboard-response,39
true,9,2,1,0,false,q,false,false,0.0-2.0-0.39-0.357-3.357,0,0,0,68,false,stim,true,2,478,2,0,0,64709,task1,963946,false,false,1255,image-keyboard-response,40
true,9,0,1,0,true,q,false,false,0.0-2.0-0.39-0.358-3.358,0,0,0,81,false,stim,false,2,687,2,0,2,64709,task1,966140,false,true,1258,image-keyboard-response,41
true,9,1,1,0,false,q,true,false,0.0-2.0-0.39-0.359-3.359,0,0,0,90,false,stim,false,2,695,2,0,0,64709,task1,968342,false,false,1261,image-keyboard-response,42
true,9,1,1,2,false,d,false,false,0.0-2.0-0.40-0.360-3.360,0,0,0,90,false,stim,true,1,485,2,0,1,64709,task1,970332,false,false,1264,image-keyboard-response,43
true,10,2,2,1,false,z,false,false,0.0-2.0-0.40-0.361-3.361,0,0,0,68,true,stim,true,2,766,2,0,1,64709,task1,972605,false,false,1267,image-keyboard-response,1
true,10,2,2,2,true,d,false,true,0.0-2.0-0.40-0.362-3.362,0,0,0,68,false,stim,false,0,444,2,0,0,64709,task1,974555,false,false,1270,image-keyboard-response,2
true,10,2,2,1,false,z,true,false,0.0-2.0-0.40-0.363-3.363,0,0,0,68,false,stim,false,0,791,2,0,2,64709,task1,976852,false,false,1273,image-keyboard-response,3
true,10,2,2,1,false,z,true,false,0.0-2.0-0.40-0.364-3.364,0,0,0,68,false,stim,false,0,1894,2,0,2,64709,task1,980255,false,false,1276,image-keyboard-response,4
true,10,2,2,2,true,d,false,true,0.0-2.0-0.40-0.365-3.365,0,0,0,68,false,stim,false,0,422,2,0,0,64709,task1,982184,false,false,1279,image-keyboard-response,5
true,10,0,2,1,false,z,false,false,0.0-2.0-0.40-0.366-3.366,0,0,0,81,false,stim,true,0,424,2,0,2,64709,task1,984116,false,false,1282,image-keyboard-response,6
true,10,2,2,2,true,d,false,true,0.0-2.0-0.40-0.367-3.367,0,0,0,68,false,stim,false,0,670,2,0,0,64709,task1,986292,false,false,1285,image-keyboard-response,7
true,10,0,2,1,false,z,true,false,0.0-2.0-0.40-0.368-3.368,0,0,0,81,false,stim,false,2,1083,2,0,1,64709,task1,988880,false,false,1288,image-keyboard-response,8
true,10,2,2,2,true,d,false,true,0.0-2.0-0.41-0.369-3.369,0,0,0,68,false,stim,false,0,636,2,0,0,64709,task1,991028,false,false,1291,image-keyboard-response,9
true,10,2,2,1,false,z,false,false,0.0-2.0-0.41-0.370-3.370,0,0,0,68,false,stim,true,2,1061,2,0,1,64709,task1,993595,false,false,1294,image-keyboard-response,10
true,10,2,2,2,true,d,false,true,0.0-2.0-0.41-0.371-3.371,0,0,0,68,false,stim,false,0,473,2,0,0,64709,task1,995575,false,false,1297,image-keyboard-response,11
true,10,2,2,2,true,d,false,true,0.0-2.0-0.41-0.372-3.372,0,0,0,68,false,stim,false,0,508,2,0,0,64709,task1,997593,false,false,1300,image-keyboard-response,12
true,10,1,2,1,true,z,false,true,0.0-2.0-0.41-0.373-3.373,0,0,0,90,false,stim,false,2,970,2,0,1,64709,task1,1000074,false,false,1303,image-keyboard-response,13
true,10,0,2,1,false,z,false,false,0.0-2.0-0.41-0.374-3.374,0,0,0,81,false,stim,true,0,863,2,0,2,64709,task1,1002447,false,false,1306,image-keyboard-response,14
true,10,1,2,1,true,z,false,true,0.0-2.0-0.41-0.375-3.375,0,0,0,90,false,stim,false,2,669,2,0,1,64709,task1,1004624,false,false,1309,image-keyboard-response,15
true,10,2,2,1,false,z,true,true,0.0-2.0-0.41-0.376-3.376,0,0,0,68,false,stim,false,0,2042,2,0,2,64709,task1,1008170,false,true,1312,image-keyboard-response,16
true,10,2,2,1,false,z,true,false,0.0-2.0-0.41-0.377-3.377,0,0,0,68,false,stim,false,0,510,2,0,2,64709,task1,1010186,false,false,1315,image-keyboard-response,17
true,10,0,2,1,false,z,false,false,0.0-2.0-0.42-0.378-3.378,0,0,0,81,false,stim,true,0,561,2,0,2,64709,task1,1012253,false,false,1318,image-keyboard-response,18
true,10,1,2,2,false,d,true,false,0.0-2.0-0.42-0.379-3.379,0,0,0,90,false,stim,false,0,867,2,0,0,64709,task1,1014627,false,false,1321,image-keyboard-response,19
true,10,2,2,1,false,z,true,false,0.0-2.0-0.42-0.380-3.380,0,0,0,68,false,stim,false,0,417,2,0,2,64709,task1,1016550,false,false,1324,image-keyboard-response,20
true,10,0,2,1,false,z,false,false,0.0-2.0-0.42-0.381-3.381,0,0,0,81,false,stim,true,0,427,2,0,2,64709,task1,1018484,false,false,1327,image-keyboard-response,21
true,10,2,2,2,true,d,false,true,0.0-2.0-0.42-0.382-3.382,0,0,0,68,false,stim,false,0,608,2,0,0,64709,task1,1020596,false,false,1330,image-keyboard-response,22
true,10,2,2,1,false,z,false,false,0.0-2.0-0.42-0.383-3.383,0,0,0,68,false,stim,true,2,959,2,0,1,64709,task1,1023062,false,false,1333,image-keyboard-response,23
true,10,1,2,1,true,z,false,true,0.0-2.0-0.42-0.384-3.384,0,0,0,90,false,stim,false,2,2538,2,0,1,64709,task1,1027109,false,false,1336,image-keyboard-response,24
true,10,1,2,1,true,z,false,true,0.0-2.0-0.42-0.385-3.385,0,0,0,90,false,stim,false,2,541,2,0,1,64709,task1,1029157,false,false,1339,image-keyboard-response,25
true,10,1,2,2,false,d,true,true,0.0-2.0-0.42-0.386-3.386,0,0,0,90,false,stim,false,0,645,2,0,0,64709,task1,1031312,false,true,1342,image-keyboard-response,26
true,10,1,2,1,true,z,false,true,0.0-2.0-0.43-0.387-3.387,0,0,0,90,false,stim,false,0,1744,2,0,2,64709,task1,1034565,false,false,1345,image-keyboard-response,27
true,10,1,2,1,true,z,false,true,0.0-2.0-0.43-0.388-3.388,0,0,0,90,false,stim,false,0,453,2,0,2,64709,task1,1036526,false,false,1348,image-keyboard-response,28
true,10,1,2,1,true,z,false,true,0.0-2.0-0.43-0.389-3.389,0,0,0,90,false,stim,false,0,775,2,0,2,64709,task1,1038804,false,false,1351,image-keyboard-response,29
true,10,1,2,1,true,z,false,true,0.0-2.0-0.43-0.390-3.390,0,0,0,90,false,stim,false,2,361,2,0,1,64709,task1,1040669,false,false,1354,image-keyboard-response,30
true,10,1,2,2,false,d,true,false,0.0-2.0-0.43-0.391-3.391,0,0,0,90,false,stim,false,0,1512,2,0,0,64709,task1,1043691,false,false,1357,image-keyboard-response,31
true,10,2,2,1,false,z,false,false,0.0-2.0-0.43-0.392-3.392,0,0,0,68,false,stim,true,2,451,2,0,1,64709,task1,1045651,false,false,1360,image-keyboard-response,32
true,10,2,2,2,true,d,false,true,0.0-2.0-0.43-0.393-3.393,0,0,0,68,false,stim,false,0,2240,2,0,0,64709,task1,1049398,false,false,1363,image-keyboard-response,33
true,10,2,2,2,true,d,false,true,0.0-2.0-0.43-0.394-3.394,0,0,0,68,false,stim,false,0,583,2,0,0,64709,task1,1051489,false,false,1366,image-keyboard-response,34
true,10,2,2,1,false,z,false,true,0.0-2.0-0.43-0.395-3.395,0,0,0,68,false,stim,true,2,714,2,0,1,64709,task1,1053712,false,true,1369,image-keyboard-response,35
true,10,2,2,2,true,d,false,true,0.0-2.0-0.44-0.396-3.396,0,0,0,68,false,stim,false,0,486,2,0,0,64709,task1,1055706,false,false,1372,image-keyboard-response,36
true,10,2,2,1,false,z,false,false,0.0-2.0-0.44-0.397-3.397,0,0,0,68,false,stim,true,2,378,2,0,1,64709,task1,1057591,false,false,1375,image-keyboard-response,37
true,10,2,2,1,false,z,true,false,0.0-2.0-0.44-0.398-3.398,0,0,0,68,false,stim,false,0,486,2,0,2,64709,task1,1059583,false,false,1378,image-keyboard-response,38
true,10,2,2,1,false,z,false,true,0.0-2.0-0.44-0.399-3.399,0,0,0,68,false,stim,true,2,1064,2,0,1,64709,task1,1062153,false,true,1381,image-keyboard-response,39
true,10,2,2,2,true,d,false,true,0.0-2.0-0.44-0.400-3.400,0,0,0,68,false,stim,false,0,888,2,0,0,64709,task1,1064550,false,false,1384,image-keyboard-response,40
true,10,2,2,1,false,z,false,false,0.0-2.0-0.44-0.401-3.401,0,0,0,68,false,stim,true,2,500,2,0,1,64709,task1,1066557,false,false,1387,image-keyboard-response,41
true,10,0,2,2,false,d,false,false,0.0-2.0-0.44-0.402-3.402,0,0,0,81,false,stim,true,0,508,2,0,0,64709,task1,1068578,false,false,1390,image-keyboard-response,42
true,10,2,2,1,false,z,true,false,0.0-2.0-0.44-0.403-3.403,0,0,0,68,false,stim,false,0,461,2,0,2,64709,task1,1070547,false,false,1393,image-keyboard-response,43
true,10,1,2,1,true,z,false,true,0.0-2.0-0.44-0.404-3.404,0,0,0,90,false,stim,false,0,410,2,0,2,64709,task1,1072463,false,false,1396,image-keyboard-response,44
true,10,2,2,1,false,z,false,false,0.0-2.0-0.45-0.405-3.405,0,0,0,68,false,stim,true,2,1002,2,0,1,64709,task1,1074971,false,false,1399,image-keyboard-response,45
true,11,1,2,0,false,q,false,false,0.0-2.0-0.45-0.406-3.406,0,0,0,90,true,stim,true,1,491,2,0,2,64709,task1,1076979,false,false,1402,image-keyboard-response,1
true,11,2,2,1,false,z,false,false,0.0-2.0-0.45-0.407-3.407,0,0,0,68,false,stim,true,2,514,2,0,0,64709,task1,1078997,false,false,1405,image-keyboard-response,2
true,11,1,2,1,true,z,false,true,0.0-2.0-0.45-0.408-3.408,0,0,0,90,false,stim,false,2,742,2,0,0,64709,task1,1081247,false,false,1408,image-keyboard-response,3
true,11,0,2,0,true,q,false,false,0.0-2.0-0.45-0.409-3.409,0,0,0,81,false,stim,false,1,773,2,0,1,64709,task1,1083528,false,true,1411,image-keyboard-response,4
true,11,1,2,0,false,q,false,false,0.0-2.0-0.45-0.410-3.410,0,0,0,90,false,stim,true,1,512,2,0,1,64709,task1,1085545,false,false,1414,image-keyboard-response,5
true,11,1,2,0,false,q,false,false,0.0-2.0-0.45-0.411-3.411,0,0,0,90,false,stim,true,1,351,2,0,2,64709,task1,1087405,false,false,1417,image-keyboard-response,6
true,11,1,2,1,true,z,false,true,0.0-2.0-0.45-0.412-3.412,0,0,0,90,false,stim,false,2,534,2,0,0,64709,task1,1089443,false,false,1420,image-keyboard-response,7
true,11,1,2,0,false,q,false,true,0.0-2.0-0.45-0.413-3.413,0,0,0,90,false,stim,true,1,648,2,0,2,64709,task1,1091597,false,true,1423,image-keyboard-response,8
true,11,1,2,0,false,q,false,true,0.0-2.0-0.46-0.414-3.414,0,0,0,90,false,stim,true,1,1668,2,0,1,64709,task1,1094775,false,true,1426,image-keyboard-response,9
true,11,1,2,1,true,z,false,true,0.0-2.0-0.46-0.415-3.415,0,0,0,90,false,stim,false,2,1501,2,0,0,64709,task1,1097784,false,false,1429,image-keyboard-response,10
true,11,1,2,0,false,q,false,false,0.0-2.0-0.46-0.416-3.416,0,0,0,90,false,stim,true,1,530,2,0,2,64709,task1,1099823,false,false,1432,image-keyboard-response,11
true,11,1,2,1,true,z,false,true,0.0-2.0-0.46-0.417-3.417,0,0,0,90,false,stim,false,2,757,2,0,0,64709,task1,1102088,false,false,1435,image-keyboard-response,12
true,11,1,2,0,false,q,false,false,0.0-2.0-0.46-0.418-3.418,0,0,0,90,false,stim,true,1,497,2,0,2,64709,task1,1104092,false,false,1438,image-keyboard-response,13
true,11,0,2,0,true,q,false,true,0.0-2.0-0.46-0.419-3.419,0,0,0,81,false,stim,false,1,581,2,0,1,64709,task1,1106183,false,false,1441,image-keyboard-response,14
true,11,1,2,0,false,q,false,true,0.0-2.0-0.46-0.420-3.420,0,0,0,90,false,stim,true,1,671,2,0,2,64709,task1,1108359,false,true,1444,image-keyboard-response,15
true,11,0,2,1,false,z,true,false,0.0-2.0-0.46-0.421-3.421,0,0,0,81,false,stim,false,2,1023,2,0,0,64709,task1,1110890,false,false,1447,image-keyboard-response,16
true,11,1,2,0,false,q,false,false,0.0-2.0-0.46-0.422-3.422,0,0,0,90,false,stim,true,1,378,2,0,1,64709,task1,1112782,false,false,1450,image-keyboard-response,17
true,11,1,2,0,false,q,false,false,0.0-2.0-0.47-0.423-3.423,0,0,0,90,false,stim,true,1,508,2,0,2,64709,task1,1114796,false,false,1453,image-keyboard-response,18
true,11,1,2,0,false,q,false,false,0.0-2.0-0.47-0.424-3.424,0,0,0,90,false,stim,true,1,467,2,0,2,64709,task1,1116771,false,false,1456,image-keyboard-response,19
true,11,1,2,1,true,z,false,true,0.0-2.0-0.47-0.425-3.425,0,0,0,90,false,stim,false,2,471,2,0,0,64709,task1,1118749,false,false,1459,image-keyboard-response,20
true,11,1,2,0,false,q,false,false,0.0-2.0-0.47-0.426-3.426,0,0,0,90,false,stim,true,1,458,2,0,1,64709,task1,1120710,false,false,1462,image-keyboard-response,21
true,11,2,2,0,false,q,true,true,0.0-2.0-0.47-0.427-3.427,0,0,0,68,false,stim,false,1,1187,2,0,2,64709,task1,1123402,false,true,1465,image-keyboard-response,22
true,11,2,2,0,false,q,true,false,0.0-2.0-0.47-0.428-3.428,0,0,0,68,false,stim,false,1,541,2,0,1,64709,task1,1125452,false,false,1468,image-keyboard-response,23
true,11,1,2,0,false,q,false,false,0.0-2.0-0.47-0.429-3.429,0,0,0,90,false,stim,true,1,492,2,0,1,64709,task1,1127452,false,false,1471,image-keyboard-response,24
true,11,0,2,1,false,z,true,true,0.0-2.0-0.47-0.430-3.430,0,0,0,81,false,stim,false,2,482,2,0,0,64709,task1,1129443,false,true,1474,image-keyboard-response,25
true,11,0,2,1,false,z,true,false,0.0-2.0-0.47-0.431-3.431,0,0,0,81,false,stim,false,2,861,2,0,0,64709,task1,1131815,false,false,1477,image-keyboard-response,26
true,11,1,2,0,false,q,false,false,0.0-2.0-0.48-0.432-3.432,0,0,0,90,false,stim,true,1,480,2,0,2,64709,task1,1133800,false,false,1480,image-keyboard-response,27
true,11,2,2,1,false,z,false,false,0.0-2.0-0.48-0.433-3.433,0,0,0,68,false,stim,true,2,956,2,0,0,64709,task1,1136262,false,false,1483,image-keyboard-response,28
true,11,2,2,0,false,q,true,false,0.0-2.0-0.48-0.434-3.434,0,0,0,68,false,stim,false,1,643,2,0,2,64709,task1,1138412,false,false,1486,image-keyboard-response,29
true,11,0,2,0,true,q,false,true,0.0-2.0-0.48-0.435-3.435,0,0,0,81,false,stim,false,1,463,2,0,1,64709,task1,1140382,false,false,1489,image-keyboard-response,30
true,11,0,2,0,true,q,false,true,0.0-2.0-0.48-0.436-3.436,0,0,0,81,false,stim,false,1,459,2,0,1,64709,task1,1142348,false,false,1492,image-keyboard-response,31
true,11,0,2,0,true,q,false,true,0.0-2.0-0.48-0.437-3.437,0,0,0,81,false,stim,false,1,836,2,0,2,64709,task1,1144691,false,false,1495,image-keyboard-response,32
true,11,0,2,1,false,z,true,false,0.0-2.0-0.48-0.438-3.438,0,0,0,81,false,stim,false,2,1020,2,0,0,64709,task1,1147219,false,false,1498,image-keyboard-response,33
true,11,1,2,0,false,q,false,false,0.0-2.0-0.48-0.439-3.439,0,0,0,90,false,stim,true,1,729,2,0,1,64709,task1,1149461,false,false,1501,image-keyboard-response,34
true,11,1,2,1,true,z,false,true,0.0-2.0-0.48-0.440-3.440,0,0,0,90,false,stim,false,2,572,2,0,0,64709,task1,1151543,false,false,1504,image-keyboard-response,35
true,11,1,2,0,false,q,false,false,0.0-2.0-0.49-0.441-3.441,0,0,0,90,false,stim,true,1,619,2,0,2,64709,task1,1153670,false,false,1507,image-keyboard-response,36
true,11,1,2,0,false,q,false,false,0.0-2.0-0.49-0.442-3.442,0,0,0,90,false,stim,true,1,802,2,0,2,64709,task1,1155981,false,false,1510,image-keyboard-response,37
true,11,2,2,0,false,q,true,false,0.0-2.0-0.49-0.443-3.443,0,0,0,68,false,stim,false,1,428,2,0,1,64709,task1,1157918,false,false,1513,image-keyboard-response,38
true,11,0,2,1,false,z,true,false,0.0-2.0-0.49-0.444-3.444,0,0,0,81,false,stim,false,2,494,2,0,0,64709,task1,1159916,false,false,1516,image-keyboard-response,39
true,11,2,2,0,false,q,true,false,0.0-2.0-0.49-0.445-3.445,0,0,0,68,false,stim,false,1,402,2,0,2,64709,task1,1161829,false,false,1519,image-keyboard-response,40
true,11,2,2,1,false,z,false,false,0.0-2.0-0.49-0.446-3.446,0,0,0,68,false,stim,true,2,544,2,0,0,64709,task1,1163878,false,false,1522,image-keyboard-response,41
true,11,1,2,0,false,q,false,false,0.0-2.0-0.49-0.447-3.447,0,0,0,90,false,stim,true,1,812,2,0,1,64709,task1,1166200,false,false,1525,image-keyboard-response,42
true,11,1,2,0,false,q,false,false,0.0-2.0-0.49-0.448-3.448,0,0,0,90,false,stim,true,1,590,2,0,1,64709,task1,1168298,false,false,1528,image-keyboard-response,43
true,11,2,2,1,false,z,false,false,0.0-2.0-0.49-0.449-3.449,0,0,0,68,false,stim,true,2,459,2,0,0,64709,task1,1170270,false,false,1531,image-keyboard-response,44
true,11,2,2,0,false,q,true,false,0.0-2.0-0.50-0.450-3.450,0,0,0,68,false,stim,false,1,563,2,0,2,64709,task1,1172341,false,false,1534,image-keyboard-response,45
true,12,2,2,2,true,d,false,true,0.0-2.0-0.50-0.451-3.451,0,0,0,68,true,stim,false,1,335,2,0,0,64709,task1,1174182,false,false,1537,image-keyboard-response,1
true,12,2,2,2,true,d,false,true,0.0-2.0-0.50-0.452-3.452,0,0,0,68,false,stim,false,1,431,2,0,0,64709,task1,1176123,false,false,1540,image-keyboard-response,2
true,12,2,2,1,false,z,true,false,0.0-2.0-0.50-0.453-3.453,0,0,0,68,false,stim,false,0,378,2,0,1,64709,task1,1178008,false,false,1543,image-keyboard-response,3
true,12,2,2,1,false,z,true,false,0.0-2.0-0.50-0.454-3.454,0,0,0,68,false,stim,false,0,716,2,0,2,64709,task1,1180232,false,false,1546,image-keyboard-response,4
true,12,2,2,1,false,z,true,false,0.0-2.0-0.50-0.455-3.455,0,0,0,68,false,stim,false,0,481,2,0,1,64709,task1,1182217,false,false,1549,image-keyboard-response,5
true,12,2,2,2,true,d,false,true,0.0-2.0-0.50-0.456-3.456,0,0,0,68,false,stim,false,1,478,2,0,0,64709,task1,1184203,false,false,1552,image-keyboard-response,6
true,12,2,2,1,false,z,true,false,0.0-2.0-0.50-0.457-3.457,0,0,0,68,false,stim,false,0,417,2,0,2,64709,task1,1186128,false,false,1555,image-keyboard-response,7
true,12,2,2,1,false,z,true,false,0.0-2.0-0.50-0.458-3.458,0,0,0,68,false,stim,false,0,384,2,0,1,64709,task1,1188019,false,false,1558,image-keyboard-response,8
true,12,2,2,1,false,z,true,false,0.0-2.0-0.51-0.459-3.459,0,0,0,68,false,stim,false,0,701,2,0,2,64709,task1,1190226,false,false,1561,image-keyboard-response,9
true,12,0,2,2,false,d,true,false,0.0-2.0-0.51-0.460-3.460,0,0,0,81,false,stim,false,1,485,2,0,0,64709,task1,1192219,false,false,1564,image-keyboard-response,10
true,12,1,2,1,true,z,false,false,0.0-2.0-0.51-0.461-3.461,0,0,0,90,false,stim,false,0,1157,2,0,1,64709,task1,1194883,false,true,1567,image-keyboard-response,11
true,12,0,2,1,false,z,false,false,0.0-2.0-0.51-0.462-3.462,0,0,0,81,false,stim,true,0,543,2,0,2,64709,task1,1196937,false,false,1570,image-keyboard-response,12
true,12,2,2,1,false,z,true,false,0.0-2.0-0.51-0.463-3.463,0,0,0,68,false,stim,false,0,525,2,0,1,64709,task1,1198970,false,false,1573,image-keyboard-response,13
true,12,1,2,1,true,z,false,true,0.0-2.0-0.51-0.464-3.464,0,0,0,90,false,stim,false,0,929,2,0,1,64709,task1,1201407,false,false,1576,image-keyboard-response,14
true,12,1,2,2,false,d,false,false,0.0-2.0-0.51-0.465-3.465,0,0,0,90,false,stim,true,1,1845,2,0,0,64709,task1,1204755,false,false,1579,image-keyboard-response,15
false,12,-1,2,1,false,z,true,false,0.0-2.0-0.51-0.466-3.466,0,0,0,,false,stim,false,0,,2,0,2,64709,task1,1209263,false,false,1582,image-keyboard-response,16
false,12,-1,2,2,false,d,true,false,0.0-2.0-0.51-0.467-3.467,0,0,0,,false,stim,false,1,,2,0,0,64709,task1,1213774,false,false,1585,image-keyboard-response,17
true,12,0,2,1,false,z,false,false,0.0-2.0-0.52-0.468-3.468,0,0,0,81,false,stim,true,0,753,2,0,1,64709,task1,1216030,false,false,1588,image-keyboard-response,18
true,12,0,2,1,false,z,false,false,0.0-2.0-0.52-0.469-3.469,0,0,0,81,false,stim,true,0,729,2,0,1,64709,task1,1218269,false,false,1591,image-keyboard-response,19
true,12,1,2,1,true,z,false,true,0.0-2.0-0.52-0.470-3.470,0,0,0,90,false,stim,false,0,598,2,0,1,64709,task1,1220378,false,false,1594,image-keyboard-response,20
true,12,1,2,1,true,z,false,true,0.0-2.0-0.52-0.471-3.471,0,0,0,90,false,stim,false,0,470,2,0,2,64709,task1,1222357,false,false,1597,image-keyboard-response,21
true,12,2,2,2,true,d,false,true,0.0-2.0-0.52-0.472-3.472,0,0,0,68,false,stim,false,1,431,2,0,0,64709,task1,1224296,false,false,1600,image-keyboard-response,22
true,12,2,2,1,false,z,true,false,0.0-2.0-0.52-0.473-3.473,0,0,0,68,false,stim,false,0,417,2,0,2,64709,task1,1226226,false,false,1603,image-keyboard-response,23
true,12,2,2,2,true,d,false,true,0.0-2.0-0.52-0.474-3.474,0,0,0,68,false,stim,false,1,959,2,0,0,64709,task1,1228688,false,false,1606,image-keyboard-response,24
true,12,2,2,2,true,d,false,true,0.0-2.0-0.52-0.475-3.475,0,0,0,68,false,stim,false,1,1879,2,0,0,64709,task1,1232079,false,false,1609,image-keyboard-response,25
true,12,0,2,1,false,z,false,false,0.0-2.0-0.52-0.476-3.476,0,0,0,81,false,stim,true,0,493,2,0,2,64709,task1,1234080,false,false,1612,image-keyboard-response,26
true,12,2,2,2,true,d,false,true,0.0-2.0-0.53-0.477-3.477,0,0,0,68,false,stim,false,1,416,2,0,0,64709,task1,1236003,false,false,1615,image-keyboard-response,27
true,12,2,2,2,true,d,false,true,0.0-2.0-0.53-0.478-3.478,0,0,0,68,false,stim,false,1,368,2,0,0,64709,task1,1237879,false,false,1618,image-keyboard-response,28
true,12,1,2,1,true,z,false,true,0.0-2.0-0.53-0.479-3.479,0,0,0,90,false,stim,false,0,980,2,0,1,64709,task1,1240363,false,false,1621,image-keyboard-response,29
true,12,0,2,1,false,z,false,true,0.0-2.0-0.53-0.480-3.480,0,0,0,81,false,stim,true,0,422,2,0,2,64709,task1,1242292,false,true,1624,image-keyboard-response,30
true,12,1,2,1,true,z,false,true,0.0-2.0-0.53-0.481-3.481,0,0,0,90,false,stim,false,0,484,2,0,1,64709,task1,1244283,false,false,1627,image-keyboard-response,31
true,12,1,2,1,true,z,false,true,0.0-2.0-0.53-0.482-3.482,0,0,0,90,false,stim,false,0,411,2,0,1,64709,task1,1246199,false,false,1630,image-keyboard-response,32
true,12,2,2,1,false,z,true,false,0.0-2.0-0.53-0.483-3.483,0,0,0,68,false,stim,false,0,1104,2,0,2,64709,task1,1248809,false,false,1633,image-keyboard-response,33
true,12,0,2,2,false,d,true,false,0.0-2.0-0.53-0.484-3.484,0,0,0,81,false,stim,false,1,427,2,0,0,64709,task1,1250741,false,false,1636,image-keyboard-response,34
true,12,1,2,1,true,z,false,true,0.0-2.0-0.53-0.485-3.485,0,0,0,90,false,stim,false,0,990,2,0,2,64709,task1,1253238,false,false,1639,image-keyboard-response,35
true,12,1,2,1,true,z,false,true,0.0-2.0-0.54-0.486-3.486,0,0,0,90,false,stim,false,0,540,2,0,2,64709,task1,1255284,false,false,1642,image-keyboard-response,36
true,12,1,2,2,false,d,false,false,0.0-2.0-0.54-0.487-3.487,0,0,0,90,false,stim,true,1,510,2,0,0,64709,task1,1257300,false,false,1645,image-keyboard-response,37
true,12,2,2,1,false,z,true,false,0.0-2.0-0.54-0.488-3.488,0,0,0,68,false,stim,false,0,555,2,0,2,64709,task1,1259367,false,false,1648,image-keyboard-response,38
true,12,1,2,1,true,z,false,true,0.0-2.0-0.54-0.489-3.489,0,0,0,90,false,stim,false,0,975,2,0,2,64709,task1,1261851,false,false,1651,image-keyboard-response,39
true,12,1,2,1,true,z,false,true,0.0-2.0-0.54-0.490-3.490,0,0,0,90,false,stim,false,0,483,2,0,1,64709,task1,1263840,false,false,1654,image-keyboard-response,40
true,12,1,2,2,false,d,false,false,0.0-2.0-0.54-0.491-3.491,0,0,0,90,false,stim,true,1,748,2,0,0,64709,task1,1266094,false,false,1657,image-keyboard-response,41
true,12,1,2,2,false,d,false,false,0.0-2.0-0.54-0.492-3.492,0,0,0,90,false,stim,true,1,459,2,0,0,64709,task1,1268059,false,false,1660,image-keyboard-response,42
true,12,0,2,1,false,z,false,false,0.0-2.0-0.54-0.493-3.493,0,0,0,81,false,stim,true,0,415,2,0,1,64709,task1,1269980,false,false,1663,image-keyboard-response,43
true,12,2,2,1,false,z,true,false,0.0-2.0-0.54-0.494-3.494,0,0,0,68,false,stim,false,0,784,2,0,1,64709,task1,1272269,false,false,1666,image-keyboard-response,44
true,12,2,2,1,false,z,true,false,0.0-2.0-0.55-0.495-3.495,0,0,0,68,false,stim,false,0,532,2,0,2,64709,task1,1274308,false,false,1669,image-keyboard-response,45
true,13,0,2,1,false,z,true,false,0.0-2.0-0.55-0.496-3.496,0,0,0,81,true,stim,false,2,418,2,0,0,64709,task1,1276235,false,false,1672,image-keyboard-response,1
true,13,2,2,0,false,q,true,false,0.0-2.0-0.55-0.497-3.497,0,0,0,68,false,stim,false,1,460,2,0,1,64709,task1,1278202,false,false,1675,image-keyboard-response,2
true,13,1,2,0,false,q,false,true,0.0-2.0-0.55-0.498-3.498,0,0,0,90,false,stim,true,1,274,2,0,1,64709,task1,1279984,false,true,1678,image-keyboard-response,3
true,13,1,2,1,true,z,false,true,0.0-2.0-0.55-0.499-3.499,0,0,0,90,false,stim,false,2,523,2,0,0,64709,task1,1282014,false,false,1681,image-keyboard-response,4
true,13,1,2,0,false,q,false,false,0.0-2.0-0.55-0.500-3.500,0,0,0,90,false,stim,true,1,78,2,0,2,64709,task1,1283603,false,false,1684,image-keyboard-response,5
true,13,0,2,0,true,q,false,true,0.0-2.0-0.55-0.501-3.501,0,0,0,81,false,stim,false,1,377,2,0,2,64709,task1,1285486,false,false,1687,image-keyboard-response,6
true,13,0,2,0,true,q,false,true,0.0-2.0-0.55-0.502-3.502,0,0,0,81,false,stim,false,1,668,2,0,1,64709,task1,1287658,false,false,1690,image-keyboard-response,7
true,13,0,2,1,false,z,true,false,0.0-2.0-0.55-0.503-3.503,0,0,0,81,false,stim,false,2,555,2,0,0,64709,task1,1289719,false,false,1693,image-keyboard-response,8
true,13,1,2,1,true,z,false,true,0.0-2.0-0.56-0.504-3.504,0,0,0,90,false,stim,false,2,737,2,0,0,64709,task1,1291964,false,false,1696,image-keyboard-response,9
true,13,1,2,1,true,z,false,true,0.0-2.0-0.56-0.505-3.505,0,0,0,90,false,stim,false,2,493,2,0,0,64709,task1,1293965,false,false,1699,image-keyboard-response,10
true,13,1,2,0,false,q,false,false,0.0-2.0-0.56-0.506-3.506,0,0,0,90,false,stim,true,1,561,2,0,1,64709,task1,1296035,false,false,1702,image-keyboard-response,11
true,13,2,2,1,false,z,false,false,0.0-2.0-0.56-0.507-3.507,0,0,0,68,false,stim,true,2,891,2,0,0,64709,task1,1298433,false,false,1705,image-keyboard-response,12
true,13,2,2,0,false,q,true,false,0.0-2.0-0.56-0.508-3.508,0,0,0,68,false,stim,false,1,537,2,0,1,64709,task1,1300475,false,false,1708,image-keyboard-response,13
true,13,0,2,0,true,q,false,true,0.0-2.0-0.56-0.509-3.509,0,0,0,81,false,stim,false,1,412,2,0,2,64709,task1,1302398,false,false,1711,image-keyboard-response,14
true,13,0,2,0,true,q,false,true,0.0-2.0-0.56-0.510-3.510,0,0,0,81,false,stim,false,1,360,2,0,2,64709,task1,1304263,false,false,1714,image-keyboard-response,15
true,13,0,2,0,true,q,false,true,0.0-2.0-0.56-0.511-3.511,0,0,0,81,false,stim,false,1,504,2,0,1,64709,task1,1306272,false,false,1717,image-keyboard-response,16
true,13,1,2,0,false,q,false,false,0.0-2.0-0.56-0.512-3.512,0,0,0,90,false,stim,true,1,887,2,0,2,64709,task1,1308672,false,false,1720,image-keyboard-response,17
true,13,0,2,0,true,q,false,true,0.0-2.0-0.57-0.513-3.513,0,0,0,81,false,stim,false,1,426,2,0,2,64709,task1,1310601,false,false,1723,image-keyboard-response,18
true,13,0,2,0,true,q,false,true,0.0-2.0-0.57-0.514-3.514,0,0,0,81,false,stim,false,1,506,2,0,2,64709,task1,1312614,false,false,1726,image-keyboard-response,19
true,13,2,2,1,false,z,false,false,0.0-2.0-0.57-0.515-3.515,0,0,0,68,false,stim,true,2,815,2,0,0,64709,task1,1314938,false,false,1729,image-keyboard-response,20
true,13,0,2,1,false,z,true,false,0.0-2.0-0.57-0.516-3.516,0,0,0,81,false,stim,false,2,1017,2,0,0,64709,task1,1317458,false,false,1732,image-keyboard-response,21
true,13,0,2,0,true,q,false,true,0.0-2.0-0.57-0.517-3.517,0,0,0,81,false,stim,false,1,1108,2,0,1,64709,task1,1320072,false,false,1735,image-keyboard-response,22
true,13,0,2,0,true,q,false,true,0.0-2.0-0.57-0.518-3.518,0,0,0,81,false,stim,false,1,424,2,0,1,64709,task1,1322001,false,false,1738,image-keyboard-response,23
true,13,0,2,1,false,z,true,false,0.0-2.0-0.57-0.519-3.519,0,0,0,81,false,stim,false,2,529,2,0,0,64709,task1,1324037,false,false,1741,image-keyboard-response,24
true,13,0,2,0,true,q,false,true,0.0-2.0-0.57-0.520-3.520,0,0,0,81,false,stim,false,1,796,2,0,1,64709,task1,1326340,false,false,1744,image-keyboard-response,25
true,13,1,2,0,false,q,false,false,0.0-2.0-0.57-0.521-3.521,0,0,0,90,false,stim,true,1,908,2,0,2,64709,task1,1328755,false,false,1747,image-keyboard-response,26
true,13,0,2,0,true,q,false,true,0.0-2.0-0.58-0.522-3.522,0,0,0,81,false,stim,false,1,1187,2,0,2,64709,task1,1331453,false,false,1750,image-keyboard-response,27
true,13,2,2,0,false,q,true,true,0.0-2.0-0.58-0.523-3.523,0,0,0,68,false,stim,false,1,1069,2,0,1,64709,task1,1334029,false,true,1753,image-keyboard-response,28
true,13,0,2,1,false,z,true,false,0.0-2.0-0.58-0.524-3.524,0,0,0,81,false,stim,false,2,745,2,0,0,64709,task1,1336280,false,false,1756,image-keyboard-response,29
true,13,2,2,0,false,q,true,true,0.0-2.0-0.58-0.525-3.525,0,0,0,68,false,stim,false,1,525,2,0,2,64709,task1,1338315,false,true,1759,image-keyboard-response,30
true,13,1,2,1,true,z,false,true,0.0-2.0-0.58-0.526-3.526,0,0,0,90,false,stim,false,2,1186,2,0,0,64709,task1,1341013,false,false,1762,image-keyboard-response,31
true,13,0,2,0,true,q,false,true,0.0-2.0-0.58-0.527-3.527,0,0,0,81,false,stim,false,1,657,2,0,1,64709,task1,1343175,false,false,1765,image-keyboard-response,32
true,13,0,2,0,true,q,false,true,0.0-2.0-0.58-0.528-3.528,0,0,0,81,false,stim,false,1,624,2,0,1,64709,task1,1345306,false,false,1768,image-keyboard-response,33
true,13,2,2,0,false,q,true,false,0.0-2.0-0.58-0.529-3.529,0,0,0,68,false,stim,false,1,563,2,0,2,64709,task1,1347375,false,false,1771,image-keyboard-response,34
true,13,1,2,1,true,z,false,true,0.0-2.0-0.58-0.530-3.530,0,0,0,90,false,stim,false,2,1077,2,0,0,64709,task1,1349961,false,false,1774,image-keyboard-response,35
true,13,1,2,1,true,z,false,true,0.0-2.0-0.59-0.531-3.531,0,0,0,90,false,stim,false,2,482,2,0,0,64709,task1,1351951,false,false,1777,image-keyboard-response,36
true,13,0,2,0,true,q,false,true,0.0-2.0-0.59-0.532-3.532,0,0,0,81,false,stim,false,1,868,2,0,2,64709,task1,1354325,false,false,1780,image-keyboard-response,37
true,13,1,2,0,false,q,false,false,0.0-2.0-0.59-0.533-3.533,0,0,0,90,false,stim,true,1,643,2,0,1,64709,task1,1356477,false,false,1783,image-keyboard-response,38
true,13,1,2,1,true,z,false,true,0.0-2.0-0.59-0.534-3.534,0,0,0,90,false,stim,false,2,571,2,1,0,64709,task1,1358553,false,false,1786,image-keyboard-response,39
true,13,0,2,0,true,q,false,true,0.0-2.0-0.59-0.535-3.535,0,0,0,81,false,stim,false,1,805,2,1,2,64709,task1,1360863,false,false,1789,image-keyboard-response,40
true,13,0,2,0,true,q,false,false,0.0-2.0-0.59-0.536-3.536,0,0,0,81,false,stim,false,1,950,2,1,1,64709,task1,1363319,false,true,1792,image-keyboard-response,41
true,13,1,2,0,false,q,false,false,0.0-2.0-0.59-0.537-3.537,0,0,0,90,false,stim,true,1,464,2,1,2,64709,task1,1365290,false,false,1795,image-keyboard-response,42
true,13,2,2,1,false,z,false,false,0.0-2.0-0.59-0.538-3.538,0,0,0,68,false,stim,true,2,814,2,1,0,64709,task1,1367611,false,false,1798,image-keyboard-response,43
true,14,0,0,0,true,q,false,true,0.0-2.0-0.59-0.539-3.539,1,1,1,81,true,stim,false,0,825,2,1,1,64709,task1,1375015,false,false,1807,image-keyboard-response,1
true,14,1,0,0,false,q,true,false,0.0-2.0-0.60-0.540-3.540,1,1,1,90,false,stim,false,0,437,2,1,1,64709,task1,1376960,false,false,1810,image-keyboard-response,2
false,14,-1,0,0,false,q,true,false,0.0-2.0-0.60-0.541-3.541,1,1,1,,false,stim,false,0,,2,1,2,64709,task1,1381469,false,false,1813,image-keyboard-response,3
true,14,0,0,1,false,z,true,false,0.0-2.0-0.60-0.542-3.542,1,1,1,81,false,stim,false,1,1300,2,1,0,64709,task1,1384273,false,false,1816,image-keyboard-response,4
true,14,2,0,0,false,q,true,false,0.0-2.0-0.60-0.543-3.543,1,1,1,68,false,stim,false,0,659,2,1,1,64709,task1,1386439,false,false,1819,image-keyboard-response,5
true,14,0,0,1,false,z,true,false,0.0-2.0-0.60-0.544-3.544,1,1,1,81,false,stim,false,1,628,2,1,0,64709,task1,1388578,false,false,1822,image-keyboard-response,6
true,14,0,0,0,true,q,false,true,0.0-2.0-0.60-0.545-3.545,1,1,1,81,false,stim,false,0,516,2,1,1,64709,task1,1390604,false,false,1825,image-keyboard-response,7
true,14,1,0,0,false,q,true,false,0.0-2.0-0.60-0.546-3.546,1,1,1,90,false,stim,false,0,893,2,1,2,64709,task1,1393003,false,false,1828,image-keyboard-response,8
true,14,0,0,1,false,z,true,false,0.0-2.0-0.60-0.547-3.547,1,1,1,81,false,stim,false,1,736,2,0,0,64709,task1,1395247,false,false,1831,image-keyboard-response,9
true,14,0,0,0,true,q,false,true,0.0-2.0-0.60-0.548-3.548,1,1,1,81,false,stim,false,0,1487,2,0,2,64709,task1,1398242,false,false,1834,image-keyboard-response,10
true,14,0,0,0,true,q,false,true,0.0-2.0-0.61-0.549-3.549,1,1,1,81,false,stim,false,0,727,2,0,1,64709,task1,1400480,false,false,1837,image-keyboard-response,11
true,14,1,0,1,true,z,false,true,0.0-2.0-0.61-0.550-3.550,1,1,1,90,false,stim,false,1,1289,2,0,0,64709,task1,1403274,false,false,1840,image-keyboard-response,12
true,14,1,0,1,true,z,false,true,0.0-2.0-0.61-0.551-3.551,1,1,1,90,false,stim,false,1,511,2,0,0,64709,task1,1405290,false,false,1843,image-keyboard-response,13
true,15,0,1,2,false,d,false,false,0.0-2.0-0.61-0.552-3.552,0,0,0,81,true,stim,true,0,1208,2,0,1,64709,task1,1408005,false,false,1846,image-keyboard-response,1
true,15,2,1,1,false,z,true,false,0.0-2.0-0.61-0.553-3.553,0,0,0,68,false,stim,false,0,1615,2,0,2,64709,task1,1411129,false,false,1849,image-keyboard-response,2
true,15,0,1,2,false,d,false,false,0.0-2.0-0.61-0.554-3.554,0,0,0,81,false,stim,true,0,724,2,0,1,64709,task1,1413357,false,false,1852,image-keyboard-response,3
true,15,1,1,1,true,z,false,true,0.0-2.0-0.61-0.555-3.555,0,0,0,90,false,stim,false,0,1142,2,0,2,64709,task1,1416011,false,false,1855,image-keyboard-response,4
true,15,1,1,2,false,d,false,false,0.0-2.0-0.61-0.556-3.556,0,0,0,90,false,stim,true,1,457,2,0,0,64709,task1,1417978,false,false,1858,image-keyboard-response,5
true,15,1,1,1,true,z,false,true,0.0-2.0-0.61-0.557-3.557,0,0,0,90,false,stim,false,0,505,2,0,2,64709,task1,1419993,false,false,1861,image-keyboard-response,6
true,15,2,1,2,true,d,false,true,0.0-2.0-0.62-0.558-3.558,0,0,0,68,false,stim,false,0,1041,2,0,1,64709,task1,1422545,false,false,1864,image-keyboard-response,7
true,15,2,1,1,false,z,true,false,0.0-2.0-0.62-0.559-3.559,0,0,0,68,false,stim,false,0,475,2,0,2,64709,task1,1424524,false,false,1867,image-keyboard-response,8
true,15,0,1,2,false,d,true,false,0.0-2.0-0.62-0.560-3.560,0,0,0,81,false,stim,false,1,635,2,0,0,64709,task1,1426667,false,false,1870,image-keyboard-response,9
true,15,1,1,1,true,z,false,true,0.0-2.0-0.62-0.561-3.561,0,0,0,90,false,stim,false,0,193,2,0,2,64709,task1,1428364,false,false,1873,image-keyboard-response,10
true,15,1,1,2,false,d,false,false,0.0-2.0-0.62-0.562-3.562,0,0,0,90,false,stim,true,1,310,2,0,0,64709,task1,1430180,false,false,1876,image-keyboard-response,11
true,15,2,1,2,true,d,false,true,0.0-2.0-0.62-0.563-3.563,0,0,0,68,false,stim,false,0,439,2,0,1,64709,task1,1432128,false,false,1879,image-keyboard-response,12
true,15,2,1,2,true,d,false,false,0.0-2.0-0.62-0.564-3.564,0,0,0,68,false,stim,false,1,346,2,0,0,64709,task1,1433983,false,true,1882,image-keyboard-response,13
true,15,0,1,2,false,d,false,false,0.0-2.0-0.62-0.565-3.565,0,0,0,81,false,stim,true,0,57,2,0,1,64709,task1,1435549,false,false,1885,image-keyboard-response,14
true,15,1,1,1,true,z,false,true,0.0-2.0-0.62-0.566-3.566,0,0,0,90,false,stim,false,0,395,2,0,2,64709,task1,1437451,false,false,1888,image-keyboard-response,15
true,15,1,1,2,false,d,false,false,0.0-2.0-0.63-0.567-3.567,0,0,0,90,false,stim,true,1,398,2,0,0,64709,task1,1439355,false,false,1891,image-keyboard-response,16
true,15,0,1,2,false,d,false,false,0.0-2.0-0.63-0.568-3.568,0,0,0,81,false,stim,true,0,119,2,0,1,64709,task1,1440980,false,false,1894,image-keyboard-response,17
true,15,1,1,1,true,z,false,true,0.0-2.0-0.63-0.569-3.569,0,0,0,90,false,stim,false,0,402,2,0,2,64709,task1,1442894,false,false,1897,image-keyboard-response,18
true,15,1,1,2,false,d,false,false,0.0-2.0-0.63-0.570-3.570,0,0,0,90,false,stim,true,1,401,2,0,0,64709,task1,1444800,false,false,1900,image-keyboard-response,19
true,15,2,1,1,false,z,true,false,0.0-2.0-0.63-0.571-3.571,0,0,0,68,false,stim,false,0,452,2,0,2,64709,task1,1446764,false,false,1903,image-keyboard-response,20
true,15,2,1,1,false,z,true,false,0.0-2.0-0.63-0.572-3.572,0,0,0,68,false,stim,false,0,396,2,0,2,64709,task1,1448670,false,false,1906,image-keyboard-response,21
true,15,0,1,2,false,d,true,false,0.0-2.0-0.63-0.573-3.573,0,0,0,81,false,stim,false,1,86,2,0,0,64709,task1,1450262,false,false,1909,image-keyboard-response,22
true,15,1,1,2,false,d,true,false,0.0-2.0-0.63-0.574-3.574,0,0,0,90,false,stim,false,0,327,2,0,1,64709,task1,1452096,false,false,1912,image-keyboard-response,23
true,15,0,1,2,false,d,false,false,0.0-2.0-0.63-0.575-3.575,0,0,0,81,false,stim,true,0,202,2,0,1,64709,task1,1453807,false,false,1915,image-keyboard-response,24
true,15,1,1,1,true,z,false,true,0.0-2.0-0.64-0.576-3.576,0,0,0,90,false,stim,false,0,405,2,0,2,64709,task1,1455723,false,false,1918,image-keyboard-response,25
true,15,1,1,2,false,d,false,false,0.0-2.0-0.64-0.577-3.577,0,0,0,90,false,stim,true,1,306,2,0,0,64709,task1,1457537,false,false,1921,image-keyboard-response,26
true,15,2,1,2,true,d,false,false,0.0-2.0-0.64-0.578-3.578,0,0,0,68,false,stim,false,1,820,2,0,0,64709,task1,1459866,false,true,1924,image-keyboard-response,27
true,15,0,1,2,false,d,false,false,0.0-2.0-0.64-0.579-3.579,0,0,0,81,false,stim,true,0,473,2,0,1,64709,task1,1461849,false,false,1927,image-keyboard-response,28
true,15,1,1,1,true,z,false,true,0.0-2.0-0.64-0.580-3.580,0,0,0,90,false,stim,false,0,417,2,0,2,64709,task1,1463776,false,false,1930,image-keyboard-response,29
true,15,2,1,2,true,d,false,true,0.0-2.0-0.64-0.581-3.581,0,0,0,68,false,stim,false,1,822,2,0,0,64709,task1,1466105,false,false,1933,image-keyboard-response,30
true,15,2,1,2,true,d,false,true,0.0-2.0-0.64-0.582-3.582,0,0,0,68,false,stim,false,0,509,2,0,1,64709,task1,1468126,false,false,1936,image-keyboard-response,31
true,15,2,1,1,false,z,true,false,0.0-2.0-0.64-0.583-3.583,0,0,0,68,false,stim,false,0,229,2,0,2,64709,task1,1469860,false,false,1939,image-keyboard-response,32
true,15,0,1,2,false,d,false,false,0.0-2.0-0.64-0.584-3.584,0,0,0,81,false,stim,true,0,431,2,0,1,64709,task1,1471797,false,false,1942,image-keyboard-response,33
true,15,1,1,1,true,z,false,true,0.0-2.0-0.65-0.585-3.585,0,0,0,90,false,stim,false,0,205,2,0,2,64709,task1,1473513,false,false,1945,image-keyboard-response,34
true,15,1,1,2,false,d,true,false,0.0-2.0-0.65-0.586-3.586,0,0,0,90,false,stim,false,0,488,2,0,1,64709,task1,1475508,false,false,1948,image-keyboard-response,35
true,15,0,1,2,false,d,true,true,0.0-2.0-0.65-0.587-3.587,0,0,0,81,false,stim,false,1,474,2,0,0,64709,task1,1477488,false,true,1951,image-keyboard-response,36
true,15,1,1,2,false,d,false,false,0.0-2.0-0.65-0.588-3.588,0,0,0,90,false,stim,true,1,622,2,0,0,64709,task1,1479616,false,false,1954,image-keyboard-response,37
true,15,2,1,1,false,z,true,false,0.0-2.0-0.65-0.589-3.589,0,0,0,68,false,stim,false,0,657,2,0,2,64709,task1,1481785,false,false,1957,image-keyboard-response,38
true,15,0,1,1,false,z,false,false,0.0-2.0-0.65-0.590-3.590,0,0,0,81,false,stim,true,0,12,2,0,2,64709,task1,1483310,false,false,1960,image-keyboard-response,39
true,16,1,2,0,false,q,true,false,0.0-2.0-0.65-0.591-3.591,0,0,0,90,true,stim,false,2,1225,2,0,1,64709,task1,1486043,false,false,1963,image-keyboard-response,1
true,16,1,2,1,true,z,false,false,0.0-2.0-0.65-0.592-3.592,0,0,0,90,false,stim,false,2,797,2,0,0,64709,task1,1488350,false,true,1966,image-keyboard-response,2
true,16,2,2,0,false,q,false,false,0.0-2.0-0.65-0.593-3.593,0,0,0,68,false,stim,true,2,959,2,0,1,64709,task1,1490818,false,false,1969,image-keyboard-response,3
true,16,0,2,0,true,q,false,true,0.0-2.0-0.66-0.594-3.594,0,0,0,81,false,stim,false,2,1390,2,0,1,64709,task1,1493719,false,false,1972,image-keyboard-response,4
true,16,0,2,0,true,q,false,true,0.0-2.0-0.66-0.595-3.595,0,0,0,81,false,stim,false,1,72,2,0,2,64709,task1,1495300,false,false,1975,image-keyboard-response,5
true,16,0,2,1,false,z,true,false,0.0-2.0-0.66-0.596-3.596,0,0,0,81,false,stim,false,2,541,2,0,0,64709,task1,1497353,false,false,1978,image-keyboard-response,6
true,16,0,2,1,false,z,true,false,0.0-2.0-0.66-0.597-3.597,0,0,0,81,false,stim,false,2,14,2,0,0,64709,task1,1498876,false,false,1981,image-keyboard-response,7
true,16,1,2,1,true,z,false,true,0.0-2.0-0.66-0.598-3.598,0,0,0,90,false,stim,false,2,1296,2,0,0,64709,task1,1501678,false,false,1984,image-keyboard-response,8
true,16,0,2,0,true,q,false,true,0.0-2.0-0.66-0.599-3.599,0,0,0,81,false,stim,false,1,640,2,0,2,64709,task1,1503827,false,false,1987,image-keyboard-response,9
true,16,1,2,0,false,q,false,false,0.0-2.0-0.66-0.600-3.600,0,0,0,90,false,stim,true,1,576,2,0,2,64709,task1,1505912,false,false,1990,image-keyboard-response,10
true,16,0,2,0,true,q,false,true,0.0-2.0-0.66-0.601-3.601,0,0,0,81,false,stim,false,2,483,2,0,1,64709,task1,1507904,false,false,1993,image-keyboard-response,11
true,16,1,2,0,false,q,true,false,0.0-2.0-0.66-0.602-3.602,0,0,0,90,false,stim,false,2,617,2,0,1,64709,task1,1510029,false,false,1996,image-keyboard-response,12
true,16,2,2,0,false,q,true,true,0.0-2.0-0.67-0.603-3.603,0,0,0,68,false,stim,false,1,1306,2,0,2,64709,task1,1512846,false,true,1999,image-keyboard-response,13
true,16,0,2,1,false,z,true,true,0.0-2.0-0.67-0.604-3.604,0,0,0,81,false,stim,false,2,575,2,0,0,64709,task1,1514933,false,true,2002,image-keyboard-response,14
true,16,2,2,0,false,q,false,false,0.0-2.0-0.67-0.605-3.605,0,0,0,68,false,stim,true,2,680,2,0,1,64709,task1,1517122,false,false,2005,image-keyboard-response,15
true,16,0,2,1,false,z,true,false,0.0-2.0-0.67-0.606-3.606,0,0,0,81,false,stim,false,2,418,2,0,0,64709,task1,1519048,false,false,2008,image-keyboard-response,16
true,16,1,2,0,false,q,true,false,0.0-2.0-0.67-0.607-3.607,0,0,0,90,false,stim,false,2,610,2,0,1,64709,task1,1521166,false,false,2011,image-keyboard-response,17
true,16,0,2,1,false,z,true,true,0.0-2.0-0.67-0.608-3.608,0,0,0,81,false,stim,false,2,464,2,0,0,64709,task1,1523139,false,true,2014,image-keyboard-response,18
true,16,0,2,0,true,q,false,true,0.0-2.0-0.67-0.609-3.609,0,0,0,81,false,stim,false,1,451,2,0,2,64709,task1,1525096,false,false,2017,image-keyboard-response,19
true,16,0,2,0,true,q,false,true,0.0-2.0-0.67-0.610-3.610,0,0,0,81,false,stim,false,1,899,2,0,2,64709,task1,1527503,false,false,2020,image-keyboard-response,20
true,16,1,2,0,false,q,true,true,0.0-2.0-0.67-0.611-3.611,0,0,0,90,false,stim,false,2,878,2,0,1,64709,task1,1529891,false,true,2023,image-keyboard-response,21
true,16,1,2,1,true,z,false,true,0.0-2.0-0.68-0.612-3.612,0,0,0,90,false,stim,false,2,510,2,0,0,64709,task1,1531908,false,false,2026,image-keyboard-response,22
true,16,1,2,0,false,q,false,false,0.0-2.0-0.68-0.613-3.613,0,0,0,90,false,stim,true,1,431,2,0,2,64709,task1,1533850,false,false,2029,image-keyboard-response,23
true,16,2,2,1,false,z,false,false,0.0-2.0-0.68-0.614-3.614,0,0,0,68,false,stim,true,2,905,2,0,0,64709,task1,1536260,false,false,2032,image-keyboard-response,24
true,16,2,2,0,false,q,false,true,0.0-2.0-0.68-0.615-3.615,0,0,0,68,false,stim,true,2,619,2,0,1,64709,task1,1538386,false,true,2035,image-keyboard-response,25
true,16,2,2,0,false,q,false,false,0.0-2.0-0.68-0.616-3.616,0,0,0,68,false,stim,true,2,497,2,0,1,64709,task1,1540391,false,false,2038,image-keyboard-response,26
true,16,0,2,0,true,q,false,true,0.0-2.0-0.68-0.617-3.617,0,0,0,81,false,stim,false,1,459,2,0,2,64709,task1,1542360,false,false,2041,image-keyboard-response,27
true,16,0,2,0,true,q,false,true,0.0-2.0-0.68-0.618-3.618,0,0,0,81,false,stim,false,2,709,2,0,1,64709,task1,1544578,false,false,2044,image-keyboard-response,28
true,16,0,2,1,false,z,true,false,0.0-2.0-0.68-0.619-3.619,0,0,0,81,false,stim,false,2,633,2,0,0,64709,task1,1546718,false,false,2047,image-keyboard-response,29
true,16,0,2,0,true,q,false,false,0.0-2.0-0.68-0.620-3.620,0,0,0,81,false,stim,false,1,447,2,0,2,64709,task1,1548674,false,true,2050,image-keyboard-response,30
true,16,1,2,0,false,q,false,false,0.0-2.0-0.69-0.621-3.621,0,0,0,90,false,stim,true,1,792,2,0,2,64709,task1,1550974,false,false,2053,image-keyboard-response,31
true,16,2,2,1,false,z,false,false,0.0-2.0-0.69-0.622-3.622,0,0,0,68,false,stim,true,2,504,2,0,0,64709,task1,1552987,false,false,2056,image-keyboard-response,32
true,16,0,2,0,true,q,false,false,0.0-2.0-0.69-0.623-3.623,0,0,0,81,false,stim,false,1,634,2,0,2,64709,task1,1555129,false,true,2059,image-keyboard-response,33
true,16,1,2,1,true,z,false,true,0.0-2.0-0.69-0.624-3.624,0,0,0,90,false,stim,false,2,535,2,0,0,64709,task1,1557172,false,false,2062,image-keyboard-response,34
true,16,1,2,0,false,q,false,false,0.0-2.0-0.69-0.625-3.625,0,0,0,90,false,stim,true,1,1699,2,0,2,64709,task1,1560378,false,false,2065,image-keyboard-response,35
true,16,1,2,0,false,q,true,false,0.0-2.0-0.69-0.626-3.626,0,0,0,90,false,stim,false,2,332,2,0,1,64709,task1,1562219,false,false,2068,image-keyboard-response,36
true,16,1,2,0,false,q,true,false,0.0-2.0-0.69-0.627-3.627,0,0,0,90,false,stim,false,2,408,2,0,1,64709,task1,1564132,false,false,2071,image-keyboard-response,37
true,16,2,2,0,false,q,false,true,0.0-2.0-0.69-0.628-3.628,0,0,0,68,false,stim,true,2,989,2,0,1,64709,task1,1566627,false,true,2074,image-keyboard-response,38
true,16,2,2,1,false,z,false,false,0.0-2.0-0.69-0.629-3.629,0,0,0,68,false,stim,true,2,530,2,0,0,64709,task1,1568669,false,false,2077,image-keyboard-response,39
true,16,0,2,0,true,q,false,true,0.0-2.0-0.70-0.630-3.630,0,0,0,81,false,stim,false,1,505,2,0,2,64709,task1,1570682,false,false,2080,image-keyboard-response,40
true,16,0,2,0,true,q,false,true,0.0-2.0-0.70-0.631-3.631,0,0,0,81,false,stim,false,1,437,2,0,2,64709,task1,1572629,false,false,2083,image-keyboard-response,41
true,17,0,2,1,false,z,false,false,0.0-2.0-0.70-0.632-3.632,0,0,0,81,true,stim,true,0,556,2,0,1,64709,task1,1574692,false,false,2086,image-keyboard-response,1
true,17,2,2,2,true,d,false,true,0.0-2.0-0.70-0.633-3.633,0,0,0,68,false,stim,false,1,574,2,0,0,64709,task1,1576776,false,false,2089,image-keyboard-response,2
