answered,blockNum,choice,condition,corResp,correct,correct_response,explo,fb,internal_node_id,isStable_1,isStable_2,isStable_3,key_press,newBlock,part,persev,persevResp,rt,sessNum,stableAS,stimulus,subject,task,time_elapsed,training,trap,trial_index,trial_type,trialsInBlock
true,1,0,0,0,true,q,false,true,0.0-2.0-0.0-0.0-3.0,0,0,0,81,true,stim,false,-1,2461,0,0,0,64709,task3,874028,false,false,190,image-keyboard-response,1
true,1,1,0,0,false,q,true,false,0.0-2.0-0.0-0.1-3.1,0,0,0,90,false,stim,false,-1,1843,0,0,0,64709,task3,877378,false,false,193,image-keyboard-response,2
true,1,1,0,1,true,z,false,true,0.0-2.0-0.0-0.2-3.2,0,0,0,90,false,stim,false,-1,1556,0,0,2,64709,task3,880441,false,false,196,image-keyboard-response,3
true,1,2,0,2,true,d,false,true,0.0-2.0-0.0-0.3-3.3,0,0,0,68,false,stim,false,-1,2641,0,0,1,64709,task3,884593,false,false,199,image-keyboard-response,4
true,1,0,0,0,true,q,false,true,0.0-2.0-0.0-0.4-3.4,0,0,0,81,false,stim,false,-1,1843,0,0,0,64709,task3,887945,false,false,202,image-keyboard-response,5
true,1,2,0,1,false,z,true,false,0.0-2.0-0.0-0.5-3.5,0,0,0,68,false,stim,false,-1,1559,0,0,2,64709,task3,891014,false,false,205,image-keyboard-response,6
true,1,1,0,1,true,z,false,true,0.0-2.0-0.0-0.6-3.6,0,0,0,90,false,stim,false,-1,1276,0,0,2,64709,task3,893799,false,false,208,image-keyboard-response,7
true,1,2,0,2,true,d,false,true,0.0-2.0-0.0-0.7-3.7,0,0,0,68,false,stim,false,-1,1746,0,0,1,64709,task3,897049,false,false,211,image-keyboard-response,8
true,1,2,0,2,true,d,false,true,0.0-2.0-0.0-0.8-3.8,0,0,0,68,false,stim,false,-1,1696,0,0,1,64709,task3,900257,false,false,214,image-keyboard-response,9
true,1,2,0,2,true,d,false,true,0.0-2.0-0.1-0.9-3.9,0,0,0,68,false,stim,false,-1,1601,0,0,1,64709,task3,903367,false,false,217,image-keyboard-response,10
true,1,2,0,1,false,z,true,false,0.0-2.0-0.1-0.10-3.10,0,0,0,68,false,stim,false,-1,2382,0,0,2,64709,task3,907261,false,false,220,image-keyboard-response,11
true,1,1,0,2,false,d,true,false,0.0-2.0-0.1-0.11-3.11,0,0,0,90,false,stim,false,-1,1695,0,0,1,64709,task3,910468,false,false,223,image-keyboard-response,12
true,1,2,0,1,false,z,true,false,0.0-2.0-0.1-0.12-3.12,0,0,0,68,false,stim,false,-1,1314,0,0,2,64709,task3,913294,false,false,226,image-keyboard-response,13
true,1,0,0,1,false,z,true,false,0.0-2.0-0.1-0.13-3.13,0,0,0,81,false,stim,false,-1,2059,0,0,2,64709,task3,916864,false,false,229,image-keyboard-response,14
true,1,0,0,0,true,q,false,true,0.0-2.0-0.1-0.14-3.14,0,0,0,81,false,stim,false,-1,1657,0,0,0,64709,task3,920030,false,false,232,image-keyboard-response,15
true,1,0,0,0,true,q,false,true,0.0-2.0-0.1-0.15-3.15,0,0,0,81,false,stim,false,-1,1655,0,0,0,64709,task3,923197,false,false,235,image-keyboard-response,16
true,1,0,0,0,true,q,false,true,0.0-2.0-0.1-0.16-3.16,0,0,0,81,false,stim,false,-1,1193,0,0,0,64709,task3,925902,false,false,238,image-keyboard-response,17
true,1,1,0,2,false,d,true,false,0.0-2.0-0.1-0.17-3.17,0,0,0,90,false,stim,false,-1,2734,0,0,1,64709,task3,930146,false,false,241,image-keyboard-response,18
true,1,2,0,2,true,d,false,true,0.0-2.0-0.2-0.18-3.18,0,0,0,68,false,stim,false,-1,1897,0,0,1,64709,task3,933549,false,false,244,image-keyboard-response,19
true,1,2,0,0,false,q,true,false,0.0-2.0-0.2-0.19-3.19,0,0,0,68,false,stim,false,-1,2276,0,0,0,64709,task3,937333,false,false,247,image-keyboard-response,20
true,1,0,0,2,false,d,true,false,0.0-2.0-0.2-0.20-3.20,0,0,0,81,false,stim,false,-1,1936,0,1,1,64709,task3,940778,false,false,250,image-keyboard-response,21
true,1,1,0,0,false,q,true,true,0.0-2.0-0.2-0.21-3.21,0,0,0,90,false,stim,false,-1,1507,0,0,0,64709,task3,943792,false,true,253,image-keyboard-response,22
true,1,1,0,1,true,z,false,true,0.0-2.0-0.2-0.22-3.22,0,0,0,90,false,stim,false,-1,2420,0,0,2,64709,task3,947719,false,false,256,image-keyboard-response,23
true,1,1,0,1,true,z,false,true,0.0-2.0-0.2-0.23-3.23,0,0,0,90,false,stim,false,-1,1821,0,0,2,64709,task3,951045,false,false,259,image-keyboard-response,24
true,1,1,0,1,true,z,false,true,0.0-2.0-0.2-0.24-3.24,0,0,0,90,false,stim,false,-1,1023,0,0,2,64709,task3,953578,false,false,262,image-keyboard-response,25
true,2,0,1,1,false,z,false,false,0.0-2.0-0.2-0.25-3.25,0,1,0,81,true,stim,true,0,2107,0,0,0,64709,task3,957196,false,false,265,image-keyboard-response,1
true,2,0,1,2,false,d,true,false,0.0-2.0-0.2-0.26-3.26,0,1,0,81,false,stim,false,2,1270,0,1,1,64709,task3,959976,false,false,268,image-keyboard-response,2
true,2,1,1,2,false,d,true,false,0.0-2.0-0.3-0.27-3.27,0,1,0,90,false,stim,false,2,1943,0,1,1,64709,task3,963430,false,false,271,image-keyboard-response,3
true,2,2,1,2,true,d,false,true,0.0-2.0-0.3-0.28-3.28,0,1,0,68,false,stim,false,2,1284,0,1,1,64709,task3,966224,false,false,274,image-keyboard-response,4
true,2,0,1,2,false,d,true,false,0.0-2.0-0.3-0.29-3.29,0,1,0,81,false,stim,false,1,1794,0,0,2,64709,task3,969521,false,false,277,image-keyboard-response,5
true,2,1,1,2,false,d,false,false,0.0-2.0-0.3-0.30-3.30,0,1,0,90,false,stim,true,1,2360,0,0,2,64709,task3,973387,false,false,280,image-keyboard-response,6
true,2,1,1,1,true,z,false,true,0.0-2.0-0.3-0.31-3.31,0,1,0,90,false,stim,false,0,1618,0,0,0,64709,task3,976514,false,false,283,image-keyboard-response,7
true,2,1,1,2,false,d,false,false,0.0-2.0-0.3-0.32-3.32,0,1,0,90,false,stim,true,1,2843,0,0,2,64709,task3,980865,false,false,286,image-keyboard-response,8
true,2,0,1,1,false,z,false,false,0.0-2.0-0.3-0.33-3.33,0,1,0,81,false,stim,true,0,1942,0,0,0,64709,task3,984318,false,false,289,image-keyboard-response,9
true,2,1,1,1,true,z,false,true,0.0-2.0-0.3-0.34-3.34,0,1,0,90,false,stim,false,0,1793,0,0,0,64709,task3,987620,false,false,292,image-keyboard-response,10
true,2,0,1,2,false,d,true,false,0.0-2.0-0.3-0.35-3.35,0,1,0,81,false,stim,false,2,1814,0,1,1,64709,task3,990944,false,false,295,image-keyboard-response,11
true,2,0,1,2,false,d,true,false,0.0-2.0-0.4-0.36-3.36,0,1,0,81,false,stim,false,1,1655,0,0,2,64709,task3,994109,false,false,298,image-keyboard-response,12
true,2,0,1,1,false,z,false,false,0.0-2.0-0.4-0.37-3.37,0,1,0,81,false,stim,true,0,1330,0,0,0,64709,task3,996951,false,false,301,image-keyboard-response,13
true,2,1,1,2,false,d,true,false,0.0-2.0-0.4-0.38-3.38,0,1,0,90,false,stim,false,2,1581,0,1,1,64709,task3,1000043,false,false,304,image-keyboard-response,14
true,2,1,1,1,true,z,false,true,0.0-2.0-0.4-0.39-3.39,0,1,0,90,false,stim,false,0,2093,0,0,0,64709,task3,1003645,false,false,307,image-keyboard-response,15
true,2,1,1,2,false,d,false,false,0.0-2.0-0.4-0.40-3.40,0,1,0,90,false,stim,true,1,1028,0,0,2,64709,task3,1006183,false,false,310,image-keyboard-response,16
true,2,0,1,2,false,d,true,false,0.0-2.0-0.4-0.41-3.41,0,1,0,81,false,stim,false,1,2496,0,0,2,64709,task3,1010181,false,false,313,image-keyboard-response,17
true,2,2,1,2,true,d,false,false,0.0-2.0-0.4-0.42-3.42,0,1,0,68,false,stim,false,2,982,0,1,1,64709,task3,1012674,false,true,316,image-keyboard-response,18
true,2,0,1,2,false,d,true,false,0.0-2.0-0.4-0.43-3.43,0,1,0,81,false,stim,false,2,1420,0,1,1,64709,task3,1015605,false,false,319,image-keyboard-response,19
true,2,0,1,1,false,z,false,false,0.0-2.0-0.4-0.44-3.44,0,1,0,81,false,stim,true,0,933,0,0,0,64709,task3,1018046,false,false,322,image-keyboard-response,20
true,2,1,1,2,false,d,true,false,0.0-2.0-0.5-0.45-3.45,0,1,0,90,false,stim,false,2,1693,0,1,1,64709,task3,1021247,false,false,325,image-keyboard-response,21
true,2,2,1,2,true,d,false,false,0.0-2.0-0.5-0.46-3.46,0,1,0,68,false,stim,false,2,1734,0,1,1,64709,task3,1024490,false,true,328,image-keyboard-response,22
true,2,1,1,2,false,d,false,false,0.0-2.0-0.5-0.47-3.47,0,1,0,90,false,stim,true,1,1427,0,0,2,64709,task3,1027428,false,false,331,image-keyboard-response,23
true,2,0,1,2,false,d,true,false,0.0-2.0-0.5-0.48-3.48,0,1,0,81,false,stim,false,2,2123,0,1,1,64709,task3,1031058,false,false,334,image-keyboard-response,24
true,2,0,1,1,false,z,false,false,0.0-2.0-0.5-0.49-3.49,0,1,0,81,false,stim,true,0,1086,0,0,0,64709,task3,1033655,false,false,337,image-keyboard-response,25
true,2,0,1,2,false,d,true,false,0.0-2.0-0.5-0.50-3.50,0,1,0,81,false,stim,false,1,2034,0,0,2,64709,task3,1037195,false,false,340,image-keyboard-response,26
false,2,-1,1,2,false,d,true,false,0.0-2.0-0.5-0.51-3.51,0,1,0,,false,stim,false,1,,0,0,2,64709,task3,1041705,false,false,343,image-keyboard-response,27
true,2,0,1,1,false,z,false,false,0.0-2.0-0.5-0.52-3.52,0,1,0,81,false,stim,true,0,1259,0,1,0,64709,task3,1044474,false,false,346,image-keyboard-response,28
true,2,0,1,1,false,z,false,false,0.0-2.0-0.5-0.53-3.53,0,1,0,81,false,stim,true,0,1310,0,1,0,64709,task3,1047294,false,false,349,image-keyboard-response,29
true,2,1,1,2,false,d,false,false,0.0-2.0-0.6-0.54-3.54,0,1,0,90,false,stim,true,1,1424,0,0,2,64709,task3,1050228,false,false,352,image-keyboard-response,30
true,3,1,1,0,false,q,true,false,0.0-2.0-0.6-0.55-3.55,1,0,0,90,true,stim,false,2,2395,0,0,1,64709,task3,1054128,false,false,355,image-keyboard-response,1
true,3,2,1,1,false,z,true,false,0.0-2.0-0.6-0.56-3.56,1,0,0,68,false,stim,false,1,2631,0,1,0,64709,task3,1058268,false,false,358,image-keyboard-response,2
true,3,0,1,0,true,q,false,true,0.0-2.0-0.6-0.57-3.57,1,0,0,81,false,stim,false,2,1954,0,0,1,64709,task3,1061731,false,false,361,image-keyboard-response,3
true,3,0,1,0,true,q,false,true,0.0-2.0-0.6-0.58-3.58,1,0,0,81,false,stim,false,2,2168,0,0,1,64709,task3,1065412,false,false,364,image-keyboard-response,4
true,3,1,1,1,true,z,false,true,0.0-2.0-0.6-0.59-3.59,1,0,0,90,false,stim,false,1,2294,0,1,0,64709,task3,1069215,false,false,367,image-keyboard-response,5
true,3,0,1,0,true,q,false,false,0.0-2.0-0.6-0.60-3.60,1,0,0,81,false,stim,false,2,1976,0,0,2,64709,task3,1072699,false,true,370,image-keyboard-response,6
true,3,2,1,0,false,q,false,false,0.0-2.0-0.6-0.61-3.61,1,0,0,68,false,stim,true,2,2069,0,0,2,64709,task3,1076275,false,false,373,image-keyboard-response,7
true,3,1,1,1,true,z,false,true,0.0-2.0-0.6-0.62-3.62,1,0,0,90,false,stim,false,1,2491,0,1,0,64709,task3,1080278,false,false,376,image-keyboard-response,8
true,3,2,1,0,false,q,false,false,0.0-2.0-0.7-0.63-3.63,1,0,0,68,false,stim,true,2,2128,0,0,2,64709,task3,1083918,false,false,379,image-keyboard-response,9
true,3,0,1,1,false,z,true,true,0.0-2.0-0.7-0.64-3.64,1,0,0,81,false,stim,false,1,2078,0,1,0,64709,task3,1087505,false,true,382,image-keyboard-response,10
true,3,0,1,1,false,z,true,false,0.0-2.0-0.7-0.65-3.65,1,0,0,81,false,stim,false,1,983,0,1,0,64709,task3,1089995,false,false,385,image-keyboard-response,11
true,3,1,1,0,false,q,true,false,0.0-2.0-0.7-0.66-3.66,1,0,0,90,false,stim,false,2,1636,0,0,2,64709,task3,1093140,false,false,388,image-keyboard-response,12
true,3,0,1,0,true,q,false,true,0.0-2.0-0.7-0.67-3.67,1,0,0,81,false,stim,false,2,1210,0,0,2,64709,task3,1095857,false,false,391,image-keyboard-response,13
true,3,1,1,0,false,q,true,false,0.0-2.0-0.7-0.68-3.68,1,0,0,90,false,stim,false,2,1803,0,0,1,64709,task3,1099167,false,false,394,image-keyboard-response,14
true,3,2,1,0,false,q,false,false,0.0-2.0-0.7-0.69-3.69,1,0,0,68,false,stim,true,2,1495,0,0,1,64709,task3,1102169,false,false,397,image-keyboard-response,15
true,3,0,1,1,false,z,true,false,0.0-2.0-0.7-0.70-3.70,1,0,0,81,false,stim,false,1,2036,0,1,0,64709,task3,1105717,false,false,400,image-keyboard-response,16
true,3,0,1,0,true,q,false,false,0.0-2.0-0.7-0.71-3.71,1,0,0,81,false,stim,false,2,1875,0,0,1,64709,task3,1109105,false,true,403,image-keyboard-response,17
true,3,1,1,0,false,q,true,false,0.0-2.0-0.8-0.72-3.72,1,0,0,90,false,stim,false,2,1536,0,0,1,64709,task3,1112148,false,false,406,image-keyboard-response,18
true,3,2,1,0,false,q,false,false,0.0-2.0-0.8-0.73-3.73,1,0,0,68,false,stim,true,2,1469,0,0,2,64709,task3,1115125,false,false,409,image-keyboard-response,19
true,3,0,1,1,false,z,true,false,0.0-2.0-0.8-0.74-3.74,1,0,0,81,false,stim,false,1,1637,0,1,0,64709,task3,1118272,false,false,412,image-keyboard-response,20
true,3,1,1,0,false,q,true,true,0.0-2.0-0.8-0.75-3.75,1,0,0,90,false,stim,false,2,1106,0,0,1,64709,task3,1120884,false,true,415,image-keyboard-response,21
true,3,1,1,0,false,q,true,false,0.0-2.0-0.8-0.76-3.76,1,0,0,90,false,stim,false,2,1069,0,0,1,64709,task3,1123462,false,false,418,image-keyboard-response,22
true,3,0,1,1,false,z,true,false,0.0-2.0-0.8-0.77-3.77,1,0,0,81,false,stim,false,1,1025,0,1,0,64709,task3,1125998,false,false,421,image-keyboard-response,23
true,3,0,1,1,false,z,true,false,0.0-2.0-0.8-0.78-3.78,1,0,0,81,false,stim,false,1,1750,0,1,0,64709,task3,1129254,false,false,424,image-keyboard-response,24
true,3,1,1,0,false,q,true,false,0.0-2.0-0.8-0.79-3.79,1,0,0,90,false,stim,false,2,1489,0,0,2,64709,task3,1132249,false,false,427,image-keyboard-response,25
true,3,2,1,0,false,q,false,false,0.0-2.0-0.8-0.80-3.80,1,0,0,68,false,stim,true,2,1689,0,0,2,64709,task3,1135449,false,false,430,image-keyboard-response,26
true,3,0,1,0,true,q,false,true,0.0-2.0-0.9-0.81-3.81,1,0,0,81,false,stim,false,2,1156,0,0,1,64709,task3,1138113,false,false,433,image-keyboard-response,27
true,3,1,1,0,false,q,true,false,0.0-2.0-0.9-0.82-3.82,1,0,0,90,false,stim,false,2,1606,0,1,2,64709,task3,1141225,false,false,436,image-keyboard-response,28
true,3,2,1,0,false,q,false,false,0.0-2.0-0.9-0.83-3.83,1,0,0,68,false,stim,true,2,1529,0,1,2,64709,task3,1144261,false,false,439,image-keyboard-response,29
true,3,0,1,0,true,q,false,true,0.0-2.0-0.9-0.84-3.84,1,0,0,81,false,stim,false,2,1208,0,0,1,64709,task3,1146979,false,false,442,image-keyboard-response,30
true,3,0,1,0,true,q,false,false,0.0-2.0-0.9-0.85-3.85,1,0,0,81,false,stim,false,2,546,0,1,2,64709,task3,1149030,false,true,445,image-keyboard-response,31
true,4,0,1,2,false,d,true,false,0.0-2.0-0.9-0.86-3.86,0,0,1,81,true,stim,false,1,1382,0,0,0,64709,task3,1151924,false,false,448,image-keyboard-response,1
true,4,0,1,2,false,d,true,false,0.0-2.0-0.9-0.87-3.87,0,0,1,81,false,stim,false,1,2698,0,0,0,64709,task3,1156133,false,false,451,image-keyboard-response,2
true,4,0,1,2,false,d,false,false,0.0-2.0-0.9-0.88-3.88,0,0,1,81,false,stim,true,0,1667,0,0,1,64709,task3,1159305,false,false,454,image-keyboard-response,3
true,4,0,1,2,false,d,true,false,0.0-2.0-0.9-0.89-3.89,0,0,1,81,false,stim,false,1,1220,0,0,0,64709,task3,1162036,false,false,457,image-keyboard-response,4
true,4,0,1,2,false,d,false,false,0.0-2.0-0.10-0.90-3.90,0,0,1,81,false,stim,true,0,1509,0,0,1,64709,task3,1165056,false,false,460,image-keyboard-response,5
true,4,1,1,0,false,q,true,false,0.0-2.0-0.10-0.91-3.91,0,0,1,90,false,stim,false,0,1511,0,1,2,64709,task3,1168076,false,false,463,image-keyboard-response,6
true,4,1,1,2,false,d,false,false,0.0-2.0-0.10-0.92-3.92,0,0,1,90,false,stim,true,1,960,0,0,0,64709,task3,1170543,false,false,466,image-keyboard-response,7
false,4,-1,1,2,false,d,true,false,0.0-2.0-0.10-0.93-3.93,0,0,1,,false,stim,false,0,,0,0,1,64709,task3,1175056,false,false,469,image-keyboard-response,8
true,4,0,1,0,true,q,false,true,0.0-2.0-0.10-0.94-3.94,0,0,1,81,false,stim,false,0,1416,0,1,2,64709,task3,1177978,false,false,472,image-keyboard-response,9
true,4,0,1,2,false,d,false,false,0.0-2.0-0.10-0.95-3.95,0,0,1,81,false,stim,true,0,1083,0,0,1,64709,task3,1180572,false,false,475,image-keyboard-response,10
true,4,0,1,0,true,q,false,false,0.0-2.0-0.10-0.96-3.96,0,0,1,81,false,stim,false,0,1287,0,1,2,64709,task3,1183370,false,true,478,image-keyboard-response,11
false,4,-1,1,2,false,d,true,false,0.0-2.0-0.10-0.97-3.97,0,0,1,,false,stim,false,1,,0,0,0,64709,task3,1187885,false,false,481,image-keyboard-response,12
false,4,-1,1,2,false,d,true,false,0.0-2.0-0.10-0.98-3.98,0,0,1,,false,stim,false,1,,0,0,0,64709,task3,1192397,false,false,484,image-keyboard-response,13
true,4,1,1,2,false,d,true,false,0.0-2.0-0.11-0.99-3.99,0,0,1,90,false,stim,false,0,1199,0,0,1,64709,task3,1195107,false,false,487,image-keyboard-response,14
true,4,2,1,0,false,q,true,false,0.0-2.0-0.11-0.100-3.100,0,0,1,68,false,stim,false,0,1275,0,1,2,64709,task3,1197894,false,false,490,image-keyboard-response,15
true,4,0,1,2,false,d,true,false,0.0-2.0-0.11-0.101-3.101,0,0,1,81,false,stim,false,1,1009,0,0,0,64709,task3,1200415,false,false,493,image-keyboard-response,16
true,4,1,1,0,false,q,true,false,0.0-2.0-0.11-0.102-3.102,0,0,1,90,false,stim,false,0,1432,0,1,2,64709,task3,1203355,false,false,496,image-keyboard-response,17
true,4,0,1,2,false,d,false,false,0.0-2.0-0.11-0.103-3.103,0,0,1,81,false,stim,true,0,1034,0,0,1,64709,task3,1205898,false,false,499,image-keyboard-response,18
true,4,1,1,0,false,q,true,false,0.0-2.0-0.11-0.104-3.104,0,0,1,90,false,stim,false,0,1419,0,1,2,64709,task3,1208829,false,false,502,image-keyboard-response,19
true,4,0,1,2,false,d,true,false,0.0-2.0-0.11-0.105-3.105,0,0,1,81,false,stim,false,1,1022,0,0,0,64709,task3,1211358,false,false,505,image-keyboard-response,20
true,4,0,1,2,false,d,false,true,0.0-2.0-0.11-0.106-3.106,0,0,1,81,false,stim,true,0,1292,0,0,1,64709,task3,1214159,false,true,508,image-keyboard-response,21
true,4,1,1,2,false,d,false,false,0.0-2.0-0.11-0.107-3.107,0,0,1,90,false,stim,true,1,2263,0,0,0,64709,task3,1217931,false,false,511,image-keyboard-response,22
true,4,0,1,2,false,d,false,false,0.0-2.0-0.12-0.108-3.108,0,0,1,81,false,stim,true,0,1159,0,0,1,64709,task3,1220600,false,false,514,image-keyboard-response,23
true,4,1,1,2,false,d,true,false,0.0-2.0-0.12-0.109-3.109,0,0,1,90,false,stim,false,0,1182,0,0,1,64709,task3,1223292,false,false,517,image-keyboard-response,24
true,4,2,1,0,false,q,true,false,0.0-2.0-0.12-0.110-3.110,0,0,1,68,false,stim,false,0,1038,0,1,2,64709,task3,1225843,false,false,520,image-keyboard-response,25
true,4,1,1,2,false,d,false,false,0.0-2.0-0.12-0.111-3.111,0,0,1,90,false,stim,true,1,2408,0,0,0,64709,task3,1229762,false,false,523,image-keyboard-response,26
true,4,0,1,0,true,q,false,true,0.0-2.0-0.12-0.112-3.112,0,0,1,81,false,stim,false,0,1232,0,0,2,64709,task3,1232497,false,false,526,image-keyboard-response,27
true,4,0,1,0,true,q,false,true,0.0-2.0-0.12-0.113-3.113,0,0,1,81,false,stim,false,0,2524,0,0,2,64709,task3,1236527,false,false,529,image-keyboard-response,28
true,4,1,1,2,false,d,false,false,0.0-2.0-0.12-0.114-3.114,0,0,1,90,false,stim,true,1,1772,0,1,0,64709,task3,1239809,false,false,532,image-keyboard-response,29
true,4,1,1,2,false,d,true,false,0.0-2.0-0.12-0.115-3.115,0,0,1,90,false,stim,false,0,1243,0,0,1,64709,task3,1242560,false,false,535,image-keyboard-response,30
true,4,0,1,2,false,d,true,false,0.0-2.0-0.12-0.116-3.116,0,0,1,81,false,stim,false,1,1427,0,1,0,64709,task3,1245499,false,false,538,image-keyboard-response,31
true,5,1,1,2,false,d,true,false,0.0-2.0-0.13-0.117-3.117,1,0,0,90,true,stim,false,2,2345,0,1,0,64709,task3,1249357,false,false,541,image-keyboard-response,1
true,5,0,1,2,false,d,false,true,0.0-2.0-0.13-0.118-3.118,1,0,0,81,false,stim,true,0,1547,0,0,2,64709,task3,1252413,false,true,544,image-keyboard-response,2
true,5,1,1,1,true,z,false,true,0.0-2.0-0.13-0.119-3.119,1,0,0,90,false,stim,false,2,1736,0,0,1,64709,task3,1255657,false,false,547,image-keyboard-response,3
true,5,0,1,2,false,d,false,true,0.0-2.0-0.13-0.120-3.120,1,0,0,81,false,stim,true,0,1767,0,0,2,64709,task3,1258935,false,true,550,image-keyboard-response,4
false,5,-1,1,1,false,z,true,true,0.0-2.0-0.13-0.121-3.121,1,0,0,,false,stim,false,2,,0,0,1,64709,task3,1263449,false,true,553,image-keyboard-response,5
true,5,1,1,2,false,d,true,false,0.0-2.0-0.13-0.122-3.122,1,0,0,90,false,stim,false,0,1984,0,0,2,64709,task3,1266938,false,false,556,image-keyboard-response,6
true,5,1,1,1,true,z,false,true,0.0-2.0-0.13-0.123-3.123,1,0,0,90,false,stim,false,2,2534,0,0,1,64709,task3,1270983,false,false,559,image-keyboard-response,7
true,5,2,1,2,true,d,false,true,0.0-2.0-0.13-0.124-3.124,1,0,0,68,false,stim,false,2,2819,0,0,0,64709,task3,1275310,false,false,562,image-keyboard-response,8
true,5,2,1,2,true,d,false,true,0.0-2.0-0.13-0.125-3.125,1,0,0,68,false,stim,false,2,1582,0,0,0,64709,task3,1278403,false,false,565,image-keyboard-response,9
true,5,2,1,2,true,d,false,true,0.0-2.0-0.14-0.126-3.126,1,0,0,68,false,stim,false,2,1535,0,0,0,64709,task3,1281447,false,false,568,image-keyboard-response,10
true,5,2,1,2,true,d,false,true,0.0-2.0-0.14-0.127-3.127,1,0,0,68,false,stim,false,2,1835,0,0,0,64709,task3,1284790,false,false,571,image-keyboard-response,11
true,5,0,1,2,false,d,false,false,0.0-2.0-0.14-0.128-3.128,1,0,0,81,false,stim,true,0,2194,0,1,2,64709,task3,1288488,false,false,574,image-keyboard-response,12
true,6,1,2,1,true,z,false,true,0.0-2.0-0.14-0.129-3.129,0,1,1,90,true,stim,false,1,2789,0,1,1,64709,task3,1292784,false,false,577,image-keyboard-response,1
false,6,-1,2,1,false,z,true,false,0.0-2.0-0.14-0.130-3.130,0,1,1,,false,stim,false,2,,0,0,0,64709,task3,1297297,false,false,580,image-keyboard-response,2
true,6,1,2,1,true,z,false,true,0.0-2.0-0.14-0.131-3.131,0,1,1,90,false,stim,false,1,2358,0,1,1,64709,task3,1301161,false,false,583,image-keyboard-response,3
true,6,0,2,2,false,d,true,false,0.0-2.0-0.14-0.132-3.132,0,1,1,81,false,stim,false,2,1460,0,1,2,64709,task3,1304130,false,false,586,image-keyboard-response,4
true,6,1,2,1,true,z,false,true,0.0-2.0-0.14-0.133-3.133,0,1,1,90,false,stim,false,1,2048,0,1,1,64709,task3,1307690,false,false,589,image-keyboard-response,5
true,6,0,2,2,false,d,true,true,0.0-2.0-0.14-0.134-3.134,0,1,1,81,false,stim,false,2,1110,0,1,2,64709,task3,1310309,false,true,592,image-keyboard-response,6
false,6,-1,2,1,false,z,true,false,0.0-2.0-0.15-0.135-3.135,0,1,1,,false,stim,false,2,,0,0,0,64709,task3,1314820,false,false,595,image-keyboard-response,7
true,6,0,2,2,false,d,true,false,0.0-2.0-0.15-0.136-3.136,0,1,1,81,false,stim,false,2,2148,0,1,2,64709,task3,1318478,false,false,598,image-keyboard-response,8
true,6,1,2,1,true,z,false,true,0.0-2.0-0.15-0.137-3.137,0,1,1,90,false,stim,false,1,1297,0,1,1,64709,task3,1321283,false,false,601,image-keyboard-response,9
true,6,1,2,1,true,z,false,false,0.0-2.0-0.15-0.138-3.138,0,1,1,90,false,stim,false,1,974,0,1,1,64709,task3,1323768,false,true,604,image-keyboard-response,10
false,6,-1,2,2,false,d,true,false,0.0-2.0-0.15-0.139-3.139,0,1,1,,false,stim,false,2,,0,0,2,64709,task3,1328278,false,false,607,image-keyboard-response,11
true,6,2,2,1,false,z,false,true,0.0-2.0-0.15-0.140-3.140,0,1,1,68,false,stim,true,2,1947,0,1,0,64709,task3,1331736,false,true,610,image-keyboard-response,12
true,6,2,2,1,false,z,false,true,0.0-2.0-0.15-0.141-3.141,0,1,1,68,false,stim,true,2,966,0,1,0,64709,task3,1334209,false,true,613,image-keyboard-response,13
true,6,0,2,2,false,d,true,false,0.0-2.0-0.15-0.142-3.142,0,1,1,81,false,stim,false,2,1939,0,0,2,64709,task3,1337658,false,false,616,image-keyboard-response,14
true,6,1,2,1,true,z,false,true,0.0-2.0-0.15-0.143-3.143,0,1,1,90,false,stim,false,1,1884,0,1,1,64709,task3,1341051,false,false,619,image-keyboard-response,15
true,7,0,2,0,true,q,false,true,0.0-2.0-0.16-0.144-3.144,1,1,0,81,true,stim,false,2,1280,0,0,2,64709,task3,1343840,false,false,622,image-keyboard-response,1
true,7,1,2,1,true,z,false,true,0.0-2.0-0.16-0.145-3.145,1,1,0,90,false,stim,false,1,1251,0,1,1,64709,task3,1346597,false,false,625,image-keyboard-response,2
true,7,2,2,1,false,z,true,false,0.0-2.0-0.16-0.146-3.146,1,1,0,68,false,stim,false,1,1908,0,1,0,64709,task3,1350011,false,false,628,image-keyboard-response,3
true,7,0,2,0,true,q,false,true,0.0-2.0-0.16-0.147-3.147,1,1,0,81,false,stim,false,2,2755,0,0,2,64709,task3,1354278,false,false,631,image-keyboard-response,4
true,7,2,2,1,false,z,true,false,0.0-2.0-0.16-0.148-3.148,1,1,0,68,false,stim,false,1,2013,0,1,0,64709,task3,1357799,false,false,634,image-keyboard-response,5
true,7,1,2,1,true,z,false,true,0.0-2.0-0.16-0.149-3.149,1,1,0,90,false,stim,false,1,2270,0,1,1,64709,task3,1361580,false,false,637,image-keyboard-response,6
true,7,0,2,0,true,q,false,false,0.0-2.0-0.16-0.150-3.150,1,1,0,81,false,stim,false,2,1464,0,0,2,64709,task3,1364552,false,true,640,image-keyboard-response,7
true,7,1,2,1,true,z,false,true,0.0-2.0-0.16-0.151-3.151,1,1,0,90,false,stim,false,1,2021,0,1,0,64709,task3,1368085,false,false,643,image-keyboard-response,8
false,7,-1,2,1,false,z,true,false,0.0-2.0-0.16-0.152-3.152,1,1,0,,false,stim,false,1,,0,0,1,64709,task3,1372597,false,false,646,image-keyboard-response,9
true,7,2,2,1,false,z,true,false,0.0-2.0-0.17-0.153-3.153,1,1,0,68,false,stim,false,1,2286,0,0,0,64709,task3,1376393,false,false,649,image-keyboard-response,10
true,7,0,2,0,true,q,false,true,0.0-2.0-0.17-0.154-3.154,1,1,0,81,false,stim,false,2,1026,0,1,2,64709,task3,1378923,false,false,652,image-keyboard-response,11
true,7,1,2,1,true,z,false,true,0.0-2.0-0.17-0.155-3.155,1,1,0,90,false,stim,false,1,1295,0,0,1,64709,task3,1381726,false,false,655,image-keyboard-response,12
true,7,2,2,1,false,z,true,false,0.0-2.0-0.17-0.156-3.156,1,1,0,68,false,stim,false,1,1367,0,0,0,64709,task3,1384603,false,false,658,image-keyboard-response,13
true,8,0,1,0,true,q,false,true,0.0-2.0-0.17-0.157-3.157,0,0,1,81,true,stim,false,1,2741,0,0,1,64709,task3,1388856,false,false,661,image-keyboard-response,1
true,8,1,1,2,false,d,false,true,0.0-2.0-0.17-0.158-3.158,0,0,1,90,false,stim,true,1,1190,0,0,0,64709,task3,1391556,false,true,664,image-keyboard-response,2
true,8,1,1,0,false,q,true,false,0.0-2.0-0.17-0.159-3.159,0,0,1,90,false,stim,false,0,1215,0,1,2,64709,task3,1394281,false,false,667,image-keyboard-response,3
false,8,-1,1,0,false,q,true,false,0.0-2.0-0.17-0.160-3.160,0,0,1,,false,stim,false,1,,0,0,1,64709,task3,1398800,false,false,670,image-keyboard-response,4
true,8,0,1,0,true,q,false,true,0.0-2.0-0.17-0.161-3.161,0,0,1,81,false,stim,false,0,1728,0,1,2,64709,task3,1402040,false,false,673,image-keyboard-response,5
true,8,1,1,0,false,q,false,false,0.0-2.0-0.18-0.162-3.162,0,0,1,90,false,stim,true,1,506,0,0,1,64709,task3,1404056,false,false,676,image-keyboard-response,6
true,8,1,1,0,false,q,true,false,0.0-2.0-0.18-0.163-3.163,0,0,1,90,false,stim,false,0,1882,0,1,2,64709,task3,1407449,false,false,679,image-keyboard-response,7
true,8,2,1,0,false,q,true,false,0.0-2.0-0.18-0.164-3.164,0,0,1,68,false,stim,false,1,2517,0,0,1,64709,task3,1411473,false,false,682,image-keyboard-response,8
true,8,0,1,0,true,q,false,true,0.0-2.0-0.18-0.165-3.165,0,0,1,81,false,stim,false,0,947,0,1,2,64709,task3,1413931,false,false,685,image-keyboard-response,9
true,8,1,1,0,false,q,false,false,0.0-2.0-0.18-0.166-3.166,0,0,1,90,false,stim,true,1,908,0,0,1,64709,task3,1416346,false,false,688,image-keyboard-response,10
true,8,2,1,0,false,q,true,false,0.0-2.0-0.18-0.167-3.167,0,0,1,68,false,stim,false,0,921,0,1,2,64709,task3,1418775,false,false,691,image-keyboard-response,11
true,8,2,1,2,true,d,false,true,0.0-2.0-0.18-0.168-3.168,0,0,1,68,false,stim,false,1,2584,0,0,0,64709,task3,1422866,false,false,694,image-keyboard-response,12
true,8,2,1,2,true,d,false,true,0.0-2.0-0.18-0.169-3.169,0,0,1,68,false,stim,false,1,1011,0,0,0,64709,task3,1425385,false,false,697,image-keyboard-response,13
true,8,2,1,2,true,d,false,false,0.0-2.0-0.18-0.170-3.170,0,0,1,68,false,stim,false,1,782,0,0,0,64709,task3,1427676,false,true,700,image-keyboard-response,14
true,8,0,1,2,false,d,true,false,0.0-2.0-0.19-0.171-3.171,0,0,1,81,false,stim,false,1,2071,0,0,0,64709,task3,1431261,false,false,703,image-keyboard-response,15
true,8,1,1,0,false,q,false,false,0.0-2.0-0.19-0.172-3.172,0,0,1,90,false,stim,true,1,2213,0,0,1,64709,task3,1434986,false,false,706,image-keyboard-response,16
true,8,0,1,0,true,q,false,true,0.0-2.0-0.19-0.173-3.173,0,0,1,81,false,stim,false,0,1488,0,1,2,64709,task3,1437984,false,false,709,image-keyboard-response,17
true,8,0,1,0,true,q,false,true,0.0-2.0-0.19-0.174-3.174,0,0,1,81,false,stim,false,0,1771,0,1,2,64709,task3,1441266,false,false,712,image-keyboard-response,18
true,8,0,1,0,true,q,false,true,0.0-2.0-0.19-0.175-3.175,0,0,1,81,false,stim,false,1,1485,0,0,1,64709,task3,1444258,false,false,715,image-keyboard-response,19
true,8,1,1,2,false,d,false,false,0.0-2.0-0.19-0.176-3.176,0,0,1,90,false,stim,true,1,1029,0,0,0,64709,task3,1446796,false,false,718,image-keyboard-response,20
true,8,1,1,0,false,q,false,false,0.0-2.0-0.19-0.177-3.177,0,0,1,90,false,stim,true,1,1253,0,0,1,64709,task3,1449561,false,false,721,image-keyboard-response,21
true,8,0,1,0,true,q,false,true,0.0-2.0-0.19-0.178-3.178,0,0,1,81,false,stim,false,0,1730,0,1,2,64709,task3,1452800,false,false,724,image-keyboard-response,22
true,8,1,1,2,false,d,false,false,0.0-2.0-0.19-0.179-3.179,0,0,1,90,false,stim,true,1,1030,0,0,0,64709,task3,1455339,false,false,727,image-keyboard-response,23
true,8,2,1,2,true,d,false,true,0.0-2.0-0.20-0.180-3.180,0,0,1,68,false,stim,false,1,1571,0,0,0,64709,task3,1458416,false,false,730,image-keyboard-response,24
true,8,0,1,0,true,q,false,true,0.0-2.0-0.20-0.181-3.181,0,0,1,81,false,stim,false,1,1118,0,0,1,64709,task3,1461041,false,false,733,image-keyboard-response,25
true,9,1,1,0,false,q,true,false,0.0-2.0-0.20-0.182-3.182,0,0,1,90,true,stim,false,0,1168,0,1,2,64709,task3,1463720,false,false,736,image-keyboard-response,1
true,9,0,1,0,true,q,false,true,0.0-2.0-0.20-0.183-3.183,0,0,1,81,false,stim,false,0,1044,0,1,2,64709,task3,1466274,false,false,739,image-keyboard-response,2
true,9,2,1,0,false,q,false,false,0.0-2.0-0.20-0.184-3.184,0,0,1,68,false,stim,true,2,1560,0,0,0,64709,task3,1469345,false,false,742,image-keyboard-response,3
true,9,1,1,0,false,q,true,false,0.0-2.0-0.20-0.185-3.185,0,0,1,90,false,stim,false,2,1124,0,0,0,64709,task3,1471977,false,false,745,image-keyboard-response,4
true,9,0,1,1,false,z,false,false,0.0-2.0-0.20-0.186-3.186,0,0,1,81,false,stim,true,0,1128,0,0,1,64709,task3,1474613,false,false,748,image-keyboard-response,5
true,9,0,1,0,true,q,false,true,0.0-2.0-0.20-0.187-3.187,0,0,1,81,false,stim,false,0,1220,0,1,2,64709,task3,1477341,false,false,751,image-keyboard-response,6
true,9,1,1,1,true,z,false,false,0.0-2.0-0.20-0.188-3.188,0,0,1,90,false,stim,false,0,734,0,0,1,64709,task3,1479584,false,true,754,image-keyboard-response,7
true,9,1,1,1,true,z,false,true,0.0-2.0-0.21-0.189-3.189,0,0,1,90,false,stim,false,0,914,0,0,1,64709,task3,1482002,false,false,757,image-keyboard-response,8
true,9,2,1,0,false,q,false,false,0.0-2.0-0.21-0.190-3.190,0,0,1,68,false,stim,true,2,1801,0,0,0,64709,task3,1485312,false,false,760,image-keyboard-response,9
true,9,2,1,0,false,q,false,false,0.0-2.0-0.21-0.191-3.191,0,0,1,68,false,stim,true,2,881,0,1,0,64709,task3,1487700,false,false,763,image-keyboard-response,10
true,9,0,1,0,true,q,false,true,0.0-2.0-0.21-0.192-3.192,0,0,1,81,false,stim,false,0,771,0,0,2,64709,task3,1489979,false,false,766,image-keyboard-response,11
true,9,1,1,1,true,z,false,true,0.0-2.0-0.21-0.193-3.193,0,0,1,90,false,stim,false,0,953,0,1,1,64709,task3,1492443,false,false,769,image-keyboard-response,12
true,9,2,1,0,false,q,true,false,0.0-2.0-0.21-0.194-3.194,0,0,1,68,false,stim,false,0,1668,0,0,2,64709,task3,1495620,false,false,772,image-keyboard-response,13
true,9,0,1,0,true,q,false,true,0.0-2.0-0.21-0.195-3.195,0,0,1,81,false,stim,false,2,1023,0,1,0,64709,task3,1498150,false,false,775,image-keyboard-response,14
true,10,2,2,1,false,z,true,false,0.0-2.0-0.21-0.196-3.196,1,1,0,68,true,stim,false,1,1161,0,1,1,64709,task3,1500822,false,false,778,image-keyboard-response,1
true,10,0,2,1,false,z,false,false,0.0-2.0-0.21-0.197-3.197,1,1,0,81,false,stim,true,0,845,0,0,2,64709,task3,1503176,false,false,781,image-keyboard-response,2
true,10,1,2,0,false,q,true,false,0.0-2.0-0.22-0.198-3.198,1,1,0,90,false,stim,false,0,582,0,1,0,64709,task3,1505267,false,false,784,image-keyboard-response,3
true,10,0,2,1,false,z,false,true,0.0-2.0-0.22-0.199-3.199,1,1,0,81,false,stim,true,0,873,0,0,2,64709,task3,1507650,false,true,787,image-keyboard-response,4
true,10,2,2,1,false,z,true,false,0.0-2.0-0.22-0.200-3.200,1,1,0,68,false,stim,false,1,1181,0,1,1,64709,task3,1510339,false,false,790,image-keyboard-response,5
true,10,1,2,0,false,q,true,false,0.0-2.0-0.22-0.201-3.201,1,1,0,90,false,stim,false,0,1404,0,1,0,64709,task3,1513255,false,false,793,image-keyboard-response,6
true,10,2,2,0,false,q,true,false,0.0-2.0-0.22-0.202-3.202,1,1,0,68,false,stim,false,0,1350,0,1,0,64709,task3,1516112,false,false,796,image-keyboard-response,7
true,10,0,2,1,false,z,false,false,0.0-2.0-0.22-0.203-3.203,1,1,0,81,false,stim,true,0,1911,0,0,2,64709,task3,1519532,false,false,799,image-keyboard-response,8
true,10,1,2,1,true,z,false,false,0.0-2.0-0.22-0.204-3.204,1,1,0,90,false,stim,false,1,1200,0,0,1,64709,task3,1522242,false,true,802,image-keyboard-response,9
true,10,2,2,1,false,z,true,false,0.0-2.0-0.22-0.205-3.205,1,1,0,68,false,stim,false,1,1130,0,0,1,64709,task3,1524879,false,false,805,image-keyboard-response,10
true,10,0,2,1,false,z,false,false,0.0-2.0-0.22-0.206-3.206,1,1,0,81,false,stim,true,0,985,0,1,2,64709,task3,1527375,false,false,808,image-keyboard-response,11
true,10,1,2,0,false,q,true,false,0.0-2.0-0.23-0.207-3.207,1,1,0,90,false,stim,false,0,904,0,0,0,64709,task3,1529784,false,false,811,image-keyboard-response,12
true,10,2,2,1,false,z,true,false,0.0-2.0-0.23-0.208-3.208,1,1,0,68,false,stim,false,0,987,0,1,2,64709,task3,1532282,false,false,814,image-keyboard-response,13
true,11,1,1,1,true,z,false,true,0.0-2.0-0.23-0.209-3.209,0,0,1,90,true,stim,false,1,2146,0,1,2,64709,task3,1535937,false,false,817,image-keyboard-response,1
true,11,1,1,1,true,z,false,true,0.0-2.0-0.23-0.210-3.210,0,0,1,90,false,stim,false,1,1275,0,1,2,64709,task3,1538720,false,false,820,image-keyboard-response,2
true,11,2,1,0,false,q,true,false,0.0-2.0-0.23-0.211-3.211,0,0,1,68,false,stim,false,1,1367,0,0,1,64709,task3,1541595,false,false,823,image-keyboard-response,3
true,11,0,1,1,false,z,false,false,0.0-2.0-0.23-0.212-3.212,0,0,1,81,false,stim,true,0,973,0,0,0,64709,task3,1544075,false,false,826,image-keyboard-response,4
true,11,0,1,0,true,q,false,true,0.0-2.0-0.23-0.213-3.213,0,0,1,81,false,stim,false,1,1853,0,0,1,64709,task3,1547440,false,false,829,image-keyboard-response,5
true,11,1,1,1,true,z,false,true,0.0-2.0-0.23-0.214-3.214,0,0,1,90,false,stim,false,0,1655,0,0,0,64709,task3,1550606,false,false,832,image-keyboard-response,6
true,11,2,1,0,false,q,true,false,0.0-2.0-0.23-0.215-3.215,0,0,1,68,false,stim,false,1,2611,0,0,1,64709,task3,1554724,false,false,835,image-keyboard-response,7
true,11,2,1,0,false,q,true,false,0.0-2.0-0.24-0.216-3.216,0,0,1,68,false,stim,false,1,1858,0,0,1,64709,task3,1558091,false,false,838,image-keyboard-response,8
true,11,1,1,1,true,z,false,true,0.0-2.0-0.24-0.217-3.217,0,0,1,90,false,stim,false,1,1447,0,1,2,64709,task3,1561047,false,false,841,image-keyboard-response,9
true,11,1,1,1,true,z,false,true,0.0-2.0-0.24-0.218-3.218,0,0,1,90,false,stim,false,0,921,0,0,0,64709,task3,1563478,false,false,844,image-keyboard-response,10
true,11,0,1,1,false,z,true,false,0.0-2.0-0.24-0.219-3.219,0,0,1,81,false,stim,false,1,1232,0,1,2,64709,task3,1566220,false,false,847,image-keyboard-response,11
true,11,0,1,0,true,q,false,true,0.0-2.0-0.24-0.220-3.220,0,0,1,81,false,stim,false,1,1305,0,1,1,64709,task3,1569033,false,false,850,image-keyboard-response,12
true,11,1,1,1,true,z,false,true,0.0-2.0-0.24-0.221-3.221,0,0,1,90,false,stim,false,1,917,0,0,2,64709,task3,1571455,false,false,853,image-keyboard-response,13
true,11,1,1,0,false,q,false,false,0.0-2.0-0.24-0.222-3.222,0,0,1,90,false,stim,true,1,903,0,1,1,64709,task3,1573867,false,false,856,image-keyboard-response,14
true,11,2,1,1,false,z,true,true,0.0-2.0-0.24-0.223-3.223,0,0,1,68,false,stim,false,0,1428,0,1,0,64709,task3,1576803,false,true,859,image-keyboard-response,15
true,11,2,1,1,false,z,true,false,0.0-2.0-0.24-0.224-3.224,0,0,1,68,false,stim,false,0,1090,0,1,0,64709,task3,1579405,false,false,862,image-keyboard-response,16
true,12,1,2,1,true,z,false,true,0.0-2.0-0.25-0.225-3.225,1,1,0,90,true,stim,false,1,1504,0,1,0,64709,task3,1582418,false,false,865,image-keyboard-response,1
true,12,0,2,1,false,z,true,false,0.0-2.0-0.25-0.226-3.226,1,1,0,81,false,stim,false,1,1105,0,1,0,64709,task3,1585034,false,false,868,image-keyboard-response,2
true,12,0,2,0,true,q,false,true,0.0-2.0-0.25-0.227-3.227,1,1,0,81,false,stim,false,0,1935,0,1,1,64709,task3,1588477,false,false,871,image-keyboard-response,3
true,12,0,2,2,false,d,true,false,0.0-2.0-0.25-0.228-3.228,1,1,0,81,false,stim,false,1,698,0,0,2,64709,task3,1590684,false,false,874,image-keyboard-response,4
true,12,1,2,1,true,z,false,true,0.0-2.0-0.25-0.229-3.229,1,1,0,90,false,stim,false,1,1689,0,1,0,64709,task3,1593880,false,false,877,image-keyboard-response,5
true,12,1,2,2,false,d,false,false,0.0-2.0-0.25-0.230-3.230,1,1,0,90,false,stim,true,1,1094,0,0,2,64709,task3,1596483,false,false,880,image-keyboard-response,6
true,12,0,2,2,false,d,true,false,0.0-2.0-0.25-0.231-3.231,1,1,0,81,false,stim,false,1,639,0,0,2,64709,task3,1598629,false,false,883,image-keyboard-response,7
true,12,2,2,0,false,q,true,false,0.0-2.0-0.25-0.232-3.232,1,1,0,68,false,stim,false,0,2052,0,1,1,64709,task3,1602191,false,false,886,image-keyboard-response,8
true,12,1,2,0,false,q,true,false,0.0-2.0-0.25-0.233-3.233,1,1,0,90,false,stim,false,0,1630,0,1,1,64709,task3,1605332,false,false,889,image-keyboard-response,9
true,12,0,2,2,false,d,true,true,0.0-2.0-0.26-0.234-3.234,1,1,0,81,false,stim,false,1,953,0,0,2,64709,task3,1607798,false,true,892,image-keyboard-response,10
true,12,1,2,1,true,z,false,true,0.0-2.0-0.26-0.235-3.235,1,1,0,90,false,stim,false,1,1339,0,1,0,64709,task3,1610645,false,false,895,image-keyboard-response,11
true,12,2,2,1,false,z,true,false,0.0-2.0-0.26-0.236-3.236,1,1,0,68,false,stim,false,1,1550,0,0,0,64709,task3,1613705,false,false,898,image-keyboard-response,12
true,12,0,2,0,true,q,false,true,0.0-2.0-0.26-0.237-3.237,1,1,0,81,false,stim,false,0,974,0,1,1,64709,task3,1616193,false,false,901,image-keyboard-response,13
true,12,0,2,2,false,d,true,true,0.0-2.0-0.26-0.238-3.238,1,1,0,81,false,stim,false,1,1140,0,1,2,64709,task3,1618843,false,true,904,image-keyboard-response,14
true,12,1,2,0,false,q,true,false,0.0-2.0-0.26-0.239-3.239,1,1,0,90,false,stim,false,0,1060,0,1,1,64709,task3,1621411,false,false,907,image-keyboard-response,15
true,12,2,2,0,false,q,true,false,0.0-2.0-0.26-0.240-3.240,1,1,0,68,false,stim,false,0,1077,0,1,1,64709,task3,1623998,false,false,910,image-keyboard-response,16
true,13,0,2,2,false,d,true,false,0.0-2.0-0.26-0.241-3.241,0,1,1,81,true,stim,false,2,644,0,1,2,64709,task3,1626152,false,false,913,image-keyboard-response,1
true,13,2,2,2,true,d,false,true,0.0-2.0-0.26-0.242-3.242,0,1,1,68,false,stim,false,1,2406,0,0,0,64709,task3,1630064,false,false,916,image-keyboard-response,2
true,13,2,2,2,true,d,false,true,0.0-2.0-0.27-0.243-3.243,0,1,1,68,false,stim,false,1,1029,0,0,0,64709,task3,1632603,false,false,919,image-keyboard-response,3
true,13,1,2,0,false,q,true,false,0.0-2.0-0.27-0.244-3.244,0,1,1,90,false,stim,false,0,1476,0,1,1,64709,task3,1635590,false,false,922,image-keyboard-response,4
true,13,0,2,2,false,d,true,false,0.0-2.0-0.27-0.245-3.245,0,1,1,81,false,stim,false,2,1069,0,1,2,64709,task3,1638168,false,false,925,image-keyboard-response,5
true,13,1,2,2,false,d,true,false,0.0-2.0-0.27-0.246-3.246,0,1,1,90,false,stim,false,2,1157,0,1,2,64709,task3,1640831,false,false,928,image-keyboard-response,6
true,13,0,2,0,true,q,false,false,0.0-2.0-0.27-0.247-3.247,0,1,1,81,false,stim,false,0,1118,0,1,1,64709,task3,1643454,false,true,931,image-keyboard-response,7
true,13,2,2,2,true,d,false,true,0.0-2.0-0.27-0.248-3.248,0,1,1,68,false,stim,false,1,2106,0,0,0,64709,task3,1647072,false,false,934,image-keyboard-response,8
true,13,0,2,2,false,d,true,false,0.0-2.0-0.27-0.249-3.249,0,1,1,81,false,stim,false,2,1803,0,1,2,64709,task3,1650386,false,false,937,image-keyboard-response,9
true,13,0,2,2,false,d,true,false,0.0-2.0-0.27-0.250-3.250,0,1,1,81,false,stim,false,1,1126,0,0,0,64709,task3,1653023,false,false,940,image-keyboard-response,10
true,13,1,2,0,false,q,true,false,0.0-2.0-0.27-0.251-3.251,0,1,1,90,false,stim,false,0,640,0,1,1,64709,task3,1655175,false,false,943,image-keyboard-response,11
true,13,0,2,0,true,q,false,true,0.0-2.0-0.28-0.252-3.252,0,1,1,81,false,stim,false,0,1996,0,1,1,64709,task3,1658681,false,false,946,image-keyboard-response,12
true,13,0,2,0,true,q,false,true,0.0-2.0-0.28-0.253-3.253,0,1,1,81,false,stim,false,0,921,0,1,1,64709,task3,1661111,false,false,949,image-keyboard-response,13
true,13,0,2,0,true,q,false,true,0.0-2.0-0.28-0.254-3.254,0,1,1,81,false,stim,false,0,901,0,1,1,64709,task3,1663523,false,false,952,image-keyboard-response,14
true,13,1,2,2,false,d,true,true,0.0-2.0-0.28-0.255-3.255,0,1,1,90,false,stim,false,2,1672,0,0,2,64709,task3,1666704,false,true,955,image-keyboard-response,15
true,13,2,2,2,true,d,false,true,0.0-2.0-0.28-0.256-3.256,0,1,1,68,false,stim,false,1,1499,0,1,0,64709,task3,1669705,false,false,958,image-keyboard-response,16
true,14,0,2,1,false,z,true,false,0.0-2.0-0.28-0.257-3.257,1,1,0,81,true,stim,false,2,1352,0,0,2,64709,task3,1672569,false,false,961,image-keyboard-response,1
true,14,0,2,2,false,d,true,false,0.0-2.0-0.28-0.258-3.258,1,1,0,81,false,stim,false,2,1610,0,1,0,64709,task3,1675690,false,false,964,image-keyboard-response,2
true,14,1,2,2,false,d,true,true,0.0-2.0-0.28-0.259-3.259,1,1,0,90,false,stim,false,2,1534,0,1,0,64709,task3,1678730,false,true,967,image-keyboard-response,3
true,14,0,2,1,false,z,true,false,0.0-2.0-0.28-0.260-3.260,1,1,0,81,false,stim,false,2,1261,0,0,2,64709,task3,1681497,false,false,970,image-keyboard-response,4
true,14,2,2,0,false,q,true,false,0.0-2.0-0.29-0.261-3.261,1,1,0,68,false,stim,false,0,1424,0,1,1,64709,task3,1684431,false,false,973,image-keyboard-response,5
false,14,-1,2,0,false,q,true,false,0.0-2.0-0.29-0.262-3.262,1,1,0,,false,stim,false,0,,0,1,1,64709,task3,1688941,false,false,976,image-keyboard-response,6
true,14,0,2,2,false,d,true,false,0.0-2.0-0.29-0.263-3.263,1,1,0,81,false,stim,false,2,1271,0,1,0,64709,task3,1691723,false,false,979,image-keyboard-response,7
true,14,1,2,1,true,z,false,true,0.0-2.0-0.29-0.264-3.264,1,1,0,90,false,stim,false,2,1115,0,1,2,64709,task3,1694350,false,false,982,image-keyboard-response,8
true,14,1,2,1,true,z,false,true,0.0-2.0-0.29-0.265-3.265,1,1,0,90,false,stim,false,2,1344,0,1,2,64709,task3,1697200,false,false,985,image-keyboard-response,9
true,14,0,2,0,true,q,false,true,0.0-2.0-0.29-0.266-3.266,1,1,0,81,false,stim,false,0,1273,0,1,1,64709,task3,1699984,false,false,988,image-keyboard-response,10
true,14,1,2,1,true,z,false,true,0.0-2.0-0.29-0.267-3.267,1,1,0,90,false,stim,false,2,1337,0,1,2,64709,task3,1702831,false,false,991,image-keyboard-response,11
true,14,2,2,2,true,d,false,true,0.0-2.0-0.29-0.268-3.268,1,1,0,68,false,stim,false,2,1102,0,0,0,64709,task3,1705444,false,false,994,image-keyboard-response,12
true,15,0,2,0,true,q,false,true,0.0-2.0-0.29-0.269-3.269,0,1,1,81,true,stim,false,2,1165,0,0,0,64709,task3,1708119,false,false,997,image-keyboard-response,1
true,15,1,2,0,false,q,true,false,0.0-2.0-0.30-0.270-3.270,0,1,1,90,false,stim,false,0,1095,0,1,1,64709,task3,1710725,false,false,1000,image-keyboard-response,2
true,15,0,2,0,true,q,false,true,0.0-2.0-0.30-0.271-3.271,0,1,1,81,false,stim,false,2,983,0,0,0,64709,task3,1713223,false,false,1003,image-keyboard-response,3
true,15,2,2,1,false,z,true,false,0.0-2.0-0.30-0.272-3.272,0,1,1,68,false,stim,false,1,1426,0,1,2,64709,task3,1716160,false,false,1006,image-keyboard-response,4
true,15,0,2,0,true,q,false,true,0.0-2.0-0.30-0.273-3.273,0,1,1,81,false,stim,false,0,863,0,1,1,64709,task3,1718533,false,false,1009,image-keyboard-response,5
true,15,0,2,1,false,z,true,true,0.0-2.0-0.30-0.274-3.274,0,1,1,81,false,stim,false,1,438,0,1,2,64709,task3,1720483,false,true,1012,image-keyboard-response,6
true,15,1,2,0,false,q,true,true,0.0-2.0-0.30-0.275-3.275,0,1,1,90,false,stim,false,0,1071,0,1,1,64709,task3,1723062,false,true,1015,image-keyboard-response,7
true,15,2,2,1,false,z,true,false,0.0-2.0-0.30-0.276-3.276,0,1,1,68,false,stim,false,1,1513,0,1,2,64709,task3,1726086,false,false,1018,image-keyboard-response,8
true,15,0,2,0,true,q,false,true,0.0-2.0-0.30-0.277-3.277,0,1,1,81,false,stim,false,2,1112,0,1,0,64709,task3,1728706,false,false,1021,image-keyboard-response,9
true,15,0,2,0,true,q,false,true,0.0-2.0-0.30-0.278-3.278,0,1,1,81,false,stim,false,2,908,0,1,0,64709,task3,1731124,false,false,1024,image-keyboard-response,10
true,15,0,2,0,true,q,false,true,0.0-2.0-0.31-0.279-3.279,0,1,1,81,false,stim,false,2,1034,0,1,0,64709,task3,1733667,false,false,1027,image-keyboard-response,11
true,15,1,2,0,false,q,true,false,0.0-2.0-0.31-0.280-3.280,0,1,1,90,false,stim,false,0,1004,0,1,1,64709,task3,1736180,false,false,1030,image-keyboard-response,12
true,15,0,2,1,false,z,true,false,0.0-2.0-0.31-0.281-3.281,0,1,1,81,false,stim,false,1,946,0,0,2,64709,task3,1738638,false,false,1033,image-keyboard-response,13
true,16,2,2,2,true,d,false,true,0.0-2.0-0.31-0.282-3.282,1,1,0,68,true,stim,false,1,1648,0,0,2,64709,task3,1741796,false,false,1036,image-keyboard-response,1
true,16,0,2,0,true,q,false,true,0.0-2.0-0.31-0.283-3.283,1,1,0,81,false,stim,false,0,888,0,1,1,64709,task3,1744196,false,false,1039,image-keyboard-response,2
true,16,2,2,2,true,d,false,true,0.0-2.0-0.31-0.284-3.284,1,1,0,68,false,stim,false,1,423,0,0,2,64709,task3,1746129,false,false,1042,image-keyboard-response,3
true,16,0,2,0,true,q,false,true,0.0-2.0-0.31-0.285-3.285,1,1,0,81,false,stim,false,0,1157,0,1,0,64709,task3,1748794,false,false,1045,image-keyboard-response,4
true,16,1,2,0,false,q,true,false,0.0-2.0-0.31-0.286-3.286,1,1,0,90,false,stim,false,0,1024,0,1,1,64709,task3,1751328,false,false,1048,image-keyboard-response,5
true,16,0,2,0,true,q,false,true,0.0-2.0-0.31-0.287-3.287,1,1,0,81,false,stim,false,0,1152,0,1,0,64709,task3,1753990,false,false,1051,image-keyboard-response,6
true,16,2,2,0,false,q,true,false,0.0-2.0-0.32-0.288-3.288,1,1,0,68,false,stim,false,0,489,0,1,1,64709,task3,1755989,false,false,1054,image-keyboard-response,7
true,16,1,2,0,false,q,true,false,0.0-2.0-0.32-0.289-3.289,1,1,0,90,false,stim,false,0,1469,0,1,1,64709,task3,1758965,false,false,1057,image-keyboard-response,8
true,16,0,2,0,true,q,false,true,0.0-2.0-0.32-0.290-3.290,1,1,0,81,false,stim,false,0,1079,0,1,1,64709,task3,1761557,false,false,1060,image-keyboard-response,9
true,16,0,2,2,false,d,true,true,0.0-2.0-0.32-0.291-3.291,1,1,0,81,false,stim,false,1,902,0,0,2,64709,task3,1763971,false,true,1063,image-keyboard-response,10
true,16,1,2,0,false,q,true,false,0.0-2.0-0.32-0.292-3.292,1,1,0,90,false,stim,false,0,522,0,1,0,64709,task3,1766006,false,false,1066,image-keyboard-response,11
true,16,2,2,0,false,q,true,false,0.0-2.0-0.32-0.293-3.293,1,1,0,68,false,stim,false,0,2606,0,1,0,64709,task3,1770121,false,false,1069,image-keyboard-response,12
true,16,0,2,2,false,d,true,false,0.0-2.0-0.32-0.294-3.294,1,1,0,81,false,stim,false,1,573,0,0,2,64709,task3,1772204,false,false,1072,image-keyboard-response,13
true,16,0,2,2,false,d,true,false,0.0-2.0-0.32-0.295-3.295,1,1,0,81,false,stim,false,1,418,0,0,2,64709,task3,1774133,false,false,1075,image-keyboard-response,14
true,16,0,2,0,true,q,false,true,0.0-2.0-0.32-0.296-3.296,1,1,0,81,false,stim,false,0,1272,0,1,0,64709,task3,1776914,false,false,1078,image-keyboard-response,15
true,16,0,2,2,false,d,true,false,0.0-2.0-0.33-0.297-3.297,1,1,0,81,false,stim,false,1,1536,0,0,2,64709,task3,1779955,false,false,1081,image-keyboard-response,16
true,16,0,2,0,true,q,false,true,0.0-2.0-0.33-0.298-3.298,1,1,0,81,false,stim,false,0,559,0,1,0,64709,task3,1782026,false,false,1084,image-keyboard-response,17
true,16,1,2,0,false,q,true,true,0.0-2.0-0.33-0.299-3.299,1,1,0,90,false,stim,false,0,640,0,1,1,64709,task3,1784175,false,true,1087,image-keyboard-response,18
true,16,2,2,0,false,q,true,false,0.0-2.0-0.33-0.300-3.300,1,1,0,68,false,stim,false,0,1371,0,1,0,64709,task3,1787053,false,false,1090,image-keyboard-response,19
true,16,0,2,0,true,q,false,true,0.0-2.0-0.33-0.301-3.301,1,1,0,81,false,stim,false,0,912,0,1,1,64709,task3,1789471,false,false,1093,image-keyboard-response,20
true,16,0,2,2,false,d,true,false,0.0-2.0-0.33-0.302-3.302,1,1,0,81,false,stim,false,1,930,0,0,2,64709,task3,1791911,false,false,1096,image-keyboard-response,21
true,16,1,2,0,false,q,true,false,0.0-2.0-0.33-0.303-3.303,1,1,0,90,false,stim,false,0,899,0,1,0,64709,task3,1794323,false,false,1099,image-keyboard-response,22
true,16,0,2,2,false,d,true,true,0.0-2.0-0.33-0.304-3.304,1,1,0,81,false,stim,false,1,894,0,0,2,64709,task3,1796736,false,true,1102,image-keyboard-response,23
true,16,2,2,0,false,q,true,false,0.0-2.0-0.33-0.305-3.305,1,1,0,68,false,stim,false,0,1417,0,1,1,64709,task3,1799664,false,false,1105,image-keyboard-response,24
true,16,0,2,0,true,q,false,true,0.0-2.0-0.34-0.306-3.306,1,1,0,81,false,stim,false,0,1792,0,0,1,64709,task3,1802966,false,false,1108,image-keyboard-response,25
true,16,0,2,0,true,q,false,false,0.0-2.0-0.34-0.307-3.307,1,1,0,81,false,stim,false,0,792,0,0,1,64709,task3,1805271,false,true,1111,image-keyboard-response,26
true,16,0,2,2,false,d,true,false,0.0-2.0-0.34-0.308-3.308,1,1,0,81,false,stim,false,1,990,0,0,2,64709,task3,1807770,false,false,1114,image-keyboard-response,27
true,16,1,2,0,false,q,true,false,0.0-2.0-0.34-0.309-3.309,1,1,0,90,false,stim,false,0,1103,0,1,0,64709,task3,1810379,false,false,1117,image-keyboard-response,28
true,16,2,2,0,false,q,true,false,0.0-2.0-0.34-0.310-3.310,1,1,0,68,false,stim,false,0,965,0,1,0,64709,task3,1812853,false,false,1120,image-keyboard-response,29
true,17,2,1,0,false,q,false,false,0.0-2.0-0.34-0.311-3.311,1,0,0,68,true,stim,true,2,688,0,0,2,64709,task3,1815049,false,false,1123,image-keyboard-response,1
true,17,2,1,0,false,q,true,false,0.0-2.0-0.34-0.312-3.312,1,0,0,68,false,stim,false,0,1367,0,1,0,64709,task3,1817927,false,false,1126,image-keyboard-response,2
true,17,1,1,2,false,d,true,false,0.0-2.0-0.34-0.313-3.313,1,0,0,90,false,stim,false,0,387,0,0,1,64709,task3,1819825,false,false,1129,image-keyboard-response,3
true,17,0,1,0,true,q,false,true,0.0-2.0-0.34-0.314-3.314,1,0,0,81,false,stim,false,2,410,0,0,2,64709,task3,1821744,false,false,1132,image-keyboard-response,4
true,17,1,1,0,false,q,true,true,0.0-2.0-0.35-0.315-3.315,1,0,0,90,false,stim,false,0,936,0,1,0,64709,task3,1824191,false,true,1135,image-keyboard-response,5
true,17,1,1,0,false,q,true,true,0.0-2.0-0.35-0.316-3.316,1,0,0,90,false,stim,false,2,911,0,0,2,64709,task3,1826614,false,true,1138,image-keyboard-response,6
true,17,1,1,0,false,q,true,false,0.0-2.0-0.35-0.317-3.317,1,0,0,90,false,stim,false,2,863,0,0,2,64709,task3,1828989,false,false,1141,image-keyboard-response,7
true,17,0,1,2,false,d,false,false,0.0-2.0-0.35-0.318-3.318,1,0,0,81,false,stim,true,0,1084,0,0,1,64709,task3,1831580,false,false,1144,image-keyboard-response,8
true,17,0,1,0,true,q,false,true,0.0-2.0-0.35-0.319-3.319,1,0,0,81,false,stim,false,0,833,0,1,0,64709,task3,1833917,false,false,1147,image-keyboard-response,9
true,17,1,1,0,false,q,true,false,0.0-2.0-0.35-0.320-3.320,1,0,0,90,false,stim,false,2,1149,0,0,2,64709,task3,1836575,false,false,1150,image-keyboard-response,10
true,17,0,1,2,false,d,false,true,0.0-2.0-0.35-0.321-3.321,1,0,0,81,false,stim,true,0,1054,0,0,1,64709,task3,1839142,false,true,1153,image-keyboard-response,11
true,17,2,1,0,false,q,true,false,0.0-2.0-0.35-0.322-3.322,1,0,0,68,false,stim,false,0,586,0,0,0,64709,task3,1841236,false,false,1156,image-keyboard-response,12
true,17,0,1,2,false,d,false,false,0.0-2.0-0.35-0.323-3.323,1,0,0,81,false,stim,true,0,661,0,1,1,64709,task3,1843400,false,false,1159,image-keyboard-response,13
true,17,0,1,0,true,q,false,true,0.0-2.0-0.36-0.324-3.324,1,0,0,81,false,stim,false,0,947,0,0,0,64709,task3,1845856,false,false,1162,image-keyboard-response,14
true,17,1,1,2,false,d,true,false,0.0-2.0-0.36-0.325-3.325,1,0,0,90,false,stim,false,0,485,0,1,1,64709,task3,1847848,false,false,1165,image-keyboard-response,15
true,17,0,1,0,true,q,false,true,0.0-2.0-0.36-0.326-3.326,1,0,0,81,false,stim,false,2,601,0,1,2,64709,task3,1849957,false,false,1168,image-keyboard-response,16
true,18,2,2,2,true,d,false,true,0.0-2.0-0.36-0.327-3.327,0,1,1,68,true,stim,false,2,541,0,1,1,64709,task3,1852006,false,false,1171,image-keyboard-response,1
true,18,1,2,0,false,q,true,false,0.0-2.0-0.36-0.328-3.328,0,1,1,90,false,stim,false,0,1485,0,1,2,64709,task3,1854999,false,false,1174,image-keyboard-response,2
true,18,0,2,0,true,q,false,true,0.0-2.0-0.36-0.329-3.329,0,1,1,81,false,stim,false,0,590,0,1,2,64709,task3,1857095,false,false,1177,image-keyboard-response,3
true,18,2,2,1,false,z,true,false,0.0-2.0-0.36-0.330-3.330,0,1,1,68,false,stim,false,0,1232,0,0,0,64709,task3,1859836,false,false,1180,image-keyboard-response,4
true,18,0,2,2,false,d,true,false,0.0-2.0-0.36-0.331-3.331,0,1,1,81,false,stim,false,2,618,0,1,1,64709,task3,1861962,false,false,1183,image-keyboard-response,5
true,18,0,2,1,false,z,false,false,0.0-2.0-0.36-0.332-3.332,0,1,1,81,false,stim,true,0,1012,0,0,0,64709,task3,1864487,false,false,1186,image-keyboard-response,6
true,18,1,2,0,false,q,true,false,0.0-2.0-0.37-0.333-3.333,0,1,1,90,false,stim,false,0,1198,0,1,2,64709,task3,1867193,false,false,1189,image-keyboard-response,7
true,18,2,2,0,false,q,true,false,0.0-2.0-0.37-0.334-3.334,0,1,1,68,false,stim,false,0,1001,0,1,2,64709,task3,1869708,false,false,1192,image-keyboard-response,8
true,18,0,2,0,true,q,false,false,0.0-2.0-0.37-0.335-3.335,0,1,1,81,false,stim,false,0,714,0,1,2,64709,task3,1871928,false,true,1195,image-keyboard-response,9
true,18,0,2,1,false,z,false,false,0.0-2.0-0.37-0.336-3.336,0,1,1,81,false,stim,true,0,764,0,0,0,64709,task3,1874200,false,false,1198,image-keyboard-response,10
true,18,0,2,1,false,z,false,false,0.0-2.0-0.37-0.337-3.337,0,1,1,81,false,stim,true,0,909,0,0,0,64709,task3,1876627,false,false,1201,image-keyboard-response,11
true,18,2,2,2,true,d,false,false,0.0-2.0-0.37-0.338-3.338,0,1,1,68,false,stim,false,2,1542,0,1,1,64709,task3,1879680,false,true,1204,image-keyboard-response,12
true,18,1,2,2,false,d,true,false,0.0-2.0-0.37-0.339-3.339,0,1,1,90,false,stim,false,2,1107,0,1,1,64709,task3,1882296,false,false,1207,image-keyboard-response,13
true,18,2,2,2,true,d,false,false,0.0-2.0-0.37-0.340-3.340,0,1,1,68,false,stim,false,2,1425,0,1,1,64709,task3,1885232,false,true,1210,image-keyboard-response,14
true,18,0,2,1,false,z,false,false,0.0-2.0-0.37-0.341-3.341,0,1,1,81,false,stim,true,0,1284,0,0,0,64709,task3,1888026,false,false,1213,image-keyboard-response,15
true,18,0,2,1,false,z,false,true,0.0-2.0-0.38-0.342-3.342,0,1,1,81,false,stim,true,0,1505,0,0,0,64709,task3,1891042,false,true,1216,image-keyboard-response,16
true,18,1,2,1,true,z,false,true,0.0-2.0-0.38-0.343-3.343,0,1,1,90,false,stim,false,0,997,0,0,0,64709,task3,1893546,false,false,1219,image-keyboard-response,17
true,18,0,2,2,false,d,true,false,0.0-2.0-0.38-0.344-3.344,0,1,1,81,false,stim,false,2,1682,0,1,1,64709,task3,1896739,false,false,1222,image-keyboard-response,18
true,18,1,2,0,false,q,true,false,0.0-2.0-0.38-0.345-3.345,0,1,1,90,false,stim,false,0,1903,0,1,2,64709,task3,1900152,false,false,1225,image-keyboard-response,19
true,18,2,2,0,false,q,true,false,0.0-2.0-0.38-0.346-3.346,0,1,1,68,false,stim,false,0,1394,0,1,2,64709,task3,1903058,false,false,1228,image-keyboard-response,20
true,18,0,2,1,false,z,false,false,0.0-2.0-0.38-0.347-3.347,0,1,1,81,false,stim,true,0,856,0,0,0,64709,task3,1905422,false,false,1231,image-keyboard-response,21
true,18,0,2,2,false,d,true,false,0.0-2.0-0.38-0.348-3.348,0,1,1,81,false,stim,false,2,542,0,0,1,64709,task3,1907474,false,false,1234,image-keyboard-response,22
true,18,0,2,0,true,q,false,true,0.0-2.0-0.38-0.349-3.349,0,1,1,81,false,stim,false,0,574,0,1,2,64709,task3,1909557,false,false,1237,image-keyboard-response,23
true,18,1,2,2,false,d,true,false,0.0-2.0-0.38-0.350-3.350,0,1,1,90,false,stim,false,2,868,0,0,1,64709,task3,1911935,false,false,1240,image-keyboard-response,24
true,18,2,2,2,true,d,false,true,0.0-2.0-0.39-0.351-3.351,0,1,1,68,false,stim,false,2,1766,0,0,1,64709,task3,1915210,false,false,1243,image-keyboard-response,25
true,18,0,2,1,false,z,false,false,0.0-2.0-0.39-0.352-3.352,0,1,1,81,false,stim,true,0,1568,0,0,0,64709,task3,1918287,false,false,1246,image-keyboard-response,26
true,19,2,1,0,false,q,true,false,0.0-2.0-0.39-0.353-3.353,0,0,1,68,true,stim,false,0,2271,0,1,2,64709,task3,1922069,false,false,1249,image-keyboard-response,1
true,19,1,1,1,true,z,false,true,0.0-2.0-0.39-0.354-3.354,0,0,1,90,false,stim,false,2,885,0,0,1,64709,task3,1924466,false,false,1252,image-keyboard-response,2
true,19,1,1,2,false,d,false,false,0.0-2.0-0.39-0.355-3.355,0,0,1,90,false,stim,true,1,887,0,0,0,64709,task3,1926864,false,false,1255,image-keyboard-response,3
true,19,0,1,2,false,d,true,false,0.0-2.0-0.39-0.356-3.356,0,0,1,81,false,stim,false,1,535,0,0,0,64709,task3,1928907,false,false,1258,image-keyboard-response,4
true,19,0,1,0,true,q,false,true,0.0-2.0-0.39-0.357-3.357,0,0,1,81,false,stim,false,0,1295,0,1,2,64709,task3,1931711,false,false,1261,image-keyboard-response,5
true,19,1,1,1,true,z,false,true,0.0-2.0-0.39-0.358-3.358,0,0,1,90,false,stim,false,2,1409,0,0,1,64709,task3,1934629,false,false,1264,image-keyboard-response,6
true,19,0,1,0,true,q,false,true,0.0-2.0-0.39-0.359-3.359,0,0,1,81,false,stim,false,0,1079,0,1,2,64709,task3,1937216,false,false,1267,image-keyboard-response,7
true,19,0,1,0,true,q,false,true,0.0-2.0-0.40-0.360-3.360,0,0,1,81,false,stim,false,0,933,0,1,2,64709,task3,1939654,false,false,1270,image-keyboard-response,8
true,19,1,1,2,false,d,false,false,0.0-2.0-0.40-0.361-3.361,0,0,1,90,false,stim,true,1,1209,0,1,0,64709,task3,1942370,false,false,1273,image-keyboard-response,9
true,19,0,1,0,true,q,false,true,0.0-2.0-0.40-0.362-3.362,0,0,1,81,false,stim,false,0,987,0,0,2,64709,task3,1944867,false,false,1276,image-keyboard-response,10
true,19,1,1,1,true,z,false,true,0.0-2.0-0.40-0.363-3.363,0,0,1,90,false,stim,false,2,1025,0,1,1,64709,task3,1947402,false,false,1279,image-keyboard-response,11
true,19,0,1,0,true,q,false,true,0.0-2.0-0.40-0.364-3.364,0,0,1,81,false,stim,false,0,871,0,0,2,64709,task3,1949785,false,false,1282,image-keyboard-response,12
true,19,2,1,2,true,d,false,true,0.0-2.0-0.40-0.365-3.365,0,0,1,68,false,stim,false,1,1278,0,1,0,64709,task3,1952574,false,false,1285,image-keyboard-response,13
true,20,0,2,1,false,z,true,true,0.0-2.0-0.40-0.366-3.366,1,1,0,81,true,stim,false,1,1134,0,1,1,64709,task3,1955219,false,true,1288,image-keyboard-response,1
true,20,1,2,2,false,d,true,false,0.0-2.0-0.40-0.367-3.367,1,1,0,90,false,stim,false,2,1109,0,1,0,64709,task3,1957837,false,false,1291,image-keyboard-response,2
true,20,1,2,1,true,z,false,true,0.0-2.0-0.40-0.368-3.368,1,1,0,90,false,stim,false,1,1230,0,1,1,64709,task3,1960572,false,false,1294,image-keyboard-response,3
true,20,2,2,2,true,d,false,true,0.0-2.0-0.41-0.369-3.369,1,1,0,68,false,stim,false,2,1226,0,1,0,64709,task3,1963307,false,false,1297,image-keyboard-response,4
true,20,1,2,1,true,z,false,true,0.0-2.0-0.41-0.370-3.370,1,1,0,90,false,stim,false,1,1084,0,1,1,64709,task3,1965900,false,false,1300,image-keyboard-response,5
true,20,0,2,1,false,z,false,false,0.0-2.0-0.41-0.371-3.371,1,1,0,81,false,stim,true,0,1243,0,0,2,64709,task3,1968657,false,false,1303,image-keyboard-response,6
true,20,0,2,1,false,z,true,false,0.0-2.0-0.41-0.372-3.372,1,1,0,81,false,stim,false,1,1080,0,1,1,64709,task3,1971246,false,false,1306,image-keyboard-response,7
true,20,1,2,1,true,z,false,true,0.0-2.0-0.41-0.373-3.373,1,1,0,90,false,stim,false,1,921,0,1,1,64709,task3,1973678,false,false,1309,image-keyboard-response,8
true,20,2,2,2,true,d,false,false,0.0-2.0-0.41-0.374-3.374,1,1,0,68,false,stim,false,2,1034,0,1,0,64709,task3,1976221,false,true,1312,image-keyboard-response,9
true,20,1,2,1,true,z,false,false,0.0-2.0-0.41-0.375-3.375,1,1,0,90,false,stim,false,0,889,0,1,2,64709,task3,1978618,false,true,1315,image-keyboard-response,10
true,20,0,2,2,false,d,true,false,0.0-2.0-0.41-0.376-3.376,1,1,0,81,false,stim,false,2,717,0,1,0,64709,task3,1980843,false,false,1318,image-keyboard-response,11
true,20,0,2,1,false,z,false,true,0.0-2.0-0.41-0.377-3.377,1,1,0,81,false,stim,true,0,1193,0,1,2,64709,task3,1983546,false,true,1321,image-keyboard-response,12
true,20,1,2,1,true,z,false,true,0.0-2.0-0.42-0.378-3.378,1,1,0,90,false,stim,false,1,630,0,0,1,64709,task3,1985684,false,false,1324,image-keyboard-response,13
true,20,2,2,2,true,d,false,true,0.0-2.0-0.42-0.379-3.379,1,1,0,68,false,stim,false,2,513,0,1,0,64709,task3,1987704,false,false,1327,image-keyboard-response,14
true,21,0,2,1,false,z,true,true,0.0-2.0-0.42-0.380-3.380,1,0,1,81,true,stim,false,1,887,0,1,2,64709,task3,1990102,false,true,1330,image-keyboard-response,1
true,21,1,2,2,false,d,false,false,0.0-2.0-0.42-0.381-3.381,1,0,1,90,false,stim,true,1,429,0,0,1,64709,task3,1992041,false,false,1333,image-keyboard-response,2
true,21,1,2,2,false,d,true,false,0.0-2.0-0.42-0.382-3.382,1,0,1,90,false,stim,false,2,583,0,1,0,64709,task3,1994131,false,false,1336,image-keyboard-response,3
true,21,1,2,2,false,d,false,false,0.0-2.0-0.42-0.383-3.383,1,0,1,90,false,stim,true,1,1104,0,0,1,64709,task3,1996741,false,false,1339,image-keyboard-response,4
true,21,2,2,1,false,z,true,false,0.0-2.0-0.42-0.384-3.384,1,0,1,68,false,stim,false,1,1674,0,1,2,64709,task3,1999925,false,false,1342,image-keyboard-response,5
true,21,0,2,2,false,d,true,false,0.0-2.0-0.42-0.385-3.385,1,0,1,81,false,stim,false,2,805,0,1,0,64709,task3,2002242,false,false,1345,image-keyboard-response,6
true,21,1,2,1,true,z,false,true,0.0-2.0-0.42-0.386-3.386,1,0,1,90,false,stim,false,1,434,0,1,2,64709,task3,2004185,false,false,1348,image-keyboard-response,7
true,21,2,2,1,false,z,true,false,0.0-2.0-0.43-0.387-3.387,1,0,1,68,false,stim,false,1,1653,0,1,2,64709,task3,2007345,false,false,1351,image-keyboard-response,8
true,21,0,2,2,false,d,true,false,0.0-2.0-0.43-0.388-3.388,1,0,1,81,false,stim,false,1,855,0,0,1,64709,task3,2009710,false,false,1354,image-keyboard-response,9
true,21,0,2,2,false,d,true,false,0.0-2.0-0.43-0.389-3.389,1,0,1,81,false,stim,false,2,986,0,1,0,64709,task3,2012204,false,false,1357,image-keyboard-response,10
true,21,0,2,2,false,d,true,false,0.0-2.0-0.43-0.390-3.390,1,0,1,81,false,stim,false,1,1056,0,1,1,64709,task3,2014771,false,false,1360,image-keyboard-response,11
true,21,1,2,2,false,d,false,false,0.0-2.0-0.43-0.391-3.391,1,0,1,90,false,stim,true,1,1653,0,1,1,64709,task3,2017934,false,false,1363,image-keyboard-response,12
true,21,2,2,2,true,d,false,true,0.0-2.0-0.43-0.392-3.392,1,0,1,68,false,stim,false,2,1441,0,0,0,64709,task3,2020879,false,false,1366,image-keyboard-response,13
true,21,2,2,1,false,z,true,false,0.0-2.0-0.43-0.393-3.393,1,0,1,68,false,stim,false,1,637,0,1,2,64709,task3,2023023,false,false,1369,image-keyboard-response,14
true,21,1,2,1,true,z,false,true,0.0-2.0-0.43-0.394-3.394,1,0,1,90,false,stim,false,1,1181,0,1,2,64709,task3,2025715,false,false,1372,image-keyboard-response,15
true,22,0,2,0,true,q,false,true,0.0-2.0-0.43-0.395-3.395,0,1,1,81,true,stim,false,2,1103,0,0,0,64709,task3,2028326,false,false,1375,image-keyboard-response,1
true,22,1,2,1,true,z,false,true,0.0-2.0-0.44-0.396-3.396,0,1,1,90,false,stim,false,1,1061,0,1,2,64709,task3,2030896,false,false,1378,image-keyboard-response,2
true,22,0,2,2,false,d,true,false,0.0-2.0-0.44-0.397-3.397,0,1,1,81,false,stim,false,2,956,0,1,1,64709,task3,2033364,false,false,1381,image-keyboard-response,3
true,22,1,2,0,false,q,true,false,0.0-2.0-0.44-0.398-3.398,0,1,1,90,false,stim,false,2,551,0,0,0,64709,task3,2035424,false,false,1384,image-keyboard-response,4
true,22,2,2,2,true,d,false,true,0.0-2.0-0.44-0.399-3.399,0,1,1,68,false,stim,false,2,1181,0,1,1,64709,task3,2038116,false,false,1387,image-keyboard-response,5
true,22,0,2,2,false,d,true,false,0.0-2.0-0.44-0.400-3.400,0,1,1,81,false,stim,false,2,1206,0,1,1,64709,task3,2040828,false,false,1390,image-keyboard-response,6
true,22,0,2,1,false,z,true,false,0.0-2.0-0.44-0.401-3.401,0,1,1,81,false,stim,false,1,2008,0,1,2,64709,task3,2044348,false,false,1393,image-keyboard-response,7
true,22,1,2,1,true,z,false,true,0.0-2.0-0.44-0.402-3.402,0,1,1,90,false,stim,false,1,2271,0,1,2,64709,task3,2048129,false,false,1396,image-keyboard-response,8
true,22,0,2,0,true,q,false,true,0.0-2.0-0.44-0.403-3.403,0,1,1,81,false,stim,false,2,813,0,0,0,64709,task3,2050449,false,false,1399,image-keyboard-response,9
true,22,2,2,0,false,q,false,false,0.0-2.0-0.44-0.404-3.404,0,1,1,68,false,stim,true,2,1332,0,0,0,64709,task3,2053296,false,false,1402,image-keyboard-response,10
true,22,0,2,1,false,z,true,false,0.0-2.0-0.45-0.405-3.405,0,1,1,81,false,stim,false,1,915,0,1,2,64709,task3,2055717,false,false,1405,image-keyboard-response,11
true,22,0,2,0,true,q,false,true,0.0-2.0-0.45-0.406-3.406,0,1,1,81,false,stim,false,2,506,0,0,0,64709,task3,2057735,false,false,1408,image-keyboard-response,12
true,22,1,2,2,false,d,true,false,0.0-2.0-0.45-0.407-3.407,0,1,1,90,false,stim,false,2,727,0,1,1,64709,task3,2059973,false,false,1411,image-keyboard-response,13
true,22,0,2,1,false,z,true,true,0.0-2.0-0.45-0.408-3.408,0,1,1,81,false,stim,false,1,824,0,1,2,64709,task3,2062307,false,true,1414,image-keyboard-response,14
false,22,-1,2,1,false,z,true,false,0.0-2.0-0.45-0.409-3.409,0,1,1,,false,stim,false,1,,0,1,2,64709,task3,2066821,false,false,1417,image-keyboard-response,15
true,22,0,2,0,true,q,false,true,0.0-2.0-0.45-0.410-3.410,0,1,1,81,false,stim,false,2,524,0,0,0,64709,task3,2068854,false,false,1420,image-keyboard-response,16
true,22,2,2,2,true,d,false,false,0.0-2.0-0.45-0.411-3.411,0,1,1,68,false,stim,false,2,1215,0,1,1,64709,task3,2071578,false,true,1423,image-keyboard-response,17
true,22,0,2,0,true,q,false,true,0.0-2.0-0.45-0.412-3.412,0,1,1,81,false,stim,false,2,898,0,0,0,64709,task3,2073983,false,false,1426,image-keyboard-response,18
true,22,1,2,2,false,d,true,false,0.0-2.0-0.45-0.413-3.413,0,1,1,90,false,stim,false,2,1017,0,1,1,64709,task3,2076508,false,false,1429,image-keyboard-response,19
true,22,2,2,2,true,d,false,true,0.0-2.0-0.46-0.414-3.414,0,1,1,68,false,stim,false,2,1068,0,1,1,64709,task3,2079086,false,false,1432,image-keyboard-response,20
true,22,0,2,0,true,q,false,false,0.0-2.0-0.46-0.415-3.415,0,1,1,81,false,stim,false,2,752,0,0,0,64709,task3,2081349,false,true,1435,image-keyboard-response,21
true,22,1,2,1,true,z,false,true,0.0-2.0-0.46-0.416-3.416,0,1,1,90,false,stim,false,1,621,0,0,2,64709,task3,2083479,false,false,1438,image-keyboard-response,22
true,22,2,2,1,false,z,true,false,0.0-2.0-0.46-0.417-3.417,0,1,1,68,false,stim,false,1,1030,0,0,2,64709,task3,2086015,false,false,1441,image-keyboard-response,23
true,22,0,2,2,false,d,true,true,0.0-2.0-0.46-0.418-3.418,0,1,1,81,false,stim,false,2,867,0,1,1,64709,task3,2088393,false,true,1444,image-keyboard-response,24
true,22,1,2,0,false,q,true,false,0.0-2.0-0.46-0.419-3.419,0,1,1,90,false,stim,false,2,987,0,0,0,64709,task3,2090888,false,false,1447,image-keyboard-response,25
true,23,2,1,1,false,z,true,false,0.0-2.0-0.46-0.420-3.420,0,1,0,68,true,stim,false,0,1025,0,0,0,64709,task3,2093422,false,false,1450,image-keyboard-response,1
true,23,0,1,2,false,d,true,false,0.0-2.0-0.46-0.421-3.421,0,1,0,81,false,stim,false,2,602,0,1,1,64709,task3,2095534,false,false,1453,image-keyboard-response,2
true,23,0,1,2,false,d,true,false,0.0-2.0-0.46-0.422-3.422,0,1,0,81,false,stim,false,1,916,0,0,2,64709,task3,2097959,false,false,1456,image-keyboard-response,3
true,23,0,1,2,false,d,true,false,0.0-2.0-0.47-0.423-3.423,0,1,0,81,false,stim,false,2,717,0,1,1,64709,task3,2100187,false,false,1459,image-keyboard-response,4
true,23,1,1,2,false,d,false,false,0.0-2.0-0.47-0.424-3.424,0,1,0,90,false,stim,true,1,1231,0,0,2,64709,task3,2102927,false,false,1462,image-keyboard-response,5
true,23,2,1,2,true,d,false,true,0.0-2.0-0.47-0.425-3.425,0,1,0,68,false,stim,false,1,1184,0,0,2,64709,task3,2105623,false,false,1465,image-keyboard-response,6
true,23,0,1,1,false,z,false,true,0.0-2.0-0.47-0.426-3.426,0,1,0,81,false,stim,true,0,900,0,0,0,64709,task3,2108033,false,true,1468,image-keyboard-response,7
true,23,1,1,2,false,d,true,false,0.0-2.0-0.47-0.427-3.427,0,1,0,90,false,stim,false,2,1399,0,1,1,64709,task3,2110943,false,false,1471,image-keyboard-response,8
true,23,0,1,1,false,z,false,false,0.0-2.0-0.47-0.428-3.428,0,1,0,81,false,stim,true,0,603,0,0,0,64709,task3,2113053,false,false,1474,image-keyboard-response,9
true,23,0,1,1,false,z,false,false,0.0-2.0-0.47-0.429-3.429,0,1,0,81,false,stim,true,0,550,0,0,0,64709,task3,2115113,false,false,1477,image-keyboard-response,10
true,23,0,1,2,false,d,true,false,0.0-2.0-0.47-0.430-3.430,0,1,0,81,false,stim,false,1,566,0,0,2,64709,task3,2117188,false,false,1480,image-keyboard-response,11
true,23,0,1,2,false,d,true,false,0.0-2.0-0.47-0.431-3.431,0,1,0,81,false,stim,false,2,528,0,1,1,64709,task3,2119226,false,false,1483,image-keyboard-response,12
true,23,1,1,2,false,d,false,false,0.0-2.0-0.48-0.432-3.432,0,1,0,90,false,stim,true,1,958,0,0,2,64709,task3,2121691,false,false,1486,image-keyboard-response,13
true,23,0,1,2,false,d,true,false,0.0-2.0-0.48-0.433-3.433,0,1,0,81,false,stim,false,2,552,0,1,1,64709,task3,2123750,false,false,1489,image-keyboard-response,14
true,23,0,1,1,false,z,false,false,0.0-2.0-0.48-0.434-3.434,0,1,0,81,false,stim,true,0,1256,0,0,0,64709,task3,2126514,false,false,1492,image-keyboard-response,15
true,23,0,1,2,false,d,true,false,0.0-2.0-0.48-0.435-3.435,0,1,0,81,false,stim,false,1,541,0,0,2,64709,task3,2128566,false,false,1495,image-keyboard-response,16
true,23,1,1,2,false,d,true,false,0.0-2.0-0.48-0.436-3.436,0,1,0,90,false,stim,false,2,1479,0,1,1,64709,task3,2131553,false,false,1498,image-keyboard-response,17
true,23,2,1,2,true,d,false,true,0.0-2.0-0.48-0.437-3.437,0,1,0,68,false,stim,false,1,2068,0,0,2,64709,task3,2135137,false,false,1501,image-keyboard-response,18
true,23,0,1,1,false,z,false,false,0.0-2.0-0.48-0.438-3.438,0,1,0,81,false,stim,true,0,1655,0,0,0,64709,task3,2138304,false,false,1504,image-keyboard-response,19
true,23,0,1,1,false,z,false,false,0.0-2.0-0.48-0.439-3.439,0,1,0,81,false,stim,true,0,1105,0,0,0,64709,task3,2140919,false,false,1507,image-keyboard-response,20
true,23,0,1,2,false,d,true,false,0.0-2.0-0.48-0.440-3.440,0,1,0,81,false,stim,false,2,935,0,1,1,64709,task3,2143364,false,false,1510,image-keyboard-response,21
true,23,0,1,2,false,d,true,false,0.0-2.0-0.49-0.441-3.441,0,1,0,81,false,stim,false,1,1400,0,0,2,64709,task3,2146273,false,false,1513,image-keyboard-response,22
true,23,1,1,2,false,d,true,false,0.0-2.0-0.49-0.442-3.442,0,1,0,90,false,stim,false,2,935,0,1,1,64709,task3,2148719,false,false,1516,image-keyboard-response,23
true,23,0,1,2,false,d,true,false,0.0-2.0-0.49-0.443-3.443,0,1,0,81,false,stim,false,2,980,0,1,1,64709,task3,2151208,false,false,1519,image-keyboard-response,24
true,23,0,1,1,false,z,false,false,0.0-2.0-0.49-0.444-3.444,0,1,0,81,false,stim,true,0,868,0,0,0,64709,task3,2153585,false,false,1522,image-keyboard-response,25
true,23,0,1,2,false,d,true,false,0.0-2.0-0.49-0.445-3.445,0,1,0,81,false,stim,false,2,782,0,0,1,64709,task3,2155875,false,false,1525,image-keyboard-response,26
true,23,1,1,1,true,z,false,true,0.0-2.0-0.49-0.446-3.446,0,1,0,90,false,stim,false,0,929,0,1,0,64709,task3,2158314,false,false,1528,image-keyboard-response,27
true,23,2,1,2,true,d,false,true,0.0-2.0-0.49-0.447-3.447,0,1,0,68,false,stim,false,1,1930,0,0,2,64709,task3,2161752,false,false,1531,image-keyboard-response,28
true,23,0,1,1,false,z,false,true,0.0-2.0-0.49-0.448-3.448,0,1,0,81,false,stim,true,0,1098,0,1,0,64709,task3,2164362,false,true,1534,image-keyboard-response,29
true,23,1,1,2,false,d,false,false,0.0-2.0-0.49-0.449-3.449,0,1,0,90,false,stim,true,1,499,0,0,2,64709,task3,2166373,false,false,1537,image-keyboard-response,30
true,24,1,1,1,true,z,false,true,0.0-2.0-0.50-0.450-3.450,1,0,0,90,true,stim,false,1,750,0,1,0,64709,task3,2168631,false,false,1540,image-keyboard-response,1
true,24,1,1,1,true,z,false,true,0.0-2.0-0.50-0.451-3.451,1,0,0,90,false,stim,false,1,1105,0,1,0,64709,task3,2171245,false,false,1543,image-keyboard-response,2
true,24,0,1,0,true,q,false,true,0.0-2.0-0.50-0.452-3.452,1,0,0,81,false,stim,false,2,986,0,0,1,64709,task3,2173737,false,false,1546,image-keyboard-response,3
true,24,1,1,0,false,q,true,false,0.0-2.0-0.50-0.453-3.453,1,0,0,90,false,stim,false,2,1059,0,0,2,64709,task3,2176304,false,false,1549,image-keyboard-response,4
true,24,0,1,0,true,q,false,true,0.0-2.0-0.50-0.454-3.454,1,0,0,81,false,stim,false,2,1252,0,0,2,64709,task3,2179063,false,false,1552,image-keyboard-response,5
true,24,2,1,0,false,q,false,false,0.0-2.0-0.50-0.455-3.455,1,0,0,68,false,stim,true,2,615,0,0,1,64709,task3,2181186,false,false,1555,image-keyboard-response,6
true,24,0,1,1,false,z,true,false,0.0-2.0-0.50-0.456-3.456,1,0,0,81,false,stim,false,1,744,0,1,0,64709,task3,2183440,false,false,1558,image-keyboard-response,7
true,24,0,1,0,true,q,false,true,0.0-2.0-0.50-0.457-3.457,1,0,0,81,false,stim,false,2,1407,0,0,1,64709,task3,2186352,false,false,1561,image-keyboard-response,8
true,24,1,1,0,false,q,true,false,0.0-2.0-0.50-0.458-3.458,1,0,0,90,false,stim,false,2,948,0,0,2,64709,task3,2188804,false,false,1564,image-keyboard-response,9
true,24,2,1,0,false,q,false,false,0.0-2.0-0.51-0.459-3.459,1,0,0,68,false,stim,true,2,2044,0,0,1,64709,task3,2192359,false,false,1567,image-keyboard-response,10
true,24,0,1,0,true,q,false,true,0.0-2.0-0.51-0.460-3.460,1,0,0,81,false,stim,false,2,988,0,0,2,64709,task3,2194857,false,false,1570,image-keyboard-response,11
true,24,1,1,1,true,z,false,true,0.0-2.0-0.51-0.461-3.461,1,0,0,90,false,stim,false,1,1532,0,1,0,64709,task3,2197899,false,false,1573,image-keyboard-response,12
true,24,2,1,1,false,z,true,false,0.0-2.0-0.51-0.462-3.462,1,0,0,68,false,stim,false,1,1379,0,1,0,64709,task3,2200784,false,false,1576,image-keyboard-response,13
true,24,0,1,1,false,z,true,false,0.0-2.0-0.51-0.463-3.463,1,0,0,81,false,stim,false,1,715,0,1,0,64709,task3,2203012,false,false,1579,image-keyboard-response,14
true,24,1,1,0,false,q,true,false,0.0-2.0-0.51-0.464-3.464,1,0,0,90,false,stim,false,2,900,0,0,1,64709,task3,2205421,false,false,1582,image-keyboard-response,15
true,24,2,1,0,false,q,false,false,0.0-2.0-0.51-0.465-3.465,1,0,0,68,false,stim,true,2,1474,0,0,1,64709,task3,2208401,false,false,1585,image-keyboard-response,16
true,24,0,1,0,true,q,false,true,0.0-2.0-0.51-0.466-3.466,1,0,0,81,false,stim,false,2,2550,0,0,2,64709,task3,2212459,false,false,1588,image-keyboard-response,17
true,24,1,1,0,false,q,true,false,0.0-2.0-0.51-0.467-3.467,1,0,0,90,false,stim,false,2,1183,0,0,2,64709,task3,2215151,false,false,1591,image-keyboard-response,18
true,24,2,1,0,false,q,false,false,0.0-2.0-0.52-0.468-3.468,1,0,0,68,false,stim,true,2,1226,0,0,1,64709,task3,2217886,false,false,1594,image-keyboard-response,19
true,24,0,1,1,false,z,true,false,0.0-2.0-0.52-0.469-3.469,1,0,0,81,false,stim,false,1,609,0,1,0,64709,task3,2220004,false,false,1597,image-keyboard-response,20
true,24,0,1,0,true,q,false,true,0.0-2.0-0.52-0.470-3.470,1,0,0,81,false,stim,false,2,913,0,0,2,64709,task3,2222430,false,false,1600,image-keyboard-response,21
true,24,1,1,0,false,q,true,false,0.0-2.0-0.52-0.471-3.471,1,0,0,90,false,stim,false,2,880,0,0,2,64709,task3,2224826,false,false,1603,image-keyboard-response,22
true,24,1,1,1,true,z,false,true,0.0-2.0-0.52-0.472-3.472,1,0,0,90,false,stim,false,1,1462,0,1,0,64709,task3,2227800,false,false,1606,image-keyboard-response,23
true,24,1,1,1,true,z,false,true,0.0-2.0-0.52-0.473-3.473,1,0,0,90,false,stim,false,1,1048,0,1,0,64709,task3,2230357,false,false,1609,image-keyboard-response,24
true,24,1,1,0,false,q,true,false,0.0-2.0-0.52-0.474-3.474,1,0,0,90,false,stim,false,2,1496,0,0,2,64709,task3,2233364,false,false,1612,image-keyboard-response,25
true,25,0,1,2,false,d,false,false,0.0-2.0-0.52-0.475-3.475,1,0,0,81,true,stim,true,0,1107,0,0,1,64709,task3,2235984,false,false,1615,image-keyboard-response,1
true,25,1,1,2,false,d,true,false,0.0-2.0-0.52-0.476-3.476,1,0,0,90,false,stim,false,0,1395,0,0,1,64709,task3,2238887,false,false,1618,image-keyboard-response,2
true,25,2,1,2,true,d,false,true,0.0-2.0-0.53-0.477-3.477,1,0,0,68,false,stim,false,0,1260,0,0,1,64709,task3,2241658,false,false,1621,image-keyboard-response,3
true,25,0,1,1,false,z,true,true,0.0-2.0-0.53-0.478-3.478,1,0,0,81,false,stim,false,1,1260,0,1,0,64709,task3,2244430,false,true,1624,image-keyboard-response,4
true,25,2,1,2,true,d,false,true,0.0-2.0-0.53-0.479-3.479,1,0,0,68,false,stim,false,0,1317,0,0,1,64709,task3,2247258,false,false,1627,image-keyboard-response,5
true,25,1,1,1,true,z,false,true,0.0-2.0-0.53-0.480-3.480,1,0,0,90,false,stim,false,0,1016,0,0,2,64709,task3,2249778,false,false,1630,image-keyboard-response,6
true,25,1,1,2,false,d,true,false,0.0-2.0-0.53-0.481-3.481,1,0,0,90,false,stim,false,0,935,0,0,1,64709,task3,2252226,false,false,1633,image-keyboard-response,7
true,25,1,1,1,true,z,false,true,0.0-2.0-0.53-0.482-3.482,1,0,0,90,false,stim,false,0,1020,0,0,2,64709,task3,2254754,false,false,1636,image-keyboard-response,8
true,25,1,1,1,true,z,false,true,0.0-2.0-0.53-0.483-3.483,1,0,0,90,false,stim,false,0,1102,0,0,2,64709,task3,2257364,false,false,1639,image-keyboard-response,9
true,25,2,1,1,false,z,true,false,0.0-2.0-0.53-0.484-3.484,1,0,0,68,false,stim,false,1,1079,0,1,0,64709,task3,2259953,false,false,1642,image-keyboard-response,10
true,25,0,1,1,false,z,true,false,0.0-2.0-0.53-0.485-3.485,1,0,0,81,false,stim,false,1,877,0,1,0,64709,task3,2262341,false,false,1645,image-keyboard-response,11
true,25,0,1,2,false,d,false,false,0.0-2.0-0.54-0.486-3.486,1,0,0,81,false,stim,true,0,931,0,1,1,64709,task3,2264784,false,false,1648,image-keyboard-response,12
true,25,0,1,1,false,z,true,false,0.0-2.0-0.54-0.487-3.487,1,0,0,81,false,stim,false,1,1388,0,1,0,64709,task3,2267684,false,false,1651,image-keyboard-response,13
true,25,2,1,1,false,z,true,true,0.0-2.0-0.54-0.488-3.488,1,0,0,68,false,stim,false,1,977,0,1,0,64709,task3,2270169,false,true,1654,image-keyboard-response,14
true,25,0,1,2,false,d,false,false,0.0-2.0-0.54-0.489-3.489,1,0,0,81,false,stim,true,0,1135,0,1,1,64709,task3,2272816,false,false,1657,image-keyboard-response,15
true,25,1,1,1,true,z,false,true,0.0-2.0-0.54-0.490-3.490,1,0,0,90,false,stim,false,1,962,0,1,0,64709,task3,2275287,false,false,1660,image-keyboard-response,16
true,26,0,0,1,false,z,true,false,0.0-2.0-0.54-0.491-3.491,1,1,1,81,true,stim,false,1,2684,0,1,2,64709,task3,2399845,false,false,1783,image-keyboard-response,1
true,26,0,0,2,false,d,true,false,0.0-2.0-0.54-0.492-3.492,1,1,1,81,false,stim,false,2,789,0,1,1,64709,task3,2402142,false,false,1786,image-keyboard-response,2
true,26,0,0,1,false,z,true,false,0.0-2.0-0.54-0.493-3.493,1,1,1,81,false,stim,false,1,1029,0,1,2,64709,task3,2404681,false,false,1789,image-keyboard-response,3
true,26,2,0,1,false,z,true,false,0.0-2.0-0.54-0.494-3.494,1,1,1,68,false,stim,false,1,1607,0,1,2,64709,task3,2407801,false,false,1792,image-keyboard-response,4
true,26,1,0,1,true,z,false,true,0.0-2.0-0.55-0.495-3.495,1,1,1,90,false,stim,false,1,834,0,1,2,64709,task3,2410143,false,false,1795,image-keyboard-response,5
true,26,0,0,2,false,d,true,false,0.0-2.0-0.55-0.496-3.496,1,1,1,81,false,stim,false,2,1011,0,1,1,64709,task3,2412665,false,false,1798,image-keyboard-response,6
true,26,0,0,1,false,z,true,false,0.0-2.0-0.55-0.497-3.497,1,1,1,81,false,stim,false,1,1125,0,1,0,64709,task3,2415310,false,false,1801,image-keyboard-response,7
true,26,0,0,2,false,d,true,false,0.0-2.0-0.55-0.498-3.498,1,1,1,81,false,stim,false,2,1396,0,1,1,64709,task3,2418216,false,false,1804,image-keyboard-response,8
true,26,1,0,1,true,z,false,true,0.0-2.0-0.55-0.499-3.499,1,1,1,90,false,stim,false,1,1220,0,1,0,64709,task3,2420946,false,false,1807,image-keyboard-response,9
true,26,2,0,1,false,z,true,false,0.0-2.0-0.55-0.500-3.500,1,1,1,68,false,stim,false,1,1955,0,0,2,64709,task3,2424412,false,false,1810,image-keyboard-response,10
true,26,0,0,1,false,z,true,false,0.0-2.0-0.55-0.501-3.501,1,1,1,81,false,stim,false,1,1265,0,0,2,64709,task3,2427188,false,false,1813,image-keyboard-response,11
true,26,1,0,2,false,d,true,false,0.0-2.0-0.55-0.502-3.502,1,1,1,90,false,stim,false,2,771,0,1,1,64709,task3,2429469,false,false,1816,image-keyboard-response,12
true,26,0,0,1,false,z,true,false,0.0-2.0-0.55-0.503-3.503,1,1,1,81,false,stim,false,1,837,0,0,0,64709,task3,2431816,false,false,1819,image-keyboard-response,13
true,26,2,0,2,true,d,false,true,0.0-2.0-0.56-0.504-3.504,1,1,1,68,false,stim,false,2,1245,0,1,1,64709,task3,2434570,false,false,1822,image-keyboard-response,14
true,27,2,1,2,true,d,false,true,0.0-2.0-0.56-0.505-3.505,0,1,0,68,true,stim,false,2,992,0,1,1,64709,task3,2437074,false,false,1825,image-keyboard-response,1
true,27,0,1,0,true,q,false,true,0.0-2.0-0.56-0.506-3.506,0,1,0,81,false,stim,false,1,895,0,0,0,64709,task3,2439479,false,false,1828,image-keyboard-response,2
true,27,2,1,2,true,d,false,true,0.0-2.0-0.56-0.507-3.507,0,1,0,68,false,stim,false,1,1212,0,0,2,64709,task3,2442201,false,false,1831,image-keyboard-response,3
true,27,2,1,2,true,d,false,true,0.0-2.0-0.56-0.508-3.508,0,1,0,68,false,stim,false,1,988,0,0,2,64709,task3,2444700,false,false,1834,image-keyboard-response,4
true,27,1,1,2,false,d,true,false,0.0-2.0-0.56-0.509-3.509,0,1,0,90,false,stim,false,2,976,0,1,1,64709,task3,2447187,false,false,1837,image-keyboard-response,5
true,27,2,1,2,true,d,false,true,0.0-2.0-0.56-0.510-3.510,0,1,0,68,false,stim,false,1,1384,0,0,2,64709,task3,2450082,false,false,1840,image-keyboard-response,6
true,27,0,1,0,true,q,false,true,0.0-2.0-0.56-0.511-3.511,0,1,0,81,false,stim,false,1,1029,0,0,0,64709,task3,2452618,false,false,1843,image-keyboard-response,7
true,27,0,1,0,true,q,false,true,0.0-2.0-0.56-0.512-3.512,0,1,0,81,false,stim,false,1,840,0,0,0,64709,task3,2454962,false,false,1846,image-keyboard-response,8
true,27,1,1,2,false,d,true,false,0.0-2.0-0.57-0.513-3.513,0,1,0,90,false,stim,false,2,817,0,1,1,64709,task3,2457291,false,false,1849,image-keyboard-response,9
true,27,2,1,2,true,d,false,true,0.0-2.0-0.57-0.514-3.514,0,1,0,68,false,stim,false,1,1635,0,0,2,64709,task3,2460436,false,false,1852,image-keyboard-response,10
true,27,0,1,2,false,d,true,true,0.0-2.0-0.57-0.515-3.515,0,1,0,81,false,stim,false,2,1269,0,0,1,64709,task3,2463215,false,true,1855,image-keyboard-response,11
true,27,1,1,0,false,q,false,false,0.0-2.0-0.57-0.516-3.516,0,1,0,90,false,stim,true,1,1185,0,1,0,64709,task3,2465912,false,false,1858,image-keyboard-response,12
true,27,2,1,2,true,d,false,true,0.0-2.0-0.57-0.517-3.517,0,1,0,68,false,stim,false,1,901,0,1,2,64709,task3,2468321,false,false,1861,image-keyboard-response,13
true,27,0,1,0,true,q,false,true,0.0-2.0-0.57-0.518-3.518,0,1,0,81,false,stim,false,1,1242,0,1,0,64709,task3,2471075,false,false,1864,image-keyboard-response,14
true,27,1,1,2,false,d,true,false,0.0-2.0-0.57-0.519-3.519,0,1,0,90,false,stim,false,2,788,0,0,1,64709,task3,2473375,false,false,1867,image-keyboard-response,15
true,28,2,2,2,true,d,false,true,0.0-2.0-0.57-0.520-3.520,1,0,1,68,true,stim,false,2,1005,0,1,2,64709,task3,2475890,false,false,1870,image-keyboard-response,1
true,28,0,2,0,true,q,false,true,0.0-2.0-0.57-0.521-3.521,1,0,1,81,false,stim,false,0,997,0,1,0,64709,task3,2478398,false,false,1873,image-keyboard-response,2
true,28,0,2,0,true,q,false,true,0.0-2.0-0.58-0.522-3.522,1,0,1,81,false,stim,false,0,763,0,1,0,64709,task3,2480670,false,false,1876,image-keyboard-response,3
true,28,0,2,0,true,q,false,true,0.0-2.0-0.58-0.523-3.523,1,0,1,81,false,stim,false,0,792,0,1,0,64709,task3,2482970,false,false,1879,image-keyboard-response,4
true,28,1,2,1,true,z,false,true,0.0-2.0-0.58-0.524-3.524,1,0,1,90,false,stim,false,2,1643,0,0,1,64709,task3,2486124,false,false,1882,image-keyboard-response,5
true,28,0,2,2,false,d,true,false,0.0-2.0-0.58-0.525-3.525,1,0,1,81,false,stim,false,2,1261,0,1,2,64709,task3,2488897,false,false,1885,image-keyboard-response,6
true,28,2,2,2,true,d,false,true,0.0-2.0-0.58-0.526-3.526,1,0,1,68,false,stim,false,2,1352,0,1,2,64709,task3,2491760,false,false,1888,image-keyboard-response,7
true,28,0,2,1,false,z,true,false,0.0-2.0-0.58-0.527-3.527,1,0,1,81,false,stim,false,2,2437,0,0,1,64709,task3,2495709,false,false,1891,image-keyboard-response,8
true,28,1,2,1,true,z,false,true,0.0-2.0-0.58-0.528-3.528,1,0,1,90,false,stim,false,2,1804,0,0,1,64709,task3,2499026,false,false,1894,image-keyboard-response,9
true,28,0,2,0,true,q,false,true,0.0-2.0-0.58-0.529-3.529,1,0,1,81,false,stim,false,0,1067,0,1,0,64709,task3,2501598,false,false,1897,image-keyboard-response,10
true,28,2,2,2,true,d,false,true,0.0-2.0-0.58-0.530-3.530,1,0,1,68,false,stim,false,2,1274,0,1,2,64709,task3,2504385,false,false,1900,image-keyboard-response,11
true,28,0,2,1,false,z,true,false,0.0-2.0-0.59-0.531-3.531,1,0,1,81,false,stim,false,2,816,0,1,1,64709,task3,2506720,false,false,1903,image-keyboard-response,12
true,28,1,2,1,true,z,false,true,0.0-2.0-0.59-0.532-3.532,1,0,1,90,false,stim,false,2,450,0,1,1,64709,task3,2508681,false,false,1906,image-keyboard-response,13
true,28,1,2,0,false,q,true,false,0.0-2.0-0.59-0.533-3.533,1,0,1,90,false,stim,false,0,1200,0,0,0,64709,task3,2511388,false,false,1909,image-keyboard-response,14
true,28,0,2,0,true,q,false,true,0.0-2.0-0.59-0.534-3.534,1,0,1,81,false,stim,false,0,712,0,0,0,64709,task3,2513607,false,false,1912,image-keyboard-response,15
true,28,2,2,2,true,d,false,true,0.0-2.0-0.59-0.535-3.535,1,0,1,68,false,stim,false,2,1208,0,1,2,64709,task3,2516322,false,false,1915,image-keyboard-response,16
true,29,0,2,2,false,d,true,false,0.0-2.0-0.59-0.536-3.536,0,1,1,81,true,stim,false,2,955,0,1,2,64709,task3,2518791,false,false,1918,image-keyboard-response,1
true,29,1,2,2,false,d,true,false,0.0-2.0-0.59-0.537-3.537,0,1,1,90,false,stim,false,2,1062,0,1,2,64709,task3,2521360,false,false,1921,image-keyboard-response,2
true,29,0,2,2,false,d,false,false,0.0-2.0-0.59-0.538-3.538,0,1,1,81,false,stim,true,0,861,0,0,0,64709,task3,2523731,false,false,1924,image-keyboard-response,3
true,29,0,2,1,false,z,true,false,0.0-2.0-0.59-0.539-3.539,0,1,1,81,false,stim,false,1,1338,0,1,1,64709,task3,2526579,false,false,1927,image-keyboard-response,4
true,29,1,2,1,true,z,false,true,0.0-2.0-0.60-0.540-3.540,0,1,1,90,false,stim,false,1,930,0,1,1,64709,task3,2529019,false,false,1930,image-keyboard-response,5
true,29,0,2,2,false,d,false,true,0.0-2.0-0.60-0.541-3.541,0,1,1,81,false,stim,true,0,1086,0,0,0,64709,task3,2531616,false,true,1933,image-keyboard-response,6
true,29,2,2,2,true,d,false,true,0.0-2.0-0.60-0.542-3.542,0,1,1,68,false,stim,false,2,1705,0,1,2,64709,task3,2534832,false,false,1936,image-keyboard-response,7
true,29,2,2,2,true,d,false,true,0.0-2.0-0.60-0.543-3.543,0,1,1,68,false,stim,false,2,1084,0,1,2,64709,task3,2537427,false,false,1939,image-keyboard-response,8
true,29,0,2,2,false,d,false,false,0.0-2.0-0.60-0.544-3.544,0,1,1,81,false,stim,true,0,1095,0,0,0,64709,task3,2540027,false,false,1942,image-keyboard-response,9
true,29,1,2,1,true,z,false,true,0.0-2.0-0.60-0.545-3.545,0,1,1,90,false,stim,false,1,1134,0,1,1,64709,task3,2542673,false,false,1945,image-keyboard-response,10
true,29,2,2,2,true,d,false,true,0.0-2.0-0.60-0.546-3.546,0,1,1,68,false,stim,false,2,1040,0,1,2,64709,task3,2545219,false,false,1948,image-keyboard-response,11
true,29,0,2,1,false,z,true,false,0.0-2.0-0.60-0.547-3.547,0,1,1,81,false,stim,false,1,1479,0,1,1,64709,task3,2548204,false,false,1951,image-keyboard-response,12
true,29,1,2,2,false,d,true,false,0.0-2.0-0.60-0.548-3.548,0,1,1,90,false,stim,false,0,427,0,0,0,64709,task3,2550141,false,false,1954,image-keyboard-response,13
true,29,2,2,2,true,d,false,true,0.0-2.0-0.61-0.549-3.549,0,1,1,68,false,stim,false,0,514,0,0,0,64709,task3,2552162,false,false,1957,image-keyboard-response,14
true,29,0,2,1,false,z,true,false,0.0-2.0-0.61-0.550-3.550,0,1,1,81,false,stim,false,1,1058,0,1,1,64709,task3,2554729,false,false,1960,image-keyboard-response,15
true,29,0,2,2,false,d,true,false,0.0-2.0-0.61-0.551-3.551,0,1,1,81,false,stim,false,2,1154,0,1,2,64709,task3,2557392,false,false,1963,image-keyboard-response,16
true,29,1,2,1,true,z,false,true,0.0-2.0-0.61-0.552-3.552,0,1,1,90,false,stim,false,1,1152,0,1,1,64709,task3,2560057,false,false,1966,image-keyboard-response,17
true,29,2,2,2,true,d,false,true,0.0-2.0-0.61-0.553-3.553,0,1,1,68,false,stim,false,2,1591,0,1,2,64709,task3,2563156,false,false,1969,image-keyboard-response,18
true,29,2,2,2,true,d,false,true,0.0-2.0-0.61-0.554-3.554,0,1,1,68,false,stim,false,0,1234,0,0,0,64709,task3,2565903,false,false,1972,image-keyboard-response,19
true,29,2,2,1,false,z,true,false,0.0-2.0-0.61-0.555-3.555,0,1,1,68,false,stim,false,1,1563,0,1,1,64709,task3,2568976,false,false,1975,image-keyboard-response,20
true,29,2,2,2,true,d,false,true,0.0-2.0-0.61-0.556-3.556,0,1,1,68,false,stim,false,2,1244,0,1,2,64709,task3,2571732,false,false,1978,image-keyboard-response,21
true,29,1,2,2,false,d,true,false,0.0-2.0-0.61-0.557-3.557,0,1,1,90,false,stim,false,0,1010,0,0,0,64709,task3,2574252,false,false,1981,image-keyboard-response,22
true,29,0,2,2,false,d,false,false,0.0-2.0-0.62-0.558-3.558,0,1,1,81,false,stim,true,0,702,0,0,0,64709,task3,2576461,false,false,1984,image-keyboard-response,23
true,29,2,2,2,true,d,false,true,0.0-2.0-0.62-0.559-3.559,0,1,1,68,false,stim,false,2,1269,0,0,2,64709,task3,2579239,false,false,1987,image-keyboard-response,24
true,29,0,2,1,false,z,true,false,0.0-2.0-0.62-0.560-3.560,0,1,1,81,false,stim,false,1,1180,0,1,1,64709,task3,2581931,false,false,1990,image-keyboard-response,25
true,29,2,2,2,true,d,false,true,0.0-2.0-0.62-0.561-3.561,0,1,1,68,false,stim,false,2,1270,0,0,2,64709,task3,2584711,false,false,1993,image-keyboard-response,26
true,30,2,1,0,false,q,false,false,0.0-2.0-0.62-0.562-3.562,0,1,0,68,true,stim,true,2,712,0,0,2,64709,task3,2586931,false,false,1996,image-keyboard-response,1
true,30,2,1,1,false,z,false,false,0.0-2.0-0.62-0.563-3.563,0,1,0,68,false,stim,true,2,1112,0,0,0,64709,task3,2589556,false,false,1999,image-keyboard-response,2
true,30,2,1,1,false,z,true,true,0.0-2.0-0.62-0.564-3.564,0,1,0,68,false,stim,false,1,1036,0,1,1,64709,task3,2592115,false,true,2002,image-keyboard-response,3
true,30,0,1,1,false,z,true,true,0.0-2.0-0.62-0.565-3.565,0,1,0,81,false,stim,false,2,1672,0,0,0,64709,task3,2595299,false,true,2005,image-keyboard-response,4
true,30,2,1,1,false,z,true,false,0.0-2.0-0.62-0.566-3.566,0,1,0,68,false,stim,false,1,1921,0,1,1,64709,task3,2598734,false,false,2008,image-keyboard-response,5
true,30,1,1,1,true,z,false,true,0.0-2.0-0.63-0.567-3.567,0,1,0,90,false,stim,false,1,810,0,1,1,64709,task3,2601048,false,false,2011,image-keyboard-response,6
true,30,1,1,1,true,z,false,true,0.0-2.0-0.63-0.568-3.568,0,1,0,90,false,stim,false,1,959,0,1,1,64709,task3,2603516,false,false,2014,image-keyboard-response,7
true,30,0,1,0,true,q,false,true,0.0-2.0-0.63-0.569-3.569,0,1,0,81,false,stim,false,2,1121,0,0,2,64709,task3,2606148,false,false,2017,image-keyboard-response,8
true,30,2,1,1,false,z,false,false,0.0-2.0-0.63-0.570-3.570,0,1,0,68,false,stim,true,2,1055,0,0,0,64709,task3,2608716,false,false,2020,image-keyboard-response,9
true,30,0,1,1,false,z,true,false,0.0-2.0-0.63-0.571-3.571,0,1,0,81,false,stim,false,1,465,0,1,1,64709,task3,2610691,false,false,2023,image-keyboard-response,10
true,30,1,1,0,false,q,true,false,0.0-2.0-0.63-0.572-3.572,0,1,0,90,false,stim,false,2,540,0,0,2,64709,task3,2612743,false,false,2026,image-keyboard-response,11
true,30,2,1,0,false,q,false,false,0.0-2.0-0.63-0.573-3.573,0,1,0,68,false,stim,true,2,445,0,0,2,64709,task3,2614699,false,false,2029,image-keyboard-response,12
true,30,0,1,1,false,z,true,false,0.0-2.0-0.63-0.574-3.574,0,1,0,81,false,stim,false,2,962,0,0,0,64709,task3,2617170,false,false,2032,image-keyboard-response,13
true,30,1,1,1,true,z,false,true,0.0-2.0-0.63-0.575-3.575,0,1,0,90,false,stim,false,2,1012,0,0,0,64709,task3,2619690,false,false,2035,image-keyboard-response,14
true,30,1,1,1,true,z,false,true,0.0-2.0-0.64-0.576-3.576,0,1,0,90,false,stim,false,1,1083,0,1,1,64709,task3,2622283,false,false,2038,image-keyboard-response,15
true,30,2,1,1,false,z,true,true,0.0-2.0-0.64-0.577-3.577,0,1,0,68,false,stim,false,1,1171,0,1,1,64709,task3,2624966,false,true,2041,image-keyboard-response,16
true,30,0,1,0,true,q,false,true,0.0-2.0-0.64-0.578-3.578,0,1,0,81,false,stim,false,2,916,0,0,2,64709,task3,2627388,false,false,2044,image-keyboard-response,17
true,30,0,1,0,true,q,false,false,0.0-2.0-0.64-0.579-3.579,0,1,0,81,false,stim,false,2,1390,0,0,2,64709,task3,2630287,false,true,2047,image-keyboard-response,18
true,30,2,1,1,false,z,false,false,0.0-2.0-0.64-0.580-3.580,0,1,0,68,false,stim,true,2,980,0,0,0,64709,task3,2632774,false,false,2050,image-keyboard-response,19
true,30,1,1,1,true,z,false,true,0.0-2.0-0.64-0.581-3.581,0,1,0,90,false,stim,false,1,451,0,1,1,64709,task3,2634736,false,false,2053,image-keyboard-response,20
true,30,0,1,1,false,z,true,true,0.0-2.0-0.64-0.582-3.582,0,1,0,81,false,stim,false,2,811,0,0,0,64709,task3,2637055,false,true,2056,image-keyboard-response,21
true,30,2,1,0,false,q,false,false,0.0-2.0-0.64-0.583-3.583,0,1,0,68,false,stim,true,2,1263,0,0,2,64709,task3,2639822,false,false,2059,image-keyboard-response,22
true,30,0,1,1,false,z,true,false,0.0-2.0-0.64-0.584-3.584,0,1,0,81,false,stim,false,2,465,0,0,0,64709,task3,2641794,false,false,2062,image-keyboard-response,23
true,30,1,1,0,false,q,true,false,0.0-2.0-0.65-0.585-3.585,0,1,0,90,false,stim,false,2,504,0,0,2,64709,task3,2643807,false,false,2065,image-keyboard-response,24
true,30,0,1,1,false,z,true,true,0.0-2.0-0.65-0.586-3.586,0,1,0,81,false,stim,false,2,906,0,0,0,64709,task3,2646223,false,true,2068,image-keyboard-response,25
true,30,0,1,1,false,z,true,false,0.0-2.0-0.65-0.587-3.587,0,1,0,81,false,stim,false,1,921,0,1,1,64709,task3,2648653,false,false,2071,image-keyboard-response,26
true,30,1,1,0,false,q,true,false,0.0-2.0-0.65-0.588-3.588,0,1,0,90,false,stim,false,2,1772,0,1,2,64709,task3,2651937,false,false,2074,image-keyboard-response,27
true,30,2,1,0,false,q,false,false,0.0-2.0-0.65-0.589-3.589,0,1,0,68,false,stim,true,2,605,0,1,2,64709,task3,2654052,false,false,2077,image-keyboard-response,28
true,30,0,1,1,false,z,true,false,0.0-2.0-0.65-0.590-3.590,0,1,0,81,false,stim,false,2,578,0,0,0,64709,task3,2656139,false,false,2080,image-keyboard-response,29
true,31,1,2,0,false,q,false,false,0.0-2.0-0.65-0.591-3.591,0,1,1,90,true,stim,true,1,1366,0,0,0,64709,task3,2659016,false,false,2083,image-keyboard-response,1
true,31,0,2,1,false,z,true,false,0.0-2.0-0.65-0.592-3.592,0,1,1,81,false,stim,false,1,1104,0,1,1,64709,task3,2661631,false,false,2086,image-keyboard-response,2
true,31,2,2,1,false,z,true,false,0.0-2.0-0.65-0.593-3.593,0,1,1,68,false,stim,false,1,1255,0,1,1,64709,task3,2664394,false,false,2089,image-keyboard-response,3
true,31,0,2,0,true,q,false,true,0.0-2.0-0.66-0.594-3.594,0,1,1,81,false,stim,false,1,1022,0,0,0,64709,task3,2666926,false,false,2092,image-keyboard-response,4
true,31,0,2,0,true,q,false,true,0.0-2.0-0.66-0.595-3.595,0,1,1,81,false,stim,false,1,848,0,0,0,64709,task3,2669284,false,false,2095,image-keyboard-response,5
true,31,0,2,0,true,q,false,true,0.0-2.0-0.66-0.596-3.596,0,1,1,81,false,stim,false,1,1489,0,0,0,64709,task3,2672282,false,false,2098,image-keyboard-response,6
true,31,1,2,1,true,z,false,true,0.0-2.0-0.66-0.597-3.597,0,1,1,90,false,stim,false,1,815,0,1,1,64709,task3,2674620,false,false,2101,image-keyboard-response,7
true,31,2,2,1,false,z,true,false,0.0-2.0-0.66-0.598-3.598,0,1,1,68,false,stim,false,1,922,0,1,1,64709,task3,2677050,false,false,2104,image-keyboard-response,8
true,31,0,2,0,true,q,false,true,0.0-2.0-0.66-0.599-3.599,0,1,1,81,false,stim,false,0,598,0,0,2,64709,task3,2679158,false,false,2107,image-keyboard-response,9
true,31,0,2,1,false,z,true,false,0.0-2.0-0.66-0.600-3.600,0,1,1,81,false,stim,false,1,750,0,1,1,64709,task3,2681418,false,false,2110,image-keyboard-response,10
true,31,0,2,0,true,q,false,true,0.0-2.0-0.66-0.601-3.601,0,1,1,81,false,stim,false,0,1006,0,0,2,64709,task3,2683935,false,false,2113,image-keyboard-response,11
true,31,1,2,0,false,q,true,false,0.0-2.0-0.66-0.602-3.602,0,1,1,90,false,stim,false,0,562,0,0,2,64709,task3,2686006,false,false,2116,image-keyboard-response,12
true,32,2,2,1,false,z,true,false,0.0-2.0-0.67-0.603-3.603,1,1,0,68,true,stim,false,0,1152,0,0,2,64709,task3,2688670,false,false,2119,image-keyboard-response,1
true,32,0,2,0,true,q,false,false,0.0-2.0-0.67-0.604-3.604,1,1,0,81,false,stim,false,0,520,0,1,0,64709,task3,2690703,false,true,2122,image-keyboard-response,2
true,32,1,2,1,true,z,false,true,0.0-2.0-0.67-0.605-3.605,1,1,0,90,false,stim,false,0,760,0,0,2,64709,task3,2692977,false,false,2125,image-keyboard-response,3
true,32,2,2,1,false,z,true,false,0.0-2.0-0.67-0.606-3.606,1,1,0,68,false,stim,false,1,1107,0,1,1,64709,task3,2695597,false,false,2128,image-keyboard-response,4
true,32,0,2,1,false,z,true,false,0.0-2.0-0.67-0.607-3.607,1,1,0,81,false,stim,false,1,1249,0,1,1,64709,task3,2698357,false,false,2131,image-keyboard-response,5
true,32,1,2,1,true,z,false,false,0.0-2.0-0.67-0.608-3.608,1,1,0,90,false,stim,false,1,525,0,1,1,64709,task3,2700397,false,true,2134,image-keyboard-response,6
true,32,0,2,0,true,q,false,true,0.0-2.0-0.67-0.609-3.609,1,1,0,81,false,stim,false,0,1017,0,1,0,64709,task3,2702925,false,false,2137,image-keyboard-response,7
true,32,0,2,1,false,z,false,false,0.0-2.0-0.67-0.610-3.610,1,1,0,81,false,stim,true,0,1091,0,0,2,64709,task3,2705530,false,false,2140,image-keyboard-response,8
true,32,1,2,0,false,q,true,false,0.0-2.0-0.67-0.611-3.611,1,1,0,90,false,stim,false,0,788,0,1,0,64709,task3,2707830,false,false,2143,image-keyboard-response,9
true,32,0,2,1,false,z,true,true,0.0-2.0-0.68-0.612-3.612,1,1,0,81,false,stim,false,1,452,0,1,1,64709,task3,2709794,false,true,2146,image-keyboard-response,10
true,32,0,2,1,false,z,true,false,0.0-2.0-0.68-0.613-3.613,1,1,0,81,false,stim,false,1,850,0,0,1,64709,task3,2712151,false,false,2149,image-keyboard-response,11
true,32,1,2,1,true,z,false,false,0.0-2.0-0.68-0.614-3.614,1,1,0,90,false,stim,false,0,770,0,1,2,64709,task3,2714433,false,true,2152,image-keyboard-response,12
true,32,2,2,0,false,q,true,false,0.0-2.0-0.68-0.615-3.615,1,1,0,68,false,stim,false,0,999,0,0,0,64709,task3,2716944,false,false,2155,image-keyboard-response,13
true,32,0,2,1,false,z,false,false,0.0-2.0-0.68-0.616-3.616,1,1,0,81,false,stim,true,0,478,0,1,2,64709,task3,2718933,false,false,2158,image-keyboard-response,14
true,32,0,2,0,true,q,false,true,0.0-2.0-0.68-0.617-3.617,1,1,0,81,false,stim,false,0,825,0,0,0,64709,task3,2721265,false,false,2161,image-keyboard-response,15
true,33,2,1,0,false,q,true,true,0.0-2.0-0.68-0.618-3.618,0,0,1,68,true,stim,false,1,1393,0,0,1,64709,task3,2724169,false,true,2164,image-keyboard-response,1
true,33,2,1,1,false,z,true,false,0.0-2.0-0.68-0.619-3.619,0,0,1,68,false,stim,false,0,973,0,0,0,64709,task3,2726654,false,false,2167,image-keyboard-response,2
true,33,0,1,1,false,z,true,false,0.0-2.0-0.68-0.620-3.620,0,0,1,81,false,stim,false,1,778,0,1,2,64709,task3,2728948,false,false,2170,image-keyboard-response,3
true,33,0,1,1,false,z,false,false,0.0-2.0-0.69-0.621-3.621,0,0,1,81,false,stim,true,0,990,0,0,0,64709,task3,2731450,false,false,2173,image-keyboard-response,4
true,33,2,1,1,false,z,true,false,0.0-2.0-0.69-0.622-3.622,0,0,1,68,false,stim,false,1,1383,0,1,2,64709,task3,2734341,false,false,2176,image-keyboard-response,5
true,33,0,1,0,true,q,false,true,0.0-2.0-0.69-0.623-3.623,0,0,1,81,false,stim,false,1,1028,0,0,1,64709,task3,2736875,false,false,2179,image-keyboard-response,6
true,33,0,1,1,false,z,true,false,0.0-2.0-0.69-0.624-3.624,0,0,1,81,false,stim,false,1,756,0,1,2,64709,task3,2739142,false,false,2182,image-keyboard-response,7
false,33,-1,1,1,false,z,true,true,0.0-2.0-0.69-0.625-3.625,0,0,1,,false,stim,false,0,,0,0,0,64709,task3,2743653,false,true,2185,image-keyboard-response,8
false,33,-1,1,0,false,q,true,false,0.0-2.0-0.69-0.626-3.626,0,0,1,,false,stim,false,1,,0,0,1,64709,task3,2748164,false,false,2188,image-keyboard-response,9
true,33,0,1,1,false,z,false,false,0.0-2.0-0.69-0.627-3.627,0,0,1,81,false,stim,true,0,1790,0,0,0,64709,task3,2751461,false,false,2191,image-keyboard-response,10
true,33,0,1,0,true,q,false,true,0.0-2.0-0.69-0.628-3.628,0,0,1,81,false,stim,false,1,1016,0,0,1,64709,task3,2753985,false,false,2194,image-keyboard-response,11
true,33,0,1,1,false,z,true,true,0.0-2.0-0.69-0.629-3.629,0,0,1,81,false,stim,false,1,1085,0,1,2,64709,task3,2756578,false,true,2197,image-keyboard-response,12
