answered,blockNum,choice,condition,corResp,correct,correct_response,explo,fb,internal_node_id,isStable_1,isStable_2,isStable_3,key_press,newBlock,part,persev,persevResp,rt,sessNum,stableAS,stimulus,subject,task,time_elapsed,training,trap,trial_index,trial_type,trialsInBlock
true,1,0,0,2,false,d,true,false,0.0-2.0-0.0-0.0-3.0,0,0,0,81,true,stim,false,-1,1537,1,0,0,64709,task2,203586,false,false,184,image-keyboard-response,1
true,1,0,0,2,false,d,true,false,0.0-2.0-0.0-0.1-3.1,0,0,0,81,false,stim,false,-1,549,1,0,0,64709,task2,205642,false,false,187,image-keyboard-response,2
true,1,0,0,0,true,q,false,true,0.0-2.0-0.0-0.2-3.2,0,0,0,81,false,stim,false,-1,545,1,0,2,64709,task2,207693,false,false,190,image-keyboard-response,3
true,1,0,0,0,true,q,false,true,0.0-2.0-0.0-0.3-3.3,0,0,0,81,false,stim,false,-1,1005,1,0,2,64709,task2,210206,false,false,193,image-keyboard-response,4
true,1,1,0,1,true,z,false,true,0.0-2.0-0.0-0.4-3.4,0,0,0,90,false,stim,false,-1,1389,1,0,1,64709,task2,213106,false,false,196,image-keyboard-response,5
true,1,1,0,2,false,d,true,false,0.0-2.0-0.0-0.5-3.5,0,0,0,90,false,stim,false,-1,1355,1,0,0,64709,task2,215969,false,false,199,image-keyboard-response,6
true,1,2,0,1,false,z,true,false,0.0-2.0-0.0-0.6-3.6,0,0,0,68,false,stim,false,-1,1167,1,0,1,64709,task2,218649,false,false,202,image-keyboard-response,7
true,1,0,0,1,false,z,true,false,0.0-2.0-0.0-0.7-3.7,0,0,0,81,false,stim,false,-1,1023,1,0,1,64709,task2,221177,false,false,205,image-keyboard-response,8
true,1,1,0,0,false,q,true,false,0.0-2.0-0.0-0.8-3.8,0,0,0,90,false,stim,false,-1,1066,1,0,2,64709,task2,223752,false,false,208,image-keyboard-response,9
true,1,0,0,2,false,d,true,false,0.0-2.0-0.1-0.9-3.9,0,0,0,81,false,stim,false,-1,923,1,0,0,64709,task2,226180,false,false,211,image-keyboard-response,10
true,1,1,0,0,false,q,true,false,0.0-2.0-0.1-0.10-3.10,0,0,0,90,false,stim,false,-1,868,1,0,2,64709,task2,228558,false,false,214,image-keyboard-response,11
true,1,2,0,0,false,q,true,false,0.0-2.0-0.1-0.11-3.11,0,0,0,68,false,stim,false,-1,1245,1,0,2,64709,task2,231308,false,false,217,image-keyboard-response,12
true,1,0,0,1,false,z,true,false,0.0-2.0-0.1-0.12-3.12,0,0,0,81,false,stim,false,-1,856,1,0,1,64709,task2,233676,false,false,220,image-keyboard-response,13
true,1,0,0,1,false,z,true,false,0.0-2.0-0.1-0.13-3.13,0,0,0,81,false,stim,false,-1,634,1,0,1,64709,task2,235821,false,false,223,image-keyboard-response,14
true,1,1,0,2,false,d,true,false,0.0-2.0-0.1-0.14-3.14,0,0,0,90,false,stim,false,-1,998,1,0,0,64709,task2,238325,false,false,226,image-keyboard-response,15
true,1,0,0,2,false,d,true,false,0.0-2.0-0.1-0.15-3.15,0,0,0,81,false,stim,false,-1,1239,1,0,0,64709,task2,241075,false,false,229,image-keyboard-response,16
true,1,1,0,0,false,q,true,false,0.0-2.0-0.1-0.16-3.16,0,0,0,90,false,stim,false,-1,796,1,0,2,64709,task2,243381,false,false,232,image-keyboard-response,17
true,1,2,0,1,false,z,true,false,0.0-2.0-0.1-0.17-3.17,0,0,0,68,false,stim,false,-1,933,1,0,1,64709,task2,245820,false,false,235,image-keyboard-response,18
true,1,0,0,2,false,d,true,false,0.0-2.0-0.2-0.18-3.18,0,0,0,81,false,stim,false,-1,987,1,0,0,64709,task2,248314,false,false,238,image-keyboard-response,19
true,1,1,0,0,false,q,true,false,0.0-2.0-0.2-0.19-3.19,0,0,0,90,false,stim,false,-1,1507,1,0,2,64709,task2,251331,false,false,241,image-keyboard-response,20
true,1,2,0,1,false,z,true,false,0.0-2.0-0.2-0.20-3.20,0,0,0,68,false,stim,false,-1,967,1,0,1,64709,task2,253806,false,false,244,image-keyboard-response,21
true,1,0,0,2,false,d,true,false,0.0-2.0-0.2-0.21-3.21,0,0,0,81,false,stim,false,-1,1037,1,0,0,64709,task2,256352,false,false,247,image-keyboard-response,22
true,1,0,0,1,false,z,true,false,0.0-2.0-0.2-0.22-3.22,0,0,0,81,false,stim,false,-1,564,1,0,1,64709,task2,258428,false,false,250,image-keyboard-response,23
true,1,0,0,0,true,q,false,true,0.0-2.0-0.2-0.23-3.23,0,0,0,81,false,stim,false,-1,727,1,0,2,64709,task2,260663,false,false,253,image-keyboard-response,24
true,1,1,0,0,false,q,true,false,0.0-2.0-0.2-0.24-3.24,0,0,0,90,false,stim,false,-1,1680,1,0,2,64709,task2,263848,false,false,256,image-keyboard-response,25
true,1,2,0,1,false,z,true,true,0.0-2.0-0.2-0.25-3.25,0,0,0,68,false,stim,false,-1,1089,1,0,1,64709,task2,266447,false,true,259,image-keyboard-response,26
true,2,0,1,1,false,z,true,false,0.0-2.0-0.2-0.26-3.26,0,0,0,81,true,stim,false,2,891,1,0,0,64709,task2,268846,false,false,262,image-keyboard-response,1
true,2,1,1,0,false,q,false,false,0.0-2.0-0.3-0.27-3.27,0,0,0,90,false,stim,true,1,895,1,0,1,64709,task2,271252,false,false,265,image-keyboard-response,2
true,2,0,1,2,false,d,false,false,0.0-2.0-0.3-0.28-3.28,0,0,0,81,false,stim,true,0,917,1,0,2,64709,task2,273675,false,false,268,image-keyboard-response,3
true,2,2,1,2,true,d,false,true,0.0-2.0-0.3-0.29-3.29,0,0,0,68,false,stim,false,0,631,1,0,2,64709,task2,275814,false,false,271,image-keyboard-response,4
true,2,1,1,1,true,z,false,true,0.0-2.0-0.3-0.30-3.30,0,0,0,90,false,stim,false,2,1249,1,0,0,64709,task2,278574,false,false,274,image-keyboard-response,5
true,2,1,1,1,true,z,false,true,0.0-2.0-0.3-0.31-3.31,0,0,0,90,false,stim,false,2,847,1,0,0,64709,task2,280929,false,false,277,image-keyboard-response,6
true,2,1,1,1,true,z,false,true,0.0-2.0-0.3-0.32-3.32,0,0,0,90,false,stim,false,2,923,1,0,0,64709,task2,283361,false,false,280,image-keyboard-response,7
true,2,0,1,2,false,d,false,false,0.0-2.0-0.3-0.33-3.33,0,0,0,81,false,stim,true,0,1024,1,0,2,64709,task2,285895,false,false,283,image-keyboard-response,8
true,2,0,1,0,true,q,false,true,0.0-2.0-0.3-0.34-3.34,0,0,0,81,false,stim,false,1,1014,1,0,1,64709,task2,288420,false,false,286,image-keyboard-response,9
true,2,0,1,0,true,q,false,true,0.0-2.0-0.3-0.35-3.35,0,0,0,81,false,stim,false,1,756,1,0,1,64709,task2,290687,false,false,289,image-keyboard-response,10
true,2,1,1,1,true,z,false,true,0.0-2.0-0.4-0.36-3.36,0,0,0,90,false,stim,false,2,1265,1,0,0,64709,task2,293461,false,false,292,image-keyboard-response,11
true,2,1,1,1,true,z,false,true,0.0-2.0-0.4-0.37-3.37,0,0,0,90,false,stim,false,2,486,1,0,0,64709,task2,295454,false,false,295,image-keyboard-response,12
true,2,0,1,0,true,q,false,true,0.0-2.0-0.4-0.38-3.38,0,0,0,81,false,stim,false,1,1045,1,0,1,64709,task2,298007,false,false,298,image-keyboard-response,13
true,2,2,1,2,true,d,false,true,0.0-2.0-0.4-0.39-3.39,0,0,0,68,false,stim,false,0,1208,1,0,2,64709,task2,300726,false,false,301,image-keyboard-response,14
true,2,0,1,1,false,z,true,false,0.0-2.0-0.4-0.40-3.40,0,0,0,81,false,stim,false,2,1471,1,0,0,64709,task2,303707,false,false,304,image-keyboard-response,15
true,2,0,1,2,false,d,false,false,0.0-2.0-0.4-0.41-3.41,0,0,0,81,false,stim,true,0,615,1,0,2,64709,task2,305830,false,false,307,image-keyboard-response,16
true,2,1,1,2,false,d,true,false,0.0-2.0-0.4-0.42-3.42,0,0,0,90,false,stim,false,0,1008,1,0,2,64709,task2,308348,false,false,310,image-keyboard-response,17
true,2,0,1,0,true,q,false,false,0.0-2.0-0.4-0.43-3.43,0,0,0,81,false,stim,false,1,814,1,0,1,64709,task2,310672,false,true,313,image-keyboard-response,18
true,2,1,1,0,false,q,false,false,0.0-2.0-0.4-0.44-3.44,0,0,0,90,false,stim,true,1,1246,1,0,1,64709,task2,313430,false,false,316,image-keyboard-response,19
true,2,0,1,1,false,z,true,false,0.0-2.0-0.5-0.45-3.45,0,0,0,81,false,stim,false,2,863,1,0,0,64709,task2,315802,false,false,319,image-keyboard-response,20
true,2,0,1,0,true,q,false,true,0.0-2.0-0.5-0.46-3.46,0,0,0,81,false,stim,false,1,1027,1,0,1,64709,task2,318339,false,false,322,image-keyboard-response,21
true,2,1,1,2,false,d,true,false,0.0-2.0-0.5-0.47-3.47,0,0,0,90,false,stim,false,0,1157,1,0,2,64709,task2,321000,false,false,325,image-keyboard-response,22
true,2,2,1,1,false,z,false,false,0.0-2.0-0.5-0.48-3.48,0,0,0,68,false,stim,true,2,1299,1,0,0,64709,task2,323805,false,false,328,image-keyboard-response,23
true,2,0,1,2,false,d,false,false,0.0-2.0-0.5-0.49-3.49,0,0,0,81,false,stim,true,0,532,1,0,2,64709,task2,325845,false,false,331,image-keyboard-response,24
true,2,0,1,0,true,q,false,true,0.0-2.0-0.5-0.50-3.50,0,0,0,81,false,stim,false,1,495,1,0,1,64709,task2,327848,false,false,334,image-keyboard-response,25
true,2,0,1,0,true,q,false,true,0.0-2.0-0.5-0.51-3.51,0,0,0,81,false,stim,false,1,814,1,0,1,64709,task2,330168,false,false,337,image-keyboard-response,26
true,2,1,1,1,true,z,false,true,0.0-2.0-0.5-0.52-3.52,0,0,0,90,false,stim,false,2,672,1,0,0,64709,task2,332349,false,false,340,image-keyboard-response,27
true,2,0,1,2,false,d,false,false,0.0-2.0-0.5-0.53-3.53,0,0,0,81,false,stim,true,0,1396,1,0,2,64709,task2,335253,false,false,343,image-keyboard-response,28
true,2,2,1,2,true,d,false,true,0.0-2.0-0.6-0.54-3.54,0,0,0,68,false,stim,false,0,1620,1,0,2,64709,task2,338380,false,false,346,image-keyboard-response,29
true,2,2,1,2,true,d,false,true,0.0-2.0-0.6-0.55-3.55,0,0,0,68,false,stim,false,0,721,1,0,2,64709,task2,340609,false,false,349,image-keyboard-response,30
true,2,1,1,1,true,z,false,true,0.0-2.0-0.6-0.56-3.56,0,0,0,90,false,stim,false,2,1020,1,0,0,64709,task2,343141,false,false,352,image-keyboard-response,31
true,2,1,1,1,true,z,false,true,0.0-2.0-0.6-0.57-3.57,0,0,0,90,false,stim,false,2,500,1,0,0,64709,task2,345148,false,false,355,image-keyboard-response,32
true,2,0,1,0,true,q,false,true,0.0-2.0-0.6-0.58-3.58,0,0,0,81,false,stim,false,1,874,1,0,1,64709,task2,347528,false,false,358,image-keyboard-response,33
true,2,1,1,1,true,z,false,true,0.0-2.0-0.6-0.59-3.59,0,0,0,90,false,stim,false,2,973,1,0,0,64709,task2,350013,false,false,361,image-keyboard-response,34
true,2,0,1,0,true,q,false,true,0.0-2.0-0.6-0.60-3.60,0,0,0,81,false,stim,false,1,809,1,0,1,64709,task2,352328,false,false,364,image-keyboard-response,35
true,2,0,1,0,true,q,false,true,0.0-2.0-0.6-0.61-3.61,0,0,0,81,false,stim,false,1,481,1,0,1,64709,task2,354316,false,false,367,image-keyboard-response,36
true,2,2,1,2,true,d,false,true,0.0-2.0-0.6-0.62-3.62,0,0,0,68,false,stim,false,0,1498,1,0,2,64709,task2,357320,false,false,370,image-keyboard-response,37
true,2,0,1,2,false,d,false,false,0.0-2.0-0.7-0.63-3.63,0,0,0,81,false,stim,true,0,1240,1,0,2,64709,task2,360065,false,false,373,image-keyboard-response,38
true,3,0,1,2,false,d,false,false,0.0-2.0-0.7-0.64-3.64,0,0,0,81,true,stim,true,0,1149,1,0,1,64709,task2,362722,false,false,376,image-keyboard-response,1
true,3,1,1,2,false,d,true,false,0.0-2.0-0.7-0.65-3.65,0,0,0,90,false,stim,false,0,877,1,0,1,64709,task2,365106,false,false,379,image-keyboard-response,2
true,3,0,1,0,true,q,false,true,0.0-2.0-0.7-0.66-3.66,0,0,0,81,false,stim,false,2,1008,1,0,2,64709,task2,367622,false,false,382,image-keyboard-response,3
true,3,1,1,2,false,d,false,false,0.0-2.0-0.7-0.67-3.67,0,0,0,90,false,stim,true,1,1067,1,0,0,64709,task2,370198,false,false,385,image-keyboard-response,4
true,3,0,1,2,false,d,false,false,0.0-2.0-0.7-0.68-3.68,0,0,0,81,false,stim,true,0,1097,1,0,1,64709,task2,372803,false,false,388,image-keyboard-response,5
true,3,2,1,0,false,q,false,false,0.0-2.0-0.7-0.69-3.69,0,0,0,68,false,stim,true,2,732,1,0,2,64709,task2,375041,false,false,391,image-keyboard-response,6
true,3,1,1,2,false,d,false,false,0.0-2.0-0.7-0.70-3.70,0,0,0,90,false,stim,true,1,509,1,0,0,64709,task2,377056,false,false,394,image-keyboard-response,7
true,3,1,1,2,false,d,false,false,0.0-2.0-0.7-0.71-3.71,0,0,0,90,false,stim,true,1,620,1,0,0,64709,task2,379185,false,false,397,image-keyboard-response,8
true,3,0,1,2,false,d,false,false,0.0-2.0-0.8-0.72-3.72,0,0,0,81,false,stim,true,0,1104,1,0,1,64709,task2,381796,false,false,400,image-keyboard-response,9
true,3,1,1,2,false,d,true,false,0.0-2.0-0.8-0.73-3.73,0,0,0,90,false,stim,false,0,729,1,0,1,64709,task2,384035,false,false,403,image-keyboard-response,10
true,3,0,1,2,false,d,true,false,0.0-2.0-0.8-0.74-3.74,0,0,0,81,false,stim,false,1,1112,1,0,0,64709,task2,386654,false,false,406,image-keyboard-response,11
true,3,1,1,0,false,q,true,false,0.0-2.0-0.8-0.75-3.75,0,0,0,90,false,stim,false,2,1038,1,0,2,64709,task2,389202,false,false,409,image-keyboard-response,12
true,3,2,1,0,false,q,false,false,0.0-2.0-0.8-0.76-3.76,0,0,0,68,false,stim,true,2,1286,1,0,2,64709,task2,391991,false,false,412,image-keyboard-response,13
true,3,0,1,0,true,q,false,true,0.0-2.0-0.8-0.77-3.77,0,0,0,81,false,stim,false,2,830,1,0,2,64709,task2,394328,false,false,415,image-keyboard-response,14
true,3,1,1,2,false,d,true,false,0.0-2.0-0.8-0.78-3.78,0,0,0,90,false,stim,false,0,937,1,0,1,64709,task2,396774,false,false,418,image-keyboard-response,15
true,3,1,1,2,false,d,false,false,0.0-2.0-0.8-0.79-3.79,0,0,0,90,false,stim,true,1,1212,1,0,0,64709,task2,399495,false,false,421,image-keyboard-response,16
true,3,0,1,2,false,d,true,false,0.0-2.0-0.8-0.80-3.80,0,0,0,81,false,stim,false,1,841,1,0,0,64709,task2,401848,false,false,424,image-keyboard-response,17
true,3,0,1,0,true,q,false,true,0.0-2.0-0.9-0.81-3.81,0,0,0,81,false,stim,false,2,844,1,0,2,64709,task2,404202,false,false,427,image-keyboard-response,18
true,3,0,1,0,true,q,false,true,0.0-2.0-0.9-0.82-3.82,0,0,0,81,false,stim,false,2,634,1,0,2,64709,task2,406346,false,false,430,image-keyboard-response,19
true,3,1,1,2,false,d,false,false,0.0-2.0-0.9-0.83-3.83,0,0,0,90,false,stim,true,1,1070,1,0,0,64709,task2,408924,false,false,433,image-keyboard-response,20
true,3,1,1,2,false,d,true,false,0.0-2.0-0.9-0.84-3.84,0,0,0,90,false,stim,false,0,1276,1,0,1,64709,task2,411711,false,false,436,image-keyboard-response,21
true,3,2,1,2,true,d,false,true,0.0-2.0-0.9-0.85-3.85,0,0,0,68,false,stim,false,1,1824,1,0,0,64709,task2,415045,false,false,439,image-keyboard-response,22
true,3,0,1,2,false,d,false,false,0.0-2.0-0.9-0.86-3.86,0,0,0,81,false,stim,true,0,1137,1,0,1,64709,task2,417686,false,false,442,image-keyboard-response,23
true,3,0,1,0,true,q,false,true,0.0-2.0-0.9-0.87-3.87,0,0,0,81,false,stim,false,2,1138,1,0,2,64709,task2,420331,false,false,445,image-keyboard-response,24
true,3,1,1,2,false,d,true,false,0.0-2.0-0.9-0.88-3.88,0,0,0,90,false,stim,false,0,689,1,0,1,64709,task2,422526,false,false,448,image-keyboard-response,25
true,3,1,1,2,false,d,false,false,0.0-2.0-0.9-0.89-3.89,0,0,0,90,false,stim,true,1,982,1,0,0,64709,task2,425017,false,false,451,image-keyboard-response,26
true,3,0,1,2,false,d,false,false,0.0-2.0-0.10-0.90-3.90,0,0,0,81,false,stim,true,0,778,1,0,1,64709,task2,427306,false,false,454,image-keyboard-response,27
true,3,0,1,0,true,q,false,true,0.0-2.0-0.10-0.91-3.91,0,0,0,81,false,stim,false,2,962,1,0,2,64709,task2,429777,false,false,457,image-keyboard-response,28
true,3,1,1,2,false,d,false,false,0.0-2.0-0.10-0.92-3.92,0,0,0,90,false,stim,true,1,1052,1,0,0,64709,task2,432340,false,false,460,image-keyboard-response,29
true,3,0,1,2,false,d,false,false,0.0-2.0-0.10-0.93-3.93,0,0,0,81,false,stim,true,0,550,1,0,1,64709,task2,434401,false,false,463,image-keyboard-response,30
true,3,0,1,0,true,q,false,true,0.0-2.0-0.10-0.94-3.94,0,0,0,81,false,stim,false,2,444,1,0,2,64709,task2,436357,false,false,466,image-keyboard-response,31
true,3,2,1,2,true,d,false,true,0.0-2.0-0.10-0.95-3.95,0,0,0,68,false,stim,false,1,1790,1,0,0,64709,task2,439658,false,false,469,image-keyboard-response,32
true,3,2,1,2,true,d,false,true,0.0-2.0-0.10-0.96-3.96,0,0,0,68,false,stim,false,1,616,1,0,0,64709,task2,441781,false,false,472,image-keyboard-response,33
true,3,0,1,2,false,d,false,false,0.0-2.0-0.10-0.97-3.97,0,0,0,81,false,stim,true,0,703,1,1,1,64709,task2,443993,false,false,475,image-keyboard-response,34
true,3,0,1,0,true,q,false,true,0.0-2.0-0.10-0.98-3.98,0,0,0,81,false,stim,false,2,1032,1,0,2,64709,task2,446536,false,false,478,image-keyboard-response,35
true,4,2,2,1,false,z,false,false,0.0-2.0-0.11-0.99-3.99,0,1,0,68,true,stim,true,2,902,1,0,0,64709,task2,448943,false,false,481,image-keyboard-response,1
true,4,1,2,2,false,d,true,false,0.0-2.0-0.11-0.100-3.100,0,1,0,90,false,stim,false,0,843,1,0,2,64709,task2,451293,false,false,484,image-keyboard-response,2
true,4,1,2,1,true,z,false,true,0.0-2.0-0.11-0.101-3.101,0,1,0,90,false,stim,false,2,2111,1,0,0,64709,task2,454912,false,false,487,image-keyboard-response,3
true,4,0,2,2,false,d,false,false,0.0-2.0-0.11-0.102-3.102,0,1,0,81,false,stim,true,0,904,1,0,2,64709,task2,457327,false,false,490,image-keyboard-response,4
true,4,1,2,2,false,d,true,false,0.0-2.0-0.11-0.103-3.103,0,1,0,90,false,stim,false,0,838,1,0,2,64709,task2,459674,false,false,493,image-keyboard-response,5
true,4,0,2,2,false,d,true,false,0.0-2.0-0.11-0.104-3.104,0,1,0,81,false,stim,false,2,1108,1,1,1,64709,task2,462290,false,false,496,image-keyboard-response,6
true,4,1,2,2,false,d,true,false,0.0-2.0-0.11-0.105-3.105,0,1,0,90,false,stim,false,2,478,1,1,1,64709,task2,464274,false,false,499,image-keyboard-response,7
true,4,2,2,2,true,d,false,true,0.0-2.0-0.11-0.106-3.106,0,1,0,68,false,stim,false,2,958,1,1,1,64709,task2,466740,false,false,502,image-keyboard-response,8
true,4,0,2,1,false,z,true,false,0.0-2.0-0.11-0.107-3.107,0,1,0,81,false,stim,false,2,906,1,0,0,64709,task2,469152,false,false,505,image-keyboard-response,9
true,4,0,2,2,false,d,true,false,0.0-2.0-0.12-0.108-3.108,0,1,0,81,false,stim,false,2,1045,1,1,1,64709,task2,471703,false,false,508,image-keyboard-response,10
true,4,1,2,2,false,d,true,false,0.0-2.0-0.12-0.109-3.109,0,1,0,90,false,stim,false,0,1292,1,0,2,64709,task2,474503,false,false,511,image-keyboard-response,11
true,4,2,2,1,false,z,false,false,0.0-2.0-0.12-0.110-3.110,0,1,0,68,false,stim,true,2,799,1,0,0,64709,task2,476812,false,false,514,image-keyboard-response,12
true,4,0,2,2,false,d,true,false,0.0-2.0-0.12-0.111-3.111,0,1,0,81,false,stim,false,2,649,1,1,1,64709,task2,478966,false,false,517,image-keyboard-response,13
true,4,0,2,2,false,d,false,false,0.0-2.0-0.12-0.112-3.112,0,1,0,81,false,stim,true,0,727,1,0,2,64709,task2,481204,false,false,520,image-keyboard-response,14
true,4,1,2,2,false,d,true,false,0.0-2.0-0.12-0.113-3.113,0,1,0,90,false,stim,false,0,894,1,0,2,64709,task2,483609,false,false,523,image-keyboard-response,15
true,4,2,2,1,false,z,false,false,0.0-2.0-0.12-0.114-3.114,0,1,0,68,false,stim,true,2,835,1,0,0,64709,task2,485952,false,false,526,image-keyboard-response,16
true,4,0,2,1,false,z,true,false,0.0-2.0-0.12-0.115-3.115,0,1,0,81,false,stim,false,2,882,1,0,0,64709,task2,488343,false,false,529,image-keyboard-response,17
true,4,0,2,2,false,d,true,false,0.0-2.0-0.12-0.116-3.116,0,1,0,81,false,stim,false,2,921,1,1,1,64709,task2,490771,false,false,532,image-keyboard-response,18
true,4,1,2,2,false,d,true,false,0.0-2.0-0.13-0.117-3.117,0,1,0,90,false,stim,false,0,1112,1,0,2,64709,task2,493390,false,false,535,image-keyboard-response,19
true,4,0,2,1,false,z,true,false,0.0-2.0-0.13-0.118-3.118,0,1,0,81,false,stim,false,2,1097,1,0,0,64709,task2,495997,false,false,538,image-keyboard-response,20
true,4,0,2,2,false,d,true,false,0.0-2.0-0.13-0.119-3.119,0,1,0,81,false,stim,false,2,957,1,1,1,64709,task2,498462,false,false,541,image-keyboard-response,21
true,4,1,2,2,false,d,true,false,0.0-2.0-0.13-0.120-3.120,0,1,0,90,false,stim,false,2,839,1,1,1,64709,task2,500809,false,false,544,image-keyboard-response,22
true,4,2,2,1,false,z,false,false,0.0-2.0-0.13-0.121-3.121,0,1,0,68,false,stim,true,2,449,1,0,0,64709,task2,502770,false,false,547,image-keyboard-response,23
true,4,0,2,2,false,d,false,false,0.0-2.0-0.13-0.122-3.122,0,1,0,81,false,stim,true,0,796,1,0,2,64709,task2,505073,false,false,550,image-keyboard-response,24
true,4,0,2,2,false,d,true,true,0.0-2.0-0.13-0.123-3.123,0,1,0,81,false,stim,false,2,1129,1,1,1,64709,task2,507715,false,true,553,image-keyboard-response,25
true,4,1,2,2,false,d,true,false,0.0-2.0-0.13-0.124-3.124,0,1,0,90,false,stim,false,0,840,1,0,2,64709,task2,510063,false,false,556,image-keyboard-response,26
true,4,1,2,1,true,z,false,true,0.0-2.0-0.13-0.125-3.125,0,1,0,90,false,stim,false,2,1120,1,0,0,64709,task2,512689,false,false,559,image-keyboard-response,27
true,4,0,2,2,false,d,true,false,0.0-2.0-0.14-0.126-3.126,0,1,0,81,false,stim,false,2,829,1,1,1,64709,task2,515025,false,false,562,image-keyboard-response,28
true,4,1,2,1,true,z,false,true,0.0-2.0-0.14-0.127-3.127,0,1,0,90,false,stim,false,2,817,1,0,0,64709,task2,517349,false,false,565,image-keyboard-response,29
true,4,0,2,2,false,d,false,false,0.0-2.0-0.14-0.128-3.128,0,1,0,81,false,stim,true,0,791,1,0,2,64709,task2,519647,false,false,568,image-keyboard-response,30
true,4,2,2,2,true,d,false,true,0.0-2.0-0.14-0.129-3.129,0,1,0,68,false,stim,false,0,939,1,0,2,64709,task2,522094,false,false,571,image-keyboard-response,31
true,4,2,2,2,true,d,false,true,0.0-2.0-0.14-0.130-3.130,0,1,0,68,false,stim,false,0,430,1,0,2,64709,task2,524032,false,false,574,image-keyboard-response,32
true,4,1,2,1,true,z,false,true,0.0-2.0-0.14-0.131-3.131,0,1,0,90,false,stim,false,2,1517,1,0,0,64709,task2,527056,false,false,577,image-keyboard-response,33
true,4,1,2,1,true,z,false,true,0.0-2.0-0.14-0.132-3.132,0,1,0,90,false,stim,false,2,857,1,0,0,64709,task2,529423,false,false,580,image-keyboard-response,34
true,5,0,1,1,false,z,true,true,0.0-2.0-0.14-0.133-3.133,0,0,0,81,true,stim,false,2,788,1,0,1,64709,task2,531720,false,true,583,image-keyboard-response,1
true,5,0,1,1,false,z,true,false,0.0-2.0-0.14-0.134-3.134,0,0,0,81,false,stim,false,2,463,1,0,1,64709,task2,533687,false,false,586,image-keyboard-response,2
true,5,1,1,0,false,q,false,false,0.0-2.0-0.15-0.135-3.135,0,0,0,90,false,stim,true,1,932,1,0,0,64709,task2,536127,false,false,589,image-keyboard-response,3
true,5,2,1,1,false,z,false,false,0.0-2.0-0.15-0.136-3.136,0,0,0,68,false,stim,true,2,1614,1,0,1,64709,task2,539249,false,false,592,image-keyboard-response,4
true,5,0,1,1,false,z,true,false,0.0-2.0-0.15-0.137-3.137,0,0,0,81,false,stim,false,2,1090,1,0,2,64709,task2,541848,false,false,595,image-keyboard-response,5
true,5,1,1,1,true,z,false,true,0.0-2.0-0.15-0.138-3.138,0,0,0,90,false,stim,false,2,857,1,0,2,64709,task2,544213,false,false,598,image-keyboard-response,6
true,5,2,1,1,false,z,false,false,0.0-2.0-0.15-0.139-3.139,0,0,0,68,false,stim,true,2,1440,1,0,1,64709,task2,547166,false,false,601,image-keyboard-response,7
true,5,2,1,0,false,q,true,false,0.0-2.0-0.15-0.140-3.140,0,0,0,68,false,stim,false,1,810,1,0,0,64709,task2,549484,false,false,604,image-keyboard-response,8
true,5,0,1,0,true,q,false,true,0.0-2.0-0.15-0.141-3.141,0,0,0,81,false,stim,false,1,977,1,0,0,64709,task2,551970,false,false,607,image-keyboard-response,9
true,5,1,1,1,true,z,false,true,0.0-2.0-0.15-0.142-3.142,0,0,0,90,false,stim,false,2,975,1,0,2,64709,task2,554449,false,false,610,image-keyboard-response,10
true,5,0,1,1,false,z,true,false,0.0-2.0-0.15-0.143-3.143,0,0,0,81,false,stim,false,2,1269,1,0,1,64709,task2,557225,false,false,613,image-keyboard-response,11
true,5,2,1,1,false,z,false,false,0.0-2.0-0.16-0.144-3.144,0,0,0,68,false,stim,true,2,1363,1,0,1,64709,task2,560093,false,false,616,image-keyboard-response,12
true,5,0,1,0,true,q,false,true,0.0-2.0-0.16-0.145-3.145,0,0,0,81,false,stim,false,1,756,1,0,0,64709,task2,562354,false,false,619,image-keyboard-response,13
true,5,1,1,1,true,z,false,true,0.0-2.0-0.16-0.146-3.146,0,0,0,90,false,stim,false,2,928,1,0,1,64709,task2,564788,false,false,622,image-keyboard-response,14
true,5,0,1,1,false,z,true,false,0.0-2.0-0.16-0.147-3.147,0,0,0,81,false,stim,false,2,1035,1,0,2,64709,task2,567333,false,false,625,image-keyboard-response,15
true,5,1,1,1,true,z,false,true,0.0-2.0-0.16-0.148-3.148,0,0,0,90,false,stim,false,2,964,1,0,2,64709,task2,569807,false,false,628,image-keyboard-response,16
true,5,2,1,0,false,q,true,false,0.0-2.0-0.16-0.149-3.149,0,0,0,68,false,stim,false,1,914,1,0,0,64709,task2,572234,false,false,631,image-keyboard-response,17
true,5,0,1,1,false,z,true,false,0.0-2.0-0.16-0.150-3.150,0,0,0,81,false,stim,false,2,608,1,0,1,64709,task2,574350,false,false,634,image-keyboard-response,18
true,5,1,1,1,true,z,false,true,0.0-2.0-0.16-0.151-3.151,0,0,0,90,false,stim,false,2,800,1,0,2,64709,task2,576662,false,false,637,image-keyboard-response,19
true,5,2,1,0,false,q,true,false,0.0-2.0-0.16-0.152-3.152,0,0,0,68,false,stim,false,1,1040,1,0,0,64709,task2,579208,false,false,640,image-keyboard-response,20
true,5,0,1,0,true,q,false,true,0.0-2.0-0.17-0.153-3.153,0,0,0,81,false,stim,false,1,2513,1,0,0,64709,task2,583230,false,false,643,image-keyboard-response,21
true,5,0,1,1,false,z,true,false,0.0-2.0-0.17-0.154-3.154,0,0,0,81,false,stim,false,2,1060,1,0,1,64709,task2,585799,false,false,646,image-keyboard-response,22
true,5,1,1,1,true,z,false,true,0.0-2.0-0.17-0.155-3.155,0,0,0,90,false,stim,false,2,906,1,0,1,64709,task2,588212,false,false,649,image-keyboard-response,23
true,5,0,1,1,false,z,true,false,0.0-2.0-0.17-0.156-3.156,0,0,0,81,false,stim,false,2,1314,1,0,2,64709,task2,591036,false,false,652,image-keyboard-response,24
true,5,2,1,1,false,z,false,false,0.0-2.0-0.17-0.157-3.157,0,0,0,68,false,stim,true,2,561,1,0,2,64709,task2,593105,false,false,655,image-keyboard-response,25
true,5,1,1,0,false,q,false,true,0.0-2.0-0.17-0.158-3.158,0,0,0,90,false,stim,true,1,1101,1,0,0,64709,task2,595715,false,true,658,image-keyboard-response,26
true,5,0,1,1,false,z,true,false,0.0-2.0-0.17-0.159-3.159,0,0,0,81,false,stim,false,2,955,1,0,1,64709,task2,598180,false,false,661,image-keyboard-response,27
true,5,2,1,0,false,q,true,false,0.0-2.0-0.17-0.160-3.160,0,0,0,68,false,stim,false,1,630,1,0,0,64709,task2,600322,false,false,664,image-keyboard-response,28
true,5,1,1,1,true,z,false,false,0.0-2.0-0.17-0.161-3.161,0,0,0,90,false,stim,false,2,956,1,0,2,64709,task2,602790,false,true,667,image-keyboard-response,29
true,5,0,1,1,false,z,true,false,0.0-2.0-0.18-0.162-3.162,0,0,0,81,false,stim,false,2,704,1,0,2,64709,task2,605001,false,false,670,image-keyboard-response,30
true,5,2,1,1,false,z,false,false,0.0-2.0-0.18-0.163-3.163,0,0,0,68,false,stim,true,2,918,1,0,2,64709,task2,607428,false,false,673,image-keyboard-response,31
true,5,0,1,1,false,z,true,false,0.0-2.0-0.18-0.164-3.164,0,0,0,81,false,stim,false,2,715,1,0,1,64709,task2,609647,false,false,676,image-keyboard-response,32
true,5,1,1,1,true,z,false,true,0.0-2.0-0.18-0.165-3.165,0,0,0,90,false,stim,false,2,707,1,0,1,64709,task2,611863,false,false,679,image-keyboard-response,33
true,5,1,1,1,true,z,false,true,0.0-2.0-0.18-0.166-3.166,0,0,0,90,false,stim,false,2,823,1,0,1,64709,task2,614193,false,false,682,image-keyboard-response,34
true,5,0,1,1,false,z,true,false,0.0-2.0-0.18-0.167-3.167,0,0,0,81,false,stim,false,2,624,1,1,2,64709,task2,616326,false,false,685,image-keyboard-response,35
true,5,2,1,0,false,q,true,false,0.0-2.0-0.18-0.168-3.168,0,0,0,68,false,stim,false,1,1296,1,0,0,64709,task2,619124,false,false,688,image-keyboard-response,36
true,5,2,1,0,false,q,true,true,0.0-2.0-0.18-0.169-3.169,0,0,0,68,false,stim,false,1,590,1,0,0,64709,task2,621223,false,true,691,image-keyboard-response,37
true,5,2,1,0,false,q,true,false,0.0-2.0-0.18-0.170-3.170,0,0,0,68,false,stim,false,1,535,1,0,0,64709,task2,623266,false,false,694,image-keyboard-response,38
true,6,2,2,1,false,z,true,true,0.0-2.0-0.19-0.171-3.171,0,0,1,68,true,stim,false,1,740,1,1,2,64709,task2,625516,false,true,697,image-keyboard-response,1
true,6,2,2,2,true,d,false,true,0.0-2.0-0.19-0.172-3.172,0,0,1,68,false,stim,false,1,541,1,0,1,64709,task2,627568,false,false,700,image-keyboard-response,2
true,6,2,2,2,true,d,false,true,0.0-2.0-0.19-0.173-3.173,0,0,1,68,false,stim,false,1,424,1,0,1,64709,task2,629501,false,false,703,image-keyboard-response,3
true,6,0,2,2,false,d,false,false,0.0-2.0-0.19-0.174-3.174,0,0,1,81,false,stim,true,0,802,1,0,0,64709,task2,631810,false,false,706,image-keyboard-response,4
true,6,0,2,2,false,d,false,false,0.0-2.0-0.19-0.175-3.175,0,0,1,81,false,stim,true,0,768,1,0,0,64709,task2,634090,false,false,709,image-keyboard-response,5
true,6,1,2,1,true,z,false,true,0.0-2.0-0.19-0.176-3.176,0,0,1,90,false,stim,false,1,665,1,1,2,64709,task2,636260,false,false,712,image-keyboard-response,6
true,6,1,2,2,false,d,false,true,0.0-2.0-0.19-0.177-3.177,0,0,1,90,false,stim,true,1,743,1,0,1,64709,task2,638510,false,true,715,image-keyboard-response,7
true,6,1,2,2,false,d,true,true,0.0-2.0-0.19-0.178-3.178,0,0,1,90,false,stim,false,0,680,1,0,0,64709,task2,640702,false,true,718,image-keyboard-response,8
true,6,1,2,1,true,z,false,false,0.0-2.0-0.19-0.179-3.179,0,0,1,90,false,stim,false,1,814,1,1,2,64709,task2,643023,false,true,721,image-keyboard-response,9
true,6,0,2,1,false,z,true,false,0.0-2.0-0.20-0.180-3.180,0,0,1,81,false,stim,false,1,440,1,1,2,64709,task2,644973,false,false,724,image-keyboard-response,10
true,6,2,2,2,true,d,false,true,0.0-2.0-0.20-0.181-3.181,0,0,1,68,false,stim,false,1,484,1,0,1,64709,task2,646965,false,false,727,image-keyboard-response,11
true,6,2,2,2,true,d,false,true,0.0-2.0-0.20-0.182-3.182,0,0,1,68,false,stim,false,1,582,1,0,1,64709,task2,649058,false,false,730,image-keyboard-response,12
true,6,2,2,2,true,d,false,true,0.0-2.0-0.20-0.183-3.183,0,0,1,68,false,stim,false,1,598,1,0,1,64709,task2,651164,false,false,733,image-keyboard-response,13
true,6,2,2,2,true,d,false,true,0.0-2.0-0.20-0.184-3.184,0,0,1,68,false,stim,false,0,596,1,0,0,64709,task2,653269,false,false,736,image-keyboard-response,14
true,6,0,2,1,false,z,true,false,0.0-2.0-0.20-0.185-3.185,0,0,1,81,false,stim,false,1,1127,1,1,2,64709,task2,655908,false,false,739,image-keyboard-response,15
true,6,2,2,2,true,d,false,true,0.0-2.0-0.20-0.186-3.186,0,0,1,68,false,stim,false,0,579,1,0,0,64709,task2,657991,false,false,742,image-keyboard-response,16
true,6,2,2,2,true,d,false,true,0.0-2.0-0.20-0.187-3.187,0,0,1,68,false,stim,false,0,633,1,0,0,64709,task2,660133,false,false,745,image-keyboard-response,17
true,6,2,2,1,false,z,true,false,0.0-2.0-0.20-0.188-3.188,0,0,1,68,false,stim,false,1,866,1,1,2,64709,task2,662508,false,false,748,image-keyboard-response,18
true,6,2,2,2,true,d,false,true,0.0-2.0-0.21-0.189-3.189,0,0,1,68,false,stim,false,0,1046,1,0,0,64709,task2,665065,false,false,751,image-keyboard-response,19
true,6,2,2,2,true,d,false,true,0.0-2.0-0.21-0.190-3.190,0,0,1,68,false,stim,false,0,681,1,0,0,64709,task2,667250,false,false,754,image-keyboard-response,20
true,6,1,2,1,true,z,false,true,0.0-2.0-0.21-0.191-3.191,0,0,1,90,false,stim,false,1,1158,1,1,2,64709,task2,669921,false,false,757,image-keyboard-response,21
true,6,0,2,2,false,d,true,false,0.0-2.0-0.21-0.192-3.192,0,0,1,81,false,stim,false,1,986,1,0,1,64709,task2,672416,false,false,760,image-keyboard-response,22
true,6,1,2,2,false,d,false,false,0.0-2.0-0.21-0.193-3.193,0,0,1,90,false,stim,true,1,929,1,0,1,64709,task2,674848,false,false,763,image-keyboard-response,23
true,6,2,2,2,true,d,false,true,0.0-2.0-0.21-0.194-3.194,0,0,1,68,false,stim,false,1,710,1,0,1,64709,task2,677064,false,false,766,image-keyboard-response,24
true,6,0,2,2,false,d,false,false,0.0-2.0-0.21-0.195-3.195,0,0,1,81,false,stim,true,0,997,1,0,0,64709,task2,679570,false,false,769,image-keyboard-response,25
true,6,2,2,1,false,z,true,true,0.0-2.0-0.21-0.196-3.196,0,0,1,68,false,stim,false,1,836,1,1,2,64709,task2,681911,false,true,772,image-keyboard-response,26
true,6,2,2,1,false,z,true,false,0.0-2.0-0.21-0.197-3.197,0,0,1,68,false,stim,false,1,1228,1,0,2,64709,task2,684648,false,false,775,image-keyboard-response,27
true,6,0,2,2,false,d,false,false,0.0-2.0-0.22-0.198-3.198,0,0,1,81,false,stim,true,0,656,1,0,0,64709,task2,686816,false,false,778,image-keyboard-response,28
true,6,1,2,2,false,d,false,false,0.0-2.0-0.22-0.199-3.199,0,0,1,90,false,stim,true,1,826,1,0,1,64709,task2,689152,false,false,781,image-keyboard-response,29
true,6,2,2,2,true,d,false,true,0.0-2.0-0.22-0.200-3.200,0,0,1,68,false,stim,false,0,541,1,0,0,64709,task2,691202,false,false,784,image-keyboard-response,30
true,6,0,2,1,false,z,true,true,0.0-2.0-0.22-0.201-3.201,0,0,1,81,false,stim,false,1,758,1,0,2,64709,task2,693473,false,true,787,image-keyboard-response,31
true,7,0,1,0,true,q,false,true,0.0-2.0-0.22-0.202-3.202,0,0,0,81,true,stim,false,1,458,1,0,2,64709,task2,695438,false,false,790,image-keyboard-response,1
true,7,0,1,0,true,q,false,false,0.0-2.0-0.22-0.203-3.203,0,0,0,81,false,stim,false,1,591,1,0,2,64709,task2,697536,false,true,793,image-keyboard-response,2
true,7,1,1,1,true,z,false,true,0.0-2.0-0.22-0.204-3.204,0,0,0,90,false,stim,false,2,959,1,0,0,64709,task2,700006,false,false,796,image-keyboard-response,3
true,7,2,1,1,false,z,false,false,0.0-2.0-0.22-0.205-3.205,0,0,0,68,false,stim,true,2,969,1,0,1,64709,task2,702479,false,false,799,image-keyboard-response,4
true,7,1,1,1,true,z,false,true,0.0-2.0-0.22-0.206-3.206,0,0,0,90,false,stim,false,2,942,1,0,1,64709,task2,704928,false,false,802,image-keyboard-response,5
true,7,1,1,1,true,z,false,true,0.0-2.0-0.23-0.207-3.207,0,0,0,90,false,stim,false,2,787,1,0,1,64709,task2,707227,false,false,805,image-keyboard-response,6
true,7,0,1,0,true,q,false,true,0.0-2.0-0.23-0.208-3.208,0,0,0,81,false,stim,false,1,793,1,0,2,64709,task2,709529,false,false,808,image-keyboard-response,7
true,7,0,1,1,false,z,true,false,0.0-2.0-0.23-0.209-3.209,0,0,0,81,false,stim,false,2,575,1,0,0,64709,task2,711615,false,false,811,image-keyboard-response,8
true,7,2,1,0,false,q,true,false,0.0-2.0-0.23-0.210-3.210,0,0,0,68,false,stim,false,1,773,1,0,2,64709,task2,713894,false,false,814,image-keyboard-response,9
true,7,0,1,1,false,z,true,false,0.0-2.0-0.23-0.211-3.211,0,0,0,81,false,stim,false,2,1002,1,0,1,64709,task2,716402,false,false,817,image-keyboard-response,10
true,7,0,1,0,true,q,false,true,0.0-2.0-0.23-0.212-3.212,0,0,0,81,false,stim,false,1,932,1,0,2,64709,task2,718845,false,false,820,image-keyboard-response,11
true,7,2,1,1,false,z,false,true,0.0-2.0-0.23-0.213-3.213,0,0,0,68,false,stim,true,2,899,1,0,0,64709,task2,721250,false,true,823,image-keyboard-response,12
true,7,0,1,1,false,z,true,false,0.0-2.0-0.23-0.214-3.214,0,0,0,81,false,stim,false,2,717,1,0,1,64709,task2,723477,false,false,826,image-keyboard-response,13
true,7,2,1,1,false,z,false,false,0.0-2.0-0.23-0.215-3.215,0,0,0,68,false,stim,true,2,851,1,0,0,64709,task2,725834,false,false,829,image-keyboard-response,14
true,7,1,1,0,false,q,false,false,0.0-2.0-0.24-0.216-3.216,0,0,0,90,false,stim,true,1,935,1,0,2,64709,task2,728278,false,false,832,image-keyboard-response,15
true,7,0,1,0,true,q,false,true,0.0-2.0-0.24-0.217-3.217,0,0,0,81,false,stim,false,1,486,1,0,2,64709,task2,730271,false,false,835,image-keyboard-response,16
true,7,1,1,1,true,z,false,true,0.0-2.0-0.24-0.218-3.218,0,0,0,90,false,stim,false,2,897,1,0,1,64709,task2,732678,false,false,838,image-keyboard-response,17
true,7,0,1,0,true,q,false,true,0.0-2.0-0.24-0.219-3.219,0,0,0,81,false,stim,false,1,868,1,0,2,64709,task2,735053,false,false,841,image-keyboard-response,18
true,7,2,1,1,false,z,false,false,0.0-2.0-0.24-0.220-3.220,0,0,0,68,false,stim,true,2,627,1,0,0,64709,task2,737183,false,false,844,image-keyboard-response,19
true,7,0,1,1,false,z,true,false,0.0-2.0-0.24-0.221-3.221,0,0,0,81,false,stim,false,2,736,1,0,1,64709,task2,739430,false,false,847,image-keyboard-response,20
true,7,0,1,1,false,z,true,false,0.0-2.0-0.24-0.222-3.222,0,0,0,81,false,stim,false,2,1152,1,0,0,64709,task2,742090,false,false,850,image-keyboard-response,21
true,7,1,1,1,true,z,false,true,0.0-2.0-0.24-0.223-3.223,0,0,0,90,false,stim,false,2,867,1,0,1,64709,task2,744466,false,false,853,image-keyboard-response,22
true,7,2,1,1,false,z,false,false,0.0-2.0-0.24-0.224-3.224,0,0,0,68,false,stim,true,2,1067,1,0,0,64709,task2,747041,false,false,856,image-keyboard-response,23
true,7,0,1,1,false,z,true,false,0.0-2.0-0.25-0.225-3.225,0,0,0,81,false,stim,false,2,616,1,0,1,64709,task2,749166,false,false,859,image-keyboard-response,24
true,7,0,1,0,true,q,false,true,0.0-2.0-0.25-0.226-3.226,0,0,0,81,false,stim,false,1,791,1,0,2,64709,task2,751464,false,false,862,image-keyboard-response,25
true,7,0,1,0,true,q,false,true,0.0-2.0-0.25-0.227-3.227,0,0,0,81,false,stim,false,1,675,1,0,2,64709,task2,753646,false,false,865,image-keyboard-response,26
true,7,1,1,1,true,z,false,true,0.0-2.0-0.25-0.228-3.228,0,0,0,90,false,stim,false,2,1079,1,0,0,64709,task2,756234,false,false,868,image-keyboard-response,27
true,7,0,1,0,true,q,false,true,0.0-2.0-0.25-0.229-3.229,0,0,0,81,false,stim,false,1,1117,1,0,2,64709,task2,758858,false,false,871,image-keyboard-response,28
true,7,1,1,1,true,z,false,true,0.0-2.0-0.25-0.230-3.230,0,0,0,90,false,stim,false,2,808,1,0,1,64709,task2,761175,false,false,874,image-keyboard-response,29
true,7,2,1,1,false,z,false,false,0.0-2.0-0.25-0.231-3.231,0,0,0,68,false,stim,true,2,887,1,0,0,64709,task2,763573,false,false,877,image-keyboard-response,30
true,7,0,1,1,false,z,true,false,0.0-2.0-0.25-0.232-3.232,0,0,0,81,false,stim,false,2,996,1,0,0,64709,task2,766077,false,false,880,image-keyboard-response,31
true,7,1,1,1,true,z,false,true,0.0-2.0-0.25-0.233-3.233,0,0,0,90,false,stim,false,2,891,1,1,1,64709,task2,768481,false,false,883,image-keyboard-response,32
true,7,1,1,0,false,q,false,false,0.0-2.0-0.26-0.234-3.234,0,0,0,90,false,stim,true,1,1952,1,0,2,64709,task2,771943,false,false,886,image-keyboard-response,33
true,7,2,1,1,false,z,false,false,0.0-2.0-0.26-0.235-3.235,0,0,0,68,false,stim,true,2,691,1,1,1,64709,task2,774144,false,false,889,image-keyboard-response,34
false,7,-1,1,0,false,q,true,false,0.0-2.0-0.26-0.236-3.236,0,0,0,,false,stim,false,1,,1,0,2,64709,task2,778655,false,false,892,image-keyboard-response,35
true,8,0,2,2,false,d,true,false,0.0-2.0-0.26-0.237-3.237,0,1,0,81,true,stim,false,1,698,1,0,0,64709,task2,780860,false,false,895,image-keyboard-response,1
true,8,0,2,1,false,z,true,false,0.0-2.0-0.26-0.238-3.238,0,1,0,81,false,stim,false,1,648,1,1,1,64709,task2,783020,false,false,898,image-keyboard-response,2
true,8,2,2,2,true,d,false,true,0.0-2.0-0.26-0.239-3.239,0,1,0,68,false,stim,false,1,589,1,0,0,64709,task2,785121,false,false,901,image-keyboard-response,3
true,8,2,2,2,true,d,false,true,0.0-2.0-0.26-0.240-3.240,0,1,0,68,false,stim,false,1,601,1,0,0,64709,task2,787233,false,false,904,image-keyboard-response,4
true,8,1,2,1,true,z,false,true,0.0-2.0-0.26-0.241-3.241,0,1,0,90,false,stim,false,1,888,1,1,1,64709,task2,789635,false,false,907,image-keyboard-response,5
true,8,1,2,1,true,z,false,true,0.0-2.0-0.26-0.242-3.242,0,1,0,90,false,stim,false,0,848,1,0,2,64709,task2,791991,false,false,910,image-keyboard-response,6
true,8,0,2,1,false,z,true,false,0.0-2.0-0.27-0.243-3.243,0,1,0,81,false,stim,false,1,857,1,1,1,64709,task2,794354,false,false,913,image-keyboard-response,7
true,8,0,2,2,false,d,true,false,0.0-2.0-0.27-0.244-3.244,0,1,0,81,false,stim,false,1,800,1,0,0,64709,task2,796658,false,false,916,image-keyboard-response,8
true,8,1,2,1,true,z,false,true,0.0-2.0-0.27-0.245-3.245,0,1,0,90,false,stim,false,0,1080,1,0,2,64709,task2,799249,false,false,919,image-keyboard-response,9
true,8,2,2,1,false,z,true,false,0.0-2.0-0.27-0.246-3.246,0,1,0,68,false,stim,false,1,629,1,1,1,64709,task2,801384,false,false,922,image-keyboard-response,10
true,8,0,2,2,false,d,true,false,0.0-2.0-0.27-0.247-3.247,0,1,0,81,false,stim,false,1,602,1,0,0,64709,task2,803494,false,false,925,image-keyboard-response,11
true,8,1,2,1,true,z,false,true,0.0-2.0-0.27-0.248-3.248,0,1,0,90,false,stim,false,1,951,1,1,1,64709,task2,805951,false,false,928,image-keyboard-response,12
true,8,1,2,1,true,z,false,true,0.0-2.0-0.27-0.249-3.249,0,1,0,90,false,stim,false,0,608,1,0,2,64709,task2,808066,false,false,931,image-keyboard-response,13
true,8,1,2,1,true,z,false,true,0.0-2.0-0.27-0.250-3.250,0,1,0,90,false,stim,false,0,814,1,0,2,64709,task2,810386,false,false,934,image-keyboard-response,14
true,8,1,2,2,false,d,false,false,0.0-2.0-0.27-0.251-3.251,0,1,0,90,false,stim,true,1,924,1,0,0,64709,task2,812818,false,false,937,image-keyboard-response,15
true,8,0,2,1,false,z,false,false,0.0-2.0-0.28-0.252-3.252,0,1,0,81,false,stim,true,0,377,1,0,2,64709,task2,814702,false,false,940,image-keyboard-response,16
true,8,2,2,2,true,d,false,true,0.0-2.0-0.28-0.253-3.253,0,1,0,68,false,stim,false,1,542,1,0,0,64709,task2,816753,false,false,943,image-keyboard-response,17
true,8,2,2,1,false,z,true,false,0.0-2.0-0.28-0.254-3.254,0,1,0,68,false,stim,false,1,561,1,1,1,64709,task2,818822,false,false,946,image-keyboard-response,18
true,8,1,2,2,false,d,false,false,0.0-2.0-0.28-0.255-3.255,0,1,0,90,false,stim,true,1,781,1,0,0,64709,task2,821114,false,false,949,image-keyboard-response,19
true,8,2,2,2,true,d,false,true,0.0-2.0-0.28-0.256-3.256,0,1,0,68,false,stim,false,1,510,1,0,0,64709,task2,823127,false,false,952,image-keyboard-response,20
true,8,2,2,1,false,z,true,false,0.0-2.0-0.28-0.257-3.257,0,1,0,68,false,stim,false,1,645,1,1,1,64709,task2,825280,false,false,955,image-keyboard-response,21
true,8,0,2,1,false,z,false,false,0.0-2.0-0.28-0.258-3.258,0,1,0,81,false,stim,true,0,433,1,0,2,64709,task2,827225,false,false,958,image-keyboard-response,22
true,8,2,2,1,false,z,true,true,0.0-2.0-0.28-0.259-3.259,0,1,0,68,false,stim,false,1,501,1,1,1,64709,task2,829231,false,true,961,image-keyboard-response,23
true,8,2,2,1,false,z,true,true,0.0-2.0-0.28-0.260-3.260,0,1,0,68,false,stim,false,0,1204,1,0,2,64709,task2,831947,false,true,964,image-keyboard-response,24
true,8,1,2,2,false,d,false,false,0.0-2.0-0.29-0.261-3.261,0,1,0,90,false,stim,true,1,1144,1,0,0,64709,task2,834599,false,false,967,image-keyboard-response,25
true,8,1,2,1,true,z,false,true,0.0-2.0-0.29-0.262-3.262,0,1,0,90,false,stim,false,1,900,1,1,1,64709,task2,837008,false,false,970,image-keyboard-response,26
true,8,1,2,2,false,d,false,false,0.0-2.0-0.29-0.263-3.263,0,1,0,90,false,stim,true,1,786,1,0,0,64709,task2,839300,false,false,973,image-keyboard-response,27
true,8,0,2,1,false,z,true,false,0.0-2.0-0.29-0.264-3.264,0,1,0,81,false,stim,false,1,562,1,1,1,64709,task2,841370,false,false,976,image-keyboard-response,28
true,8,2,2,1,false,z,true,false,0.0-2.0-0.29-0.265-3.265,0,1,0,68,false,stim,false,1,494,1,0,1,64709,task2,843375,false,false,979,image-keyboard-response,29
true,8,1,2,1,true,z,false,true,0.0-2.0-0.29-0.266-3.266,0,1,0,90,false,stim,false,0,1167,1,1,2,64709,task2,846052,false,false,982,image-keyboard-response,30
true,8,1,2,1,true,z,false,true,0.0-2.0-0.29-0.267-3.267,0,1,0,90,false,stim,false,0,807,1,1,2,64709,task2,848368,false,false,985,image-keyboard-response,31
true,8,1,2,1,true,z,false,true,0.0-2.0-0.29-0.268-3.268,0,1,0,90,false,stim,false,0,831,1,1,2,64709,task2,850709,false,false,988,image-keyboard-response,32
true,8,0,2,2,false,d,true,false,0.0-2.0-0.29-0.269-3.269,0,1,0,81,false,stim,false,1,674,1,0,0,64709,task2,852892,false,false,991,image-keyboard-response,33
true,9,1,2,1,true,z,false,false,0.0-2.0-0.30-0.270-3.270,0,0,1,90,true,stim,false,1,848,1,1,2,64709,task2,855245,false,true,994,image-keyboard-response,1
true,9,1,2,2,false,d,false,false,0.0-2.0-0.30-0.271-3.271,0,0,1,90,false,stim,true,1,1125,1,0,1,64709,task2,857876,false,false,997,image-keyboard-response,2
true,9,0,2,1,false,z,true,true,0.0-2.0-0.30-0.272-3.272,0,0,1,81,false,stim,false,2,716,1,0,0,64709,task2,860102,false,true,1000,image-keyboard-response,3
true,9,2,2,2,true,d,false,true,0.0-2.0-0.30-0.273-3.273,0,0,1,68,false,stim,false,1,1321,1,0,1,64709,task2,862937,false,false,1003,image-keyboard-response,4
true,9,1,2,1,true,z,false,true,0.0-2.0-0.30-0.274-3.274,0,0,1,90,false,stim,false,1,1057,1,1,2,64709,task2,865506,false,false,1006,image-keyboard-response,5
true,9,0,2,1,false,z,true,false,0.0-2.0-0.30-0.275-3.275,0,0,1,81,false,stim,false,2,463,1,0,0,64709,task2,867477,false,false,1009,image-keyboard-response,6
true,9,2,2,2,true,d,false,false,0.0-2.0-0.30-0.276-3.276,0,0,1,68,false,stim,false,1,480,1,0,1,64709,task2,869466,false,true,1012,image-keyboard-response,7
true,9,1,2,1,true,z,false,true,0.0-2.0-0.30-0.277-3.277,0,0,1,90,false,stim,false,1,532,1,1,2,64709,task2,871505,false,false,1015,image-keyboard-response,8
true,9,0,2,1,false,z,true,false,0.0-2.0-0.30-0.278-3.278,0,0,1,81,false,stim,false,2,726,1,0,0,64709,task2,873742,false,false,1018,image-keyboard-response,9
true,9,2,2,2,true,d,false,true,0.0-2.0-0.31-0.279-3.279,0,0,1,68,false,stim,false,1,436,1,0,1,64709,task2,875689,false,false,1021,image-keyboard-response,10
true,9,2,2,1,false,z,false,false,0.0-2.0-0.31-0.280-3.280,0,0,1,68,false,stim,true,2,590,1,0,0,64709,task2,877788,false,false,1024,image-keyboard-response,11
true,9,1,2,1,true,z,false,true,0.0-2.0-0.31-0.281-3.281,0,0,1,90,false,stim,false,1,628,1,1,2,64709,task2,879925,false,false,1027,image-keyboard-response,12
true,9,1,2,2,false,d,false,false,0.0-2.0-0.31-0.282-3.282,0,0,1,90,false,stim,true,1,780,1,0,1,64709,task2,882217,false,false,1030,image-keyboard-response,13
true,9,2,2,1,false,z,true,false,0.0-2.0-0.31-0.283-3.283,0,0,1,68,false,stim,false,1,1514,1,1,2,64709,task2,885238,false,false,1033,image-keyboard-response,14
true,9,1,2,2,false,d,false,false,0.0-2.0-0.31-0.284-3.284,0,0,1,90,false,stim,true,1,1754,1,0,1,64709,task2,888500,false,false,1036,image-keyboard-response,15
true,9,0,2,1,false,z,true,false,0.0-2.0-0.31-0.285-3.285,0,0,1,81,false,stim,false,2,952,1,0,0,64709,task2,890960,false,false,1039,image-keyboard-response,16
true,9,2,2,1,false,z,false,false,0.0-2.0-0.31-0.286-3.286,0,0,1,68,false,stim,true,2,822,1,0,0,64709,task2,893291,false,false,1042,image-keyboard-response,17
true,9,1,2,1,true,z,false,true,0.0-2.0-0.31-0.287-3.287,0,0,1,90,false,stim,false,1,638,1,1,2,64709,task2,895441,false,false,1045,image-keyboard-response,18
true,9,1,2,1,true,z,false,true,0.0-2.0-0.32-0.288-3.288,0,0,1,90,false,stim,false,2,858,1,0,0,64709,task2,897805,false,false,1048,image-keyboard-response,19
true,9,1,2,2,false,d,false,false,0.0-2.0-0.32-0.289-3.289,0,0,1,90,false,stim,true,1,1159,1,0,1,64709,task2,900475,false,false,1051,image-keyboard-response,20
true,9,2,2,1,false,z,false,false,0.0-2.0-0.32-0.290-3.290,0,0,1,68,false,stim,true,2,504,1,0,0,64709,task2,902488,false,false,1054,image-keyboard-response,21
true,9,0,2,1,false,z,true,true,0.0-2.0-0.32-0.291-3.291,0,0,1,81,false,stim,false,2,439,1,0,0,64709,task2,904440,false,true,1057,image-keyboard-response,22
true,9,0,2,1,false,z,true,false,0.0-2.0-0.32-0.292-3.292,0,0,1,81,false,stim,false,1,580,1,1,2,64709,task2,906529,false,false,1060,image-keyboard-response,23
true,9,2,2,1,false,z,true,false,0.0-2.0-0.32-0.293-3.293,0,0,1,68,false,stim,false,1,1231,1,1,2,64709,task2,909265,false,false,1063,image-keyboard-response,24
true,9,2,2,2,true,d,false,true,0.0-2.0-0.32-0.294-3.294,0,0,1,68,false,stim,false,1,467,1,0,1,64709,task2,910879,false,false,1066,image-keyboard-response,25
true,9,2,2,2,true,d,false,true,0.0-2.0-0.32-0.295-3.295,0,0,1,68,false,stim,false,1,1247,1,0,1,64709,task2,913632,false,false,1069,image-keyboard-response,26
true,9,1,2,1,true,z,false,true,0.0-2.0-0.32-0.296-3.296,0,0,1,90,false,stim,false,1,564,1,1,2,64709,task2,915703,false,false,1072,image-keyboard-response,27
true,9,2,2,1,false,z,true,false,0.0-2.0-0.33-0.297-3.297,0,0,1,68,false,stim,false,1,621,1,1,2,64709,task2,917835,false,false,1075,image-keyboard-response,28
true,9,1,2,2,false,d,false,false,0.0-2.0-0.33-0.298-3.298,0,0,1,90,false,stim,true,1,656,1,0,1,64709,task2,919998,false,false,1078,image-keyboard-response,29
true,9,2,2,2,true,d,false,true,0.0-2.0-0.33-0.299-3.299,0,0,1,68,false,stim,false,1,623,1,0,1,64709,task2,922134,false,false,1081,image-keyboard-response,30
true,9,2,2,1,false,z,true,false,0.0-2.0-0.33-0.300-3.300,0,0,1,68,false,stim,false,1,357,1,0,2,64709,task2,924002,false,false,1084,image-keyboard-response,31
true,9,2,2,1,false,z,false,true,0.0-2.0-0.33-0.301-3.301,0,0,1,68,false,stim,true,2,590,1,1,0,64709,task2,926100,false,true,1087,image-keyboard-response,32
true,9,2,2,1,false,z,false,false,0.0-2.0-0.33-0.302-3.302,0,0,1,68,false,stim,true,2,445,1,1,0,64709,task2,928051,false,false,1090,image-keyboard-response,33
true,9,2,2,2,true,d,false,true,0.0-2.0-0.33-0.303-3.303,0,0,1,68,false,stim,false,1,337,1,0,1,64709,task2,929896,false,false,1093,image-keyboard-response,34
true,9,0,2,1,false,z,true,true,0.0-2.0-0.33-0.304-3.304,0,0,1,81,false,stim,false,2,523,1,1,0,64709,task2,931931,false,true,1096,image-keyboard-response,35
true,10,2,2,2,true,d,false,true,0.0-2.0-0.33-0.305-3.305,1,0,0,68,true,stim,false,1,470,1,0,2,64709,task2,933913,false,false,1099,image-keyboard-response,1
true,10,2,2,1,false,z,false,false,0.0-2.0-0.34-0.306-3.306,1,0,0,68,false,stim,true,2,443,1,0,1,64709,task2,935870,false,false,1102,image-keyboard-response,2
true,10,1,2,1,true,z,false,true,0.0-2.0-0.34-0.307-3.307,1,0,0,90,false,stim,false,2,739,1,0,1,64709,task2,938114,false,false,1105,image-keyboard-response,3
true,10,2,2,1,false,z,true,false,0.0-2.0-0.34-0.308-3.308,1,0,0,68,false,stim,false,1,715,1,1,0,64709,task2,940337,false,false,1108,image-keyboard-response,4
true,10,1,2,1,true,z,false,true,0.0-2.0-0.34-0.309-3.309,1,0,0,90,false,stim,false,1,694,1,1,0,64709,task2,942542,false,false,1111,image-keyboard-response,5
true,10,2,2,2,true,d,false,true,0.0-2.0-0.34-0.310-3.310,1,0,0,68,false,stim,false,1,455,1,0,2,64709,task2,944502,false,false,1114,image-keyboard-response,6
true,10,0,2,1,false,z,true,false,0.0-2.0-0.34-0.311-3.311,1,0,0,81,false,stim,false,1,743,1,1,0,64709,task2,946756,false,false,1117,image-keyboard-response,7
true,10,1,2,2,false,d,false,false,0.0-2.0-0.34-0.312-3.312,1,0,0,90,false,stim,true,1,1092,1,0,2,64709,task2,949357,false,false,1120,image-keyboard-response,8
true,10,1,2,1,true,z,false,true,0.0-2.0-0.34-0.313-3.313,1,0,0,90,false,stim,false,2,1127,1,0,1,64709,task2,951991,false,false,1123,image-keyboard-response,9
true,10,0,2,2,false,d,true,false,0.0-2.0-0.34-0.314-3.314,1,0,0,81,false,stim,false,1,972,1,0,2,64709,task2,954471,false,false,1126,image-keyboard-response,10
true,10,2,2,1,false,z,true,false,0.0-2.0-0.35-0.315-3.315,1,0,0,68,false,stim,false,1,806,1,1,0,64709,task2,956786,false,false,1129,image-keyboard-response,11
true,10,0,2,2,false,d,true,false,0.0-2.0-0.35-0.316-3.316,1,0,0,81,false,stim,false,1,695,1,0,2,64709,task2,958991,false,false,1132,image-keyboard-response,12
true,10,1,2,2,false,d,false,false,0.0-2.0-0.35-0.317-3.317,1,0,0,90,false,stim,true,1,899,1,0,2,64709,task2,961398,false,false,1135,image-keyboard-response,13
true,10,0,2,1,false,z,true,false,0.0-2.0-0.35-0.318-3.318,1,0,0,81,false,stim,false,2,811,1,0,1,64709,task2,963717,false,false,1138,image-keyboard-response,14
true,10,2,2,1,false,z,false,false,0.0-2.0-0.35-0.319-3.319,1,0,0,68,false,stim,true,2,1480,1,0,1,64709,task2,966707,false,false,1141,image-keyboard-response,15
true,10,1,2,2,false,d,false,false,0.0-2.0-0.35-0.320-3.320,1,0,0,90,false,stim,true,1,952,1,0,2,64709,task2,969167,false,false,1144,image-keyboard-response,16
true,10,2,2,1,false,z,true,false,0.0-2.0-0.35-0.321-3.321,1,0,0,68,false,stim,false,1,1039,1,1,0,64709,task2,971713,false,false,1147,image-keyboard-response,17
true,10,0,2,1,false,z,true,false,0.0-2.0-0.35-0.322-3.322,1,0,0,81,false,stim,false,2,730,1,0,1,64709,task2,973951,false,false,1150,image-keyboard-response,18
true,10,1,2,1,true,z,false,true,0.0-2.0-0.35-0.323-3.323,1,0,0,90,false,stim,false,1,724,1,1,0,64709,task2,976182,false,false,1153,image-keyboard-response,19
true,10,0,2,1,false,z,true,false,0.0-2.0-0.36-0.324-3.324,1,0,0,81,false,stim,false,2,741,1,0,1,64709,task2,978432,false,false,1156,image-keyboard-response,20
true,10,0,2,1,false,z,true,false,0.0-2.0-0.36-0.325-3.325,1,0,0,81,false,stim,false,1,1465,1,1,0,64709,task2,981406,false,false,1159,image-keyboard-response,21
true,10,2,2,1,false,z,false,false,0.0-2.0-0.36-0.326-3.326,1,0,0,68,false,stim,true,2,443,1,0,1,64709,task2,983362,false,false,1162,image-keyboard-response,22
true,10,1,2,2,false,d,false,false,0.0-2.0-0.36-0.327-3.327,1,0,0,90,false,stim,true,1,804,1,0,2,64709,task2,985676,false,false,1165,image-keyboard-response,23
true,10,2,2,2,true,d,false,false,0.0-2.0-0.36-0.328-3.328,1,0,0,68,false,stim,false,1,522,1,0,2,64709,task2,987705,false,true,1168,image-keyboard-response,24
true,10,0,2,2,false,d,true,false,0.0-2.0-0.36-0.329-3.329,1,0,0,81,false,stim,false,1,571,1,0,2,64709,task2,989790,false,false,1171,image-keyboard-response,25
true,10,2,2,1,false,z,true,false,0.0-2.0-0.36-0.330-3.330,1,0,0,68,false,stim,false,1,577,1,1,0,64709,task2,991875,false,false,1174,image-keyboard-response,26
true,10,1,2,1,true,z,false,true,0.0-2.0-0.36-0.331-3.331,1,0,0,90,false,stim,false,1,815,1,1,0,64709,task2,994201,false,false,1177,image-keyboard-response,27
true,10,2,2,1,false,z,false,false,0.0-2.0-0.36-0.332-3.332,1,0,0,68,false,stim,true,2,1153,1,0,1,64709,task2,996860,false,false,1180,image-keyboard-response,28
true,10,1,2,2,false,d,false,false,0.0-2.0-0.37-0.333-3.333,1,0,0,90,false,stim,true,1,584,1,0,2,64709,task2,998956,false,false,1183,image-keyboard-response,29
true,10,2,2,1,false,z,false,false,0.0-2.0-0.37-0.334-3.334,1,0,0,68,false,stim,true,2,538,1,0,1,64709,task2,1001005,false,false,1186,image-keyboard-response,30
true,10,2,2,1,false,z,false,false,0.0-2.0-0.37-0.335-3.335,1,0,0,68,false,stim,true,2,497,1,0,1,64709,task2,1003013,false,false,1189,image-keyboard-response,31
true,11,0,2,1,false,z,true,false,0.0-2.0-0.37-0.336-3.336,1,0,0,81,true,stim,false,1,566,1,1,0,64709,task2,1005085,false,false,1192,image-keyboard-response,1
true,11,2,2,0,false,q,false,false,0.0-2.0-0.37-0.337-3.337,1,0,0,68,false,stim,true,2,331,1,0,2,64709,task2,1006923,false,false,1195,image-keyboard-response,2
true,11,1,2,1,true,z,false,true,0.0-2.0-0.37-0.338-3.338,1,0,0,90,false,stim,false,1,714,1,1,0,64709,task2,1009148,false,false,1198,image-keyboard-response,3
true,11,1,2,1,true,z,false,true,0.0-2.0-0.37-0.339-3.339,1,0,0,90,false,stim,false,1,720,1,1,0,64709,task2,1011380,false,false,1201,image-keyboard-response,4
true,11,2,2,2,true,d,false,true,0.0-2.0-0.37-0.340-3.340,1,0,0,68,false,stim,false,1,631,1,0,1,64709,task2,1013521,false,false,1204,image-keyboard-response,5
true,11,0,2,0,true,q,false,true,0.0-2.0-0.37-0.341-3.341,1,0,0,81,false,stim,false,2,619,1,0,2,64709,task2,1015649,false,false,1207,image-keyboard-response,6
true,11,2,2,2,true,d,false,true,0.0-2.0-0.38-0.342-3.342,1,0,0,68,false,stim,false,1,1160,1,0,1,64709,task2,1018319,false,false,1210,image-keyboard-response,7
true,11,0,2,0,true,q,false,true,0.0-2.0-0.38-0.343-3.343,1,0,0,81,false,stim,false,2,807,1,0,2,64709,task2,1020634,false,false,1213,image-keyboard-response,8
true,11,1,2,1,true,z,false,true,0.0-2.0-0.38-0.344-3.344,1,0,0,90,false,stim,false,1,1248,1,1,0,64709,task2,1023391,false,false,1216,image-keyboard-response,9
true,11,1,2,1,true,z,false,true,0.0-2.0-0.38-0.345-3.345,1,0,0,90,false,stim,false,1,945,1,1,0,64709,task2,1025845,false,false,1219,image-keyboard-response,10
true,11,0,2,0,true,q,false,true,0.0-2.0-0.38-0.346-3.346,1,0,0,81,false,stim,false,2,646,1,0,2,64709,task2,1028002,false,false,1222,image-keyboard-response,11
true,11,2,2,2,true,d,false,true,0.0-2.0-0.38-0.347-3.347,1,0,0,68,false,stim,false,1,681,1,0,1,64709,task2,1030190,false,false,1225,image-keyboard-response,12
true,11,0,2,1,false,z,true,false,0.0-2.0-0.38-0.348-3.348,1,0,0,81,false,stim,false,1,1001,1,1,0,64709,task2,1032699,false,false,1228,image-keyboard-response,13
true,11,0,2,0,true,q,false,true,0.0-2.0-0.38-0.349-3.349,1,0,0,81,false,stim,false,2,634,1,0,2,64709,task2,1034844,false,false,1231,image-keyboard-response,14
true,11,2,2,2,true,d,false,true,0.0-2.0-0.38-0.350-3.350,1,0,0,68,false,stim,false,1,677,1,0,1,64709,task2,1037028,false,false,1234,image-keyboard-response,15
true,11,0,2,2,false,d,true,false,0.0-2.0-0.39-0.351-3.351,1,0,0,81,false,stim,false,1,1379,1,0,1,64709,task2,1039914,false,false,1237,image-keyboard-response,16
true,11,0,2,0,true,q,false,true,0.0-2.0-0.39-0.352-3.352,1,0,0,81,false,stim,false,2,755,1,0,2,64709,task2,1042179,false,false,1240,image-keyboard-response,17
true,11,2,2,2,true,d,false,true,0.0-2.0-0.39-0.353-3.353,1,0,0,68,false,stim,false,1,689,1,0,1,64709,task2,1044374,false,false,1243,image-keyboard-response,18
true,11,0,2,0,true,q,false,true,0.0-2.0-0.39-0.354-3.354,1,0,0,81,false,stim,false,2,1031,1,0,2,64709,task2,1046914,false,false,1246,image-keyboard-response,19
true,11,1,2,1,true,z,false,true,0.0-2.0-0.39-0.355-3.355,1,0,0,90,false,stim,false,1,773,1,1,0,64709,task2,1049195,false,false,1249,image-keyboard-response,20
true,11,1,2,1,true,z,false,true,0.0-2.0-0.39-0.356-3.356,1,0,0,90,false,stim,false,1,935,1,1,0,64709,task2,1051638,false,false,1252,image-keyboard-response,21
true,11,0,2,0,true,q,false,true,0.0-2.0-0.39-0.357-3.357,1,0,0,81,false,stim,false,2,1016,1,0,2,64709,task2,1054163,false,false,1255,image-keyboard-response,22
true,11,1,2,1,true,z,false,true,0.0-2.0-0.39-0.358-3.358,1,0,0,90,false,stim,false,1,1025,1,1,0,64709,task2,1056698,false,false,1258,image-keyboard-response,23
true,11,2,2,2,true,d,false,true,0.0-2.0-0.39-0.359-3.359,1,0,0,68,false,stim,false,1,844,1,0,1,64709,task2,1059054,false,false,1261,image-keyboard-response,24
true,11,1,2,1,true,z,false,true,0.0-2.0-0.40-0.360-3.360,1,0,0,90,false,stim,false,1,1008,1,1,0,64709,task2,1061568,false,false,1264,image-keyboard-response,25
true,11,1,2,1,true,z,false,true,0.0-2.0-0.40-0.361-3.361,1,0,0,90,false,stim,false,1,849,1,1,0,64709,task2,1063927,false,false,1267,image-keyboard-response,26
true,11,0,2,0,true,q,false,true,0.0-2.0-0.40-0.362-3.362,1,0,0,81,false,stim,false,2,1125,1,0,2,64709,task2,1066559,false,false,1270,image-keyboard-response,27
true,11,2,2,2,true,d,false,true,0.0-2.0-0.40-0.363-3.363,1,0,0,68,false,stim,false,1,520,1,0,1,64709,task2,1068586,false,false,1273,image-keyboard-response,28
true,11,0,2,2,false,d,true,false,0.0-2.0-0.40-0.364-3.364,1,0,0,81,false,stim,false,1,999,1,0,1,64709,task2,1071097,false,false,1276,image-keyboard-response,29
true,11,1,2,1,true,z,false,true,0.0-2.0-0.40-0.365-3.365,1,0,0,90,false,stim,false,1,889,1,1,0,64709,task2,1073495,false,false,1279,image-keyboard-response,30
true,11,0,2,0,true,q,false,true,0.0-2.0-0.40-0.366-3.366,1,0,0,81,false,stim,false,2,515,1,0,2,64709,task2,1075515,false,false,1282,image-keyboard-response,31
true,11,2,2,2,true,d,false,true,0.0-2.0-0.40-0.367-3.367,1,0,0,68,false,stim,false,1,448,1,0,1,64709,task2,1077472,false,false,1285,image-keyboard-response,32
true,11,0,2,0,true,q,false,true,0.0-2.0-0.40-0.368-3.368,1,0,0,81,false,stim,false,2,974,1,0,2,64709,task2,1079956,false,false,1288,image-keyboard-response,33
true,11,1,2,1,true,z,false,true,0.0-2.0-0.41-0.369-3.369,1,0,0,90,false,stim,false,1,891,1,0,0,64709,task2,1082356,false,false,1291,image-keyboard-response,34
true,11,1,2,1,true,z,false,true,0.0-2.0-0.41-0.370-3.370,1,0,0,90,false,stim,false,1,890,1,0,0,64709,task2,1084758,false,false,1294,image-keyboard-response,35
true,12,2,1,0,false,q,false,false,0.0-2.0-0.41-0.371-3.371,0,0,0,68,true,stim,true,2,1649,1,0,1,64709,task2,1087914,false,false,1297,image-keyboard-response,1
true,12,0,1,0,true,q,false,true,0.0-2.0-0.41-0.372-3.372,0,0,0,81,false,stim,false,2,590,1,0,1,64709,task2,1090014,false,false,1300,image-keyboard-response,2
true,12,1,1,0,false,q,false,false,0.0-2.0-0.41-0.373-3.373,0,0,0,90,false,stim,true,1,937,1,0,0,64709,task2,1092466,false,false,1303,image-keyboard-response,3
true,12,2,1,2,true,d,false,true,0.0-2.0-0.41-0.374-3.374,0,0,0,68,false,stim,false,0,574,1,0,2,64709,task2,1094546,false,false,1306,image-keyboard-response,4
true,12,2,1,2,true,d,false,true,0.0-2.0-0.41-0.375-3.375,0,0,0,68,false,stim,false,0,747,1,0,2,64709,task2,1096806,false,false,1309,image-keyboard-response,5
true,12,2,1,2,true,d,false,false,0.0-2.0-0.41-0.376-3.376,0,0,0,68,false,stim,false,0,478,1,0,2,64709,task2,1098792,false,true,1312,image-keyboard-response,6
true,12,2,1,0,false,q,false,false,0.0-2.0-0.41-0.377-3.377,0,0,0,68,false,stim,true,2,750,1,0,1,64709,task2,1101052,false,false,1315,image-keyboard-response,7
true,12,1,1,2,false,d,true,false,0.0-2.0-0.42-0.378-3.378,0,0,0,90,false,stim,false,0,1422,1,0,2,64709,task2,1103983,false,false,1318,image-keyboard-response,8
true,12,0,1,0,true,q,false,true,0.0-2.0-0.42-0.379-3.379,0,0,0,81,false,stim,false,1,345,1,0,0,64709,task2,1105833,false,false,1321,image-keyboard-response,9
true,12,0,1,0,true,q,false,true,0.0-2.0-0.42-0.380-3.380,0,0,0,81,false,stim,false,1,951,1,0,0,64709,task2,1108290,false,false,1324,image-keyboard-response,10
true,12,1,1,0,false,q,true,false,0.0-2.0-0.42-0.381-3.381,0,0,0,90,false,stim,false,2,1033,1,0,1,64709,task2,1110832,false,false,1327,image-keyboard-response,11
true,12,2,1,2,true,d,false,true,0.0-2.0-0.42-0.382-3.382,0,0,0,68,false,stim,false,0,802,1,0,2,64709,task2,1113146,false,false,1330,image-keyboard-response,12
true,12,1,1,0,false,q,true,false,0.0-2.0-0.42-0.383-3.383,0,0,0,90,false,stim,false,2,857,1,0,1,64709,task2,1115511,false,false,1333,image-keyboard-response,13
true,12,2,1,2,true,d,false,true,0.0-2.0-0.42-0.384-3.384,0,0,0,68,false,stim,false,0,981,1,0,2,64709,task2,1118002,false,false,1336,image-keyboard-response,14
true,12,0,1,0,true,q,false,false,0.0-2.0-0.42-0.385-3.385,0,0,0,81,false,stim,false,2,593,1,0,1,64709,task2,1120099,false,true,1339,image-keyboard-response,15
true,12,1,1,0,false,q,false,false,0.0-2.0-0.42-0.386-3.386,0,0,0,90,false,stim,true,1,974,1,0,0,64709,task2,1122582,false,false,1342,image-keyboard-response,16
true,12,2,1,0,false,q,false,false,0.0-2.0-0.43-0.387-3.387,0,0,0,68,false,stim,true,2,580,1,0,1,64709,task2,1124669,false,false,1345,image-keyboard-response,17
true,12,1,1,0,false,q,false,false,0.0-2.0-0.43-0.388-3.388,0,0,0,90,false,stim,true,1,1107,1,0,0,64709,task2,1127284,false,false,1348,image-keyboard-response,18
true,12,0,1,0,true,q,false,true,0.0-2.0-0.43-0.389-3.389,0,0,0,81,false,stim,false,2,936,1,0,1,64709,task2,1129727,false,false,1351,image-keyboard-response,19
true,12,1,1,2,false,d,true,false,0.0-2.0-0.43-0.390-3.390,0,0,0,90,false,stim,false,0,1019,1,0,2,64709,task2,1132258,false,false,1354,image-keyboard-response,20
true,12,0,1,0,true,q,false,true,0.0-2.0-0.43-0.391-3.391,0,0,0,81,false,stim,false,2,645,1,0,1,64709,task2,1134414,false,false,1357,image-keyboard-response,21
true,12,1,1,0,false,q,false,false,0.0-2.0-0.43-0.392-3.392,0,0,0,90,false,stim,true,1,747,1,0,0,64709,task2,1136673,false,false,1360,image-keyboard-response,22
true,12,2,1,0,false,q,true,false,0.0-2.0-0.43-0.393-3.393,0,0,0,68,false,stim,false,1,900,1,0,0,64709,task2,1139085,false,false,1363,image-keyboard-response,23
true,12,1,1,2,false,d,true,false,0.0-2.0-0.43-0.394-3.394,0,0,0,90,false,stim,false,0,1005,1,0,2,64709,task2,1141599,false,false,1366,image-keyboard-response,24
true,12,0,1,2,false,d,false,false,0.0-2.0-0.43-0.395-3.395,0,0,0,81,false,stim,true,0,832,1,0,2,64709,task2,1143943,false,false,1369,image-keyboard-response,25
true,12,1,1,0,false,q,false,true,0.0-2.0-0.44-0.396-3.396,0,0,0,90,false,stim,true,1,966,1,0,0,64709,task2,1146421,false,true,1372,image-keyboard-response,26
true,12,2,1,2,true,d,false,true,0.0-2.0-0.44-0.397-3.397,0,0,0,68,false,stim,false,0,880,1,0,2,64709,task2,1148812,false,false,1375,image-keyboard-response,27
true,12,0,1,0,true,q,false,true,0.0-2.0-0.44-0.398-3.398,0,0,0,81,false,stim,false,1,1124,1,0,0,64709,task2,1151444,false,false,1378,image-keyboard-response,28
true,12,1,1,0,false,q,true,false,0.0-2.0-0.44-0.399-3.399,0,0,0,90,false,stim,false,2,983,1,0,1,64709,task2,1153935,false,false,1381,image-keyboard-response,29
true,12,2,1,0,false,q,false,false,0.0-2.0-0.44-0.400-3.400,0,0,0,68,false,stim,true,2,680,1,0,1,64709,task2,1156126,false,false,1384,image-keyboard-response,30
true,12,0,1,0,true,q,false,true,0.0-2.0-0.44-0.401-3.401,0,0,0,81,false,stim,false,2,762,1,0,1,64709,task2,1158395,false,false,1387,image-keyboard-response,31
true,12,1,1,2,false,d,true,false,0.0-2.0-0.44-0.402-3.402,0,0,0,90,false,stim,false,0,1144,1,1,2,64709,task2,1161048,false,false,1390,image-keyboard-response,32
true,12,0,1,0,true,q,false,true,0.0-2.0-0.44-0.403-3.403,0,0,0,81,false,stim,false,1,814,1,0,0,64709,task2,1163368,false,false,1393,image-keyboard-response,33
true,12,0,1,2,false,d,false,false,0.0-2.0-0.44-0.404-3.404,0,0,0,81,false,stim,true,0,976,1,1,2,64709,task2,1165851,false,false,1396,image-keyboard-response,34
true,13,1,2,1,true,z,false,true,0.0-2.0-0.45-0.405-3.405,0,0,1,90,true,stim,false,0,903,1,0,1,64709,task2,1168257,false,false,1399,image-keyboard-response,1
true,13,2,2,2,true,d,false,true,0.0-2.0-0.45-0.406-3.406,0,0,1,68,false,stim,false,2,984,1,1,2,64709,task2,1170754,false,false,1402,image-keyboard-response,2
true,13,1,2,2,false,d,true,false,0.0-2.0-0.45-0.407-3.407,0,0,1,90,false,stim,false,0,1036,1,0,0,64709,task2,1173300,false,false,1405,image-keyboard-response,3
true,13,0,2,2,false,d,false,false,0.0-2.0-0.45-0.408-3.408,0,0,1,81,false,stim,true,0,521,1,0,0,64709,task2,1175330,false,false,1408,image-keyboard-response,4
true,13,1,2,2,false,d,true,false,0.0-2.0-0.45-0.409-3.409,0,0,1,90,false,stim,false,2,943,1,1,2,64709,task2,1177782,false,false,1411,image-keyboard-response,5
true,13,2,2,1,false,z,true,false,0.0-2.0-0.45-0.410-3.410,0,0,1,68,false,stim,false,0,839,1,0,1,64709,task2,1180129,false,false,1414,image-keyboard-response,6
true,13,0,2,2,false,d,true,false,0.0-2.0-0.45-0.411-3.411,0,0,1,81,false,stim,false,2,894,1,1,2,64709,task2,1182527,false,false,1417,image-keyboard-response,7
true,13,1,2,2,false,d,true,false,0.0-2.0-0.45-0.412-3.412,0,0,1,90,false,stim,false,0,1075,1,0,0,64709,task2,1185113,false,false,1420,image-keyboard-response,8
true,13,0,2,1,false,z,false,false,0.0-2.0-0.45-0.413-3.413,0,0,1,81,false,stim,true,0,438,1,0,1,64709,task2,1187063,false,false,1423,image-keyboard-response,9
true,13,2,2,2,true,d,false,false,0.0-2.0-0.46-0.414-3.414,0,0,1,68,false,stim,false,0,599,1,0,0,64709,task2,1189171,false,true,1426,image-keyboard-response,10
true,13,0,2,2,false,d,true,false,0.0-2.0-0.46-0.415-3.415,0,0,1,81,false,stim,false,2,895,1,1,2,64709,task2,1191571,false,false,1429,image-keyboard-response,11
true,13,1,2,1,true,z,false,true,0.0-2.0-0.46-0.416-3.416,0,0,1,90,false,stim,false,0,956,1,0,1,64709,task2,1194036,false,false,1432,image-keyboard-response,12
true,13,0,2,2,false,d,true,false,0.0-2.0-0.46-0.417-3.417,0,0,1,81,false,stim,false,2,660,1,1,2,64709,task2,1196202,false,false,1435,image-keyboard-response,13
true,13,1,2,1,true,z,false,true,0.0-2.0-0.46-0.418-3.418,0,0,1,90,false,stim,false,0,790,1,0,1,64709,task2,1198500,false,false,1438,image-keyboard-response,14
true,13,2,2,2,true,d,false,false,0.0-2.0-0.46-0.419-3.419,0,0,1,68,false,stim,false,2,519,1,1,2,64709,task2,1200530,false,true,1441,image-keyboard-response,15
true,13,1,2,1,true,z,false,true,0.0-2.0-0.46-0.420-3.420,0,0,1,90,false,stim,false,0,1195,1,0,1,64709,task2,1203234,false,false,1444,image-keyboard-response,16
true,13,0,2,2,false,d,false,false,0.0-2.0-0.46-0.421-3.421,0,0,1,81,false,stim,true,0,825,1,0,0,64709,task2,1205570,false,false,1447,image-keyboard-response,17
true,13,2,2,2,true,d,false,true,0.0-2.0-0.46-0.422-3.422,0,0,1,68,false,stim,false,0,1018,1,0,0,64709,task2,1208096,false,false,1450,image-keyboard-response,18
true,13,2,2,2,true,d,false,true,0.0-2.0-0.47-0.423-3.423,0,0,1,68,false,stim,false,0,574,1,0,0,64709,task2,1210181,false,false,1453,image-keyboard-response,19
true,13,2,2,2,true,d,false,true,0.0-2.0-0.47-0.424-3.424,0,0,1,68,false,stim,false,0,461,1,0,0,64709,task2,1212154,false,false,1456,image-keyboard-response,20
true,13,1,2,1,true,z,false,true,0.0-2.0-0.47-0.425-3.425,0,0,1,90,false,stim,false,0,1059,1,0,1,64709,task2,1214724,false,false,1459,image-keyboard-response,21
true,13,2,2,2,true,d,false,true,0.0-2.0-0.47-0.426-3.426,0,0,1,68,false,stim,false,0,1347,1,0,0,64709,task2,1217580,false,false,1462,image-keyboard-response,22
true,13,2,2,1,false,z,true,false,0.0-2.0-0.47-0.427-3.427,0,0,1,68,false,stim,false,0,894,1,0,1,64709,task2,1219989,false,false,1465,image-keyboard-response,23
true,13,0,2,2,false,d,true,false,0.0-2.0-0.47-0.428-3.428,0,0,1,81,false,stim,false,2,1177,1,1,2,64709,task2,1222676,false,false,1468,image-keyboard-response,24
true,13,2,2,1,false,z,true,false,0.0-2.0-0.47-0.429-3.429,0,0,1,68,false,stim,false,0,1064,1,0,1,64709,task2,1225247,false,false,1471,image-keyboard-response,25
true,13,2,2,2,true,d,false,true,0.0-2.0-0.47-0.430-3.430,0,0,1,68,false,stim,false,2,962,1,1,2,64709,task2,1227720,false,false,1474,image-keyboard-response,26
true,13,2,2,2,true,d,false,true,0.0-2.0-0.47-0.431-3.431,0,0,1,68,false,stim,false,2,673,1,1,2,64709,task2,1229904,false,false,1477,image-keyboard-response,27
true,13,0,2,2,false,d,false,false,0.0-2.0-0.48-0.432-3.432,0,0,1,81,false,stim,true,0,1304,1,0,0,64709,task2,1232720,false,false,1480,image-keyboard-response,28
true,13,1,2,1,true,z,false,true,0.0-2.0-0.48-0.433-3.433,0,0,1,90,false,stim,false,0,882,1,0,1,64709,task2,1235111,false,false,1483,image-keyboard-response,29
true,13,0,2,1,false,z,false,false,0.0-2.0-0.48-0.434-3.434,0,0,1,81,false,stim,true,0,889,1,0,1,64709,task2,1237512,false,false,1486,image-keyboard-response,30
true,13,2,2,2,true,d,false,true,0.0-2.0-0.48-0.435-3.435,0,0,1,68,false,stim,false,2,445,1,1,2,64709,task2,1239467,false,false,1489,image-keyboard-response,31
true,13,1,2,2,false,d,true,false,0.0-2.0-0.48-0.436-3.436,0,0,1,90,false,stim,false,0,1265,1,0,0,64709,task2,1242237,false,false,1492,image-keyboard-response,32
true,14,2,2,2,true,d,false,true,0.0-2.0-0.48-0.437-3.437,0,0,1,68,true,stim,false,2,948,1,1,2,64709,task2,1244693,false,false,1495,image-keyboard-response,1
true,14,0,2,0,true,q,false,true,0.0-2.0-0.48-0.438-3.438,0,0,1,81,false,stim,false,2,415,1,0,0,64709,task2,1246619,false,false,1498,image-keyboard-response,2
true,14,2,2,2,true,d,false,true,0.0-2.0-0.48-0.439-3.439,0,0,1,68,false,stim,false,2,1086,1,1,2,64709,task2,1249221,false,false,1501,image-keyboard-response,3
true,14,1,2,2,false,d,false,false,0.0-2.0-0.48-0.440-3.440,0,0,1,90,false,stim,true,1,756,1,0,1,64709,task2,1251481,false,false,1504,image-keyboard-response,4
true,14,2,2,2,true,d,false,true,0.0-2.0-0.49-0.441-3.441,0,0,1,68,false,stim,false,2,369,1,1,2,64709,task2,1253362,false,false,1507,image-keyboard-response,5
true,14,2,2,2,true,d,false,true,0.0-2.0-0.49-0.442-3.442,0,0,1,68,false,stim,false,2,875,1,1,2,64709,task2,1255746,false,false,1510,image-keyboard-response,6
true,14,0,2,2,false,d,true,false,0.0-2.0-0.49-0.443-3.443,0,0,1,81,false,stim,false,2,457,1,1,2,64709,task2,1257710,false,false,1513,image-keyboard-response,7
true,14,2,2,2,true,d,false,true,0.0-2.0-0.49-0.444-3.444,0,0,1,68,false,stim,false,1,632,1,0,1,64709,task2,1259848,false,false,1516,image-keyboard-response,8
true,14,1,2,0,false,q,true,false,0.0-2.0-0.49-0.445-3.445,0,0,1,90,false,stim,false,2,909,1,0,0,64709,task2,1262264,false,false,1519,image-keyboard-response,9
true,14,2,2,0,false,q,false,true,0.0-2.0-0.49-0.446-3.446,0,0,1,68,false,stim,true,2,1151,1,0,0,64709,task2,1264928,false,true,1522,image-keyboard-response,10
true,14,0,2,2,false,d,true,false,0.0-2.0-0.49-0.447-3.447,0,0,1,81,false,stim,false,1,815,1,0,1,64709,task2,1267250,false,false,1525,image-keyboard-response,11
true,14,2,2,0,false,q,false,false,0.0-2.0-0.49-0.448-3.448,0,0,1,68,false,stim,true,2,1180,1,0,0,64709,task2,1269940,false,false,1528,image-keyboard-response,12
true,14,2,2,2,true,d,false,true,0.0-2.0-0.49-0.449-3.449,0,0,1,68,false,stim,false,1,752,1,0,1,64709,task2,1272200,false,false,1531,image-keyboard-response,13
true,14,2,2,2,true,d,false,true,0.0-2.0-0.50-0.450-3.450,0,0,1,68,false,stim,false,1,1060,1,0,1,64709,task2,1274768,false,false,1534,image-keyboard-response,14
true,14,2,2,0,false,q,false,false,0.0-2.0-0.50-0.451-3.451,0,0,1,68,false,stim,true,2,528,1,0,0,64709,task2,1276806,false,false,1537,image-keyboard-response,15
true,14,1,2,2,false,d,false,false,0.0-2.0-0.50-0.452-3.452,0,0,1,90,false,stim,true,1,1210,1,0,1,64709,task2,1279528,false,false,1540,image-keyboard-response,16
true,14,2,2,0,false,q,false,false,0.0-2.0-0.50-0.453-3.453,0,0,1,68,false,stim,true,2,604,1,0,0,64709,task2,1281641,false,false,1543,image-keyboard-response,17
true,14,2,2,2,true,d,false,true,0.0-2.0-0.50-0.454-3.454,0,0,1,68,false,stim,false,2,785,1,1,2,64709,task2,1283932,false,false,1546,image-keyboard-response,18
true,14,0,2,0,true,q,false,true,0.0-2.0-0.50-0.455-3.455,0,0,1,81,false,stim,false,2,869,1,0,0,64709,task2,1286311,false,false,1549,image-keyboard-response,19
true,14,2,2,2,true,d,false,true,0.0-2.0-0.50-0.456-3.456,0,0,1,68,false,stim,false,2,771,1,1,2,64709,task2,1288592,false,false,1552,image-keyboard-response,20
true,14,1,2,2,false,d,false,false,0.0-2.0-0.50-0.457-3.457,0,0,1,90,false,stim,true,1,812,1,0,1,64709,task2,1290911,false,false,1555,image-keyboard-response,21
true,14,2,2,2,true,d,false,true,0.0-2.0-0.50-0.458-3.458,0,0,1,68,false,stim,false,2,506,1,1,2,64709,task2,1292926,false,false,1558,image-keyboard-response,22
true,14,0,2,0,true,q,false,true,0.0-2.0-0.51-0.459-3.459,0,0,1,81,false,stim,false,2,437,1,0,0,64709,task2,1294872,false,false,1561,image-keyboard-response,23
true,14,0,2,2,false,d,true,false,0.0-2.0-0.51-0.460-3.460,0,0,1,81,false,stim,false,1,513,1,0,1,64709,task2,1296892,false,false,1564,image-keyboard-response,24
true,14,2,2,2,true,d,false,true,0.0-2.0-0.51-0.461-3.461,0,0,1,68,false,stim,false,1,661,1,0,1,64709,task2,1299066,false,false,1567,image-keyboard-response,25
true,14,2,2,2,true,d,false,true,0.0-2.0-0.51-0.462-3.462,0,0,1,68,false,stim,false,2,754,1,1,2,64709,task2,1301331,false,false,1570,image-keyboard-response,26
true,14,2,2,2,true,d,false,true,0.0-2.0-0.51-0.463-3.463,0,0,1,68,false,stim,false,1,632,1,0,1,64709,task2,1303473,false,false,1573,image-keyboard-response,27
true,14,2,2,2,true,d,false,true,0.0-2.0-0.51-0.464-3.464,0,0,1,68,false,stim,false,2,493,1,0,2,64709,task2,1305475,false,false,1576,image-keyboard-response,28
true,14,1,2,0,false,q,true,false,0.0-2.0-0.51-0.465-3.465,0,0,1,90,false,stim,false,2,1156,1,0,0,64709,task2,1308145,false,false,1579,image-keyboard-response,29
true,14,2,2,2,true,d,false,true,0.0-2.0-0.51-0.466-3.466,0,0,1,68,false,stim,false,2,599,1,0,2,64709,task2,1310249,false,false,1582,image-keyboard-response,30
true,14,0,2,0,true,q,false,true,0.0-2.0-0.51-0.467-3.467,0,0,1,81,false,stim,false,2,990,1,0,0,64709,task2,1312744,false,false,1585,image-keyboard-response,31
true,14,2,2,0,false,q,false,false,0.0-2.0-0.52-0.468-3.468,0,0,1,68,false,stim,true,2,638,1,0,0,64709,task2,1314892,false,false,1588,image-keyboard-response,32
true,15,2,1,0,false,q,false,false,0.0-2.0-0.52-0.469-3.469,0,0,0,68,true,stim,true,2,649,1,0,2,64709,task2,1317051,false,false,1591,image-keyboard-response,1
true,15,0,1,1,false,z,false,false,0.0-2.0-0.52-0.470-3.470,0,0,0,81,false,stim,true,0,860,1,0,0,64709,task2,1319424,false,false,1594,image-keyboard-response,2
true,15,1,1,0,false,q,true,true,0.0-2.0-0.52-0.471-3.471,0,0,0,90,false,stim,false,2,1059,1,0,2,64709,task2,1321996,false,true,1597,image-keyboard-response,3
true,15,1,1,0,false,q,true,false,0.0-2.0-0.52-0.472-3.472,0,0,0,90,false,stim,false,2,1144,1,0,1,64709,task2,1324651,false,false,1600,image-keyboard-response,4
true,15,2,1,0,false,q,false,false,0.0-2.0-0.52-0.473-3.473,0,0,0,68,false,stim,true,2,1125,1,0,1,64709,task2,1327294,false,false,1603,image-keyboard-response,5
true,15,0,1,0,true,q,false,true,0.0-2.0-0.52-0.474-3.474,0,0,0,81,false,stim,false,2,664,1,0,1,64709,task2,1329463,false,false,1606,image-keyboard-response,6
true,15,1,1,0,false,q,true,false,0.0-2.0-0.52-0.475-3.475,0,0,0,90,false,stim,false,2,1006,1,0,2,64709,task2,1331977,false,false,1609,image-keyboard-response,7
true,15,2,1,1,false,z,true,false,0.0-2.0-0.52-0.476-3.476,0,0,0,68,false,stim,false,0,906,1,0,0,64709,task2,1334395,false,false,1612,image-keyboard-response,8
true,15,1,1,0,false,q,true,false,0.0-2.0-0.53-0.477-3.477,0,0,0,90,false,stim,false,2,793,1,0,1,64709,task2,1336700,false,false,1615,image-keyboard-response,9
true,15,0,1,0,true,q,false,true,0.0-2.0-0.53-0.478-3.478,0,0,0,81,false,stim,false,2,544,1,0,2,64709,task2,1338751,false,false,1618,image-keyboard-response,10
true,15,2,1,1,false,z,true,false,0.0-2.0-0.53-0.479-3.479,0,0,0,68,false,stim,false,0,969,1,0,0,64709,task2,1341227,false,false,1621,image-keyboard-response,11
true,15,0,1,0,true,q,false,true,0.0-2.0-0.53-0.480-3.480,0,0,0,81,false,stim,false,2,721,1,0,2,64709,task2,1343462,false,false,1624,image-keyboard-response,12
true,15,1,1,0,false,q,true,false,0.0-2.0-0.53-0.481-3.481,0,0,0,90,false,stim,false,2,1081,1,0,1,64709,task2,1346054,false,false,1627,image-keyboard-response,13
true,15,2,1,1,false,z,true,false,0.0-2.0-0.53-0.482-3.482,0,0,0,68,false,stim,false,0,870,1,0,0,64709,task2,1348435,false,false,1630,image-keyboard-response,14
true,15,0,1,0,true,q,false,true,0.0-2.0-0.53-0.483-3.483,0,0,0,81,false,stim,false,2,625,1,0,2,64709,task2,1350567,false,false,1633,image-keyboard-response,15
true,15,0,1,1,false,z,false,false,0.0-2.0-0.53-0.484-3.484,0,0,0,81,false,stim,true,0,1230,1,0,0,64709,task2,1353306,false,false,1636,image-keyboard-response,16
true,15,0,1,0,true,q,false,true,0.0-2.0-0.53-0.485-3.485,0,0,0,81,false,stim,false,2,469,1,0,1,64709,task2,1355282,false,false,1639,image-keyboard-response,17
true,15,2,1,1,false,z,true,false,0.0-2.0-0.54-0.486-3.486,0,0,0,68,false,stim,false,0,1259,1,0,0,64709,task2,1358051,false,false,1642,image-keyboard-response,18
true,15,1,1,1,true,z,false,true,0.0-2.0-0.54-0.487-3.487,0,0,0,90,false,stim,false,0,1165,1,0,0,64709,task2,1360724,false,false,1645,image-keyboard-response,19
true,15,0,1,0,true,q,false,true,0.0-2.0-0.54-0.488-3.488,0,0,0,81,false,stim,false,2,1150,1,0,2,64709,task2,1363380,false,false,1648,image-keyboard-response,20
true,15,0,1,0,true,q,false,true,0.0-2.0-0.54-0.489-3.489,0,0,0,81,false,stim,false,2,583,1,0,2,64709,task2,1365473,false,false,1651,image-keyboard-response,21
true,15,2,1,0,false,q,false,false,0.0-2.0-0.54-0.490-3.490,0,0,0,68,false,stim,true,2,1208,1,0,1,64709,task2,1368188,false,false,1654,image-keyboard-response,22
true,15,0,1,0,true,q,false,true,0.0-2.0-0.54-0.491-3.491,0,0,0,81,false,stim,false,2,960,1,0,1,64709,task2,1370656,false,false,1657,image-keyboard-response,23
true,15,0,1,0,true,q,false,true,0.0-2.0-0.54-0.492-3.492,0,0,0,81,false,stim,false,2,843,1,0,2,64709,task2,1373010,false,false,1660,image-keyboard-response,24
true,15,0,1,0,true,q,false,true,0.0-2.0-0.54-0.493-3.493,0,0,0,81,false,stim,false,2,803,1,0,1,64709,task2,1375321,false,false,1663,image-keyboard-response,25
true,15,1,1,1,true,z,false,true,0.0-2.0-0.54-0.494-3.494,0,0,0,90,false,stim,false,0,802,1,0,0,64709,task2,1377635,false,false,1666,image-keyboard-response,26
true,15,0,1,0,true,q,false,true,0.0-2.0-0.55-0.495-3.495,0,0,0,81,false,stim,false,2,581,1,0,2,64709,task2,1379725,false,false,1669,image-keyboard-response,27
true,15,1,1,1,true,z,false,false,0.0-2.0-0.55-0.496-3.496,0,0,0,90,false,stim,false,0,648,1,0,0,64709,task2,1381883,false,true,1672,image-keyboard-response,28
true,15,0,1,0,true,q,false,true,0.0-2.0-0.55-0.497-3.497,0,0,0,81,false,stim,false,2,670,1,0,1,64709,task2,1384063,false,false,1675,image-keyboard-response,29
true,15,0,1,0,true,q,false,true,0.0-2.0-0.55-0.498-3.498,0,0,0,81,false,stim,false,2,596,1,0,2,64709,task2,1386170,false,false,1678,image-keyboard-response,30
true,15,0,1,1,false,z,false,false,0.0-2.0-0.55-0.499-3.499,0,0,0,81,false,stim,true,0,542,1,0,0,64709,task2,1388216,false,false,1681,image-keyboard-response,31
true,15,0,1,0,true,q,false,true,0.0-2.0-0.55-0.500-3.500,0,0,0,81,false,stim,false,2,403,1,0,1,64709,task2,1390127,false,false,1684,image-keyboard-response,32
true,15,0,1,0,true,q,false,true,0.0-2.0-0.55-0.501-3.501,0,0,0,81,false,stim,false,2,568,1,1,2,64709,task2,1392202,false,false,1687,image-keyboard-response,33
true,15,2,1,1,false,z,true,false,0.0-2.0-0.55-0.502-3.502,0,0,0,68,false,stim,false,0,1081,1,1,0,64709,task2,1394795,false,false,1690,image-keyboard-response,34
true,15,0,1,0,true,q,false,true,0.0-2.0-0.55-0.503-3.503,0,0,0,81,false,stim,false,2,776,1,1,1,64709,task2,1397084,false,false,1693,image-keyboard-response,35
true,15,0,1,0,true,q,false,true,0.0-2.0-0.56-0.504-3.504,0,0,0,81,false,stim,false,2,638,1,1,2,64709,task2,1399234,false,false,1696,image-keyboard-response,36
true,15,0,1,0,true,q,false,true,0.0-2.0-0.56-0.505-3.505,0,0,0,81,false,stim,false,2,497,1,1,2,64709,task2,1401239,false,false,1699,image-keyboard-response,37
true,16,0,0,0,true,q,false,false,0.0-2.0-0.56-0.506-3.506,1,1,1,81,true,stim,false,0,1380,1,1,1,64709,task2,1408487,false,true,1707,image-keyboard-response,1
true,16,2,0,0,false,q,true,false,0.0-2.0-0.56-0.507-3.507,1,1,1,68,false,stim,false,0,655,1,1,2,64709,task2,1410650,false,false,1710,image-keyboard-response,2
true,16,1,0,1,true,z,false,true,0.0-2.0-0.56-0.508-3.508,1,1,1,90,false,stim,false,1,394,1,1,0,64709,task2,1412555,false,false,1713,image-keyboard-response,3
true,16,1,0,1,true,z,false,true,0.0-2.0-0.56-0.509-3.509,1,1,1,90,false,stim,false,1,645,1,1,0,64709,task2,1414707,false,false,1716,image-keyboard-response,4
true,16,1,0,1,true,z,false,true,0.0-2.0-0.56-0.510-3.510,1,1,1,90,false,stim,false,1,529,1,1,0,64709,task2,1416747,false,false,1719,image-keyboard-response,5
true,16,0,0,0,true,q,false,true,0.0-2.0-0.56-0.511-3.511,1,1,1,81,false,stim,false,0,674,1,1,1,64709,task2,1418933,false,false,1722,image-keyboard-response,6
true,16,0,0,0,true,q,false,true,0.0-2.0-0.56-0.512-3.512,1,1,1,81,false,stim,false,0,776,1,1,1,64709,task2,1421220,false,false,1725,image-keyboard-response,7
true,16,0,0,0,true,q,false,true,0.0-2.0-0.57-0.513-3.513,1,1,1,81,false,stim,false,0,715,1,1,1,64709,task2,1423442,false,false,1728,image-keyboard-response,8
true,16,1,0,1,true,z,false,true,0.0-2.0-0.57-0.514-3.514,1,1,1,90,false,stim,false,1,764,1,0,0,64709,task2,1425719,false,false,1731,image-keyboard-response,9
true,16,1,0,1,true,z,false,true,0.0-2.0-0.57-0.515-3.515,1,1,1,90,false,stim,false,1,477,1,0,0,64709,task2,1427703,false,false,1734,image-keyboard-response,10
true,16,0,0,0,true,q,false,true,0.0-2.0-0.57-0.516-3.516,1,1,1,81,false,stim,false,0,850,1,1,1,64709,task2,1430064,false,false,1737,image-keyboard-response,11
true,16,1,0,0,false,q,true,false,0.0-2.0-0.57-0.517-3.517,1,1,1,90,false,stim,false,0,874,1,0,2,64709,task2,1432446,false,false,1740,image-keyboard-response,12
true,16,0,0,0,true,q,false,true,0.0-2.0-0.57-0.518-3.518,1,1,1,81,false,stim,false,0,370,1,1,1,64709,task2,1434328,false,false,1743,image-keyboard-response,13
true,17,2,2,2,true,d,false,true,0.0-2.0-0.57-0.519-3.519,0,1,0,68,true,stim,false,0,1713,1,0,2,64709,task2,1437554,false,false,1746,image-keyboard-response,1
true,17,2,2,2,true,d,false,true,0.0-2.0-0.57-0.520-3.520,0,1,0,68,false,stim,false,1,490,1,0,0,64709,task2,1439554,false,false,1749,image-keyboard-response,2
true,17,2,2,2,true,d,false,true,0.0-2.0-0.57-0.521-3.521,0,1,0,68,false,stim,false,0,694,1,0,2,64709,task2,1441760,false,false,1752,image-keyboard-response,3
true,17,2,2,2,true,d,false,true,0.0-2.0-0.58-0.522-3.522,0,1,0,68,false,stim,false,1,531,1,0,0,64709,task2,1443801,false,false,1755,image-keyboard-response,4
true,17,1,2,0,false,q,true,false,0.0-2.0-0.58-0.523-3.523,0,1,0,90,false,stim,false,0,1038,1,1,1,64709,task2,1446352,false,false,1758,image-keyboard-response,5
true,17,2,2,0,false,q,true,true,0.0-2.0-0.58-0.524-3.524,0,1,0,68,false,stim,false,0,534,1,1,1,64709,task2,1448395,false,true,1761,image-keyboard-response,6
true,17,2,2,2,true,d,false,true,0.0-2.0-0.58-0.525-3.525,0,1,0,68,false,stim,false,0,580,1,0,2,64709,task2,1450484,false,false,1764,image-keyboard-response,7
true,17,0,2,0,true,q,false,true,0.0-2.0-0.58-0.526-3.526,0,1,0,81,false,stim,false,0,936,1,1,1,64709,task2,1452927,false,false,1767,image-keyboard-response,8
true,17,0,2,2,false,d,false,false,0.0-2.0-0.58-0.527-3.527,0,1,0,81,false,stim,true,0,616,1,0,2,64709,task2,1455053,false,false,1770,image-keyboard-response,9
true,17,0,2,2,false,d,true,false,0.0-2.0-0.58-0.528-3.528,0,1,0,81,false,stim,false,1,478,1,0,0,64709,task2,1457043,false,false,1773,image-keyboard-response,10
true,17,2,2,2,true,d,false,true,0.0-2.0-0.58-0.529-3.529,0,1,0,68,false,stim,false,0,480,1,0,2,64709,task2,1459033,false,false,1776,image-keyboard-response,11
true,17,2,2,2,true,d,false,true,0.0-2.0-0.58-0.530-3.530,0,1,0,68,false,stim,false,1,560,1,0,0,64709,task2,1461106,false,false,1779,image-keyboard-response,12
true,17,0,2,2,false,d,false,false,0.0-2.0-0.59-0.531-3.531,0,1,0,81,false,stim,true,0,1186,1,0,2,64709,task2,1463803,false,false,1782,image-keyboard-response,13
true,17,2,2,2,true,d,false,true,0.0-2.0-0.59-0.532-3.532,0,1,0,68,false,stim,false,1,1194,1,0,0,64709,task2,1466507,false,false,1785,image-keyboard-response,14
true,17,1,2,0,false,q,true,false,0.0-2.0-0.59-0.533-3.533,0,1,0,90,false,stim,false,0,650,1,1,1,64709,task2,1468667,false,false,1788,image-keyboard-response,15
true,17,0,2,0,true,q,false,true,0.0-2.0-0.59-0.534-3.534,0,1,0,81,false,stim,false,0,532,1,1,1,64709,task2,1470708,false,false,1791,image-keyboard-response,16
true,17,1,2,2,false,d,true,false,0.0-2.0-0.59-0.535-3.535,0,1,0,90,false,stim,false,0,1084,1,0,2,64709,task2,1473303,false,false,1794,image-keyboard-response,17
true,17,2,2,2,true,d,false,true,0.0-2.0-0.59-0.536-3.536,0,1,0,68,false,stim,false,0,1181,1,0,2,64709,task2,1475995,false,false,1797,image-keyboard-response,18
true,17,1,2,2,false,d,false,false,0.0-2.0-0.59-0.537-3.537,0,1,0,90,false,stim,true,1,941,1,0,0,64709,task2,1478445,false,false,1800,image-keyboard-response,19
true,17,2,2,0,false,q,true,false,0.0-2.0-0.59-0.538-3.538,0,1,0,68,false,stim,false,0,767,1,1,1,64709,task2,1480734,false,false,1803,image-keyboard-response,20
true,17,1,2,2,false,d,false,true,0.0-2.0-0.59-0.539-3.539,0,1,0,90,false,stim,true,1,858,1,0,0,64709,task2,1483101,false,true,1806,image-keyboard-response,21
true,17,0,2,0,true,q,false,true,0.0-2.0-0.60-0.540-3.540,0,1,0,81,false,stim,false,0,433,1,1,1,64709,task2,1485045,false,false,1809,image-keyboard-response,22
true,17,1,2,2,false,d,true,false,0.0-2.0-0.60-0.541-3.541,0,1,0,90,false,stim,false,0,1133,1,0,2,64709,task2,1487691,false,false,1812,image-keyboard-response,23
true,17,2,2,2,true,d,false,true,0.0-2.0-0.60-0.542-3.542,0,1,0,68,false,stim,false,0,632,1,0,2,64709,task2,1489831,false,false,1815,image-keyboard-response,24
true,17,0,2,0,true,q,false,true,0.0-2.0-0.60-0.543-3.543,0,1,0,81,false,stim,false,0,412,1,1,1,64709,task2,1491753,false,false,1818,image-keyboard-response,25
true,17,2,2,2,true,d,false,true,0.0-2.0-0.60-0.544-3.544,0,1,0,68,false,stim,false,0,447,1,0,2,64709,task2,1493710,false,false,1821,image-keyboard-response,26
true,17,1,2,2,false,d,false,false,0.0-2.0-0.60-0.545-3.545,0,1,0,90,false,stim,true,1,1097,1,0,0,64709,task2,1496313,false,false,1824,image-keyboard-response,27
true,17,2,2,2,true,d,false,true,0.0-2.0-0.60-0.546-3.546,0,1,0,68,false,stim,false,1,398,1,0,0,64709,task2,1498216,false,false,1827,image-keyboard-response,28
true,17,2,2,0,false,q,true,false,0.0-2.0-0.60-0.547-3.547,0,1,0,68,false,stim,false,0,599,1,1,1,64709,task2,1500327,false,false,1830,image-keyboard-response,29
true,17,0,2,2,false,d,true,false,0.0-2.0-0.60-0.548-3.548,0,1,0,81,false,stim,false,1,614,1,0,0,64709,task2,1502446,false,false,1833,image-keyboard-response,30
true,17,2,2,2,true,d,false,true,0.0-2.0-0.61-0.549-3.549,0,1,0,68,false,stim,false,1,626,1,0,0,64709,task2,1504585,false,false,1836,image-keyboard-response,31
true,17,0,2,2,false,d,false,false,0.0-2.0-0.61-0.550-3.550,0,1,0,81,false,stim,true,0,1702,1,0,2,64709,task2,1507798,false,false,1839,image-keyboard-response,32
true,17,2,2,2,true,d,false,true,0.0-2.0-0.61-0.551-3.551,0,1,0,68,false,stim,false,1,423,1,0,0,64709,task2,1509730,false,false,1842,image-keyboard-response,33
true,18,2,2,1,false,z,false,false,0.0-2.0-0.61-0.552-3.552,0,1,0,68,true,stim,true,2,464,1,0,2,64709,task2,1511702,false,false,1845,image-keyboard-response,1
true,18,0,2,0,true,q,false,true,0.0-2.0-0.61-0.553-3.553,0,1,0,81,false,stim,false,0,950,1,1,1,64709,task2,1514161,false,false,1848,image-keyboard-response,2
true,18,0,2,0,true,q,false,false,0.0-2.0-0.61-0.554-3.554,0,1,0,81,false,stim,false,0,796,1,1,1,64709,task2,1516465,false,true,1851,image-keyboard-response,3
true,18,0,2,1,false,z,true,false,0.0-2.0-0.61-0.555-3.555,0,1,0,81,false,stim,false,2,734,1,0,2,64709,task2,1518708,false,false,1854,image-keyboard-response,4
true,18,2,2,0,false,q,true,false,0.0-2.0-0.61-0.556-3.556,0,1,0,68,false,stim,false,0,427,1,1,1,64709,task2,1520644,false,false,1857,image-keyboard-response,5
true,18,2,2,1,false,z,false,false,0.0-2.0-0.61-0.557-3.557,0,1,0,68,false,stim,true,2,926,1,0,0,64709,task2,1523079,false,false,1860,image-keyboard-response,6
true,18,1,2,1,true,z,false,true,0.0-2.0-0.62-0.558-3.558,0,1,0,90,false,stim,false,2,974,1,0,0,64709,task2,1525562,false,false,1863,image-keyboard-response,7
true,18,0,2,1,false,z,true,false,0.0-2.0-0.62-0.559-3.559,0,1,0,81,false,stim,false,2,587,1,0,2,64709,task2,1527654,false,false,1866,image-keyboard-response,8
true,18,0,2,0,true,q,false,true,0.0-2.0-0.62-0.560-3.560,0,1,0,81,false,stim,false,0,931,1,1,1,64709,task2,1530090,false,false,1869,image-keyboard-response,9
true,18,0,2,0,true,q,false,true,0.0-2.0-0.62-0.561-3.561,0,1,0,81,false,stim,false,0,581,1,1,1,64709,task2,1532183,false,false,1872,image-keyboard-response,10
true,18,2,2,1,false,z,false,false,0.0-2.0-0.62-0.562-3.562,0,1,0,68,false,stim,true,2,706,1,0,2,64709,task2,1534399,false,false,1875,image-keyboard-response,11
true,18,1,2,1,true,z,false,true,0.0-2.0-0.62-0.563-3.563,0,1,0,90,false,stim,false,2,962,1,0,2,64709,task2,1536870,false,false,1878,image-keyboard-response,12
true,18,2,2,1,false,z,false,false,0.0-2.0-0.62-0.564-3.564,0,1,0,68,false,stim,true,2,1049,1,0,0,64709,task2,1539429,false,false,1881,image-keyboard-response,13
true,18,0,2,1,false,z,true,false,0.0-2.0-0.62-0.565-3.565,0,1,0,81,false,stim,false,2,489,1,0,0,64709,task2,1541430,false,false,1884,image-keyboard-response,14
true,18,0,2,0,true,q,false,true,0.0-2.0-0.62-0.566-3.566,0,1,0,81,false,stim,false,0,814,1,1,1,64709,task2,1543753,false,false,1887,image-keyboard-response,15
true,18,2,2,1,false,z,false,false,0.0-2.0-0.63-0.567-3.567,0,1,0,68,false,stim,true,2,1264,1,0,0,64709,task2,1546523,false,false,1890,image-keyboard-response,16
true,18,0,2,1,false,z,true,false,0.0-2.0-0.63-0.568-3.568,0,1,0,81,false,stim,false,2,1355,1,0,2,64709,task2,1549387,false,false,1893,image-keyboard-response,17
true,18,0,2,0,true,q,false,true,0.0-2.0-0.63-0.569-3.569,0,1,0,81,false,stim,false,0,958,1,1,1,64709,task2,1551855,false,false,1896,image-keyboard-response,18
true,18,0,2,0,true,q,false,true,0.0-2.0-0.63-0.570-3.570,0,1,0,81,false,stim,false,0,1055,1,1,1,64709,task2,1554418,false,false,1899,image-keyboard-response,19
true,18,1,2,1,true,z,false,false,0.0-2.0-0.63-0.571-3.571,0,1,0,90,false,stim,false,2,772,1,0,2,64709,task2,1556707,false,true,1902,image-keyboard-response,20
true,18,0,2,0,true,q,false,true,0.0-2.0-0.63-0.572-3.572,0,1,0,81,false,stim,false,0,1044,1,1,1,64709,task2,1559261,false,false,1905,image-keyboard-response,21
true,18,2,2,1,false,z,false,false,0.0-2.0-0.63-0.573-3.573,0,1,0,68,false,stim,true,2,838,1,0,2,64709,task2,1561612,false,false,1908,image-keyboard-response,22
true,18,2,2,1,false,z,false,false,0.0-2.0-0.63-0.574-3.574,0,1,0,68,false,stim,true,2,914,1,0,0,64709,task2,1564040,false,false,1911,image-keyboard-response,23
true,18,1,2,1,true,z,false,true,0.0-2.0-0.63-0.575-3.575,0,1,0,90,false,stim,false,2,770,1,0,0,64709,task2,1566321,false,false,1914,image-keyboard-response,24
true,18,1,2,1,true,z,false,true,0.0-2.0-0.64-0.576-3.576,0,1,0,90,false,stim,false,2,730,1,0,0,64709,task2,1568562,false,false,1917,image-keyboard-response,25
true,18,0,2,1,false,z,true,true,0.0-2.0-0.64-0.577-3.577,0,1,0,81,false,stim,false,2,665,1,0,2,64709,task2,1570739,false,true,1920,image-keyboard-response,26
true,18,0,2,1,false,z,true,false,0.0-2.0-0.64-0.578-3.578,0,1,0,81,false,stim,false,2,719,1,0,2,64709,task2,1572972,false,false,1923,image-keyboard-response,27
true,18,2,2,1,false,z,false,false,0.0-2.0-0.64-0.579-3.579,0,1,0,68,false,stim,true,2,1055,1,1,2,64709,task2,1575538,false,false,1926,image-keyboard-response,28
true,18,0,2,0,true,q,false,true,0.0-2.0-0.64-0.580-3.580,0,1,0,81,false,stim,false,0,871,1,0,1,64709,task2,1577920,false,false,1929,image-keyboard-response,29
true,18,0,2,0,true,q,false,true,0.0-2.0-0.64-0.581-3.581,0,1,0,81,false,stim,false,0,496,1,0,1,64709,task2,1579928,false,false,1932,image-keyboard-response,30
true,18,0,2,0,true,q,false,true,0.0-2.0-0.64-0.582-3.582,0,1,0,81,false,stim,false,0,572,1,0,1,64709,task2,1582011,false,false,1935,image-keyboard-response,31
true,18,1,2,1,true,z,false,true,0.0-2.0-0.64-0.583-3.583,0,1,0,90,false,stim,false,2,777,1,0,0,64709,task2,1584298,false,false,1938,image-keyboard-response,32
true,19,1,2,0,false,q,false,false,0.0-2.0-0.64-0.584-3.584,0,0,1,90,true,stim,true,1,544,1,0,0,64709,task2,1586355,false,false,1941,image-keyboard-response,1
true,19,2,2,1,false,z,true,false,0.0-2.0-0.65-0.585-3.585,0,0,1,68,false,stim,false,1,1437,1,1,2,64709,task2,1589301,false,false,1944,image-keyboard-response,2
true,19,0,2,2,false,d,false,false,0.0-2.0-0.65-0.586-3.586,0,0,1,81,false,stim,true,0,793,1,0,1,64709,task2,1591605,false,false,1947,image-keyboard-response,3
true,19,2,2,2,true,d,false,false,0.0-2.0-0.65-0.587-3.587,0,0,1,68,false,stim,false,0,709,1,0,1,64709,task2,1593825,false,true,1950,image-keyboard-response,4
true,19,0,2,1,false,z,true,false,0.0-2.0-0.65-0.588-3.588,0,0,1,81,false,stim,false,1,525,1,1,2,64709,task2,1595863,false,false,1953,image-keyboard-response,5
true,19,1,2,0,false,q,false,false,0.0-2.0-0.65-0.589-3.589,0,0,1,90,false,stim,true,1,1110,1,0,0,64709,task2,1598484,false,false,1956,image-keyboard-response,6
true,19,0,2,0,true,q,false,true,0.0-2.0-0.65-0.590-3.590,0,0,1,81,false,stim,false,1,841,1,0,0,64709,task2,1600837,false,false,1959,image-keyboard-response,7
true,19,2,2,1,false,z,true,false,0.0-2.0-0.65-0.591-3.591,0,0,1,68,false,stim,false,1,599,1,1,2,64709,task2,1602945,false,false,1962,image-keyboard-response,8
true,19,1,2,2,false,d,true,true,0.0-2.0-0.65-0.592-3.592,0,0,1,90,false,stim,false,0,1122,1,0,1,64709,task2,1605578,false,true,1965,image-keyboard-response,9
true,19,0,2,0,true,q,false,true,0.0-2.0-0.65-0.593-3.593,0,0,1,81,false,stim,false,1,573,1,0,0,64709,task2,1607662,false,false,1968,image-keyboard-response,10
true,19,1,2,0,false,q,false,false,0.0-2.0-0.66-0.594-3.594,0,0,1,90,false,stim,true,1,931,1,0,0,64709,task2,1610103,false,false,1971,image-keyboard-response,11
true,19,0,2,2,false,d,false,false,0.0-2.0-0.66-0.595-3.595,0,0,1,81,false,stim,true,0,673,1,0,1,64709,task2,1612287,false,false,1974,image-keyboard-response,12
true,19,0,2,1,false,z,true,false,0.0-2.0-0.66-0.596-3.596,0,0,1,81,false,stim,false,1,901,1,1,2,64709,task2,1614698,false,false,1977,image-keyboard-response,13
true,19,2,2,2,true,d,false,true,0.0-2.0-0.66-0.597-3.597,0,0,1,68,false,stim,false,0,1480,1,0,1,64709,task2,1617692,false,false,1980,image-keyboard-response,14
true,19,0,2,0,true,q,false,true,0.0-2.0-0.66-0.598-3.598,0,0,1,81,false,stim,false,1,929,1,0,0,64709,task2,1620129,false,false,1983,image-keyboard-response,15
true,19,1,2,1,true,z,false,false,0.0-2.0-0.66-0.599-3.599,0,0,1,90,false,stim,false,1,955,1,1,2,64709,task2,1622597,false,true,1986,image-keyboard-response,16
true,19,2,2,1,false,z,true,false,0.0-2.0-0.66-0.600-3.600,0,0,1,68,false,stim,false,1,644,1,1,2,64709,task2,1624750,false,false,1989,image-keyboard-response,17
true,19,0,2,0,true,q,false,true,0.0-2.0-0.66-0.601-3.601,0,0,1,81,false,stim,false,1,649,1,0,0,64709,task2,1626910,false,false,1992,image-keyboard-response,18
true,19,2,2,2,true,d,false,true,0.0-2.0-0.66-0.602-3.602,0,0,1,68,false,stim,false,0,560,1,0,1,64709,task2,1628979,false,false,1995,image-keyboard-response,19
true,19,1,2,1,true,z,false,true,0.0-2.0-0.67-0.603-3.603,0,0,1,90,false,stim,false,1,1021,1,1,2,64709,task2,1631511,false,false,1998,image-keyboard-response,20
true,19,0,2,2,false,d,false,false,0.0-2.0-0.67-0.604-3.604,0,0,1,81,false,stim,true,0,977,1,0,1,64709,task2,1634007,false,false,2001,image-keyboard-response,21
true,19,2,2,2,true,d,false,true,0.0-2.0-0.67-0.605-3.605,0,0,1,68,false,stim,false,0,972,1,0,1,64709,task2,1636487,false,false,2004,image-keyboard-response,22
true,19,0,2,1,false,z,true,false,0.0-2.0-0.67-0.606-3.606,0,0,1,81,false,stim,false,1,895,1,1,2,64709,task2,1638895,false,false,2007,image-keyboard-response,23
true,19,2,2,0,false,q,true,false,0.0-2.0-0.67-0.607-3.607,0,0,1,68,false,stim,false,1,2037,1,0,0,64709,task2,1642441,false,false,2010,image-keyboard-response,24
true,19,0,2,0,true,q,false,true,0.0-2.0-0.67-0.608-3.608,0,0,1,81,false,stim,false,1,457,1,0,0,64709,task2,1644408,false,false,2013,image-keyboard-response,25
true,19,1,2,1,true,z,false,true,0.0-2.0-0.67-0.609-3.609,0,0,1,90,false,stim,false,1,1124,1,1,2,64709,task2,1647040,false,false,2016,image-keyboard-response,26
true,19,2,2,2,true,d,false,true,0.0-2.0-0.67-0.610-3.610,0,0,1,68,false,stim,false,0,485,1,0,1,64709,task2,1649033,false,false,2019,image-keyboard-response,27
true,19,1,2,0,false,q,false,false,0.0-2.0-0.67-0.611-3.611,0,0,1,90,false,stim,true,1,993,1,1,0,64709,task2,1651538,false,false,2022,image-keyboard-response,28
true,19,0,2,1,false,z,true,false,0.0-2.0-0.68-0.612-3.612,0,0,1,81,false,stim,false,1,1055,1,0,2,64709,task2,1654104,false,false,2025,image-keyboard-response,29
true,19,2,2,2,true,d,false,true,0.0-2.0-0.68-0.613-3.613,0,0,1,68,false,stim,false,0,430,1,0,1,64709,task2,1656047,false,false,2028,image-keyboard-response,30
true,19,0,2,0,true,q,false,true,0.0-2.0-0.68-0.614-3.614,0,0,1,81,false,stim,false,1,1013,1,1,0,64709,task2,1658568,false,false,2031,image-keyboard-response,31
true,20,1,2,2,false,d,false,false,0.0-2.0-0.68-0.615-3.615,1,0,0,90,true,stim,true,1,932,1,0,2,64709,task2,1661009,false,false,2034,image-keyboard-response,1
true,20,0,2,0,true,q,false,true,0.0-2.0-0.68-0.616-3.616,1,0,0,81,false,stim,false,0,820,1,1,0,64709,task2,1663341,false,false,2037,image-keyboard-response,2
true,20,0,2,0,true,q,false,false,0.0-2.0-0.68-0.617-3.617,1,0,0,81,false,stim,false,0,772,1,1,0,64709,task2,1665623,false,true,2040,image-keyboard-response,3
true,20,2,2,1,false,z,false,false,0.0-2.0-0.68-0.618-3.618,1,0,0,68,false,stim,true,2,500,1,0,1,64709,task2,1667634,false,false,2043,image-keyboard-response,4
true,20,1,2,1,true,z,false,true,0.0-2.0-0.68-0.619-3.619,1,0,0,90,false,stim,false,2,740,1,0,1,64709,task2,1669885,false,false,2046,image-keyboard-response,5
true,20,2,2,2,true,d,false,false,0.0-2.0-0.68-0.620-3.620,1,0,0,68,false,stim,false,1,1023,1,0,2,64709,task2,1672416,false,true,2049,image-keyboard-response,6
true,20,1,2,1,true,z,false,true,0.0-2.0-0.69-0.621-3.621,1,0,0,90,false,stim,false,2,958,1,0,1,64709,task2,1674886,false,false,2052,image-keyboard-response,7
true,20,1,2,1,true,z,false,true,0.0-2.0-0.69-0.622-3.622,1,0,0,90,false,stim,false,2,1070,1,0,1,64709,task2,1677467,false,false,2055,image-keyboard-response,8
true,20,0,2,2,false,d,true,false,0.0-2.0-0.69-0.623-3.623,1,0,0,81,false,stim,false,1,851,1,0,2,64709,task2,1679830,false,false,2058,image-keyboard-response,9
true,20,2,2,0,false,q,true,false,0.0-2.0-0.69-0.624-3.624,1,0,0,68,false,stim,false,0,1189,1,1,0,64709,task2,1682530,false,false,2061,image-keyboard-response,10
true,20,1,2,2,false,d,false,false,0.0-2.0-0.69-0.625-3.625,1,0,0,90,false,stim,true,1,781,1,0,2,64709,task2,1684822,false,false,2064,image-keyboard-response,11
true,20,1,2,0,false,q,true,false,0.0-2.0-0.69-0.626-3.626,1,0,0,90,false,stim,false,0,821,1,1,0,64709,task2,1687151,false,false,2067,image-keyboard-response,12
true,20,0,2,1,false,z,true,false,0.0-2.0-0.69-0.627-3.627,1,0,0,81,false,stim,false,2,576,1,0,1,64709,task2,1689236,false,false,2070,image-keyboard-response,13
true,20,0,2,2,false,d,true,false,0.0-2.0-0.69-0.628-3.628,1,0,0,81,false,stim,false,1,723,1,0,2,64709,task2,1691470,false,false,2073,image-keyboard-response,14
true,20,2,2,0,false,q,true,false,0.0-2.0-0.69-0.629-3.629,1,0,0,68,false,stim,false,0,360,1,1,0,64709,task2,1693340,false,false,2076,image-keyboard-response,15
true,20,2,2,2,true,d,false,true,0.0-2.0-0.70-0.630-3.630,1,0,0,68,false,stim,false,1,826,1,0,2,64709,task2,1695679,false,false,2079,image-keyboard-response,16
true,20,2,2,2,true,d,false,true,0.0-2.0-0.70-0.631-3.631,1,0,0,68,false,stim,false,1,683,1,0,2,64709,task2,1697868,false,false,2082,image-keyboard-response,17
true,20,1,2,1,true,z,false,true,0.0-2.0-0.70-0.632-3.632,1,0,0,90,false,stim,false,2,1170,1,0,1,64709,task2,1700553,false,false,2085,image-keyboard-response,18
