answered,blockNum,choice,condition,corResp,correct,correct_response,explo,fb,internal_node_id,isStable_1,isStable_2,isStable_3,key_press,newBlock,part,persev,persevResp,rt,sessNum,stableAS,stimulus,subject,task,time_elapsed,training,trap,trial_index,trial_type,trialsInBlock
true,1,2,0,2,true,d,false,true,0.0-2.0-0.0-0.0-3.0,0,0,0,68,true,stim,false,-1,1660.800000011921,2,0,2,65904,task3,170909,false,false,184,image-keyboard-response,1
true,1,0,0,2,false,d,true,false,0.0-2.0-0.0-0.1-3.1,0,0,0,81,false,stim,false,-1,604.0,2,0,0,65904,task3,173032,false,false,187,image-keyboard-response,2
true,1,1,0,0,false,q,true,false,0.0-2.0-0.0-0.2-3.2,0,0,0,90,false,stim,false,-1,683.3000000119209,2,0,1,65904,task3,175231,false,false,190,image-keyboard-response,3
true,1,1,0,2,false,d,true,false,0.0-2.0-0.0-0.3-3.3,0,0,0,90,false,stim,false,-1,625.8000000119209,2,0,0,65904,task3,177381,false,false,193,image-keyboard-response,4
true,1,0,0,0,true,q,false,true,0.0-2.0-0.0-0.4-3.4,0,0,0,81,false,stim,false,-1,445.89999997615814,2,0,1,65904,task3,179359,false,false,196,image-keyboard-response,5
true,1,2,0,2,true,d,false,true,0.0-2.0-0.0-0.5-3.5,0,0,0,68,false,stim,false,-1,1078.5,2,0,0,65904,task3,181973,false,false,199,image-keyboard-response,6
true,1,2,0,2,true,d,false,true,0.0-2.0-0.0-0.6-3.6,0,0,0,68,false,stim,false,-1,394.4000000357628,2,0,2,65904,task3,183882,false,false,202,image-keyboard-response,7
true,1,0,0,0,true,q,false,true,0.0-2.0-0.0-0.7-3.7,0,0,0,81,false,stim,false,-1,517.8000000119209,2,0,1,65904,task3,185908,false,false,205,image-keyboard-response,8
true,1,2,0,2,true,d,false,true,0.0-2.0-0.0-0.8-3.8,0,0,0,68,false,stim,false,-1,498.4000000357628,2,0,2,65904,task3,187925,false,false,208,image-keyboard-response,9
true,1,0,0,0,true,q,false,true,0.0-2.0-0.1-0.9-3.9,0,0,0,81,false,stim,false,-1,529.3999999761581,2,0,1,65904,task3,189962,false,false,211,image-keyboard-response,10
true,1,2,0,2,true,d,false,true,0.0-2.0-0.1-0.10-3.10,0,0,0,68,false,stim,false,-1,559.5,2,0,0,65904,task3,192044,false,false,214,image-keyboard-response,11
true,1,2,0,2,true,d,false,true,0.0-2.0-0.1-0.11-3.11,0,0,0,68,false,stim,false,-1,471.7000000476837,2,0,0,65904,task3,194032,false,false,217,image-keyboard-response,12
true,1,0,0,0,true,q,false,true,0.0-2.0-0.1-0.12-3.12,0,0,0,81,false,stim,false,-1,888.3999999761581,2,0,1,65904,task3,196460,false,false,220,image-keyboard-response,13
true,1,2,0,2,true,d,false,false,0.0-2.0-0.1-0.13-3.13,0,0,0,68,false,stim,false,-1,591.6999999880791,2,0,2,65904,task3,198587,false,true,223,image-keyboard-response,14
true,1,2,0,2,true,d,false,true,0.0-2.0-0.1-0.14-3.14,0,0,0,68,false,stim,false,-1,366.80000001192093,2,0,2,65904,task3,200465,false,false,226,image-keyboard-response,15
true,1,2,0,2,true,d,false,true,0.0-2.0-0.1-0.15-3.15,0,0,0,68,false,stim,false,-1,491.19999998807907,2,0,2,65904,task3,202471,false,false,229,image-keyboard-response,16
true,1,2,0,2,true,d,false,true,0.0-2.0-0.1-0.16-3.16,0,0,0,68,false,stim,false,-1,684.8999999761581,2,0,0,65904,task3,204671,false,false,232,image-keyboard-response,17
true,1,0,0,0,true,q,false,true,0.0-2.0-0.1-0.17-3.17,0,0,0,81,false,stim,false,-1,297.5,2,0,1,65904,task3,206488,false,false,235,image-keyboard-response,18
true,1,2,0,2,true,d,false,true,0.0-2.0-0.2-0.18-3.18,0,0,0,68,false,stim,false,-1,497.7000000476837,2,0,0,65904,task3,208514,false,false,238,image-keyboard-response,19
true,1,0,0,0,true,q,false,true,0.0-2.0-0.2-0.19-3.19,0,0,0,81,false,stim,false,-1,800.1999999880791,2,0,1,65904,task3,210838,false,false,241,image-keyboard-response,20
true,1,0,0,0,true,q,false,true,0.0-2.0-0.2-0.20-3.20,0,0,0,81,false,stim,false,-1,463.39999997615814,2,0,1,65904,task3,212825,false,false,244,image-keyboard-response,21
true,1,2,0,2,true,d,false,true,0.0-2.0-0.2-0.21-3.21,0,0,0,68,false,stim,false,-1,443.4000000357628,2,0,0,65904,task3,214784,false,false,247,image-keyboard-response,22
true,1,2,0,2,true,d,false,true,0.0-2.0-0.2-0.22-3.22,0,0,0,68,false,stim,false,-1,342.5,2,0,2,65904,task3,216650,false,false,250,image-keyboard-response,23
true,1,2,0,2,true,d,false,true,0.0-2.0-0.2-0.23-3.23,0,0,0,68,false,stim,false,-1,804.5,2,1,2,65904,task3,218980,false,false,253,image-keyboard-response,24
true,1,0,0,0,true,q,false,true,0.0-2.0-0.2-0.24-3.24,0,0,0,81,false,stim,false,-1,2269.0,2,0,1,65904,task3,222779,false,false,256,image-keyboard-response,25
true,1,2,0,2,true,d,false,true,0.0-2.0-0.2-0.25-3.25,0,0,0,68,false,stim,false,-1,416.0,2,1,2,65904,task3,224719,false,false,259,image-keyboard-response,26
true,1,2,0,2,true,d,false,false,0.0-2.0-0.2-0.26-3.26,0,0,0,68,false,stim,false,-1,1692.6000000238419,2,0,0,65904,task3,227936,false,true,262,image-keyboard-response,27
true,1,2,0,2,true,d,false,true,0.0-2.0-0.3-0.27-3.27,0,0,0,68,false,stim,false,-1,595.7000000476837,2,1,2,65904,task3,230053,false,false,265,image-keyboard-response,28
true,2,2,1,2,true,d,false,true,0.0-2.0-0.3-0.28-3.28,0,0,1,68,true,stim,false,2,681.3000000119209,2,1,2,65904,task3,232244,false,false,268,image-keyboard-response,1
true,2,0,1,2,false,d,false,false,0.0-2.0-0.3-0.29-3.29,0,0,1,81,false,stim,true,0,484.0,2,0,1,65904,task3,234239,false,false,271,image-keyboard-response,2
true,2,2,1,1,false,z,false,true,0.0-2.0-0.3-0.30-3.30,0,0,1,68,false,stim,true,2,677.8999999761581,2,0,0,65904,task3,236425,false,true,274,image-keyboard-response,3
true,2,2,1,2,true,d,false,true,0.0-2.0-0.3-0.31-3.31,0,0,1,68,false,stim,false,2,527.2000000476837,2,1,2,65904,task3,238469,false,false,277,image-keyboard-response,4
true,2,2,1,1,false,z,false,false,0.0-2.0-0.3-0.32-3.32,0,0,1,68,false,stim,true,2,579.8999999761581,2,0,0,65904,task3,240570,false,false,280,image-keyboard-response,5
true,2,2,1,1,false,z,false,false,0.0-2.0-0.3-0.33-3.33,0,0,1,68,false,stim,true,2,422.19999998807907,2,0,0,65904,task3,242513,false,false,283,image-keyboard-response,6
true,2,0,1,2,false,d,false,false,0.0-2.0-0.3-0.34-3.34,0,0,1,81,false,stim,true,0,580.6999999880791,2,0,1,65904,task3,244608,false,false,286,image-keyboard-response,7
true,2,2,1,2,true,d,false,true,0.0-2.0-0.3-0.35-3.35,0,0,1,68,false,stim,false,0,929.1000000238419,2,0,1,65904,task3,247042,false,false,289,image-keyboard-response,8
true,2,0,1,2,false,d,true,false,0.0-2.0-0.4-0.36-3.36,0,0,1,81,false,stim,false,2,651.5,2,1,2,65904,task3,249236,false,false,292,image-keyboard-response,9
true,2,2,1,2,true,d,false,true,0.0-2.0-0.4-0.37-3.37,0,0,1,68,false,stim,false,0,782.0,2,0,1,65904,task3,251543,false,false,295,image-keyboard-response,10
true,2,1,1,1,true,z,false,true,0.0-2.0-0.4-0.38-3.38,0,0,1,90,false,stim,false,2,531.0,2,0,0,65904,task3,253590,false,false,298,image-keyboard-response,11
true,2,2,1,2,true,d,false,true,0.0-2.0-0.4-0.39-3.39,0,0,1,68,false,stim,false,0,798.3000000119209,2,0,1,65904,task3,255910,false,false,301,image-keyboard-response,12
true,2,2,1,2,true,d,false,true,0.0-2.0-0.4-0.40-3.40,0,0,1,68,false,stim,false,0,477.0,2,0,1,65904,task3,257908,false,false,304,image-keyboard-response,13
true,2,1,1,2,false,d,true,false,0.0-2.0-0.4-0.41-3.41,0,0,1,90,false,stim,false,2,643.0,2,1,2,65904,task3,260066,false,false,307,image-keyboard-response,14
true,2,0,1,2,false,d,true,false,0.0-2.0-0.4-0.42-3.42,0,0,1,81,false,stim,false,2,431.4000000357628,2,1,2,65904,task3,262026,false,false,310,image-keyboard-response,15
true,2,1,1,1,true,z,false,true,0.0-2.0-0.4-0.43-3.43,0,0,1,90,false,stim,false,2,675.6999999880791,2,0,0,65904,task3,264222,false,false,313,image-keyboard-response,16
true,2,1,1,1,true,z,false,true,0.0-2.0-0.4-0.44-3.44,0,0,1,90,false,stim,false,2,576.8999999761581,2,0,0,65904,task3,266329,false,false,316,image-keyboard-response,17
true,2,1,1,1,true,z,false,false,0.0-2.0-0.5-0.45-3.45,0,0,1,90,false,stim,false,2,349.9000000357628,2,0,0,65904,task3,268208,false,true,319,image-keyboard-response,18
true,2,2,1,2,true,d,false,true,0.0-2.0-0.5-0.46-3.46,0,0,1,68,false,stim,false,0,588.3999999761581,2,0,1,65904,task3,270319,false,false,322,image-keyboard-response,19
true,2,1,1,2,false,d,true,false,0.0-2.0-0.5-0.47-3.47,0,0,1,90,false,stim,false,0,416.5,2,0,1,65904,task3,272269,false,false,325,image-keyboard-response,20
true,2,1,1,1,true,z,false,true,0.0-2.0-0.5-0.48-3.48,0,0,1,90,false,stim,false,2,651.6000000238419,2,1,0,65904,task3,274443,false,false,328,image-keyboard-response,21
true,2,2,1,2,true,d,false,false,0.0-2.0-0.5-0.49-3.49,0,0,1,68,false,stim,false,2,592.1000000238419,2,1,2,65904,task3,276557,false,true,331,image-keyboard-response,22
true,2,2,1,2,true,d,false,true,0.0-2.0-0.5-0.50-3.50,0,0,1,68,false,stim,false,0,515.1000000238419,2,0,1,65904,task3,278597,false,false,334,image-keyboard-response,23
true,2,2,1,2,true,d,false,true,0.0-2.0-0.5-0.51-3.51,0,0,1,68,false,stim,false,2,750.0,2,1,2,65904,task3,280880,false,false,337,image-keyboard-response,24
true,3,1,2,1,true,z,false,true,0.0-2.0-0.5-0.52-3.52,1,0,1,90,true,stim,false,1,763.5,2,1,0,65904,task3,283165,false,false,340,image-keyboard-response,1
true,3,2,2,2,true,d,false,true,0.0-2.0-0.5-0.53-3.53,1,0,1,68,false,stim,false,2,634.5999999642372,2,1,2,65904,task3,285326,false,false,343,image-keyboard-response,2
true,3,2,2,0,false,q,false,false,0.0-2.0-0.6-0.54-3.54,1,0,1,68,false,stim,true,2,347.19999998807907,2,0,1,65904,task3,287214,false,false,346,image-keyboard-response,3
true,3,2,2,2,true,d,false,true,0.0-2.0-0.6-0.55-3.55,1,0,1,68,false,stim,false,2,448.5,2,1,2,65904,task3,289183,false,false,349,image-keyboard-response,4
true,3,2,2,0,false,q,false,false,0.0-2.0-0.6-0.56-3.56,1,0,1,68,false,stim,true,2,476.39999997615814,2,0,1,65904,task3,291182,false,false,352,image-keyboard-response,5
true,3,1,2,0,false,q,true,false,0.0-2.0-0.6-0.57-3.57,1,0,1,90,false,stim,false,2,821.3000000119209,2,0,1,65904,task3,293528,false,false,355,image-keyboard-response,6
true,3,2,2,2,true,d,false,true,0.0-2.0-0.6-0.58-3.58,1,0,1,68,false,stim,false,2,466.5,2,1,2,65904,task3,295523,false,false,358,image-keyboard-response,7
true,3,1,2,1,true,z,false,true,0.0-2.0-0.6-0.59-3.59,1,0,1,90,false,stim,false,1,405.60000002384186,2,1,0,65904,task3,297449,false,false,361,image-keyboard-response,8
true,3,1,2,1,true,z,false,true,0.0-2.0-0.6-0.60-3.60,1,0,1,90,false,stim,false,1,470.9000000357628,2,1,0,65904,task3,299459,false,false,364,image-keyboard-response,9
true,3,2,2,2,true,d,false,true,0.0-2.0-0.6-0.61-3.61,1,0,1,68,false,stim,false,2,472.80000001192093,2,1,2,65904,task3,301467,false,false,367,image-keyboard-response,10
true,3,1,2,1,true,z,false,true,0.0-2.0-0.6-0.62-3.62,1,0,1,90,false,stim,false,1,461.89999997615814,2,1,0,65904,task3,303464,false,false,370,image-keyboard-response,11
true,3,0,2,0,true,q,false,true,0.0-2.0-0.7-0.63-3.63,1,0,1,81,false,stim,false,2,593.8999999761581,2,0,1,65904,task3,305569,false,false,373,image-keyboard-response,12
true,3,0,2,0,true,q,false,true,0.0-2.0-0.7-0.64-3.64,1,0,1,81,false,stim,false,2,396.9000000357628,2,0,1,65904,task3,307478,false,false,376,image-keyboard-response,13
true,3,2,2,2,true,d,false,true,0.0-2.0-0.7-0.65-3.65,1,0,1,68,false,stim,false,2,453.0999999642372,2,1,2,65904,task3,309439,false,false,379,image-keyboard-response,14
true,3,1,2,1,true,z,false,true,0.0-2.0-0.7-0.66-3.66,1,0,1,90,false,stim,false,1,375.19999998807907,2,1,0,65904,task3,311334,false,false,382,image-keyboard-response,15
true,3,1,2,1,true,z,false,true,0.0-2.0-0.7-0.67-3.67,1,0,1,90,false,stim,false,1,467.5999999642372,2,1,0,65904,task3,313318,false,false,385,image-keyboard-response,16
true,3,1,2,1,true,z,false,true,0.0-2.0-0.7-0.68-3.68,1,0,1,90,false,stim,false,1,410.39999997615814,2,1,0,65904,task3,315250,false,false,388,image-keyboard-response,17
true,3,2,2,2,true,d,false,true,0.0-2.0-0.7-0.69-3.69,1,0,1,68,false,stim,false,2,438.60000002384186,2,1,2,65904,task3,317220,false,false,391,image-keyboard-response,18
true,3,2,2,2,true,d,false,true,0.0-2.0-0.7-0.70-3.70,1,0,1,68,false,stim,false,2,425.5999999642372,2,1,2,65904,task3,319180,false,false,394,image-keyboard-response,19
true,3,0,2,0,true,q,false,true,0.0-2.0-0.7-0.71-3.71,1,0,1,81,false,stim,false,2,769.5,2,0,1,65904,task3,321465,false,false,397,image-keyboard-response,20
true,3,2,2,2,true,d,false,true,0.0-2.0-0.8-0.72-3.72,1,0,1,68,false,stim,false,2,486.69999998807907,2,1,2,65904,task3,323482,false,false,400,image-keyboard-response,21
true,3,1,2,1,true,z,false,false,0.0-2.0-0.8-0.73-3.73,1,0,1,90,false,stim,false,1,493.60000002384186,2,0,0,65904,task3,325493,false,true,403,image-keyboard-response,22
true,3,2,2,2,true,d,false,true,0.0-2.0-0.8-0.74-3.74,1,0,1,68,false,stim,false,2,439.5999999642372,2,1,2,65904,task3,327448,false,false,406,image-keyboard-response,23
true,3,0,2,0,true,q,false,true,0.0-2.0-0.8-0.75-3.75,1,0,1,81,false,stim,false,2,486.9000000357628,2,0,1,65904,task3,329466,false,false,409,image-keyboard-response,24
true,4,0,1,2,false,d,false,false,0.0-2.0-0.8-0.76-3.76,0,0,1,81,true,stim,true,0,602.3000000119209,2,0,1,65904,task3,331587,false,false,412,image-keyboard-response,1
true,4,1,1,0,false,q,false,false,0.0-2.0-0.8-0.77-3.77,0,0,1,90,false,stim,true,1,591.3000000119209,2,0,0,65904,task3,333686,false,false,415,image-keyboard-response,2
true,4,2,1,0,false,q,true,false,0.0-2.0-0.8-0.78-3.78,0,0,1,68,false,stim,false,1,704.5,2,0,0,65904,task3,335919,false,false,418,image-keyboard-response,3
true,4,0,1,2,false,d,false,false,0.0-2.0-0.8-0.79-3.79,0,0,1,81,false,stim,true,0,1009.8000000119209,2,0,1,65904,task3,338451,false,false,421,image-keyboard-response,4
true,4,2,1,2,true,d,false,true,0.0-2.0-0.8-0.80-3.80,0,0,1,68,false,stim,false,2,653.6000000238419,2,1,2,65904,task3,340620,false,false,424,image-keyboard-response,5
true,4,1,1,2,false,d,true,true,0.0-2.0-0.9-0.81-3.81,0,0,1,90,false,stim,false,0,1016.5999999642372,2,0,1,65904,task3,343172,false,true,427,image-keyboard-response,6
true,4,2,1,2,true,d,false,true,0.0-2.0-0.9-0.82-3.82,0,0,1,68,false,stim,false,2,652.5,2,1,2,65904,task3,345347,false,false,430,image-keyboard-response,7
true,4,2,1,0,false,q,true,false,0.0-2.0-0.9-0.83-3.83,0,0,1,68,false,stim,false,1,1045.800000011921,2,0,0,65904,task3,347918,false,false,433,image-keyboard-response,8
true,4,2,1,2,true,d,false,true,0.0-2.0-0.9-0.84-3.84,0,0,1,68,false,stim,false,2,571.3999999761581,2,1,2,65904,task3,350016,false,false,436,image-keyboard-response,9
true,4,2,1,2,true,d,false,true,0.0-2.0-0.9-0.85-3.85,0,0,1,68,false,stim,false,2,419.69999998807907,2,1,2,65904,task3,351958,false,false,439,image-keyboard-response,10
true,4,0,1,0,true,q,false,true,0.0-2.0-0.9-0.86-3.86,0,0,1,81,false,stim,false,1,906.0999999642372,2,0,0,65904,task3,354401,false,false,442,image-keyboard-response,11
true,4,0,1,0,true,q,false,true,0.0-2.0-0.9-0.87-3.87,0,0,1,81,false,stim,false,1,492.89999997615814,2,0,0,65904,task3,356416,false,false,445,image-keyboard-response,12
true,4,1,1,2,false,d,true,false,0.0-2.0-0.9-0.88-3.88,0,0,1,90,false,stim,false,0,436.39999997615814,2,0,1,65904,task3,358365,false,false,448,image-keyboard-response,13
true,4,1,1,2,false,d,true,false,0.0-2.0-0.9-0.89-3.89,0,0,1,90,false,stim,false,0,484.30000001192093,2,0,1,65904,task3,360368,false,false,451,image-keyboard-response,14
true,4,0,1,0,true,q,false,true,0.0-2.0-0.10-0.90-3.90,0,0,1,81,false,stim,false,1,678.1000000238419,2,0,0,65904,task3,362566,false,false,454,image-keyboard-response,15
true,4,0,1,0,true,q,false,true,0.0-2.0-0.10-0.91-3.91,0,0,1,81,false,stim,false,1,398.10000002384186,2,0,0,65904,task3,364476,false,false,457,image-keyboard-response,16
true,4,0,1,0,true,q,false,true,0.0-2.0-0.10-0.92-3.92,0,0,1,81,false,stim,false,1,393.0999999642372,2,0,0,65904,task3,366393,false,false,460,image-keyboard-response,17
true,4,0,1,2,false,d,false,false,0.0-2.0-0.10-0.93-3.93,0,0,1,81,false,stim,true,0,523.3999999761581,2,0,1,65904,task3,368433,false,false,463,image-keyboard-response,18
true,4,2,1,2,true,d,false,true,0.0-2.0-0.10-0.94-3.94,0,0,1,68,false,stim,false,2,318.30000001192093,2,1,2,65904,task3,370264,false,false,466,image-keyboard-response,19
true,4,2,1,2,true,d,false,true,0.0-2.0-0.10-0.95-3.95,0,0,1,68,false,stim,false,2,397.9000000357628,2,1,2,65904,task3,372185,false,false,469,image-keyboard-response,20
true,4,2,1,2,true,d,false,true,0.0-2.0-0.10-0.96-3.96,0,0,1,68,false,stim,false,0,348.5,2,0,1,65904,task3,374055,false,false,472,image-keyboard-response,21
true,4,2,1,2,true,d,false,true,0.0-2.0-0.10-0.97-3.97,0,0,1,68,false,stim,false,0,359.60000002384186,2,0,1,65904,task3,375939,false,false,475,image-keyboard-response,22
true,4,2,1,2,true,d,false,true,0.0-2.0-0.10-0.98-3.98,0,0,1,68,false,stim,false,2,723.8000000119209,2,1,2,65904,task3,378174,false,false,478,image-keyboard-response,23
true,4,0,1,0,true,q,false,true,0.0-2.0-0.11-0.99-3.99,0,0,1,81,false,stim,false,1,535.5999999642372,2,1,0,65904,task3,380229,false,false,481,image-keyboard-response,24
true,4,2,1,2,true,d,false,true,0.0-2.0-0.11-0.100-3.100,0,0,1,68,false,stim,false,2,343.39999997615814,2,1,2,65904,task3,382106,false,false,484,image-keyboard-response,25
true,4,2,1,2,true,d,false,true,0.0-2.0-0.11-0.101-3.101,0,0,1,68,false,stim,false,2,306.10000002384186,2,1,2,65904,task3,383952,false,false,487,image-keyboard-response,26
true,5,2,2,1,false,z,false,false,0.0-2.0-0.11-0.102-3.102,1,0,1,68,true,stim,true,2,379.80000001192093,2,0,1,65904,task3,385854,false,false,490,image-keyboard-response,1
true,5,2,2,1,false,z,false,false,0.0-2.0-0.11-0.103-3.103,1,0,1,68,false,stim,true,2,369.0999999642372,2,0,1,65904,task3,387752,false,false,493,image-keyboard-response,2
true,5,1,2,1,true,z,false,true,0.0-2.0-0.11-0.104-3.104,1,0,1,90,false,stim,false,2,552.5999999642372,2,0,1,65904,task3,389823,false,false,496,image-keyboard-response,3
true,5,2,2,2,true,d,false,false,0.0-2.0-0.11-0.105-3.105,1,0,1,68,false,stim,false,2,451.5,2,1,2,65904,task3,391800,false,true,499,image-keyboard-response,4
true,5,0,2,0,true,q,false,true,0.0-2.0-0.11-0.106-3.106,1,0,1,81,false,stim,false,0,509.30000001192093,2,1,0,65904,task3,393839,false,false,502,image-keyboard-response,5
true,5,0,2,0,true,q,false,true,0.0-2.0-0.11-0.107-3.107,1,0,1,81,false,stim,false,0,501.80000001192093,2,1,0,65904,task3,395864,false,false,505,image-keyboard-response,6
true,5,0,2,0,true,q,false,true,0.0-2.0-0.12-0.108-3.108,1,0,1,81,false,stim,false,0,382.0,2,1,0,65904,task3,397765,false,false,508,image-keyboard-response,7
true,5,2,2,2,true,d,false,false,0.0-2.0-0.12-0.109-3.109,1,0,1,68,false,stim,false,2,547.3000000119209,2,1,2,65904,task3,399823,false,true,511,image-keyboard-response,8
true,5,0,2,2,false,d,true,false,0.0-2.0-0.12-0.110-3.110,1,0,1,81,false,stim,false,2,568.5,2,1,2,65904,task3,401933,false,false,514,image-keyboard-response,9
true,5,0,2,0,true,q,false,true,0.0-2.0-0.12-0.111-3.111,1,0,1,81,false,stim,false,0,715.0,2,1,0,65904,task3,404159,false,false,517,image-keyboard-response,10
true,5,1,2,1,true,z,false,true,0.0-2.0-0.12-0.112-3.112,1,0,1,90,false,stim,false,2,343.60000002384186,2,1,1,65904,task3,406021,false,false,520,image-keyboard-response,11
true,5,0,2,1,false,z,true,false,0.0-2.0-0.12-0.113-3.113,1,0,1,81,false,stim,false,2,474.80000001192093,2,1,1,65904,task3,408006,false,false,523,image-keyboard-response,12
true,5,1,2,2,false,d,true,false,0.0-2.0-0.12-0.114-3.114,1,0,1,90,false,stim,false,2,667.3000000119209,2,0,2,65904,task3,410203,false,false,526,image-keyboard-response,13
true,5,1,2,1,true,z,false,false,0.0-2.0-0.12-0.115-3.115,1,0,1,90,false,stim,false,2,648.8000000119209,2,1,1,65904,task3,412374,false,true,529,image-keyboard-response,14
true,5,0,2,0,true,q,false,true,0.0-2.0-0.12-0.116-3.116,1,0,1,81,false,stim,false,0,388.19999998807907,2,0,0,65904,task3,414290,false,false,532,image-keyboard-response,15
true,6,2,1,0,false,q,false,false,0.0-2.0-0.13-0.117-3.117,0,1,0,68,true,stim,true,2,418.5999999642372,2,0,2,65904,task3,416227,false,false,535,image-keyboard-response,1
true,6,0,1,1,false,z,false,false,0.0-2.0-0.13-0.118-3.118,0,1,0,81,false,stim,true,0,611.8000000119209,2,0,0,65904,task3,418374,false,false,538,image-keyboard-response,2
true,6,0,1,1,false,z,true,false,0.0-2.0-0.13-0.119-3.119,0,1,0,81,false,stim,false,1,669.5,2,1,1,65904,task3,420569,false,false,541,image-keyboard-response,3
true,6,1,1,0,false,q,true,false,0.0-2.0-0.13-0.120-3.120,0,1,0,90,false,stim,false,2,647.0,2,0,2,65904,task3,422733,false,false,544,image-keyboard-response,4
true,6,1,1,1,true,z,false,false,0.0-2.0-0.13-0.121-3.121,0,1,0,90,false,stim,false,0,331.5999999642372,2,0,0,65904,task3,424598,false,true,547,image-keyboard-response,5
true,6,1,1,1,true,z,false,false,0.0-2.0-0.13-0.122-3.122,0,1,0,90,false,stim,false,1,376.0,2,1,1,65904,task3,426487,false,true,550,image-keyboard-response,6
true,6,2,1,1,false,z,true,false,0.0-2.0-0.13-0.123-3.123,0,1,0,68,false,stim,false,1,632.0,2,1,1,65904,task3,428652,false,false,553,image-keyboard-response,7
true,6,2,1,1,false,z,true,false,0.0-2.0-0.13-0.124-3.124,0,1,0,68,false,stim,false,0,388.69999998807907,2,0,0,65904,task3,430555,false,false,556,image-keyboard-response,8
true,6,2,1,0,false,q,false,false,0.0-2.0-0.13-0.125-3.125,0,1,0,68,false,stim,true,2,444.0,2,0,2,65904,task3,432516,false,false,559,image-keyboard-response,9
true,6,0,1,0,true,q,false,true,0.0-2.0-0.14-0.126-3.126,0,1,0,81,false,stim,false,2,637.0,2,0,2,65904,task3,434664,false,false,562,image-keyboard-response,10
true,6,0,1,0,true,q,false,true,0.0-2.0-0.14-0.127-3.127,0,1,0,81,false,stim,false,2,578.1000000238419,2,0,2,65904,task3,436763,false,false,565,image-keyboard-response,11
true,6,0,1,1,false,z,true,false,0.0-2.0-0.14-0.128-3.128,0,1,0,81,false,stim,false,1,588.3999999761581,2,1,1,65904,task3,438880,false,false,568,image-keyboard-response,12
true,6,0,1,1,false,z,false,false,0.0-2.0-0.14-0.129-3.129,0,1,0,81,false,stim,true,0,832.9000000357628,2,0,0,65904,task3,441232,false,false,571,image-keyboard-response,13
true,6,1,1,1,true,z,false,true,0.0-2.0-0.14-0.130-3.130,0,1,0,90,false,stim,false,1,746.1999999880791,2,1,1,65904,task3,443488,false,false,574,image-keyboard-response,14
true,6,0,1,0,true,q,false,true,0.0-2.0-0.14-0.131-3.131,0,1,0,81,false,stim,false,2,451.80000001192093,2,0,2,65904,task3,445466,false,false,577,image-keyboard-response,15
true,6,1,1,1,true,z,false,true,0.0-2.0-0.14-0.132-3.132,0,1,0,90,false,stim,false,0,1358.0,2,0,0,65904,task3,448356,false,false,580,image-keyboard-response,16
true,6,1,1,1,true,z,false,true,0.0-2.0-0.14-0.133-3.133,0,1,0,90,false,stim,false,1,549.3000000119209,2,1,1,65904,task3,450432,false,false,583,image-keyboard-response,17
true,6,1,1,1,true,z,false,true,0.0-2.0-0.14-0.134-3.134,0,1,0,90,false,stim,false,0,356.80000001192093,2,0,0,65904,task3,452318,false,false,586,image-keyboard-response,18
true,6,1,1,1,true,z,false,true,0.0-2.0-0.15-0.135-3.135,0,1,0,90,false,stim,false,0,569.3000000119209,2,0,0,65904,task3,454422,false,false,589,image-keyboard-response,19
true,6,0,1,0,true,q,false,true,0.0-2.0-0.15-0.136-3.136,0,1,0,81,false,stim,false,2,611.3000000119209,2,1,2,65904,task3,456571,false,false,592,image-keyboard-response,20
true,6,0,1,0,true,q,false,true,0.0-2.0-0.15-0.137-3.137,0,1,0,81,false,stim,false,2,544.3999999761581,2,1,2,65904,task3,458642,false,false,595,image-keyboard-response,21
true,6,1,1,1,true,z,false,true,0.0-2.0-0.15-0.138-3.138,0,1,0,90,false,stim,false,0,399.19999998807907,2,0,0,65904,task3,460557,false,false,598,image-keyboard-response,22
true,6,0,1,0,true,q,false,true,0.0-2.0-0.15-0.139-3.139,0,1,0,81,false,stim,false,2,446.19999998807907,2,1,2,65904,task3,462543,false,false,601,image-keyboard-response,23
true,6,1,1,1,true,z,false,true,0.0-2.0-0.15-0.140-3.140,0,1,0,90,false,stim,false,1,381.19999998807907,2,0,1,65904,task3,464445,false,false,604,image-keyboard-response,24
true,7,1,1,2,false,d,false,false,0.0-2.0-0.15-0.141-3.141,0,0,1,90,true,stim,true,1,336.0,2,0,0,65904,task3,466309,false,false,607,image-keyboard-response,1
true,7,1,1,0,false,q,false,false,0.0-2.0-0.15-0.142-3.142,0,0,1,90,false,stim,true,1,352.10000002384186,2,0,1,65904,task3,468172,false,false,610,image-keyboard-response,2
true,7,1,1,0,false,q,false,true,0.0-2.0-0.15-0.143-3.143,0,0,1,90,false,stim,true,1,1319.0,2,0,1,65904,task3,471008,false,true,613,image-keyboard-response,3
true,7,1,1,0,false,q,false,false,0.0-2.0-0.16-0.144-3.144,0,0,1,90,false,stim,true,1,603.5,2,0,1,65904,task3,473149,false,false,616,image-keyboard-response,4
true,7,1,1,2,false,d,false,false,0.0-2.0-0.16-0.145-3.145,0,0,1,90,false,stim,true,1,646.6999999880791,2,0,0,65904,task3,475332,false,false,619,image-keyboard-response,5
true,7,0,1,0,true,q,false,true,0.0-2.0-0.16-0.146-3.146,0,0,1,81,false,stim,false,0,356.69999998807907,2,1,2,65904,task3,477217,false,false,622,image-keyboard-response,6
true,7,0,1,0,true,q,false,true,0.0-2.0-0.16-0.147-3.147,0,0,1,81,false,stim,false,1,567.2000000476837,2,0,1,65904,task3,479323,false,false,625,image-keyboard-response,7
true,7,2,1,2,true,d,false,true,0.0-2.0-0.16-0.148-3.148,0,0,1,68,false,stim,false,1,549.8000000119209,2,0,0,65904,task3,481406,false,false,628,image-keyboard-response,8
true,7,0,1,0,true,q,false,true,0.0-2.0-0.16-0.149-3.149,0,0,1,81,false,stim,false,0,653.0,2,1,2,65904,task3,483581,false,false,631,image-keyboard-response,9
true,7,0,1,0,true,q,false,true,0.0-2.0-0.16-0.150-3.150,0,0,1,81,false,stim,false,1,346.89999997615814,2,0,1,65904,task3,485447,false,false,634,image-keyboard-response,10
true,7,0,1,0,true,q,false,false,0.0-2.0-0.16-0.151-3.151,0,0,1,81,false,stim,false,0,483.60000002384186,2,1,2,65904,task3,487439,false,true,637,image-keyboard-response,11
true,7,2,1,2,true,d,false,true,0.0-2.0-0.16-0.152-3.152,0,0,1,68,false,stim,false,1,509.89999997615814,2,0,0,65904,task3,489453,false,false,640,image-keyboard-response,12
true,7,2,1,2,true,d,false,true,0.0-2.0-0.17-0.153-3.153,0,0,1,68,false,stim,false,1,479.39999997615814,2,0,0,65904,task3,491467,false,false,643,image-keyboard-response,13
true,7,0,1,0,true,q,false,true,0.0-2.0-0.17-0.154-3.154,0,0,1,81,false,stim,false,1,681.8000000119209,2,0,1,65904,task3,493675,false,false,646,image-keyboard-response,14
true,7,2,1,0,false,q,true,true,0.0-2.0-0.17-0.155-3.155,0,0,1,68,false,stim,false,0,337.2999999523163,2,1,2,65904,task3,495519,false,true,649,image-keyboard-response,15
true,7,2,1,0,false,q,true,false,0.0-2.0-0.17-0.156-3.156,0,0,1,68,false,stim,false,0,344.5,2,1,2,65904,task3,497382,false,false,652,image-keyboard-response,16
true,7,2,1,2,true,d,false,true,0.0-2.0-0.17-0.157-3.157,0,0,1,68,false,stim,false,1,450.80000001192093,2,0,0,65904,task3,499363,false,false,655,image-keyboard-response,17
true,7,0,1,0,true,q,false,true,0.0-2.0-0.17-0.158-3.158,0,0,1,81,false,stim,false,1,567.3999999761581,2,0,1,65904,task3,501439,false,false,658,image-keyboard-response,18
true,7,0,1,0,true,q,false,true,0.0-2.0-0.17-0.159-3.159,0,0,1,81,false,stim,false,1,663.5,2,0,1,65904,task3,503636,false,false,661,image-keyboard-response,19
true,7,2,1,0,false,q,true,false,0.0-2.0-0.17-0.160-3.160,0,0,1,68,false,stim,false,0,370.30000001192093,2,1,2,65904,task3,505533,false,false,664,image-keyboard-response,20
true,7,2,1,2,true,d,false,true,0.0-2.0-0.17-0.161-3.161,0,0,1,68,false,stim,false,1,517.8000000119209,2,0,0,65904,task3,507557,false,false,667,image-keyboard-response,21
true,7,1,1,0,false,q,true,false,0.0-2.0-0.18-0.162-3.162,0,0,1,90,false,stim,false,0,376.19999998807907,2,1,2,65904,task3,509453,false,false,670,image-keyboard-response,22
true,7,0,1,0,true,q,false,true,0.0-2.0-0.18-0.163-3.163,0,0,1,81,false,stim,false,1,489.30000001192093,2,0,1,65904,task3,511469,false,false,673,image-keyboard-response,23
true,7,0,1,0,true,q,false,true,0.0-2.0-0.18-0.164-3.164,0,0,1,81,false,stim,false,1,566.2000000476837,2,0,1,65904,task3,513554,false,false,676,image-keyboard-response,24
true,7,0,1,0,true,q,false,true,0.0-2.0-0.18-0.165-3.165,0,0,1,81,false,stim,false,0,365.60000002384186,2,1,2,65904,task3,515442,false,false,679,image-keyboard-response,25
true,7,2,1,2,true,d,false,true,0.0-2.0-0.18-0.166-3.166,0,0,1,68,false,stim,false,1,860.8000000119209,2,0,0,65904,task3,517828,false,false,682,image-keyboard-response,26
true,7,2,1,2,true,d,false,true,0.0-2.0-0.18-0.167-3.167,0,0,1,68,false,stim,false,1,538.5,2,0,0,65904,task3,519877,false,false,685,image-keyboard-response,27
true,7,2,1,2,true,d,false,true,0.0-2.0-0.18-0.168-3.168,0,0,1,68,false,stim,false,1,403.39999997615814,2,0,0,65904,task3,521814,false,false,688,image-keyboard-response,28
true,7,0,1,0,true,q,false,true,0.0-2.0-0.18-0.169-3.169,0,0,1,81,false,stim,false,0,496.7999999523163,2,1,2,65904,task3,523850,false,false,691,image-keyboard-response,29
true,8,0,1,2,false,d,false,false,0.0-2.0-0.18-0.170-3.170,0,0,1,81,true,stim,true,0,549.8000000119209,2,0,1,65904,task3,525907,false,false,694,image-keyboard-response,1
true,8,0,1,0,true,q,false,true,0.0-2.0-0.19-0.171-3.171,0,0,1,81,false,stim,false,0,416.39999997615814,2,1,2,65904,task3,527845,false,false,697,image-keyboard-response,2
true,8,0,1,2,false,d,false,false,0.0-2.0-0.19-0.172-3.172,0,0,1,81,false,stim,true,0,338.10000002384186,2,0,1,65904,task3,529701,false,false,700,image-keyboard-response,3
true,8,1,1,2,false,d,true,false,0.0-2.0-0.19-0.173-3.173,0,0,1,90,false,stim,false,0,816.8999999761581,2,0,1,65904,task3,532050,false,false,703,image-keyboard-response,4
true,8,2,1,1,false,z,false,false,0.0-2.0-0.19-0.174-3.174,0,0,1,68,false,stim,true,2,368.5999999642372,2,0,0,65904,task3,533953,false,false,706,image-keyboard-response,5
true,8,1,1,1,true,z,false,true,0.0-2.0-0.19-0.175-3.175,0,0,1,90,false,stim,false,2,776.0,2,0,0,65904,task3,536243,false,false,709,image-keyboard-response,6
true,8,0,1,0,true,q,false,true,0.0-2.0-0.19-0.176-3.176,0,0,1,81,false,stim,false,0,466.5,2,1,2,65904,task3,538237,false,false,712,image-keyboard-response,7
true,8,1,1,1,true,z,false,true,0.0-2.0-0.19-0.177-3.177,0,0,1,90,false,stim,false,2,593.2000000476837,2,0,0,65904,task3,540335,false,false,715,image-keyboard-response,8
true,8,2,1,2,true,d,false,true,0.0-2.0-0.19-0.178-3.178,0,0,1,68,false,stim,false,0,545.9000000357628,2,0,1,65904,task3,542416,false,false,718,image-keyboard-response,9
true,8,0,1,0,true,q,false,true,0.0-2.0-0.19-0.179-3.179,0,0,1,81,false,stim,false,0,627.0999999642372,2,1,2,65904,task3,544566,false,false,721,image-keyboard-response,10
true,8,1,1,1,true,z,false,true,0.0-2.0-0.20-0.180-3.180,0,0,1,90,false,stim,false,2,340.69999998807907,2,0,0,65904,task3,546441,false,false,724,image-keyboard-response,11
true,8,0,1,0,true,q,false,true,0.0-2.0-0.20-0.181-3.181,0,0,1,81,false,stim,false,0,488.19999998807907,2,1,2,65904,task3,548456,false,false,727,image-keyboard-response,12
true,8,0,1,0,true,q,false,true,0.0-2.0-0.20-0.182-3.182,0,0,1,81,false,stim,false,0,437.0999999642372,2,1,2,65904,task3,550412,false,false,730,image-keyboard-response,13
true,8,2,1,2,true,d,false,true,0.0-2.0-0.20-0.183-3.183,0,0,1,68,false,stim,false,0,519.0999999642372,2,0,1,65904,task3,552454,false,false,733,image-keyboard-response,14
true,8,1,1,1,true,z,false,false,0.0-2.0-0.20-0.184-3.184,0,0,1,90,false,stim,false,2,380.9000000357628,2,0,0,65904,task3,554354,false,true,736,image-keyboard-response,15
true,8,2,1,2,true,d,false,true,0.0-2.0-0.20-0.185-3.185,0,0,1,68,false,stim,false,0,585.6000000238419,2,0,1,65904,task3,556453,false,false,739,image-keyboard-response,16
true,8,0,1,0,true,q,false,true,0.0-2.0-0.20-0.186-3.186,0,0,1,81,false,stim,false,0,420.30000001192093,2,1,2,65904,task3,558404,false,false,742,image-keyboard-response,17
true,8,1,1,1,true,z,false,true,0.0-2.0-0.20-0.187-3.187,0,0,1,90,false,stim,false,2,300.19999998807907,2,0,0,65904,task3,560224,false,false,745,image-keyboard-response,18
true,8,2,1,2,true,d,false,true,0.0-2.0-0.20-0.188-3.188,0,0,1,68,false,stim,false,0,337.80000001192093,2,0,1,65904,task3,562091,false,false,748,image-keyboard-response,19
true,8,0,1,0,true,q,false,true,0.0-2.0-0.21-0.189-3.189,0,0,1,81,false,stim,false,0,325.5,2,1,2,65904,task3,563946,false,false,751,image-keyboard-response,20
true,8,1,1,1,true,z,false,true,0.0-2.0-0.21-0.190-3.190,0,0,1,90,false,stim,false,2,298.39999997615814,2,0,0,65904,task3,565758,false,false,754,image-keyboard-response,21
true,8,1,1,1,true,z,false,false,0.0-2.0-0.21-0.191-3.191,0,0,1,90,false,stim,false,2,720.8000000119209,2,0,0,65904,task3,568001,false,true,757,image-keyboard-response,22
true,8,1,1,1,true,z,false,true,0.0-2.0-0.21-0.192-3.192,0,0,1,90,false,stim,false,2,591.8999999761581,2,0,0,65904,task3,570128,false,false,760,image-keyboard-response,23
true,8,2,1,2,true,d,false,false,0.0-2.0-0.21-0.193-3.193,0,0,1,68,false,stim,false,0,522.6999999880791,2,1,1,65904,task3,572168,false,true,763,image-keyboard-response,24
true,9,2,2,2,true,d,false,true,0.0-2.0-0.21-0.194-3.194,0,1,1,68,true,stim,false,2,444.10000002384186,2,1,1,65904,task3,574144,false,false,766,image-keyboard-response,1
true,9,2,2,2,true,d,false,true,0.0-2.0-0.21-0.195-3.195,0,1,1,68,false,stim,false,2,530.0,2,1,1,65904,task3,576204,false,false,769,image-keyboard-response,2
true,9,0,2,0,true,q,false,true,0.0-2.0-0.21-0.196-3.196,0,1,1,81,false,stim,false,0,367.2000000476837,2,1,2,65904,task3,578098,false,false,772,image-keyboard-response,3
true,9,0,2,0,true,q,false,true,0.0-2.0-0.21-0.197-3.197,0,1,1,81,false,stim,false,0,486.5999999642372,2,1,2,65904,task3,580104,false,false,775,image-keyboard-response,4
true,9,2,2,2,true,d,false,true,0.0-2.0-0.22-0.198-3.198,0,1,1,68,false,stim,false,2,593.6000000238419,2,1,1,65904,task3,582204,false,false,778,image-keyboard-response,5
true,9,0,2,0,true,q,false,true,0.0-2.0-0.22-0.199-3.199,0,1,1,81,false,stim,false,0,685.6000000238419,2,1,2,65904,task3,584412,false,false,781,image-keyboard-response,6
true,9,1,2,0,false,q,false,false,0.0-2.0-0.22-0.200-3.200,0,1,1,90,false,stim,true,1,567.8999999761581,2,0,0,65904,task3,586502,false,false,784,image-keyboard-response,7
true,9,0,2,0,true,q,false,true,0.0-2.0-0.22-0.201-3.201,0,1,1,81,false,stim,false,0,1497.2999999523163,2,1,2,65904,task3,589510,false,false,787,image-keyboard-response,8
true,9,1,2,0,false,q,false,false,0.0-2.0-0.22-0.202-3.202,0,1,1,90,false,stim,true,1,484.0999999642372,2,0,0,65904,task3,591515,false,false,790,image-keyboard-response,9
true,9,0,2,0,true,q,false,true,0.0-2.0-0.22-0.203-3.203,0,1,1,81,false,stim,false,0,540.6000000238419,2,1,2,65904,task3,593568,false,false,793,image-keyboard-response,10
true,9,2,2,2,true,d,false,false,0.0-2.0-0.22-0.204-3.204,0,1,1,68,false,stim,false,2,505.39999997615814,2,1,1,65904,task3,595607,false,true,796,image-keyboard-response,11
true,9,0,2,2,false,d,true,false,0.0-2.0-0.22-0.205-3.205,0,1,1,81,false,stim,false,2,793.3000000119209,2,1,1,65904,task3,597932,false,false,799,image-keyboard-response,12
true,9,0,2,0,true,q,false,true,0.0-2.0-0.22-0.206-3.206,0,1,1,81,false,stim,false,1,793.8999999761581,2,0,0,65904,task3,600250,false,false,802,image-keyboard-response,13
true,9,0,2,0,true,q,false,false,0.0-2.0-0.23-0.207-3.207,0,1,1,81,false,stim,false,0,363.80000001192093,2,1,2,65904,task3,602148,false,true,805,image-keyboard-response,14
true,9,1,2,0,false,q,true,false,0.0-2.0-0.23-0.208-3.208,0,1,1,90,false,stim,false,0,664.8000000119209,2,1,2,65904,task3,604338,false,false,808,image-keyboard-response,15
true,9,0,2,0,true,q,false,true,0.0-2.0-0.23-0.209-3.209,0,1,1,81,false,stim,false,1,539.2000000476837,2,0,0,65904,task3,606404,false,false,811,image-keyboard-response,16
true,9,0,2,0,true,q,false,true,0.0-2.0-0.23-0.210-3.210,0,1,1,81,false,stim,false,1,471.5999999642372,2,0,0,65904,task3,608395,false,false,814,image-keyboard-response,17
true,9,2,2,0,false,q,true,false,0.0-2.0-0.23-0.211-3.211,0,1,1,68,false,stim,false,0,387.10000002384186,2,1,2,65904,task3,610311,false,false,817,image-keyboard-response,18
true,9,2,2,2,true,d,false,true,0.0-2.0-0.23-0.212-3.212,0,1,1,68,false,stim,false,2,442.0999999642372,2,1,1,65904,task3,612261,false,false,820,image-keyboard-response,19
true,9,0,2,0,true,q,false,true,0.0-2.0-0.23-0.213-3.213,0,1,1,81,false,stim,false,1,607.8999999761581,2,0,0,65904,task3,614391,false,false,823,image-keyboard-response,20
true,9,2,2,2,true,d,false,true,0.0-2.0-0.23-0.214-3.214,0,1,1,68,false,stim,false,2,414.80000001192093,2,1,1,65904,task3,616330,false,false,826,image-keyboard-response,21
true,9,2,2,2,true,d,false,true,0.0-2.0-0.23-0.215-3.215,0,1,1,68,false,stim,false,2,431.80000001192093,2,1,1,65904,task3,618283,false,false,829,image-keyboard-response,22
true,9,0,2,0,true,q,false,false,0.0-2.0-0.24-0.216-3.216,0,1,1,81,false,stim,false,1,435.0999999642372,2,0,0,65904,task3,620246,false,true,832,image-keyboard-response,23
true,9,2,2,2,true,d,false,true,0.0-2.0-0.24-0.217-3.217,0,1,1,68,false,stim,false,2,705.5,2,1,1,65904,task3,622489,false,false,835,image-keyboard-response,24
true,9,2,2,2,true,d,false,true,0.0-2.0-0.24-0.218-3.218,0,1,1,68,false,stim,false,2,530.0999999642372,2,1,1,65904,task3,624554,false,false,838,image-keyboard-response,25
true,9,0,2,0,true,q,false,true,0.0-2.0-0.24-0.219-3.219,0,1,1,81,false,stim,false,1,481.0,2,0,0,65904,task3,626561,false,false,841,image-keyboard-response,26
true,10,2,2,0,false,q,true,false,0.0-2.0-0.24-0.220-3.220,0,1,1,68,true,stim,false,0,401.39999997615814,2,1,2,65904,task3,628476,false,false,844,image-keyboard-response,1
true,10,0,2,0,true,q,false,true,0.0-2.0-0.24-0.221-3.221,0,1,1,81,false,stim,false,0,712.1000000238419,2,1,2,65904,task3,630725,false,false,847,image-keyboard-response,2
true,10,0,2,0,true,q,false,true,0.0-2.0-0.24-0.222-3.222,0,1,1,81,false,stim,false,0,427.69999998807907,2,1,2,65904,task3,632670,false,false,850,image-keyboard-response,3
true,10,0,2,2,false,d,false,false,0.0-2.0-0.24-0.223-3.223,0,1,1,81,false,stim,true,0,323.60000002384186,2,0,0,65904,task3,634518,false,false,853,image-keyboard-response,4
true,10,2,2,2,true,d,false,true,0.0-2.0-0.24-0.224-3.224,0,1,1,68,false,stim,false,2,631.5,2,1,1,65904,task3,636678,false,false,856,image-keyboard-response,5
true,10,2,2,2,true,d,false,true,0.0-2.0-0.25-0.225-3.225,0,1,1,68,false,stim,false,0,643.1000000238419,2,0,0,65904,task3,638833,false,false,859,image-keyboard-response,6
true,10,0,2,0,true,q,false,true,0.0-2.0-0.25-0.226-3.226,0,1,1,81,false,stim,false,0,462.10000002384186,2,1,2,65904,task3,640810,false,false,862,image-keyboard-response,7
true,10,2,2,0,false,q,true,false,0.0-2.0-0.25-0.227-3.227,0,1,1,68,false,stim,false,0,410.5,2,1,2,65904,task3,642741,false,false,865,image-keyboard-response,8
true,10,2,2,2,true,d,false,true,0.0-2.0-0.25-0.228-3.228,0,1,1,68,false,stim,false,0,403.60000002384186,2,1,0,65904,task3,644690,false,false,868,image-keyboard-response,9
true,10,2,2,2,true,d,false,true,0.0-2.0-0.25-0.229-3.229,0,1,1,68,false,stim,false,0,461.30000001192093,2,1,0,65904,task3,646660,false,false,871,image-keyboard-response,10
true,10,2,2,2,true,d,false,true,0.0-2.0-0.25-0.230-3.230,0,1,1,68,false,stim,false,2,709.5,2,0,1,65904,task3,648899,false,false,874,image-keyboard-response,11
true,10,0,2,0,true,q,false,true,0.0-2.0-0.25-0.231-3.231,0,1,1,81,false,stim,false,0,1046.0999999642372,2,1,2,65904,task3,651460,false,false,877,image-keyboard-response,12
true,10,2,2,2,true,d,false,false,0.0-2.0-0.25-0.232-3.232,0,1,1,68,false,stim,false,2,567.0,2,0,1,65904,task3,653534,false,true,880,image-keyboard-response,13
true,11,2,2,1,false,z,false,false,0.0-2.0-0.25-0.233-3.233,1,0,1,68,true,stim,true,2,515.3000000119209,2,0,1,65904,task3,655572,false,false,883,image-keyboard-response,1
true,11,2,2,2,true,d,false,false,0.0-2.0-0.26-0.234-3.234,1,0,1,68,false,stim,false,2,375.30000001192093,2,1,0,65904,task3,657455,false,true,886,image-keyboard-response,2
true,11,1,2,1,true,z,false,true,0.0-2.0-0.26-0.235-3.235,1,0,1,90,false,stim,false,2,488.0999999642372,2,0,1,65904,task3,659472,false,false,889,image-keyboard-response,3
true,11,0,2,0,true,q,false,true,0.0-2.0-0.26-0.236-3.236,1,0,1,81,false,stim,false,0,362.5999999642372,2,1,2,65904,task3,661356,false,false,892,image-keyboard-response,4
true,11,0,2,0,true,q,false,true,0.0-2.0-0.26-0.237-3.237,1,0,1,81,false,stim,false,0,425.5,2,1,2,65904,task3,663291,false,false,895,image-keyboard-response,5
true,11,1,2,2,false,d,true,true,0.0-2.0-0.26-0.238-3.238,1,0,1,90,false,stim,false,2,538.4000000357628,2,1,0,65904,task3,665345,false,true,898,image-keyboard-response,6
true,11,1,2,2,false,d,true,false,0.0-2.0-0.26-0.239-3.239,1,0,1,90,false,stim,false,2,340.5,2,1,0,65904,task3,667222,false,false,901,image-keyboard-response,7
true,11,0,2,0,true,q,false,false,0.0-2.0-0.26-0.240-3.240,1,0,1,81,false,stim,false,0,509.30000001192093,2,1,2,65904,task3,669247,false,true,904,image-keyboard-response,8
true,11,1,2,1,true,z,false,true,0.0-2.0-0.26-0.241-3.241,1,0,1,90,false,stim,false,2,357.9000000357628,2,0,1,65904,task3,671133,false,false,907,image-keyboard-response,9
true,11,1,2,1,true,z,false,true,0.0-2.0-0.26-0.242-3.242,1,0,1,90,false,stim,false,2,385.80000001192093,2,0,1,65904,task3,673036,false,false,910,image-keyboard-response,10
true,11,1,2,2,false,d,true,false,0.0-2.0-0.27-0.243-3.243,1,0,1,90,false,stim,false,2,651.1000000238419,2,1,0,65904,task3,675221,false,false,913,image-keyboard-response,11
true,11,2,2,2,true,d,false,true,0.0-2.0-0.27-0.244-3.244,1,0,1,68,false,stim,false,2,619.5,2,1,0,65904,task3,677363,false,false,916,image-keyboard-response,12
true,11,1,2,1,true,z,false,true,0.0-2.0-0.27-0.245-3.245,1,0,1,90,false,stim,false,2,621.4000000357628,2,1,1,65904,task3,679518,false,false,919,image-keyboard-response,13
true,11,0,2,0,true,q,false,true,0.0-2.0-0.27-0.246-3.246,1,0,1,81,false,stim,false,0,399.80000001192093,2,0,2,65904,task3,681435,false,false,922,image-keyboard-response,14
true,11,0,2,0,true,q,false,true,0.0-2.0-0.27-0.247-3.247,1,0,1,81,false,stim,false,0,395.80000001192093,2,0,2,65904,task3,683358,false,false,925,image-keyboard-response,15
true,11,1,2,1,true,z,false,true,0.0-2.0-0.27-0.248-3.248,1,0,1,90,false,stim,false,2,1159.0,2,1,1,65904,task3,686043,false,false,928,image-keyboard-response,16
true,12,0,2,2,false,d,false,false,0.0-2.0-0.27-0.249-3.249,1,1,0,81,true,stim,true,0,632.3999999761581,2,0,2,65904,task3,688206,false,false,931,image-keyboard-response,1
true,12,1,2,1,true,z,false,true,0.0-2.0-0.27-0.250-3.250,1,1,0,90,false,stim,false,1,599.3000000119209,2,1,1,65904,task3,690334,false,false,934,image-keyboard-response,2
true,12,2,2,2,true,d,false,true,0.0-2.0-0.27-0.251-3.251,1,1,0,68,false,stim,false,2,624.5,2,1,0,65904,task3,692483,false,false,937,image-keyboard-response,3
true,12,1,2,1,true,z,false,true,0.0-2.0-0.28-0.252-3.252,1,1,0,90,false,stim,false,1,590.0999999642372,2,1,1,65904,task3,694600,false,false,940,image-keyboard-response,4
true,12,0,2,2,false,d,false,false,0.0-2.0-0.28-0.253-3.253,1,1,0,81,false,stim,true,0,509.19999998807907,2,0,2,65904,task3,696641,false,false,943,image-keyboard-response,5
true,12,1,2,2,false,d,true,false,0.0-2.0-0.28-0.254-3.254,1,1,0,90,false,stim,false,0,1029.300000011921,2,0,2,65904,task3,699201,false,false,946,image-keyboard-response,6
true,12,2,2,2,true,d,false,true,0.0-2.0-0.28-0.255-3.255,1,1,0,68,false,stim,false,0,551.3000000119209,2,0,2,65904,task3,701281,false,false,949,image-keyboard-response,7
true,12,2,2,2,true,d,false,false,0.0-2.0-0.28-0.256-3.256,1,1,0,68,false,stim,false,2,320.5,2,1,0,65904,task3,703138,false,true,952,image-keyboard-response,8
true,12,2,2,2,true,d,false,true,0.0-2.0-0.28-0.257-3.257,1,1,0,68,false,stim,false,2,422.7999999523163,2,1,0,65904,task3,705081,false,false,955,image-keyboard-response,9
true,12,1,2,1,true,z,false,true,0.0-2.0-0.28-0.258-3.258,1,1,0,90,false,stim,false,1,508.5999999642372,2,1,1,65904,task3,707106,false,false,958,image-keyboard-response,10
true,12,2,2,2,true,d,false,true,0.0-2.0-0.28-0.259-3.259,1,1,0,68,false,stim,false,2,624.6999999880791,2,0,0,65904,task3,709254,false,false,961,image-keyboard-response,11
true,12,1,2,1,true,z,false,true,0.0-2.0-0.28-0.260-3.260,1,1,0,90,false,stim,false,1,640.1000000238419,2,1,1,65904,task3,711415,false,false,964,image-keyboard-response,12
true,12,2,2,2,true,d,false,true,0.0-2.0-0.29-0.261-3.261,1,1,0,68,false,stim,false,0,407.30000001192093,2,1,2,65904,task3,713351,false,false,967,image-keyboard-response,13
true,12,2,2,2,true,d,false,true,0.0-2.0-0.29-0.262-3.262,1,1,0,68,false,stim,false,0,374.69999998807907,2,1,2,65904,task3,715245,false,false,970,image-keyboard-response,14
true,12,1,2,1,true,z,false,true,0.0-2.0-0.29-0.263-3.263,1,1,0,90,false,stim,false,1,671.1000000238419,2,1,1,65904,task3,717431,false,false,973,image-keyboard-response,15
true,13,2,2,1,false,z,false,false,0.0-2.0-0.29-0.264-3.264,0,1,1,68,true,stim,true,2,316.0999999642372,2,0,0,65904,task3,719271,false,false,976,image-keyboard-response,1
true,13,2,2,1,false,z,false,false,0.0-2.0-0.29-0.265-3.265,0,1,1,68,false,stim,true,2,503.0,2,0,0,65904,task3,721309,false,false,979,image-keyboard-response,2
true,13,1,2,1,true,z,false,true,0.0-2.0-0.29-0.266-3.266,0,1,1,90,false,stim,false,1,789.5,2,1,1,65904,task3,723633,false,false,982,image-keyboard-response,3
true,13,1,2,1,true,z,false,false,0.0-2.0-0.29-0.267-3.267,0,1,1,90,false,stim,false,1,501.80000001192093,2,1,1,65904,task3,725667,false,true,985,image-keyboard-response,4
true,13,0,2,1,false,z,true,false,0.0-2.0-0.29-0.268-3.268,0,1,1,81,false,stim,false,2,380.10000002384186,2,0,0,65904,task3,727556,false,false,988,image-keyboard-response,5
true,13,2,2,2,true,d,false,true,0.0-2.0-0.29-0.269-3.269,0,1,1,68,false,stim,false,2,846.8999999761581,2,1,2,65904,task3,729910,false,false,991,image-keyboard-response,6
true,13,1,2,1,true,z,false,true,0.0-2.0-0.30-0.270-3.270,0,1,1,90,false,stim,false,1,767.5,2,1,1,65904,task3,732206,false,false,994,image-keyboard-response,7
true,13,1,2,1,true,z,false,true,0.0-2.0-0.30-0.271-3.271,0,1,1,90,false,stim,false,1,432.4000000357628,2,1,1,65904,task3,734162,false,false,997,image-keyboard-response,8
true,13,1,2,1,true,z,false,true,0.0-2.0-0.30-0.272-3.272,0,1,1,90,false,stim,false,2,335.10000002384186,2,0,0,65904,task3,736034,false,false,1000,image-keyboard-response,9
true,13,2,2,2,true,d,false,true,0.0-2.0-0.30-0.273-3.273,0,1,1,68,false,stim,false,2,430.5,2,1,2,65904,task3,738003,false,false,1003,image-keyboard-response,10
true,13,2,2,2,true,d,false,true,0.0-2.0-0.30-0.274-3.274,0,1,1,68,false,stim,false,2,449.89999997615814,2,0,2,65904,task3,739976,false,false,1006,image-keyboard-response,11
true,13,1,2,1,true,z,false,true,0.0-2.0-0.30-0.275-3.275,0,1,1,90,false,stim,false,1,471.0,2,0,1,65904,task3,741972,false,false,1009,image-keyboard-response,12
true,13,1,2,1,true,z,false,true,0.0-2.0-0.30-0.276-3.276,0,1,1,90,false,stim,false,2,424.4000000357628,2,1,0,65904,task3,743917,false,false,1012,image-keyboard-response,13
true,13,1,2,1,true,z,false,true,0.0-2.0-0.30-0.277-3.277,0,1,1,90,false,stim,false,2,408.30000001192093,2,1,0,65904,task3,745839,false,false,1015,image-keyboard-response,14
true,13,2,2,2,true,d,false,true,0.0-2.0-0.30-0.278-3.278,0,1,1,68,false,stim,false,2,486.89999997615814,2,0,2,65904,task3,747846,false,false,1018,image-keyboard-response,15
true,14,2,1,1,false,z,false,false,0.0-2.0-0.31-0.279-3.279,1,0,0,68,true,stim,true,2,390.69999998807907,2,0,2,65904,task3,749746,false,false,1021,image-keyboard-response,1
true,14,1,1,0,false,q,false,false,0.0-2.0-0.31-0.280-3.280,1,0,0,90,false,stim,true,1,667.8999999761581,2,0,1,65904,task3,751942,false,false,1024,image-keyboard-response,2
true,14,1,1,1,true,z,false,true,0.0-2.0-0.31-0.281-3.281,1,0,0,90,false,stim,false,1,812.2999999523163,2,1,0,65904,task3,754278,false,false,1027,image-keyboard-response,3
true,14,2,1,1,false,z,false,false,0.0-2.0-0.31-0.282-3.282,1,0,0,68,false,stim,true,2,530.2000000476837,2,0,2,65904,task3,756320,false,false,1030,image-keyboard-response,4
true,14,0,1,0,true,q,false,true,0.0-2.0-0.31-0.283-3.283,1,0,0,81,false,stim,false,1,568.3000000119209,2,0,1,65904,task3,758408,false,false,1033,image-keyboard-response,5
true,14,1,1,1,true,z,false,true,0.0-2.0-0.31-0.284-3.284,1,0,0,90,false,stim,false,2,841.5,2,0,2,65904,task3,760779,false,false,1036,image-keyboard-response,6
true,14,0,1,0,true,q,false,true,0.0-2.0-0.31-0.285-3.285,1,0,0,81,false,stim,false,1,485.89999997615814,2,0,1,65904,task3,762780,false,false,1039,image-keyboard-response,7
true,14,1,1,1,true,z,false,true,0.0-2.0-0.31-0.286-3.286,1,0,0,90,false,stim,false,1,377.0999999642372,2,1,0,65904,task3,764695,false,false,1042,image-keyboard-response,8
true,14,1,1,1,true,z,false,true,0.0-2.0-0.31-0.287-3.287,1,0,0,90,false,stim,false,1,424.19999998807907,2,1,0,65904,task3,766634,false,false,1045,image-keyboard-response,9
true,14,1,1,1,true,z,false,true,0.0-2.0-0.32-0.288-3.288,1,0,0,90,false,stim,false,1,398.89999997615814,2,1,0,65904,task3,768565,false,false,1048,image-keyboard-response,10
true,14,0,1,0,true,q,false,true,0.0-2.0-0.32-0.289-3.289,1,0,0,81,false,stim,false,1,646.8999999761581,2,0,1,65904,task3,770732,false,false,1051,image-keyboard-response,11
true,14,0,1,0,true,q,false,true,0.0-2.0-0.32-0.290-3.290,1,0,0,81,false,stim,false,1,595.1000000238419,2,0,1,65904,task3,772845,false,false,1054,image-keyboard-response,12
true,14,1,1,1,true,z,false,true,0.0-2.0-0.32-0.291-3.291,1,0,0,90,false,stim,false,1,547.9000000357628,2,1,0,65904,task3,774918,false,false,1057,image-keyboard-response,13
true,14,1,1,1,true,z,false,true,0.0-2.0-0.32-0.292-3.292,1,0,0,90,false,stim,false,2,593.5,2,0,2,65904,task3,777052,false,false,1060,image-keyboard-response,14
true,14,1,1,1,true,z,false,true,0.0-2.0-0.32-0.293-3.293,1,0,0,90,false,stim,false,2,602.0999999642372,2,0,2,65904,task3,779183,false,false,1063,image-keyboard-response,15
true,14,1,1,1,true,z,false,true,0.0-2.0-0.32-0.294-3.294,1,0,0,90,false,stim,false,1,402.19999998807907,2,1,0,65904,task3,781111,false,false,1066,image-keyboard-response,16
true,14,0,1,0,true,q,false,true,0.0-2.0-0.32-0.295-3.295,1,0,0,81,false,stim,false,1,376.80000001192093,2,0,1,65904,task3,783023,false,false,1069,image-keyboard-response,17
true,14,1,1,1,true,z,false,true,0.0-2.0-0.32-0.296-3.296,1,0,0,90,false,stim,false,2,494.80000001192093,2,0,2,65904,task3,785026,false,false,1072,image-keyboard-response,18
true,14,1,1,1,true,z,false,true,0.0-2.0-0.33-0.297-3.297,1,0,0,90,false,stim,false,2,312.39999997615814,2,0,2,65904,task3,786875,false,false,1075,image-keyboard-response,19
true,14,1,1,1,true,z,false,true,0.0-2.0-0.33-0.298-3.298,1,0,0,90,false,stim,false,2,326.30000001192093,2,0,2,65904,task3,788728,false,false,1078,image-keyboard-response,20
true,14,1,1,1,true,z,false,true,0.0-2.0-0.33-0.299-3.299,1,0,0,90,false,stim,false,2,507.0,2,0,2,65904,task3,790746,false,false,1081,image-keyboard-response,21
true,14,0,1,0,true,q,false,true,0.0-2.0-0.33-0.300-3.300,1,0,0,81,false,stim,false,1,438.30000001192093,2,0,1,65904,task3,792715,false,false,1084,image-keyboard-response,22
true,14,1,1,1,true,z,false,true,0.0-2.0-0.33-0.301-3.301,1,0,0,90,false,stim,false,1,510.9000000357628,2,0,0,65904,task3,794739,false,false,1087,image-keyboard-response,23
true,14,1,1,0,false,q,false,false,0.0-2.0-0.33-0.302-3.302,1,0,0,90,false,stim,true,1,330.89999997615814,2,1,1,65904,task3,796609,false,false,1090,image-keyboard-response,24
true,14,1,1,1,true,z,false,true,0.0-2.0-0.33-0.303-3.303,1,0,0,90,false,stim,false,1,433.30000001192093,2,0,0,65904,task3,798562,false,false,1093,image-keyboard-response,25
true,14,0,1,0,true,q,false,true,0.0-2.0-0.33-0.304-3.304,1,0,0,81,false,stim,false,1,600.6999999880791,2,1,1,65904,task3,800693,false,false,1096,image-keyboard-response,26
true,14,1,1,1,true,z,false,true,0.0-2.0-0.33-0.305-3.305,1,0,0,90,false,stim,false,1,433.69999998807907,2,0,0,65904,task3,802640,false,false,1099,image-keyboard-response,27
true,15,0,1,0,true,q,false,true,0.0-2.0-0.34-0.306-3.306,0,1,0,81,true,stim,false,0,734.6000000238419,2,1,1,65904,task3,804900,false,false,1102,image-keyboard-response,1
true,15,1,1,0,false,q,false,false,0.0-2.0-0.34-0.307-3.307,0,1,0,90,false,stim,true,1,651.8999999761581,2,0,0,65904,task3,807081,false,false,1105,image-keyboard-response,2
true,15,0,1,0,true,q,false,true,0.0-2.0-0.34-0.308-3.308,0,1,0,81,false,stim,false,0,810.9000000357628,2,1,1,65904,task3,809406,false,false,1108,image-keyboard-response,3
true,15,1,1,2,false,d,false,false,0.0-2.0-0.34-0.309-3.309,0,1,0,90,false,stim,true,1,321.80000001192093,2,0,2,65904,task3,811236,false,false,1111,image-keyboard-response,4
true,15,0,1,0,true,q,false,false,0.0-2.0-0.34-0.310-3.310,0,1,0,81,false,stim,false,0,571.0,2,1,1,65904,task3,813314,false,true,1114,image-keyboard-response,5
true,15,2,1,0,false,q,true,false,0.0-2.0-0.34-0.311-3.311,0,1,0,68,false,stim,false,1,604.1999999880791,2,0,0,65904,task3,815440,false,false,1117,image-keyboard-response,6
true,15,2,1,2,true,d,false,true,0.0-2.0-0.34-0.312-3.312,0,1,0,68,false,stim,false,1,406.9000000357628,2,0,2,65904,task3,817364,false,false,1120,image-keyboard-response,7
true,15,2,1,2,true,d,false,true,0.0-2.0-0.34-0.313-3.313,0,1,0,68,false,stim,false,1,593.0,2,0,2,65904,task3,819483,false,false,1123,image-keyboard-response,8
true,15,0,1,0,true,q,false,true,0.0-2.0-0.34-0.314-3.314,0,1,0,81,false,stim,false,1,358.60000002384186,2,0,0,65904,task3,821368,false,false,1126,image-keyboard-response,9
true,15,1,1,0,false,q,true,false,0.0-2.0-0.35-0.315-3.315,0,1,0,90,false,stim,false,0,369.9000000357628,2,1,1,65904,task3,823246,false,false,1129,image-keyboard-response,10
true,15,2,1,2,true,d,false,true,0.0-2.0-0.35-0.316-3.316,0,1,0,68,false,stim,false,1,350.7000000476837,2,0,2,65904,task3,825106,false,false,1132,image-keyboard-response,11
true,15,2,1,0,false,q,true,true,0.0-2.0-0.35-0.317-3.317,0,1,0,68,false,stim,false,0,668.8000000119209,2,1,1,65904,task3,827310,false,true,1135,image-keyboard-response,12
true,15,2,1,2,true,d,false,true,0.0-2.0-0.35-0.318-3.318,0,1,0,68,false,stim,false,1,458.30000001192093,2,0,2,65904,task3,829295,false,false,1138,image-keyboard-response,13
true,15,2,1,0,false,q,true,false,0.0-2.0-0.35-0.319-3.319,0,1,0,68,false,stim,false,0,350.80000001192093,2,1,1,65904,task3,831155,false,false,1141,image-keyboard-response,14
true,15,0,1,0,true,q,false,true,0.0-2.0-0.35-0.320-3.320,0,1,0,81,false,stim,false,1,356.60000002384186,2,0,0,65904,task3,833053,false,false,1144,image-keyboard-response,15
true,15,0,1,0,true,q,false,true,0.0-2.0-0.35-0.321-3.321,0,1,0,81,false,stim,false,1,618.3000000119209,2,0,0,65904,task3,835191,false,false,1147,image-keyboard-response,16
true,15,0,1,0,true,q,false,true,0.0-2.0-0.35-0.322-3.322,0,1,0,81,false,stim,false,1,475.2999999523163,2,0,0,65904,task3,837185,false,false,1150,image-keyboard-response,17
true,15,2,1,2,true,d,false,true,0.0-2.0-0.35-0.323-3.323,0,1,0,68,false,stim,false,1,465.7000000476837,2,0,2,65904,task3,839170,false,false,1153,image-keyboard-response,18
true,15,0,1,0,true,q,false,true,0.0-2.0-0.36-0.324-3.324,0,1,0,81,false,stim,false,1,537.7000000476837,2,0,0,65904,task3,841249,false,false,1156,image-keyboard-response,19
true,15,0,1,0,true,q,false,true,0.0-2.0-0.36-0.325-3.325,0,1,0,81,false,stim,false,1,436.30000001192093,2,0,0,65904,task3,843212,false,false,1159,image-keyboard-response,20
true,15,2,1,2,true,d,false,true,0.0-2.0-0.36-0.326-3.326,0,1,0,68,false,stim,false,1,441.2000000476837,2,0,2,65904,task3,845174,false,false,1162,image-keyboard-response,21
true,15,2,1,2,true,d,false,true,0.0-2.0-0.36-0.327-3.327,0,1,0,68,false,stim,false,1,371.89999997615814,2,0,2,65904,task3,847069,false,false,1165,image-keyboard-response,22
true,15,2,1,0,false,q,true,false,0.0-2.0-0.36-0.328-3.328,0,1,0,68,false,stim,false,0,405.30000001192093,2,1,1,65904,task3,848994,false,false,1168,image-keyboard-response,23
true,15,0,1,0,true,q,false,true,0.0-2.0-0.36-0.329-3.329,0,1,0,81,false,stim,false,0,453.69999998807907,2,1,1,65904,task3,850976,false,false,1171,image-keyboard-response,24
true,15,2,1,2,true,d,false,true,0.0-2.0-0.36-0.330-3.330,0,1,0,68,false,stim,false,1,460.0,2,0,2,65904,task3,852964,false,false,1174,image-keyboard-response,25
true,15,0,1,0,true,q,false,true,0.0-2.0-0.36-0.331-3.331,0,1,0,81,false,stim,false,0,306.0,2,1,1,65904,task3,854782,false,false,1177,image-keyboard-response,26
true,15,0,1,0,true,q,false,true,0.0-2.0-0.36-0.332-3.332,0,1,0,81,false,stim,false,1,341.19999998807907,2,1,0,65904,task3,856660,false,false,1180,image-keyboard-response,27
true,15,2,1,2,true,d,false,true,0.0-2.0-0.37-0.333-3.333,0,1,0,68,false,stim,false,1,476.19999998807907,2,0,2,65904,task3,858644,false,false,1183,image-keyboard-response,28
true,15,0,1,0,true,q,false,false,0.0-2.0-0.37-0.334-3.334,0,1,0,81,false,stim,false,0,423.30000001192093,2,1,1,65904,task3,860582,false,true,1186,image-keyboard-response,29
true,16,0,2,0,true,q,false,true,0.0-2.0-0.37-0.335-3.335,1,1,0,81,true,stim,false,0,354.19999998807907,2,1,1,65904,task3,862451,false,false,1189,image-keyboard-response,1
true,16,2,2,1,false,z,false,false,0.0-2.0-0.37-0.336-3.336,1,1,0,68,false,stim,true,2,504.60000002384186,2,0,2,65904,task3,864481,false,false,1192,image-keyboard-response,2
true,16,0,2,0,true,q,false,true,0.0-2.0-0.37-0.337-3.337,1,1,0,81,false,stim,false,0,307.30000001192093,2,1,0,65904,task3,866319,false,false,1195,image-keyboard-response,3
true,16,0,2,0,true,q,false,true,0.0-2.0-0.37-0.338-3.338,1,1,0,81,false,stim,false,0,336.5,2,1,1,65904,task3,868184,false,false,1198,image-keyboard-response,4
true,16,2,2,1,false,z,false,false,0.0-2.0-0.37-0.339-3.339,1,1,0,68,false,stim,true,2,384.2999999523163,2,0,2,65904,task3,870106,false,false,1201,image-keyboard-response,5
true,16,0,2,0,true,q,false,true,0.0-2.0-0.37-0.340-3.340,1,1,0,81,false,stim,false,0,449.0,2,1,0,65904,task3,872086,false,false,1204,image-keyboard-response,6
true,16,0,2,0,true,q,false,true,0.0-2.0-0.37-0.341-3.341,1,1,0,81,false,stim,false,0,406.5,2,0,0,65904,task3,874012,false,false,1207,image-keyboard-response,7
true,16,0,2,0,true,q,false,true,0.0-2.0-0.38-0.342-3.342,1,1,0,81,false,stim,false,0,620.1999999880791,2,0,1,65904,task3,876163,false,false,1210,image-keyboard-response,8
true,16,0,2,0,true,q,false,true,0.0-2.0-0.38-0.343-3.343,1,1,0,81,false,stim,false,0,552.4000000357628,2,0,0,65904,task3,878239,false,false,1213,image-keyboard-response,9
true,16,0,2,0,true,q,false,true,0.0-2.0-0.38-0.344-3.344,1,1,0,81,false,stim,false,0,378.5999999642372,2,0,0,65904,task3,880132,false,false,1216,image-keyboard-response,10
true,16,1,2,1,true,z,false,true,0.0-2.0-0.38-0.345-3.345,1,1,0,90,false,stim,false,2,549.0,2,1,2,65904,task3,882190,false,false,1219,image-keyboard-response,11
true,17,1,1,1,true,z,false,true,0.0-2.0-0.38-0.346-3.346,0,0,1,90,true,stim,false,1,379.5999999642372,2,1,2,65904,task3,884087,false,false,1222,image-keyboard-response,1
true,17,0,1,2,false,d,false,false,0.0-2.0-0.38-0.347-3.347,0,0,1,81,false,stim,true,0,499.60000002384186,2,0,1,65904,task3,886112,false,false,1225,image-keyboard-response,2
true,17,1,1,1,true,z,false,true,0.0-2.0-0.38-0.348-3.348,0,0,1,90,false,stim,false,1,561.6999999880791,2,1,2,65904,task3,888204,false,false,1228,image-keyboard-response,3
true,17,0,1,2,false,d,false,false,0.0-2.0-0.38-0.349-3.349,0,0,1,81,false,stim,true,0,462.80000001192093,2,0,0,65904,task3,890183,false,false,1231,image-keyboard-response,4
true,17,1,1,2,false,d,true,false,0.0-2.0-0.38-0.350-3.350,0,0,1,90,false,stim,false,0,618.3000000119209,2,0,1,65904,task3,892318,false,false,1234,image-keyboard-response,5
true,17,2,1,2,true,d,false,true,0.0-2.0-0.39-0.351-3.351,0,0,1,68,false,stim,false,0,805.0999999642372,2,0,1,65904,task3,894657,false,false,1237,image-keyboard-response,6
true,17,1,1,2,false,d,true,false,0.0-2.0-0.39-0.352-3.352,0,0,1,90,false,stim,false,0,576.1000000238419,2,0,0,65904,task3,896755,false,false,1240,image-keyboard-response,7
true,17,1,1,1,true,z,false,true,0.0-2.0-0.39-0.353-3.353,0,0,1,90,false,stim,false,1,487.10000002384186,2,1,2,65904,task3,898769,false,false,1243,image-keyboard-response,8
true,17,2,1,2,true,d,false,true,0.0-2.0-0.39-0.354-3.354,0,0,1,68,false,stim,false,0,386.5,2,0,0,65904,task3,900677,false,false,1246,image-keyboard-response,9
true,17,1,1,1,true,z,false,true,0.0-2.0-0.39-0.355-3.355,0,0,1,90,false,stim,false,1,442.60000002384186,2,1,2,65904,task3,902655,false,false,1249,image-keyboard-response,10
true,17,1,1,1,true,z,false,true,0.0-2.0-0.39-0.356-3.356,0,0,1,90,false,stim,false,1,899.6999999880791,2,1,2,65904,task3,905083,false,false,1252,image-keyboard-response,11
true,17,2,1,2,true,d,false,true,0.0-2.0-0.39-0.357-3.357,0,0,1,68,false,stim,false,0,358.89999997615814,2,0,1,65904,task3,906973,false,false,1255,image-keyboard-response,12
true,17,2,1,2,true,d,false,true,0.0-2.0-0.39-0.358-3.358,0,0,1,68,false,stim,false,0,949.6999999880791,2,0,1,65904,task3,909437,false,false,1258,image-keyboard-response,13
true,17,2,1,2,true,d,false,true,0.0-2.0-0.39-0.359-3.359,0,0,1,68,false,stim,false,0,795.6999999880791,2,0,0,65904,task3,911751,false,false,1261,image-keyboard-response,14
true,17,2,1,2,true,d,false,true,0.0-2.0-0.40-0.360-3.360,0,0,1,68,false,stim,false,0,501.5,2,0,0,65904,task3,913771,false,false,1264,image-keyboard-response,15
true,17,2,1,2,true,d,false,true,0.0-2.0-0.40-0.361-3.361,0,0,1,68,false,stim,false,0,558.7999999523163,2,0,1,65904,task3,915851,false,false,1267,image-keyboard-response,16
true,17,1,1,1,true,z,false,false,0.0-2.0-0.40-0.362-3.362,0,0,1,90,false,stim,false,1,561.6999999880791,2,1,2,65904,task3,917932,false,true,1270,image-keyboard-response,17
true,17,1,1,1,true,z,false,true,0.0-2.0-0.40-0.363-3.363,0,0,1,90,false,stim,false,1,881.8999999761581,2,1,2,65904,task3,920345,false,false,1273,image-keyboard-response,18
true,17,2,1,2,true,d,false,true,0.0-2.0-0.40-0.364-3.364,0,0,1,68,false,stim,false,0,481.19999998807907,2,0,0,65904,task3,922351,false,false,1276,image-keyboard-response,19
true,17,2,1,2,true,d,false,true,0.0-2.0-0.40-0.365-3.365,0,0,1,68,false,stim,false,0,491.0,2,0,0,65904,task3,924378,false,false,1279,image-keyboard-response,20
true,17,2,1,2,true,d,false,true,0.0-2.0-0.40-0.366-3.366,0,0,1,68,false,stim,false,0,440.7999999523163,2,0,1,65904,task3,926337,false,false,1282,image-keyboard-response,21
true,17,2,1,2,true,d,false,true,0.0-2.0-0.40-0.367-3.367,0,0,1,68,false,stim,false,0,413.9000000357628,2,0,1,65904,task3,928274,false,false,1285,image-keyboard-response,22
true,17,1,1,1,true,z,false,true,0.0-2.0-0.40-0.368-3.368,0,0,1,90,false,stim,false,1,598.3999999761581,2,1,2,65904,task3,930405,false,false,1288,image-keyboard-response,23
true,17,2,1,2,true,d,false,true,0.0-2.0-0.41-0.369-3.369,0,0,1,68,false,stim,false,0,1073.0,2,0,1,65904,task3,932986,false,false,1291,image-keyboard-response,24
true,17,2,1,1,false,z,true,false,0.0-2.0-0.41-0.370-3.370,0,0,1,68,false,stim,false,1,821.4000000357628,2,1,2,65904,task3,935313,false,false,1294,image-keyboard-response,25
true,17,2,1,2,true,d,false,true,0.0-2.0-0.41-0.371-3.371,0,0,1,68,false,stim,false,0,536.0,2,0,1,65904,task3,937380,false,false,1297,image-keyboard-response,26
true,17,2,1,2,true,d,false,true,0.0-2.0-0.41-0.372-3.372,0,0,1,68,false,stim,false,0,597.0999999642372,2,1,0,65904,task3,939498,false,false,1300,image-keyboard-response,27
true,18,2,2,2,true,d,false,true,0.0-2.0-0.41-0.373-3.373,1,0,1,68,true,stim,false,2,400.0999999642372,2,1,0,65904,task3,941422,false,false,1303,image-keyboard-response,1
true,18,1,2,1,true,z,false,true,0.0-2.0-0.41-0.374-3.374,1,0,1,90,false,stim,false,1,340.5999999642372,2,1,2,65904,task3,943296,false,false,1306,image-keyboard-response,2
true,18,2,2,2,true,d,false,true,0.0-2.0-0.41-0.375-3.375,1,0,1,68,false,stim,false,2,528.5,2,1,0,65904,task3,945359,false,false,1309,image-keyboard-response,3
true,18,2,2,0,false,q,false,false,0.0-2.0-0.41-0.376-3.376,1,0,1,68,false,stim,true,2,399.30000001192093,2,0,1,65904,task3,947269,false,false,1312,image-keyboard-response,4
true,18,1,2,1,true,z,false,true,0.0-2.0-0.41-0.377-3.377,1,0,1,90,false,stim,false,1,459.39999997615814,2,1,2,65904,task3,949271,false,false,1315,image-keyboard-response,5
true,18,1,2,1,true,z,false,false,0.0-2.0-0.42-0.378-3.378,1,0,1,90,false,stim,false,1,424.0,2,1,2,65904,task3,951221,false,true,1318,image-keyboard-response,6
true,18,2,2,2,true,d,false,true,0.0-2.0-0.42-0.379-3.379,1,0,1,68,false,stim,false,2,487.19999998807907,2,1,0,65904,task3,953231,false,false,1321,image-keyboard-response,7
true,18,2,2,2,true,d,false,true,0.0-2.0-0.42-0.380-3.380,1,0,1,68,false,stim,false,2,527.3999999761581,2,1,0,65904,task3,955283,false,false,1324,image-keyboard-response,8
true,18,2,2,0,false,q,false,false,0.0-2.0-0.42-0.381-3.381,1,0,1,68,false,stim,true,2,471.69999998807907,2,0,1,65904,task3,957297,false,false,1327,image-keyboard-response,9
true,18,1,2,1,true,z,false,false,0.0-2.0-0.42-0.382-3.382,1,0,1,90,false,stim,false,1,1319.5,2,1,2,65904,task3,960143,false,true,1330,image-keyboard-response,10
true,18,2,2,2,true,d,false,true,0.0-2.0-0.42-0.383-3.383,1,0,1,68,false,stim,false,2,420.30000001192093,2,1,0,65904,task3,962082,false,false,1333,image-keyboard-response,11
true,18,0,2,0,true,q,false,true,0.0-2.0-0.42-0.384-3.384,1,0,1,81,false,stim,false,2,515.5999999642372,2,0,1,65904,task3,964117,false,false,1336,image-keyboard-response,12
true,18,2,2,1,false,z,true,false,0.0-2.0-0.42-0.385-3.385,1,0,1,68,false,stim,false,1,582.0,2,1,2,65904,task3,966234,false,false,1339,image-keyboard-response,13
true,18,0,2,0,true,q,false,true,0.0-2.0-0.42-0.386-3.386,1,0,1,81,false,stim,false,2,441.2999999523163,2,0,1,65904,task3,968193,false,false,1342,image-keyboard-response,14
true,18,2,2,2,true,d,false,true,0.0-2.0-0.43-0.387-3.387,1,0,1,68,false,stim,false,2,459.7999999523163,2,1,0,65904,task3,970161,false,false,1345,image-keyboard-response,15
true,18,0,2,1,false,z,true,false,0.0-2.0-0.43-0.388-3.388,1,0,1,81,false,stim,false,1,385.5999999642372,2,1,2,65904,task3,972071,false,false,1348,image-keyboard-response,16
true,18,0,2,0,true,q,false,true,0.0-2.0-0.43-0.389-3.389,1,0,1,81,false,stim,false,2,503.60000002384186,2,0,1,65904,task3,974109,false,false,1351,image-keyboard-response,17
true,18,0,2,0,true,q,false,true,0.0-2.0-0.43-0.390-3.390,1,0,1,81,false,stim,false,2,591.2000000476837,2,0,1,65904,task3,976218,false,false,1354,image-keyboard-response,18
true,18,0,2,0,true,q,false,true,0.0-2.0-0.43-0.391-3.391,1,0,1,81,false,stim,false,2,425.60000002384186,2,0,1,65904,task3,978160,false,false,1357,image-keyboard-response,19
true,18,2,2,2,true,d,false,true,0.0-2.0-0.43-0.392-3.392,1,0,1,68,false,stim,false,2,428.69999998807907,2,1,0,65904,task3,980111,false,false,1360,image-keyboard-response,20
true,18,2,2,1,false,z,true,false,0.0-2.0-0.43-0.393-3.393,1,0,1,68,false,stim,false,1,338.0999999642372,2,1,2,65904,task3,981957,false,false,1363,image-keyboard-response,21
true,18,1,2,1,true,z,false,true,0.0-2.0-0.43-0.394-3.394,1,0,1,90,false,stim,false,1,772.0,2,1,2,65904,task3,984241,false,false,1366,image-keyboard-response,22
true,18,2,2,2,true,d,false,true,0.0-2.0-0.43-0.395-3.395,1,0,1,68,false,stim,false,2,546.1999999880791,2,1,0,65904,task3,986301,false,false,1369,image-keyboard-response,23
true,18,1,2,1,true,z,false,true,0.0-2.0-0.44-0.396-3.396,1,0,1,90,false,stim,false,1,756.8000000119209,2,1,2,65904,task3,988573,false,false,1372,image-keyboard-response,24
true,19,1,2,1,true,z,false,true,0.0-2.0-0.44-0.397-3.397,1,0,1,90,true,stim,false,1,408.89999997615814,2,1,2,65904,task3,990504,false,false,1375,image-keyboard-response,1
true,19,2,2,2,true,d,false,true,0.0-2.0-0.44-0.398-3.398,1,0,1,68,false,stim,false,2,525.1999999880791,2,1,0,65904,task3,992553,false,false,1378,image-keyboard-response,2
true,19,0,2,1,false,z,false,false,0.0-2.0-0.44-0.399-3.399,1,0,1,81,false,stim,true,0,523.0,2,0,1,65904,task3,994607,false,false,1381,image-keyboard-response,3
true,19,2,2,2,true,d,false,true,0.0-2.0-0.44-0.400-3.400,1,0,1,68,false,stim,false,2,549.1999999880791,2,1,0,65904,task3,996669,false,false,1384,image-keyboard-response,4
true,19,1,2,1,true,z,false,false,0.0-2.0-0.44-0.401-3.401,1,0,1,90,false,stim,false,1,332.5,2,1,2,65904,task3,998538,false,true,1387,image-keyboard-response,5
true,19,0,2,1,false,z,false,true,0.0-2.0-0.44-0.402-3.402,1,0,1,81,false,stim,true,0,380.30000001192093,2,0,1,65904,task3,1000457,false,true,1390,image-keyboard-response,6
true,19,0,2,1,false,z,false,false,0.0-2.0-0.44-0.403-3.403,1,0,1,81,false,stim,true,0,544.6999999880791,2,0,1,65904,task3,1002541,false,false,1393,image-keyboard-response,7
true,19,2,2,2,true,d,false,true,0.0-2.0-0.44-0.404-3.404,1,0,1,68,false,stim,false,2,483.80000001192093,2,1,0,65904,task3,1004556,false,false,1396,image-keyboard-response,8
true,19,2,2,2,true,d,false,true,0.0-2.0-0.45-0.405-3.405,1,0,1,68,false,stim,false,2,458.4000000357628,2,1,0,65904,task3,1006537,false,false,1399,image-keyboard-response,9
true,19,0,2,1,false,z,false,false,0.0-2.0-0.45-0.406-3.406,1,0,1,81,false,stim,true,0,529.8000000119209,2,0,1,65904,task3,1008585,false,false,1402,image-keyboard-response,10
true,19,1,2,1,true,z,false,true,0.0-2.0-0.45-0.407-3.407,1,0,1,90,false,stim,false,0,865.0999999642372,2,1,1,65904,task3,1010991,false,false,1405,image-keyboard-response,11
true,19,2,2,2,true,d,false,true,0.0-2.0-0.45-0.408-3.408,1,0,1,68,false,stim,false,2,459.10000002384186,2,0,0,65904,task3,1012990,false,false,1408,image-keyboard-response,12
true,19,1,2,1,true,z,false,true,0.0-2.0-0.45-0.409-3.409,1,0,1,90,false,stim,false,1,423.5,2,1,2,65904,task3,1014939,false,false,1411,image-keyboard-response,13
true,19,2,2,2,true,d,false,true,0.0-2.0-0.45-0.410-3.410,1,0,1,68,false,stim,false,2,618.3999999761581,2,0,0,65904,task3,1017074,false,false,1414,image-keyboard-response,14
true,19,1,2,1,true,z,false,true,0.0-2.0-0.45-0.411-3.411,1,0,1,90,false,stim,false,1,340.80000001192093,2,1,2,65904,task3,1018945,false,false,1417,image-keyboard-response,15
true,20,1,2,1,true,z,false,true,0.0-2.0-0.45-0.412-3.412,0,1,1,90,true,stim,false,1,386.30000001192093,2,1,2,65904,task3,1020846,false,false,1420,image-keyboard-response,1
true,20,1,2,1,true,z,false,true,0.0-2.0-0.45-0.413-3.413,0,1,1,90,false,stim,false,1,488.0,2,1,1,65904,task3,1022850,false,false,1423,image-keyboard-response,2
true,20,2,2,0,false,q,false,false,0.0-2.0-0.46-0.414-3.414,0,1,1,68,false,stim,true,2,652.8000000119209,2,0,0,65904,task3,1025018,false,false,1426,image-keyboard-response,3
true,20,1,2,1,true,z,false,true,0.0-2.0-0.46-0.415-3.415,0,1,1,90,false,stim,false,1,468.0,2,1,2,65904,task3,1027019,false,false,1429,image-keyboard-response,4
true,20,1,2,1,true,z,false,true,0.0-2.0-0.46-0.416-3.416,0,1,1,90,false,stim,false,1,350.69999998807907,2,1,2,65904,task3,1028889,false,false,1432,image-keyboard-response,5
true,20,1,2,1,true,z,false,true,0.0-2.0-0.46-0.417-3.417,0,1,1,90,false,stim,false,1,542.3000000119209,2,1,1,65904,task3,1030943,false,false,1435,image-keyboard-response,6
true,20,1,2,1,true,z,false,true,0.0-2.0-0.46-0.418-3.418,0,1,1,90,false,stim,false,1,415.89999997615814,2,1,1,65904,task3,1032881,false,false,1438,image-keyboard-response,7
true,20,0,2,0,true,q,false,true,0.0-2.0-0.46-0.419-3.419,0,1,1,81,false,stim,false,2,344.9000000357628,2,0,0,65904,task3,1034737,false,false,1441,image-keyboard-response,8
true,20,0,2,0,true,q,false,true,0.0-2.0-0.46-0.420-3.420,0,1,1,81,false,stim,false,2,708.3000000119209,2,0,0,65904,task3,1036990,false,false,1444,image-keyboard-response,9
true,20,1,2,1,true,z,false,true,0.0-2.0-0.46-0.421-3.421,0,1,1,90,false,stim,false,1,405.60000002384186,2,1,2,65904,task3,1038921,false,false,1447,image-keyboard-response,10
true,20,1,2,1,true,z,false,true,0.0-2.0-0.46-0.422-3.422,0,1,1,90,false,stim,false,1,301.9000000357628,2,1,1,65904,task3,1040745,false,false,1450,image-keyboard-response,11
true,20,0,2,0,true,q,false,false,0.0-2.0-0.47-0.423-3.423,0,1,1,81,false,stim,false,2,310.89999997615814,2,0,0,65904,task3,1042579,false,true,1453,image-keyboard-response,12
true,20,0,2,0,true,q,false,true,0.0-2.0-0.47-0.424-3.424,0,1,1,81,false,stim,false,2,418.5,2,0,0,65904,task3,1044513,false,false,1456,image-keyboard-response,13
true,20,0,2,0,true,q,false,true,0.0-2.0-0.47-0.425-3.425,0,1,1,81,false,stim,false,2,383.89999997615814,2,0,0,65904,task3,1046435,false,false,1459,image-keyboard-response,14
true,20,1,2,1,true,z,false,true,0.0-2.0-0.47-0.426-3.426,0,1,1,90,false,stim,false,1,336.60000002384186,2,1,1,65904,task3,1048282,false,false,1462,image-keyboard-response,15
true,20,1,2,1,true,z,false,true,0.0-2.0-0.47-0.427-3.427,0,1,1,90,false,stim,false,1,356.5999999642372,2,1,1,65904,task3,1050159,false,false,1465,image-keyboard-response,16
true,20,1,2,1,true,z,false,true,0.0-2.0-0.47-0.428-3.428,0,1,1,90,false,stim,false,1,321.5999999642372,2,1,2,65904,task3,1052004,false,false,1468,image-keyboard-response,17
true,20,1,2,1,true,z,false,true,0.0-2.0-0.47-0.429-3.429,0,1,1,90,false,stim,false,1,381.5999999642372,2,1,1,65904,task3,1053916,false,false,1471,image-keyboard-response,18
true,20,1,2,1,true,z,false,true,0.0-2.0-0.47-0.430-3.430,0,1,1,90,false,stim,false,1,386.0,2,1,2,65904,task3,1055833,false,false,1474,image-keyboard-response,19
true,20,1,2,1,true,z,false,true,0.0-2.0-0.47-0.431-3.431,0,1,1,90,false,stim,false,1,497.89999997615814,2,1,2,65904,task3,1057854,false,false,1477,image-keyboard-response,20
true,20,1,2,1,true,z,false,true,0.0-2.0-0.48-0.432-3.432,0,1,1,90,false,stim,false,1,358.7000000476837,2,1,2,65904,task3,1059746,false,false,1480,image-keyboard-response,21
true,20,0,2,0,true,q,false,true,0.0-2.0-0.48-0.433-3.433,0,1,1,81,false,stim,false,2,711.6000000238419,2,0,0,65904,task3,1061972,false,false,1483,image-keyboard-response,22
true,20,1,2,1,true,z,false,true,0.0-2.0-0.48-0.434-3.434,0,1,1,90,false,stim,false,1,445.4000000357628,2,1,2,65904,task3,1063944,false,false,1486,image-keyboard-response,23
true,20,0,2,0,true,q,false,true,0.0-2.0-0.48-0.435-3.435,0,1,1,81,false,stim,false,2,428.30000001192093,2,0,0,65904,task3,1065886,false,false,1489,image-keyboard-response,24
true,20,1,2,1,true,z,false,true,0.0-2.0-0.48-0.436-3.436,0,1,1,90,false,stim,false,1,445.0,2,0,1,65904,task3,1067866,false,false,1492,image-keyboard-response,25
true,20,0,2,0,true,q,false,true,0.0-2.0-0.48-0.437-3.437,0,1,1,81,false,stim,false,2,435.89999997615814,2,0,0,65904,task3,1069834,false,false,1495,image-keyboard-response,26
true,20,1,2,1,true,z,false,true,0.0-2.0-0.48-0.438-3.438,0,1,1,90,false,stim,false,1,543.8000000119209,2,0,1,65904,task3,1071889,false,false,1498,image-keyboard-response,27
true,20,1,2,1,true,z,false,true,0.0-2.0-0.48-0.439-3.439,0,1,1,90,false,stim,false,1,449.4000000357628,2,1,2,65904,task3,1073853,false,false,1501,image-keyboard-response,28
true,20,1,2,1,true,z,false,true,0.0-2.0-0.48-0.440-3.440,0,1,1,90,false,stim,false,1,380.60000002384186,2,0,1,65904,task3,1075763,false,false,1504,image-keyboard-response,29
true,21,1,1,2,false,d,false,false,0.0-2.0-0.49-0.441-3.441,0,0,1,90,true,stim,true,1,355.0,2,0,1,65904,task3,1077630,false,false,1507,image-keyboard-response,1
true,21,1,1,2,false,d,false,false,0.0-2.0-0.49-0.442-3.442,0,0,1,90,false,stim,true,1,361.5,2,0,1,65904,task3,1079515,false,false,1510,image-keyboard-response,2
true,21,2,1,2,true,d,false,true,0.0-2.0-0.49-0.443-3.443,0,0,1,68,false,stim,false,1,430.19999998807907,2,0,1,65904,task3,1081468,false,false,1513,image-keyboard-response,3
true,21,1,1,1,true,z,false,true,0.0-2.0-0.49-0.444-3.444,0,0,1,90,false,stim,false,1,382.5,2,1,2,65904,task3,1083370,false,false,1516,image-keyboard-response,4
true,21,1,1,1,true,z,false,true,0.0-2.0-0.49-0.445-3.445,0,0,1,90,false,stim,false,1,389.89999997615814,2,1,2,65904,task3,1085292,false,false,1519,image-keyboard-response,5
true,21,0,1,1,false,z,false,false,0.0-2.0-0.49-0.446-3.446,0,0,1,81,false,stim,true,0,316.69999998807907,2,0,0,65904,task3,1087136,false,false,1522,image-keyboard-response,6
true,21,1,1,1,true,z,false,true,0.0-2.0-0.49-0.447-3.447,0,0,1,90,false,stim,false,1,586.4000000357628,2,1,2,65904,task3,1089245,false,false,1525,image-keyboard-response,7
true,21,0,1,1,false,z,false,false,0.0-2.0-0.49-0.448-3.448,0,0,1,81,false,stim,true,0,312.80000001192093,2,0,0,65904,task3,1091072,false,false,1528,image-keyboard-response,8
true,21,2,1,1,false,z,true,true,0.0-2.0-0.49-0.449-3.449,0,0,1,68,false,stim,false,0,501.4000000357628,2,0,0,65904,task3,1093125,false,true,1531,image-keyboard-response,9
true,21,1,1,1,true,z,false,true,0.0-2.0-0.50-0.450-3.450,0,0,1,90,false,stim,false,1,592.7999999523163,2,1,2,65904,task3,1095235,false,false,1534,image-keyboard-response,10
true,21,2,1,2,true,d,false,true,0.0-2.0-0.50-0.451-3.451,0,0,1,68,false,stim,false,1,324.5,2,0,1,65904,task3,1097087,false,false,1537,image-keyboard-response,11
true,21,2,1,2,true,d,false,true,0.0-2.0-0.50-0.452-3.452,0,0,1,68,false,stim,false,1,309.2999999523163,2,0,1,65904,task3,1098922,false,false,1540,image-keyboard-response,12
true,21,1,1,1,true,z,false,true,0.0-2.0-0.50-0.453-3.453,0,0,1,90,false,stim,false,1,671.4000000357628,2,1,2,65904,task3,1101114,false,false,1543,image-keyboard-response,13
true,21,2,1,1,false,z,true,false,0.0-2.0-0.50-0.454-3.454,0,0,1,68,false,stim,false,0,372.9000000357628,2,0,0,65904,task3,1103011,false,false,1546,image-keyboard-response,14
true,21,2,1,1,false,z,true,false,0.0-2.0-0.50-0.455-3.455,0,0,1,68,false,stim,false,0,349.4000000357628,2,0,0,65904,task3,1104877,false,false,1549,image-keyboard-response,15
true,21,1,1,2,false,d,false,false,0.0-2.0-0.50-0.456-3.456,0,0,1,90,false,stim,true,1,422.39999997615814,2,0,1,65904,task3,1106812,false,false,1552,image-keyboard-response,16
true,21,1,1,1,true,z,false,true,0.0-2.0-0.50-0.457-3.457,0,0,1,90,false,stim,false,1,507.0,2,1,2,65904,task3,1108838,false,false,1555,image-keyboard-response,17
true,21,0,1,1,false,z,false,false,0.0-2.0-0.50-0.458-3.458,0,0,1,81,false,stim,true,0,760.1000000238419,2,0,0,65904,task3,1111123,false,false,1558,image-keyboard-response,18
true,21,1,1,1,true,z,false,true,0.0-2.0-0.51-0.459-3.459,0,0,1,90,false,stim,false,0,381.80000001192093,2,0,0,65904,task3,1113040,false,false,1561,image-keyboard-response,19
true,21,2,1,2,true,d,false,true,0.0-2.0-0.51-0.460-3.460,0,0,1,68,false,stim,false,1,531.3000000119209,2,0,1,65904,task3,1115098,false,false,1564,image-keyboard-response,20
true,21,2,1,2,true,d,false,true,0.0-2.0-0.51-0.461-3.461,0,0,1,68,false,stim,false,1,1118.800000011921,2,0,1,65904,task3,1117740,false,false,1567,image-keyboard-response,21
true,21,1,1,1,true,z,false,true,0.0-2.0-0.51-0.462-3.462,0,0,1,90,false,stim,false,0,655.0,2,1,0,65904,task3,1119934,false,false,1570,image-keyboard-response,22
true,21,1,1,1,true,z,false,true,0.0-2.0-0.51-0.463-3.463,0,0,1,90,false,stim,false,1,310.7000000476837,2,0,2,65904,task3,1121759,false,false,1573,image-keyboard-response,23
true,21,1,1,1,true,z,false,true,0.0-2.0-0.51-0.464-3.464,0,0,1,90,false,stim,false,0,354.80000001192093,2,1,0,65904,task3,1123637,false,false,1576,image-keyboard-response,24
true,21,1,1,2,false,d,false,false,0.0-2.0-0.51-0.465-3.465,0,0,1,90,false,stim,true,1,363.4000000357628,2,0,1,65904,task3,1125529,false,false,1579,image-keyboard-response,25
true,21,1,1,1,true,z,false,false,0.0-2.0-0.51-0.466-3.466,0,0,1,90,false,stim,false,1,479.69999998807907,2,0,2,65904,task3,1127542,false,true,1582,image-keyboard-response,26
true,22,1,1,0,false,q,false,false,0.0-2.0-0.51-0.467-3.467,1,0,0,90,true,stim,true,1,532.3999999761581,2,0,2,65904,task3,1129619,false,false,1585,image-keyboard-response,1
true,22,1,1,1,true,z,false,true,0.0-2.0-0.52-0.468-3.468,1,0,0,90,false,stim,false,1,872.6000000238419,2,1,0,65904,task3,1132020,false,false,1588,image-keyboard-response,2
true,22,2,1,0,false,q,false,false,0.0-2.0-0.52-0.469-3.469,1,0,0,68,false,stim,true,2,617.5,2,0,1,65904,task3,1134167,false,false,1591,image-keyboard-response,3
true,22,2,1,0,false,q,true,false,0.0-2.0-0.52-0.470-3.470,1,0,0,68,false,stim,false,1,464.4000000357628,2,0,2,65904,task3,1136164,false,false,1594,image-keyboard-response,4
true,22,1,1,1,true,z,false,true,0.0-2.0-0.52-0.471-3.471,1,0,0,90,false,stim,false,1,464.89999997615814,2,1,0,65904,task3,1138140,false,false,1597,image-keyboard-response,5
true,22,2,1,0,false,q,false,false,0.0-2.0-0.52-0.472-3.472,1,0,0,68,false,stim,true,2,774.6999999880791,2,0,1,65904,task3,1140422,false,false,1600,image-keyboard-response,6
true,22,1,1,1,true,z,false,true,0.0-2.0-0.52-0.473-3.473,1,0,0,90,false,stim,false,1,569.8999999761581,2,1,0,65904,task3,1142517,false,false,1603,image-keyboard-response,7
true,22,1,1,0,false,q,true,false,0.0-2.0-0.52-0.474-3.474,1,0,0,90,false,stim,false,2,489.0,2,0,1,65904,task3,1144515,false,false,1606,image-keyboard-response,8
true,22,2,1,0,false,q,true,false,0.0-2.0-0.52-0.475-3.475,1,0,0,68,false,stim,false,1,882.3000000119209,2,0,2,65904,task3,1146913,false,false,1609,image-keyboard-response,9
true,22,0,1,0,true,q,false,true,0.0-2.0-0.52-0.476-3.476,1,0,0,81,false,stim,false,1,662.6999999880791,2,0,2,65904,task3,1149104,false,false,1612,image-keyboard-response,10
true,22,1,1,1,true,z,false,false,0.0-2.0-0.53-0.477-3.477,1,0,0,90,false,stim,false,1,627.6999999880791,2,1,0,65904,task3,1151240,false,true,1615,image-keyboard-response,11
true,22,1,1,1,true,z,false,true,0.0-2.0-0.53-0.478-3.478,1,0,0,90,false,stim,false,1,807.8999999761581,2,1,0,65904,task3,1153561,false,false,1618,image-keyboard-response,12
true,22,0,1,0,true,q,false,true,0.0-2.0-0.53-0.479-3.479,1,0,0,81,false,stim,false,2,460.7000000476837,2,0,1,65904,task3,1155541,false,false,1621,image-keyboard-response,13
true,22,0,1,0,true,q,false,false,0.0-2.0-0.53-0.480-3.480,1,0,0,81,false,stim,false,1,375.0,2,0,2,65904,task3,1157450,false,true,1624,image-keyboard-response,14
true,22,0,1,0,true,q,false,true,0.0-2.0-0.53-0.481-3.481,1,0,0,81,false,stim,false,2,324.30000001192093,2,0,1,65904,task3,1159294,false,false,1627,image-keyboard-response,15
true,22,0,1,0,true,q,false,true,0.0-2.0-0.53-0.482-3.482,1,0,0,81,false,stim,false,1,342.30000001192093,2,0,2,65904,task3,1161165,false,false,1630,image-keyboard-response,16
true,22,0,1,0,true,q,false,true,0.0-2.0-0.53-0.483-3.483,1,0,0,81,false,stim,false,1,381.80000001192093,2,0,2,65904,task3,1163070,false,false,1633,image-keyboard-response,17
true,22,0,1,0,true,q,false,true,0.0-2.0-0.53-0.484-3.484,1,0,0,81,false,stim,false,2,454.10000002384186,2,0,1,65904,task3,1165054,false,false,1636,image-keyboard-response,18
true,22,1,1,1,true,z,false,true,0.0-2.0-0.53-0.485-3.485,1,0,0,90,false,stim,false,1,477.0,2,1,0,65904,task3,1167060,false,false,1639,image-keyboard-response,19
true,22,0,1,0,true,q,false,true,0.0-2.0-0.54-0.486-3.486,1,0,0,81,false,stim,false,1,399.60000002384186,2,0,2,65904,task3,1168999,false,false,1642,image-keyboard-response,20
true,22,1,1,1,true,z,false,true,0.0-2.0-0.54-0.487-3.487,1,0,0,90,false,stim,false,1,559.1999999880791,2,1,0,65904,task3,1171070,false,false,1645,image-keyboard-response,21
true,22,0,1,0,true,q,false,true,0.0-2.0-0.54-0.488-3.488,1,0,0,81,false,stim,false,2,546.7000000476837,2,0,1,65904,task3,1173154,false,false,1648,image-keyboard-response,22
true,22,1,1,1,true,z,false,true,0.0-2.0-0.54-0.489-3.489,1,0,0,90,false,stim,false,1,570.1999999880791,2,0,0,65904,task3,1175242,false,false,1651,image-keyboard-response,23
true,22,0,1,0,true,q,false,true,0.0-2.0-0.54-0.490-3.490,1,0,0,81,false,stim,false,2,410.0999999642372,2,0,1,65904,task3,1177165,false,false,1654,image-keyboard-response,24
true,22,1,1,0,false,q,false,false,0.0-2.0-0.54-0.491-3.491,1,0,0,90,false,stim,true,1,467.5,2,1,2,65904,task3,1179162,false,false,1657,image-keyboard-response,25
true,22,0,1,0,true,q,false,true,0.0-2.0-0.54-0.492-3.492,1,0,0,81,false,stim,false,2,448.5,2,0,1,65904,task3,1181128,false,false,1660,image-keyboard-response,26
true,22,1,1,1,true,z,false,true,0.0-2.0-0.54-0.493-3.493,1,0,0,90,false,stim,false,1,544.6000000238419,2,0,0,65904,task3,1183222,false,false,1663,image-keyboard-response,27
true,23,0,1,0,true,q,false,true,0.0-2.0-0.54-0.494-3.494,0,0,1,81,true,stim,false,0,366.69999998807907,2,1,2,65904,task3,1185106,false,false,1666,image-keyboard-response,1
true,23,0,1,1,false,z,false,false,0.0-2.0-0.55-0.495-3.495,0,0,1,81,false,stim,true,0,362.19999998807907,2,0,1,65904,task3,1186988,false,false,1669,image-keyboard-response,2
true,23,0,1,1,false,z,false,false,0.0-2.0-0.55-0.496-3.496,0,0,1,81,false,stim,true,0,472.80000001192093,2,0,1,65904,task3,1188984,false,false,1672,image-keyboard-response,3
true,23,1,1,0,false,q,false,false,0.0-2.0-0.55-0.497-3.497,0,0,1,90,false,stim,true,1,388.80000001192093,2,0,0,65904,task3,1190882,false,false,1675,image-keyboard-response,4
true,23,2,1,0,false,q,true,false,0.0-2.0-0.55-0.498-3.498,0,0,1,68,false,stim,false,1,477.60000002384186,2,0,0,65904,task3,1192896,false,false,1678,image-keyboard-response,5
true,23,2,1,0,false,q,true,false,0.0-2.0-0.55-0.499-3.499,0,0,1,68,false,stim,false,0,743.2000000476837,2,1,2,65904,task3,1195158,false,false,1681,image-keyboard-response,6
true,23,0,1,0,true,q,false,true,0.0-2.0-0.55-0.500-3.500,0,0,1,81,false,stim,false,1,764.8000000119209,2,0,0,65904,task3,1197443,false,false,1684,image-keyboard-response,7
true,23,0,1,1,false,z,false,true,0.0-2.0-0.55-0.501-3.501,0,0,1,81,false,stim,true,0,373.69999998807907,2,0,1,65904,task3,1199346,false,true,1687,image-keyboard-response,8
true,23,1,1,0,false,q,true,false,0.0-2.0-0.55-0.502-3.502,0,0,1,90,false,stim,false,0,348.10000002384186,2,1,2,65904,task3,1201215,false,false,1690,image-keyboard-response,9
true,23,2,1,0,false,q,true,false,0.0-2.0-0.55-0.503-3.503,0,0,1,68,false,stim,false,0,700.1999999880791,2,1,2,65904,task3,1203447,false,false,1693,image-keyboard-response,10
true,23,0,1,1,false,z,false,false,0.0-2.0-0.56-0.504-3.504,0,0,1,81,false,stim,true,0,517.6000000238419,2,0,1,65904,task3,1205490,false,false,1696,image-keyboard-response,11
true,23,0,1,0,true,q,false,true,0.0-2.0-0.56-0.505-3.505,0,0,1,81,false,stim,false,0,615.0999999642372,2,1,2,65904,task3,1207625,false,false,1699,image-keyboard-response,12
true,23,1,1,0,false,q,false,false,0.0-2.0-0.56-0.506-3.506,0,0,1,90,false,stim,true,1,575.8000000119209,2,0,0,65904,task3,1209731,false,false,1702,image-keyboard-response,13
true,23,0,1,1,false,z,false,false,0.0-2.0-0.56-0.507-3.507,0,0,1,81,false,stim,true,0,786.8000000119209,2,0,1,65904,task3,1212036,false,false,1705,image-keyboard-response,14
true,23,0,1,0,true,q,false,true,0.0-2.0-0.56-0.508-3.508,0,0,1,81,false,stim,false,0,401.10000002384186,2,1,2,65904,task3,1213950,false,false,1708,image-keyboard-response,15
true,23,1,1,0,false,q,false,false,0.0-2.0-0.56-0.509-3.509,0,0,1,90,false,stim,true,1,696.8999999761581,2,0,0,65904,task3,1216173,false,false,1711,image-keyboard-response,16
true,23,1,1,1,true,z,false,true,0.0-2.0-0.56-0.510-3.510,0,0,1,90,false,stim,false,0,1119.4000000357628,2,0,1,65904,task3,1218817,false,false,1714,image-keyboard-response,17
true,23,0,1,0,true,q,false,true,0.0-2.0-0.56-0.511-3.511,0,0,1,81,false,stim,false,0,615.3000000119209,2,1,2,65904,task3,1220973,false,false,1717,image-keyboard-response,18
true,23,0,1,0,true,q,false,true,0.0-2.0-0.56-0.512-3.512,0,0,1,81,false,stim,false,1,339.69999998807907,2,0,0,65904,task3,1222852,false,false,1720,image-keyboard-response,19
true,23,0,1,0,true,q,false,true,0.0-2.0-0.57-0.513-3.513,0,0,1,81,false,stim,false,1,426.39999997615814,2,0,0,65904,task3,1224806,false,false,1723,image-keyboard-response,20
true,23,0,1,0,true,q,false,true,0.0-2.0-0.57-0.514-3.514,0,0,1,81,false,stim,false,0,538.6000000238419,2,1,2,65904,task3,1226871,false,false,1726,image-keyboard-response,21
true,23,0,1,0,true,q,false,true,0.0-2.0-0.57-0.515-3.515,0,0,1,81,false,stim,false,1,389.60000002384186,2,0,0,65904,task3,1228788,false,false,1729,image-keyboard-response,22
true,23,1,1,1,true,z,false,true,0.0-2.0-0.57-0.516-3.516,0,0,1,90,false,stim,false,0,599.1999999880791,2,0,1,65904,task3,1230915,false,false,1732,image-keyboard-response,23
true,23,0,1,0,true,q,false,true,0.0-2.0-0.57-0.517-3.517,0,0,1,81,false,stim,false,0,359.7999999523163,2,1,2,65904,task3,1232807,false,false,1735,image-keyboard-response,24
true,23,0,1,0,true,q,false,true,0.0-2.0-0.57-0.518-3.518,0,0,1,81,false,stim,false,1,351.19999998807907,2,0,0,65904,task3,1234691,false,false,1738,image-keyboard-response,25
true,23,1,1,1,true,z,false,true,0.0-2.0-0.57-0.519-3.519,0,0,1,90,false,stim,false,0,379.10000002384186,2,0,1,65904,task3,1236590,false,false,1741,image-keyboard-response,26
true,23,1,1,1,true,z,false,true,0.0-2.0-0.57-0.520-3.520,0,0,1,90,false,stim,false,0,589.2999999523163,2,0,1,65904,task3,1238704,false,false,1744,image-keyboard-response,27
true,23,0,1,0,true,q,false,true,0.0-2.0-0.57-0.521-3.521,0,0,1,81,false,stim,false,0,524.0,2,0,2,65904,task3,1240759,false,false,1747,image-keyboard-response,28
true,23,1,1,0,false,q,true,false,0.0-2.0-0.58-0.522-3.522,0,0,1,90,false,stim,false,0,470.80000001192093,2,0,2,65904,task3,1242759,false,false,1750,image-keyboard-response,29
true,23,0,1,0,true,q,false,true,0.0-2.0-0.58-0.523-3.523,0,0,1,81,false,stim,false,1,473.10000002384186,2,1,0,65904,task3,1244752,false,false,1753,image-keyboard-response,30
true,24,0,1,1,false,z,false,false,0.0-2.0-0.58-0.524-3.524,1,0,0,81,true,stim,true,0,541.6000000238419,2,0,2,65904,task3,1246815,false,false,1756,image-keyboard-response,1
true,24,0,1,0,true,q,false,true,0.0-2.0-0.58-0.525-3.525,1,0,0,81,false,stim,false,0,664.8999999761581,2,1,0,65904,task3,1249013,false,false,1759,image-keyboard-response,2
true,24,1,1,2,false,d,false,false,0.0-2.0-0.58-0.526-3.526,1,0,0,90,false,stim,true,1,439.0,2,0,1,65904,task3,1250966,false,false,1762,image-keyboard-response,3
true,24,2,1,2,true,d,false,true,0.0-2.0-0.58-0.527-3.527,1,0,0,68,false,stim,false,1,953.6000000238419,2,0,1,65904,task3,1253442,false,false,1765,image-keyboard-response,4
true,24,0,1,1,false,z,false,false,0.0-2.0-0.58-0.528-3.528,1,0,0,81,false,stim,true,0,906.8000000119209,2,0,2,65904,task3,1255867,false,false,1768,image-keyboard-response,5
true,24,2,1,2,true,d,false,true,0.0-2.0-0.58-0.529-3.529,1,0,0,68,false,stim,false,1,655.5,2,0,1,65904,task3,1258029,false,false,1771,image-keyboard-response,6
true,24,0,1,0,true,q,false,true,0.0-2.0-0.58-0.530-3.530,1,0,0,81,false,stim,false,0,722.7999999523163,2,1,0,65904,task3,1260271,false,false,1774,image-keyboard-response,7
true,24,0,1,0,true,q,false,true,0.0-2.0-0.59-0.531-3.531,1,0,0,81,false,stim,false,0,484.89999997615814,2,1,0,65904,task3,1262286,false,false,1777,image-keyboard-response,8
true,24,0,1,0,true,q,false,true,0.0-2.0-0.59-0.532-3.532,1,0,0,81,false,stim,false,0,401.80000001192093,2,1,0,65904,task3,1264211,false,false,1780,image-keyboard-response,9
true,24,0,1,0,true,q,false,true,0.0-2.0-0.59-0.533-3.533,1,0,0,81,false,stim,false,0,353.0999999642372,2,1,0,65904,task3,1266098,false,false,1783,image-keyboard-response,10
true,24,2,1,1,false,z,true,false,0.0-2.0-0.59-0.534-3.534,1,0,0,68,false,stim,false,0,531.6999999880791,2,0,2,65904,task3,1268145,false,false,1786,image-keyboard-response,11
true,24,1,1,1,true,z,false,true,0.0-2.0-0.59-0.535-3.535,1,0,0,90,false,stim,false,0,455.5,2,0,2,65904,task3,1270130,false,false,1789,image-keyboard-response,12
true,24,2,1,2,true,d,false,true,0.0-2.0-0.59-0.536-3.536,1,0,0,68,false,stim,false,1,521.8999999761581,2,0,1,65904,task3,1272175,false,false,1792,image-keyboard-response,13
true,24,2,1,2,true,d,false,true,0.0-2.0-0.59-0.537-3.537,1,0,0,68,false,stim,false,1,426.5,2,0,1,65904,task3,1274121,false,false,1795,image-keyboard-response,14
true,24,2,1,2,true,d,false,true,0.0-2.0-0.59-0.538-3.538,1,0,0,68,false,stim,false,1,430.4000000357628,2,0,1,65904,task3,1276092,false,false,1798,image-keyboard-response,15
true,24,1,1,1,true,z,false,true,0.0-2.0-0.59-0.539-3.539,1,0,0,90,false,stim,false,0,403.30000001192093,2,0,2,65904,task3,1278011,false,false,1801,image-keyboard-response,16
true,24,0,1,0,true,q,false,true,0.0-2.0-0.60-0.540-3.540,1,0,0,81,false,stim,false,0,365.10000002384186,2,1,0,65904,task3,1279896,false,false,1804,image-keyboard-response,17
true,24,1,1,1,true,z,false,true,0.0-2.0-0.60-0.541-3.541,1,0,0,90,false,stim,false,0,511.0,2,0,2,65904,task3,1281920,false,false,1807,image-keyboard-response,18
true,24,0,1,0,true,q,false,true,0.0-2.0-0.60-0.542-3.542,1,0,0,81,false,stim,false,0,520.8000000119209,2,1,0,65904,task3,1283958,false,false,1810,image-keyboard-response,19
true,24,2,1,2,true,d,false,true,0.0-2.0-0.60-0.543-3.543,1,0,0,68,false,stim,false,1,439.0,2,0,1,65904,task3,1285930,false,false,1813,image-keyboard-response,20
true,24,1,1,1,true,z,false,true,0.0-2.0-0.60-0.544-3.544,1,0,0,90,false,stim,false,0,540.0999999642372,2,0,2,65904,task3,1287998,false,false,1816,image-keyboard-response,21
true,24,2,1,2,true,d,false,true,0.0-2.0-0.60-0.545-3.545,1,0,0,68,false,stim,false,1,972.7999999523163,2,1,1,65904,task3,1290493,false,false,1819,image-keyboard-response,22
true,24,0,1,0,true,q,false,true,0.0-2.0-0.60-0.546-3.546,1,0,0,81,false,stim,false,0,391.5999999642372,2,1,0,65904,task3,1292400,false,false,1822,image-keyboard-response,23
true,24,2,1,2,true,d,false,true,0.0-2.0-0.60-0.547-3.547,1,0,0,68,false,stim,false,1,629.3999999761581,2,1,1,65904,task3,1294567,false,false,1825,image-keyboard-response,24
true,24,1,1,1,true,z,false,true,0.0-2.0-0.60-0.548-3.548,1,0,0,90,false,stim,false,0,344.60000002384186,2,0,2,65904,task3,1296454,false,false,1828,image-keyboard-response,25
true,24,2,1,2,true,d,false,true,0.0-2.0-0.61-0.549-3.549,1,0,0,68,false,stim,false,1,663.8000000119209,2,1,1,65904,task3,1298660,false,false,1831,image-keyboard-response,26
true,25,1,2,2,false,d,false,false,0.0-2.0-0.61-0.550-3.550,1,1,0,90,true,stim,true,1,767.1000000238419,2,0,2,65904,task3,1300966,false,false,1834,image-keyboard-response,1
true,25,0,2,0,true,q,false,true,0.0-2.0-0.61-0.551-3.551,1,1,0,81,false,stim,false,0,566.6999999880791,2,1,0,65904,task3,1303066,false,false,1837,image-keyboard-response,2
true,25,0,2,0,true,q,false,true,0.0-2.0-0.61-0.552-3.552,1,1,0,81,false,stim,false,0,531.8999999761581,2,1,0,65904,task3,1305120,false,false,1840,image-keyboard-response,3
true,25,2,2,2,true,d,false,true,0.0-2.0-0.61-0.553-3.553,1,1,0,68,false,stim,false,2,579.3000000119209,2,1,1,65904,task3,1307214,false,false,1843,image-keyboard-response,4
true,25,1,2,2,false,d,false,false,0.0-2.0-0.61-0.554-3.554,1,1,0,90,false,stim,true,1,307.60000002384186,2,0,2,65904,task3,1309052,false,false,1846,image-keyboard-response,5
true,25,2,2,2,true,d,false,true,0.0-2.0-0.61-0.555-3.555,1,1,0,68,false,stim,false,1,639.9000000357628,2,0,2,65904,task3,1311216,false,false,1849,image-keyboard-response,6
true,25,0,2,0,true,q,false,true,0.0-2.0-0.61-0.556-3.556,1,1,0,81,false,stim,false,0,452.60000002384186,2,1,0,65904,task3,1313181,false,false,1852,image-keyboard-response,7
true,25,2,2,2,true,d,false,true,0.0-2.0-0.61-0.557-3.557,1,1,0,68,false,stim,false,2,352.4000000357628,2,1,1,65904,task3,1315069,false,false,1855,image-keyboard-response,8
true,25,2,2,2,true,d,false,true,0.0-2.0-0.62-0.558-3.558,1,1,0,68,false,stim,false,2,346.89999997615814,2,1,1,65904,task3,1316942,false,false,1858,image-keyboard-response,9
true,25,2,2,2,true,d,false,true,0.0-2.0-0.62-0.559-3.559,1,1,0,68,false,stim,false,2,365.0999999642372,2,1,1,65904,task3,1318828,false,false,1861,image-keyboard-response,10
true,25,0,2,0,true,q,false,true,0.0-2.0-0.62-0.560-3.560,1,1,0,81,false,stim,false,0,499.19999998807907,2,1,0,65904,task3,1320849,false,false,1864,image-keyboard-response,11
true,25,2,2,2,true,d,false,true,0.0-2.0-0.62-0.561-3.561,1,1,0,68,false,stim,false,1,473.19999998807907,2,1,2,65904,task3,1322845,false,false,1867,image-keyboard-response,12
true,26,1,0,2,false,d,true,false,0.0-2.0-0.62-0.562-3.562,1,1,1,90,true,stim,false,2,1174.0999999642372,2,1,2,65904,task3,1446782,false,false,1990,image-keyboard-response,1
true,26,0,0,2,false,d,true,false,0.0-2.0-0.62-0.563-3.563,1,1,1,81,false,stim,false,2,909.7000000476837,2,1,1,65904,task3,1449220,false,false,1993,image-keyboard-response,2
true,26,0,0,2,false,d,true,true,0.0-2.0-0.62-0.564-3.564,1,1,1,81,false,stim,false,2,538.8999999761581,2,1,2,65904,task3,1451289,false,true,1996,image-keyboard-response,3
true,26,2,0,0,false,q,true,true,0.0-2.0-0.62-0.565-3.565,1,1,1,68,false,stim,false,0,1039.8999999761581,2,1,0,65904,task3,1453857,false,true,1999,image-keyboard-response,4
true,26,2,0,0,false,q,true,false,0.0-2.0-0.62-0.566-3.566,1,1,1,68,false,stim,false,0,509.80000001192093,2,1,0,65904,task3,1455884,false,false,2002,image-keyboard-response,5
true,26,1,0,2,false,d,true,false,0.0-2.0-0.63-0.567-3.567,1,1,1,90,false,stim,false,2,567.1999999880791,2,1,1,65904,task3,1457972,false,false,2005,image-keyboard-response,6
true,26,2,0,0,false,q,true,true,0.0-2.0-0.63-0.568-3.568,1,1,1,68,false,stim,false,0,602.7999999523163,2,1,0,65904,task3,1460095,false,true,2008,image-keyboard-response,7
true,26,0,0,2,false,d,true,false,0.0-2.0-0.63-0.569-3.569,1,1,1,81,false,stim,false,2,564.1000000238419,2,1,2,65904,task3,1462185,false,false,2011,image-keyboard-response,8
true,26,2,0,0,false,q,true,false,0.0-2.0-0.63-0.570-3.570,1,1,1,68,false,stim,false,0,526.0,2,1,0,65904,task3,1464247,false,false,2014,image-keyboard-response,9
true,26,2,0,0,false,q,true,false,0.0-2.0-0.63-0.571-3.571,1,1,1,68,false,stim,false,0,557.5999999642372,2,0,0,65904,task3,1466350,false,false,2017,image-keyboard-response,10
true,26,1,0,2,false,d,true,true,0.0-2.0-0.63-0.572-3.572,1,1,1,90,false,stim,false,2,897.1000000238419,2,1,2,65904,task3,1468759,false,true,2020,image-keyboard-response,11
true,26,2,0,2,true,d,false,true,0.0-2.0-0.63-0.573-3.573,1,1,1,68,false,stim,false,2,1114.300000011921,2,1,1,65904,task3,1471398,false,false,2023,image-keyboard-response,12
true,26,1,0,2,false,d,true,false,0.0-2.0-0.63-0.574-3.574,1,1,1,90,false,stim,false,2,542.4000000357628,2,1,2,65904,task3,1473462,false,false,2026,image-keyboard-response,13
true,26,2,0,2,true,d,false,true,0.0-2.0-0.63-0.575-3.575,1,1,1,68,false,stim,false,2,765.8999999761581,2,1,1,65904,task3,1475772,false,false,2029,image-keyboard-response,14
true,27,1,2,1,true,z,false,true,0.0-2.0-0.64-0.576-3.576,0,1,1,90,true,stim,false,0,901.4000000357628,2,0,0,65904,task3,1478191,false,false,2032,image-keyboard-response,1
true,27,1,2,2,false,d,true,false,0.0-2.0-0.64-0.577-3.577,0,1,1,90,false,stim,false,2,366.69999998807907,2,1,2,65904,task3,1480082,false,false,2035,image-keyboard-response,2
true,27,1,2,1,true,z,false,true,0.0-2.0-0.64-0.578-3.578,0,1,1,90,false,stim,false,0,494.39999997615814,2,0,0,65904,task3,1482112,false,false,2038,image-keyboard-response,3
true,27,1,2,1,true,z,false,true,0.0-2.0-0.64-0.579-3.579,0,1,1,90,false,stim,false,0,470.4000000357628,2,0,0,65904,task3,1484098,false,false,2041,image-keyboard-response,4
true,27,2,2,2,true,d,false,true,0.0-2.0-0.64-0.580-3.580,0,1,1,68,false,stim,false,2,355.89999997615814,2,1,1,65904,task3,1485968,false,false,2044,image-keyboard-response,5
true,27,2,2,2,true,d,false,true,0.0-2.0-0.64-0.581-3.581,0,1,1,68,false,stim,false,2,394.19999998807907,2,1,1,65904,task3,1487879,false,false,2047,image-keyboard-response,6
true,27,2,2,2,true,d,false,true,0.0-2.0-0.64-0.582-3.582,0,1,1,68,false,stim,false,2,330.10000002384186,2,1,2,65904,task3,1489759,false,false,2050,image-keyboard-response,7
true,27,2,2,2,true,d,false,true,0.0-2.0-0.64-0.583-3.583,0,1,1,68,false,stim,false,2,410.4000000357628,2,1,2,65904,task3,1491690,false,false,2053,image-keyboard-response,8
true,27,2,2,2,true,d,false,true,0.0-2.0-0.64-0.584-3.584,0,1,1,68,false,stim,false,2,423.0,2,0,1,65904,task3,1493628,false,false,2056,image-keyboard-response,9
true,27,2,2,2,true,d,false,true,0.0-2.0-0.65-0.585-3.585,0,1,1,68,false,stim,false,2,661.1999999880791,2,1,2,65904,task3,1495799,false,false,2059,image-keyboard-response,10
true,27,2,2,2,true,d,false,true,0.0-2.0-0.65-0.586-3.586,0,1,1,68,false,stim,false,2,744.5,2,0,1,65904,task3,1498078,false,false,2062,image-keyboard-response,11
true,27,1,2,1,true,z,false,true,0.0-2.0-0.65-0.587-3.587,0,1,1,90,false,stim,false,0,606.5,2,1,0,65904,task3,1500204,false,false,2065,image-keyboard-response,12
true,27,1,2,1,true,z,false,true,0.0-2.0-0.65-0.588-3.588,0,1,1,90,false,stim,false,0,439.19999998807907,2,1,0,65904,task3,1502185,false,false,2068,image-keyboard-response,13
true,28,2,2,2,true,d,false,true,0.0-2.0-0.65-0.589-3.589,1,0,1,68,true,stim,false,2,431.0999999642372,2,1,2,65904,task3,1504126,false,false,2071,image-keyboard-response,1
