answered,blockNum,choice,condition,corResp,correct,correct_response,explo,fb,internal_node_id,isStable_1,isStable_2,isStable_3,key_press,newBlock,part,persev,persevResp,rt,sessNum,stableAS,stimulus,subject,task,time_elapsed,training,trap,trial_index,trial_type,trialsInBlock
true,1,0,0,2,false,d,true,true,0.0-2.0-0.0-0.0-3.0,0,0,0,81,true,stim,false,-1,2448.7000000029802,1,0,1,65904,task2,165653,false,true,139,image-keyboard-response,1
true,1,1,0,1,true,z,false,true,0.0-2.0-0.0-0.1-3.1,0,0,0,90,false,stim,false,-1,1502.0999999940395,1,0,0,65904,task2,168684,false,false,142,image-keyboard-response,2
true,1,0,0,2,false,d,true,false,0.0-2.0-0.0-0.2-3.2,0,0,0,81,false,stim,false,-1,671.8000000119209,1,0,1,65904,task2,170865,false,false,145,image-keyboard-response,3
true,1,0,0,2,false,d,true,false,0.0-2.0-0.0-0.3-3.3,0,0,0,81,false,stim,false,-1,404.3999999910593,1,0,1,65904,task2,172791,false,false,148,image-keyboard-response,4
true,1,1,0,1,true,z,false,true,0.0-2.0-0.0-0.4-3.4,0,0,0,90,false,stim,false,-1,736.0999999940395,1,0,0,65904,task2,175064,false,false,151,image-keyboard-response,5
true,1,2,0,1,false,z,true,false,0.0-2.0-0.0-0.5-3.5,0,0,0,68,false,stim,false,-1,737.0,1,0,2,65904,task2,177323,false,false,154,image-keyboard-response,6
true,1,1,0,1,true,z,false,true,0.0-2.0-0.0-0.6-3.6,0,0,0,90,false,stim,false,-1,539.2999999970198,1,0,2,65904,task2,179372,false,false,157,image-keyboard-response,7
true,1,1,0,1,true,z,false,true,0.0-2.0-0.0-0.7-3.7,0,0,0,90,false,stim,false,-1,456.5,1,0,2,65904,task2,181359,false,false,160,image-keyboard-response,8
true,1,1,0,1,true,z,false,true,0.0-2.0-0.0-0.8-3.8,0,0,0,90,false,stim,false,-1,620.2000000029802,1,0,0,65904,task2,183508,false,false,163,image-keyboard-response,9
true,1,2,0,2,true,d,false,true,0.0-2.0-0.1-0.9-3.9,0,0,0,68,false,stim,false,-1,683.7999999970198,1,0,1,65904,task2,185714,false,false,166,image-keyboard-response,10
true,1,1,0,1,true,z,false,true,0.0-2.0-0.1-0.10-3.10,0,0,0,90,false,stim,false,-1,413.6000000089407,1,0,2,65904,task2,187653,false,false,169,image-keyboard-response,11
true,1,1,0,1,true,z,false,true,0.0-2.0-0.1-0.11-3.11,0,0,0,90,false,stim,false,-1,394.0,1,0,2,65904,task2,189580,false,false,172,image-keyboard-response,12
true,1,2,0,2,true,d,false,false,0.0-2.0-0.1-0.12-3.12,0,0,0,68,false,stim,false,-1,925.8000000119209,1,0,1,65904,task2,192014,false,true,175,image-keyboard-response,13
true,1,1,0,1,true,z,false,true,0.0-2.0-0.1-0.13-3.13,0,0,0,90,false,stim,false,-1,523.3999999910593,1,0,0,65904,task2,194066,false,false,178,image-keyboard-response,14
true,1,1,0,1,true,z,false,true,0.0-2.0-0.1-0.14-3.14,0,0,0,90,false,stim,false,-1,573.8999999910593,1,0,0,65904,task2,196160,false,false,181,image-keyboard-response,15
true,1,1,0,1,true,z,false,false,0.0-2.0-0.1-0.15-3.15,0,0,0,90,false,stim,false,-1,514.7999999970198,1,0,0,65904,task2,198205,false,true,184,image-keyboard-response,16
true,1,1,0,1,true,z,false,true,0.0-2.0-0.1-0.16-3.16,0,0,0,90,false,stim,false,-1,645.4000000059605,1,0,2,65904,task2,200376,false,false,187,image-keyboard-response,17
true,1,0,0,2,false,d,true,false,0.0-2.0-0.1-0.17-3.17,0,0,0,81,false,stim,false,-1,741.9000000059605,1,0,1,65904,task2,202649,false,false,190,image-keyboard-response,18
true,1,1,0,1,true,z,false,true,0.0-2.0-0.2-0.18-3.18,0,0,0,90,false,stim,false,-1,422.59999999403954,1,0,0,65904,task2,204602,false,false,193,image-keyboard-response,19
true,1,1,0,1,true,z,false,true,0.0-2.0-0.2-0.19-3.19,0,0,0,90,false,stim,false,-1,511.40000000596046,1,0,2,65904,task2,206630,false,false,196,image-keyboard-response,20
true,1,2,0,2,true,d,false,true,0.0-2.0-0.2-0.20-3.20,0,0,0,68,false,stim,false,-1,516.0999999940395,1,0,1,65904,task2,208682,false,false,199,image-keyboard-response,21
true,1,2,0,2,true,d,false,true,0.0-2.0-0.2-0.21-3.21,0,0,0,68,false,stim,false,-1,714.5,1,0,1,65904,task2,210926,false,false,202,image-keyboard-response,22
true,1,1,0,1,true,z,false,true,0.0-2.0-0.2-0.22-3.22,0,0,0,90,false,stim,false,-1,382.5,1,0,0,65904,task2,212837,false,false,205,image-keyboard-response,23
true,1,1,0,1,true,z,false,true,0.0-2.0-0.2-0.23-3.23,0,0,0,90,false,stim,false,-1,306.5,1,0,0,65904,task2,214650,false,false,208,image-keyboard-response,24
true,1,2,0,1,false,z,true,false,0.0-2.0-0.2-0.24-3.24,0,0,0,68,false,stim,false,-1,606.7000000029802,1,0,2,65904,task2,216777,false,false,211,image-keyboard-response,25
true,1,2,0,2,true,d,false,true,0.0-2.0-0.2-0.25-3.25,0,0,0,68,false,stim,false,-1,634.5999999940395,1,0,1,65904,task2,218943,false,false,214,image-keyboard-response,26
true,2,1,1,0,false,q,false,false,0.0-2.0-0.2-0.26-3.26,0,0,0,90,true,stim,true,1,2220.7999999970198,1,0,2,65904,task2,222674,false,false,217,image-keyboard-response,1
true,2,1,1,2,false,d,false,false,0.0-2.0-0.3-0.27-3.27,0,0,0,90,false,stim,true,1,489.09999999403954,1,0,0,65904,task2,224691,false,false,220,image-keyboard-response,2
true,2,0,1,2,false,d,true,false,0.0-2.0-0.3-0.28-3.28,0,0,0,81,false,stim,false,1,706.6000000089407,1,0,0,65904,task2,226913,false,false,223,image-keyboard-response,3
true,2,1,1,1,true,z,false,true,0.0-2.0-0.3-0.29-3.29,0,0,0,90,false,stim,false,2,1524.0,1,0,1,65904,task2,229957,false,false,226,image-keyboard-response,4
true,2,1,1,1,true,z,false,true,0.0-2.0-0.3-0.30-3.30,0,0,0,90,false,stim,false,2,532.2999999970198,1,0,1,65904,task2,232012,false,false,229,image-keyboard-response,5
true,2,2,1,0,false,q,true,false,0.0-2.0-0.3-0.31-3.31,0,0,0,68,false,stim,false,1,491.30000001192093,1,0,2,65904,task2,234029,false,false,232,image-keyboard-response,6
true,2,2,1,0,false,q,true,false,0.0-2.0-0.3-0.32-3.32,0,0,0,68,false,stim,false,1,682.3000000119209,1,0,2,65904,task2,236228,false,false,235,image-keyboard-response,7
true,2,0,1,0,true,q,false,true,0.0-2.0-0.3-0.33-3.33,0,0,0,81,false,stim,false,1,508.30000001192093,1,0,2,65904,task2,238252,false,false,238,image-keyboard-response,8
true,2,2,1,2,true,d,false,false,0.0-2.0-0.3-0.34-3.34,0,0,0,68,false,stim,false,1,608.5,1,0,0,65904,task2,240387,false,true,241,image-keyboard-response,9
true,2,1,1,1,true,z,false,true,0.0-2.0-0.3-0.35-3.35,0,0,0,90,false,stim,false,2,1032.5,1,0,1,65904,task2,242940,false,false,244,image-keyboard-response,10
true,2,1,1,2,false,d,false,false,0.0-2.0-0.4-0.36-3.36,0,0,0,90,false,stim,true,1,447.79999999701977,1,0,0,65904,task2,244896,false,false,247,image-keyboard-response,11
true,2,1,1,1,true,z,false,true,0.0-2.0-0.4-0.37-3.37,0,0,0,90,false,stim,false,2,1817.8999999910593,1,0,1,65904,task2,248238,false,false,250,image-keyboard-response,12
true,2,2,1,2,true,d,false,true,0.0-2.0-0.4-0.38-3.38,0,0,0,68,false,stim,false,1,1267.7000000029802,1,0,0,65904,task2,251019,false,false,253,image-keyboard-response,13
true,2,0,1,0,true,q,false,true,0.0-2.0-0.4-0.39-3.39,0,0,0,81,false,stim,false,1,479.5,1,0,2,65904,task2,253022,false,false,256,image-keyboard-response,14
true,2,1,1,1,true,z,false,true,0.0-2.0-0.4-0.40-3.40,0,0,0,90,false,stim,false,2,578.5,1,0,1,65904,task2,255128,false,false,259,image-keyboard-response,15
true,2,1,1,1,true,z,false,false,0.0-2.0-0.4-0.41-3.41,0,0,0,90,false,stim,false,2,546.2000000029802,1,0,1,65904,task2,257186,false,true,262,image-keyboard-response,16
true,2,0,1,0,true,q,false,true,0.0-2.0-0.4-0.42-3.42,0,0,0,81,false,stim,false,1,996.1000000089407,1,0,2,65904,task2,259703,false,false,265,image-keyboard-response,17
true,2,0,1,0,true,q,false,true,0.0-2.0-0.4-0.43-3.43,0,0,0,81,false,stim,false,1,536.8000000119209,1,0,2,65904,task2,261753,false,false,268,image-keyboard-response,18
true,2,2,1,2,true,d,false,true,0.0-2.0-0.4-0.44-3.44,0,0,0,68,false,stim,false,1,550.5,1,0,0,65904,task2,263827,false,false,271,image-keyboard-response,19
true,2,0,1,0,true,q,false,true,0.0-2.0-0.5-0.45-3.45,0,0,0,81,false,stim,false,1,1304.3999999910593,1,0,2,65904,task2,266659,false,false,274,image-keyboard-response,20
true,2,1,1,1,true,z,false,true,0.0-2.0-0.5-0.46-3.46,0,0,0,90,false,stim,false,2,480.79999999701977,1,0,1,65904,task2,268660,false,false,277,image-keyboard-response,21
true,2,2,1,2,true,d,false,true,0.0-2.0-0.5-0.47-3.47,0,0,0,68,false,stim,false,1,603.3999999910593,1,0,0,65904,task2,270800,false,false,280,image-keyboard-response,22
true,2,1,1,1,true,z,false,false,0.0-2.0-0.5-0.48-3.48,0,0,0,90,false,stim,false,2,882.0,1,0,1,65904,task2,273206,false,true,283,image-keyboard-response,23
true,2,0,1,2,false,d,true,true,0.0-2.0-0.5-0.49-3.49,0,0,0,81,false,stim,false,1,622.6999999880791,1,0,0,65904,task2,275356,false,true,286,image-keyboard-response,24
true,2,0,1,0,true,q,false,false,0.0-2.0-0.5-0.50-3.50,0,0,0,81,false,stim,false,1,1288.2999999970198,1,0,2,65904,task2,278181,false,true,289,image-keyboard-response,25
true,2,0,1,2,false,d,true,false,0.0-2.0-0.5-0.51-3.51,0,0,0,81,false,stim,false,1,605.4000000059605,1,0,0,65904,task2,280307,false,false,292,image-keyboard-response,26
true,2,0,1,0,true,q,false,true,0.0-2.0-0.5-0.52-3.52,0,0,0,81,false,stim,false,1,752.6999999880791,1,0,2,65904,task2,282580,false,false,295,image-keyboard-response,27
true,2,1,1,1,true,z,false,true,0.0-2.0-0.5-0.53-3.53,0,0,0,90,false,stim,false,2,551.5999999940395,1,0,1,65904,task2,284653,false,false,298,image-keyboard-response,28
true,2,1,1,1,true,z,false,true,0.0-2.0-0.6-0.54-3.54,0,0,0,90,false,stim,false,2,1666.4000000059605,1,0,1,65904,task2,287843,false,false,301,image-keyboard-response,29
true,2,2,1,2,true,d,false,true,0.0-2.0-0.6-0.55-3.55,0,0,0,68,false,stim,false,1,1407.5999999940395,1,0,0,65904,task2,290795,false,false,304,image-keyboard-response,30
true,2,2,1,2,true,d,false,true,0.0-2.0-0.6-0.56-3.56,0,0,0,68,false,stim,false,1,474.70000000298023,1,0,0,65904,task2,292798,false,false,307,image-keyboard-response,31
true,2,0,1,0,true,q,false,true,0.0-2.0-0.6-0.57-3.57,0,0,0,81,false,stim,false,1,850.2999999970198,1,0,2,65904,task2,295157,false,false,310,image-keyboard-response,32
true,2,0,1,0,true,q,false,true,0.0-2.0-0.6-0.58-3.58,0,0,0,81,false,stim,false,1,938.0,1,0,2,65904,task2,297616,false,false,313,image-keyboard-response,33
true,2,2,1,2,true,d,false,true,0.0-2.0-0.6-0.59-3.59,0,0,0,68,false,stim,false,1,1615.5,1,0,0,65904,task2,300754,false,false,316,image-keyboard-response,34
true,2,0,1,0,true,q,false,true,0.0-2.0-0.6-0.60-3.60,0,0,0,81,false,stim,false,1,910.2999999970198,1,0,2,65904,task2,303186,false,false,319,image-keyboard-response,35
true,2,1,1,1,true,z,false,true,0.0-2.0-0.6-0.61-3.61,0,0,0,90,false,stim,false,2,557.0999999940395,1,0,1,65904,task2,305254,false,false,322,image-keyboard-response,36
true,3,1,1,0,false,q,false,false,0.0-2.0-0.6-0.62-3.62,0,0,0,90,true,stim,true,1,431.79999999701977,1,0,1,65904,task2,307194,false,false,325,image-keyboard-response,1
true,3,1,1,0,false,q,false,false,0.0-2.0-0.7-0.63-3.63,0,0,0,90,false,stim,true,1,470.40000000596046,1,0,1,65904,task2,309177,false,false,328,image-keyboard-response,2
true,3,0,1,0,true,q,false,true,0.0-2.0-0.7-0.64-3.64,0,0,0,81,false,stim,false,1,1907.5999999940395,1,0,1,65904,task2,312607,false,false,331,image-keyboard-response,3
true,3,2,1,1,false,z,false,false,0.0-2.0-0.7-0.65-3.65,0,0,0,68,false,stim,true,2,608.7999999970198,1,0,0,65904,task2,314750,false,false,334,image-keyboard-response,4
true,3,1,1,2,false,d,true,false,0.0-2.0-0.7-0.66-3.66,0,0,0,90,false,stim,false,0,738.2999999970198,1,0,2,65904,task2,317011,false,false,337,image-keyboard-response,5
true,3,2,1,1,false,z,false,false,0.0-2.0-0.7-0.67-3.67,0,0,0,68,false,stim,true,2,849.7000000029802,1,0,0,65904,task2,319383,false,false,340,image-keyboard-response,6
true,3,0,1,2,false,d,false,false,0.0-2.0-0.7-0.68-3.68,0,0,0,81,false,stim,true,0,735.3999999910593,1,0,2,65904,task2,321645,false,false,343,image-keyboard-response,7
true,3,0,1,1,false,z,true,false,0.0-2.0-0.7-0.69-3.69,0,0,0,81,false,stim,false,2,954.9000000059605,1,0,0,65904,task2,324118,false,false,346,image-keyboard-response,8
true,3,1,1,0,false,q,false,false,0.0-2.0-0.7-0.70-3.70,0,0,0,90,false,stim,true,1,752.4000000059605,1,0,1,65904,task2,326397,false,false,349,image-keyboard-response,9
true,3,2,1,2,true,d,false,false,0.0-2.0-0.7-0.71-3.71,0,0,0,68,false,stim,false,0,1068.7000000029802,1,0,2,65904,task2,329006,false,true,352,image-keyboard-response,10
true,3,2,1,1,false,z,false,false,0.0-2.0-0.8-0.72-3.72,0,0,0,68,false,stim,true,2,872.2000000029802,1,0,0,65904,task2,331423,false,false,355,image-keyboard-response,11
true,3,0,1,0,true,q,false,true,0.0-2.0-0.8-0.73-3.73,0,0,0,81,false,stim,false,1,1079.800000011921,1,0,1,65904,task2,334018,false,false,358,image-keyboard-response,12
true,3,0,1,0,true,q,false,false,0.0-2.0-0.8-0.74-3.74,0,0,0,81,false,stim,false,1,910.2999999970198,1,0,1,65904,task2,336452,false,true,361,image-keyboard-response,13
true,3,1,1,1,true,z,false,true,0.0-2.0-0.8-0.75-3.75,0,0,0,90,false,stim,false,2,546.2000000029802,1,0,0,65904,task2,338521,false,false,364,image-keyboard-response,14
true,3,1,1,1,true,z,false,true,0.0-2.0-0.8-0.76-3.76,0,0,0,90,false,stim,false,2,683.3999999910593,1,0,0,65904,task2,340724,false,false,367,image-keyboard-response,15
true,3,1,1,2,false,d,true,true,0.0-2.0-0.8-0.77-3.77,0,0,0,90,false,stim,false,0,1290.5,1,0,2,65904,task2,343535,false,true,370,image-keyboard-response,16
true,3,1,1,2,false,d,true,false,0.0-2.0-0.8-0.78-3.78,0,0,0,90,false,stim,false,0,353.3999999910593,1,0,2,65904,task2,345406,false,false,373,image-keyboard-response,17
true,3,1,1,2,false,d,true,false,0.0-2.0-0.8-0.79-3.79,0,0,0,90,false,stim,false,0,529.9000000059605,1,0,2,65904,task2,347456,false,false,376,image-keyboard-response,18
true,3,0,1,0,true,q,false,true,0.0-2.0-0.8-0.80-3.80,0,0,0,81,false,stim,false,1,979.9000000059605,1,0,1,65904,task2,349951,false,false,379,image-keyboard-response,19
true,3,0,1,0,true,q,false,true,0.0-2.0-0.9-0.81-3.81,0,0,0,81,false,stim,false,1,492.1000000089407,1,0,1,65904,task2,351961,false,false,382,image-keyboard-response,20
true,3,1,1,1,true,z,false,true,0.0-2.0-0.9-0.82-3.82,0,0,0,90,false,stim,false,2,393.1000000089407,1,0,0,65904,task2,353882,false,false,385,image-keyboard-response,21
true,3,0,1,0,true,q,false,true,0.0-2.0-0.9-0.83-3.83,0,0,0,81,false,stim,false,1,734.2999999970198,1,0,1,65904,task2,356161,false,false,388,image-keyboard-response,22
true,3,0,1,2,false,d,false,false,0.0-2.0-0.9-0.84-3.84,0,0,0,81,false,stim,true,0,519.0,1,0,2,65904,task2,358212,false,false,391,image-keyboard-response,23
true,3,1,1,2,false,d,true,false,0.0-2.0-0.9-0.85-3.85,0,0,0,90,false,stim,false,0,888.4000000059605,1,0,2,65904,task2,360615,false,false,394,image-keyboard-response,24
true,3,1,1,1,true,z,false,true,0.0-2.0-0.9-0.86-3.86,0,0,0,90,false,stim,false,2,910.0,1,0,0,65904,task2,363035,false,false,397,image-keyboard-response,25
true,3,1,1,1,true,z,false,true,0.0-2.0-0.9-0.87-3.87,0,0,0,90,false,stim,false,2,493.79999999701977,1,0,0,65904,task2,365049,false,false,400,image-keyboard-response,26
true,3,0,1,0,true,q,false,true,0.0-2.0-0.9-0.88-3.88,0,0,0,81,false,stim,false,1,555.0,1,0,1,65904,task2,367128,false,false,403,image-keyboard-response,27
true,3,2,1,2,true,d,false,true,0.0-2.0-0.9-0.89-3.89,0,0,0,68,false,stim,false,0,395.0,1,0,2,65904,task2,369041,false,false,406,image-keyboard-response,28
true,3,2,1,2,true,d,false,true,0.0-2.0-0.10-0.90-3.90,0,0,0,68,false,stim,false,0,547.3999999910593,1,0,2,65904,task2,371105,false,false,409,image-keyboard-response,29
true,3,1,1,1,true,z,false,true,0.0-2.0-0.10-0.91-3.91,0,0,0,90,false,stim,false,2,808.7999999970198,1,0,0,65904,task2,373437,false,false,412,image-keyboard-response,30
true,3,2,1,2,true,d,false,true,0.0-2.0-0.10-0.92-3.92,0,0,0,68,false,stim,false,0,577.7000000029802,1,0,2,65904,task2,375546,false,false,415,image-keyboard-response,31
true,3,0,1,0,true,q,false,true,0.0-2.0-0.10-0.93-3.93,0,0,0,81,false,stim,false,1,537.7000000029802,1,0,1,65904,task2,377611,false,false,418,image-keyboard-response,32
true,3,0,1,0,true,q,false,true,0.0-2.0-0.10-0.94-3.94,0,0,0,81,false,stim,false,1,441.5,1,0,1,65904,task2,379561,false,false,421,image-keyboard-response,33
true,3,1,1,1,true,z,false,true,0.0-2.0-0.10-0.95-3.95,0,0,0,90,false,stim,false,2,639.7999999970198,1,0,0,65904,task2,381715,false,false,424,image-keyboard-response,34
true,3,0,1,0,true,q,false,true,0.0-2.0-0.10-0.96-3.96,0,0,0,81,false,stim,false,1,580.3999999910593,1,0,1,65904,task2,383837,false,false,427,image-keyboard-response,35
true,4,1,1,0,false,q,false,false,0.0-2.0-0.10-0.97-3.97,0,0,0,90,true,stim,true,1,418.20000000298023,1,0,0,65904,task2,385791,false,false,430,image-keyboard-response,1
true,4,2,1,0,false,q,false,false,0.0-2.0-0.10-0.98-3.98,0,0,0,68,false,stim,true,2,2948.5,1,0,2,65904,task2,390262,false,false,433,image-keyboard-response,2
true,4,0,1,2,false,d,false,false,0.0-2.0-0.11-0.99-3.99,0,0,0,81,false,stim,true,0,1899.7999999970198,1,0,1,65904,task2,393690,false,false,436,image-keyboard-response,3
true,4,2,1,0,false,q,false,false,0.0-2.0-0.11-0.100-3.100,0,0,0,68,false,stim,true,2,618.1000000089407,1,0,2,65904,task2,395823,false,false,439,image-keyboard-response,4
true,4,0,1,2,false,d,false,false,0.0-2.0-0.11-0.101-3.101,0,0,0,81,false,stim,true,0,721.8000000119209,1,0,1,65904,task2,398069,false,false,442,image-keyboard-response,5
true,4,1,1,2,false,d,true,false,0.0-2.0-0.11-0.102-3.102,0,0,0,90,false,stim,false,0,710.7999999970198,1,0,1,65904,task2,400296,false,false,445,image-keyboard-response,6
true,4,0,1,0,true,q,false,false,0.0-2.0-0.11-0.103-3.103,0,0,0,81,false,stim,false,1,810.8999999910593,1,0,0,65904,task2,402623,false,true,448,image-keyboard-response,7
true,4,0,1,0,true,q,false,true,0.0-2.0-0.11-0.104-3.104,0,0,0,81,false,stim,false,2,997.8999999910593,1,0,2,65904,task2,405154,false,false,451,image-keyboard-response,8
true,4,0,1,0,true,q,false,true,0.0-2.0-0.11-0.105-3.105,0,0,0,81,false,stim,false,2,543.5999999940395,1,0,2,65904,task2,407209,false,false,454,image-keyboard-response,9
true,4,2,1,0,false,q,true,true,0.0-2.0-0.11-0.106-3.106,0,0,0,68,false,stim,false,1,848.8999999910593,1,0,0,65904,task2,409575,false,true,457,image-keyboard-response,10
true,4,2,1,0,false,q,true,false,0.0-2.0-0.11-0.107-3.107,0,0,0,68,false,stim,false,1,533.3999999910593,1,0,0,65904,task2,411616,false,false,460,image-keyboard-response,11
true,4,1,1,2,false,d,true,false,0.0-2.0-0.12-0.108-3.108,0,0,0,90,false,stim,false,0,831.3999999910593,1,0,1,65904,task2,413973,false,false,463,image-keyboard-response,12
true,4,0,1,2,false,d,false,false,0.0-2.0-0.12-0.109-3.109,0,0,0,81,false,stim,true,0,750.0,1,0,1,65904,task2,416253,false,false,466,image-keyboard-response,13
true,4,0,1,0,true,q,false,false,0.0-2.0-0.12-0.110-3.110,0,0,0,81,false,stim,false,2,593.7000000029802,1,0,2,65904,task2,418355,false,true,469,image-keyboard-response,14
true,4,0,1,0,true,q,false,true,0.0-2.0-0.12-0.111-3.111,0,0,0,81,false,stim,false,2,427.79999999701977,1,0,2,65904,task2,420294,false,false,472,image-keyboard-response,15
true,4,2,1,0,false,q,true,false,0.0-2.0-0.12-0.112-3.112,0,0,0,68,false,stim,false,1,1773.8999999910593,1,0,0,65904,task2,423604,false,false,475,image-keyboard-response,16
true,4,1,1,0,false,q,false,false,0.0-2.0-0.12-0.113-3.113,0,0,0,90,false,stim,true,1,671.7999999970198,1,0,0,65904,task2,425793,false,false,478,image-keyboard-response,17
true,4,0,1,2,false,d,false,false,0.0-2.0-0.12-0.114-3.114,0,0,0,81,false,stim,true,0,1435.5,1,0,1,65904,task2,428751,false,false,481,image-keyboard-response,18
true,4,0,1,0,true,q,false,true,0.0-2.0-0.12-0.115-3.115,0,0,0,81,false,stim,false,2,861.7000000029802,1,0,2,65904,task2,431134,false,false,484,image-keyboard-response,19
true,4,0,1,0,true,q,false,true,0.0-2.0-0.12-0.116-3.116,0,0,0,81,false,stim,false,1,945.6999999880791,1,0,0,65904,task2,433598,false,false,487,image-keyboard-response,20
true,4,0,1,0,true,q,false,true,0.0-2.0-0.13-0.117-3.117,0,0,0,81,false,stim,false,2,716.5999999940395,1,0,2,65904,task2,435841,false,false,490,image-keyboard-response,21
true,4,0,1,0,true,q,false,false,0.0-2.0-0.13-0.118-3.118,0,0,0,81,false,stim,false,2,397.79999999701977,1,0,2,65904,task2,437757,false,true,493,image-keyboard-response,22
true,4,0,1,0,true,q,false,true,0.0-2.0-0.13-0.119-3.119,0,0,0,81,false,stim,false,2,448.3999999910593,1,0,2,65904,task2,439740,false,false,496,image-keyboard-response,23
true,4,0,1,0,true,q,false,true,0.0-2.0-0.13-0.120-3.120,0,0,0,81,false,stim,false,1,334.5,1,0,0,65904,task2,441608,false,false,499,image-keyboard-response,24
true,4,0,1,0,true,q,false,true,0.0-2.0-0.13-0.121-3.121,0,0,0,81,false,stim,false,1,533.4000000059605,1,0,0,65904,task2,443676,false,false,502,image-keyboard-response,25
true,4,2,1,2,true,d,false,true,0.0-2.0-0.13-0.122-3.122,0,0,0,68,false,stim,false,0,818.0999999940395,1,0,1,65904,task2,446026,false,false,505,image-keyboard-response,26
true,4,2,1,2,true,d,false,true,0.0-2.0-0.13-0.123-3.123,0,0,0,68,false,stim,false,0,694.5,1,0,1,65904,task2,448250,false,false,508,image-keyboard-response,27
true,4,2,1,2,true,d,false,true,0.0-2.0-0.13-0.124-3.124,0,0,0,68,false,stim,false,0,601.5999999940395,1,0,1,65904,task2,450376,false,false,511,image-keyboard-response,28
true,4,0,1,0,true,q,false,true,0.0-2.0-0.13-0.125-3.125,0,0,0,81,false,stim,false,1,469.09999999403954,1,0,0,65904,task2,452356,false,false,514,image-keyboard-response,29
true,4,2,1,2,true,d,false,true,0.0-2.0-0.14-0.126-3.126,0,0,0,68,false,stim,false,0,709.6000000089407,1,0,1,65904,task2,454581,false,false,517,image-keyboard-response,30
true,4,0,1,0,true,q,false,true,0.0-2.0-0.14-0.127-3.127,0,0,0,81,false,stim,false,2,830.0999999940395,1,0,2,65904,task2,456943,false,false,520,image-keyboard-response,31
true,4,2,1,2,true,d,false,true,0.0-2.0-0.14-0.128-3.128,0,0,0,68,false,stim,false,0,663.8999999910593,1,0,1,65904,task2,459126,false,false,523,image-keyboard-response,32
true,4,2,1,2,true,d,false,false,0.0-2.0-0.14-0.129-3.129,0,0,0,68,false,stim,false,0,517.9000000059605,1,0,1,65904,task2,461151,false,true,526,image-keyboard-response,33
true,4,0,1,0,true,q,false,false,0.0-2.0-0.14-0.130-3.130,0,0,0,81,false,stim,false,1,434.0,1,1,0,65904,task2,463111,false,true,529,image-keyboard-response,34
true,4,0,1,0,true,q,false,true,0.0-2.0-0.14-0.131-3.131,0,0,0,81,false,stim,false,2,421.5,1,0,2,65904,task2,465051,false,false,532,image-keyboard-response,35
true,4,0,1,0,true,q,false,true,0.0-2.0-0.14-0.132-3.132,0,0,0,81,false,stim,false,1,674.3999999910593,1,1,0,65904,task2,467249,false,false,535,image-keyboard-response,36
true,4,0,1,0,true,q,false,true,0.0-2.0-0.14-0.133-3.133,0,0,0,81,false,stim,false,1,392.59999999403954,1,1,0,65904,task2,469175,false,false,538,image-keyboard-response,37
true,4,0,1,0,true,q,false,true,0.0-2.0-0.14-0.134-3.134,0,0,0,81,false,stim,false,2,463.79999999701977,1,0,2,65904,task2,471172,false,false,541,image-keyboard-response,38
true,5,0,2,2,false,d,false,false,0.0-2.0-0.15-0.135-3.135,1,0,0,81,true,stim,true,0,313.0,1,0,2,65904,task2,473011,false,false,544,image-keyboard-response,1
true,5,0,2,0,true,q,false,true,0.0-2.0-0.15-0.136-3.136,1,0,0,81,false,stim,false,0,407.80000001192093,1,1,0,65904,task2,474953,false,false,547,image-keyboard-response,2
true,5,0,2,2,false,d,false,false,0.0-2.0-0.15-0.137-3.137,1,0,0,81,false,stim,true,0,366.90000000596046,1,0,2,65904,task2,476843,false,false,550,image-keyboard-response,3
true,5,0,2,2,false,d,false,false,0.0-2.0-0.15-0.138-3.138,1,0,0,81,false,stim,true,0,486.0,1,0,2,65904,task2,478852,false,false,553,image-keyboard-response,4
true,5,0,2,0,true,q,false,true,0.0-2.0-0.15-0.139-3.139,1,0,0,81,false,stim,false,0,755.0999999940395,1,1,0,65904,task2,481117,false,false,556,image-keyboard-response,5
true,5,2,2,0,false,q,false,false,0.0-2.0-0.15-0.140-3.140,1,0,0,68,false,stim,true,2,798.6000000089407,1,0,1,65904,task2,483420,false,false,559,image-keyboard-response,6
true,5,0,2,0,true,q,false,true,0.0-2.0-0.15-0.141-3.141,1,0,0,81,false,stim,false,0,800.2999999970198,1,1,0,65904,task2,485742,false,false,562,image-keyboard-response,7
true,5,1,2,0,false,q,true,false,0.0-2.0-0.15-0.142-3.142,1,0,0,90,false,stim,false,2,758.3999999910593,1,0,1,65904,task2,488033,false,false,565,image-keyboard-response,8
true,5,2,2,0,false,q,false,false,0.0-2.0-0.15-0.143-3.143,1,0,0,68,false,stim,true,2,803.7999999970198,1,0,1,65904,task2,490368,false,false,568,image-keyboard-response,9
true,5,1,2,2,false,d,true,false,0.0-2.0-0.16-0.144-3.144,1,0,0,90,false,stim,false,0,802.8000000119209,1,0,2,65904,task2,492679,false,false,571,image-keyboard-response,10
true,5,0,2,0,true,q,false,false,0.0-2.0-0.16-0.145-3.145,1,0,0,81,false,stim,false,2,1037.1000000089407,1,0,1,65904,task2,495235,false,true,574,image-keyboard-response,11
true,5,2,2,0,false,q,false,false,0.0-2.0-0.16-0.146-3.146,1,0,0,68,false,stim,true,2,1526.2999999970198,1,0,1,65904,task2,498287,false,false,577,image-keyboard-response,12
true,5,0,2,0,true,q,false,true,0.0-2.0-0.16-0.147-3.147,1,0,0,81,false,stim,false,0,683.3999999910593,1,1,0,65904,task2,500493,false,false,580,image-keyboard-response,13
true,5,2,2,2,true,d,false,true,0.0-2.0-0.16-0.148-3.148,1,0,0,68,false,stim,false,0,980.5,1,0,2,65904,task2,502985,false,false,583,image-keyboard-response,14
true,5,0,2,0,true,q,false,true,0.0-2.0-0.16-0.149-3.149,1,0,0,81,false,stim,false,0,559.0,1,1,0,65904,task2,505071,false,false,586,image-keyboard-response,15
true,5,0,2,0,true,q,false,true,0.0-2.0-0.16-0.150-3.150,1,0,0,81,false,stim,false,0,495.70000000298023,1,1,0,65904,task2,507083,false,false,589,image-keyboard-response,16
true,5,2,2,2,true,d,false,true,0.0-2.0-0.16-0.151-3.151,1,0,0,68,false,stim,false,0,516.1000000089407,1,0,2,65904,task2,509125,false,false,592,image-keyboard-response,17
true,5,1,2,0,false,q,true,false,0.0-2.0-0.16-0.152-3.152,1,0,0,90,false,stim,false,2,1204.3999999910593,1,0,1,65904,task2,511835,false,false,595,image-keyboard-response,18
true,5,0,2,0,true,q,false,true,0.0-2.0-0.17-0.153-3.153,1,0,0,81,false,stim,false,2,626.2000000029802,1,0,1,65904,task2,513982,false,false,598,image-keyboard-response,19
true,5,0,2,0,true,q,false,true,0.0-2.0-0.17-0.154-3.154,1,0,0,81,false,stim,false,0,378.0,1,1,0,65904,task2,515889,false,false,601,image-keyboard-response,20
true,5,0,2,0,true,q,false,false,0.0-2.0-0.17-0.155-3.155,1,0,0,81,false,stim,false,2,756.5999999940395,1,0,1,65904,task2,518183,false,true,604,image-keyboard-response,21
true,5,2,2,2,true,d,false,true,0.0-2.0-0.17-0.156-3.156,1,0,0,68,false,stim,false,0,498.29999999701977,1,0,2,65904,task2,520210,false,false,607,image-keyboard-response,22
true,5,0,2,0,true,q,false,true,0.0-2.0-0.17-0.157-3.157,1,0,0,81,false,stim,false,0,435.3999999910593,1,1,0,65904,task2,522172,false,false,610,image-keyboard-response,23
true,5,0,2,0,true,q,false,true,0.0-2.0-0.17-0.158-3.158,1,0,0,81,false,stim,false,2,568.7999999970198,1,0,1,65904,task2,524262,false,false,613,image-keyboard-response,24
true,5,0,2,0,true,q,false,true,0.0-2.0-0.17-0.159-3.159,1,0,0,81,false,stim,false,0,491.6000000089407,1,1,0,65904,task2,526276,false,false,616,image-keyboard-response,25
true,5,0,2,2,false,d,false,false,0.0-2.0-0.17-0.160-3.160,1,0,0,81,false,stim,true,0,544.5,1,0,2,65904,task2,528338,false,false,619,image-keyboard-response,26
true,5,2,2,2,true,d,false,true,0.0-2.0-0.17-0.161-3.161,1,0,0,68,false,stim,false,0,509.5,1,0,2,65904,task2,530369,false,false,622,image-keyboard-response,27
true,5,0,2,0,true,q,false,true,0.0-2.0-0.18-0.162-3.162,1,0,0,81,false,stim,false,0,337.5,1,1,0,65904,task2,532223,false,false,625,image-keyboard-response,28
true,5,0,2,0,true,q,false,true,0.0-2.0-0.18-0.163-3.163,1,0,0,81,false,stim,false,2,354.8999999910593,1,0,1,65904,task2,534114,false,false,628,image-keyboard-response,29
true,5,0,2,0,true,q,false,true,0.0-2.0-0.18-0.164-3.164,1,0,0,81,false,stim,false,2,558.6000000089407,1,0,1,65904,task2,536208,false,false,631,image-keyboard-response,30
true,5,0,2,0,true,q,false,true,0.0-2.0-0.18-0.165-3.165,1,0,0,81,false,stim,false,2,379.0,1,0,1,65904,task2,538092,false,false,634,image-keyboard-response,31
true,5,0,2,0,true,q,false,true,0.0-2.0-0.18-0.166-3.166,1,0,0,81,false,stim,false,0,459.69999998807907,1,0,0,65904,task2,540063,false,false,637,image-keyboard-response,32
true,5,0,2,0,true,q,false,true,0.0-2.0-0.18-0.167-3.167,1,0,0,81,false,stim,false,0,332.79999999701977,1,0,0,65904,task2,541922,false,false,640,image-keyboard-response,33
true,5,2,2,2,true,d,false,true,0.0-2.0-0.18-0.168-3.168,1,0,0,68,false,stim,false,0,780.7999999970198,1,0,2,65904,task2,544230,false,false,643,image-keyboard-response,34
true,6,2,1,0,false,q,false,false,0.0-2.0-0.18-0.169-3.169,0,0,0,68,true,stim,true,2,394.0,1,0,2,65904,task2,546169,false,false,646,image-keyboard-response,1
true,6,2,1,0,false,q,false,false,0.0-2.0-0.18-0.170-3.170,0,0,0,68,false,stim,true,2,344.79999999701977,1,0,2,65904,task2,548027,false,false,649,image-keyboard-response,2
true,6,1,1,0,false,q,true,false,0.0-2.0-0.19-0.171-3.171,0,0,0,90,false,stim,false,2,766.3999999910593,1,0,2,65904,task2,550316,false,false,652,image-keyboard-response,3
true,6,0,1,1,false,z,false,false,0.0-2.0-0.19-0.172-3.172,0,0,0,81,false,stim,true,0,563.9000000059605,1,0,0,65904,task2,552409,false,false,655,image-keyboard-response,4
true,6,0,1,1,false,z,false,false,0.0-2.0-0.19-0.173-3.173,0,0,0,81,false,stim,true,0,814.5999999940395,1,0,0,65904,task2,554752,false,false,658,image-keyboard-response,5
true,6,1,1,1,true,z,false,true,0.0-2.0-0.19-0.174-3.174,0,0,0,90,false,stim,false,0,485.80000001192093,1,0,0,65904,task2,556753,false,false,661,image-keyboard-response,6
true,6,2,1,2,true,d,false,true,0.0-2.0-0.19-0.175-3.175,0,0,0,68,false,stim,false,0,1112.800000011921,1,0,1,65904,task2,559394,false,false,664,image-keyboard-response,7
true,6,2,1,2,true,d,false,false,0.0-2.0-0.19-0.176-3.176,0,0,0,68,false,stim,false,0,538.7999999970198,1,0,1,65904,task2,561468,false,true,667,image-keyboard-response,8
true,6,0,1,0,true,q,false,true,0.0-2.0-0.19-0.177-3.177,0,0,0,81,false,stim,false,2,799.7999999970198,1,0,2,65904,task2,563785,false,false,670,image-keyboard-response,9
true,6,2,1,2,true,d,false,true,0.0-2.0-0.19-0.178-3.178,0,0,0,68,false,stim,false,0,796.5,1,0,1,65904,task2,566092,false,false,673,image-keyboard-response,10
true,6,0,1,0,true,q,false,true,0.0-2.0-0.19-0.179-3.179,0,0,0,81,false,stim,false,2,592.7999999970198,1,0,2,65904,task2,568209,false,false,676,image-keyboard-response,11
true,6,2,1,2,true,d,false,true,0.0-2.0-0.20-0.180-3.180,0,0,0,68,false,stim,false,0,585.2999999970198,1,0,1,65904,task2,570320,false,false,679,image-keyboard-response,12
true,6,0,1,0,true,q,false,true,0.0-2.0-0.20-0.181-3.181,0,0,0,81,false,stim,false,2,716.4000000059605,1,0,2,65904,task2,572548,false,false,682,image-keyboard-response,13
true,6,1,1,1,true,z,false,true,0.0-2.0-0.20-0.182-3.182,0,0,0,90,false,stim,false,0,593.3999999910593,1,0,0,65904,task2,574672,false,false,685,image-keyboard-response,14
true,6,1,1,1,true,z,false,true,0.0-2.0-0.20-0.183-3.183,0,0,0,90,false,stim,false,0,497.70000000298023,1,0,0,65904,task2,576681,false,false,688,image-keyboard-response,15
true,6,0,1,0,true,q,false,true,0.0-2.0-0.20-0.184-3.184,0,0,0,81,false,stim,false,2,370.79999999701977,1,0,2,65904,task2,578582,false,false,691,image-keyboard-response,16
true,6,1,1,1,true,z,false,false,0.0-2.0-0.20-0.185-3.185,0,0,0,90,false,stim,false,0,474.8999999910593,1,0,0,65904,task2,580591,false,true,694,image-keyboard-response,17
true,6,2,1,2,true,d,false,true,0.0-2.0-0.20-0.186-3.186,0,0,0,68,false,stim,false,0,663.5999999940395,1,0,1,65904,task2,582778,false,false,697,image-keyboard-response,18
true,6,0,1,0,true,q,false,true,0.0-2.0-0.20-0.187-3.187,0,0,0,81,false,stim,false,2,457.20000000298023,1,0,2,65904,task2,584743,false,false,700,image-keyboard-response,19
true,6,2,1,2,true,d,false,true,0.0-2.0-0.20-0.188-3.188,0,0,0,68,false,stim,false,0,1181.0,1,0,1,65904,task2,587444,false,false,703,image-keyboard-response,20
true,6,1,1,1,true,z,false,true,0.0-2.0-0.21-0.189-3.189,0,0,0,90,false,stim,false,0,378.5,1,0,0,65904,task2,589344,false,false,706,image-keyboard-response,21
true,6,0,1,0,true,q,false,true,0.0-2.0-0.21-0.190-3.190,0,0,0,81,false,stim,false,2,483.20000000298023,1,0,2,65904,task2,591345,false,false,709,image-keyboard-response,22
true,6,2,1,2,true,d,false,true,0.0-2.0-0.21-0.191-3.191,0,0,0,68,false,stim,false,0,715.6000000089407,1,0,1,65904,task2,593578,false,false,712,image-keyboard-response,23
true,6,2,1,2,true,d,false,true,0.0-2.0-0.21-0.192-3.192,0,0,0,68,false,stim,false,0,680.0,1,0,1,65904,task2,595778,false,false,715,image-keyboard-response,24
true,6,1,1,1,true,z,false,true,0.0-2.0-0.21-0.193-3.193,0,0,0,90,false,stim,false,0,449.6000000089407,1,0,0,65904,task2,597745,false,false,718,image-keyboard-response,25
true,6,0,1,0,true,q,false,true,0.0-2.0-0.21-0.194-3.194,0,0,0,81,false,stim,false,2,1332.6000000089407,1,0,2,65904,task2,600594,false,false,721,image-keyboard-response,26
true,6,1,1,1,true,z,false,true,0.0-2.0-0.21-0.195-3.195,0,0,0,90,false,stim,false,0,607.1000000089407,1,0,0,65904,task2,602722,false,false,724,image-keyboard-response,27
true,6,2,1,2,true,d,false,true,0.0-2.0-0.21-0.196-3.196,0,0,0,68,false,stim,false,0,519.5,1,0,1,65904,task2,604764,false,false,727,image-keyboard-response,28
true,6,0,1,0,true,q,false,false,0.0-2.0-0.21-0.197-3.197,0,0,0,81,false,stim,false,2,1042.699999988079,1,0,2,65904,task2,607323,false,true,730,image-keyboard-response,29
true,6,2,1,2,true,d,false,true,0.0-2.0-0.22-0.198-3.198,0,0,0,68,false,stim,false,0,691.2999999970198,1,0,1,65904,task2,609539,false,false,733,image-keyboard-response,30
true,6,2,1,2,true,d,false,true,0.0-2.0-0.22-0.199-3.199,0,0,0,68,false,stim,false,0,442.59999999403954,1,0,1,65904,task2,611504,false,false,736,image-keyboard-response,31
true,6,1,1,1,true,z,false,true,0.0-2.0-0.22-0.200-3.200,0,0,0,90,false,stim,false,0,701.6000000089407,1,0,0,65904,task2,613739,false,false,739,image-keyboard-response,32
true,6,1,1,1,true,z,false,true,0.0-2.0-0.22-0.201-3.201,0,0,0,90,false,stim,false,0,405.79999999701977,1,0,0,65904,task2,615686,false,false,742,image-keyboard-response,33
true,6,0,1,0,true,q,false,true,0.0-2.0-0.22-0.202-3.202,0,0,0,81,false,stim,false,2,1156.2000000029802,1,0,2,65904,task2,618359,false,false,745,image-keyboard-response,34
true,6,1,1,1,true,z,false,true,0.0-2.0-0.22-0.203-3.203,0,0,0,90,false,stim,false,0,1578.6000000089407,1,1,0,65904,task2,621459,false,false,748,image-keyboard-response,35
true,6,0,1,0,true,q,false,true,0.0-2.0-0.22-0.204-3.204,0,0,0,81,false,stim,false,2,908.5999999940395,1,0,2,65904,task2,623887,false,false,751,image-keyboard-response,36
true,6,0,1,0,true,q,false,true,0.0-2.0-0.22-0.205-3.205,0,0,0,81,false,stim,false,2,606.0,1,0,2,65904,task2,626022,false,false,754,image-keyboard-response,37
true,6,2,1,2,true,d,false,true,0.0-2.0-0.22-0.206-3.206,0,0,0,68,false,stim,false,0,599.5999999940395,1,0,1,65904,task2,628155,false,false,757,image-keyboard-response,38
true,7,1,2,1,true,z,false,true,0.0-2.0-0.23-0.207-3.207,1,0,0,90,true,stim,false,1,595.2000000029802,1,1,0,65904,task2,630272,false,false,760,image-keyboard-response,1
true,7,2,2,1,false,z,false,false,0.0-2.0-0.23-0.208-3.208,1,0,0,68,false,stim,true,2,921.1999999880791,1,0,1,65904,task2,632720,false,false,763,image-keyboard-response,2
true,7,1,2,1,true,z,false,true,0.0-2.0-0.23-0.209-3.209,1,0,0,90,false,stim,false,1,828.7000000029802,1,1,0,65904,task2,635058,false,false,766,image-keyboard-response,3
true,7,2,2,1,false,z,false,false,0.0-2.0-0.23-0.210-3.210,1,0,0,68,false,stim,true,2,712.5999999940395,1,0,1,65904,task2,637293,false,false,769,image-keyboard-response,4
true,7,1,2,1,true,z,false,true,0.0-2.0-0.23-0.211-3.211,1,0,0,90,false,stim,false,2,1595.9000000059605,1,0,1,65904,task2,640404,false,false,772,image-keyboard-response,5
true,7,0,2,2,false,d,false,false,0.0-2.0-0.23-0.212-3.212,1,0,0,81,false,stim,true,0,835.5999999940395,1,0,2,65904,task2,642775,false,false,775,image-keyboard-response,6
true,7,1,2,2,false,d,true,false,0.0-2.0-0.23-0.213-3.213,1,0,0,90,false,stim,false,0,905.5,1,0,2,65904,task2,645206,false,false,778,image-keyboard-response,7
true,7,1,2,1,true,z,false,false,0.0-2.0-0.23-0.214-3.214,1,0,0,90,false,stim,false,1,855.2999999970198,1,1,0,65904,task2,647579,false,true,781,image-keyboard-response,8
true,7,2,2,2,true,d,false,true,0.0-2.0-0.23-0.215-3.215,1,0,0,68,false,stim,false,0,729.9000000059605,1,0,2,65904,task2,649845,false,false,784,image-keyboard-response,9
true,7,2,2,2,true,d,false,true,0.0-2.0-0.24-0.216-3.216,1,0,0,68,false,stim,false,0,545.4000000059605,1,0,2,65904,task2,651907,false,false,787,image-keyboard-response,10
true,7,0,2,1,false,z,true,false,0.0-2.0-0.24-0.217-3.217,1,0,0,81,false,stim,false,1,957.2999999970198,1,1,0,65904,task2,654394,false,false,790,image-keyboard-response,11
true,7,1,2,1,true,z,false,true,0.0-2.0-0.24-0.218-3.218,1,0,0,90,false,stim,false,1,727.5,1,1,0,65904,task2,656657,false,false,793,image-keyboard-response,12
true,7,1,2,1,true,z,false,true,0.0-2.0-0.24-0.219-3.219,1,0,0,90,false,stim,false,1,478.80000001192093,1,1,0,65904,task2,658658,false,false,796,image-keyboard-response,13
true,7,1,2,1,true,z,false,true,0.0-2.0-0.24-0.220-3.220,1,0,0,90,false,stim,false,2,515.6000000089407,1,0,1,65904,task2,660693,false,false,799,image-keyboard-response,14
true,7,2,2,2,true,d,false,true,0.0-2.0-0.24-0.221-3.221,1,0,0,68,false,stim,false,0,661.7999999970198,1,0,2,65904,task2,662878,false,false,802,image-keyboard-response,15
true,7,1,2,1,true,z,false,true,0.0-2.0-0.24-0.222-3.222,1,0,0,90,false,stim,false,2,874.7999999970198,1,0,1,65904,task2,665288,false,false,805,image-keyboard-response,16
true,7,1,2,1,true,z,false,true,0.0-2.0-0.24-0.223-3.223,1,0,0,90,false,stim,false,2,573.8999999910593,1,0,1,65904,task2,667385,false,false,808,image-keyboard-response,17
true,7,2,2,2,true,d,false,true,0.0-2.0-0.24-0.224-3.224,1,0,0,68,false,stim,false,0,707.4000000059605,1,0,2,65904,task2,669618,false,false,811,image-keyboard-response,18
true,7,1,2,1,true,z,false,true,0.0-2.0-0.25-0.225-3.225,1,0,0,90,false,stim,false,2,462.0,1,0,1,65904,task2,671602,false,false,814,image-keyboard-response,19
true,7,1,2,1,true,z,false,true,0.0-2.0-0.25-0.226-3.226,1,0,0,90,false,stim,false,1,570.8000000119209,1,1,0,65904,task2,673696,false,false,817,image-keyboard-response,20
true,7,1,2,1,true,z,false,true,0.0-2.0-0.25-0.227-3.227,1,0,0,90,false,stim,false,1,449.69999998807907,1,1,0,65904,task2,675660,false,false,820,image-keyboard-response,21
true,7,2,2,2,true,d,false,true,0.0-2.0-0.25-0.228-3.228,1,0,0,68,false,stim,false,0,582.7000000029802,1,0,2,65904,task2,677773,false,false,823,image-keyboard-response,22
true,7,1,2,1,true,z,false,true,0.0-2.0-0.25-0.229-3.229,1,0,0,90,false,stim,false,1,398.20000000298023,1,1,0,65904,task2,679705,false,false,826,image-keyboard-response,23
true,7,2,2,2,true,d,false,true,0.0-2.0-0.25-0.230-3.230,1,0,0,68,false,stim,false,0,591.7999999970198,1,0,2,65904,task2,681805,false,false,829,image-keyboard-response,24
true,7,1,2,1,true,z,false,true,0.0-2.0-0.25-0.231-3.231,1,0,0,90,false,stim,false,2,338.5,1,0,1,65904,task2,683666,false,false,832,image-keyboard-response,25
true,7,2,2,2,true,d,false,true,0.0-2.0-0.25-0.232-3.232,1,0,0,68,false,stim,false,0,684.3000000119209,1,0,2,65904,task2,685861,false,false,835,image-keyboard-response,26
true,7,1,2,1,true,z,false,true,0.0-2.0-0.25-0.233-3.233,1,0,0,90,false,stim,false,2,594.8999999910593,1,0,1,65904,task2,687979,false,false,838,image-keyboard-response,27
true,7,1,2,1,true,z,false,true,0.0-2.0-0.26-0.234-3.234,1,0,0,90,false,stim,false,2,453.5,1,0,1,65904,task2,689944,false,false,841,image-keyboard-response,28
true,7,1,2,1,true,z,false,true,0.0-2.0-0.26-0.235-3.235,1,0,0,90,false,stim,false,1,362.5,1,0,0,65904,task2,691827,false,false,844,image-keyboard-response,29
true,7,2,2,2,true,d,false,true,0.0-2.0-0.26-0.236-3.236,1,0,0,68,false,stim,false,0,407.90000000596046,1,0,2,65904,task2,693763,false,false,847,image-keyboard-response,30
true,7,1,2,1,true,z,false,true,0.0-2.0-0.26-0.237-3.237,1,0,0,90,false,stim,false,1,750.8999999910593,1,0,0,65904,task2,696046,false,false,850,image-keyboard-response,31
true,7,2,2,2,true,d,false,true,0.0-2.0-0.26-0.238-3.238,1,0,0,68,false,stim,false,0,771.7000000029802,1,0,2,65904,task2,698343,false,false,853,image-keyboard-response,32
true,7,1,2,1,true,z,false,true,0.0-2.0-0.26-0.239-3.239,1,0,0,90,false,stim,false,1,469.5,1,0,0,65904,task2,700333,false,false,856,image-keyboard-response,33
true,8,1,1,2,false,d,false,false,0.0-2.0-0.26-0.240-3.240,0,0,0,90,true,stim,true,1,1297.0999999940395,1,0,1,65904,task2,703162,false,false,859,image-keyboard-response,1
true,8,2,1,0,false,q,false,true,0.0-2.0-0.26-0.241-3.241,0,0,0,68,false,stim,true,2,366.20000000298023,1,0,2,65904,task2,705057,false,true,862,image-keyboard-response,2
true,8,1,1,2,false,d,false,false,0.0-2.0-0.26-0.242-3.242,0,0,0,90,false,stim,true,1,492.0,1,0,1,65904,task2,707072,false,false,865,image-keyboard-response,3
true,8,2,1,0,false,q,false,false,0.0-2.0-0.27-0.243-3.243,0,0,0,68,false,stim,true,2,516.9000000059605,1,0,2,65904,task2,709123,false,false,868,image-keyboard-response,4
true,8,1,1,2,false,d,false,true,0.0-2.0-0.27-0.244-3.244,0,0,0,90,false,stim,true,1,516.3999999910593,1,0,0,65904,task2,711163,false,true,871,image-keyboard-response,5
true,8,2,1,0,false,q,false,false,0.0-2.0-0.27-0.245-3.245,0,0,0,68,false,stim,true,2,835.4000000059605,1,0,2,65904,task2,713513,false,false,874,image-keyboard-response,6
true,8,0,1,2,false,d,true,false,0.0-2.0-0.27-0.246-3.246,0,0,0,81,false,stim,false,1,734.6999999880791,1,0,1,65904,task2,715780,false,false,877,image-keyboard-response,7
true,8,2,1,0,false,q,false,false,0.0-2.0-0.27-0.247-3.247,0,0,0,68,false,stim,true,2,527.7999999970198,1,0,2,65904,task2,717845,false,false,880,image-keyboard-response,8
true,8,1,1,2,false,d,false,false,0.0-2.0-0.27-0.248-3.248,0,0,0,90,false,stim,true,1,900.2999999970198,1,0,0,65904,task2,720280,false,false,883,image-keyboard-response,9
true,8,2,1,2,true,d,false,true,0.0-2.0-0.27-0.249-3.249,0,0,0,68,false,stim,false,1,573.5,1,0,0,65904,task2,722373,false,false,886,image-keyboard-response,10
true,8,0,1,2,false,d,true,false,0.0-2.0-0.27-0.250-3.250,0,0,0,81,false,stim,false,1,778.4000000059605,1,0,1,65904,task2,724660,false,false,889,image-keyboard-response,11
true,8,1,1,2,false,d,false,false,0.0-2.0-0.27-0.251-3.251,0,0,0,90,false,stim,true,1,773.5999999940395,1,0,1,65904,task2,726953,false,false,892,image-keyboard-response,12
true,8,2,1,2,true,d,false,true,0.0-2.0-0.28-0.252-3.252,0,0,0,68,false,stim,false,1,616.1000000089407,1,0,1,65904,task2,729101,false,false,895,image-keyboard-response,13
true,8,2,1,2,true,d,false,false,0.0-2.0-0.28-0.253-3.253,0,0,0,68,false,stim,false,1,544.7999999970198,1,0,0,65904,task2,731158,false,true,898,image-keyboard-response,14
true,8,2,1,2,true,d,false,true,0.0-2.0-0.28-0.254-3.254,0,0,0,68,false,stim,false,1,410.1000000089407,1,0,1,65904,task2,733097,false,false,901,image-keyboard-response,15
true,8,2,1,2,true,d,false,true,0.0-2.0-0.28-0.255-3.255,0,0,0,68,false,stim,false,1,417.6000000089407,1,0,0,65904,task2,735025,false,false,904,image-keyboard-response,16
true,8,0,1,0,true,q,false,true,0.0-2.0-0.28-0.256-3.256,0,0,0,81,false,stim,false,2,444.20000000298023,1,0,2,65904,task2,736978,false,false,907,image-keyboard-response,17
true,8,2,1,2,true,d,false,true,0.0-2.0-0.28-0.257-3.257,0,0,0,68,false,stim,false,1,544.5,1,0,1,65904,task2,739050,false,false,910,image-keyboard-response,18
true,8,0,1,0,true,q,false,true,0.0-2.0-0.28-0.258-3.258,0,0,0,81,false,stim,false,2,575.1999999880791,1,0,2,65904,task2,741162,false,false,913,image-keyboard-response,19
true,8,0,1,0,true,q,false,true,0.0-2.0-0.28-0.259-3.259,0,0,0,81,false,stim,false,2,403.79999999701977,1,0,2,65904,task2,743080,false,false,916,image-keyboard-response,20
true,8,2,1,2,true,d,false,true,0.0-2.0-0.28-0.260-3.260,0,0,0,68,false,stim,false,1,549.1000000089407,1,0,0,65904,task2,745164,false,false,919,image-keyboard-response,21
true,8,0,1,0,true,q,false,true,0.0-2.0-0.29-0.261-3.261,0,0,0,81,false,stim,false,2,410.3999999910593,1,0,2,65904,task2,747106,false,false,922,image-keyboard-response,22
true,8,2,1,2,true,d,false,true,0.0-2.0-0.29-0.262-3.262,0,0,0,68,false,stim,false,1,420.5,1,0,0,65904,task2,749039,false,false,925,image-keyboard-response,23
true,8,0,1,0,true,q,false,true,0.0-2.0-0.29-0.263-3.263,0,0,0,81,false,stim,false,2,567.6000000089407,1,0,2,65904,task2,751123,false,false,928,image-keyboard-response,24
true,8,2,1,2,true,d,false,true,0.0-2.0-0.29-0.264-3.264,0,0,0,68,false,stim,false,1,521.2999999970198,1,0,0,65904,task2,753184,false,false,931,image-keyboard-response,25
true,8,2,1,2,true,d,false,true,0.0-2.0-0.29-0.265-3.265,0,0,0,68,false,stim,false,1,391.80000001192093,1,0,0,65904,task2,755097,false,false,934,image-keyboard-response,26
true,8,2,1,2,true,d,false,true,0.0-2.0-0.29-0.266-3.266,0,0,0,68,false,stim,false,1,341.59999999403954,1,0,1,65904,task2,756957,false,false,937,image-keyboard-response,27
true,8,2,1,2,true,d,false,true,0.0-2.0-0.29-0.267-3.267,0,0,0,68,false,stim,false,1,360.1000000089407,1,0,1,65904,task2,758825,false,false,940,image-keyboard-response,28
true,8,2,1,0,false,q,false,false,0.0-2.0-0.29-0.268-3.268,0,0,0,68,false,stim,true,2,494.19999998807907,1,0,2,65904,task2,760842,false,false,943,image-keyboard-response,29
true,8,2,1,2,true,d,false,true,0.0-2.0-0.29-0.269-3.269,0,0,0,68,false,stim,false,1,479.5,1,0,1,65904,task2,762834,false,false,946,image-keyboard-response,30
true,8,2,1,2,true,d,false,true,0.0-2.0-0.30-0.270-3.270,0,0,0,68,false,stim,false,1,407.90000000596046,1,0,1,65904,task2,764751,false,false,949,image-keyboard-response,31
true,8,0,1,0,true,q,false,true,0.0-2.0-0.30-0.271-3.271,0,0,0,81,false,stim,false,2,398.0,1,0,2,65904,task2,766662,false,false,952,image-keyboard-response,32
true,8,2,1,2,true,d,false,true,0.0-2.0-0.30-0.272-3.272,0,0,0,68,false,stim,false,1,412.70000000298023,1,0,1,65904,task2,768593,false,false,955,image-keyboard-response,33
true,8,2,1,2,true,d,false,true,0.0-2.0-0.30-0.273-3.273,0,0,0,68,false,stim,false,1,526.7000000029802,1,0,0,65904,task2,770642,false,false,958,image-keyboard-response,34
true,9,2,1,0,false,q,false,true,0.0-2.0-0.30-0.274-3.274,0,0,0,68,true,stim,true,2,463.40000000596046,1,0,0,65904,task2,772637,false,true,961,image-keyboard-response,1
true,9,2,1,2,true,d,false,true,0.0-2.0-0.30-0.275-3.275,0,0,0,68,false,stim,false,0,541.0999999940395,1,0,2,65904,task2,774707,false,false,964,image-keyboard-response,2
true,9,2,1,1,false,z,false,true,0.0-2.0-0.30-0.276-3.276,0,0,0,68,false,stim,true,2,2778.8999999910593,1,0,1,65904,task2,779016,false,true,967,image-keyboard-response,3
true,9,0,1,2,false,d,false,false,0.0-2.0-0.30-0.277-3.277,0,0,0,81,false,stim,true,0,376.20000000298023,1,0,2,65904,task2,780928,false,false,970,image-keyboard-response,4
true,9,2,1,0,false,q,false,true,0.0-2.0-0.30-0.278-3.278,0,0,0,68,false,stim,true,2,493.0,1,0,0,65904,task2,782947,false,true,973,image-keyboard-response,5
true,9,0,1,2,false,d,false,false,0.0-2.0-0.31-0.279-3.279,0,0,0,81,false,stim,true,0,452.8999999910593,1,0,2,65904,task2,784930,false,false,976,image-keyboard-response,6
true,9,1,1,2,false,d,true,false,0.0-2.0-0.31-0.280-3.280,0,0,0,90,false,stim,false,0,656.0,1,0,2,65904,task2,787114,false,false,979,image-keyboard-response,7
true,9,2,1,0,false,q,false,false,0.0-2.0-0.31-0.281-3.281,0,0,0,68,false,stim,true,2,988.0999999940395,1,0,0,65904,task2,789607,false,false,982,image-keyboard-response,8
true,9,0,1,1,false,z,true,true,0.0-2.0-0.31-0.282-3.282,0,0,0,81,false,stim,false,2,980.7999999970198,1,0,1,65904,task2,792124,false,true,985,image-keyboard-response,9
true,9,0,1,1,false,z,true,false,0.0-2.0-0.31-0.283-3.283,0,0,0,81,false,stim,false,2,519.4000000059605,1,0,1,65904,task2,794170,false,false,988,image-keyboard-response,10
true,9,0,1,0,true,q,false,true,0.0-2.0-0.31-0.284-3.284,0,0,0,81,false,stim,false,2,972.0,1,0,0,65904,task2,796670,false,false,991,image-keyboard-response,11
true,9,2,1,2,true,d,false,true,0.0-2.0-0.31-0.285-3.285,0,0,0,68,false,stim,false,0,476.30000001192093,1,0,2,65904,task2,798678,false,false,994,image-keyboard-response,12
true,9,0,1,1,false,z,true,false,0.0-2.0-0.31-0.286-3.286,0,0,0,81,false,stim,false,2,422.79999999701977,1,0,1,65904,task2,800631,false,false,997,image-keyboard-response,13
true,9,0,1,0,true,q,false,true,0.0-2.0-0.31-0.287-3.287,0,0,0,81,false,stim,false,2,334.5,1,0,0,65904,task2,802499,false,false,1000,image-keyboard-response,14
true,9,1,1,1,true,z,false,true,0.0-2.0-0.32-0.288-3.288,0,0,0,90,false,stim,false,2,382.79999999701977,1,0,1,65904,task2,804412,false,false,1003,image-keyboard-response,15
true,9,0,1,0,true,q,false,true,0.0-2.0-0.32-0.289-3.289,0,0,0,81,false,stim,false,2,660.2000000029802,1,0,0,65904,task2,806593,false,false,1006,image-keyboard-response,16
true,9,0,1,0,true,q,false,true,0.0-2.0-0.32-0.290-3.290,0,0,0,81,false,stim,false,2,472.70000000298023,1,0,0,65904,task2,808590,false,false,1009,image-keyboard-response,17
true,9,2,1,2,true,d,false,true,0.0-2.0-0.32-0.291-3.291,0,0,0,68,false,stim,false,0,572.9000000059605,1,0,2,65904,task2,810687,false,false,1012,image-keyboard-response,18
true,9,1,1,1,true,z,false,true,0.0-2.0-0.32-0.292-3.292,0,0,0,90,false,stim,false,2,458.70000000298023,1,0,1,65904,task2,812675,false,false,1015,image-keyboard-response,19
true,9,2,1,2,true,d,false,false,0.0-2.0-0.32-0.293-3.293,0,0,0,68,false,stim,false,0,634.7999999970198,1,0,2,65904,task2,814835,false,true,1018,image-keyboard-response,20
true,9,0,1,0,true,q,false,true,0.0-2.0-0.32-0.294-3.294,0,0,0,81,false,stim,false,2,509.40000000596046,1,0,0,65904,task2,816863,false,false,1021,image-keyboard-response,21
true,9,2,1,2,true,d,false,true,0.0-2.0-0.32-0.295-3.295,0,0,0,68,false,stim,false,0,585.7000000029802,1,0,2,65904,task2,818956,false,false,1024,image-keyboard-response,22
true,9,1,1,1,true,z,false,true,0.0-2.0-0.32-0.296-3.296,0,0,0,90,false,stim,false,2,312.79999999701977,1,0,1,65904,task2,820787,false,false,1027,image-keyboard-response,23
true,9,2,1,2,true,d,false,false,0.0-2.0-0.33-0.297-3.297,0,0,0,68,false,stim,false,0,596.6000000089407,1,0,2,65904,task2,822912,false,true,1030,image-keyboard-response,24
true,9,1,1,1,true,z,false,true,0.0-2.0-0.33-0.298-3.298,0,0,0,90,false,stim,false,2,331.09999999403954,1,0,1,65904,task2,824778,false,false,1033,image-keyboard-response,25
true,9,1,1,1,true,z,false,true,0.0-2.0-0.33-0.299-3.299,0,0,0,90,false,stim,false,2,561.6000000089407,1,0,1,65904,task2,826873,false,false,1036,image-keyboard-response,26
true,9,2,1,2,true,d,false,true,0.0-2.0-0.33-0.300-3.300,0,0,0,68,false,stim,false,0,986.4000000059605,1,0,2,65904,task2,829387,false,false,1039,image-keyboard-response,27
true,9,0,1,0,true,q,false,true,0.0-2.0-0.33-0.301-3.301,0,0,0,81,false,stim,false,2,725.2999999970198,1,0,0,65904,task2,831649,false,false,1042,image-keyboard-response,28
true,9,1,1,1,true,z,false,false,0.0-2.0-0.33-0.302-3.302,0,0,0,90,false,stim,false,2,1239.2000000029802,1,0,1,65904,task2,834410,false,true,1045,image-keyboard-response,29
true,9,0,1,0,true,q,false,true,0.0-2.0-0.33-0.303-3.303,0,0,0,81,false,stim,false,2,544.2000000029802,1,0,0,65904,task2,836483,false,false,1048,image-keyboard-response,30
true,9,2,1,2,true,d,false,true,0.0-2.0-0.33-0.304-3.304,0,0,0,68,false,stim,false,0,1239.2999999970198,1,0,2,65904,task2,839246,false,false,1051,image-keyboard-response,31
true,9,0,1,0,true,q,false,true,0.0-2.0-0.33-0.305-3.305,0,0,0,81,false,stim,false,2,586.5,1,0,0,65904,task2,841360,false,false,1054,image-keyboard-response,32
true,9,2,1,2,true,d,false,false,0.0-2.0-0.34-0.306-3.306,0,0,0,68,false,stim,false,0,949.0,1,0,2,65904,task2,843850,false,true,1057,image-keyboard-response,33
true,9,1,1,2,false,d,true,false,0.0-2.0-0.34-0.307-3.307,0,0,0,90,false,stim,false,0,936.5999999940395,1,0,2,65904,task2,846318,false,false,1060,image-keyboard-response,34
true,9,1,1,1,true,z,false,true,0.0-2.0-0.34-0.308-3.308,0,0,0,90,false,stim,false,2,1042.2999999970198,1,0,1,65904,task2,848889,false,false,1063,image-keyboard-response,35
true,9,1,1,1,true,z,false,true,0.0-2.0-0.34-0.309-3.309,0,0,0,90,false,stim,false,2,527.7000000029802,1,0,1,65904,task2,850949,false,false,1066,image-keyboard-response,36
true,9,0,1,0,true,q,false,true,0.0-2.0-0.34-0.310-3.310,0,0,0,81,false,stim,false,2,631.6999999880791,1,1,0,65904,task2,853099,false,false,1069,image-keyboard-response,37
true,9,0,1,0,true,q,false,true,0.0-2.0-0.34-0.311-3.311,0,0,0,81,false,stim,false,2,507.5,1,1,0,65904,task2,855128,false,false,1072,image-keyboard-response,38
true,10,1,2,0,false,q,false,false,0.0-2.0-0.34-0.312-3.312,1,0,0,90,true,stim,true,1,822.1999999880791,1,0,1,65904,task2,857469,false,false,1075,image-keyboard-response,1
true,10,0,2,0,true,q,false,true,0.0-2.0-0.34-0.313-3.313,1,0,0,81,false,stim,false,0,408.59999999403954,1,1,0,65904,task2,859393,false,false,1078,image-keyboard-response,2
true,10,2,2,1,false,z,false,false,0.0-2.0-0.34-0.314-3.314,1,0,0,68,false,stim,true,2,537.8999999910593,1,0,2,65904,task2,861465,false,false,1081,image-keyboard-response,3
true,10,1,2,1,true,z,false,true,0.0-2.0-0.35-0.315-3.315,1,0,0,90,false,stim,false,2,682.0,1,0,2,65904,task2,863681,false,false,1084,image-keyboard-response,4
true,10,1,2,1,true,z,false,true,0.0-2.0-0.35-0.316-3.316,1,0,0,90,false,stim,false,2,432.3999999910593,1,0,2,65904,task2,865636,false,false,1087,image-keyboard-response,5
true,10,0,2,0,true,q,false,true,0.0-2.0-0.35-0.317-3.317,1,0,0,81,false,stim,false,0,503.0,1,1,0,65904,task2,867658,false,false,1090,image-keyboard-response,6
true,10,0,2,0,true,q,false,true,0.0-2.0-0.35-0.318-3.318,1,0,0,81,false,stim,false,0,461.8999999910593,1,1,0,65904,task2,869625,false,false,1093,image-keyboard-response,7
true,10,0,2,0,true,q,false,true,0.0-2.0-0.35-0.319-3.319,1,0,0,81,false,stim,false,0,474.1000000089407,1,1,0,65904,task2,871624,false,false,1096,image-keyboard-response,8
true,10,1,2,0,false,q,false,false,0.0-2.0-0.35-0.320-3.320,1,0,0,90,false,stim,true,1,612.2000000029802,1,0,1,65904,task2,873764,false,false,1099,image-keyboard-response,9
true,10,2,2,0,false,q,true,false,0.0-2.0-0.35-0.321-3.321,1,0,0,68,false,stim,false,1,677.0999999940395,1,0,1,65904,task2,875976,false,false,1102,image-keyboard-response,10
true,10,1,2,1,true,z,false,true,0.0-2.0-0.35-0.322-3.322,1,0,0,90,false,stim,false,2,726.0,1,0,2,65904,task2,878226,false,false,1105,image-keyboard-response,11
true,10,0,2,0,true,q,false,true,0.0-2.0-0.35-0.323-3.323,1,0,0,81,false,stim,false,1,372.29999999701977,1,0,1,65904,task2,880127,false,false,1108,image-keyboard-response,12
true,10,0,2,0,true,q,false,true,0.0-2.0-0.36-0.324-3.324,1,0,0,81,false,stim,false,1,480.90000000596046,1,0,1,65904,task2,882131,false,false,1111,image-keyboard-response,13
true,10,0,2,0,true,q,false,true,0.0-2.0-0.36-0.325-3.325,1,0,0,81,false,stim,false,0,423.40000000596046,1,1,0,65904,task2,884077,false,false,1114,image-keyboard-response,14
true,10,1,2,1,true,z,false,true,0.0-2.0-0.36-0.326-3.326,1,0,0,90,false,stim,false,2,352.6000000089407,1,0,2,65904,task2,885966,false,false,1117,image-keyboard-response,15
true,10,1,2,1,true,z,false,true,0.0-2.0-0.36-0.327-3.327,1,0,0,90,false,stim,false,2,513.0,1,0,2,65904,task2,887999,false,false,1120,image-keyboard-response,16
true,10,1,2,1,true,z,false,true,0.0-2.0-0.36-0.328-3.328,1,0,0,90,false,stim,false,2,449.29999999701977,1,0,2,65904,task2,889990,false,false,1123,image-keyboard-response,17
true,10,0,2,0,true,q,false,true,0.0-2.0-0.36-0.329-3.329,1,0,0,81,false,stim,false,0,483.0,1,1,0,65904,task2,891995,false,false,1126,image-keyboard-response,18
true,10,0,2,0,true,q,false,true,0.0-2.0-0.36-0.330-3.330,1,0,0,81,false,stim,false,1,302.09999999403954,1,0,1,65904,task2,893820,false,false,1129,image-keyboard-response,19
true,10,0,2,0,true,q,false,true,0.0-2.0-0.36-0.331-3.331,1,0,0,81,false,stim,false,0,441.29999999701977,1,1,0,65904,task2,895791,false,false,1132,image-keyboard-response,20
true,10,0,2,0,true,q,false,true,0.0-2.0-0.36-0.332-3.332,1,0,0,81,false,stim,false,1,732.2999999970198,1,0,1,65904,task2,898052,false,false,1135,image-keyboard-response,21
true,10,0,2,0,true,q,false,true,0.0-2.0-0.37-0.333-3.333,1,0,0,81,false,stim,false,0,477.40000000596046,1,1,0,65904,task2,900050,false,false,1138,image-keyboard-response,22
true,10,1,2,1,true,z,false,true,0.0-2.0-0.37-0.334-3.334,1,0,0,90,false,stim,false,2,488.19999998807907,1,0,2,65904,task2,902055,false,false,1141,image-keyboard-response,23
true,10,1,2,1,true,z,false,true,0.0-2.0-0.37-0.335-3.335,1,0,0,90,false,stim,false,2,482.5,1,0,2,65904,task2,904057,false,false,1144,image-keyboard-response,24
true,10,0,2,0,true,q,false,true,0.0-2.0-0.37-0.336-3.336,1,0,0,81,false,stim,false,0,505.79999999701977,1,1,0,65904,task2,906086,false,false,1147,image-keyboard-response,25
true,10,0,2,0,true,q,false,true,0.0-2.0-0.37-0.337-3.337,1,0,0,81,false,stim,false,1,1228.2000000029802,1,0,1,65904,task2,908829,false,false,1150,image-keyboard-response,26
true,10,0,2,0,true,q,false,true,0.0-2.0-0.37-0.338-3.338,1,0,0,81,false,stim,false,1,421.3999999910593,1,0,1,65904,task2,910778,false,false,1153,image-keyboard-response,27
true,10,0,2,0,true,q,false,true,0.0-2.0-0.37-0.339-3.339,1,0,0,81,false,stim,false,1,330.5,1,0,1,65904,task2,912615,false,false,1156,image-keyboard-response,28
true,10,0,2,0,true,q,false,true,0.0-2.0-0.37-0.340-3.340,1,0,0,81,false,stim,false,0,638.7999999970198,1,1,0,65904,task2,914776,false,false,1159,image-keyboard-response,29
true,10,1,2,1,true,z,false,true,0.0-2.0-0.37-0.341-3.341,1,0,0,90,false,stim,false,2,414.69999998807907,1,0,2,65904,task2,916715,false,false,1162,image-keyboard-response,30
true,10,0,2,0,true,q,false,true,0.0-2.0-0.38-0.342-3.342,1,0,0,81,false,stim,false,0,456.6000000089407,1,1,0,65904,task2,918712,false,false,1165,image-keyboard-response,31
true,10,0,2,0,true,q,false,true,0.0-2.0-0.38-0.343-3.343,1,0,0,81,false,stim,false,1,1349.7000000029802,1,0,1,65904,task2,921585,false,false,1168,image-keyboard-response,32
true,11,2,2,0,false,q,true,false,0.0-2.0-0.38-0.344-3.344,1,0,0,68,true,stim,false,1,616.4000000059605,1,0,2,65904,task2,923733,false,false,1171,image-keyboard-response,1
true,11,0,2,1,false,z,false,false,0.0-2.0-0.38-0.345-3.345,1,0,0,81,false,stim,true,0,697.3999999910593,1,0,1,65904,task2,925950,false,false,1174,image-keyboard-response,2
true,11,0,2,1,false,z,false,false,0.0-2.0-0.38-0.346-3.346,1,0,0,81,false,stim,true,0,671.5999999940395,1,0,1,65904,task2,928137,false,false,1177,image-keyboard-response,3
true,11,0,2,0,true,q,false,true,0.0-2.0-0.38-0.347-3.347,1,0,0,81,false,stim,false,0,735.7000000029802,1,1,0,65904,task2,930403,false,false,1180,image-keyboard-response,4
true,11,0,2,0,true,q,false,true,0.0-2.0-0.38-0.348-3.348,1,0,0,81,false,stim,false,0,527.0999999940395,1,1,0,65904,task2,932455,false,false,1183,image-keyboard-response,5
true,11,1,2,0,false,q,false,false,0.0-2.0-0.38-0.349-3.349,1,0,0,90,false,stim,true,1,722.8000000119209,1,0,2,65904,task2,934706,false,false,1186,image-keyboard-response,6
true,11,2,2,0,false,q,true,false,0.0-2.0-0.38-0.350-3.350,1,0,0,68,false,stim,false,1,713.7999999970198,1,0,2,65904,task2,936959,false,false,1189,image-keyboard-response,7
true,11,0,2,0,true,q,false,true,0.0-2.0-0.39-0.351-3.351,1,0,0,81,false,stim,false,1,566.5,1,0,2,65904,task2,939052,false,false,1192,image-keyboard-response,8
true,11,0,2,0,true,q,false,true,0.0-2.0-0.39-0.352-3.352,1,0,0,81,false,stim,false,1,436.5,1,0,2,65904,task2,941014,false,false,1195,image-keyboard-response,9
true,11,1,2,1,true,z,false,true,0.0-2.0-0.39-0.353-3.353,1,0,0,90,false,stim,false,0,617.5,1,0,1,65904,task2,943166,false,false,1198,image-keyboard-response,10
true,11,1,2,1,true,z,false,true,0.0-2.0-0.39-0.354-3.354,1,0,0,90,false,stim,false,0,535.6999999880791,1,0,1,65904,task2,945235,false,false,1201,image-keyboard-response,11
true,11,0,2,0,true,q,false,true,0.0-2.0-0.39-0.355-3.355,1,0,0,81,false,stim,false,0,459.59999999403954,1,1,0,65904,task2,947226,false,false,1204,image-keyboard-response,12
true,11,0,2,0,true,q,false,true,0.0-2.0-0.39-0.356-3.356,1,0,0,81,false,stim,false,1,347.5,1,0,2,65904,task2,949104,false,false,1207,image-keyboard-response,13
true,11,0,2,0,true,q,false,true,0.0-2.0-0.39-0.357-3.357,1,0,0,81,false,stim,false,0,356.8999999910593,1,1,0,65904,task2,950967,false,false,1210,image-keyboard-response,14
true,11,0,2,0,true,q,false,true,0.0-2.0-0.39-0.358-3.358,1,0,0,81,false,stim,false,0,383.09999999403954,1,1,0,65904,task2,952885,false,false,1213,image-keyboard-response,15
true,11,1,2,1,true,z,false,true,0.0-2.0-0.39-0.359-3.359,1,0,0,90,false,stim,false,0,593.0,1,0,1,65904,task2,954986,false,false,1216,image-keyboard-response,16
true,11,0,2,0,true,q,false,true,0.0-2.0-0.40-0.360-3.360,1,0,0,81,false,stim,false,0,396.40000000596046,1,1,0,65904,task2,956914,false,false,1219,image-keyboard-response,17
true,11,0,2,0,true,q,false,true,0.0-2.0-0.40-0.361-3.361,1,0,0,81,false,stim,false,1,430.70000000298023,1,0,2,65904,task2,958853,false,false,1222,image-keyboard-response,18
true,11,0,2,0,true,q,false,false,0.0-2.0-0.40-0.362-3.362,1,0,0,81,false,stim,false,1,411.19999998807907,1,0,2,65904,task2,960775,false,true,1225,image-keyboard-response,19
true,11,1,2,1,true,z,false,true,0.0-2.0-0.40-0.363-3.363,1,0,0,90,false,stim,false,0,679.2999999970198,1,0,1,65904,task2,962983,false,false,1228,image-keyboard-response,20
true,11,0,2,0,true,q,false,true,0.0-2.0-0.40-0.364-3.364,1,0,0,81,false,stim,false,1,524.0,1,0,2,65904,task2,965040,false,false,1231,image-keyboard-response,21
true,11,1,2,1,true,z,false,true,0.0-2.0-0.40-0.365-3.365,1,0,0,90,false,stim,false,0,597.0,1,0,1,65904,task2,967151,false,false,1234,image-keyboard-response,22
true,11,1,2,1,true,z,false,true,0.0-2.0-0.40-0.366-3.366,1,0,0,90,false,stim,false,0,987.6000000089407,1,0,1,65904,task2,969651,false,false,1237,image-keyboard-response,23
true,11,0,2,0,true,q,false,true,0.0-2.0-0.40-0.367-3.367,1,0,0,81,false,stim,false,0,329.79999999701977,1,1,0,65904,task2,971514,false,false,1240,image-keyboard-response,24
true,11,0,2,0,true,q,false,true,0.0-2.0-0.40-0.368-3.368,1,0,0,81,false,stim,false,0,365.0,1,1,0,65904,task2,973402,false,false,1243,image-keyboard-response,25
true,11,1,2,1,true,z,false,true,0.0-2.0-0.41-0.369-3.369,1,0,0,90,false,stim,false,0,814.2000000029802,1,0,1,65904,task2,975749,false,false,1246,image-keyboard-response,26
true,11,0,2,0,true,q,false,false,0.0-2.0-0.41-0.370-3.370,1,0,0,81,false,stim,false,0,314.79999999701977,1,1,0,65904,task2,977591,false,true,1249,image-keyboard-response,27
true,11,0,2,0,true,q,false,true,0.0-2.0-0.41-0.371-3.371,1,0,0,81,false,stim,false,1,630.1000000089407,1,0,2,65904,task2,979732,false,false,1252,image-keyboard-response,28
true,11,0,2,0,true,q,false,true,0.0-2.0-0.41-0.372-3.372,1,0,0,81,false,stim,false,1,454.5,1,0,2,65904,task2,981713,false,false,1255,image-keyboard-response,29
true,11,1,2,1,true,z,false,true,0.0-2.0-0.41-0.373-3.373,1,0,0,90,false,stim,false,0,576.7000000029802,1,1,1,65904,task2,983827,false,false,1258,image-keyboard-response,30
true,11,0,2,0,true,q,false,true,0.0-2.0-0.41-0.374-3.374,1,0,0,81,false,stim,false,1,542.7000000029802,1,0,2,65904,task2,985884,false,false,1261,image-keyboard-response,31
true,11,1,2,1,true,z,false,true,0.0-2.0-0.41-0.375-3.375,1,0,0,90,false,stim,false,0,592.9000000059605,1,1,1,65904,task2,988009,false,false,1264,image-keyboard-response,32
true,11,0,2,0,true,q,false,true,0.0-2.0-0.41-0.376-3.376,1,0,0,81,false,stim,false,0,544.2000000029802,1,0,0,65904,task2,990063,false,false,1267,image-keyboard-response,33
true,11,0,2,0,true,q,false,true,0.0-2.0-0.41-0.377-3.377,1,0,0,81,false,stim,false,0,372.6000000089407,1,0,0,65904,task2,991958,false,false,1270,image-keyboard-response,34
true,12,1,2,1,true,z,false,true,0.0-2.0-0.42-0.378-3.378,0,1,0,90,true,stim,false,1,603.0999999940395,1,1,1,65904,task2,994092,false,false,1273,image-keyboard-response,1
true,12,0,2,2,false,d,false,false,0.0-2.0-0.42-0.379-3.379,0,1,0,81,false,stim,true,0,303.3999999910593,1,0,2,65904,task2,995907,false,false,1276,image-keyboard-response,2
true,12,0,2,2,false,d,false,false,0.0-2.0-0.42-0.380-3.380,0,1,0,81,false,stim,true,0,404.29999999701977,1,0,2,65904,task2,997829,false,false,1279,image-keyboard-response,3
true,12,0,2,2,false,d,false,false,0.0-2.0-0.42-0.381-3.381,0,1,0,81,false,stim,true,0,645.2000000029802,1,0,0,65904,task2,1000005,false,false,1282,image-keyboard-response,4
true,12,1,2,2,false,d,true,true,0.0-2.0-0.42-0.382-3.382,0,1,0,90,false,stim,false,0,874.0,1,0,0,65904,task2,1002413,false,true,1285,image-keyboard-response,5
true,12,2,2,2,true,d,false,true,0.0-2.0-0.42-0.383-3.383,0,1,0,68,false,stim,false,0,812.0,1,0,2,65904,task2,1004760,false,false,1288,image-keyboard-response,6
true,12,1,2,2,false,d,true,false,0.0-2.0-0.42-0.384-3.384,0,1,0,90,false,stim,false,0,649.4000000059605,1,0,0,65904,task2,1006925,false,false,1291,image-keyboard-response,7
true,12,1,2,1,true,z,false,true,0.0-2.0-0.42-0.385-3.385,0,1,0,90,false,stim,false,1,548.6000000089407,1,1,1,65904,task2,1008996,false,false,1294,image-keyboard-response,8
true,12,1,2,1,true,z,false,true,0.0-2.0-0.42-0.386-3.386,0,1,0,90,false,stim,false,1,427.40000000596046,1,1,1,65904,task2,1010946,false,false,1297,image-keyboard-response,9
true,12,2,2,2,true,d,false,true,0.0-2.0-0.43-0.387-3.387,0,1,0,68,false,stim,false,0,491.70000000298023,1,0,2,65904,task2,1012951,false,false,1300,image-keyboard-response,10
true,12,1,2,2,false,d,true,false,0.0-2.0-0.43-0.388-3.388,0,1,0,90,false,stim,false,0,359.09999999403954,1,0,0,65904,task2,1014843,false,false,1303,image-keyboard-response,11
true,12,1,2,1,true,z,false,true,0.0-2.0-0.43-0.389-3.389,0,1,0,90,false,stim,false,1,2551.0999999940395,1,1,1,65904,task2,1018918,false,false,1306,image-keyboard-response,12
true,12,2,2,2,true,d,false,true,0.0-2.0-0.43-0.390-3.390,0,1,0,68,false,stim,false,0,525.1999999880791,1,0,2,65904,task2,1020956,false,false,1309,image-keyboard-response,13
true,12,1,2,2,false,d,true,false,0.0-2.0-0.43-0.391-3.391,0,1,0,90,false,stim,false,0,506.8999999910593,1,0,2,65904,task2,1022978,false,false,1312,image-keyboard-response,14
true,12,1,2,1,true,z,false,true,0.0-2.0-0.43-0.392-3.392,0,1,0,90,false,stim,false,1,672.5999999940395,1,1,1,65904,task2,1025180,false,false,1315,image-keyboard-response,15
true,12,2,2,2,true,d,false,true,0.0-2.0-0.43-0.393-3.393,0,1,0,68,false,stim,false,0,778.1000000089407,1,0,0,65904,task2,1027480,false,false,1318,image-keyboard-response,16
true,12,2,2,2,true,d,false,true,0.0-2.0-0.43-0.394-3.394,0,1,0,68,false,stim,false,0,427.29999999701977,1,0,0,65904,task2,1029428,false,false,1321,image-keyboard-response,17
true,12,1,2,1,true,z,false,true,0.0-2.0-0.43-0.395-3.395,0,1,0,90,false,stim,false,1,586.5999999940395,1,1,1,65904,task2,1031532,false,false,1324,image-keyboard-response,18
true,12,1,2,1,true,z,false,true,0.0-2.0-0.44-0.396-3.396,0,1,0,90,false,stim,false,1,485.29999999701977,1,1,1,65904,task2,1033528,false,false,1327,image-keyboard-response,19
true,12,2,2,2,true,d,false,true,0.0-2.0-0.44-0.397-3.397,0,1,0,68,false,stim,false,0,532.3999999910593,1,0,0,65904,task2,1035568,false,false,1330,image-keyboard-response,20
true,12,1,2,1,true,z,false,true,0.0-2.0-0.44-0.398-3.398,0,1,0,90,false,stim,false,1,725.0999999940395,1,1,1,65904,task2,1037820,false,false,1333,image-keyboard-response,21
true,12,2,2,2,true,d,false,true,0.0-2.0-0.44-0.399-3.399,0,1,0,68,false,stim,false,0,472.29999999701977,1,0,2,65904,task2,1039813,false,false,1336,image-keyboard-response,22
true,12,2,2,2,true,d,false,true,0.0-2.0-0.44-0.400-3.400,0,1,0,68,false,stim,false,0,568.7000000029802,1,0,0,65904,task2,1041905,false,false,1339,image-keyboard-response,23
true,12,1,2,1,true,z,false,true,0.0-2.0-0.44-0.401-3.401,0,1,0,90,false,stim,false,1,627.1999999880791,1,1,1,65904,task2,1044052,false,false,1342,image-keyboard-response,24
true,12,2,2,2,true,d,false,true,0.0-2.0-0.44-0.402-3.402,0,1,0,68,false,stim,false,0,486.0,1,0,0,65904,task2,1046068,false,false,1345,image-keyboard-response,25
true,12,2,2,2,true,d,false,true,0.0-2.0-0.44-0.403-3.403,0,1,0,68,false,stim,false,0,769.7999999970198,1,0,2,65904,task2,1048348,false,false,1348,image-keyboard-response,26
true,12,2,2,2,true,d,false,true,0.0-2.0-0.44-0.404-3.404,0,1,0,68,false,stim,false,0,458.09999999403954,1,0,2,65904,task2,1050342,false,false,1351,image-keyboard-response,27
true,12,1,2,1,true,z,false,true,0.0-2.0-0.45-0.405-3.405,0,1,0,90,false,stim,false,1,564.2999999970198,1,0,1,65904,task2,1052433,false,false,1354,image-keyboard-response,28
true,12,2,2,2,true,d,false,true,0.0-2.0-0.45-0.406-3.406,0,1,0,68,false,stim,false,0,1092.2000000029802,1,1,0,65904,task2,1055051,false,false,1357,image-keyboard-response,29
true,12,2,2,2,true,d,false,true,0.0-2.0-0.45-0.407-3.407,0,1,0,68,false,stim,false,0,408.09999999403954,1,1,0,65904,task2,1056992,false,false,1360,image-keyboard-response,30
true,12,2,2,2,true,d,false,true,0.0-2.0-0.45-0.408-3.408,0,1,0,68,false,stim,false,0,562.2000000029802,1,0,2,65904,task2,1059082,false,false,1363,image-keyboard-response,31
true,13,1,2,0,false,q,false,false,0.0-2.0-0.45-0.409-3.409,1,0,0,90,true,stim,true,1,588.0999999940395,1,0,1,65904,task2,1061181,false,false,1366,image-keyboard-response,1
true,13,2,2,2,true,d,false,false,0.0-2.0-0.45-0.410-3.410,1,0,0,68,false,stim,false,2,610.8000000119209,1,1,0,65904,task2,1063313,false,true,1369,image-keyboard-response,2
true,13,1,2,0,false,q,false,false,0.0-2.0-0.45-0.411-3.411,1,0,0,90,false,stim,true,1,821.8999999910593,1,0,1,65904,task2,1065651,false,false,1372,image-keyboard-response,3
true,13,2,2,0,false,q,false,false,0.0-2.0-0.45-0.412-3.412,1,0,0,68,false,stim,true,2,691.5,1,0,2,65904,task2,1067859,false,false,1375,image-keyboard-response,4
true,13,0,2,0,true,q,false,true,0.0-2.0-0.45-0.413-3.413,1,0,0,81,false,stim,false,2,836.8999999910593,1,0,2,65904,task2,1070211,false,false,1378,image-keyboard-response,5
true,13,1,2,2,false,d,true,false,0.0-2.0-0.46-0.414-3.414,1,0,0,90,false,stim,false,2,633.0,1,1,0,65904,task2,1072369,false,false,1381,image-keyboard-response,6
true,13,0,2,2,false,d,true,false,0.0-2.0-0.46-0.415-3.415,1,0,0,81,false,stim,false,2,652.2000000029802,1,1,0,65904,task2,1074545,false,false,1384,image-keyboard-response,7
true,13,0,2,0,true,q,false,true,0.0-2.0-0.46-0.416-3.416,1,0,0,81,false,stim,false,2,621.7999999970198,1,0,2,65904,task2,1076689,false,false,1387,image-keyboard-response,8
true,13,2,2,2,true,d,false,true,0.0-2.0-0.46-0.417-3.417,1,0,0,68,false,stim,false,2,530.8999999910593,1,1,0,65904,task2,1078749,false,false,1390,image-keyboard-response,9
true,13,0,2,0,true,q,false,true,0.0-2.0-0.46-0.418-3.418,1,0,0,81,false,stim,false,1,968.5,1,0,1,65904,task2,1081245,false,false,1393,image-keyboard-response,10
true,13,0,2,0,true,q,false,true,0.0-2.0-0.46-0.419-3.419,1,0,0,81,false,stim,false,2,431.5,1,0,2,65904,task2,1083202,false,false,1396,image-keyboard-response,11
true,13,0,2,0,true,q,false,true,0.0-2.0-0.46-0.420-3.420,1,0,0,81,false,stim,false,1,370.29999999701977,1,0,1,65904,task2,1085081,false,false,1399,image-keyboard-response,12
true,13,0,2,0,true,q,false,true,0.0-2.0-0.46-0.421-3.421,1,0,0,81,false,stim,false,1,723.5999999940395,1,0,1,65904,task2,1087343,false,false,1402,image-keyboard-response,13
true,13,0,2,0,true,q,false,true,0.0-2.0-0.46-0.422-3.422,1,0,0,81,false,stim,false,2,470.3999999910593,1,0,2,65904,task2,1089346,false,false,1405,image-keyboard-response,14
true,13,0,2,0,true,q,false,true,0.0-2.0-0.47-0.423-3.423,1,0,0,81,false,stim,false,1,468.3999999910593,1,0,1,65904,task2,1091329,false,false,1408,image-keyboard-response,15
true,13,0,2,0,true,q,false,false,0.0-2.0-0.47-0.424-3.424,1,0,0,81,false,stim,false,2,424.5,1,0,2,65904,task2,1093262,false,true,1411,image-keyboard-response,16
true,13,0,2,0,true,q,false,true,0.0-2.0-0.47-0.425-3.425,1,0,0,81,false,stim,false,1,360.79999999701977,1,0,1,65904,task2,1095137,false,false,1414,image-keyboard-response,17
true,13,2,2,2,true,d,false,true,0.0-2.0-0.47-0.426-3.426,1,0,0,68,false,stim,false,2,558.0,1,1,0,65904,task2,1097211,false,false,1417,image-keyboard-response,18
true,13,0,2,0,true,q,false,true,0.0-2.0-0.47-0.427-3.427,1,0,0,81,false,stim,false,1,437.1000000089407,1,0,1,65904,task2,1099176,false,false,1420,image-keyboard-response,19
true,13,2,2,2,true,d,false,true,0.0-2.0-0.47-0.428-3.428,1,0,0,68,false,stim,false,2,584.7999999970198,1,1,0,65904,task2,1101300,false,false,1423,image-keyboard-response,20
true,13,2,2,2,true,d,false,true,0.0-2.0-0.47-0.429-3.429,1,0,0,68,false,stim,false,2,404.0,1,1,0,65904,task2,1103245,false,false,1426,image-keyboard-response,21
true,13,0,2,0,true,q,false,true,0.0-2.0-0.47-0.430-3.430,1,0,0,81,false,stim,false,2,445.70000000298023,1,0,2,65904,task2,1105219,false,false,1429,image-keyboard-response,22
true,13,0,2,0,true,q,false,true,0.0-2.0-0.47-0.431-3.431,1,0,0,81,false,stim,false,2,367.5,1,0,2,65904,task2,1107124,false,false,1432,image-keyboard-response,23
true,13,2,2,2,true,d,false,true,0.0-2.0-0.48-0.432-3.432,1,0,0,68,false,stim,false,2,502.1000000089407,1,1,0,65904,task2,1109167,false,false,1435,image-keyboard-response,24
true,13,0,2,0,true,q,false,true,0.0-2.0-0.48-0.433-3.433,1,0,0,81,false,stim,false,2,552.3999999910593,1,0,2,65904,task2,1111253,false,false,1438,image-keyboard-response,25
true,13,2,2,2,true,d,false,true,0.0-2.0-0.48-0.434-3.434,1,0,0,68,false,stim,false,2,473.70000000298023,1,1,0,65904,task2,1113247,false,false,1441,image-keyboard-response,26
true,13,0,2,0,true,q,false,true,0.0-2.0-0.48-0.435-3.435,1,0,0,81,false,stim,false,1,433.0,1,1,1,65904,task2,1115217,false,false,1444,image-keyboard-response,27
true,13,0,2,0,true,q,false,true,0.0-2.0-0.48-0.436-3.436,1,0,0,81,false,stim,false,2,1451.5,1,0,2,65904,task2,1118205,false,false,1447,image-keyboard-response,28
true,13,2,2,2,true,d,false,true,0.0-2.0-0.48-0.437-3.437,1,0,0,68,false,stim,false,2,350.29999999701977,1,0,0,65904,task2,1120070,false,false,1450,image-keyboard-response,29
true,13,0,2,0,true,q,false,true,0.0-2.0-0.48-0.438-3.438,1,0,0,81,false,stim,false,1,412.70000000298023,1,1,1,65904,task2,1122017,false,false,1453,image-keyboard-response,30
true,13,0,2,0,true,q,false,true,0.0-2.0-0.48-0.439-3.439,1,0,0,81,false,stim,false,1,347.80000001192093,1,1,1,65904,task2,1123882,false,false,1456,image-keyboard-response,31
true,14,0,2,1,false,z,false,false,0.0-2.0-0.48-0.440-3.440,0,1,0,81,true,stim,true,0,315.20000000298023,1,0,2,65904,task2,1125724,false,false,1459,image-keyboard-response,1
true,14,0,2,0,true,q,false,false,0.0-2.0-0.49-0.441-3.441,0,1,0,81,false,stim,false,0,362.59999999403954,1,1,1,65904,task2,1127598,false,true,1462,image-keyboard-response,2
true,14,1,2,0,false,q,true,false,0.0-2.0-0.49-0.442-3.442,0,1,0,90,false,stim,false,0,668.9000000059605,1,1,1,65904,task2,1129776,false,false,1465,image-keyboard-response,3
true,14,2,2,1,false,z,false,false,0.0-2.0-0.49-0.443-3.443,0,1,0,68,false,stim,true,2,384.90000000596046,1,0,0,65904,task2,1131686,false,false,1468,image-keyboard-response,4
true,14,2,2,1,false,z,true,false,0.0-2.0-0.49-0.444-3.444,0,1,0,68,false,stim,false,0,1073.5999999940395,1,0,2,65904,task2,1134286,false,false,1471,image-keyboard-response,5
true,14,0,2,1,false,z,true,false,0.0-2.0-0.49-0.445-3.445,0,1,0,81,false,stim,false,2,563.7999999970198,1,0,0,65904,task2,1136371,false,false,1474,image-keyboard-response,6
true,14,1,2,1,true,z,false,true,0.0-2.0-0.49-0.446-3.446,0,1,0,90,false,stim,false,2,504.5,1,0,0,65904,task2,1138391,false,false,1477,image-keyboard-response,7
true,14,1,2,1,true,z,false,true,0.0-2.0-0.49-0.447-3.447,0,1,0,90,false,stim,false,0,503.80000001192093,1,0,2,65904,task2,1140422,false,false,1480,image-keyboard-response,8
true,14,1,2,1,true,z,false,true,0.0-2.0-0.49-0.448-3.448,0,1,0,90,false,stim,false,0,484.1000000089407,1,0,2,65904,task2,1142440,false,false,1483,image-keyboard-response,9
true,14,2,2,0,false,q,true,false,0.0-2.0-0.49-0.449-3.449,0,1,0,68,false,stim,false,0,618.5,1,1,1,65904,task2,1144588,false,false,1486,image-keyboard-response,10
true,14,0,2,0,true,q,false,true,0.0-2.0-0.50-0.450-3.450,0,1,0,81,false,stim,false,0,767.5,1,1,1,65904,task2,1146892,false,false,1489,image-keyboard-response,11
true,14,1,2,1,true,z,false,true,0.0-2.0-0.50-0.451-3.451,0,1,0,90,false,stim,false,0,764.2000000029802,1,0,2,65904,task2,1149198,false,false,1492,image-keyboard-response,12
true,14,0,2,0,true,q,false,true,0.0-2.0-0.50-0.452-3.452,0,1,0,81,false,stim,false,0,495.5,1,1,1,65904,task2,1151223,false,false,1495,image-keyboard-response,13
true,14,1,2,1,true,z,false,true,0.0-2.0-0.50-0.453-3.453,0,1,0,90,false,stim,false,2,393.69999998807907,1,0,0,65904,task2,1153145,false,false,1498,image-keyboard-response,14
true,14,1,2,1,true,z,false,true,0.0-2.0-0.50-0.454-3.454,0,1,0,90,false,stim,false,0,443.59999999403954,1,0,2,65904,task2,1155120,false,false,1501,image-keyboard-response,15
true,14,1,2,1,true,z,false,true,0.0-2.0-0.50-0.455-3.455,0,1,0,90,false,stim,false,0,453.69999998807907,1,0,2,65904,task2,1157097,false,false,1504,image-keyboard-response,16
true,14,1,2,1,true,z,false,true,0.0-2.0-0.50-0.456-3.456,0,1,0,90,false,stim,false,2,553.5,1,0,0,65904,task2,1159172,false,false,1507,image-keyboard-response,17
true,14,0,2,0,true,q,false,true,0.0-2.0-0.50-0.457-3.457,0,1,0,81,false,stim,false,0,582.2000000029802,1,1,1,65904,task2,1161291,false,false,1510,image-keyboard-response,18
true,14,1,2,1,true,z,false,true,0.0-2.0-0.50-0.458-3.458,0,1,0,90,false,stim,false,2,898.7000000029802,1,0,0,65904,task2,1163720,false,false,1513,image-keyboard-response,19
true,14,0,2,0,true,q,false,true,0.0-2.0-0.51-0.459-3.459,0,1,0,81,false,stim,false,0,736.9000000059605,1,1,1,65904,task2,1165989,false,false,1516,image-keyboard-response,20
true,14,0,2,0,true,q,false,false,0.0-2.0-0.51-0.460-3.460,0,1,0,81,false,stim,false,0,462.8999999910593,1,1,1,65904,task2,1167977,false,true,1519,image-keyboard-response,21
true,14,1,2,1,true,z,false,true,0.0-2.0-0.51-0.461-3.461,0,1,0,90,false,stim,false,2,587.2999999970198,1,0,0,65904,task2,1170094,false,false,1522,image-keyboard-response,22
true,14,1,2,1,true,z,false,true,0.0-2.0-0.51-0.462-3.462,0,1,0,90,false,stim,false,2,452.20000000298023,1,0,0,65904,task2,1172070,false,false,1525,image-keyboard-response,23
true,14,1,2,1,true,z,false,false,0.0-2.0-0.51-0.463-3.463,0,1,0,90,false,stim,false,0,363.79999999701977,1,0,2,65904,task2,1173951,false,true,1528,image-keyboard-response,24
true,14,1,2,1,true,z,false,false,0.0-2.0-0.51-0.464-3.464,0,1,0,90,false,stim,false,0,557.7000000029802,1,0,2,65904,task2,1176019,false,true,1531,image-keyboard-response,25
true,14,0,2,0,true,q,false,true,0.0-2.0-0.51-0.465-3.465,0,1,0,81,false,stim,false,0,821.7999999970198,1,1,1,65904,task2,1178377,false,false,1534,image-keyboard-response,26
true,14,0,2,1,false,z,false,false,0.0-2.0-0.51-0.466-3.466,0,1,0,81,false,stim,true,0,431.3999999910593,1,0,2,65904,task2,1180340,false,false,1537,image-keyboard-response,27
true,14,1,2,1,true,z,false,true,0.0-2.0-0.51-0.467-3.467,0,1,0,90,false,stim,false,2,504.0,1,1,0,65904,task2,1182361,false,false,1540,image-keyboard-response,28
true,14,1,2,1,true,z,false,true,0.0-2.0-0.52-0.468-3.468,0,1,0,90,false,stim,false,2,489.0,1,1,0,65904,task2,1184370,false,false,1543,image-keyboard-response,29
true,14,0,2,0,true,q,false,true,0.0-2.0-0.52-0.469-3.469,0,1,0,81,false,stim,false,0,624.6999999880791,1,0,1,65904,task2,1186528,false,false,1546,image-keyboard-response,30
true,14,2,2,1,false,z,true,false,0.0-2.0-0.52-0.470-3.470,0,1,0,68,false,stim,false,0,482.70000000298023,1,0,2,65904,task2,1188543,false,false,1549,image-keyboard-response,31
true,15,0,2,1,false,z,false,false,0.0-2.0-0.52-0.471-3.471,1,0,0,81,true,stim,true,0,714.5,1,0,1,65904,task2,1190778,false,false,1552,image-keyboard-response,1
true,15,1,2,1,true,z,false,true,0.0-2.0-0.52-0.472-3.472,1,0,0,90,false,stim,false,1,638.5,1,1,0,65904,task2,1192955,false,false,1555,image-keyboard-response,2
true,15,1,2,0,false,q,false,false,0.0-2.0-0.52-0.473-3.473,1,0,0,90,false,stim,true,1,1287.199999988079,1,0,2,65904,task2,1195774,false,false,1558,image-keyboard-response,3
true,15,1,2,1,true,z,false,true,0.0-2.0-0.52-0.474-3.474,1,0,0,90,false,stim,false,0,783.5,1,0,1,65904,task2,1198071,false,false,1561,image-keyboard-response,4
true,15,1,2,1,true,z,false,false,0.0-2.0-0.52-0.475-3.475,1,0,0,90,false,stim,false,1,800.2000000029802,1,1,0,65904,task2,1200403,false,true,1564,image-keyboard-response,5
true,15,0,2,0,true,q,false,true,0.0-2.0-0.52-0.476-3.476,1,0,0,81,false,stim,false,1,917.3999999910593,1,0,2,65904,task2,1202843,false,false,1567,image-keyboard-response,6
true,15,0,2,0,true,q,false,true,0.0-2.0-0.53-0.477-3.477,1,0,0,81,false,stim,false,1,531.7999999970198,1,0,2,65904,task2,1204907,false,false,1570,image-keyboard-response,7
true,15,1,2,1,true,z,false,true,0.0-2.0-0.53-0.478-3.478,1,0,0,90,false,stim,false,0,573.5,1,0,1,65904,task2,1206995,false,false,1573,image-keyboard-response,8
true,15,1,2,1,true,z,false,true,0.0-2.0-0.53-0.479-3.479,1,0,0,90,false,stim,false,0,434.20000000298023,1,0,1,65904,task2,1208962,false,false,1576,image-keyboard-response,9
true,15,1,2,1,true,z,false,true,0.0-2.0-0.53-0.480-3.480,1,0,0,90,false,stim,false,1,456.5,1,1,0,65904,task2,1210947,false,false,1579,image-keyboard-response,10
true,15,0,2,0,true,q,false,true,0.0-2.0-0.53-0.481-3.481,1,0,0,81,false,stim,false,1,363.1000000089407,1,0,2,65904,task2,1212832,false,false,1582,image-keyboard-response,11
true,15,1,2,1,true,z,false,true,0.0-2.0-0.53-0.482-3.482,1,0,0,90,false,stim,false,0,700.0999999940395,1,0,1,65904,task2,1215060,false,false,1585,image-keyboard-response,12
true,15,0,2,0,true,q,false,true,0.0-2.0-0.53-0.483-3.483,1,0,0,81,false,stim,false,1,541.0,1,0,2,65904,task2,1217124,false,false,1588,image-keyboard-response,13
true,15,1,2,1,true,z,false,true,0.0-2.0-0.53-0.484-3.484,1,0,0,90,false,stim,false,1,461.0,1,1,0,65904,task2,1219116,false,false,1591,image-keyboard-response,14
true,15,1,2,1,true,z,false,true,0.0-2.0-0.53-0.485-3.485,1,0,0,90,false,stim,false,1,399.29999999701977,1,1,0,65904,task2,1221042,false,false,1594,image-keyboard-response,15
true,15,1,2,1,true,z,false,false,0.0-2.0-0.54-0.486-3.486,1,0,0,90,false,stim,false,1,486.40000000596046,1,1,0,65904,task2,1223046,false,true,1597,image-keyboard-response,16
true,15,1,2,1,true,z,false,true,0.0-2.0-0.54-0.487-3.487,1,0,0,90,false,stim,false,0,1248.5,1,0,1,65904,task2,1225819,false,false,1600,image-keyboard-response,17
true,15,1,2,1,true,z,false,true,0.0-2.0-0.54-0.488-3.488,1,0,0,90,false,stim,false,0,527.2999999970198,1,0,1,65904,task2,1227873,false,false,1603,image-keyboard-response,18
true,15,0,2,0,true,q,false,true,0.0-2.0-0.54-0.489-3.489,1,0,0,81,false,stim,false,1,503.70000000298023,1,0,2,65904,task2,1229899,false,false,1606,image-keyboard-response,19
true,15,1,2,1,true,z,false,true,0.0-2.0-0.54-0.490-3.490,1,0,0,90,false,stim,false,1,707.9000000059605,1,1,0,65904,task2,1232130,false,false,1609,image-keyboard-response,20
true,15,1,2,1,true,z,false,true,0.0-2.0-0.54-0.491-3.491,1,0,0,90,false,stim,false,1,344.70000000298023,1,1,0,65904,task2,1234011,false,false,1612,image-keyboard-response,21
true,15,0,2,0,true,q,false,true,0.0-2.0-0.54-0.492-3.492,1,0,0,81,false,stim,false,1,725.4000000059605,1,0,2,65904,task2,1236281,false,false,1615,image-keyboard-response,22
true,15,0,2,0,true,q,false,true,0.0-2.0-0.54-0.493-3.493,1,0,0,81,false,stim,false,1,464.5,1,0,2,65904,task2,1238257,false,false,1618,image-keyboard-response,23
true,15,1,2,1,true,z,false,true,0.0-2.0-0.54-0.494-3.494,1,0,0,90,false,stim,false,0,395.59999999403954,1,0,1,65904,task2,1240174,false,false,1621,image-keyboard-response,24
true,15,0,2,0,true,q,false,true,0.0-2.0-0.55-0.495-3.495,1,0,0,81,false,stim,false,1,644.2999999970198,1,0,2,65904,task2,1242335,false,false,1624,image-keyboard-response,25
true,15,0,2,0,true,q,false,true,0.0-2.0-0.55-0.496-3.496,1,0,0,81,false,stim,false,1,989.0999999940395,1,0,2,65904,task2,1244841,false,false,1627,image-keyboard-response,26
true,15,1,2,1,true,z,false,true,0.0-2.0-0.55-0.497-3.497,1,0,0,90,false,stim,false,1,561.5,1,1,0,65904,task2,1246937,false,false,1630,image-keyboard-response,27
true,15,0,2,0,true,q,false,true,0.0-2.0-0.55-0.498-3.498,1,0,0,81,false,stim,false,1,858.9000000059605,1,0,2,65904,task2,1249314,false,false,1633,image-keyboard-response,28
true,15,1,2,1,true,z,false,true,0.0-2.0-0.55-0.499-3.499,1,0,0,90,false,stim,false,0,684.5,1,0,1,65904,task2,1251526,false,false,1636,image-keyboard-response,29
true,15,1,2,1,true,z,false,true,0.0-2.0-0.55-0.500-3.500,1,0,0,90,false,stim,false,1,1282.9000000059605,1,1,0,65904,task2,1254345,false,false,1639,image-keyboard-response,30
true,15,1,2,1,true,z,false,true,0.0-2.0-0.55-0.501-3.501,1,0,0,90,false,stim,false,0,793.4000000059605,1,1,1,65904,task2,1256664,false,false,1642,image-keyboard-response,31
true,15,1,2,1,true,z,false,true,0.0-2.0-0.55-0.502-3.502,1,0,0,90,false,stim,false,1,524.9000000059605,1,1,0,65904,task2,1258713,false,false,1645,image-keyboard-response,32
true,15,1,2,1,true,z,false,true,0.0-2.0-0.55-0.503-3.503,1,0,0,90,false,stim,false,0,545.4000000059605,1,1,1,65904,task2,1260788,false,false,1648,image-keyboard-response,33
true,15,1,2,1,true,z,false,true,0.0-2.0-0.56-0.504-3.504,1,0,0,90,false,stim,false,0,383.90000000596046,1,1,1,65904,task2,1262705,false,false,1651,image-keyboard-response,34
true,15,0,2,0,true,q,false,false,0.0-2.0-0.56-0.505-3.505,1,0,0,81,false,stim,false,1,427.79999999701977,1,1,2,65904,task2,1264665,false,true,1654,image-keyboard-response,35
true,16,1,0,1,true,z,false,true,0.0-2.0-0.56-0.506-3.506,1,1,1,90,true,stim,false,1,908.2000000029802,1,1,1,65904,task2,1388131,false,false,1777,image-keyboard-response,1
true,16,1,0,1,true,z,false,true,0.0-2.0-0.56-0.507-3.507,1,1,1,90,false,stim,false,1,321.3999999910593,1,1,1,65904,task2,1389983,false,false,1780,image-keyboard-response,2
true,16,2,0,0,false,q,true,false,0.0-2.0-0.56-0.508-3.508,1,1,1,68,false,stim,false,0,896.7999999970198,1,1,2,65904,task2,1392393,false,false,1783,image-keyboard-response,3
true,16,1,0,1,true,z,false,true,0.0-2.0-0.56-0.509-3.509,1,1,1,90,false,stim,false,1,402.0,1,1,0,65904,task2,1394330,false,false,1786,image-keyboard-response,4
true,16,0,0,0,true,q,false,true,0.0-2.0-0.56-0.510-3.510,1,1,1,81,false,stim,false,0,408.40000000596046,1,1,2,65904,task2,1396272,false,false,1789,image-keyboard-response,5
true,16,1,0,1,true,z,false,true,0.0-2.0-0.56-0.511-3.511,1,1,1,90,false,stim,false,1,488.59999999403954,1,1,0,65904,task2,1398277,false,false,1792,image-keyboard-response,6
true,16,1,0,1,true,z,false,true,0.0-2.0-0.56-0.512-3.512,1,1,1,90,false,stim,false,1,433.30000001192093,1,1,0,65904,task2,1400228,false,false,1795,image-keyboard-response,7
true,16,0,0,0,true,q,false,true,0.0-2.0-0.57-0.513-3.513,1,1,1,81,false,stim,false,0,1101.0,1,1,2,65904,task2,1402850,false,false,1798,image-keyboard-response,8
true,16,1,0,1,true,z,false,false,0.0-2.0-0.57-0.514-3.514,1,1,1,90,false,stim,false,1,432.6000000089407,1,0,0,65904,task2,1404827,false,true,1801,image-keyboard-response,9
true,16,1,0,1,true,z,false,true,0.0-2.0-0.57-0.515-3.515,1,1,1,90,false,stim,false,1,500.8999999910593,1,1,1,65904,task2,1406850,false,false,1804,image-keyboard-response,10
true,16,1,0,1,true,z,false,true,0.0-2.0-0.57-0.516-3.516,1,1,1,90,false,stim,false,1,391.20000000298023,1,1,1,65904,task2,1408764,false,false,1807,image-keyboard-response,11
true,16,1,0,1,true,z,false,true,0.0-2.0-0.57-0.517-3.517,1,1,1,90,false,stim,false,1,374.8999999910593,1,1,1,65904,task2,1410665,false,false,1810,image-keyboard-response,12
true,16,1,0,1,true,z,false,true,0.0-2.0-0.57-0.518-3.518,1,1,1,90,false,stim,false,1,367.20000000298023,1,0,0,65904,task2,1412556,false,false,1813,image-keyboard-response,13
true,17,0,2,1,false,z,false,true,0.0-2.0-0.57-0.519-3.519,0,1,0,81,true,stim,true,0,559.7999999970198,1,0,2,65904,task2,1414636,false,true,1816,image-keyboard-response,1
true,17,0,2,1,false,z,false,false,0.0-2.0-0.57-0.520-3.520,0,1,0,81,false,stim,true,0,383.79999999701977,1,0,2,65904,task2,1416550,false,false,1819,image-keyboard-response,2
true,17,1,2,2,false,d,false,false,0.0-2.0-0.57-0.521-3.521,0,1,0,90,false,stim,true,1,591.6999999880791,1,0,0,65904,task2,1418666,false,false,1822,image-keyboard-response,3
true,17,1,2,1,true,z,false,true,0.0-2.0-0.58-0.522-3.522,0,1,0,90,false,stim,false,1,597.2999999970198,1,1,1,65904,task2,1420788,false,false,1825,image-keyboard-response,4
true,17,0,2,1,false,z,false,false,0.0-2.0-0.58-0.523-3.523,0,1,0,81,false,stim,true,0,858.5,1,0,2,65904,task2,1423173,false,false,1828,image-keyboard-response,5
true,17,2,2,2,true,d,false,true,0.0-2.0-0.58-0.524-3.524,0,1,0,68,false,stim,false,1,1003.3999999910593,1,0,0,65904,task2,1425697,false,false,1831,image-keyboard-response,6
true,17,2,2,2,true,d,false,true,0.0-2.0-0.58-0.525-3.525,0,1,0,68,false,stim,false,1,415.09999999403954,1,0,0,65904,task2,1427622,false,false,1834,image-keyboard-response,7
true,17,1,2,1,true,z,false,true,0.0-2.0-0.58-0.526-3.526,0,1,0,90,false,stim,false,0,864.2000000029802,1,0,2,65904,task2,1430005,false,false,1837,image-keyboard-response,8
true,17,1,2,1,true,z,false,true,0.0-2.0-0.58-0.527-3.527,0,1,0,90,false,stim,false,1,338.70000000298023,1,1,1,65904,task2,1431872,false,false,1840,image-keyboard-response,9
true,17,2,2,2,true,d,false,true,0.0-2.0-0.58-0.528-3.528,0,1,0,68,false,stim,false,1,445.19999998807907,1,0,0,65904,task2,1433849,false,false,1843,image-keyboard-response,10
true,17,1,2,1,true,z,false,true,0.0-2.0-0.58-0.529-3.529,0,1,0,90,false,stim,false,0,979.2000000029802,1,0,2,65904,task2,1436340,false,false,1846,image-keyboard-response,11
true,17,1,2,1,true,z,false,true,0.0-2.0-0.58-0.530-3.530,0,1,0,90,false,stim,false,1,367.09999999403954,1,1,1,65904,task2,1438232,false,false,1849,image-keyboard-response,12
true,17,1,2,1,true,z,false,true,0.0-2.0-0.59-0.531-3.531,0,1,0,90,false,stim,false,1,418.70000000298023,1,1,1,65904,task2,1440177,false,false,1852,image-keyboard-response,13
true,17,2,2,2,true,d,false,true,0.0-2.0-0.59-0.532-3.532,0,1,0,68,false,stim,false,1,474.8999999910593,1,0,0,65904,task2,1442183,false,false,1855,image-keyboard-response,14
true,17,1,2,1,true,z,false,true,0.0-2.0-0.59-0.533-3.533,0,1,0,90,false,stim,false,0,511.19999998807907,1,0,2,65904,task2,1444217,false,false,1858,image-keyboard-response,15
true,17,1,2,1,true,z,false,true,0.0-2.0-0.59-0.534-3.534,0,1,0,90,false,stim,false,1,489.1000000089407,1,1,1,65904,task2,1446218,false,false,1861,image-keyboard-response,16
true,17,2,2,2,true,d,false,true,0.0-2.0-0.59-0.535-3.535,0,1,0,68,false,stim,false,1,328.80000001192093,1,0,0,65904,task2,1448081,false,false,1864,image-keyboard-response,17
true,17,1,2,1,true,z,false,true,0.0-2.0-0.59-0.536-3.536,0,1,0,90,false,stim,false,1,754.5,1,1,1,65904,task2,1450364,false,false,1867,image-keyboard-response,18
true,17,1,2,1,true,z,false,true,0.0-2.0-0.59-0.537-3.537,0,1,0,90,false,stim,false,0,345.09999999403954,1,0,2,65904,task2,1452228,false,false,1870,image-keyboard-response,19
true,17,2,2,2,true,d,false,true,0.0-2.0-0.59-0.538-3.538,0,1,0,68,false,stim,false,1,565.7999999970198,1,0,0,65904,task2,1454324,false,false,1873,image-keyboard-response,20
true,17,1,2,1,true,z,false,true,0.0-2.0-0.59-0.539-3.539,0,1,0,90,false,stim,false,0,458.09999999403954,1,0,2,65904,task2,1456315,false,false,1876,image-keyboard-response,21
true,17,1,2,1,true,z,false,true,0.0-2.0-0.60-0.540-3.540,0,1,0,90,false,stim,false,1,313.5,1,1,1,65904,task2,1458155,false,false,1879,image-keyboard-response,22
true,17,1,2,1,true,z,false,true,0.0-2.0-0.60-0.541-3.541,0,1,0,90,false,stim,false,0,512.6000000089407,1,0,2,65904,task2,1460192,false,false,1882,image-keyboard-response,23
true,17,1,2,1,true,z,false,true,0.0-2.0-0.60-0.542-3.542,0,1,0,90,false,stim,false,1,364.70000000298023,1,1,1,65904,task2,1462071,false,false,1885,image-keyboard-response,24
true,17,1,2,1,true,z,false,true,0.0-2.0-0.60-0.543-3.543,0,1,0,90,false,stim,false,0,852.0,1,0,2,65904,task2,1464444,false,false,1888,image-keyboard-response,25
true,17,1,2,1,true,z,false,true,0.0-2.0-0.60-0.544-3.544,0,1,0,90,false,stim,false,0,361.79999999701977,1,0,2,65904,task2,1466338,false,false,1891,image-keyboard-response,26
true,17,2,2,2,true,d,false,true,0.0-2.0-0.60-0.545-3.545,0,1,0,68,false,stim,false,1,516.2999999970198,1,0,0,65904,task2,1468377,false,false,1894,image-keyboard-response,27
true,17,2,2,2,true,d,false,true,0.0-2.0-0.60-0.546-3.546,0,1,0,68,false,stim,false,1,334.0,1,0,0,65904,task2,1470227,false,false,1897,image-keyboard-response,28
true,17,2,2,2,true,d,false,true,0.0-2.0-0.60-0.547-3.547,0,1,0,68,false,stim,false,1,403.8999999910593,1,0,0,65904,task2,1472161,false,false,1900,image-keyboard-response,29
true,17,1,2,1,true,z,false,true,0.0-2.0-0.60-0.548-3.548,0,1,0,90,false,stim,false,1,370.79999999701977,1,0,1,65904,task2,1474069,false,false,1903,image-keyboard-response,30
true,17,1,2,1,true,z,false,true,0.0-2.0-0.61-0.549-3.549,0,1,0,90,false,stim,false,0,293.20000000298023,1,0,2,65904,task2,1475885,false,false,1906,image-keyboard-response,31
true,17,2,2,2,true,d,false,true,0.0-2.0-0.61-0.550-3.550,0,1,0,68,false,stim,false,1,395.20000000298023,1,0,0,65904,task2,1477814,false,false,1909,image-keyboard-response,32
true,18,2,1,1,false,z,false,false,0.0-2.0-0.61-0.551-3.551,0,0,0,68,true,stim,true,2,425.59999999403954,1,0,0,65904,task2,1479755,false,false,1912,image-keyboard-response,1
true,18,1,1,2,false,d,false,false,0.0-2.0-0.61-0.552-3.552,0,0,0,90,false,stim,true,1,512.0,1,0,1,65904,task2,1481794,false,false,1915,image-keyboard-response,2
true,18,1,1,2,false,d,false,false,0.0-2.0-0.61-0.553-3.553,0,0,0,90,false,stim,true,1,383.79999999701977,1,0,2,65904,task2,1483701,false,false,1918,image-keyboard-response,3
true,18,1,1,1,true,z,false,true,0.0-2.0-0.61-0.554-3.554,0,0,0,90,false,stim,false,2,846.8999999910593,1,0,0,65904,task2,1486074,false,false,1921,image-keyboard-response,4
true,18,0,1,2,false,d,true,false,0.0-2.0-0.61-0.555-3.555,0,0,0,81,false,stim,false,1,699.0,1,0,1,65904,task2,1488304,false,false,1924,image-keyboard-response,5
true,18,2,1,2,true,d,false,true,0.0-2.0-0.61-0.556-3.556,0,0,0,68,false,stim,false,1,581.7000000029802,1,0,1,65904,task2,1490409,false,false,1927,image-keyboard-response,6
true,18,2,1,2,true,d,false,true,0.0-2.0-0.61-0.557-3.557,0,0,0,68,false,stim,false,1,327.40000000596046,1,0,2,65904,task2,1492248,false,false,1930,image-keyboard-response,7
true,18,2,1,2,true,d,false,true,0.0-2.0-0.62-0.558-3.558,0,0,0,68,false,stim,false,1,461.3999999910593,1,0,2,65904,task2,1494237,false,false,1933,image-keyboard-response,8
true,18,1,1,1,true,z,false,true,0.0-2.0-0.62-0.559-3.559,0,0,0,90,false,stim,false,2,352.20000000298023,1,0,0,65904,task2,1496118,false,false,1936,image-keyboard-response,9
true,18,1,1,1,true,z,false,true,0.0-2.0-0.62-0.560-3.560,0,0,0,90,false,stim,false,2,375.59999999403954,1,0,0,65904,task2,1498002,false,false,1939,image-keyboard-response,10
true,18,2,1,2,true,d,false,true,0.0-2.0-0.62-0.561-3.561,0,0,0,68,false,stim,false,1,543.5,1,0,1,65904,task2,1500075,false,false,1942,image-keyboard-response,11
true,18,2,1,2,true,d,false,false,0.0-2.0-0.62-0.562-3.562,0,0,0,68,false,stim,false,1,317.19999998807907,1,0,1,65904,task2,1501909,false,true,1945,image-keyboard-response,12
true,18,2,1,2,true,d,false,true,0.0-2.0-0.62-0.563-3.563,0,0,0,68,false,stim,false,1,433.59999999403954,1,0,2,65904,task2,1503862,false,false,1948,image-keyboard-response,13
true,18,2,1,2,true,d,false,true,0.0-2.0-0.62-0.564-3.564,0,0,0,68,false,stim,false,1,360.0,1,0,2,65904,task2,1505734,false,false,1951,image-keyboard-response,14
true,18,2,1,2,true,d,false,true,0.0-2.0-0.62-0.565-3.565,0,0,0,68,false,stim,false,1,646.2000000029802,1,0,1,65904,task2,1507908,false,false,1954,image-keyboard-response,15
true,18,1,1,1,true,z,false,true,0.0-2.0-0.62-0.566-3.566,0,0,0,90,false,stim,false,2,292.40000000596046,1,0,0,65904,task2,1509715,false,false,1957,image-keyboard-response,16
true,18,1,1,1,true,z,false,true,0.0-2.0-0.63-0.567-3.567,0,0,0,90,false,stim,false,2,313.20000000298023,1,0,0,65904,task2,1511555,false,false,1960,image-keyboard-response,17
true,18,1,1,1,true,z,false,true,0.0-2.0-0.63-0.568-3.568,0,0,0,90,false,stim,false,2,314.6000000089407,1,0,0,65904,task2,1513401,false,false,1963,image-keyboard-response,18
true,18,2,1,2,true,d,false,true,0.0-2.0-0.63-0.569-3.569,0,0,0,68,false,stim,false,1,468.29999999701977,1,0,1,65904,task2,1515395,false,false,1966,image-keyboard-response,19
true,18,2,1,2,true,d,false,true,0.0-2.0-0.63-0.570-3.570,0,0,0,68,false,stim,false,1,302.40000000596046,1,0,1,65904,task2,1517219,false,false,1969,image-keyboard-response,20
true,18,1,1,1,true,z,false,true,0.0-2.0-0.63-0.571-3.571,0,0,0,90,false,stim,false,2,577.2999999970198,1,0,0,65904,task2,1519319,false,false,1972,image-keyboard-response,21
true,18,2,1,2,true,d,false,true,0.0-2.0-0.63-0.572-3.572,0,0,0,68,false,stim,false,1,371.5,1,0,2,65904,task2,1521212,false,false,1975,image-keyboard-response,22
true,18,2,1,2,true,d,false,true,0.0-2.0-0.63-0.573-3.573,0,0,0,68,false,stim,false,1,349.90000000596046,1,0,2,65904,task2,1523092,false,false,1978,image-keyboard-response,23
true,18,2,1,2,true,d,false,true,0.0-2.0-0.63-0.574-3.574,0,0,0,68,false,stim,false,1,406.5,1,0,2,65904,task2,1525033,false,false,1981,image-keyboard-response,24
true,18,2,1,2,true,d,false,false,0.0-2.0-0.63-0.575-3.575,0,0,0,68,false,stim,false,1,391.0,1,0,1,65904,task2,1526955,false,true,1984,image-keyboard-response,25
true,18,2,1,2,true,d,false,true,0.0-2.0-0.64-0.576-3.576,0,0,0,68,false,stim,false,1,437.29999999701977,1,0,2,65904,task2,1528906,false,false,1987,image-keyboard-response,26
true,18,2,1,2,true,d,false,false,0.0-2.0-0.64-0.577-3.577,0,0,0,68,false,stim,false,1,324.09999999403954,1,0,1,65904,task2,1530759,false,true,1990,image-keyboard-response,27
true,18,2,1,2,true,d,false,true,0.0-2.0-0.64-0.578-3.578,0,0,0,68,false,stim,false,1,349.30000001192093,1,0,1,65904,task2,1532641,false,false,1993,image-keyboard-response,28
true,18,1,1,1,true,z,false,true,0.0-2.0-0.64-0.579-3.579,0,0,0,90,false,stim,false,2,435.0,1,0,0,65904,task2,1534599,false,false,1996,image-keyboard-response,29
true,18,2,1,2,true,d,false,true,0.0-2.0-0.64-0.580-3.580,0,0,0,68,false,stim,false,1,425.20000000298023,1,0,2,65904,task2,1536547,false,false,1999,image-keyboard-response,30
true,18,2,1,2,true,d,false,true,0.0-2.0-0.64-0.581-3.581,0,0,0,68,false,stim,false,1,363.19999998807907,1,0,2,65904,task2,1538440,false,false,2002,image-keyboard-response,31
true,18,2,1,2,true,d,false,true,0.0-2.0-0.64-0.582-3.582,0,0,0,68,false,stim,false,1,304.40000000596046,1,0,1,65904,task2,1540266,false,false,2005,image-keyboard-response,32
true,18,1,1,1,true,z,false,true,0.0-2.0-0.64-0.583-3.583,0,0,0,90,false,stim,false,2,438.70000000298023,1,1,0,65904,task2,1542247,false,false,2008,image-keyboard-response,33
true,18,1,1,1,true,z,false,true,0.0-2.0-0.64-0.584-3.584,0,0,0,90,false,stim,false,2,394.0,1,1,0,65904,task2,1544170,false,false,2011,image-keyboard-response,34
true,18,1,1,1,true,z,false,true,0.0-2.0-0.65-0.585-3.585,0,0,0,90,false,stim,false,2,341.3999999910593,1,1,0,65904,task2,1546040,false,false,2014,image-keyboard-response,35
true,19,2,2,0,false,q,false,true,0.0-2.0-0.65-0.586-3.586,1,0,0,68,true,stim,true,2,392.20000000298023,1,0,2,65904,task2,1547949,false,true,2017,image-keyboard-response,1
true,19,2,2,0,false,q,false,false,0.0-2.0-0.65-0.587-3.587,1,0,0,68,false,stim,true,2,426.0,1,0,1,65904,task2,1549903,false,false,2020,image-keyboard-response,2
true,19,1,2,1,true,z,false,true,0.0-2.0-0.65-0.588-3.588,1,0,0,90,false,stim,false,1,643.9000000059605,1,1,0,65904,task2,1552088,false,false,2023,image-keyboard-response,3
true,19,2,2,0,false,q,false,false,0.0-2.0-0.65-0.589-3.589,1,0,0,68,false,stim,true,2,294.90000000596046,1,0,2,65904,task2,1553901,false,false,2026,image-keyboard-response,4
true,19,2,2,0,false,q,false,false,0.0-2.0-0.65-0.590-3.590,1,0,0,68,false,stim,true,2,652.7000000029802,1,0,1,65904,task2,1556072,false,false,2029,image-keyboard-response,5
true,19,0,2,0,true,q,false,true,0.0-2.0-0.65-0.591-3.591,1,0,0,81,false,stim,false,2,650.6000000089407,1,0,2,65904,task2,1558242,false,false,2032,image-keyboard-response,6
