answered,blockNum,choice,condition,corResp,correct,correct_response,explo,fb,internal_node_id,isStable_1,isStable_2,isStable_3,key_press,newBlock,part,persev,persevResp,rt,sessNum,stableAS,stimulus,subject,task,time_elapsed,training,trap,trial_index,trial_type,trialsInBlock
true,1,0,0,0,true,q,false,true,0.0-2.0-0.0-0.0-3.0,0,0,0,81,true,stim,false,-1,753.0,2,0,2,67495,task2,74423,false,false,79,image-keyboard-response,1
true,1,0,0,1,false,z,true,false,0.0-2.0-0.0-0.1-3.1,0,0,0,81,false,stim,false,-1,734.0,2,0,0,67495,task2,76663,false,false,82,image-keyboard-response,2
true,1,0,0,1,false,z,true,false,0.0-2.0-0.0-0.2-3.2,0,0,0,81,false,stim,false,-1,805.0,2,0,1,67495,task2,78974,false,false,85,image-keyboard-response,3
true,1,1,0,1,true,z,false,true,0.0-2.0-0.0-0.3-3.3,0,0,0,90,false,stim,false,-1,793.0,2,0,0,67495,task2,81272,false,false,88,image-keyboard-response,4
true,1,0,0,0,true,q,false,true,0.0-2.0-0.0-0.4-3.4,0,0,0,81,false,stim,false,-1,557.0,2,0,2,67495,task2,83337,false,false,91,image-keyboard-response,5
true,1,1,0,1,true,z,false,true,0.0-2.0-0.0-0.5-3.5,0,0,0,90,false,stim,false,-1,365.0,2,0,1,67495,task2,85207,false,false,94,image-keyboard-response,6
true,1,1,0,0,false,q,true,false,0.0-2.0-0.0-0.6-3.6,0,0,0,90,false,stim,false,-1,450.00000000001455,2,0,2,67495,task2,87165,false,false,97,image-keyboard-response,7
true,1,1,0,1,true,z,false,true,0.0-2.0-0.0-0.7-3.7,0,0,0,90,false,stim,false,-1,391.00000000001455,2,0,0,67495,task2,89064,false,false,100,image-keyboard-response,8
true,1,1,0,1,true,z,false,true,0.0-2.0-0.0-0.8-3.8,0,0,0,90,false,stim,false,-1,393.0,2,0,1,67495,task2,90967,false,false,103,image-keyboard-response,9
true,1,1,0,1,true,z,false,true,0.0-2.0-0.1-0.9-3.9,0,0,0,90,false,stim,false,-1,564.0,2,0,0,67495,task2,93039,false,false,106,image-keyboard-response,10
true,1,1,0,1,true,z,false,true,0.0-2.0-0.1-0.10-3.10,0,0,0,90,false,stim,false,-1,372.99999999998545,2,0,1,67495,task2,94918,false,false,109,image-keyboard-response,11
true,1,1,0,1,true,z,false,true,0.0-2.0-0.1-0.11-3.11,0,0,0,90,false,stim,false,-1,537.0,2,0,0,67495,task2,96966,false,false,112,image-keyboard-response,12
true,1,1,0,1,true,z,false,false,0.0-2.0-0.1-0.12-3.12,0,0,0,90,false,stim,false,-1,394.0,2,0,0,67495,task2,98867,false,true,115,image-keyboard-response,13
true,1,0,0,0,true,q,false,true,0.0-2.0-0.1-0.13-3.13,0,0,0,81,false,stim,false,-1,821.0000000000146,2,0,2,67495,task2,101195,false,false,118,image-keyboard-response,14
true,1,1,0,1,true,z,false,true,0.0-2.0-0.1-0.14-3.14,0,0,0,90,false,stim,false,-1,461.99999999998545,2,0,1,67495,task2,103164,false,false,121,image-keyboard-response,15
true,1,1,0,1,true,z,false,true,0.0-2.0-0.1-0.15-3.15,0,0,0,90,false,stim,false,-1,381.00000000001455,2,0,1,67495,task2,105051,false,false,124,image-keyboard-response,16
true,1,0,0,0,true,q,false,true,0.0-2.0-0.1-0.16-3.16,0,0,0,81,false,stim,false,-1,553.0,2,0,2,67495,task2,107111,false,false,127,image-keyboard-response,17
true,1,0,0,0,true,q,false,false,0.0-2.0-0.1-0.17-3.17,0,0,0,81,false,stim,false,-1,629.0,2,0,2,67495,task2,109246,false,true,130,image-keyboard-response,18
true,1,1,0,1,true,z,false,true,0.0-2.0-0.2-0.18-3.18,0,0,0,90,false,stim,false,-1,646.0,2,0,0,67495,task2,111399,false,false,133,image-keyboard-response,19
true,1,1,0,1,true,z,false,true,0.0-2.0-0.2-0.19-3.19,0,0,0,90,false,stim,false,-1,335.0,2,0,1,67495,task2,113241,false,false,136,image-keyboard-response,20
true,1,1,0,1,true,z,false,true,0.0-2.0-0.2-0.20-3.20,0,0,0,90,false,stim,false,-1,484.00000000001455,2,0,1,67495,task2,115228,false,false,139,image-keyboard-response,21
true,1,1,0,1,true,z,false,false,0.0-2.0-0.2-0.21-3.21,0,0,0,90,false,stim,false,-1,373.99999999998545,2,0,1,67495,task2,117105,false,true,142,image-keyboard-response,22
true,1,0,0,0,true,q,false,true,0.0-2.0-0.2-0.22-3.22,0,0,0,81,false,stim,false,-1,445.0,2,0,2,67495,task2,119054,false,false,145,image-keyboard-response,23
true,1,0,0,0,true,q,false,true,0.0-2.0-0.2-0.23-3.23,0,0,0,81,false,stim,false,-1,389.00000000001455,2,0,2,67495,task2,120946,false,false,148,image-keyboard-response,24
true,1,1,0,1,true,z,false,true,0.0-2.0-0.2-0.24-3.24,0,0,0,90,false,stim,false,-1,646.0,2,1,0,67495,task2,123096,false,false,151,image-keyboard-response,25
true,1,1,0,1,true,z,false,true,0.0-2.0-0.2-0.25-3.25,0,0,0,90,false,stim,false,-1,372.0,2,1,0,67495,task2,124972,false,false,154,image-keyboard-response,26
true,2,0,2,1,false,z,false,true,0.0-2.0-0.2-0.26-3.26,1,0,0,81,true,stim,true,0,576.0000000000146,2,0,2,67495,task2,127054,false,true,157,image-keyboard-response,1
true,2,1,2,0,false,q,false,false,0.0-2.0-0.3-0.27-3.27,1,0,0,90,false,stim,true,1,561.9999999999854,2,0,1,67495,task2,129121,false,false,160,image-keyboard-response,2
true,2,1,2,0,false,q,false,false,0.0-2.0-0.3-0.28-3.28,1,0,0,90,false,stim,true,1,659.0000000000291,2,0,1,67495,task2,131286,false,false,163,image-keyboard-response,3
true,2,1,2,1,true,z,false,true,0.0-2.0-0.3-0.29-3.29,1,0,0,90,false,stim,false,1,867.0,2,1,0,67495,task2,133658,false,false,166,image-keyboard-response,4
true,2,1,2,1,true,z,false,true,0.0-2.0-0.3-0.30-3.30,1,0,0,90,false,stim,false,1,444.0,2,1,0,67495,task2,135609,false,false,169,image-keyboard-response,5
true,2,0,2,1,false,z,false,false,0.0-2.0-0.3-0.31-3.31,1,0,0,81,false,stim,true,0,539.0,2,0,2,67495,task2,137654,false,false,172,image-keyboard-response,6
true,2,0,2,1,false,z,false,true,0.0-2.0-0.3-0.32-3.32,1,0,0,81,false,stim,true,0,368.0,2,0,2,67495,task2,139528,false,true,175,image-keyboard-response,7
true,2,1,2,1,true,z,false,false,0.0-2.0-0.3-0.33-3.33,1,0,0,90,false,stim,false,1,631.0,2,1,0,67495,task2,141664,false,true,178,image-keyboard-response,8
true,2,0,2,0,true,q,false,true,0.0-2.0-0.3-0.34-3.34,1,0,0,81,false,stim,false,1,552.0,2,0,1,67495,task2,143722,false,false,181,image-keyboard-response,9
true,2,0,2,1,false,z,false,false,0.0-2.0-0.3-0.35-3.35,1,0,0,81,false,stim,true,0,415.0,2,0,2,67495,task2,145643,false,false,184,image-keyboard-response,10
true,2,2,2,1,false,z,true,false,0.0-2.0-0.4-0.36-3.36,1,0,0,68,false,stim,false,1,925.9999999999709,2,1,0,67495,task2,148076,false,false,187,image-keyboard-response,11
true,2,2,2,1,false,z,true,false,0.0-2.0-0.4-0.37-3.37,1,0,0,68,false,stim,false,0,1074.000000000029,2,0,2,67495,task2,150656,false,false,190,image-keyboard-response,12
true,2,1,2,1,true,z,false,true,0.0-2.0-0.4-0.38-3.38,1,0,0,90,false,stim,false,0,393.0,2,0,2,67495,task2,152555,false,false,193,image-keyboard-response,13
true,2,0,2,0,true,q,false,true,0.0-2.0-0.4-0.39-3.39,1,0,0,81,false,stim,false,1,403.9999999999709,2,0,1,67495,task2,154465,false,false,196,image-keyboard-response,14
true,2,0,2,0,true,q,false,true,0.0-2.0-0.4-0.40-3.40,1,0,0,81,false,stim,false,1,567.0,2,0,1,67495,task2,156540,false,false,199,image-keyboard-response,15
true,2,0,2,1,false,z,true,false,0.0-2.0-0.4-0.41-3.41,1,0,0,81,false,stim,false,1,631.0,2,1,0,67495,task2,158680,false,false,202,image-keyboard-response,16
true,2,2,2,1,false,z,true,false,0.0-2.0-0.4-0.42-3.42,1,0,0,68,false,stim,false,1,566.0000000000291,2,1,0,67495,task2,160752,false,false,205,image-keyboard-response,17
true,2,1,2,1,true,z,false,true,0.0-2.0-0.4-0.43-3.43,1,0,0,90,false,stim,false,0,1078.999999999971,2,0,2,67495,task2,163337,false,false,208,image-keyboard-response,18
true,2,0,2,0,true,q,false,true,0.0-2.0-0.4-0.44-3.44,1,0,0,81,false,stim,false,1,927.0000000000291,2,0,1,67495,task2,165770,false,false,211,image-keyboard-response,19
true,2,1,2,1,true,z,false,true,0.0-2.0-0.5-0.45-3.45,1,0,0,90,false,stim,false,1,478.0,2,1,0,67495,task2,167753,false,false,214,image-keyboard-response,20
true,2,1,2,1,true,z,false,true,0.0-2.0-0.5-0.46-3.46,1,0,0,90,false,stim,false,0,399.0,2,0,2,67495,task2,169658,false,false,217,image-keyboard-response,21
true,2,1,2,1,true,z,false,true,0.0-2.0-0.5-0.47-3.47,1,0,0,90,false,stim,false,1,381.0,2,1,0,67495,task2,171545,false,false,220,image-keyboard-response,22
true,2,1,2,1,true,z,false,true,0.0-2.0-0.5-0.48-3.48,1,0,0,90,false,stim,false,0,472.9999999999709,2,0,2,67495,task2,173522,false,false,223,image-keyboard-response,23
true,2,1,2,1,true,z,false,true,0.0-2.0-0.5-0.49-3.49,1,0,0,90,false,stim,false,1,399.0,2,1,0,67495,task2,175430,false,false,226,image-keyboard-response,24
true,2,0,2,0,true,q,false,true,0.0-2.0-0.5-0.50-3.50,1,0,0,81,false,stim,false,1,384.0,2,0,1,67495,task2,177320,false,false,229,image-keyboard-response,25
true,2,0,2,0,true,q,false,true,0.0-2.0-0.5-0.51-3.51,1,0,0,81,false,stim,false,1,379.0000000000291,2,0,1,67495,task2,179205,false,false,232,image-keyboard-response,26
true,2,0,2,0,true,q,false,true,0.0-2.0-0.5-0.52-3.52,1,0,0,81,false,stim,false,1,335.0,2,0,1,67495,task2,181045,false,false,235,image-keyboard-response,27
true,2,1,2,1,true,z,false,false,0.0-2.0-0.5-0.53-3.53,1,0,0,90,false,stim,false,0,436.0,2,0,2,67495,task2,182987,false,true,238,image-keyboard-response,28
true,2,1,2,1,true,z,false,true,0.0-2.0-0.6-0.54-3.54,1,0,0,90,false,stim,false,1,492.0,2,1,0,67495,task2,184986,false,false,241,image-keyboard-response,29
true,2,1,2,1,true,z,false,false,0.0-2.0-0.6-0.55-3.55,1,0,0,90,false,stim,false,1,403.0000000000291,2,0,0,67495,task2,186895,false,true,244,image-keyboard-response,30
true,2,1,2,1,true,z,false,true,0.0-2.0-0.6-0.56-3.56,1,0,0,90,false,stim,false,0,569.9999999999709,2,0,2,67495,task2,188971,false,false,247,image-keyboard-response,31
true,2,0,2,0,true,q,false,true,0.0-2.0-0.6-0.57-3.57,1,0,0,81,false,stim,false,1,963.0,2,0,1,67495,task2,191439,false,false,250,image-keyboard-response,32
true,2,1,2,1,true,z,false,true,0.0-2.0-0.6-0.58-3.58,1,0,0,90,false,stim,false,0,427.0,2,0,2,67495,task2,193375,false,false,253,image-keyboard-response,33
true,2,0,2,0,true,q,false,true,0.0-2.0-0.6-0.59-3.59,1,0,0,81,false,stim,false,1,980.0,2,0,1,67495,task2,195859,false,false,256,image-keyboard-response,34
true,3,0,1,1,false,z,false,false,0.0-2.0-0.6-0.60-3.60,0,0,0,81,true,stim,true,0,516.0,2,0,1,67495,task2,197881,false,false,259,image-keyboard-response,1
true,3,1,1,0,false,q,false,false,0.0-2.0-0.6-0.61-3.61,0,0,0,90,false,stim,true,1,647.0,2,0,0,67495,task2,200034,false,false,262,image-keyboard-response,2
true,3,0,1,0,true,q,false,true,0.0-2.0-0.6-0.62-3.62,0,0,0,81,false,stim,false,1,1153.0,2,0,2,67495,task2,202693,false,false,265,image-keyboard-response,3
true,3,0,1,1,false,z,false,false,0.0-2.0-0.7-0.63-3.63,0,0,0,81,false,stim,true,0,519.9999999999709,2,0,1,67495,task2,204720,false,false,268,image-keyboard-response,4
true,3,1,1,1,true,z,false,true,0.0-2.0-0.7-0.64-3.64,0,0,0,90,false,stim,false,0,591.0,2,0,1,67495,task2,206817,false,false,271,image-keyboard-response,5
true,3,0,1,0,true,q,false,false,0.0-2.0-0.7-0.65-3.65,0,0,0,81,false,stim,false,1,840.0,2,0,2,67495,task2,209163,false,true,274,image-keyboard-response,6
true,3,0,1,0,true,q,false,true,0.0-2.0-0.7-0.66-3.66,0,0,0,81,false,stim,false,1,552.0,2,0,2,67495,task2,211221,false,false,277,image-keyboard-response,7
true,3,1,1,1,true,z,false,true,0.0-2.0-0.7-0.67-3.67,0,0,0,90,false,stim,false,0,629.9999999999709,2,0,1,67495,task2,213360,false,false,280,image-keyboard-response,8
true,3,0,1,0,true,q,false,true,0.0-2.0-0.7-0.68-3.68,0,0,0,81,false,stim,false,1,459.0000000000291,2,0,0,67495,task2,215326,false,false,283,image-keyboard-response,9
true,3,0,1,0,true,q,false,true,0.0-2.0-0.7-0.69-3.69,0,0,0,81,false,stim,false,1,680.9999999999709,2,0,0,67495,task2,217512,false,false,286,image-keyboard-response,10
true,3,0,1,0,true,q,false,true,0.0-2.0-0.7-0.70-3.70,0,0,0,81,false,stim,false,1,416.0,2,0,0,67495,task2,219434,false,false,289,image-keyboard-response,11
true,3,0,1,0,true,q,false,true,0.0-2.0-0.7-0.71-3.71,0,0,0,81,false,stim,false,1,2047.0,2,0,2,67495,task2,222987,false,false,292,image-keyboard-response,12
true,3,1,1,1,true,z,false,true,0.0-2.0-0.8-0.72-3.72,0,0,0,90,false,stim,false,0,359.0,2,0,1,67495,task2,224853,false,false,295,image-keyboard-response,13
true,3,0,1,0,true,q,false,true,0.0-2.0-0.8-0.73-3.73,0,0,0,81,false,stim,false,1,430.0,2,0,0,67495,task2,226788,false,false,298,image-keyboard-response,14
true,3,1,1,1,true,z,false,true,0.0-2.0-0.8-0.74-3.74,0,0,0,90,false,stim,false,0,875.0,2,0,1,67495,task2,229171,false,false,301,image-keyboard-response,15
true,3,1,1,1,true,z,false,true,0.0-2.0-0.8-0.75-3.75,0,0,0,90,false,stim,false,0,677.0,2,0,1,67495,task2,231354,false,false,304,image-keyboard-response,16
true,3,0,1,0,true,q,false,true,0.0-2.0-0.8-0.76-3.76,0,0,0,81,false,stim,false,1,536.0,2,0,2,67495,task2,233395,false,false,307,image-keyboard-response,17
true,3,0,1,0,true,q,false,true,0.0-2.0-0.8-0.77-3.77,0,0,0,81,false,stim,false,1,353.0,2,0,2,67495,task2,235257,false,false,310,image-keyboard-response,18
true,3,0,1,0,true,q,false,true,0.0-2.0-0.8-0.78-3.78,0,0,0,81,false,stim,false,1,594.0,2,0,0,67495,task2,237358,false,false,313,image-keyboard-response,19
true,3,0,1,0,true,q,false,true,0.0-2.0-0.8-0.79-3.79,0,0,0,81,false,stim,false,1,414.0,2,0,0,67495,task2,239277,false,false,316,image-keyboard-response,20
true,3,0,1,0,true,q,false,true,0.0-2.0-0.8-0.80-3.80,0,0,0,81,false,stim,false,1,1002.0000000000291,2,0,2,67495,task2,241784,false,false,319,image-keyboard-response,21
true,3,0,1,0,true,q,false,true,0.0-2.0-0.9-0.81-3.81,0,0,0,81,false,stim,false,1,614.9999999999709,2,0,0,67495,task2,243905,false,false,322,image-keyboard-response,22
true,3,1,1,1,true,z,false,true,0.0-2.0-0.9-0.82-3.82,0,0,0,90,false,stim,false,0,926.0,2,0,1,67495,task2,246337,false,false,325,image-keyboard-response,23
true,3,0,1,0,true,q,false,true,0.0-2.0-0.9-0.83-3.83,0,0,0,81,false,stim,false,1,504.0,2,0,2,67495,task2,248347,false,false,328,image-keyboard-response,24
true,3,0,1,0,true,q,false,false,0.0-2.0-0.9-0.84-3.84,0,0,0,81,false,stim,false,1,950.0,2,0,2,67495,task2,250803,false,true,331,image-keyboard-response,25
true,3,0,1,0,true,q,false,true,0.0-2.0-0.9-0.85-3.85,0,0,0,81,false,stim,false,1,390.9999999999709,2,0,2,67495,task2,252700,false,false,334,image-keyboard-response,26
true,3,1,1,0,false,q,false,true,0.0-2.0-0.9-0.86-3.86,0,0,0,90,false,stim,true,1,1248.0,2,0,0,67495,task2,255457,false,true,337,image-keyboard-response,27
true,3,1,1,0,false,q,false,false,0.0-2.0-0.9-0.87-3.87,0,0,0,90,false,stim,true,1,388.0000000000291,2,0,0,67495,task2,257351,false,false,340,image-keyboard-response,28
true,3,1,1,1,true,z,false,false,0.0-2.0-0.9-0.88-3.88,0,0,0,90,false,stim,false,0,844.0,2,0,1,67495,task2,259702,false,true,343,image-keyboard-response,29
true,3,0,1,1,false,z,false,false,0.0-2.0-0.9-0.89-3.89,0,0,0,81,false,stim,true,0,401.0,2,0,1,67495,task2,261608,false,false,346,image-keyboard-response,30
true,3,2,1,1,false,z,true,false,0.0-2.0-0.10-0.90-3.90,0,0,0,68,false,stim,false,0,409.9999999999418,2,0,1,67495,task2,263525,false,false,349,image-keyboard-response,31
true,3,0,1,0,true,q,false,true,0.0-2.0-0.10-0.91-3.91,0,0,0,81,false,stim,false,1,894.9999999999418,2,0,2,67495,task2,265926,false,false,352,image-keyboard-response,32
true,3,0,1,0,true,q,false,true,0.0-2.0-0.10-0.92-3.92,0,0,0,81,false,stim,false,1,557.0,2,0,2,67495,task2,267989,false,false,355,image-keyboard-response,33
true,3,1,1,1,true,z,false,true,0.0-2.0-0.10-0.93-3.93,0,0,0,90,false,stim,false,0,340.0,2,0,1,67495,task2,269836,false,false,358,image-keyboard-response,34
true,3,1,1,0,false,q,false,false,0.0-2.0-0.10-0.94-3.94,0,0,0,90,false,stim,true,1,351.9999999999418,2,0,0,67495,task2,271694,false,false,361,image-keyboard-response,35
true,3,1,1,0,false,q,false,true,0.0-2.0-0.10-0.95-3.95,0,0,0,90,false,stim,true,1,710.0,2,0,0,67495,task2,273910,false,true,364,image-keyboard-response,36
true,4,1,1,1,true,z,false,true,0.0-2.0-0.10-0.96-3.96,0,0,0,90,true,stim,false,0,548.0,2,0,0,67495,task2,275964,false,false,367,image-keyboard-response,1
true,4,1,1,0,false,q,false,false,0.0-2.0-0.10-0.97-3.97,0,0,0,90,false,stim,true,1,498.0,2,0,1,67495,task2,277968,false,false,370,image-keyboard-response,2
true,4,0,1,2,false,d,false,false,0.0-2.0-0.10-0.98-3.98,0,0,0,81,false,stim,true,0,601.0,2,0,2,67495,task2,280078,false,false,373,image-keyboard-response,3
true,4,0,1,0,true,q,false,true,0.0-2.0-0.11-0.99-3.99,0,0,0,81,false,stim,false,1,640.0,2,0,1,67495,task2,282225,false,false,376,image-keyboard-response,4
true,4,1,1,2,false,d,true,false,0.0-2.0-0.11-0.100-3.100,0,0,0,90,false,stim,false,0,650.0,2,0,2,67495,task2,284381,false,false,379,image-keyboard-response,5
true,4,0,1,2,false,d,false,false,0.0-2.0-0.11-0.101-3.101,0,0,0,81,false,stim,true,0,375.0,2,0,2,67495,task2,286262,false,false,382,image-keyboard-response,6
true,4,1,1,1,true,z,false,true,0.0-2.0-0.11-0.102-3.102,0,0,0,90,false,stim,false,0,724.0000000000582,2,0,0,67495,task2,288491,false,false,385,image-keyboard-response,7
true,4,0,1,0,true,q,false,true,0.0-2.0-0.11-0.103-3.103,0,0,0,81,false,stim,false,1,387.0,2,0,1,67495,task2,290385,false,false,388,image-keyboard-response,8
true,4,2,1,2,true,d,false,true,0.0-2.0-0.11-0.104-3.104,0,0,0,68,false,stim,false,0,423.0,2,0,2,67495,task2,292314,false,false,391,image-keyboard-response,9
true,4,1,1,1,true,z,false,true,0.0-2.0-0.11-0.105-3.105,0,0,0,90,false,stim,false,0,907.0,2,0,0,67495,task2,294731,false,false,394,image-keyboard-response,10
true,4,0,1,0,true,q,false,true,0.0-2.0-0.11-0.106-3.106,0,0,0,81,false,stim,false,1,374.0,2,0,1,67495,task2,296611,false,false,397,image-keyboard-response,11
true,4,1,1,1,true,z,false,true,0.0-2.0-0.11-0.107-3.107,0,0,0,90,false,stim,false,0,465.0,2,0,0,67495,task2,298582,false,false,400,image-keyboard-response,12
true,4,0,1,0,true,q,false,true,0.0-2.0-0.12-0.108-3.108,0,0,0,81,false,stim,false,1,1250.9999999999418,2,0,1,67495,task2,301343,false,false,403,image-keyboard-response,13
true,4,0,1,0,true,q,false,true,0.0-2.0-0.12-0.109-3.109,0,0,0,81,false,stim,false,1,433.0000000000582,2,0,1,67495,task2,303282,false,false,406,image-keyboard-response,14
true,4,2,1,2,true,d,false,true,0.0-2.0-0.12-0.110-3.110,0,0,0,68,false,stim,false,0,764.0,2,0,2,67495,task2,305551,false,false,409,image-keyboard-response,15
true,4,2,1,2,true,d,false,true,0.0-2.0-0.12-0.111-3.111,0,0,0,68,false,stim,false,0,650.9999999999418,2,0,2,67495,task2,307707,false,false,412,image-keyboard-response,16
true,4,1,1,1,true,z,false,true,0.0-2.0-0.12-0.112-3.112,0,0,0,90,false,stim,false,0,685.0,2,0,0,67495,task2,309901,false,false,415,image-keyboard-response,17
true,4,2,1,2,true,d,false,true,0.0-2.0-0.12-0.113-3.113,0,0,0,68,false,stim,false,0,602.9999999999418,2,0,2,67495,task2,312011,false,false,418,image-keyboard-response,18
true,4,1,1,1,true,z,false,true,0.0-2.0-0.12-0.114-3.114,0,0,0,90,false,stim,false,0,681.0,2,0,0,67495,task2,314198,false,false,421,image-keyboard-response,19
true,4,1,1,1,true,z,false,true,0.0-2.0-0.12-0.115-3.115,0,0,0,90,false,stim,false,0,403.0,2,0,0,67495,task2,316107,false,false,424,image-keyboard-response,20
true,4,0,1,0,true,q,false,true,0.0-2.0-0.12-0.116-3.116,0,0,0,81,false,stim,false,1,487.0,2,0,1,67495,task2,318100,false,false,427,image-keyboard-response,21
true,4,2,1,2,true,d,false,true,0.0-2.0-0.13-0.117-3.117,0,0,0,68,false,stim,false,0,721.0,2,0,2,67495,task2,320328,false,false,430,image-keyboard-response,22
true,4,1,1,1,true,z,false,true,0.0-2.0-0.13-0.118-3.118,0,0,0,90,false,stim,false,0,920.0,2,0,0,67495,task2,322753,false,false,433,image-keyboard-response,23
true,4,0,1,0,true,q,false,true,0.0-2.0-0.13-0.119-3.119,0,0,0,81,false,stim,false,1,341.0,2,0,1,67495,task2,324600,false,false,436,image-keyboard-response,24
true,4,2,1,2,true,d,false,true,0.0-2.0-0.13-0.120-3.120,0,0,0,68,false,stim,false,0,429.0,2,0,2,67495,task2,326536,false,false,439,image-keyboard-response,25
true,4,2,1,2,true,d,false,true,0.0-2.0-0.13-0.121-3.121,0,0,0,68,false,stim,false,0,525.0,2,0,2,67495,task2,328568,false,false,442,image-keyboard-response,26
true,4,1,1,1,true,z,false,true,0.0-2.0-0.13-0.122-3.122,0,0,0,90,false,stim,false,0,558.0,2,0,0,67495,task2,330631,false,false,445,image-keyboard-response,27
true,4,0,1,0,true,q,false,true,0.0-2.0-0.13-0.123-3.123,0,0,0,81,false,stim,false,1,343.0000000000582,2,0,1,67495,task2,332480,false,false,448,image-keyboard-response,28
true,4,1,1,1,true,z,false,true,0.0-2.0-0.13-0.124-3.124,0,0,0,90,false,stim,false,0,328.0,2,0,0,67495,task2,334314,false,false,451,image-keyboard-response,29
true,4,0,1,0,true,q,false,true,0.0-2.0-0.13-0.125-3.125,0,0,0,81,false,stim,false,1,585.0,2,0,1,67495,task2,336405,false,false,454,image-keyboard-response,30
true,4,1,1,1,true,z,false,true,0.0-2.0-0.14-0.126-3.126,0,0,0,90,false,stim,false,0,508.0000000000582,2,0,0,67495,task2,338420,false,false,457,image-keyboard-response,31
true,4,2,1,2,true,d,false,false,0.0-2.0-0.14-0.127-3.127,0,0,0,68,false,stim,false,0,503.0,2,0,2,67495,task2,340428,false,true,460,image-keyboard-response,32
true,4,2,1,2,true,d,false,true,0.0-2.0-0.14-0.128-3.128,0,0,0,68,false,stim,false,0,389.9999999999418,2,0,2,67495,task2,342323,false,false,463,image-keyboard-response,33
true,4,0,1,0,true,q,false,true,0.0-2.0-0.14-0.129-3.129,0,0,0,81,false,stim,false,1,685.0,2,1,1,67495,task2,344514,false,false,466,image-keyboard-response,34
true,4,1,1,1,true,z,false,true,0.0-2.0-0.14-0.130-3.130,0,0,0,90,false,stim,false,0,572.0,2,0,0,67495,task2,346593,false,false,469,image-keyboard-response,35
true,5,2,2,1,false,z,false,true,0.0-2.0-0.14-0.131-3.131,0,1,0,68,true,stim,true,2,429.0,2,0,2,67495,task2,348531,false,true,472,image-keyboard-response,1
true,5,0,2,0,true,q,false,true,0.0-2.0-0.14-0.132-3.132,0,1,0,81,false,stim,false,0,1233.0,2,1,1,67495,task2,351270,false,false,475,image-keyboard-response,2
true,5,1,2,2,false,d,false,false,0.0-2.0-0.14-0.133-3.133,0,1,0,90,false,stim,true,1,482.0,2,0,0,67495,task2,353258,false,false,478,image-keyboard-response,3
true,5,0,2,0,true,q,false,true,0.0-2.0-0.14-0.134-3.134,0,1,0,81,false,stim,false,0,863.0,2,1,1,67495,task2,355627,false,false,481,image-keyboard-response,4
true,5,1,2,2,false,d,false,false,0.0-2.0-0.15-0.135-3.135,0,1,0,90,false,stim,true,1,578.0,2,0,0,67495,task2,357712,false,false,484,image-keyboard-response,5
true,5,0,2,0,true,q,false,false,0.0-2.0-0.15-0.136-3.136,0,1,0,81,false,stim,false,0,480.0,2,1,1,67495,task2,359698,false,true,487,image-keyboard-response,6
true,5,0,2,0,true,q,false,false,0.0-2.0-0.15-0.137-3.137,0,1,0,81,false,stim,false,0,324.0,2,1,1,67495,task2,361526,false,true,490,image-keyboard-response,7
true,5,2,2,1,false,z,false,false,0.0-2.0-0.15-0.138-3.138,0,1,0,68,false,stim,true,2,740.0000000000582,2,0,2,67495,task2,363773,false,false,493,image-keyboard-response,8
true,5,0,2,1,false,z,true,false,0.0-2.0-0.15-0.139-3.139,0,1,0,81,false,stim,false,2,754.0000000000582,2,0,2,67495,task2,366035,false,false,496,image-keyboard-response,9
true,5,1,2,1,true,z,false,true,0.0-2.0-0.15-0.140-3.140,0,1,0,90,false,stim,false,2,611.9999999999418,2,0,2,67495,task2,368153,false,false,499,image-keyboard-response,10
true,5,0,2,2,false,d,true,false,0.0-2.0-0.15-0.141-3.141,0,1,0,81,false,stim,false,1,389.0,2,0,0,67495,task2,370052,false,false,502,image-keyboard-response,11
true,5,1,2,0,false,q,true,true,0.0-2.0-0.15-0.142-3.142,0,1,0,90,false,stim,false,0,554.9999999999418,2,1,1,67495,task2,372113,false,true,505,image-keyboard-response,12
true,5,1,2,2,false,d,false,false,0.0-2.0-0.15-0.143-3.143,0,1,0,90,false,stim,true,1,434.0000000000582,2,0,0,67495,task2,374053,false,false,508,image-keyboard-response,13
true,5,2,2,2,true,d,false,true,0.0-2.0-0.16-0.144-3.144,0,1,0,68,false,stim,false,1,674.0,2,0,0,67495,task2,376233,false,false,511,image-keyboard-response,14
true,5,1,2,1,true,z,false,true,0.0-2.0-0.16-0.145-3.145,0,1,0,90,false,stim,false,2,427.0000000000582,2,0,2,67495,task2,378166,false,false,514,image-keyboard-response,15
true,5,1,2,0,false,q,true,false,0.0-2.0-0.16-0.146-3.146,0,1,0,90,false,stim,false,0,365.0,2,1,1,67495,task2,380039,false,false,517,image-keyboard-response,16
true,5,2,2,2,true,d,false,true,0.0-2.0-0.16-0.147-3.147,0,1,0,68,false,stim,false,1,378.9999999999418,2,0,0,67495,task2,381926,false,false,520,image-keyboard-response,17
true,5,1,2,2,false,d,false,true,0.0-2.0-0.16-0.148-3.148,0,1,0,90,false,stim,true,1,377.0,2,0,0,67495,task2,383807,false,true,523,image-keyboard-response,18
true,5,1,2,1,true,z,false,true,0.0-2.0-0.16-0.149-3.149,0,1,0,90,false,stim,false,2,945.0,2,0,2,67495,task2,386258,false,false,526,image-keyboard-response,19
true,5,1,2,0,false,q,true,false,0.0-2.0-0.16-0.150-3.150,0,1,0,90,false,stim,false,0,323.0,2,1,1,67495,task2,388087,false,false,529,image-keyboard-response,20
true,5,1,2,1,true,z,false,false,0.0-2.0-0.16-0.151-3.151,0,1,0,90,false,stim,false,2,660.0,2,0,2,67495,task2,390253,false,true,532,image-keyboard-response,21
true,5,2,2,0,false,q,true,false,0.0-2.0-0.16-0.152-3.152,0,1,0,68,false,stim,false,0,900.0,2,1,1,67495,task2,392659,false,false,535,image-keyboard-response,22
true,5,1,2,1,true,z,false,true,0.0-2.0-0.17-0.153-3.153,0,1,0,90,false,stim,false,2,732.0,2,0,2,67495,task2,394900,false,false,538,image-keyboard-response,23
true,5,2,2,2,true,d,false,true,0.0-2.0-0.17-0.154-3.154,0,1,0,68,false,stim,false,1,471.0,2,0,0,67495,task2,396877,false,false,541,image-keyboard-response,24
true,5,2,2,2,true,d,false,true,0.0-2.0-0.17-0.155-3.155,0,1,0,68,false,stim,false,1,790.0,2,0,0,67495,task2,399173,false,false,544,image-keyboard-response,25
true,5,1,2,1,true,z,false,true,0.0-2.0-0.17-0.156-3.156,0,1,0,90,false,stim,false,2,580.0,2,0,2,67495,task2,401259,false,false,547,image-keyboard-response,26
true,5,0,2,0,true,q,false,true,0.0-2.0-0.17-0.157-3.157,0,1,0,81,false,stim,false,0,471.0,2,1,1,67495,task2,403236,false,false,550,image-keyboard-response,27
true,5,0,2,0,true,q,false,true,0.0-2.0-0.17-0.158-3.158,0,1,0,81,false,stim,false,0,368.0,2,1,1,67495,task2,405109,false,false,553,image-keyboard-response,28
true,5,2,2,2,true,d,false,true,0.0-2.0-0.17-0.159-3.159,0,1,0,68,false,stim,false,1,540.0,2,0,0,67495,task2,407154,false,false,556,image-keyboard-response,29
true,5,0,2,0,true,q,false,true,0.0-2.0-0.17-0.160-3.160,0,1,0,81,false,stim,false,0,659.9999999999418,2,0,1,67495,task2,409320,false,false,559,image-keyboard-response,30
true,5,1,2,1,true,z,false,true,0.0-2.0-0.17-0.161-3.161,0,1,0,90,false,stim,false,2,494.0,2,0,2,67495,task2,411320,false,false,562,image-keyboard-response,31
true,5,0,2,0,true,q,false,true,0.0-2.0-0.18-0.162-3.162,0,1,0,81,false,stim,false,0,654.0,2,0,1,67495,task2,413483,false,false,565,image-keyboard-response,32
true,5,2,2,2,true,d,false,true,0.0-2.0-0.18-0.163-3.163,0,1,0,68,false,stim,false,1,650.0,2,0,0,67495,task2,415639,false,false,568,image-keyboard-response,33
true,5,0,2,0,true,q,false,true,0.0-2.0-0.18-0.164-3.164,0,1,0,81,false,stim,false,0,416.0,2,0,1,67495,task2,417560,false,false,571,image-keyboard-response,34
true,6,1,1,0,false,q,false,false,0.0-2.0-0.18-0.165-3.165,0,0,0,90,true,stim,true,1,400.0000000000582,2,0,2,67495,task2,419466,false,false,574,image-keyboard-response,1
true,6,1,1,0,false,q,false,false,0.0-2.0-0.18-0.166-3.166,0,0,0,90,false,stim,true,1,318.0,2,0,2,67495,task2,421290,false,false,577,image-keyboard-response,2
true,6,0,1,2,false,d,false,false,0.0-2.0-0.18-0.167-3.167,0,0,0,81,false,stim,true,0,419.0,2,0,1,67495,task2,423215,false,false,580,image-keyboard-response,3
true,6,0,1,1,false,z,true,false,0.0-2.0-0.18-0.168-3.168,0,0,0,81,false,stim,false,2,548.9999999999418,2,0,0,67495,task2,425270,false,false,583,image-keyboard-response,4
true,6,0,1,0,true,q,false,true,0.0-2.0-0.18-0.169-3.169,0,0,0,81,false,stim,false,1,1118.0000000000582,2,0,2,67495,task2,427894,false,false,586,image-keyboard-response,5
true,6,2,1,1,false,z,false,false,0.0-2.0-0.18-0.170-3.170,0,0,0,68,false,stim,true,2,640.0,2,0,0,67495,task2,430040,false,false,589,image-keyboard-response,6
true,6,1,1,1,true,z,false,true,0.0-2.0-0.19-0.171-3.171,0,0,0,90,false,stim,false,2,512.0,2,0,0,67495,task2,432058,false,false,592,image-keyboard-response,7
true,6,1,1,1,true,z,false,true,0.0-2.0-0.19-0.172-3.172,0,0,0,90,false,stim,false,2,785.0,2,0,0,67495,task2,434351,false,false,595,image-keyboard-response,8
true,6,0,1,0,true,q,false,false,0.0-2.0-0.19-0.173-3.173,0,0,0,81,false,stim,false,1,396.0,2,0,2,67495,task2,436253,false,true,598,image-keyboard-response,9
true,6,0,1,0,true,q,false,true,0.0-2.0-0.19-0.174-3.174,0,0,0,81,false,stim,false,1,326.0,2,0,2,67495,task2,438089,false,false,601,image-keyboard-response,10
true,6,1,1,1,true,z,false,false,0.0-2.0-0.19-0.175-3.175,0,0,0,90,false,stim,false,2,327.0,2,0,0,67495,task2,439923,false,true,604,image-keyboard-response,11
true,6,0,1,0,true,q,false,true,0.0-2.0-0.19-0.176-3.176,0,0,0,81,false,stim,false,1,640.0,2,0,2,67495,task2,442069,false,false,607,image-keyboard-response,12
true,6,0,1,2,false,d,false,false,0.0-2.0-0.19-0.177-3.177,0,0,0,81,false,stim,true,0,1215.0,2,0,1,67495,task2,444789,false,false,610,image-keyboard-response,13
true,6,1,1,2,false,d,true,false,0.0-2.0-0.19-0.178-3.178,0,0,0,90,false,stim,false,0,565.9999999999418,2,0,1,67495,task2,446864,false,false,613,image-keyboard-response,14
true,6,2,1,2,true,d,false,true,0.0-2.0-0.19-0.179-3.179,0,0,0,68,false,stim,false,0,490.9999999999418,2,0,1,67495,task2,448861,false,false,616,image-keyboard-response,15
true,6,2,1,2,true,d,false,true,0.0-2.0-0.20-0.180-3.180,0,0,0,68,false,stim,false,0,460.0,2,0,1,67495,task2,450827,false,false,619,image-keyboard-response,16
true,6,1,1,1,true,z,false,true,0.0-2.0-0.20-0.181-3.181,0,0,0,90,false,stim,false,2,516.0,2,0,0,67495,task2,452849,false,false,622,image-keyboard-response,17
true,6,0,1,0,true,q,false,true,0.0-2.0-0.20-0.182-3.182,0,0,0,81,false,stim,false,1,627.0,2,0,2,67495,task2,454981,false,false,625,image-keyboard-response,18
true,6,1,1,1,true,z,false,true,0.0-2.0-0.20-0.183-3.183,0,0,0,90,false,stim,false,2,723.0000000000582,2,0,0,67495,task2,457210,false,false,628,image-keyboard-response,19
true,6,0,1,0,true,q,false,true,0.0-2.0-0.20-0.184-3.184,0,0,0,81,false,stim,false,1,412.0,2,0,2,67495,task2,459131,false,false,631,image-keyboard-response,20
true,6,1,1,1,true,z,false,true,0.0-2.0-0.20-0.185-3.185,0,0,0,90,false,stim,false,2,349.0,2,0,0,67495,task2,460987,false,false,634,image-keyboard-response,21
true,6,2,1,2,true,d,false,false,0.0-2.0-0.20-0.186-3.186,0,0,0,68,false,stim,false,0,528.0,2,0,1,67495,task2,463021,false,true,637,image-keyboard-response,22
true,6,0,1,0,true,q,false,true,0.0-2.0-0.20-0.187-3.187,0,0,0,81,false,stim,false,1,375.0,2,0,2,67495,task2,464902,false,false,640,image-keyboard-response,23
true,6,1,1,2,false,d,true,false,0.0-2.0-0.20-0.188-3.188,0,0,0,90,false,stim,false,0,349.0,2,0,1,67495,task2,466757,false,false,643,image-keyboard-response,24
true,6,0,1,0,true,q,false,true,0.0-2.0-0.21-0.189-3.189,0,0,0,81,false,stim,false,1,605.0,2,0,2,67495,task2,468868,false,false,646,image-keyboard-response,25
true,6,1,1,1,true,z,false,true,0.0-2.0-0.21-0.190-3.190,0,0,0,90,false,stim,false,2,300.0000000000582,2,0,0,67495,task2,470674,false,false,649,image-keyboard-response,26
true,6,2,1,2,true,d,false,true,0.0-2.0-0.21-0.191-3.191,0,0,0,68,false,stim,false,0,986.0,2,0,1,67495,task2,473166,false,false,652,image-keyboard-response,27
true,6,0,1,0,true,q,false,true,0.0-2.0-0.21-0.192-3.192,0,0,0,81,false,stim,false,1,521.9999999999418,2,0,2,67495,task2,475197,false,false,655,image-keyboard-response,28
true,6,2,1,2,true,d,false,true,0.0-2.0-0.21-0.193-3.193,0,0,0,68,false,stim,false,0,669.0,2,0,1,67495,task2,477372,false,false,658,image-keyboard-response,29
true,6,1,1,1,true,z,false,true,0.0-2.0-0.21-0.194-3.194,0,0,0,90,false,stim,false,2,747.9999999999418,2,1,0,67495,task2,479626,false,false,661,image-keyboard-response,30
true,6,0,1,0,true,q,false,true,0.0-2.0-0.21-0.195-3.195,0,0,0,81,false,stim,false,1,675.0,2,0,2,67495,task2,481807,false,false,664,image-keyboard-response,31
true,6,1,1,1,true,z,false,false,0.0-2.0-0.21-0.196-3.196,0,0,0,90,false,stim,false,2,680.0,2,1,0,67495,task2,483993,false,true,667,image-keyboard-response,32
true,6,2,1,2,true,d,false,true,0.0-2.0-0.21-0.197-3.197,0,0,0,68,false,stim,false,0,593.0000000000582,2,0,1,67495,task2,486092,false,false,670,image-keyboard-response,33
true,6,0,1,0,true,q,false,true,0.0-2.0-0.22-0.198-3.198,0,0,0,81,false,stim,false,1,631.0000000000582,2,0,2,67495,task2,488229,false,false,673,image-keyboard-response,34
true,7,0,2,2,false,d,false,false,0.0-2.0-0.22-0.199-3.199,1,0,0,81,true,stim,true,0,474.0,2,0,2,67495,task2,490211,false,false,676,image-keyboard-response,1
true,7,2,2,1,false,z,false,false,0.0-2.0-0.22-0.200-3.200,1,0,0,68,false,stim,true,2,873.0,2,0,1,67495,task2,492590,false,false,679,image-keyboard-response,2
true,7,1,2,1,true,z,false,true,0.0-2.0-0.22-0.201-3.201,1,0,0,90,false,stim,false,1,862.0,2,1,0,67495,task2,494958,false,false,682,image-keyboard-response,3
true,7,2,2,1,false,z,false,false,0.0-2.0-0.22-0.202-3.202,1,0,0,68,false,stim,true,2,672.0,2,0,1,67495,task2,497137,false,false,685,image-keyboard-response,4
true,7,0,2,2,false,d,false,false,0.0-2.0-0.22-0.203-3.203,1,0,0,81,false,stim,true,0,637.0,2,0,2,67495,task2,499280,false,false,688,image-keyboard-response,5
true,7,1,2,1,true,z,false,true,0.0-2.0-0.22-0.204-3.204,1,0,0,90,false,stim,false,1,375.0,2,1,0,67495,task2,501161,false,false,691,image-keyboard-response,6
true,7,1,2,1,true,z,false,false,0.0-2.0-0.22-0.205-3.205,1,0,0,90,false,stim,false,1,574.0,2,1,0,67495,task2,503241,false,true,694,image-keyboard-response,7
true,7,1,2,1,true,z,false,true,0.0-2.0-0.22-0.206-3.206,1,0,0,90,false,stim,false,2,771.9999999999418,2,0,1,67495,task2,505519,false,false,697,image-keyboard-response,8
true,7,2,2,2,true,d,false,true,0.0-2.0-0.23-0.207-3.207,1,0,0,68,false,stim,false,0,1131.0,2,0,2,67495,task2,508156,false,false,700,image-keyboard-response,9
true,7,1,2,1,true,z,false,false,0.0-2.0-0.23-0.208-3.208,1,0,0,90,false,stim,false,1,786.9999999999418,2,1,0,67495,task2,510457,false,true,703,image-keyboard-response,10
true,7,0,2,1,false,z,true,false,0.0-2.0-0.23-0.209-3.209,1,0,0,81,false,stim,false,1,492.0000000000582,2,1,0,67495,task2,512455,false,false,706,image-keyboard-response,11
true,7,2,2,1,false,z,false,false,0.0-2.0-0.23-0.210-3.210,1,0,0,68,false,stim,true,2,1819.9999999998836,2,0,1,67495,task2,515781,false,false,709,image-keyboard-response,12
true,7,1,2,1,true,z,false,false,0.0-2.0-0.23-0.211-3.211,1,0,0,90,false,stim,false,2,479.9999999998836,2,0,1,67495,task2,517767,false,true,712,image-keyboard-response,13
true,7,1,2,1,true,z,false,true,0.0-2.0-0.23-0.212-3.212,1,0,0,90,false,stim,false,2,568.9999999999418,2,0,1,67495,task2,519842,false,false,715,image-keyboard-response,14
true,7,2,2,2,true,d,false,true,0.0-2.0-0.23-0.213-3.213,1,0,0,68,false,stim,false,0,360.0,2,0,2,67495,task2,521710,false,false,718,image-keyboard-response,15
true,7,1,2,1,true,z,false,true,0.0-2.0-0.23-0.214-3.214,1,0,0,90,false,stim,false,1,379.0,2,1,0,67495,task2,523595,false,false,721,image-keyboard-response,16
true,7,2,2,2,true,d,false,true,0.0-2.0-0.23-0.215-3.215,1,0,0,68,false,stim,false,0,470.0,2,0,2,67495,task2,525571,false,false,724,image-keyboard-response,17
true,7,1,2,1,true,z,false,false,0.0-2.0-0.24-0.216-3.216,1,0,0,90,false,stim,false,2,838.0,2,0,1,67495,task2,527916,false,true,727,image-keyboard-response,18
true,7,2,2,2,true,d,false,false,0.0-2.0-0.24-0.217-3.217,1,0,0,68,false,stim,false,0,1260.0,2,0,2,67495,task2,530681,false,true,730,image-keyboard-response,19
true,7,1,2,1,true,z,false,true,0.0-2.0-0.24-0.218-3.218,1,0,0,90,false,stim,false,2,613.0,2,0,1,67495,task2,532800,false,false,733,image-keyboard-response,20
true,7,1,2,1,true,z,false,true,0.0-2.0-0.24-0.219-3.219,1,0,0,90,false,stim,false,1,473.0,2,1,0,67495,task2,534779,false,false,736,image-keyboard-response,21
true,7,2,2,2,true,d,false,true,0.0-2.0-0.24-0.220-3.220,1,0,0,68,false,stim,false,0,315.0000000001164,2,0,2,67495,task2,536600,false,false,739,image-keyboard-response,22
true,7,1,2,1,true,z,false,true,0.0-2.0-0.24-0.221-3.221,1,0,0,90,false,stim,false,2,533.0,2,0,1,67495,task2,538639,false,false,742,image-keyboard-response,23
true,7,2,2,2,true,d,false,true,0.0-2.0-0.24-0.222-3.222,1,0,0,68,false,stim,false,0,505.0,2,0,2,67495,task2,540650,false,false,745,image-keyboard-response,24
true,7,1,2,1,true,z,false,true,0.0-2.0-0.24-0.223-3.223,1,0,0,90,false,stim,false,1,657.0,2,1,0,67495,task2,542815,false,false,748,image-keyboard-response,25
true,7,1,2,1,true,z,false,true,0.0-2.0-0.24-0.224-3.224,1,0,0,90,false,stim,false,1,440.0,2,1,0,67495,task2,544761,false,false,751,image-keyboard-response,26
true,7,1,2,1,true,z,false,false,0.0-2.0-0.25-0.225-3.225,1,0,0,90,false,stim,false,1,395.0,2,1,0,67495,task2,546663,false,true,754,image-keyboard-response,27
true,7,1,2,1,true,z,false,true,0.0-2.0-0.25-0.226-3.226,1,0,0,90,false,stim,false,1,360.0,2,1,0,67495,task2,548529,false,false,757,image-keyboard-response,28
true,7,1,2,1,true,z,false,true,0.0-2.0-0.25-0.227-3.227,1,0,0,90,false,stim,false,1,388.0,2,1,0,67495,task2,550423,false,false,760,image-keyboard-response,29
true,7,2,2,2,true,d,false,true,0.0-2.0-0.25-0.228-3.228,1,0,0,68,false,stim,false,0,746.0,2,0,2,67495,task2,552675,false,false,763,image-keyboard-response,30
true,7,1,2,1,true,z,false,true,0.0-2.0-0.25-0.229-3.229,1,0,0,90,false,stim,false,2,608.0,2,0,1,67495,task2,554791,false,false,766,image-keyboard-response,31
true,7,1,2,1,true,z,false,true,0.0-2.0-0.25-0.230-3.230,1,0,0,90,false,stim,false,2,439.9999999998836,2,0,1,67495,task2,556737,false,false,769,image-keyboard-response,32
true,7,1,2,1,true,z,false,true,0.0-2.0-0.25-0.231-3.231,1,0,0,90,false,stim,false,2,394.0,2,0,1,67495,task2,558637,false,false,772,image-keyboard-response,33
true,7,2,2,2,true,d,false,true,0.0-2.0-0.25-0.232-3.232,1,0,0,68,false,stim,false,0,637.0,2,0,2,67495,task2,560780,false,false,775,image-keyboard-response,34
true,7,1,2,2,false,d,true,true,0.0-2.0-0.25-0.233-3.233,1,0,0,90,false,stim,false,0,580.0,2,0,2,67495,task2,562867,false,true,778,image-keyboard-response,35
true,8,2,1,1,false,z,false,false,0.0-2.0-0.26-0.234-3.234,0,0,0,68,true,stim,true,2,384.0,2,0,2,67495,task2,564758,false,false,781,image-keyboard-response,1
true,8,1,1,0,false,q,false,false,0.0-2.0-0.26-0.235-3.235,0,0,0,90,false,stim,true,1,573.0,2,0,0,67495,task2,566837,false,false,784,image-keyboard-response,2
true,8,0,1,0,true,q,false,true,0.0-2.0-0.26-0.236-3.236,0,0,0,81,false,stim,false,1,462.0,2,0,0,67495,task2,568805,false,false,787,image-keyboard-response,3
true,8,0,1,0,true,q,false,false,0.0-2.0-0.26-0.237-3.237,0,0,0,81,false,stim,false,1,469.0,2,0,0,67495,task2,570783,false,true,790,image-keyboard-response,4
true,8,1,1,1,true,z,false,true,0.0-2.0-0.26-0.238-3.238,0,0,0,90,false,stim,false,2,383.0,2,0,2,67495,task2,572672,false,false,793,image-keyboard-response,5
true,8,2,1,0,false,q,true,false,0.0-2.0-0.26-0.239-3.239,0,0,0,68,false,stim,false,1,484.9999999998836,2,0,1,67495,task2,574663,false,false,796,image-keyboard-response,6
true,8,1,1,0,false,q,false,false,0.0-2.0-0.26-0.240-3.240,0,0,0,90,false,stim,true,1,411.0,2,0,1,67495,task2,576580,false,false,799,image-keyboard-response,7
true,8,0,1,0,true,q,false,true,0.0-2.0-0.26-0.241-3.241,0,0,0,81,false,stim,false,1,477.0,2,0,1,67495,task2,578570,false,false,802,image-keyboard-response,8
true,8,1,1,1,true,z,false,true,0.0-2.0-0.26-0.242-3.242,0,0,0,90,false,stim,false,2,478.0,2,0,2,67495,task2,580554,false,false,805,image-keyboard-response,9
true,8,1,1,1,true,z,false,true,0.0-2.0-0.27-0.243-3.243,0,0,0,90,false,stim,false,2,438.0,2,0,2,67495,task2,582497,false,false,808,image-keyboard-response,10
true,8,0,1,0,true,q,false,true,0.0-2.0-0.27-0.244-3.244,0,0,0,81,false,stim,false,1,635.0,2,0,1,67495,task2,584638,false,false,811,image-keyboard-response,11
true,8,0,1,0,true,q,false,true,0.0-2.0-0.27-0.245-3.245,0,0,0,81,false,stim,false,1,499.0,2,0,1,67495,task2,586642,false,false,814,image-keyboard-response,12
true,8,0,1,0,true,q,false,true,0.0-2.0-0.27-0.246-3.246,0,0,0,81,false,stim,false,1,417.0,2,0,1,67495,task2,588565,false,false,817,image-keyboard-response,13
true,8,1,1,1,true,z,false,true,0.0-2.0-0.27-0.247-3.247,0,0,0,90,false,stim,false,2,408.0,2,0,2,67495,task2,590479,false,false,820,image-keyboard-response,14
true,8,1,1,1,true,z,false,true,0.0-2.0-0.27-0.248-3.248,0,0,0,90,false,stim,false,2,319.0,2,0,2,67495,task2,592306,false,false,823,image-keyboard-response,15
true,8,0,1,0,true,q,false,true,0.0-2.0-0.27-0.249-3.249,0,0,0,81,false,stim,false,1,589.0,2,0,0,67495,task2,594400,false,false,826,image-keyboard-response,16
true,8,0,1,0,true,q,false,true,0.0-2.0-0.27-0.250-3.250,0,0,0,81,false,stim,false,1,342.0,2,0,0,67495,task2,596248,false,false,829,image-keyboard-response,17
true,8,0,1,0,true,q,false,true,0.0-2.0-0.27-0.251-3.251,0,0,0,81,false,stim,false,1,480.0,2,0,0,67495,task2,598235,false,false,832,image-keyboard-response,18
true,8,1,1,0,false,q,false,false,0.0-2.0-0.28-0.252-3.252,0,0,0,90,false,stim,true,1,526.0,2,0,1,67495,task2,600267,false,false,835,image-keyboard-response,19
true,8,1,1,1,true,z,false,true,0.0-2.0-0.28-0.253-3.253,0,0,0,90,false,stim,false,2,327.0,2,0,2,67495,task2,602100,false,false,838,image-keyboard-response,20
true,8,0,1,0,true,q,false,true,0.0-2.0-0.28-0.254-3.254,0,0,0,81,false,stim,false,1,646.0,2,0,0,67495,task2,604252,false,false,841,image-keyboard-response,21
true,8,0,1,0,true,q,false,true,0.0-2.0-0.28-0.255-3.255,0,0,0,81,false,stim,false,1,419.0000000001164,2,0,0,67495,task2,606179,false,false,844,image-keyboard-response,22
true,8,1,1,1,true,z,false,true,0.0-2.0-0.28-0.256-3.256,0,0,0,90,false,stim,false,2,776.0,2,0,2,67495,task2,608461,false,false,847,image-keyboard-response,23
true,8,1,1,1,true,z,false,true,0.0-2.0-0.28-0.257-3.257,0,0,0,90,false,stim,false,2,592.0,2,0,2,67495,task2,610558,false,false,850,image-keyboard-response,24
true,8,0,1,0,true,q,false,true,0.0-2.0-0.28-0.258-3.258,0,0,0,81,false,stim,false,1,819.0,2,0,1,67495,task2,612883,false,false,853,image-keyboard-response,25
true,8,0,1,0,true,q,false,true,0.0-2.0-0.28-0.259-3.259,0,0,0,81,false,stim,false,1,580.0,2,0,1,67495,task2,614969,false,false,856,image-keyboard-response,26
true,8,0,1,0,true,q,false,true,0.0-2.0-0.28-0.260-3.260,0,0,0,81,false,stim,false,1,961.0,2,0,0,67495,task2,617437,false,false,859,image-keyboard-response,27
true,8,0,1,0,true,q,false,true,0.0-2.0-0.29-0.261-3.261,0,0,0,81,false,stim,false,1,1338.0,2,0,1,67495,task2,620286,false,false,862,image-keyboard-response,28
true,8,1,1,1,true,z,false,true,0.0-2.0-0.29-0.262-3.262,0,0,0,90,false,stim,false,2,334.0,2,0,2,67495,task2,622125,false,false,865,image-keyboard-response,29
true,8,0,1,0,true,q,false,true,0.0-2.0-0.29-0.263-3.263,0,0,0,81,false,stim,false,1,549.9999999998836,2,0,0,67495,task2,624181,false,false,868,image-keyboard-response,30
true,8,0,1,0,true,q,false,true,0.0-2.0-0.29-0.264-3.264,0,0,0,81,false,stim,false,1,443.0,2,0,0,67495,task2,626130,false,false,871,image-keyboard-response,31
true,8,1,1,1,true,z,false,true,0.0-2.0-0.29-0.265-3.265,0,0,0,90,false,stim,false,2,630.0,2,1,2,67495,task2,628265,false,false,874,image-keyboard-response,32
true,8,0,1,0,true,q,false,true,0.0-2.0-0.29-0.266-3.266,0,0,0,81,false,stim,false,1,445.0,2,0,0,67495,task2,630216,false,false,877,image-keyboard-response,33
true,8,0,1,0,true,q,false,true,0.0-2.0-0.29-0.267-3.267,0,0,0,81,false,stim,false,1,868.9999999998836,2,0,1,67495,task2,632591,false,false,880,image-keyboard-response,34
true,8,1,1,1,true,z,false,true,0.0-2.0-0.29-0.268-3.268,0,0,0,90,false,stim,false,2,1036.0,2,1,2,67495,task2,635135,false,false,883,image-keyboard-response,35
true,9,0,2,2,false,d,false,false,0.0-2.0-0.29-0.269-3.269,0,0,1,81,true,stim,true,0,478.0,2,0,1,67495,task2,637120,false,false,886,image-keyboard-response,1
true,9,0,2,1,false,z,false,false,0.0-2.0-0.30-0.270-3.270,0,0,1,81,false,stim,true,0,476.0,2,0,0,67495,task2,639103,false,false,889,image-keyboard-response,2
true,9,1,2,1,true,z,false,true,0.0-2.0-0.30-0.271-3.271,0,0,1,90,false,stim,false,1,562.0,2,1,2,67495,task2,641171,false,false,892,image-keyboard-response,3
true,9,0,2,1,false,z,false,false,0.0-2.0-0.30-0.272-3.272,0,0,1,81,false,stim,true,0,401.0,2,0,0,67495,task2,643078,false,false,895,image-keyboard-response,4
true,9,1,2,2,false,d,true,false,0.0-2.0-0.30-0.273-3.273,0,0,1,90,false,stim,false,0,638.0,2,0,1,67495,task2,645225,false,false,898,image-keyboard-response,5
true,9,1,2,1,true,z,false,true,0.0-2.0-0.30-0.274-3.274,0,0,1,90,false,stim,false,1,465.0,2,1,2,67495,task2,647203,false,false,901,image-keyboard-response,6
true,9,2,2,2,true,d,false,false,0.0-2.0-0.30-0.275-3.275,0,0,1,68,false,stim,false,0,544.9999999998836,2,0,1,67495,task2,649254,false,true,904,image-keyboard-response,7
true,9,2,2,1,false,z,true,false,0.0-2.0-0.30-0.276-3.276,0,0,1,68,false,stim,false,0,792.0,2,0,0,67495,task2,651552,false,false,907,image-keyboard-response,8
true,9,1,2,1,true,z,false,true,0.0-2.0-0.30-0.277-3.277,0,0,1,90,false,stim,false,1,365.0,2,1,2,67495,task2,653423,false,false,910,image-keyboard-response,9
true,9,0,2,2,false,d,false,false,0.0-2.0-0.30-0.278-3.278,0,0,1,81,false,stim,true,0,395.0000000001164,2,0,1,67495,task2,655325,false,false,913,image-keyboard-response,10
true,9,0,2,1,false,z,false,false,0.0-2.0-0.31-0.279-3.279,0,0,1,81,false,stim,true,0,312.0,2,0,0,67495,task2,657148,false,false,916,image-keyboard-response,11
true,9,1,2,2,false,d,true,false,0.0-2.0-0.31-0.280-3.280,0,0,1,90,false,stim,false,0,670.0000000001164,2,0,1,67495,task2,659325,false,false,919,image-keyboard-response,12
true,9,1,2,2,false,d,true,false,0.0-2.0-0.31-0.281-3.281,0,0,1,90,false,stim,false,0,510.0,2,0,1,67495,task2,661340,false,false,922,image-keyboard-response,13
true,9,1,2,1,true,z,false,true,0.0-2.0-0.31-0.282-3.282,0,0,1,90,false,stim,false,1,641.0,2,1,2,67495,task2,663487,false,false,925,image-keyboard-response,14
true,9,1,2,1,true,z,false,true,0.0-2.0-0.31-0.283-3.283,0,0,1,90,false,stim,false,0,1010.0,2,0,0,67495,task2,666005,false,false,928,image-keyboard-response,15
true,9,1,2,1,true,z,false,true,0.0-2.0-0.31-0.284-3.284,0,0,1,90,false,stim,false,1,599.0,2,1,2,67495,task2,668111,false,false,931,image-keyboard-response,16
true,9,1,2,1,true,z,false,true,0.0-2.0-0.31-0.285-3.285,0,0,1,90,false,stim,false,1,360.0,2,1,2,67495,task2,669978,false,false,934,image-keyboard-response,17
true,9,1,2,1,true,z,false,true,0.0-2.0-0.31-0.286-3.286,0,0,1,90,false,stim,false,0,335.0,2,0,0,67495,task2,671819,false,false,937,image-keyboard-response,18
true,9,2,2,2,true,d,false,true,0.0-2.0-0.31-0.287-3.287,0,0,1,68,false,stim,false,0,731.9999999998836,2,0,1,67495,task2,674057,false,false,940,image-keyboard-response,19
true,9,1,2,1,true,z,false,false,0.0-2.0-0.32-0.288-3.288,0,0,1,90,false,stim,false,1,441.0,2,1,2,67495,task2,676005,false,true,943,image-keyboard-response,20
true,9,1,2,1,true,z,false,true,0.0-2.0-0.32-0.289-3.289,0,0,1,90,false,stim,false,1,417.0,2,1,2,67495,task2,677928,false,false,946,image-keyboard-response,21
true,9,2,2,2,true,d,false,true,0.0-2.0-0.32-0.290-3.290,0,0,1,68,false,stim,false,0,648.0,2,0,1,67495,task2,680082,false,false,949,image-keyboard-response,22
true,9,1,2,1,true,z,false,true,0.0-2.0-0.32-0.291-3.291,0,0,1,90,false,stim,false,1,1234.0,2,1,2,67495,task2,682822,false,false,952,image-keyboard-response,23
true,9,2,2,2,true,d,false,true,0.0-2.0-0.32-0.292-3.292,0,0,1,68,false,stim,false,0,374.0,2,0,1,67495,task2,684703,false,false,955,image-keyboard-response,24
true,9,2,2,2,true,d,false,true,0.0-2.0-0.32-0.293-3.293,0,0,1,68,false,stim,false,0,414.0,2,0,1,67495,task2,686622,false,false,958,image-keyboard-response,25
true,9,1,2,1,true,z,false,true,0.0-2.0-0.32-0.294-3.294,0,0,1,90,false,stim,false,0,548.0,2,0,0,67495,task2,688675,false,false,961,image-keyboard-response,26
true,9,1,2,1,true,z,false,false,0.0-2.0-0.32-0.295-3.295,0,0,1,90,false,stim,false,0,570.9999999998836,2,0,0,67495,task2,690752,false,true,964,image-keyboard-response,27
true,9,1,2,1,true,z,false,true,0.0-2.0-0.32-0.296-3.296,0,0,1,90,false,stim,false,0,411.9999999998836,2,0,0,67495,task2,692670,false,false,967,image-keyboard-response,28
true,9,1,2,1,true,z,false,true,0.0-2.0-0.33-0.297-3.297,0,0,1,90,false,stim,false,1,593.0,2,0,2,67495,task2,694771,false,false,970,image-keyboard-response,29
true,9,2,2,2,true,d,false,true,0.0-2.0-0.33-0.298-3.298,0,0,1,68,false,stim,false,0,553.0,2,1,1,67495,task2,696830,false,false,973,image-keyboard-response,30
true,9,1,2,1,true,z,false,true,0.0-2.0-0.33-0.299-3.299,0,0,1,90,false,stim,false,1,961.0,2,0,2,67495,task2,699301,false,false,976,image-keyboard-response,31
true,9,1,2,1,true,z,false,true,0.0-2.0-0.33-0.300-3.300,0,0,1,90,false,stim,false,0,591.0,2,0,0,67495,task2,701398,false,false,979,image-keyboard-response,32
true,10,1,2,2,false,d,true,false,0.0-2.0-0.33-0.301-3.301,0,1,0,90,true,stim,false,2,726.0,2,1,1,67495,task2,703630,false,false,982,image-keyboard-response,1
true,10,1,2,2,false,d,false,false,0.0-2.0-0.33-0.302-3.302,0,1,0,90,false,stim,true,1,1075.0000000001164,2,0,0,67495,task2,706210,false,false,985,image-keyboard-response,2
true,10,2,2,2,true,d,false,true,0.0-2.0-0.33-0.303-3.303,0,1,0,68,false,stim,false,2,314.0,2,1,1,67495,task2,708030,false,false,988,image-keyboard-response,3
true,10,1,2,0,false,q,false,false,0.0-2.0-0.33-0.304-3.304,0,1,0,90,false,stim,true,1,312.0,2,0,2,67495,task2,709849,false,false,991,image-keyboard-response,4
true,10,2,2,2,true,d,false,true,0.0-2.0-0.33-0.305-3.305,0,1,0,68,false,stim,false,1,560.9999999998836,2,0,0,67495,task2,711916,false,false,994,image-keyboard-response,5
true,10,0,2,0,true,q,false,true,0.0-2.0-0.34-0.306-3.306,0,1,0,81,false,stim,false,1,1023.0,2,0,2,67495,task2,714449,false,false,997,image-keyboard-response,6
true,10,2,2,2,true,d,false,true,0.0-2.0-0.34-0.307-3.307,0,1,0,68,false,stim,false,1,426.0,2,0,0,67495,task2,716381,false,false,1000,image-keyboard-response,7
true,10,0,2,2,false,d,true,false,0.0-2.0-0.34-0.308-3.308,0,1,0,81,false,stim,false,1,461.0000000001164,2,0,0,67495,task2,718355,false,false,1003,image-keyboard-response,8
true,10,2,2,2,true,d,false,true,0.0-2.0-0.34-0.309-3.309,0,1,0,68,false,stim,false,2,1032.0,2,1,1,67495,task2,720893,false,false,1006,image-keyboard-response,9
true,10,0,2,0,true,q,false,true,0.0-2.0-0.34-0.310-3.310,0,1,0,81,false,stim,false,1,308.0,2,0,2,67495,task2,722710,false,false,1009,image-keyboard-response,10
true,10,0,2,0,true,q,false,true,0.0-2.0-0.34-0.311-3.311,0,1,0,81,false,stim,false,1,452.0,2,0,2,67495,task2,724668,false,false,1012,image-keyboard-response,11
true,10,2,2,2,true,d,false,false,0.0-2.0-0.34-0.312-3.312,0,1,0,68,false,stim,false,2,636.0,2,1,1,67495,task2,726810,false,true,1015,image-keyboard-response,12
true,10,2,2,2,true,d,false,true,0.0-2.0-0.34-0.313-3.313,0,1,0,68,false,stim,false,2,528.0,2,1,1,67495,task2,728844,false,false,1018,image-keyboard-response,13
true,10,2,2,2,true,d,false,true,0.0-2.0-0.34-0.314-3.314,0,1,0,68,false,stim,false,1,364.9999999998836,2,0,0,67495,task2,730715,false,false,1021,image-keyboard-response,14
true,10,2,2,2,true,d,false,true,0.0-2.0-0.35-0.315-3.315,0,1,0,68,false,stim,false,2,392.0,2,1,1,67495,task2,732616,false,false,1024,image-keyboard-response,15
true,10,0,2,0,true,q,false,true,0.0-2.0-0.35-0.316-3.316,0,1,0,81,false,stim,false,1,601.0,2,0,2,67495,task2,734724,false,false,1027,image-keyboard-response,16
true,10,2,2,2,true,d,false,true,0.0-2.0-0.35-0.317-3.317,0,1,0,68,false,stim,false,1,759.0,2,0,0,67495,task2,736989,false,false,1030,image-keyboard-response,17
true,10,2,2,2,true,d,false,true,0.0-2.0-0.35-0.318-3.318,0,1,0,68,false,stim,false,2,695.0,2,1,1,67495,task2,739189,false,false,1033,image-keyboard-response,18
true,10,0,2,0,true,q,false,true,0.0-2.0-0.35-0.319-3.319,0,1,0,81,false,stim,false,1,633.0,2,0,2,67495,task2,741328,false,false,1036,image-keyboard-response,19
true,10,2,2,2,true,d,false,true,0.0-2.0-0.35-0.320-3.320,0,1,0,68,false,stim,false,2,489.0,2,1,1,67495,task2,743323,false,false,1039,image-keyboard-response,20
true,10,2,2,2,true,d,false,true,0.0-2.0-0.35-0.321-3.321,0,1,0,68,false,stim,false,1,440.0,2,0,0,67495,task2,745269,false,false,1042,image-keyboard-response,21
true,10,2,2,2,true,d,false,true,0.0-2.0-0.35-0.322-3.322,0,1,0,68,false,stim,false,1,399.0,2,0,0,67495,task2,747176,false,false,1045,image-keyboard-response,22
true,10,0,2,0,true,q,false,true,0.0-2.0-0.35-0.323-3.323,0,1,0,81,false,stim,false,1,513.9999999998836,2,0,2,67495,task2,749197,false,false,1048,image-keyboard-response,23
true,10,0,2,0,true,q,false,true,0.0-2.0-0.36-0.324-3.324,0,1,0,81,false,stim,false,1,555.0000000001164,2,0,2,67495,task2,751260,false,false,1051,image-keyboard-response,24
true,10,2,2,2,true,d,false,true,0.0-2.0-0.36-0.325-3.325,0,1,0,68,false,stim,false,2,886.0,2,1,1,67495,task2,753653,false,false,1054,image-keyboard-response,25
true,10,0,2,0,true,q,false,true,0.0-2.0-0.36-0.326-3.326,0,1,0,81,false,stim,false,1,587.9999999998836,2,0,2,67495,task2,755747,false,false,1057,image-keyboard-response,26
true,10,2,2,2,true,d,false,false,0.0-2.0-0.36-0.327-3.327,0,1,0,68,false,stim,false,1,520.0,2,0,0,67495,task2,757773,false,true,1060,image-keyboard-response,27
true,10,2,2,0,false,q,true,false,0.0-2.0-0.36-0.328-3.328,0,1,0,68,false,stim,false,1,762.0,2,0,2,67495,task2,760044,false,false,1063,image-keyboard-response,28
true,10,2,2,2,true,d,false,true,0.0-2.0-0.36-0.329-3.329,0,1,0,68,false,stim,false,2,526.0000000001164,2,0,1,67495,task2,762077,false,false,1066,image-keyboard-response,29
true,10,2,2,2,true,d,false,false,0.0-2.0-0.36-0.330-3.330,0,1,0,68,false,stim,false,1,573.0,2,0,0,67495,task2,764156,false,true,1069,image-keyboard-response,30
true,10,1,2,2,false,d,false,false,0.0-2.0-0.36-0.331-3.331,0,1,0,90,false,stim,true,1,510.0,2,0,0,67495,task2,766173,false,false,1072,image-keyboard-response,31
true,10,2,2,2,true,d,false,true,0.0-2.0-0.36-0.332-3.332,0,1,0,68,false,stim,false,2,835.0,2,0,1,67495,task2,768515,false,false,1075,image-keyboard-response,32
true,10,0,2,2,false,d,true,false,0.0-2.0-0.37-0.333-3.333,0,1,0,81,false,stim,false,1,444.0,2,0,0,67495,task2,770467,false,false,1078,image-keyboard-response,33
true,11,0,1,1,false,z,true,true,0.0-2.0-0.37-0.334-3.334,0,0,0,81,true,stim,false,2,451.0,2,0,1,67495,task2,772427,false,true,1081,image-keyboard-response,1
true,11,0,1,1,false,z,false,false,0.0-2.0-0.37-0.335-3.335,0,0,0,81,false,stim,true,0,388.0,2,0,2,67495,task2,774320,false,false,1084,image-keyboard-response,2
true,11,0,1,1,false,z,true,false,0.0-2.0-0.37-0.336-3.336,0,0,0,81,false,stim,false,2,606.0,2,0,1,67495,task2,776432,false,false,1087,image-keyboard-response,3
true,11,2,1,1,false,z,false,false,0.0-2.0-0.37-0.337-3.337,0,0,0,68,false,stim,true,2,491.9999999998836,2,0,1,67495,task2,778430,false,false,1090,image-keyboard-response,4
true,11,2,1,1,false,z,true,false,0.0-2.0-0.37-0.338-3.338,0,0,0,68,false,stim,false,0,938.0,2,0,2,67495,task2,780874,false,false,1093,image-keyboard-response,5
true,11,1,1,0,false,q,true,false,0.0-2.0-0.37-0.339-3.339,0,0,0,90,false,stim,false,2,682.0,2,0,0,67495,task2,783061,false,false,1096,image-keyboard-response,6
true,11,0,1,0,true,q,false,true,0.0-2.0-0.37-0.340-3.340,0,0,0,81,false,stim,false,2,667.0000000001164,2,0,0,67495,task2,785237,false,false,1099,image-keyboard-response,7
true,11,0,1,1,false,z,false,false,0.0-2.0-0.37-0.341-3.341,0,0,0,81,false,stim,true,0,1062.0,2,0,2,67495,task2,787812,false,false,1102,image-keyboard-response,8
true,11,1,1,1,true,z,false,true,0.0-2.0-0.38-0.342-3.342,0,0,0,90,false,stim,false,2,613.0,2,0,1,67495,task2,789932,false,false,1105,image-keyboard-response,9
true,11,1,1,1,true,z,false,true,0.0-2.0-0.38-0.343-3.343,0,0,0,90,false,stim,false,2,837.0000000001164,2,0,1,67495,task2,792275,false,false,1108,image-keyboard-response,10
true,11,0,1,0,true,q,false,true,0.0-2.0-0.38-0.344-3.344,0,0,0,81,false,stim,false,2,724.0,2,0,0,67495,task2,794508,false,false,1111,image-keyboard-response,11
true,11,2,1,1,false,z,true,false,0.0-2.0-0.38-0.345-3.345,0,0,0,68,false,stim,false,0,531.0,2,0,2,67495,task2,796546,false,false,1114,image-keyboard-response,12
true,11,1,1,1,true,z,false,true,0.0-2.0-0.38-0.346-3.346,0,0,0,90,false,stim,false,2,701.0,2,0,1,67495,task2,798753,false,false,1117,image-keyboard-response,13
true,11,1,1,1,true,z,false,true,0.0-2.0-0.38-0.347-3.347,0,0,0,90,false,stim,false,0,403.0,2,0,2,67495,task2,800661,false,false,1120,image-keyboard-response,14
true,11,0,1,0,true,q,false,false,0.0-2.0-0.38-0.348-3.348,0,0,0,81,false,stim,false,2,505.0,2,0,0,67495,task2,802672,false,true,1123,image-keyboard-response,15
true,11,1,1,1,true,z,false,true,0.0-2.0-0.38-0.349-3.349,0,0,0,90,false,stim,false,0,545.0,2,0,2,67495,task2,804725,false,false,1126,image-keyboard-response,16
true,11,0,1,0,true,q,false,true,0.0-2.0-0.38-0.350-3.350,0,0,0,81,false,stim,false,2,593.0,2,0,0,67495,task2,806825,false,false,1129,image-keyboard-response,17
true,11,1,1,1,true,z,false,true,0.0-2.0-0.39-0.351-3.351,0,0,0,90,false,stim,false,2,505.0,2,0,1,67495,task2,808837,false,false,1132,image-keyboard-response,18
true,11,1,1,1,true,z,false,true,0.0-2.0-0.39-0.352-3.352,0,0,0,90,false,stim,false,2,335.0,2,0,1,67495,task2,810678,false,false,1135,image-keyboard-response,19
true,11,1,1,1,true,z,false,true,0.0-2.0-0.39-0.353-3.353,0,0,0,90,false,stim,false,0,352.9999999998836,2,0,2,67495,task2,812537,false,false,1138,image-keyboard-response,20
true,11,0,1,0,true,q,false,true,0.0-2.0-0.39-0.354-3.354,0,0,0,81,false,stim,false,2,535.0000000001164,2,0,0,67495,task2,814578,false,false,1141,image-keyboard-response,21
true,11,0,1,0,true,q,false,true,0.0-2.0-0.39-0.355-3.355,0,0,0,81,false,stim,false,2,506.0,2,0,0,67495,task2,816590,false,false,1144,image-keyboard-response,22
true,11,0,1,0,true,q,false,false,0.0-2.0-0.39-0.356-3.356,0,0,0,81,false,stim,false,2,461.0,2,0,0,67495,task2,818557,false,true,1147,image-keyboard-response,23
true,11,1,1,1,true,z,false,true,0.0-2.0-0.39-0.357-3.357,0,0,0,90,false,stim,false,0,717.0,2,0,2,67495,task2,820783,false,false,1150,image-keyboard-response,24
true,11,1,1,1,true,z,false,true,0.0-2.0-0.39-0.358-3.358,0,0,0,90,false,stim,false,0,407.0,2,0,2,67495,task2,822697,false,false,1153,image-keyboard-response,25
true,11,1,1,1,true,z,false,true,0.0-2.0-0.39-0.359-3.359,0,0,0,90,false,stim,false,2,707.0,2,0,1,67495,task2,824912,false,false,1156,image-keyboard-response,26
true,11,0,1,0,true,q,false,false,0.0-2.0-0.40-0.360-3.360,0,0,0,81,false,stim,false,2,807.0,2,0,0,67495,task2,827227,false,true,1159,image-keyboard-response,27
true,11,1,1,1,true,z,false,true,0.0-2.0-0.40-0.361-3.361,0,0,0,90,false,stim,false,2,409.0,2,0,1,67495,task2,829141,false,false,1162,image-keyboard-response,28
true,11,1,1,1,true,z,false,true,0.0-2.0-0.40-0.362-3.362,0,0,0,90,false,stim,false,0,869.0,2,0,2,67495,task2,831516,false,false,1165,image-keyboard-response,29
true,11,1,1,1,true,z,false,true,0.0-2.0-0.40-0.363-3.363,0,0,0,90,false,stim,false,0,490.0000000001164,2,0,2,67495,task2,833512,false,false,1168,image-keyboard-response,30
true,11,1,1,1,true,z,false,true,0.0-2.0-0.40-0.364-3.364,0,0,0,90,false,stim,false,2,571.0000000001164,2,0,1,67495,task2,835589,false,false,1171,image-keyboard-response,31
true,11,2,1,0,false,q,false,false,0.0-2.0-0.40-0.365-3.365,0,0,0,68,false,stim,true,2,373.0,2,0,0,67495,task2,837471,false,false,1174,image-keyboard-response,32
true,11,0,1,0,true,q,false,true,0.0-2.0-0.40-0.366-3.366,0,0,0,81,false,stim,false,2,619.0,2,0,0,67495,task2,839597,false,false,1177,image-keyboard-response,33
true,11,1,1,1,true,z,false,false,0.0-2.0-0.40-0.367-3.367,0,0,0,90,false,stim,false,2,401.9999999998836,2,0,1,67495,task2,841506,false,true,1180,image-keyboard-response,34
true,11,1,1,1,true,z,false,true,0.0-2.0-0.40-0.368-3.368,0,0,0,90,false,stim,false,0,325.9999999998836,2,0,2,67495,task2,843339,false,false,1183,image-keyboard-response,35
true,11,1,1,1,true,z,false,true,0.0-2.0-0.41-0.369-3.369,0,0,0,90,false,stim,false,2,305.0000000001164,2,0,1,67495,task2,845152,false,false,1186,image-keyboard-response,36
true,11,1,1,1,true,z,false,true,0.0-2.0-0.41-0.370-3.370,0,0,0,90,false,stim,false,2,383.0,2,0,1,67495,task2,847044,false,false,1189,image-keyboard-response,37
true,12,0,1,2,false,d,false,false,0.0-2.0-0.41-0.371-3.371,0,0,0,81,true,stim,true,0,529.9999999998836,2,0,0,67495,task2,849081,false,false,1192,image-keyboard-response,1
true,12,1,1,0,false,q,false,false,0.0-2.0-0.41-0.372-3.372,0,0,0,90,false,stim,true,1,323.0,2,0,1,67495,task2,850911,false,false,1195,image-keyboard-response,2
true,12,1,1,2,false,d,false,false,0.0-2.0-0.41-0.373-3.373,0,0,0,90,false,stim,true,1,545.0,2,0,2,67495,task2,852961,false,false,1198,image-keyboard-response,3
true,12,0,1,2,false,d,false,false,0.0-2.0-0.41-0.374-3.374,0,0,0,81,false,stim,true,0,613.0,2,0,0,67495,task2,855087,false,false,1201,image-keyboard-response,4
true,12,0,1,2,false,d,true,false,0.0-2.0-0.41-0.375-3.375,0,0,0,81,false,stim,false,1,999.0,2,0,2,67495,task2,857592,false,false,1204,image-keyboard-response,5
true,12,1,1,2,false,d,true,false,0.0-2.0-0.41-0.376-3.376,0,0,0,90,false,stim,false,0,514.0,2,0,0,67495,task2,859612,false,false,1207,image-keyboard-response,6
true,12,2,1,2,true,d,false,true,0.0-2.0-0.41-0.377-3.377,0,0,0,68,false,stim,false,1,923.0,2,0,2,67495,task2,862042,false,false,1210,image-keyboard-response,7
true,12,1,1,0,false,q,false,false,0.0-2.0-0.42-0.378-3.378,0,0,0,90,false,stim,true,1,395.0,2,0,1,67495,task2,863947,false,false,1213,image-keyboard-response,8
true,12,2,1,2,true,d,false,true,0.0-2.0-0.42-0.379-3.379,0,0,0,68,false,stim,false,0,538.0,2,0,0,67495,task2,865991,false,false,1216,image-keyboard-response,9
true,12,0,1,0,true,q,false,true,0.0-2.0-0.42-0.380-3.380,0,0,0,81,false,stim,false,1,458.0000000001164,2,0,1,67495,task2,867955,false,false,1219,image-keyboard-response,10
true,12,0,1,0,true,q,false,true,0.0-2.0-0.42-0.381-3.381,0,0,0,81,false,stim,false,1,548.0,2,0,1,67495,task2,870009,false,false,1222,image-keyboard-response,11
true,12,2,1,2,true,d,false,true,0.0-2.0-0.42-0.382-3.382,0,0,0,68,false,stim,false,0,502.0,2,0,0,67495,task2,872017,false,false,1225,image-keyboard-response,12
true,12,2,1,2,true,d,false,true,0.0-2.0-0.42-0.383-3.383,0,0,0,68,false,stim,false,0,352.0,2,0,0,67495,task2,873875,false,false,1228,image-keyboard-response,13
true,12,2,1,2,true,d,false,true,0.0-2.0-0.42-0.384-3.384,0,0,0,68,false,stim,false,1,521.9999999998836,2,0,2,67495,task2,875905,false,false,1231,image-keyboard-response,14
true,12,2,1,2,true,d,false,true,0.0-2.0-0.42-0.385-3.385,0,0,0,68,false,stim,false,1,201.0,2,0,2,67495,task2,877612,false,false,1234,image-keyboard-response,15
true,12,2,1,2,true,d,false,true,0.0-2.0-0.42-0.386-3.386,0,0,0,68,false,stim,false,1,2963.0,2,0,2,67495,task2,882079,false,false,1237,image-keyboard-response,16
true,12,0,1,2,false,d,false,false,0.0-2.0-0.43-0.387-3.387,0,0,0,81,false,stim,true,0,463.0,2,0,0,67495,task2,884050,false,false,1240,image-keyboard-response,17
true,12,2,1,2,true,d,false,true,0.0-2.0-0.43-0.388-3.388,0,0,0,68,false,stim,false,0,780.9999999998836,2,0,0,67495,task2,886338,false,false,1243,image-keyboard-response,18
true,12,0,1,0,true,q,false,false,0.0-2.0-0.43-0.389-3.389,0,0,0,81,false,stim,false,1,418.0,2,0,1,67495,task2,888261,false,true,1246,image-keyboard-response,19
true,12,2,1,0,false,q,true,true,0.0-2.0-0.43-0.390-3.390,0,0,0,68,false,stim,false,1,528.0,2,0,1,67495,task2,890296,false,true,1249,image-keyboard-response,20
true,12,2,1,2,true,d,false,true,0.0-2.0-0.43-0.391-3.391,0,0,0,68,false,stim,false,1,670.0000000001164,2,0,2,67495,task2,892475,false,false,1252,image-keyboard-response,21
true,12,0,1,2,false,d,false,false,0.0-2.0-0.43-0.392-3.392,0,0,0,81,false,stim,true,0,350.0,2,0,0,67495,task2,894331,false,false,1255,image-keyboard-response,22
true,12,2,1,0,false,q,true,false,0.0-2.0-0.43-0.393-3.393,0,0,0,68,false,stim,false,1,599.0,2,0,1,67495,task2,896436,false,false,1258,image-keyboard-response,23
true,12,2,1,2,true,d,false,true,0.0-2.0-0.43-0.394-3.394,0,0,0,68,false,stim,false,1,330.0,2,0,2,67495,task2,898273,false,false,1261,image-keyboard-response,24
true,12,2,1,2,true,d,false,false,0.0-2.0-0.43-0.395-3.395,0,0,0,68,false,stim,false,1,425.0000000001164,2,0,2,67495,task2,900206,false,true,1264,image-keyboard-response,25
true,12,1,1,2,false,d,true,false,0.0-2.0-0.44-0.396-3.396,0,0,0,90,false,stim,false,0,328.0,2,0,0,67495,task2,902042,false,false,1267,image-keyboard-response,26
true,12,2,1,0,false,q,true,false,0.0-2.0-0.44-0.397-3.397,0,0,0,68,false,stim,false,1,803.0,2,0,1,67495,task2,904352,false,false,1270,image-keyboard-response,27
true,12,2,1,2,true,d,false,true,0.0-2.0-0.44-0.398-3.398,0,0,0,68,false,stim,false,1,659.9999999998836,2,0,2,67495,task2,906520,false,false,1273,image-keyboard-response,28
true,12,1,1,0,false,q,false,false,0.0-2.0-0.44-0.399-3.399,0,0,0,90,false,stim,true,1,808.0,2,0,1,67495,task2,908835,false,false,1276,image-keyboard-response,29
true,12,1,1,2,false,d,true,false,0.0-2.0-0.44-0.400-3.400,0,0,0,90,false,stim,false,0,670.9999999998836,2,0,0,67495,task2,911013,false,false,1279,image-keyboard-response,30
true,12,2,1,2,true,d,false,true,0.0-2.0-0.44-0.401-3.401,0,0,0,68,false,stim,false,0,700.0,2,0,0,67495,task2,913220,false,false,1282,image-keyboard-response,31
true,12,0,1,0,true,q,false,true,0.0-2.0-0.44-0.402-3.402,0,0,0,81,false,stim,false,1,555.0,2,0,1,67495,task2,915282,false,false,1285,image-keyboard-response,32
true,12,2,1,2,true,d,false,true,0.0-2.0-0.44-0.403-3.403,0,0,0,68,false,stim,false,1,481.9999999998836,2,0,2,67495,task2,917271,false,false,1288,image-keyboard-response,33
true,12,2,1,2,true,d,false,true,0.0-2.0-0.44-0.404-3.404,0,0,0,68,false,stim,false,1,430.0,2,0,2,67495,task2,919208,false,false,1291,image-keyboard-response,34
true,12,0,1,0,true,q,false,true,0.0-2.0-0.45-0.405-3.405,0,0,0,81,false,stim,false,1,647.0,2,0,1,67495,task2,921363,false,false,1294,image-keyboard-response,35
true,12,2,1,2,true,d,false,true,0.0-2.0-0.45-0.406-3.406,0,0,0,68,false,stim,false,1,451.0,2,0,2,67495,task2,923319,false,false,1297,image-keyboard-response,36
true,13,2,2,1,false,z,true,false,0.0-2.0-0.45-0.407-3.407,1,0,0,68,true,stim,false,0,462.0,2,0,1,67495,task2,925291,false,false,1300,image-keyboard-response,1
true,13,2,2,0,false,q,false,false,0.0-2.0-0.45-0.408-3.408,1,0,0,68,false,stim,true,2,903.0,2,0,2,67495,task2,927708,false,false,1303,image-keyboard-response,2
true,13,0,2,2,false,d,true,false,0.0-2.0-0.45-0.409-3.409,1,0,0,81,false,stim,false,2,383.0,2,1,0,67495,task2,929596,false,false,1306,image-keyboard-response,3
true,13,0,2,1,false,z,false,false,0.0-2.0-0.45-0.410-3.410,1,0,0,81,false,stim,true,0,298.0,2,0,1,67495,task2,931403,false,false,1309,image-keyboard-response,4
true,13,2,2,0,false,q,false,false,0.0-2.0-0.45-0.411-3.411,1,0,0,68,false,stim,true,2,655.0,2,0,2,67495,task2,933565,false,false,1312,image-keyboard-response,5
true,13,0,2,2,false,d,true,false,0.0-2.0-0.45-0.412-3.412,1,0,0,81,false,stim,false,2,1057.0,2,1,0,67495,task2,936129,false,false,1315,image-keyboard-response,6
true,13,1,2,2,false,d,true,false,0.0-2.0-0.45-0.413-3.413,1,0,0,90,false,stim,false,2,460.0,2,1,0,67495,task2,938096,false,false,1318,image-keyboard-response,7
true,13,0,2,1,false,z,false,true,0.0-2.0-0.46-0.414-3.414,1,0,0,81,false,stim,true,0,759.0,2,0,1,67495,task2,940362,false,true,1321,image-keyboard-response,8
true,13,0,2,0,true,q,false,true,0.0-2.0-0.46-0.415-3.415,1,0,0,81,false,stim,false,2,923.0,2,0,2,67495,task2,942794,false,false,1324,image-keyboard-response,9
true,13,2,2,2,true,d,false,true,0.0-2.0-0.46-0.416-3.416,1,0,0,68,false,stim,false,2,364.0,2,1,0,67495,task2,944665,false,false,1327,image-keyboard-response,10
true,13,0,2,1,false,z,false,false,0.0-2.0-0.46-0.417-3.417,1,0,0,81,false,stim,true,0,453.0,2,0,1,67495,task2,946624,false,false,1330,image-keyboard-response,11
true,13,2,2,2,true,d,false,false,0.0-2.0-0.46-0.418-3.418,1,0,0,68,false,stim,false,2,635.0,2,1,0,67495,task2,948765,false,true,1333,image-keyboard-response,12
true,13,0,2,0,true,q,false,true,0.0-2.0-0.46-0.419-3.419,1,0,0,81,false,stim,false,2,1003.0,2,0,2,67495,task2,951273,false,false,1336,image-keyboard-response,13
true,13,0,2,1,false,z,false,false,0.0-2.0-0.46-0.420-3.420,1,0,0,81,false,stim,true,0,485.0000000001164,2,0,1,67495,task2,953266,false,false,1339,image-keyboard-response,14
true,13,2,2,2,true,d,false,true,0.0-2.0-0.46-0.421-3.421,1,0,0,68,false,stim,false,2,567.0,2,1,0,67495,task2,955340,false,false,1342,image-keyboard-response,15
true,13,0,2,0,true,q,false,true,0.0-2.0-0.46-0.422-3.422,1,0,0,81,false,stim,false,2,527.0,2,0,2,67495,task2,957374,false,false,1345,image-keyboard-response,16
true,13,1,2,1,true,z,false,true,0.0-2.0-0.47-0.423-3.423,1,0,0,90,false,stim,false,0,336.0,2,0,1,67495,task2,959216,false,false,1348,image-keyboard-response,17
true,13,1,2,1,true,z,false,true,0.0-2.0-0.47-0.424-3.424,1,0,0,90,false,stim,false,0,542.0,2,0,1,67495,task2,961264,false,false,1351,image-keyboard-response,18
true,13,1,2,1,true,z,false,true,0.0-2.0-0.47-0.425-3.425,1,0,0,90,false,stim,false,0,623.0,2,0,1,67495,task2,963393,false,false,1354,image-keyboard-response,19
true,13,2,2,2,true,d,false,true,0.0-2.0-0.47-0.426-3.426,1,0,0,68,false,stim,false,2,795.0,2,1,0,67495,task2,965698,false,false,1357,image-keyboard-response,20
true,13,2,2,2,true,d,false,true,0.0-2.0-0.47-0.427-3.427,1,0,0,68,false,stim,false,2,819.9999999998836,2,1,0,67495,task2,968022,false,false,1360,image-keyboard-response,21
true,13,0,2,0,true,q,false,true,0.0-2.0-0.47-0.428-3.428,1,0,0,81,false,stim,false,2,636.0000000001164,2,0,2,67495,task2,970164,false,false,1363,image-keyboard-response,22
true,13,0,2,0,true,q,false,true,0.0-2.0-0.47-0.429-3.429,1,0,0,81,false,stim,false,2,554.0,2,0,2,67495,task2,972225,false,false,1366,image-keyboard-response,23
true,13,2,2,2,true,d,false,true,0.0-2.0-0.47-0.430-3.430,1,0,0,68,false,stim,false,2,718.9999999998836,2,1,0,67495,task2,974451,false,false,1369,image-keyboard-response,24
true,13,0,2,0,true,q,false,true,0.0-2.0-0.47-0.431-3.431,1,0,0,81,false,stim,false,2,1154.0,2,0,2,67495,task2,977114,false,false,1372,image-keyboard-response,25
true,13,2,2,2,true,d,false,true,0.0-2.0-0.48-0.432-3.432,1,0,0,68,false,stim,false,2,751.0,2,1,0,67495,task2,979372,false,false,1375,image-keyboard-response,26
true,13,0,2,1,false,z,false,false,0.0-2.0-0.48-0.433-3.433,1,0,0,81,false,stim,true,0,630.0,2,0,1,67495,task2,981508,false,false,1378,image-keyboard-response,27
true,13,2,2,2,true,d,false,true,0.0-2.0-0.48-0.434-3.434,1,0,0,68,false,stim,false,2,516.0000000001164,2,0,0,67495,task2,983530,false,false,1381,image-keyboard-response,28
true,13,0,2,0,true,q,false,false,0.0-2.0-0.48-0.435-3.435,1,0,0,81,false,stim,false,2,482.0,2,1,2,67495,task2,985518,false,true,1384,image-keyboard-response,29
true,13,1,2,1,true,z,false,true,0.0-2.0-0.48-0.436-3.436,1,0,0,90,false,stim,false,0,290.0,2,0,1,67495,task2,987316,false,false,1387,image-keyboard-response,30
true,13,2,2,2,true,d,false,true,0.0-2.0-0.48-0.437-3.437,1,0,0,68,false,stim,false,2,366.0,2,0,0,67495,task2,989189,false,false,1390,image-keyboard-response,31
true,14,1,2,0,false,q,false,false,0.0-2.0-0.48-0.438-3.438,0,0,1,90,true,stim,true,1,501.0,2,0,1,67495,task2,991197,false,false,1393,image-keyboard-response,1
true,14,0,2,0,true,q,false,true,0.0-2.0-0.48-0.439-3.439,0,0,1,81,false,stim,false,0,318.9999999998836,2,1,2,67495,task2,993023,false,false,1396,image-keyboard-response,2
true,14,0,2,0,true,q,false,true,0.0-2.0-0.48-0.440-3.440,0,0,1,81,false,stim,false,0,489.0,2,1,2,67495,task2,995018,false,false,1399,image-keyboard-response,3
true,14,1,2,0,false,q,false,true,0.0-2.0-0.49-0.441-3.441,0,0,1,90,false,stim,true,1,564.0,2,0,1,67495,task2,997098,false,true,1402,image-keyboard-response,4
true,14,2,2,1,false,z,false,true,0.0-2.0-0.49-0.442-3.442,0,0,1,68,false,stim,true,2,501.0,2,0,0,67495,task2,999106,false,true,1405,image-keyboard-response,5
true,14,0,2,0,true,q,false,true,0.0-2.0-0.49-0.443-3.443,0,0,1,81,false,stim,false,0,747.0,2,1,2,67495,task2,1001359,false,false,1408,image-keyboard-response,6
true,14,1,2,0,false,q,false,false,0.0-2.0-0.49-0.444-3.444,0,0,1,90,false,stim,true,1,477.0,2,0,1,67495,task2,1003341,false,false,1411,image-keyboard-response,7
true,14,1,2,0,false,q,false,false,0.0-2.0-0.49-0.445-3.445,0,0,1,90,false,stim,true,1,515.0000000001164,2,0,1,67495,task2,1005362,false,false,1414,image-keyboard-response,8
true,14,0,2,0,true,q,false,true,0.0-2.0-0.49-0.446-3.446,0,0,1,81,false,stim,false,0,416.0,2,1,2,67495,task2,1007285,false,false,1417,image-keyboard-response,9
true,14,2,2,1,false,z,false,false,0.0-2.0-0.49-0.447-3.447,0,0,1,68,false,stim,true,2,495.0,2,0,0,67495,task2,1009287,false,false,1420,image-keyboard-response,10
true,14,0,2,0,true,q,false,true,0.0-2.0-0.49-0.448-3.448,0,0,1,81,false,stim,false,0,592.0,2,1,2,67495,task2,1011386,false,false,1423,image-keyboard-response,11
true,14,0,2,1,false,z,true,false,0.0-2.0-0.49-0.449-3.449,0,0,1,81,false,stim,false,2,347.0,2,0,0,67495,task2,1013240,false,false,1426,image-keyboard-response,12
true,14,1,2,1,true,z,false,true,0.0-2.0-0.50-0.450-3.450,0,0,1,90,false,stim,false,2,528.0,2,0,0,67495,task2,1015275,false,false,1429,image-keyboard-response,13
true,14,1,2,1,true,z,false,true,0.0-2.0-0.50-0.451-3.451,0,0,1,90,false,stim,false,2,523.0,2,0,0,67495,task2,1017307,false,false,1432,image-keyboard-response,14
true,14,0,2,0,true,q,false,true,0.0-2.0-0.50-0.452-3.452,0,0,1,81,false,stim,false,0,1405.0000000001164,2,1,2,67495,task2,1020219,false,false,1435,image-keyboard-response,15
true,14,1,2,1,true,z,false,true,0.0-2.0-0.50-0.453-3.453,0,0,1,90,false,stim,false,2,523.0,2,0,0,67495,task2,1022248,false,false,1438,image-keyboard-response,16
true,14,0,2,0,true,q,false,true,0.0-2.0-0.50-0.454-3.454,0,0,1,81,false,stim,false,0,573.0000000001164,2,1,2,67495,task2,1024327,false,false,1441,image-keyboard-response,17
true,14,0,2,0,true,q,false,false,0.0-2.0-0.50-0.455-3.455,0,0,1,81,false,stim,false,1,437.9999999998836,2,0,1,67495,task2,1026272,false,true,1444,image-keyboard-response,18
true,14,1,2,0,false,q,false,false,0.0-2.0-0.50-0.456-3.456,0,0,1,90,false,stim,true,1,565.0,2,0,1,67495,task2,1028346,false,false,1447,image-keyboard-response,19
true,14,0,2,0,true,q,false,true,0.0-2.0-0.50-0.457-3.457,0,0,1,81,false,stim,false,0,678.9999999998836,2,1,2,67495,task2,1030532,false,false,1450,image-keyboard-response,20
true,14,1,2,0,false,q,false,false,0.0-2.0-0.50-0.458-3.458,0,0,1,90,false,stim,true,1,345.0,2,0,1,67495,task2,1032384,false,false,1453,image-keyboard-response,21
true,14,2,2,0,false,q,true,true,0.0-2.0-0.51-0.459-3.459,0,0,1,68,false,stim,false,1,331.9999999998836,2,0,1,67495,task2,1034222,false,true,1456,image-keyboard-response,22
true,14,0,2,0,true,q,false,true,0.0-2.0-0.51-0.460-3.460,0,0,1,81,false,stim,false,0,478.99999999976717,2,1,2,67495,task2,1036206,false,false,1459,image-keyboard-response,23
true,14,0,2,0,true,q,false,true,0.0-2.0-0.51-0.461-3.461,0,0,1,81,false,stim,false,0,421.0000000001164,2,1,2,67495,task2,1038136,false,false,1462,image-keyboard-response,24
true,14,0,2,0,true,q,false,true,0.0-2.0-0.51-0.462-3.462,0,0,1,81,false,stim,false,0,645.9999999998836,2,1,2,67495,task2,1040288,false,false,1465,image-keyboard-response,25
true,14,1,2,1,true,z,false,true,0.0-2.0-0.51-0.463-3.463,0,0,1,90,false,stim,false,2,419.9999999998836,2,0,0,67495,task2,1042215,false,false,1468,image-keyboard-response,26
true,14,2,2,0,false,q,true,false,0.0-2.0-0.51-0.464-3.464,0,0,1,68,false,stim,false,1,409.99999999976717,2,0,1,67495,task2,1044130,false,false,1471,image-keyboard-response,27
true,14,2,2,0,false,q,true,false,0.0-2.0-0.51-0.465-3.465,0,0,1,68,false,stim,false,1,912.0,2,0,1,67495,task2,1046549,false,false,1474,image-keyboard-response,28
true,14,1,2,1,true,z,false,true,0.0-2.0-0.51-0.466-3.466,0,0,1,90,false,stim,false,2,1171.0,2,1,0,67495,task2,1049229,false,false,1477,image-keyboard-response,29
true,14,1,2,1,true,z,false,true,0.0-2.0-0.51-0.467-3.467,0,0,1,90,false,stim,false,2,682.0,2,1,0,67495,task2,1051418,false,false,1480,image-keyboard-response,30
true,14,0,2,0,true,q,false,true,0.0-2.0-0.52-0.468-3.468,0,0,1,81,false,stim,false,0,637.0,2,0,2,67495,task2,1053562,false,false,1483,image-keyboard-response,31
true,14,0,2,0,true,q,false,true,0.0-2.0-0.52-0.469-3.469,0,0,1,81,false,stim,false,0,727.0,2,0,2,67495,task2,1055795,false,false,1486,image-keyboard-response,32
true,15,2,2,2,true,d,false,true,0.0-2.0-0.52-0.470-3.470,1,0,0,68,true,stim,false,0,639.0,2,0,1,67495,task2,1057940,false,false,1489,image-keyboard-response,1
true,15,1,2,1,true,z,false,true,0.0-2.0-0.52-0.471-3.471,1,0,0,90,false,stim,false,1,553.9999999997672,2,1,0,67495,task2,1060002,false,false,1492,image-keyboard-response,2
true,15,2,2,2,true,d,false,false,0.0-2.0-0.52-0.472-3.472,1,0,0,68,false,stim,false,0,833.0,2,0,1,67495,task2,1062341,false,true,1495,image-keyboard-response,3
true,15,1,2,1,true,z,false,true,0.0-2.0-0.52-0.473-3.473,1,0,0,90,false,stim,false,1,899.0000000002328,2,1,0,67495,task2,1064747,false,false,1498,image-keyboard-response,4
true,15,0,2,2,false,d,false,false,0.0-2.0-0.52-0.474-3.474,1,0,0,81,false,stim,true,0,555.0,2,0,2,67495,task2,1066816,false,false,1501,image-keyboard-response,5
true,15,2,2,2,true,d,false,true,0.0-2.0-0.52-0.475-3.475,1,0,0,68,false,stim,false,0,762.0,2,0,1,67495,task2,1069088,false,false,1504,image-keyboard-response,6
true,15,1,2,1,true,z,false,true,0.0-2.0-0.52-0.476-3.476,1,0,0,90,false,stim,false,1,593.0,2,1,0,67495,task2,1071188,false,false,1507,image-keyboard-response,7
true,15,0,2,2,false,d,false,false,0.0-2.0-0.53-0.477-3.477,1,0,0,81,false,stim,true,0,364.0,2,0,2,67495,task2,1073058,false,false,1510,image-keyboard-response,8
true,15,1,2,1,true,z,false,true,0.0-2.0-0.53-0.478-3.478,1,0,0,90,false,stim,false,1,361.0,2,1,0,67495,task2,1074924,false,false,1513,image-keyboard-response,9
true,15,2,2,2,true,d,false,true,0.0-2.0-0.53-0.479-3.479,1,0,0,68,false,stim,false,0,541.9999999997672,2,0,1,67495,task2,1076972,false,false,1516,image-keyboard-response,10
true,15,1,2,1,true,z,false,true,0.0-2.0-0.53-0.480-3.480,1,0,0,90,false,stim,false,1,620.0,2,1,0,67495,task2,1079100,false,false,1519,image-keyboard-response,11
true,15,1,2,1,true,z,false,true,0.0-2.0-0.53-0.481-3.481,1,0,0,90,false,stim,false,1,633.0,2,1,0,67495,task2,1081239,false,false,1522,image-keyboard-response,12
true,15,1,2,2,false,d,true,false,0.0-2.0-0.53-0.482-3.482,1,0,0,90,false,stim,false,0,654.0,2,0,2,67495,task2,1083400,false,false,1525,image-keyboard-response,13
true,15,2,2,2,true,d,false,true,0.0-2.0-0.53-0.483-3.483,1,0,0,68,false,stim,false,0,661.0,2,0,2,67495,task2,1085568,false,false,1528,image-keyboard-response,14
true,15,2,2,2,true,d,false,true,0.0-2.0-0.53-0.484-3.484,1,0,0,68,false,stim,false,0,496.0,2,0,1,67495,task2,1087572,false,false,1531,image-keyboard-response,15
true,15,2,2,2,true,d,false,true,0.0-2.0-0.53-0.485-3.485,1,0,0,68,false,stim,false,0,780.0,2,0,1,67495,task2,1089859,false,false,1534,image-keyboard-response,16
true,15,1,2,1,true,z,false,true,0.0-2.0-0.54-0.486-3.486,1,0,0,90,false,stim,false,1,435.0,2,1,0,67495,task2,1091802,false,false,1537,image-keyboard-response,17
true,15,2,2,2,true,d,false,true,0.0-2.0-0.54-0.487-3.487,1,0,0,68,false,stim,false,0,561.0,2,0,1,67495,task2,1093869,false,false,1540,image-keyboard-response,18
true,15,2,2,2,true,d,false,true,0.0-2.0-0.54-0.488-3.488,1,0,0,68,false,stim,false,0,362.00000000023283,2,0,2,67495,task2,1095738,false,false,1543,image-keyboard-response,19
true,15,2,2,2,true,d,false,true,0.0-2.0-0.54-0.489-3.489,1,0,0,68,false,stim,false,0,548.0,2,0,1,67495,task2,1097793,false,false,1546,image-keyboard-response,20
true,15,2,2,2,true,d,false,true,0.0-2.0-0.54-0.490-3.490,1,0,0,68,false,stim,false,0,587.0,2,0,2,67495,task2,1099887,false,false,1549,image-keyboard-response,21
true,15,1,2,1,true,z,false,false,0.0-2.0-0.54-0.491-3.491,1,0,0,90,false,stim,false,1,428.0,2,1,0,67495,task2,1101822,false,true,1552,image-keyboard-response,22
true,15,2,2,2,true,d,false,false,0.0-2.0-0.54-0.492-3.492,1,0,0,68,false,stim,false,0,478.0,2,0,1,67495,task2,1103807,false,true,1555,image-keyboard-response,23
true,15,1,2,1,true,z,false,true,0.0-2.0-0.54-0.493-3.493,1,0,0,90,false,stim,false,1,583.0,2,1,0,67495,task2,1105899,false,false,1558,image-keyboard-response,24
true,15,2,2,2,true,d,false,false,0.0-2.0-0.54-0.494-3.494,1,0,0,68,false,stim,false,0,572.0,2,0,2,67495,task2,1107978,false,true,1561,image-keyboard-response,25
true,15,1,2,1,true,z,false,true,0.0-2.0-0.55-0.495-3.495,1,0,0,90,false,stim,false,1,523.0,2,1,0,67495,task2,1110009,false,false,1564,image-keyboard-response,26
true,15,2,2,2,true,d,false,true,0.0-2.0-0.55-0.496-3.496,1,0,0,68,false,stim,false,0,1046.0,2,1,1,67495,task2,1112560,false,false,1567,image-keyboard-response,27
true,15,1,2,1,true,z,false,false,0.0-2.0-0.55-0.497-3.497,1,0,0,90,false,stim,false,1,600.0,2,1,0,67495,task2,1114667,false,true,1570,image-keyboard-response,28
true,15,2,2,2,true,d,false,false,0.0-2.0-0.55-0.498-3.498,1,0,0,68,false,stim,false,0,455.0,2,1,2,67495,task2,1116630,false,true,1573,image-keyboard-response,29
true,15,1,2,2,false,d,true,false,0.0-2.0-0.55-0.499-3.499,1,0,0,90,false,stim,false,0,554.0,2,1,2,67495,task2,1118691,false,false,1576,image-keyboard-response,30
true,15,2,2,2,true,d,false,true,0.0-2.0-0.55-0.500-3.500,1,0,0,68,false,stim,false,0,846.0,2,1,1,67495,task2,1121043,false,false,1579,image-keyboard-response,31
true,16,0,0,2,false,d,true,true,0.0-2.0-0.55-0.501-3.501,1,1,1,81,true,stim,false,2,2279.999999999767,2,1,2,67495,task2,1208809,false,true,1666,image-keyboard-response,1
true,16,0,0,1,false,z,true,false,0.0-2.0-0.55-0.502-3.502,1,1,1,81,false,stim,false,1,906.0,2,1,0,67495,task2,1211222,false,false,1669,image-keyboard-response,2
true,16,0,0,2,false,d,true,false,0.0-2.0-0.55-0.503-3.503,1,1,1,81,false,stim,false,2,998.0,2,1,1,67495,task2,1213726,false,false,1672,image-keyboard-response,3
true,16,1,0,1,true,z,false,true,0.0-2.0-0.56-0.504-3.504,1,1,1,90,false,stim,false,1,661.0000000002328,2,1,0,67495,task2,1215895,false,false,1675,image-keyboard-response,4
true,16,0,0,2,false,d,true,false,0.0-2.0-0.56-0.505-3.505,1,1,1,81,false,stim,false,2,457.99999999976717,2,1,2,67495,task2,1217863,false,false,1678,image-keyboard-response,5
true,16,1,0,1,true,z,false,true,0.0-2.0-0.56-0.506-3.506,1,1,1,90,false,stim,false,1,425.0,2,1,0,67495,task2,1219796,false,false,1681,image-keyboard-response,6
true,16,1,0,1,true,z,false,true,0.0-2.0-0.56-0.507-3.507,1,1,1,90,false,stim,false,1,508.0,2,1,0,67495,task2,1221811,false,false,1684,image-keyboard-response,7
true,16,0,0,2,false,d,true,false,0.0-2.0-0.56-0.508-3.508,1,1,1,81,false,stim,false,2,562.0,2,1,2,67495,task2,1223879,false,false,1687,image-keyboard-response,8
true,16,0,0,2,false,d,true,false,0.0-2.0-0.56-0.509-3.509,1,1,1,81,false,stim,false,2,404.99999999976717,2,0,1,67495,task2,1225791,false,false,1690,image-keyboard-response,9
true,16,2,0,2,true,d,false,true,0.0-2.0-0.56-0.510-3.510,1,1,1,68,false,stim,false,2,739.0,2,0,1,67495,task2,1228037,false,false,1693,image-keyboard-response,10
true,16,2,0,2,true,d,false,true,0.0-2.0-0.56-0.511-3.511,1,1,1,68,false,stim,false,2,463.0,2,0,1,67495,task2,1230010,false,false,1696,image-keyboard-response,11
true,16,2,0,2,true,d,false,true,0.0-2.0-0.56-0.512-3.512,1,1,1,68,false,stim,false,2,335.0,2,1,2,67495,task2,1231851,false,false,1699,image-keyboard-response,12
true,16,2,0,2,true,d,false,false,0.0-2.0-0.57-0.513-3.513,1,1,1,68,false,stim,false,2,503.0,2,1,2,67495,task2,1233872,false,true,1702,image-keyboard-response,13
true,17,1,2,2,false,d,false,true,0.0-2.0-0.57-0.514-3.514,0,0,1,90,true,stim,true,1,559.0,2,0,0,67495,task2,1235938,false,true,1705,image-keyboard-response,1
true,17,1,2,2,false,d,false,false,0.0-2.0-0.57-0.515-3.515,0,0,1,90,false,stim,true,1,651.0,2,0,0,67495,task2,1238095,false,false,1708,image-keyboard-response,2
true,17,2,2,1,false,z,false,false,0.0-2.0-0.57-0.516-3.516,0,0,1,68,false,stim,true,2,370.00000000023283,2,0,1,67495,task2,1239972,false,false,1711,image-keyboard-response,3
true,17,0,2,1,false,z,true,false,0.0-2.0-0.57-0.517-3.517,0,0,1,81,false,stim,false,2,473.0,2,0,1,67495,task2,1241951,false,false,1714,image-keyboard-response,4
true,17,2,2,2,true,d,false,true,0.0-2.0-0.57-0.518-3.518,0,0,1,68,false,stim,false,2,823.0,2,1,2,67495,task2,1244281,false,false,1717,image-keyboard-response,5
true,17,2,2,2,true,d,false,false,0.0-2.0-0.57-0.519-3.519,0,0,1,68,false,stim,false,2,529.0,2,1,2,67495,task2,1246318,false,true,1720,image-keyboard-response,6
true,17,1,2,1,true,z,false,true,0.0-2.0-0.57-0.520-3.520,0,0,1,90,false,stim,false,2,840.0,2,0,1,67495,task2,1248665,false,false,1723,image-keyboard-response,7
true,17,1,2,2,false,d,false,false,0.0-2.0-0.57-0.521-3.521,0,0,1,90,false,stim,true,1,324.0,2,0,0,67495,task2,1250496,false,false,1726,image-keyboard-response,8
true,17,1,2,1,true,z,false,true,0.0-2.0-0.58-0.522-3.522,0,0,1,90,false,stim,false,2,328.0,2,0,1,67495,task2,1252332,false,false,1729,image-keyboard-response,9
true,17,1,2,1,true,z,false,true,0.0-2.0-0.58-0.523-3.523,0,0,1,90,false,stim,false,2,491.0,2,0,1,67495,task2,1254331,false,false,1732,image-keyboard-response,10
true,17,2,2,2,true,d,false,true,0.0-2.0-0.58-0.524-3.524,0,0,1,68,false,stim,false,1,393.0,2,0,0,67495,task2,1256231,false,false,1735,image-keyboard-response,11
true,17,0,2,2,false,d,true,false,0.0-2.0-0.58-0.525-3.525,0,0,1,81,false,stim,false,2,420.0,2,1,2,67495,task2,1258157,false,false,1738,image-keyboard-response,12
true,17,2,2,2,true,d,false,true,0.0-2.0-0.58-0.526-3.526,0,0,1,68,false,stim,false,1,1082.0,2,0,0,67495,task2,1260746,false,false,1741,image-keyboard-response,13
true,17,1,2,2,false,d,false,false,0.0-2.0-0.58-0.527-3.527,0,0,1,90,false,stim,true,1,443.0,2,0,0,67495,task2,1262696,false,false,1744,image-keyboard-response,14
true,17,2,2,2,true,d,false,true,0.0-2.0-0.58-0.528-3.528,0,0,1,68,false,stim,false,2,570.0,2,1,2,67495,task2,1264773,false,false,1747,image-keyboard-response,15
true,17,2,2,2,true,d,false,true,0.0-2.0-0.58-0.529-3.529,0,0,1,68,false,stim,false,2,433.0,2,1,2,67495,task2,1266715,false,false,1750,image-keyboard-response,16
true,17,1,2,1,true,z,false,true,0.0-2.0-0.58-0.530-3.530,0,0,1,90,false,stim,false,2,414.0,2,0,1,67495,task2,1268635,false,false,1753,image-keyboard-response,17
true,17,1,2,1,true,z,false,true,0.0-2.0-0.59-0.531-3.531,0,0,1,90,false,stim,false,2,381.0,2,0,1,67495,task2,1270523,false,false,1756,image-keyboard-response,18
true,17,2,2,2,true,d,false,true,0.0-2.0-0.59-0.532-3.532,0,0,1,68,false,stim,false,1,1028.0,2,0,0,67495,task2,1273059,false,false,1759,image-keyboard-response,19
true,17,1,2,1,true,z,false,true,0.0-2.0-0.59-0.533-3.533,0,0,1,90,false,stim,false,2,1686.0,2,0,1,67495,task2,1276253,false,false,1762,image-keyboard-response,20
true,17,2,2,2,true,d,false,true,0.0-2.0-0.59-0.534-3.534,0,0,1,68,false,stim,false,2,468.0,2,1,2,67495,task2,1278228,false,false,1765,image-keyboard-response,21
true,17,2,2,2,true,d,false,true,0.0-2.0-0.59-0.535-3.535,0,0,1,68,false,stim,false,1,403.0,2,0,0,67495,task2,1280138,false,false,1768,image-keyboard-response,22
true,17,2,2,2,true,d,false,true,0.0-2.0-0.59-0.536-3.536,0,0,1,68,false,stim,false,2,516.0,2,1,2,67495,task2,1282161,false,false,1771,image-keyboard-response,23
true,17,2,2,2,true,d,false,true,0.0-2.0-0.59-0.537-3.537,0,0,1,68,false,stim,false,1,410.0,2,0,0,67495,task2,1284078,false,false,1774,image-keyboard-response,24
true,17,2,2,2,true,d,false,true,0.0-2.0-0.59-0.538-3.538,0,0,1,68,false,stim,false,2,494.0,2,1,2,67495,task2,1286081,false,false,1777,image-keyboard-response,25
true,17,1,2,1,true,z,false,true,0.0-2.0-0.59-0.539-3.539,0,0,1,90,false,stim,false,2,522.0,2,0,1,67495,task2,1288109,false,false,1780,image-keyboard-response,26
true,17,2,2,2,true,d,false,true,0.0-2.0-0.60-0.540-3.540,0,0,1,68,false,stim,false,2,384.0,2,1,2,67495,task2,1290001,false,false,1783,image-keyboard-response,27
true,17,1,2,1,true,z,false,false,0.0-2.0-0.60-0.541-3.541,0,0,1,90,false,stim,false,2,497.0,2,0,1,67495,task2,1292005,false,true,1786,image-keyboard-response,28
true,17,2,2,2,true,d,false,true,0.0-2.0-0.60-0.542-3.542,0,0,1,68,false,stim,false,1,610.0,2,0,0,67495,task2,1294121,false,false,1789,image-keyboard-response,29
true,17,2,2,2,true,d,false,true,0.0-2.0-0.60-0.543-3.543,0,0,1,68,false,stim,false,1,424.0,2,0,0,67495,task2,1296054,false,false,1792,image-keyboard-response,30
true,17,1,2,1,true,z,false,false,0.0-2.0-0.60-0.544-3.544,0,0,1,90,false,stim,false,2,341.99999999976717,2,0,1,67495,task2,1297903,false,true,1795,image-keyboard-response,31
true,17,2,2,2,true,d,false,true,0.0-2.0-0.60-0.545-3.545,0,0,1,68,false,stim,false,2,548.0,2,0,2,67495,task2,1299958,false,false,1798,image-keyboard-response,32
true,17,0,2,1,false,z,true,false,0.0-2.0-0.60-0.546-3.546,0,0,1,81,false,stim,false,2,358.0,2,0,1,67495,task2,1301834,false,false,1801,image-keyboard-response,33
true,17,2,2,2,true,d,false,true,0.0-2.0-0.60-0.547-3.547,0,0,1,68,false,stim,false,2,574.0,2,0,2,67495,task2,1303917,false,false,1804,image-keyboard-response,34
true,18,2,1,0,false,q,false,false,0.0-2.0-0.60-0.548-3.548,0,0,0,68,true,stim,true,2,341.00000000023283,2,0,0,67495,task2,1305763,false,false,1807,image-keyboard-response,1
true,18,2,1,2,true,d,false,false,0.0-2.0-0.61-0.549-3.549,0,0,0,68,false,stim,false,1,1015.0,2,0,1,67495,task2,1308286,false,true,1810,image-keyboard-response,2
true,18,2,1,0,false,q,false,false,0.0-2.0-0.61-0.550-3.550,0,0,0,68,false,stim,true,2,846.0,2,0,0,67495,task2,1310640,false,false,1813,image-keyboard-response,3
true,18,1,1,0,false,q,true,false,0.0-2.0-0.61-0.551-3.551,0,0,0,90,false,stim,false,2,625.0,2,0,0,67495,task2,1312773,false,false,1816,image-keyboard-response,4
true,18,1,1,2,false,d,false,true,0.0-2.0-0.61-0.552-3.552,0,0,0,90,false,stim,true,1,706.0000000002328,2,0,1,67495,task2,1314984,false,true,1819,image-keyboard-response,5
true,18,2,1,1,false,z,false,false,0.0-2.0-0.61-0.553-3.553,0,0,0,68,false,stim,true,2,743.0000000002328,2,0,2,67495,task2,1317234,false,false,1822,image-keyboard-response,6
true,18,0,1,1,false,z,true,false,0.0-2.0-0.61-0.554-3.554,0,0,0,81,false,stim,false,2,548.0,2,0,2,67495,task2,1319289,false,false,1825,image-keyboard-response,7
true,18,1,1,2,false,d,false,false,0.0-2.0-0.61-0.555-3.555,0,0,0,90,false,stim,true,1,819.0,2,0,1,67495,task2,1321617,false,false,1828,image-keyboard-response,8
true,18,1,1,0,false,q,true,false,0.0-2.0-0.61-0.556-3.556,0,0,0,90,false,stim,false,2,1296.0,2,0,0,67495,task2,1324418,false,false,1831,image-keyboard-response,9
true,18,0,1,1,false,z,true,false,0.0-2.0-0.61-0.557-3.557,0,0,0,81,false,stim,false,2,817.0,2,0,2,67495,task2,1326742,false,false,1834,image-keyboard-response,10
true,18,1,1,1,true,z,false,true,0.0-2.0-0.62-0.558-3.558,0,0,0,90,false,stim,false,2,429.0,2,0,2,67495,task2,1328679,false,false,1837,image-keyboard-response,11
true,18,2,1,0,false,q,false,false,0.0-2.0-0.62-0.559-3.559,0,0,0,68,false,stim,true,2,355.0,2,0,0,67495,task2,1330543,false,false,1840,image-keyboard-response,12
true,18,1,1,2,false,d,false,false,0.0-2.0-0.62-0.560-3.560,0,0,0,90,false,stim,true,1,783.0,2,0,1,67495,task2,1332833,false,false,1843,image-keyboard-response,13
true,18,1,1,1,true,z,false,true,0.0-2.0-0.62-0.561-3.561,0,0,0,90,false,stim,false,2,781.9999999997672,2,0,2,67495,task2,1335121,false,false,1846,image-keyboard-response,14
true,18,0,1,0,true,q,false,true,0.0-2.0-0.62-0.562-3.562,0,0,0,81,false,stim,false,2,468.0,2,0,0,67495,task2,1337096,false,false,1849,image-keyboard-response,15
true,18,1,1,1,true,z,false,true,0.0-2.0-0.62-0.563-3.563,0,0,0,90,false,stim,false,2,847.0,2,0,2,67495,task2,1339450,false,false,1852,image-keyboard-response,16
true,18,0,1,0,true,q,false,true,0.0-2.0-0.62-0.564-3.564,0,0,0,81,false,stim,false,2,642.0000000002328,2,0,0,67495,task2,1341600,false,false,1855,image-keyboard-response,17
true,18,2,1,2,true,d,false,true,0.0-2.0-0.62-0.565-3.565,0,0,0,68,false,stim,false,1,568.0,2,0,1,67495,task2,1343674,false,false,1858,image-keyboard-response,18
true,18,2,1,2,true,d,false,false,0.0-2.0-0.62-0.566-3.566,0,0,0,68,false,stim,false,1,550.0,2,0,1,67495,task2,1345730,false,true,1861,image-keyboard-response,19
true,18,1,1,1,true,z,false,false,0.0-2.0-0.63-0.567-3.567,0,0,0,90,false,stim,false,2,699.0,2,0,2,67495,task2,1347936,false,true,1864,image-keyboard-response,20
true,18,0,1,0,true,q,false,true,0.0-2.0-0.63-0.568-3.568,0,0,0,81,false,stim,false,2,523.0,2,0,0,67495,task2,1349968,false,false,1867,image-keyboard-response,21
true,18,0,1,0,true,q,false,true,0.0-2.0-0.63-0.569-3.569,0,0,0,81,false,stim,false,2,540.0000000002328,2,0,0,67495,task2,1352014,false,false,1870,image-keyboard-response,22
true,18,2,1,2,true,d,false,false,0.0-2.0-0.63-0.570-3.570,0,0,0,68,false,stim,false,1,842.0,2,0,1,67495,task2,1354362,false,true,1873,image-keyboard-response,23
true,18,1,1,1,true,z,false,true,0.0-2.0-0.63-0.571-3.571,0,0,0,90,false,stim,false,2,948.9999999997672,2,0,2,67495,task2,1356818,false,false,1876,image-keyboard-response,24
true,18,1,1,1,true,z,false,true,0.0-2.0-0.63-0.572-3.572,0,0,0,90,false,stim,false,2,528.0,2,0,2,67495,task2,1358853,false,false,1879,image-keyboard-response,25
true,18,1,1,2,false,d,false,false,0.0-2.0-0.63-0.573-3.573,0,0,0,90,false,stim,true,1,396.0,2,0,1,67495,task2,1360757,false,false,1882,image-keyboard-response,26
true,18,0,1,2,false,d,true,false,0.0-2.0-0.63-0.574-3.574,0,0,0,81,false,stim,false,1,539.0,2,0,1,67495,task2,1362802,false,false,1885,image-keyboard-response,27
true,18,0,1,0,true,q,false,true,0.0-2.0-0.63-0.575-3.575,0,0,0,81,false,stim,false,2,619.0000000002328,2,0,0,67495,task2,1364928,false,false,1888,image-keyboard-response,28
true,18,1,1,1,true,z,false,true,0.0-2.0-0.64-0.576-3.576,0,0,0,90,false,stim,false,2,489.0,2,0,2,67495,task2,1366925,false,false,1891,image-keyboard-response,29
true,18,2,1,2,true,d,false,false,0.0-2.0-0.64-0.577-3.577,0,0,0,68,false,stim,false,1,470.0,2,0,1,67495,task2,1368902,false,true,1894,image-keyboard-response,30
true,18,1,1,1,true,z,false,true,0.0-2.0-0.64-0.578-3.578,0,0,0,90,false,stim,false,2,796.0,2,0,2,67495,task2,1371208,false,false,1897,image-keyboard-response,31
true,18,0,1,0,true,q,false,true,0.0-2.0-0.64-0.579-3.579,0,0,0,81,false,stim,false,2,402.0,2,0,0,67495,task2,1373116,false,false,1900,image-keyboard-response,32
true,18,1,1,1,true,z,false,true,0.0-2.0-0.64-0.580-3.580,0,0,0,90,false,stim,false,2,523.0,2,0,2,67495,task2,1375157,false,false,1903,image-keyboard-response,33
true,18,1,1,2,false,d,false,false,0.0-2.0-0.64-0.581-3.581,0,0,0,90,false,stim,true,1,357.0,2,0,1,67495,task2,1377023,false,false,1906,image-keyboard-response,34
true,18,0,1,0,true,q,false,true,0.0-2.0-0.64-0.582-3.582,0,0,0,81,false,stim,false,2,671.0,2,1,0,67495,task2,1379201,false,false,1909,image-keyboard-response,35
true,18,0,1,2,false,d,true,false,0.0-2.0-0.64-0.583-3.583,0,0,0,81,false,stim,false,1,609.9999999997672,2,0,1,67495,task2,1381317,false,false,1912,image-keyboard-response,36
true,18,0,1,0,true,q,false,true,0.0-2.0-0.64-0.584-3.584,0,0,0,81,false,stim,false,2,754.0,2,1,0,67495,task2,1383578,false,false,1915,image-keyboard-response,37
true,18,1,1,1,true,z,false,true,0.0-2.0-0.65-0.585-3.585,0,0,0,90,false,stim,false,2,526.0,2,0,2,67495,task2,1385613,false,false,1918,image-keyboard-response,38
true,19,0,2,0,true,q,false,true,0.0-2.0-0.65-0.586-3.586,1,0,0,81,true,stim,false,0,598.0,2,1,0,67495,task2,1387718,false,false,1921,image-keyboard-response,1
true,19,0,2,0,true,q,false,true,0.0-2.0-0.65-0.587-3.587,1,0,0,81,false,stim,false,0,570.0,2,1,0,67495,task2,1389794,false,false,1924,image-keyboard-response,2
true,19,1,2,2,false,d,false,false,0.0-2.0-0.65-0.588-3.588,1,0,0,90,false,stim,true,1,526.0,2,0,2,67495,task2,1391827,false,false,1927,image-keyboard-response,3
true,19,2,2,1,false,z,false,false,0.0-2.0-0.65-0.589-3.589,1,0,0,68,false,stim,true,2,620.0,2,0,1,67495,task2,1393955,false,false,1930,image-keyboard-response,4
true,19,0,2,0,true,q,false,true,0.0-2.0-0.65-0.590-3.590,1,0,0,81,false,stim,false,0,582.0,2,1,0,67495,task2,1396044,false,false,1933,image-keyboard-response,5
true,19,1,2,2,false,d,false,false,0.0-2.0-0.65-0.591-3.591,1,0,0,90,false,stim,true,1,397.0,2,0,2,67495,task2,1397948,false,false,1936,image-keyboard-response,6
true,19,2,2,1,false,z,false,false,0.0-2.0-0.65-0.592-3.592,1,0,0,68,false,stim,true,2,568.0,2,0,1,67495,task2,1400023,false,false,1939,image-keyboard-response,7
true,19,2,2,1,false,z,false,false,0.0-2.0-0.65-0.593-3.593,1,0,0,68,false,stim,true,2,1430.0,2,0,1,67495,task2,1402959,false,false,1942,image-keyboard-response,8
true,19,1,2,1,true,z,false,true,0.0-2.0-0.66-0.594-3.594,1,0,0,90,false,stim,false,2,453.0,2,0,1,67495,task2,1404921,false,false,1945,image-keyboard-response,9
true,19,0,2,2,false,d,true,true,0.0-2.0-0.66-0.595-3.595,1,0,0,81,false,stim,false,1,1434.0,2,0,2,67495,task2,1407861,false,true,1948,image-keyboard-response,10
true,19,0,2,0,true,q,false,true,0.0-2.0-0.66-0.596-3.596,1,0,0,81,false,stim,false,0,642.0,2,1,0,67495,task2,1410010,false,false,1951,image-keyboard-response,11
true,19,1,2,1,true,z,false,true,0.0-2.0-0.66-0.597-3.597,1,0,0,90,false,stim,false,2,314.99999999976717,2,0,1,67495,task2,1411831,false,false,1954,image-keyboard-response,12
true,19,0,2,2,false,d,true,false,0.0-2.0-0.66-0.598-3.598,1,0,0,81,false,stim,false,1,575.0,2,0,2,67495,task2,1413913,false,false,1957,image-keyboard-response,13
true,19,0,2,0,true,q,false,true,0.0-2.0-0.66-0.599-3.599,1,0,0,81,false,stim,false,0,763.0,2,1,0,67495,task2,1416183,false,false,1960,image-keyboard-response,14
true,19,1,2,2,false,d,false,false,0.0-2.0-0.66-0.600-3.600,1,0,0,90,false,stim,true,1,372.00000000023283,2,0,2,67495,task2,1418064,false,false,1963,image-keyboard-response,15
true,19,0,2,0,true,q,false,true,0.0-2.0-0.66-0.601-3.601,1,0,0,81,false,stim,false,0,578.0,2,1,0,67495,task2,1420150,false,false,1966,image-keyboard-response,16
true,19,1,2,1,true,z,false,true,0.0-2.0-0.66-0.602-3.602,1,0,0,90,false,stim,false,2,717.0,2,0,1,67495,task2,1422374,false,false,1969,image-keyboard-response,17
true,19,1,2,1,true,z,false,true,0.0-2.0-0.67-0.603-3.603,1,0,0,90,false,stim,false,2,487.0,2,0,1,67495,task2,1424369,false,false,1972,image-keyboard-response,18
true,19,0,2,2,false,d,true,false,0.0-2.0-0.67-0.604-3.604,1,0,0,81,false,stim,false,1,842.0,2,0,2,67495,task2,1426721,false,false,1975,image-keyboard-response,19
true,19,1,2,2,false,d,false,false,0.0-2.0-0.67-0.605-3.605,1,0,0,90,false,stim,true,1,620.9999999997672,2,0,2,67495,task2,1428848,false,false,1978,image-keyboard-response,20
true,19,1,2,1,true,z,false,true,0.0-2.0-0.67-0.606-3.606,1,0,0,90,false,stim,false,2,599.0,2,0,1,67495,task2,1430954,false,false,1981,image-keyboard-response,21
true,19,0,2,0,true,q,false,true,0.0-2.0-0.67-0.607-3.607,1,0,0,81,false,stim,false,0,649.0,2,1,0,67495,task2,1433110,false,false,1984,image-keyboard-response,22
true,19,0,2,0,true,q,false,true,0.0-2.0-0.67-0.608-3.608,1,0,0,81,false,stim,false,0,951.0,2,1,0,67495,task2,1435567,false,false,1987,image-keyboard-response,23
true,19,0,2,0,true,q,false,true,0.0-2.0-0.67-0.609-3.609,1,0,0,81,false,stim,false,0,589.0,2,1,0,67495,task2,1437666,false,false,1990,image-keyboard-response,24
true,19,2,2,2,true,d,false,true,0.0-2.0-0.67-0.610-3.610,1,0,0,68,false,stim,false,1,601.0,2,0,2,67495,task2,1439775,false,false,1993,image-keyboard-response,25
true,19,1,2,1,true,z,false,true,0.0-2.0-0.67-0.611-3.611,1,0,0,90,false,stim,false,2,486.00000000023283,2,0,1,67495,task2,1441767,false,false,1996,image-keyboard-response,26
true,19,0,2,0,true,q,false,true,0.0-2.0-0.68-0.612-3.612,1,0,0,81,false,stim,false,0,444.0,2,1,0,67495,task2,1443719,false,false,1999,image-keyboard-response,27
true,19,1,2,2,false,d,false,true,0.0-2.0-0.68-0.613-3.613,1,0,0,90,false,stim,true,1,393.0,2,0,2,67495,task2,1445633,false,true,2002,image-keyboard-response,28
true,19,1,2,1,true,z,false,true,0.0-2.0-0.68-0.614-3.614,1,0,0,90,false,stim,false,2,586.0,2,0,1,67495,task2,1447726,false,false,2005,image-keyboard-response,29
true,19,0,2,0,true,q,false,false,0.0-2.0-0.68-0.615-3.615,1,0,0,81,false,stim,false,0,590.0,2,0,0,67495,task2,1449823,false,true,2008,image-keyboard-response,30
true,19,0,2,0,true,q,false,true,0.0-2.0-0.68-0.616-3.616,1,0,0,81,false,stim,false,0,428.0,2,0,0,67495,task2,1451759,false,false,2011,image-keyboard-response,31
