answered,blockNum,choice,condition,corResp,correct,correct_response,explo,fb,internal_node_id,isStable_1,isStable_2,isStable_3,key_press,newBlock,part,persev,persevResp,rt,sessNum,stableAS,stimulus,subject,task,time_elapsed,training,trap,trial_index,trial_type,trialsInBlock
true,1,1,0,0,false,q,true,false,0.0-2.0-0.0-0.0-3.0,0,0,0,90,true,stim,false,-1,1027.0,0,0,2,67495,task1,167017,false,false,118,image-keyboard-response,1
true,1,1,0,1,true,z,false,true,0.0-2.0-0.0-0.1-3.1,0,0,0,90,false,stim,false,-1,636.0,0,0,0,67495,task1,169159,false,false,121,image-keyboard-response,2
true,1,1,0,0,false,q,true,false,0.0-2.0-0.0-0.2-3.2,0,0,0,90,false,stim,false,-1,1400.0,0,0,1,67495,task1,172063,false,false,124,image-keyboard-response,3
true,1,0,0,0,true,q,false,true,0.0-2.0-0.0-0.3-3.3,0,0,0,81,false,stim,false,-1,1536.0,0,0,1,67495,task1,175105,false,false,127,image-keyboard-response,4
true,1,1,0,1,true,z,false,true,0.0-2.0-0.0-0.4-3.4,0,0,0,90,false,stim,false,-1,570.9999999999709,0,0,0,67495,task1,177181,false,false,130,image-keyboard-response,5
true,1,0,0,0,true,q,false,true,0.0-2.0-0.0-0.5-3.5,0,0,0,81,false,stim,false,-1,1472.0,0,0,2,67495,task1,180159,false,false,133,image-keyboard-response,6
true,1,0,0,0,true,q,false,false,0.0-2.0-0.0-0.6-3.6,0,0,0,81,false,stim,false,-1,1007.0,0,0,1,67495,task1,182672,false,true,136,image-keyboard-response,7
true,1,1,0,1,true,z,false,true,0.0-2.0-0.0-0.7-3.7,0,0,0,90,false,stim,false,-1,731.0,0,0,0,67495,task1,184909,false,false,139,image-keyboard-response,8
true,1,0,0,0,true,q,false,true,0.0-2.0-0.0-0.8-3.8,0,0,0,81,false,stim,false,-1,550.0,0,0,2,67495,task1,186964,false,false,142,image-keyboard-response,9
true,1,0,0,0,true,q,false,true,0.0-2.0-0.1-0.9-3.9,0,0,0,81,false,stim,false,-1,1107.0,0,0,2,67495,task1,189576,false,false,145,image-keyboard-response,10
true,1,0,0,0,true,q,false,true,0.0-2.0-0.1-0.10-3.10,0,0,0,81,false,stim,false,-1,507.9999999999709,0,0,2,67495,task1,191588,false,false,148,image-keyboard-response,11
true,1,0,0,0,true,q,false,true,0.0-2.0-0.1-0.11-3.11,0,0,0,81,false,stim,false,-1,424.0,0,0,2,67495,task1,193518,false,false,151,image-keyboard-response,12
true,1,1,0,1,true,z,false,true,0.0-2.0-0.1-0.12-3.12,0,0,0,90,false,stim,false,-1,413.9999999999709,0,0,0,67495,task1,195435,false,false,154,image-keyboard-response,13
true,1,2,0,0,false,q,true,false,0.0-2.0-0.1-0.13-3.13,0,0,0,68,false,stim,false,-1,590.0,0,0,1,67495,task1,197534,false,false,157,image-keyboard-response,14
true,1,0,0,0,true,q,false,true,0.0-2.0-0.1-0.14-3.14,0,0,0,81,false,stim,false,-1,598.0,0,0,1,67495,task1,199638,false,false,160,image-keyboard-response,15
true,1,0,0,0,true,q,false,true,0.0-2.0-0.1-0.15-3.15,0,0,0,81,false,stim,false,-1,484.0,0,0,1,67495,task1,201628,false,false,163,image-keyboard-response,16
true,1,0,0,1,false,z,true,false,0.0-2.0-0.1-0.16-3.16,0,0,0,81,false,stim,false,-1,1612.0,0,0,0,67495,task1,204746,false,false,166,image-keyboard-response,17
true,1,1,0,1,true,z,false,true,0.0-2.0-0.1-0.17-3.17,0,0,0,90,false,stim,false,-1,551.0,0,0,0,67495,task1,206803,false,false,169,image-keyboard-response,18
true,1,0,0,0,true,q,false,true,0.0-2.0-0.2-0.18-3.18,0,0,0,81,false,stim,false,-1,846.0,0,0,2,67495,task1,209155,false,false,172,image-keyboard-response,19
true,1,0,0,0,true,q,false,true,0.0-2.0-0.2-0.19-3.19,0,0,0,81,false,stim,false,-1,543.0,0,0,2,67495,task1,211203,false,false,175,image-keyboard-response,20
true,1,1,0,1,true,z,false,true,0.0-2.0-0.2-0.20-3.20,0,0,0,90,false,stim,false,-1,559.0,0,0,0,67495,task1,213267,false,false,178,image-keyboard-response,21
true,1,1,0,1,true,z,false,true,0.0-2.0-0.2-0.21-3.21,0,0,0,90,false,stim,false,-1,579.9999999999709,0,0,0,67495,task1,215353,false,false,181,image-keyboard-response,22
true,1,0,0,0,true,q,false,true,0.0-2.0-0.2-0.22-3.22,0,0,0,81,false,stim,false,-1,1387.0,0,0,2,67495,task1,218246,false,false,184,image-keyboard-response,23
true,1,0,0,0,true,q,false,true,0.0-2.0-0.2-0.23-3.23,0,0,0,81,false,stim,false,-1,522.0000000000291,0,0,1,67495,task1,220273,false,false,187,image-keyboard-response,24
true,1,0,0,0,true,q,false,true,0.0-2.0-0.2-0.24-3.24,0,0,0,81,false,stim,false,-1,494.0,0,0,1,67495,task1,222273,false,false,190,image-keyboard-response,25
true,1,1,0,1,true,z,false,true,0.0-2.0-0.2-0.25-3.25,0,0,0,90,false,stim,false,-1,430.0,0,0,0,67495,task1,224208,false,false,193,image-keyboard-response,26
true,2,0,1,1,false,z,false,false,0.0-2.0-0.2-0.26-3.26,0,0,0,81,true,stim,true,0,1068.0,0,0,1,67495,task1,226780,false,false,196,image-keyboard-response,1
true,2,1,1,1,true,z,false,true,0.0-2.0-0.3-0.27-3.27,0,0,0,90,false,stim,false,0,1491.0,0,0,1,67495,task1,229777,false,false,199,image-keyboard-response,2
true,2,1,1,1,true,z,false,true,0.0-2.0-0.3-0.28-3.28,0,0,0,90,false,stim,false,0,549.0,0,0,2,67495,task1,231833,false,false,202,image-keyboard-response,3
true,2,1,1,0,false,q,false,false,0.0-2.0-0.3-0.29-3.29,0,0,0,90,false,stim,true,1,409.0,0,0,0,67495,task1,233748,false,false,205,image-keyboard-response,4
true,2,1,1,1,true,z,false,true,0.0-2.0-0.3-0.30-3.30,0,0,0,90,false,stim,false,0,500.0,0,0,1,67495,task1,235754,false,false,208,image-keyboard-response,5
true,2,0,1,0,true,q,false,true,0.0-2.0-0.3-0.31-3.31,0,0,0,81,false,stim,false,1,594.0,0,0,0,67495,task1,237854,false,false,211,image-keyboard-response,6
true,2,0,1,0,true,q,false,true,0.0-2.0-0.3-0.32-3.32,0,0,0,81,false,stim,false,1,785.0,0,0,0,67495,task1,240145,false,false,214,image-keyboard-response,7
true,2,1,1,1,true,z,false,true,0.0-2.0-0.3-0.33-3.33,0,0,0,90,false,stim,false,0,467.0000000000291,0,0,2,67495,task1,242118,false,false,217,image-keyboard-response,8
true,2,1,1,1,true,z,false,true,0.0-2.0-0.3-0.34-3.34,0,0,0,90,false,stim,false,0,423.9999999999709,0,0,2,67495,task1,244048,false,false,220,image-keyboard-response,9
true,2,0,1,1,false,z,false,false,0.0-2.0-0.3-0.35-3.35,0,0,0,81,false,stim,true,0,798.9999999999709,0,0,1,67495,task1,246352,false,false,223,image-keyboard-response,10
true,2,1,1,1,true,z,false,true,0.0-2.0-0.4-0.36-3.36,0,0,0,90,false,stim,false,0,514.0,0,0,1,67495,task1,248372,false,false,226,image-keyboard-response,11
true,2,1,1,1,true,z,false,true,0.0-2.0-0.4-0.37-3.37,0,0,0,90,false,stim,false,0,508.0,0,0,2,67495,task1,250385,false,false,229,image-keyboard-response,12
true,2,0,1,0,true,q,false,true,0.0-2.0-0.4-0.38-3.38,0,0,0,81,false,stim,false,1,511.0,0,0,0,67495,task1,252402,false,false,232,image-keyboard-response,13
true,2,1,1,0,false,q,false,false,0.0-2.0-0.4-0.39-3.39,0,0,0,90,false,stim,true,1,410.0,0,0,0,67495,task1,254318,false,false,235,image-keyboard-response,14
true,2,1,1,1,true,z,false,true,0.0-2.0-0.4-0.40-3.40,0,0,0,90,false,stim,false,0,1090.9999999999418,0,0,1,67495,task1,256915,false,false,238,image-keyboard-response,15
true,2,0,1,0,true,q,false,true,0.0-2.0-0.4-0.41-3.41,0,0,0,81,false,stim,false,1,587.0,0,0,0,67495,task1,259008,false,false,241,image-keyboard-response,16
true,2,1,1,1,true,z,false,true,0.0-2.0-0.4-0.42-3.42,0,0,0,90,false,stim,false,0,480.0,0,0,2,67495,task1,260994,false,false,244,image-keyboard-response,17
true,2,1,1,1,true,z,false,true,0.0-2.0-0.4-0.43-3.43,0,0,0,90,false,stim,false,0,458.0,0,0,2,67495,task1,262958,false,false,247,image-keyboard-response,18
true,2,0,1,1,false,z,false,true,0.0-2.0-0.4-0.44-3.44,0,0,0,81,false,stim,true,0,1483.0,0,0,1,67495,task1,265947,false,true,250,image-keyboard-response,19
true,2,1,1,1,true,z,false,true,0.0-2.0-0.5-0.45-3.45,0,0,0,90,false,stim,false,0,1007.0,0,0,2,67495,task1,268460,false,false,253,image-keyboard-response,20
true,2,1,1,1,true,z,false,true,0.0-2.0-0.5-0.46-3.46,0,0,0,90,false,stim,false,0,902.0,0,0,1,67495,task1,270868,false,false,256,image-keyboard-response,21
true,2,0,1,0,true,q,false,true,0.0-2.0-0.5-0.47-3.47,0,0,0,81,false,stim,false,1,1007.0,0,0,0,67495,task1,273382,false,false,259,image-keyboard-response,22
true,2,1,1,1,true,z,false,true,0.0-2.0-0.5-0.48-3.48,0,0,0,90,false,stim,false,0,369.0,0,0,2,67495,task1,275257,false,false,262,image-keyboard-response,23
true,2,0,1,0,true,q,false,true,0.0-2.0-0.5-0.49-3.49,0,0,0,81,false,stim,false,1,810.0,0,0,0,67495,task1,277572,false,false,265,image-keyboard-response,24
true,2,1,1,1,true,z,false,true,0.0-2.0-0.5-0.50-3.50,0,0,0,90,false,stim,false,0,536.0,0,0,2,67495,task1,279614,false,false,268,image-keyboard-response,25
true,2,0,1,0,true,q,false,true,0.0-2.0-0.5-0.51-3.51,0,0,0,81,false,stim,false,1,1146.0,0,0,0,67495,task1,282266,false,false,271,image-keyboard-response,26
true,2,1,1,1,true,z,false,true,0.0-2.0-0.5-0.52-3.52,0,0,0,90,false,stim,false,0,1545.9999999999418,0,0,1,67495,task1,285317,false,false,274,image-keyboard-response,27
true,2,1,1,1,true,z,false,true,0.0-2.0-0.5-0.53-3.53,0,0,0,90,false,stim,false,0,430.0,0,0,1,67495,task1,287253,false,false,277,image-keyboard-response,28
true,2,1,1,1,true,z,false,true,0.0-2.0-0.6-0.54-3.54,0,0,0,90,false,stim,false,0,350.0,0,0,1,67495,task1,289109,false,false,280,image-keyboard-response,29
true,2,0,1,0,true,q,false,false,0.0-2.0-0.6-0.55-3.55,0,0,0,81,false,stim,false,1,685.0,0,0,0,67495,task1,291300,false,true,283,image-keyboard-response,30
true,2,1,1,1,true,z,false,false,0.0-2.0-0.6-0.56-3.56,0,0,0,90,false,stim,false,0,624.0,0,0,1,67495,task1,293430,false,true,286,image-keyboard-response,31
true,2,1,1,0,false,q,false,false,0.0-2.0-0.6-0.57-3.57,0,0,0,90,false,stim,true,1,1907.0,0,0,0,67495,task1,296843,false,false,289,image-keyboard-response,32
true,2,2,1,1,false,z,true,false,0.0-2.0-0.6-0.58-3.58,0,0,0,68,false,stim,false,0,1093.9999999999418,0,0,2,67495,task1,299443,false,false,292,image-keyboard-response,33
true,2,0,1,1,false,z,false,false,0.0-2.0-0.6-0.59-3.59,0,0,0,81,false,stim,true,0,1900.0000000000582,0,0,2,67495,task1,302849,false,false,295,image-keyboard-response,34
true,2,0,1,0,true,q,false,true,0.0-2.0-0.6-0.60-3.60,0,0,0,81,false,stim,false,1,961.0,0,0,0,67495,task1,305315,false,false,298,image-keyboard-response,35
true,2,0,1,1,false,z,false,false,0.0-2.0-0.6-0.61-3.61,0,0,0,81,false,stim,true,0,1179.0,0,0,1,67495,task1,308002,false,false,301,image-keyboard-response,36
true,2,1,1,1,true,z,false,true,0.0-2.0-0.6-0.62-3.62,0,0,0,90,false,stim,false,0,2283.0,0,0,2,67495,task1,311791,false,false,304,image-keyboard-response,37
true,2,1,1,1,true,z,false,true,0.0-2.0-0.7-0.63-3.63,0,0,0,90,false,stim,false,0,626.9999999999418,0,0,2,67495,task1,313923,false,false,307,image-keyboard-response,38
true,2,2,1,1,false,z,true,false,0.0-2.0-0.7-0.64-3.64,0,0,0,68,false,stim,false,0,1038.0,0,0,1,67495,task1,316467,false,false,310,image-keyboard-response,39
true,2,1,1,1,true,z,false,false,0.0-2.0-0.7-0.65-3.65,0,0,0,90,false,stim,false,0,423.0,0,0,1,67495,task1,318396,false,true,313,image-keyboard-response,40
true,2,0,1,1,false,z,false,false,0.0-2.0-0.7-0.66-3.66,0,0,0,81,false,stim,true,0,663.0,0,0,1,67495,task1,320564,false,false,316,image-keyboard-response,41
true,2,0,1,0,true,q,false,true,0.0-2.0-0.7-0.67-3.67,0,0,0,81,false,stim,false,1,1325.0,0,0,0,67495,task1,323394,false,false,319,image-keyboard-response,42
true,3,1,1,2,false,d,false,false,0.0-2.0-0.7-0.68-3.68,0,0,0,90,true,stim,true,1,538.0,0,0,2,67495,task1,325438,false,false,322,image-keyboard-response,1
true,3,0,1,1,false,z,false,false,0.0-2.0-0.7-0.69-3.69,0,0,0,81,false,stim,true,0,880.0,0,0,0,67495,task1,327824,false,false,325,image-keyboard-response,2
true,3,2,1,1,false,z,true,false,0.0-2.0-0.7-0.70-3.70,0,0,0,68,false,stim,false,0,1066.0,0,0,0,67495,task1,330396,false,false,328,image-keyboard-response,3
true,3,2,1,2,true,d,false,true,0.0-2.0-0.7-0.71-3.71,0,0,0,68,false,stim,false,1,1394.0,0,0,2,67495,task1,333296,false,false,331,image-keyboard-response,4
true,3,1,1,0,false,q,false,false,0.0-2.0-0.8-0.72-3.72,0,0,0,90,false,stim,true,1,788.0,0,0,1,67495,task1,335590,false,false,334,image-keyboard-response,5
true,3,2,1,2,true,d,false,true,0.0-2.0-0.8-0.73-3.73,0,0,0,68,false,stim,false,1,585.9999999999418,0,0,2,67495,task1,337681,false,false,337,image-keyboard-response,6
true,3,0,1,1,false,z,false,false,0.0-2.0-0.8-0.74-3.74,0,0,0,81,false,stim,true,0,779.0,0,0,0,67495,task1,339966,false,false,340,image-keyboard-response,7
true,3,2,1,1,false,z,true,false,0.0-2.0-0.8-0.75-3.75,0,0,0,68,false,stim,false,0,916.0,0,0,0,67495,task1,342387,false,false,343,image-keyboard-response,8
true,3,1,1,1,true,z,false,true,0.0-2.0-0.8-0.76-3.76,0,0,0,90,false,stim,false,0,563.0,0,0,0,67495,task1,344456,false,false,346,image-keyboard-response,9
true,3,2,1,2,true,d,false,true,0.0-2.0-0.8-0.77-3.77,0,0,0,68,false,stim,false,1,356.0,0,0,2,67495,task1,346318,false,false,349,image-keyboard-response,10
true,3,0,1,0,true,q,false,false,0.0-2.0-0.8-0.78-3.78,0,0,0,81,false,stim,false,1,1261.0,0,0,1,67495,task1,349085,false,true,352,image-keyboard-response,11
true,3,2,1,2,true,d,false,true,0.0-2.0-0.8-0.79-3.79,0,0,0,68,false,stim,false,1,991.0,0,0,2,67495,task1,351582,false,false,355,image-keyboard-response,12
true,3,2,1,0,false,q,true,false,0.0-2.0-0.8-0.80-3.80,0,0,0,68,false,stim,false,1,531.0,0,0,1,67495,task1,353617,false,false,358,image-keyboard-response,13
true,3,2,1,2,true,d,false,true,0.0-2.0-0.9-0.81-3.81,0,0,0,68,false,stim,false,1,666.0,0,0,2,67495,task1,355790,false,false,361,image-keyboard-response,14
true,3,1,1,1,true,z,false,true,0.0-2.0-0.9-0.82-3.82,0,0,0,90,false,stim,false,0,586.0,0,0,0,67495,task1,357882,false,false,364,image-keyboard-response,15
true,3,1,1,1,true,z,false,false,0.0-2.0-0.9-0.83-3.83,0,0,0,90,false,stim,false,0,625.0,0,0,0,67495,task1,360012,false,true,367,image-keyboard-response,16
true,3,2,1,0,false,q,true,false,0.0-2.0-0.9-0.84-3.84,0,0,0,68,false,stim,false,1,656.0,0,0,1,67495,task1,362174,false,false,370,image-keyboard-response,17
true,3,1,1,0,false,q,false,true,0.0-2.0-0.9-0.85-3.85,0,0,0,90,false,stim,true,1,804.0,0,0,1,67495,task1,364484,false,true,373,image-keyboard-response,18
true,3,2,1,2,true,d,false,true,0.0-2.0-0.9-0.86-3.86,0,0,0,68,false,stim,false,1,619.0,0,0,2,67495,task1,366610,false,false,376,image-keyboard-response,19
true,3,1,1,0,false,q,false,false,0.0-2.0-0.9-0.87-3.87,0,0,0,90,false,stim,true,1,823.0,0,0,1,67495,task1,368939,false,false,379,image-keyboard-response,20
true,3,1,1,1,true,z,false,true,0.0-2.0-0.9-0.88-3.88,0,0,0,90,false,stim,false,0,975.0,0,0,0,67495,task1,371420,false,false,382,image-keyboard-response,21
true,3,2,1,2,true,d,false,true,0.0-2.0-0.9-0.89-3.89,0,0,0,68,false,stim,false,1,492.0,0,0,2,67495,task1,373418,false,false,385,image-keyboard-response,22
true,3,1,1,1,true,z,false,true,0.0-2.0-0.10-0.90-3.90,0,0,0,90,false,stim,false,0,573.9999999999418,0,0,0,67495,task1,375497,false,false,388,image-keyboard-response,23
true,3,1,1,1,true,z,false,true,0.0-2.0-0.10-0.91-3.91,0,0,0,90,false,stim,false,0,572.0,0,0,0,67495,task1,377574,false,false,391,image-keyboard-response,24
true,3,2,1,0,false,q,true,true,0.0-2.0-0.10-0.92-3.92,0,0,0,68,false,stim,false,1,700.0,0,0,1,67495,task1,379779,false,true,394,image-keyboard-response,25
true,3,2,1,2,true,d,false,true,0.0-2.0-0.10-0.93-3.93,0,0,0,68,false,stim,false,1,464.0,0,0,2,67495,task1,381748,false,false,397,image-keyboard-response,26
true,3,2,1,2,true,d,false,true,0.0-2.0-0.10-0.94-3.94,0,0,0,68,false,stim,false,1,538.0,0,0,2,67495,task1,383792,false,false,400,image-keyboard-response,27
true,3,2,1,2,true,d,false,true,0.0-2.0-0.10-0.95-3.95,0,0,0,68,false,stim,false,1,536.0,0,0,2,67495,task1,385837,false,false,403,image-keyboard-response,28
true,3,1,1,0,false,q,false,false,0.0-2.0-0.10-0.96-3.96,0,0,0,90,false,stim,true,1,644.0,0,0,1,67495,task1,387987,false,false,406,image-keyboard-response,29
true,3,2,1,0,false,q,true,false,0.0-2.0-0.10-0.97-3.97,0,0,0,68,false,stim,false,1,608.0,0,0,1,67495,task1,390101,false,false,409,image-keyboard-response,30
true,3,1,1,1,true,z,false,true,0.0-2.0-0.10-0.98-3.98,0,0,0,90,false,stim,false,0,1819.0,0,0,0,67495,task1,393425,false,false,412,image-keyboard-response,31
true,3,2,1,2,true,d,false,false,0.0-2.0-0.11-0.99-3.99,0,0,0,68,false,stim,false,1,715.0,0,0,2,67495,task1,395646,false,true,415,image-keyboard-response,32
true,3,0,1,2,false,d,true,false,0.0-2.0-0.11-0.100-3.100,0,0,0,81,false,stim,false,1,892.0,0,0,2,67495,task1,398043,false,false,418,image-keyboard-response,33
true,3,1,1,0,false,q,false,false,0.0-2.0-0.11-0.101-3.101,0,0,0,90,false,stim,true,1,499.0,0,0,1,67495,task1,400047,false,false,421,image-keyboard-response,34
true,3,1,1,0,false,q,false,false,0.0-2.0-0.11-0.102-3.102,0,0,0,90,false,stim,true,1,423.0,0,0,1,67495,task1,401976,false,false,424,image-keyboard-response,35
true,3,1,1,1,true,z,false,false,0.0-2.0-0.11-0.103-3.103,0,0,0,90,false,stim,false,0,454.0000000000582,0,0,0,67495,task1,403936,false,true,427,image-keyboard-response,36
true,3,1,1,0,false,q,false,false,0.0-2.0-0.11-0.104-3.104,0,0,0,90,false,stim,true,1,997.0,0,0,1,67495,task1,406439,false,false,430,image-keyboard-response,37
true,3,2,1,1,false,z,true,false,0.0-2.0-0.11-0.105-3.105,0,0,0,68,false,stim,false,0,477.0,0,0,0,67495,task1,408422,false,false,433,image-keyboard-response,38
true,3,0,1,2,false,d,true,false,0.0-2.0-0.11-0.106-3.106,0,0,0,81,false,stim,false,1,547.0,0,0,2,67495,task1,410474,false,false,436,image-keyboard-response,39
true,4,1,2,0,false,q,false,false,0.0-2.0-0.11-0.107-3.107,0,0,0,90,true,stim,true,1,814.0,0,0,0,67495,task1,412794,false,false,439,image-keyboard-response,1
true,4,2,2,1,false,z,false,false,0.0-2.0-0.12-0.108-3.108,0,0,0,68,false,stim,true,2,1262.0,0,0,2,67495,task1,415562,false,false,442,image-keyboard-response,2
true,4,2,2,0,false,q,true,false,0.0-2.0-0.12-0.109-3.109,0,0,0,68,false,stim,false,1,443.0,0,0,0,67495,task1,417511,false,false,445,image-keyboard-response,3
true,4,2,2,1,false,z,false,false,0.0-2.0-0.12-0.110-3.110,0,0,0,68,false,stim,true,2,2487.0,0,0,2,67495,task1,421504,false,false,448,image-keyboard-response,4
true,4,1,2,0,false,q,false,false,0.0-2.0-0.12-0.111-3.111,0,0,0,90,false,stim,true,1,408.0,0,0,0,67495,task1,423418,false,false,451,image-keyboard-response,5
true,4,1,2,1,true,z,false,true,0.0-2.0-0.12-0.112-3.112,0,0,0,90,false,stim,false,0,613.0,0,0,1,67495,task1,425537,false,false,454,image-keyboard-response,6
true,4,0,2,1,false,z,true,false,0.0-2.0-0.12-0.113-3.113,0,0,0,81,false,stim,false,2,899.0,0,0,2,67495,task1,427941,false,false,457,image-keyboard-response,7
true,4,1,2,1,true,z,false,true,0.0-2.0-0.12-0.114-3.114,0,0,0,90,false,stim,false,0,602.0,0,0,1,67495,task1,430049,false,false,460,image-keyboard-response,8
true,4,1,2,0,false,q,false,false,0.0-2.0-0.12-0.115-3.115,0,0,0,90,false,stim,true,1,610.0,0,0,0,67495,task1,432165,false,false,463,image-keyboard-response,9
true,4,1,2,1,true,z,false,true,0.0-2.0-0.12-0.116-3.116,0,0,0,90,false,stim,false,0,576.0000000000582,0,0,1,67495,task1,434247,false,false,466,image-keyboard-response,10
true,4,1,2,1,true,z,false,true,0.0-2.0-0.13-0.117-3.117,0,0,0,90,false,stim,false,0,647.0,0,0,1,67495,task1,436400,false,false,469,image-keyboard-response,11
true,4,2,2,0,false,q,true,false,0.0-2.0-0.13-0.118-3.118,0,0,0,68,false,stim,false,1,532.0000000000582,0,0,0,67495,task1,438437,false,false,472,image-keyboard-response,12
true,4,2,2,1,false,z,false,false,0.0-2.0-0.13-0.119-3.119,0,0,0,68,false,stim,true,2,1320.0,0,0,2,67495,task1,441263,false,false,475,image-keyboard-response,13
true,4,1,2,1,true,z,false,true,0.0-2.0-0.13-0.120-3.120,0,0,0,90,false,stim,false,2,1110.0,0,0,2,67495,task1,443878,false,false,478,image-keyboard-response,14
true,4,1,2,0,false,q,false,false,0.0-2.0-0.13-0.121-3.121,0,0,0,90,false,stim,true,1,771.0,0,0,0,67495,task1,446152,false,false,481,image-keyboard-response,15
true,4,1,2,1,true,z,false,true,0.0-2.0-0.13-0.122-3.122,0,0,0,90,false,stim,false,0,342.9999999999418,0,0,1,67495,task1,448002,false,false,484,image-keyboard-response,16
true,4,0,2,0,true,q,false,true,0.0-2.0-0.13-0.123-3.123,0,0,0,81,false,stim,false,1,1337.0,0,0,0,67495,task1,450844,false,false,487,image-keyboard-response,17
true,4,1,2,1,true,z,false,true,0.0-2.0-0.13-0.124-3.124,0,0,0,90,false,stim,false,2,1478.0,0,0,2,67495,task1,453828,false,false,490,image-keyboard-response,18
true,4,1,2,1,true,z,false,true,0.0-2.0-0.13-0.125-3.125,0,0,0,90,false,stim,false,0,340.0,0,0,1,67495,task1,455674,false,false,493,image-keyboard-response,19
true,4,0,2,0,true,q,false,true,0.0-2.0-0.14-0.126-3.126,0,0,0,81,false,stim,false,1,442.0000000000582,0,0,0,67495,task1,457622,false,false,496,image-keyboard-response,20
true,4,1,2,1,true,z,false,true,0.0-2.0-0.14-0.127-3.127,0,0,0,90,false,stim,false,2,512.9999999999418,0,0,2,67495,task1,459641,false,false,499,image-keyboard-response,21
true,4,1,2,1,true,z,false,true,0.0-2.0-0.14-0.128-3.128,0,0,0,90,false,stim,false,0,368.0,0,0,1,67495,task1,461518,false,false,502,image-keyboard-response,22
true,4,0,2,0,true,q,false,false,0.0-2.0-0.14-0.129-3.129,0,0,0,81,false,stim,false,1,622.0,0,0,0,67495,task1,463646,false,true,505,image-keyboard-response,23
true,4,1,2,1,true,z,false,false,0.0-2.0-0.14-0.130-3.130,0,0,0,90,false,stim,false,2,370.0,0,0,2,67495,task1,465521,false,true,508,image-keyboard-response,24
true,4,2,2,1,false,z,true,false,0.0-2.0-0.14-0.131-3.131,0,0,0,68,false,stim,false,0,1015.9999999999418,0,0,1,67495,task1,468043,false,false,511,image-keyboard-response,25
true,4,1,2,1,true,z,false,true,0.0-2.0-0.14-0.132-3.132,0,0,0,90,false,stim,false,2,487.0,0,0,2,67495,task1,470036,false,false,514,image-keyboard-response,26
true,4,0,2,1,false,z,false,false,0.0-2.0-0.14-0.133-3.133,0,0,0,81,false,stim,true,0,1107.0,0,0,1,67495,task1,472649,false,false,517,image-keyboard-response,27
true,4,2,2,0,false,q,true,false,0.0-2.0-0.14-0.134-3.134,0,0,0,68,false,stim,false,1,722.0,0,0,0,67495,task1,474877,false,false,520,image-keyboard-response,28
true,4,1,2,1,true,z,false,true,0.0-2.0-0.15-0.135-3.135,0,0,0,90,false,stim,false,2,355.0,0,0,2,67495,task1,476739,false,false,523,image-keyboard-response,29
true,4,1,2,1,true,z,false,true,0.0-2.0-0.15-0.136-3.136,0,0,0,90,false,stim,false,2,387.0,0,0,2,67495,task1,478632,false,false,526,image-keyboard-response,30
true,4,1,2,0,false,q,false,false,0.0-2.0-0.15-0.137-3.137,0,0,0,90,false,stim,true,1,353.0,0,0,0,67495,task1,480491,false,false,529,image-keyboard-response,31
true,4,0,2,1,false,z,false,false,0.0-2.0-0.15-0.138-3.138,0,0,0,81,false,stim,true,0,1025.0,0,0,1,67495,task1,483022,false,false,532,image-keyboard-response,32
true,4,1,2,1,true,z,false,true,0.0-2.0-0.15-0.139-3.139,0,0,0,90,false,stim,false,2,468.9999999999418,0,0,2,67495,task1,484997,false,false,535,image-keyboard-response,33
true,4,2,2,0,false,q,true,false,0.0-2.0-0.15-0.140-3.140,0,0,0,68,false,stim,false,1,536.0,0,0,0,67495,task1,487038,false,false,538,image-keyboard-response,34
true,4,1,2,1,true,z,false,true,0.0-2.0-0.15-0.141-3.141,0,0,0,90,false,stim,false,0,601.0,0,0,1,67495,task1,489144,false,false,541,image-keyboard-response,35
true,4,1,2,0,false,q,false,false,0.0-2.0-0.15-0.142-3.142,0,0,0,90,false,stim,true,1,629.0,0,0,0,67495,task1,491279,false,false,544,image-keyboard-response,36
true,4,1,2,1,true,z,false,false,0.0-2.0-0.15-0.143-3.143,0,0,0,90,false,stim,false,0,320.0,0,0,1,67495,task1,493106,false,true,547,image-keyboard-response,37
true,4,0,2,0,true,q,false,true,0.0-2.0-0.16-0.144-3.144,0,0,0,81,false,stim,false,1,1056.0,0,0,0,67495,task1,495669,false,false,550,image-keyboard-response,38
true,4,1,2,1,true,z,false,true,0.0-2.0-0.16-0.145-3.145,0,0,0,90,false,stim,false,0,499.0,0,0,1,67495,task1,497673,false,false,553,image-keyboard-response,39
true,4,1,2,1,true,z,false,true,0.0-2.0-0.16-0.146-3.146,0,0,0,90,false,stim,false,2,1596.0,0,0,2,67495,task1,500775,false,false,556,image-keyboard-response,40
true,4,1,2,1,true,z,false,true,0.0-2.0-0.16-0.147-3.147,0,0,0,90,false,stim,false,0,1248.0,0,0,1,67495,task1,503530,false,false,559,image-keyboard-response,41
true,4,1,2,1,true,z,false,true,0.0-2.0-0.16-0.148-3.148,0,0,0,90,false,stim,false,2,515.0,0,0,2,67495,task1,505551,false,false,562,image-keyboard-response,42
true,4,1,2,1,true,z,false,true,0.0-2.0-0.16-0.149-3.149,0,0,0,90,false,stim,false,0,341.0000000000582,0,0,1,67495,task1,507398,false,false,565,image-keyboard-response,43
true,5,1,2,2,false,d,false,false,0.0-2.0-0.16-0.150-3.150,0,0,0,90,true,stim,true,1,458.0000000000582,0,0,2,67495,task1,509362,false,false,568,image-keyboard-response,1
true,5,0,2,1,false,z,false,false,0.0-2.0-0.16-0.151-3.151,0,0,0,81,false,stim,true,0,1167.9999999998836,0,0,0,67495,task1,512036,false,false,571,image-keyboard-response,2
true,5,1,2,1,true,z,false,true,0.0-2.0-0.16-0.152-3.152,0,0,0,90,false,stim,false,0,223.9999999999418,0,0,0,67495,task1,513766,false,false,574,image-keyboard-response,3
true,5,1,2,1,true,z,false,true,0.0-2.0-0.17-0.153-3.153,0,0,0,90,false,stim,false,0,603.0000000001164,0,0,0,67495,task1,515875,false,false,577,image-keyboard-response,4
true,5,2,2,0,false,q,true,false,0.0-2.0-0.17-0.154-3.154,0,0,0,68,false,stim,false,1,1123.0000000000582,0,0,1,67495,task1,518504,false,false,580,image-keyboard-response,5
true,5,1,2,0,false,q,false,false,0.0-2.0-0.17-0.155-3.155,0,0,0,90,false,stim,true,1,540.0,0,0,1,67495,task1,520550,false,false,583,image-keyboard-response,6
true,5,1,2,1,true,z,false,true,0.0-2.0-0.17-0.156-3.156,0,0,0,90,false,stim,false,0,342.0,0,0,0,67495,task1,522397,false,false,586,image-keyboard-response,7
true,5,1,2,2,false,d,false,false,0.0-2.0-0.17-0.157-3.157,0,0,0,90,false,stim,true,1,674.0,0,0,2,67495,task1,524577,false,false,589,image-keyboard-response,8
true,5,0,2,2,false,d,true,false,0.0-2.0-0.17-0.158-3.158,0,0,0,81,false,stim,false,1,1398.0,0,0,2,67495,task1,527480,false,false,592,image-keyboard-response,9
true,5,1,2,2,false,d,false,false,0.0-2.0-0.17-0.159-3.159,0,0,0,90,false,stim,true,1,316.0,0,0,2,67495,task1,529300,false,false,595,image-keyboard-response,10
true,5,1,2,1,true,z,false,true,0.0-2.0-0.17-0.160-3.160,0,0,0,90,false,stim,false,0,729.0,0,0,0,67495,task1,531535,false,false,598,image-keyboard-response,11
true,5,0,2,0,true,q,false,true,0.0-2.0-0.17-0.161-3.161,0,0,0,81,false,stim,false,1,773.0,0,0,1,67495,task1,533818,false,false,601,image-keyboard-response,12
true,5,1,2,1,true,z,false,true,0.0-2.0-0.18-0.162-3.162,0,0,0,90,false,stim,false,0,547.0,0,0,0,67495,task1,535872,false,false,604,image-keyboard-response,13
true,5,0,2,0,true,q,false,true,0.0-2.0-0.18-0.163-3.163,0,0,0,81,false,stim,false,1,823.0,0,0,1,67495,task1,538201,false,false,607,image-keyboard-response,14
true,5,2,2,2,true,d,false,true,0.0-2.0-0.18-0.164-3.164,0,0,0,68,false,stim,false,1,847.0,0,0,2,67495,task1,540554,false,false,610,image-keyboard-response,15
true,5,0,2,0,true,q,false,true,0.0-2.0-0.18-0.165-3.165,0,0,0,81,false,stim,false,1,613.0,0,0,1,67495,task1,542673,false,false,613,image-keyboard-response,16
true,5,2,2,2,true,d,false,true,0.0-2.0-0.18-0.166-3.166,0,0,0,68,false,stim,false,1,634.0,0,0,2,67495,task1,544813,false,false,616,image-keyboard-response,17
true,5,1,2,1,true,z,false,true,0.0-2.0-0.18-0.167-3.167,0,0,0,90,false,stim,false,0,1050.0000000001164,0,0,0,67495,task1,547369,false,false,619,image-keyboard-response,18
true,5,1,2,1,true,z,false,true,0.0-2.0-0.18-0.168-3.168,0,0,0,90,false,stim,false,0,380.0,0,0,0,67495,task1,549255,false,false,622,image-keyboard-response,19
true,5,2,2,2,true,d,false,true,0.0-2.0-0.18-0.169-3.169,0,0,0,68,false,stim,false,1,554.0,0,0,2,67495,task1,551316,false,false,625,image-keyboard-response,20
true,5,0,2,0,true,q,false,true,0.0-2.0-0.18-0.170-3.170,0,0,0,81,false,stim,false,1,599.9999999998836,0,0,1,67495,task1,553422,false,false,628,image-keyboard-response,21
true,5,0,2,0,true,q,false,true,0.0-2.0-0.19-0.171-3.171,0,0,0,81,false,stim,false,1,632.0,0,0,1,67495,task1,555560,false,false,631,image-keyboard-response,22
true,5,1,2,1,true,z,false,true,0.0-2.0-0.19-0.172-3.172,0,0,0,90,false,stim,false,0,904.0,0,0,0,67495,task1,557970,false,false,634,image-keyboard-response,23
true,5,0,2,0,true,q,false,true,0.0-2.0-0.19-0.173-3.173,0,0,0,81,false,stim,false,1,816.0,0,0,1,67495,task1,560292,false,false,637,image-keyboard-response,24
true,5,2,2,2,true,d,false,true,0.0-2.0-0.19-0.174-3.174,0,0,0,68,false,stim,false,1,547.0,0,0,2,67495,task1,562344,false,false,640,image-keyboard-response,25
true,5,0,2,0,true,q,false,true,0.0-2.0-0.19-0.175-3.175,0,0,0,81,false,stim,false,1,540.0,0,0,1,67495,task1,564390,false,false,643,image-keyboard-response,26
true,5,2,2,2,true,d,false,true,0.0-2.0-0.19-0.176-3.176,0,0,0,68,false,stim,false,1,565.0,0,0,2,67495,task1,566461,false,false,646,image-keyboard-response,27
true,5,1,2,1,true,z,false,true,0.0-2.0-0.19-0.177-3.177,0,0,0,90,false,stim,false,0,537.0,0,0,0,67495,task1,568504,false,false,649,image-keyboard-response,28
true,5,2,2,2,true,d,false,true,0.0-2.0-0.19-0.178-3.178,0,0,0,68,false,stim,false,1,552.0,0,0,2,67495,task1,570562,false,false,652,image-keyboard-response,29
true,5,1,2,1,true,z,false,true,0.0-2.0-0.19-0.179-3.179,0,0,0,90,false,stim,false,0,621.9999999998836,0,0,0,67495,task1,572689,false,false,655,image-keyboard-response,30
true,5,1,2,1,true,z,false,true,0.0-2.0-0.20-0.180-3.180,0,0,0,90,false,stim,false,0,501.0000000001164,0,0,0,67495,task1,574697,false,false,658,image-keyboard-response,31
true,5,1,2,0,false,q,false,false,0.0-2.0-0.20-0.181-3.181,0,0,0,90,false,stim,true,1,506.0,0,0,1,67495,task1,576709,false,false,661,image-keyboard-response,32
true,5,2,2,2,true,d,false,true,0.0-2.0-0.20-0.182-3.182,0,0,0,68,false,stim,false,1,371.0,0,0,2,67495,task1,578585,false,false,664,image-keyboard-response,33
true,5,1,2,1,true,z,false,true,0.0-2.0-0.20-0.183-3.183,0,0,0,90,false,stim,false,0,354.9999999998836,0,0,0,67495,task1,580447,false,false,667,image-keyboard-response,34
true,5,2,2,2,true,d,false,true,0.0-2.0-0.20-0.184-3.184,0,0,0,68,false,stim,false,1,611.0,0,0,2,67495,task1,582563,false,false,670,image-keyboard-response,35
true,5,2,2,2,true,d,false,true,0.0-2.0-0.20-0.185-3.185,0,0,0,68,false,stim,false,1,492.0,0,0,2,67495,task1,584561,false,false,673,image-keyboard-response,36
true,5,0,2,0,true,q,false,false,0.0-2.0-0.20-0.186-3.186,0,0,0,81,false,stim,false,1,1203.0000000001164,0,0,1,67495,task1,587270,false,true,676,image-keyboard-response,37
true,5,2,2,0,false,q,true,false,0.0-2.0-0.20-0.187-3.187,0,0,0,68,false,stim,false,1,539.0,0,0,1,67495,task1,589315,false,false,679,image-keyboard-response,38
true,5,2,2,1,false,z,true,true,0.0-2.0-0.20-0.188-3.188,0,0,0,68,false,stim,false,0,777.0,0,0,0,67495,task1,591598,false,true,682,image-keyboard-response,39
true,6,2,2,0,false,q,true,false,0.0-2.0-0.21-0.189-3.189,0,0,0,68,true,stim,false,1,560.0,0,0,0,67495,task1,593665,false,false,685,image-keyboard-response,1
true,6,0,2,0,true,q,false,true,0.0-2.0-0.21-0.190-3.190,0,0,0,81,false,stim,false,1,826.0,0,0,0,67495,task1,595997,false,false,688,image-keyboard-response,2
true,6,0,2,0,true,q,false,true,0.0-2.0-0.21-0.191-3.191,0,0,0,81,false,stim,false,1,572.0,0,0,0,67495,task1,598075,false,false,691,image-keyboard-response,3
true,6,0,2,1,false,z,true,false,0.0-2.0-0.21-0.192-3.192,0,0,0,81,false,stim,false,2,1266.0000000001164,0,0,2,67495,task1,600847,false,false,694,image-keyboard-response,4
true,6,1,2,1,true,z,false,true,0.0-2.0-0.21-0.193-3.193,0,0,0,90,false,stim,false,2,730.0,0,0,2,67495,task1,603082,false,false,697,image-keyboard-response,5
true,6,1,2,1,true,z,false,true,0.0-2.0-0.21-0.194-3.194,0,0,0,90,false,stim,false,0,1099.0,0,0,1,67495,task1,605688,false,false,700,image-keyboard-response,6
true,6,1,2,1,true,z,false,true,0.0-2.0-0.21-0.195-3.195,0,0,0,90,false,stim,false,0,388.9999999998836,0,0,1,67495,task1,607587,false,false,703,image-keyboard-response,7
true,6,1,2,1,true,z,false,true,0.0-2.0-0.21-0.196-3.196,0,0,0,90,false,stim,false,2,539.9999999998836,0,0,2,67495,task1,609632,false,false,706,image-keyboard-response,8
true,6,1,2,1,true,z,false,true,0.0-2.0-0.21-0.197-3.197,0,0,0,90,false,stim,false,0,309.0,0,0,1,67495,task1,611446,false,false,709,image-keyboard-response,9
true,6,0,2,0,true,q,false,true,0.0-2.0-0.22-0.198-3.198,0,0,0,81,false,stim,false,1,514.0,0,0,0,67495,task1,613466,false,false,712,image-keyboard-response,10
true,6,1,2,1,true,z,false,true,0.0-2.0-0.22-0.199-3.199,0,0,0,90,false,stim,false,2,540.9999999998836,0,0,2,67495,task1,615514,false,false,715,image-keyboard-response,11
true,6,0,2,0,true,q,false,true,0.0-2.0-0.22-0.200-3.200,0,0,0,81,false,stim,false,1,534.0,0,0,0,67495,task1,617553,false,false,718,image-keyboard-response,12
true,6,1,2,1,true,z,false,true,0.0-2.0-0.22-0.201-3.201,0,0,0,90,false,stim,false,2,355.0000000001164,0,0,2,67495,task1,619419,false,false,721,image-keyboard-response,13
true,6,1,2,1,true,z,false,false,0.0-2.0-0.22-0.202-3.202,0,0,0,90,false,stim,false,0,334.0,0,0,1,67495,task1,621259,false,true,724,image-keyboard-response,14
true,6,1,2,1,true,z,false,true,0.0-2.0-0.22-0.203-3.203,0,0,0,90,false,stim,false,2,678.0,0,0,2,67495,task1,623443,false,false,727,image-keyboard-response,15
true,6,0,2,0,true,q,false,true,0.0-2.0-0.22-0.204-3.204,0,0,0,81,false,stim,false,1,590.0,0,0,0,67495,task1,625539,false,false,730,image-keyboard-response,16
true,6,1,2,1,true,z,false,true,0.0-2.0-0.22-0.205-3.205,0,0,0,90,false,stim,false,0,402.0,0,0,1,67495,task1,627448,false,false,733,image-keyboard-response,17
true,6,1,2,1,true,z,false,true,0.0-2.0-0.22-0.206-3.206,0,0,0,90,false,stim,false,0,412.0000000001164,0,0,1,67495,task1,629367,false,false,736,image-keyboard-response,18
true,6,0,2,0,true,q,false,true,0.0-2.0-0.23-0.207-3.207,0,0,0,81,false,stim,false,1,663.9999999998836,0,0,0,67495,task1,631541,false,false,739,image-keyboard-response,19
true,6,2,2,1,false,z,false,false,0.0-2.0-0.23-0.208-3.208,0,0,0,68,false,stim,true,2,913.0,0,0,2,67495,task1,633961,false,false,742,image-keyboard-response,20
true,6,0,2,0,true,q,false,true,0.0-2.0-0.23-0.209-3.209,0,0,0,81,false,stim,false,1,688.0,0,0,0,67495,task1,636155,false,false,745,image-keyboard-response,21
true,6,1,2,1,true,z,false,true,0.0-2.0-0.23-0.210-3.210,0,0,0,90,false,stim,false,0,335.0,0,0,1,67495,task1,637996,false,false,748,image-keyboard-response,22
true,6,0,2,1,false,z,true,false,0.0-2.0-0.23-0.211-3.211,0,0,0,81,false,stim,false,2,664.9999999998836,0,0,2,67495,task1,640167,false,false,751,image-keyboard-response,23
true,6,1,2,1,true,z,false,true,0.0-2.0-0.23-0.212-3.212,0,0,0,90,false,stim,false,2,1366.0,0,0,2,67495,task1,643039,false,false,754,image-keyboard-response,24
true,6,1,2,1,true,z,false,true,0.0-2.0-0.23-0.213-3.213,0,0,0,90,false,stim,false,0,906.9999999998836,0,0,1,67495,task1,645452,false,false,757,image-keyboard-response,25
true,6,1,2,1,true,z,false,true,0.0-2.0-0.23-0.214-3.214,0,0,0,90,false,stim,false,0,464.0,0,0,1,67495,task1,647423,false,false,760,image-keyboard-response,26
true,6,0,2,0,true,q,false,true,0.0-2.0-0.23-0.215-3.215,0,0,0,81,false,stim,false,1,490.0,0,0,0,67495,task1,649419,false,false,763,image-keyboard-response,27
true,6,1,2,1,true,z,false,false,0.0-2.0-0.24-0.216-3.216,0,0,0,90,false,stim,false,0,415.9999999998836,0,0,1,67495,task1,651342,false,true,766,image-keyboard-response,28
true,6,0,2,0,true,q,false,true,0.0-2.0-0.24-0.217-3.217,0,0,0,81,false,stim,false,1,812.0,0,0,0,67495,task1,653660,false,false,769,image-keyboard-response,29
true,6,1,2,1,true,z,false,true,0.0-2.0-0.24-0.218-3.218,0,0,0,90,false,stim,false,2,752.9999999998836,0,0,2,67495,task1,655919,false,false,772,image-keyboard-response,30
true,6,0,2,1,false,z,false,false,0.0-2.0-0.24-0.219-3.219,0,0,0,81,false,stim,true,0,699.0,0,0,1,67495,task1,658123,false,false,775,image-keyboard-response,31
true,6,0,2,0,true,q,false,true,0.0-2.0-0.24-0.220-3.220,0,0,0,81,false,stim,false,1,669.0,0,0,0,67495,task1,660298,false,false,778,image-keyboard-response,32
true,6,1,2,1,true,z,false,true,0.0-2.0-0.24-0.221-3.221,0,0,0,90,false,stim,false,0,1043.0,0,0,1,67495,task1,662848,false,false,781,image-keyboard-response,33
true,6,1,2,1,true,z,false,true,0.0-2.0-0.24-0.222-3.222,0,0,0,90,false,stim,false,2,394.0,0,0,2,67495,task1,664749,false,false,784,image-keyboard-response,34
true,6,1,2,0,false,q,false,false,0.0-2.0-0.24-0.223-3.223,0,0,0,90,false,stim,true,1,553.0,0,0,0,67495,task1,666809,false,false,787,image-keyboard-response,35
true,6,1,2,1,true,z,false,true,0.0-2.0-0.24-0.224-3.224,0,0,0,90,false,stim,false,2,566.0,0,0,2,67495,task1,668881,false,false,790,image-keyboard-response,36
true,6,0,2,0,true,q,false,true,0.0-2.0-0.25-0.225-3.225,0,0,0,81,false,stim,false,1,664.0000000001164,0,0,0,67495,task1,671051,false,false,793,image-keyboard-response,37
true,6,0,2,0,true,q,false,true,0.0-2.0-0.25-0.226-3.226,0,0,0,81,false,stim,false,1,496.0,0,0,0,67495,task1,673053,false,false,796,image-keyboard-response,38
true,6,1,2,1,true,z,false,true,0.0-2.0-0.25-0.227-3.227,0,0,0,90,false,stim,false,0,686.0,0,0,1,67495,task1,675245,false,false,799,image-keyboard-response,39
true,6,1,2,1,true,z,false,true,0.0-2.0-0.25-0.228-3.228,0,0,0,90,false,stim,false,2,1197.0,0,0,2,67495,task1,677953,false,false,802,image-keyboard-response,40
true,6,1,2,1,true,z,false,true,0.0-2.0-0.25-0.229-3.229,0,0,0,90,false,stim,false,2,410.0,0,0,2,67495,task1,679869,false,false,805,image-keyboard-response,41
true,6,1,2,1,true,z,false,true,0.0-2.0-0.25-0.230-3.230,0,0,0,90,false,stim,false,0,881.0,0,0,1,67495,task1,682256,false,false,808,image-keyboard-response,42
true,6,0,2,0,true,q,false,true,0.0-2.0-0.25-0.231-3.231,0,0,0,81,false,stim,false,1,1101.0,0,0,0,67495,task1,684864,false,false,811,image-keyboard-response,43
true,6,1,2,1,true,z,false,true,0.0-2.0-0.25-0.232-3.232,0,0,0,90,false,stim,false,2,596.0,0,0,2,67495,task1,686967,false,false,814,image-keyboard-response,44
true,6,1,2,1,true,z,false,true,0.0-2.0-0.25-0.233-3.233,0,0,0,90,false,stim,false,0,938.0,0,0,1,67495,task1,689411,false,false,817,image-keyboard-response,45
true,7,1,2,0,false,q,false,false,0.0-2.0-0.26-0.234-3.234,0,0,0,90,true,stim,true,1,559.0,0,0,1,67495,task1,691477,false,false,820,image-keyboard-response,1
true,7,1,2,0,false,q,false,false,0.0-2.0-0.26-0.235-3.235,0,0,0,90,false,stim,true,1,613.0,0,0,1,67495,task1,693596,false,false,823,image-keyboard-response,2
true,7,1,2,2,false,d,false,false,0.0-2.0-0.26-0.236-3.236,0,0,0,90,false,stim,true,1,531.0,0,0,2,67495,task1,695633,false,false,826,image-keyboard-response,3
true,7,0,2,1,false,z,false,false,0.0-2.0-0.26-0.237-3.237,0,0,0,81,false,stim,true,0,670.0,0,0,0,67495,task1,697810,false,false,829,image-keyboard-response,4
true,7,1,2,1,true,z,false,true,0.0-2.0-0.26-0.238-3.238,0,0,0,90,false,stim,false,0,721.9999999998836,0,0,0,67495,task1,700038,false,false,832,image-keyboard-response,5
true,7,2,2,2,true,d,false,true,0.0-2.0-0.26-0.239-3.239,0,0,0,68,false,stim,false,1,996.0,0,0,2,67495,task1,702540,false,false,835,image-keyboard-response,6
true,7,1,2,1,true,z,false,true,0.0-2.0-0.26-0.240-3.240,0,0,0,90,false,stim,false,0,596.0,0,0,0,67495,task1,704642,false,false,838,image-keyboard-response,7
true,7,0,2,0,true,q,false,true,0.0-2.0-0.26-0.241-3.241,0,0,0,81,false,stim,false,1,697.0,0,0,1,67495,task1,706845,false,false,841,image-keyboard-response,8
true,7,2,2,2,true,d,false,true,0.0-2.0-0.26-0.242-3.242,0,0,0,68,false,stim,false,1,873.0,0,0,2,67495,task1,709224,false,false,844,image-keyboard-response,9
true,7,2,2,2,true,d,false,false,0.0-2.0-0.27-0.243-3.243,0,0,0,68,false,stim,false,1,1176.0,0,0,2,67495,task1,711907,false,true,847,image-keyboard-response,10
true,7,1,2,1,true,z,false,true,0.0-2.0-0.27-0.244-3.244,0,0,0,90,false,stim,false,0,945.0,0,0,0,67495,task1,714358,false,false,850,image-keyboard-response,11
true,7,1,2,0,false,q,false,true,0.0-2.0-0.27-0.245-3.245,0,0,0,90,false,stim,true,1,696.0,0,0,1,67495,task1,716560,false,true,853,image-keyboard-response,12
true,7,1,2,1,true,z,false,true,0.0-2.0-0.27-0.246-3.246,0,0,0,90,false,stim,false,0,627.0,0,0,0,67495,task1,718692,false,false,856,image-keyboard-response,13
true,7,1,2,0,false,q,false,false,0.0-2.0-0.27-0.247-3.247,0,0,0,90,false,stim,true,1,680.0,0,0,1,67495,task1,720879,false,false,859,image-keyboard-response,14
true,7,1,2,0,false,q,false,false,0.0-2.0-0.27-0.248-3.248,0,0,0,90,false,stim,true,1,556.0000000001164,0,0,1,67495,task1,722942,false,false,862,image-keyboard-response,15
true,7,1,2,1,true,z,false,true,0.0-2.0-0.27-0.249-3.249,0,0,0,90,false,stim,false,0,725.0,0,0,0,67495,task1,725176,false,false,865,image-keyboard-response,16
true,7,0,2,2,false,d,true,false,0.0-2.0-0.27-0.250-3.250,0,0,0,81,false,stim,false,1,839.0,0,0,2,67495,task1,727522,false,false,868,image-keyboard-response,17
true,7,2,2,2,true,d,false,true,0.0-2.0-0.27-0.251-3.251,0,0,0,68,false,stim,false,1,462.0,0,0,2,67495,task1,729490,false,false,871,image-keyboard-response,18
true,7,2,2,2,true,d,false,true,0.0-2.0-0.28-0.252-3.252,0,0,0,68,false,stim,false,1,480.0,0,0,2,67495,task1,731479,false,false,874,image-keyboard-response,19
true,7,1,2,1,true,z,false,true,0.0-2.0-0.28-0.253-3.253,0,0,0,90,false,stim,false,0,387.0,0,0,0,67495,task1,733372,false,false,877,image-keyboard-response,20
true,7,0,2,0,true,q,false,true,0.0-2.0-0.28-0.254-3.254,0,0,0,81,false,stim,false,1,1368.0,0,0,1,67495,task1,736246,false,false,880,image-keyboard-response,21
true,7,1,2,1,true,z,false,true,0.0-2.0-0.28-0.255-3.255,0,0,0,90,false,stim,false,0,486.0,0,0,0,67495,task1,738239,false,false,883,image-keyboard-response,22
true,7,1,2,0,false,q,false,false,0.0-2.0-0.28-0.256-3.256,0,0,0,90,false,stim,true,1,649.9999999998836,0,0,1,67495,task1,740395,false,false,886,image-keyboard-response,23
true,7,0,2,0,true,q,false,true,0.0-2.0-0.28-0.257-3.257,0,0,0,81,false,stim,false,1,582.0,0,0,1,67495,task1,742485,false,false,889,image-keyboard-response,24
true,7,1,2,1,true,z,false,true,0.0-2.0-0.28-0.258-3.258,0,0,0,90,false,stim,false,0,513.0,0,0,0,67495,task1,744504,false,false,892,image-keyboard-response,25
true,7,2,2,2,true,d,false,true,0.0-2.0-0.28-0.259-3.259,0,0,0,68,false,stim,false,1,488.0,0,0,2,67495,task1,746498,false,false,895,image-keyboard-response,26
true,7,2,2,2,true,d,false,true,0.0-2.0-0.28-0.260-3.260,0,0,0,68,false,stim,false,1,526.0,0,0,2,67495,task1,748530,false,false,898,image-keyboard-response,27
true,7,1,2,1,true,z,false,true,0.0-2.0-0.29-0.261-3.261,0,0,0,90,false,stim,false,0,648.0,0,0,0,67495,task1,750693,false,false,901,image-keyboard-response,28
true,7,2,2,2,true,d,false,true,0.0-2.0-0.29-0.262-3.262,0,0,0,68,false,stim,false,1,613.0,0,0,2,67495,task1,752812,false,false,904,image-keyboard-response,29
true,7,0,2,0,true,q,false,true,0.0-2.0-0.29-0.263-3.263,0,0,0,81,false,stim,false,1,484.0,0,0,1,67495,task1,754802,false,false,907,image-keyboard-response,30
true,7,2,2,2,true,d,false,true,0.0-2.0-0.29-0.264-3.264,0,0,0,68,false,stim,false,1,964.0,0,0,2,67495,task1,757273,false,false,910,image-keyboard-response,31
true,7,1,2,1,true,z,false,true,0.0-2.0-0.29-0.265-3.265,0,0,0,90,false,stim,false,0,958.0,0,0,0,67495,task1,759737,false,false,913,image-keyboard-response,32
true,7,2,2,2,true,d,false,true,0.0-2.0-0.29-0.266-3.266,0,0,0,68,false,stim,false,1,673.9999999998836,0,0,2,67495,task1,761920,false,false,916,image-keyboard-response,33
true,7,1,2,0,false,q,false,true,0.0-2.0-0.29-0.267-3.267,0,0,0,90,false,stim,true,1,705.0,0,0,1,67495,task1,764132,false,true,919,image-keyboard-response,34
true,7,1,2,0,false,q,false,false,0.0-2.0-0.29-0.268-3.268,0,0,0,90,false,stim,true,1,533.0,0,0,1,67495,task1,766171,false,false,922,image-keyboard-response,35
true,7,0,2,1,false,z,false,false,0.0-2.0-0.29-0.269-3.269,0,0,0,81,false,stim,true,0,623.0,0,0,0,67495,task1,768300,false,false,925,image-keyboard-response,36
true,7,2,2,2,true,d,false,true,0.0-2.0-0.30-0.270-3.270,0,0,0,68,false,stim,false,1,609.0,0,0,2,67495,task1,770416,false,false,928,image-keyboard-response,37
true,7,1,2,2,false,d,false,false,0.0-2.0-0.30-0.271-3.271,0,0,0,90,false,stim,true,1,378.0,0,0,2,67495,task1,772300,false,false,931,image-keyboard-response,38
true,7,1,2,1,true,z,false,true,0.0-2.0-0.30-0.272-3.272,0,0,0,90,false,stim,false,0,517.0,0,0,0,67495,task1,774325,false,false,934,image-keyboard-response,39
true,8,2,1,1,false,z,false,false,0.0-2.0-0.30-0.273-3.273,0,0,0,68,true,stim,true,2,303.0,0,0,2,67495,task1,776134,false,false,937,image-keyboard-response,1
true,8,0,1,2,false,d,false,false,0.0-2.0-0.30-0.274-3.274,0,0,0,81,false,stim,true,0,573.0,0,0,1,67495,task1,778216,false,false,940,image-keyboard-response,2
true,8,1,1,2,false,d,false,false,0.0-2.0-0.30-0.275-3.275,0,0,0,90,false,stim,true,1,581.0,0,0,0,67495,task1,780303,false,false,943,image-keyboard-response,3
true,8,1,1,2,false,d,false,false,0.0-2.0-0.30-0.276-3.276,0,0,0,90,false,stim,true,1,516.0,0,0,0,67495,task1,782326,false,false,946,image-keyboard-response,4
true,8,1,1,2,false,d,true,false,0.0-2.0-0.30-0.277-3.277,0,0,0,90,false,stim,false,0,592.0000000001164,0,0,1,67495,task1,784425,false,false,949,image-keyboard-response,5
true,8,2,1,2,true,d,false,true,0.0-2.0-0.30-0.278-3.278,0,0,0,68,false,stim,false,0,572.0,0,0,1,67495,task1,786502,false,false,952,image-keyboard-response,6
true,8,1,1,1,true,z,false,true,0.0-2.0-0.31-0.279-3.279,0,0,0,90,false,stim,false,2,704.0,0,0,2,67495,task1,788715,false,false,955,image-keyboard-response,7
true,8,0,1,2,false,d,true,false,0.0-2.0-0.31-0.280-3.280,0,0,0,81,false,stim,false,1,800.0,0,0,0,67495,task1,791022,false,false,958,image-keyboard-response,8
true,8,1,1,1,true,z,false,true,0.0-2.0-0.31-0.281-3.281,0,0,0,90,false,stim,false,2,656.0,0,0,2,67495,task1,793183,false,false,961,image-keyboard-response,9
true,8,0,1,2,false,d,true,false,0.0-2.0-0.31-0.282-3.282,0,0,0,81,false,stim,false,1,719.0,0,0,0,67495,task1,795410,false,false,964,image-keyboard-response,10
true,8,1,1,2,false,d,false,false,0.0-2.0-0.31-0.283-3.283,0,0,0,90,false,stim,true,1,759.0,0,0,0,67495,task1,797676,false,false,967,image-keyboard-response,11
true,8,2,1,2,true,d,false,true,0.0-2.0-0.31-0.284-3.284,0,0,0,68,false,stim,false,0,581.0,0,0,1,67495,task1,799762,false,false,970,image-keyboard-response,12
true,8,2,1,2,true,d,false,true,0.0-2.0-0.31-0.285-3.285,0,0,0,68,false,stim,false,0,541.0,0,0,1,67495,task1,801810,false,false,973,image-keyboard-response,13
true,8,1,1,1,true,z,false,true,0.0-2.0-0.31-0.286-3.286,0,0,0,90,false,stim,false,2,385.0,0,0,2,67495,task1,803701,false,false,976,image-keyboard-response,14
true,8,2,1,2,true,d,false,true,0.0-2.0-0.31-0.287-3.287,0,0,0,68,false,stim,false,0,306.0,0,0,1,67495,task1,805513,false,false,979,image-keyboard-response,15
true,8,1,1,1,true,z,false,true,0.0-2.0-0.32-0.288-3.288,0,0,0,90,false,stim,false,2,346.0,0,0,2,67495,task1,807368,false,false,982,image-keyboard-response,16
true,8,2,1,2,true,d,false,true,0.0-2.0-0.32-0.289-3.289,0,0,0,68,false,stim,false,1,603.0000000001164,0,0,0,67495,task1,809478,false,false,985,image-keyboard-response,17
true,8,1,1,2,false,d,true,false,0.0-2.0-0.32-0.290-3.290,0,0,0,90,false,stim,false,0,484.0000000001164,0,0,1,67495,task1,811468,false,false,988,image-keyboard-response,18
true,8,2,1,2,true,d,false,true,0.0-2.0-0.32-0.291-3.291,0,0,0,68,false,stim,false,0,457.0,0,0,1,67495,task1,813432,false,false,991,image-keyboard-response,19
true,8,2,1,2,true,d,false,true,0.0-2.0-0.32-0.292-3.292,0,0,0,68,false,stim,false,0,352.0,0,0,1,67495,task1,815291,false,false,994,image-keyboard-response,20
true,8,1,1,1,true,z,false,true,0.0-2.0-0.32-0.293-3.293,0,0,0,90,false,stim,false,2,420.0,0,0,2,67495,task1,817218,false,false,997,image-keyboard-response,21
true,8,1,1,1,true,z,false,true,0.0-2.0-0.32-0.294-3.294,0,0,0,90,false,stim,false,2,728.0,0,0,2,67495,task1,819453,false,false,1000,image-keyboard-response,22
true,8,2,1,2,true,d,false,true,0.0-2.0-0.32-0.295-3.295,0,0,0,68,false,stim,false,1,627.0,0,0,0,67495,task1,821593,false,false,1003,image-keyboard-response,23
true,8,1,1,2,false,d,false,true,0.0-2.0-0.32-0.296-3.296,0,0,0,90,false,stim,true,1,1722.9999999998836,0,0,0,67495,task1,824821,false,true,1006,image-keyboard-response,24
true,8,2,1,1,false,z,false,false,0.0-2.0-0.33-0.297-3.297,0,0,0,68,false,stim,true,2,745.0,0,0,2,67495,task1,827074,false,false,1009,image-keyboard-response,25
true,8,2,1,2,true,d,false,true,0.0-2.0-0.33-0.298-3.298,0,0,0,68,false,stim,false,0,685.0,0,0,1,67495,task1,829265,false,false,1012,image-keyboard-response,26
true,8,1,1,1,true,z,false,false,0.0-2.0-0.33-0.299-3.299,0,0,0,90,false,stim,false,2,391.0,0,0,2,67495,task1,831164,false,true,1015,image-keyboard-response,27
true,8,2,1,2,true,d,false,true,0.0-2.0-0.33-0.300-3.300,0,0,0,68,false,stim,false,0,732.0000000001164,0,0,1,67495,task1,833402,false,false,1018,image-keyboard-response,28
true,8,2,1,1,false,z,false,false,0.0-2.0-0.33-0.301-3.301,0,0,0,68,false,stim,true,2,451.0,0,0,2,67495,task1,835359,false,false,1021,image-keyboard-response,29
true,8,1,1,2,false,d,true,false,0.0-2.0-0.33-0.302-3.302,0,0,0,90,false,stim,false,0,690.0000000001164,0,0,1,67495,task1,837556,false,false,1024,image-keyboard-response,30
true,8,1,1,2,false,d,false,false,0.0-2.0-0.33-0.303-3.303,0,0,0,90,false,stim,true,1,417.0,0,0,0,67495,task1,839480,false,false,1027,image-keyboard-response,31
true,8,0,1,2,false,d,true,false,0.0-2.0-0.33-0.304-3.304,0,0,0,81,false,stim,false,1,413.0000000001164,0,0,0,67495,task1,841402,false,false,1030,image-keyboard-response,32
true,8,2,1,2,true,d,false,false,0.0-2.0-0.33-0.305-3.305,0,0,0,68,false,stim,false,1,359.0,0,0,0,67495,task1,843268,false,true,1033,image-keyboard-response,33
true,8,2,1,1,false,z,false,false,0.0-2.0-0.34-0.306-3.306,0,0,0,68,false,stim,true,2,1191.0,0,0,2,67495,task1,845966,false,false,1036,image-keyboard-response,34
true,8,1,1,1,true,z,false,true,0.0-2.0-0.34-0.307-3.307,0,0,0,90,false,stim,false,2,393.0,0,0,2,67495,task1,847865,false,false,1039,image-keyboard-response,35
true,8,0,1,2,false,d,true,false,0.0-2.0-0.34-0.308-3.308,0,0,0,81,false,stim,false,1,560.0000000001164,0,0,0,67495,task1,849931,false,false,1042,image-keyboard-response,36
true,8,0,1,2,false,d,false,false,0.0-2.0-0.34-0.309-3.309,0,0,0,81,false,stim,true,0,1121.0,0,0,1,67495,task1,852558,false,false,1045,image-keyboard-response,37
true,8,1,1,1,true,z,false,true,0.0-2.0-0.34-0.310-3.310,0,0,0,90,false,stim,false,2,679.0000000001164,0,0,2,67495,task1,854743,false,false,1048,image-keyboard-response,38
true,8,2,1,2,true,d,false,true,0.0-2.0-0.34-0.311-3.311,0,0,0,68,false,stim,false,0,419.9999999998836,0,0,1,67495,task1,856669,false,false,1051,image-keyboard-response,39
true,8,1,1,2,false,d,false,true,0.0-2.0-0.34-0.312-3.312,0,0,0,90,false,stim,true,1,1242.0,0,0,0,67495,task1,859420,false,true,1054,image-keyboard-response,40
true,8,2,1,2,true,d,false,true,0.0-2.0-0.34-0.313-3.313,0,0,0,68,false,stim,false,0,562.9999999998836,0,0,1,67495,task1,861490,false,false,1057,image-keyboard-response,41
true,8,1,1,2,false,d,false,false,0.0-2.0-0.34-0.314-3.314,0,0,0,90,false,stim,true,1,445.0,0,0,0,67495,task1,863442,false,false,1060,image-keyboard-response,42
true,9,2,1,1,false,z,false,false,0.0-2.0-0.35-0.315-3.315,0,0,0,68,true,stim,true,2,827.0,0,0,1,67495,task1,865776,false,false,1063,image-keyboard-response,1
true,9,2,1,0,false,q,true,false,0.0-2.0-0.35-0.316-3.316,0,0,0,68,false,stim,false,1,690.0,0,0,2,67495,task1,867972,false,false,1066,image-keyboard-response,2
true,9,0,1,0,true,q,false,true,0.0-2.0-0.35-0.317-3.317,0,0,0,81,false,stim,false,2,844.0,0,0,0,67495,task1,870325,false,false,1069,image-keyboard-response,3
true,9,1,1,0,false,q,false,false,0.0-2.0-0.35-0.318-3.318,0,0,0,90,false,stim,true,1,721.0,0,0,2,67495,task1,872553,false,false,1072,image-keyboard-response,4
true,9,1,1,1,true,z,false,true,0.0-2.0-0.35-0.319-3.319,0,0,0,90,false,stim,false,2,745.0,0,0,1,67495,task1,874803,false,false,1075,image-keyboard-response,5
true,9,0,1,0,true,q,false,true,0.0-2.0-0.35-0.320-3.320,0,0,0,81,false,stim,false,2,985.0,0,0,0,67495,task1,877296,false,false,1078,image-keyboard-response,6
true,9,2,1,0,false,q,true,true,0.0-2.0-0.35-0.321-3.321,0,0,0,68,false,stim,false,1,890.9999999998836,0,0,2,67495,task1,879693,false,true,1081,image-keyboard-response,7
true,9,2,1,1,false,z,false,false,0.0-2.0-0.35-0.322-3.322,0,0,0,68,false,stim,true,2,1139.0,0,0,1,67495,task1,882339,false,false,1084,image-keyboard-response,8
true,9,0,1,0,true,q,false,true,0.0-2.0-0.35-0.323-3.323,0,0,0,81,false,stim,false,2,693.0,0,0,0,67495,task1,884541,false,false,1087,image-keyboard-response,9
true,9,1,1,1,true,z,false,true,0.0-2.0-0.36-0.324-3.324,0,0,0,90,false,stim,false,2,524.0,0,0,1,67495,task1,886573,false,false,1090,image-keyboard-response,10
true,9,1,1,1,true,z,false,true,0.0-2.0-0.36-0.325-3.325,0,0,0,90,false,stim,false,2,412.0,0,0,1,67495,task1,888490,false,false,1093,image-keyboard-response,11
true,9,1,1,1,true,z,false,true,0.0-2.0-0.36-0.326-3.326,0,0,0,90,false,stim,false,2,557.0,0,0,1,67495,task1,890554,false,false,1096,image-keyboard-response,12
true,9,0,1,0,true,q,false,true,0.0-2.0-0.36-0.327-3.327,0,0,0,81,false,stim,false,2,617.0,0,0,0,67495,task1,892679,false,false,1099,image-keyboard-response,13
true,9,0,1,0,true,q,false,true,0.0-2.0-0.36-0.328-3.328,0,0,0,81,false,stim,false,2,717.0,0,0,0,67495,task1,894910,false,false,1102,image-keyboard-response,14
true,9,0,1,0,true,q,false,false,0.0-2.0-0.36-0.329-3.329,0,0,0,81,false,stim,false,2,551.0,0,0,0,67495,task1,896967,false,true,1105,image-keyboard-response,15
true,9,2,1,0,false,q,true,false,0.0-2.0-0.36-0.330-3.330,0,0,0,68,false,stim,false,1,764.0,0,0,2,67495,task1,899237,false,false,1108,image-keyboard-response,16
true,9,1,1,0,false,q,false,false,0.0-2.0-0.36-0.331-3.331,0,0,0,90,false,stim,true,1,1316.0,0,0,2,67495,task1,902060,false,false,1111,image-keyboard-response,17
true,9,2,1,0,false,q,true,false,0.0-2.0-0.36-0.332-3.332,0,0,0,68,false,stim,false,1,627.0,0,0,2,67495,task1,904193,false,false,1114,image-keyboard-response,18
true,9,0,1,0,true,q,false,true,0.0-2.0-0.37-0.333-3.333,0,0,0,81,false,stim,false,2,1075.0,0,0,0,67495,task1,906776,false,false,1117,image-keyboard-response,19
true,9,1,1,1,true,z,false,true,0.0-2.0-0.37-0.334-3.334,0,0,0,90,false,stim,false,2,442.9999999998836,0,0,1,67495,task1,908727,false,false,1120,image-keyboard-response,20
true,9,0,1,0,true,q,false,true,0.0-2.0-0.37-0.335-3.335,0,0,0,81,false,stim,false,1,430.0,0,0,2,67495,task1,910664,false,false,1123,image-keyboard-response,21
true,9,0,1,0,true,q,false,true,0.0-2.0-0.37-0.336-3.336,0,0,0,81,false,stim,false,2,393.0,0,0,0,67495,task1,912564,false,false,1126,image-keyboard-response,22
true,9,0,1,0,true,q,false,true,0.0-2.0-0.37-0.337-3.337,0,0,0,81,false,stim,false,1,685.0000000001164,0,0,2,67495,task1,914756,false,false,1129,image-keyboard-response,23
true,9,0,1,0,true,q,false,true,0.0-2.0-0.37-0.338-3.338,0,0,0,81,false,stim,false,1,567.0,0,0,2,67495,task1,916829,false,false,1132,image-keyboard-response,24
true,9,1,1,1,true,z,false,true,0.0-2.0-0.37-0.339-3.339,0,0,0,90,false,stim,false,2,775.0,0,0,1,67495,task1,919109,false,false,1135,image-keyboard-response,25
true,9,0,1,0,true,q,false,false,0.0-2.0-0.37-0.340-3.340,0,0,0,81,false,stim,false,2,519.0,0,0,0,67495,task1,921134,false,true,1138,image-keyboard-response,26
true,9,0,1,1,false,z,true,true,0.0-2.0-0.37-0.341-3.341,0,0,0,81,false,stim,false,2,1015.0,0,0,1,67495,task1,923658,false,true,1141,image-keyboard-response,27
true,9,1,1,0,false,q,false,false,0.0-2.0-0.38-0.342-3.342,0,0,0,90,false,stim,true,1,690.0000000001164,0,0,2,67495,task1,925856,false,false,1144,image-keyboard-response,28
true,9,0,1,1,false,z,true,false,0.0-2.0-0.38-0.343-3.343,0,0,0,81,false,stim,false,2,801.0,0,0,1,67495,task1,928163,false,false,1147,image-keyboard-response,29
true,9,2,1,0,false,q,true,false,0.0-2.0-0.38-0.344-3.344,0,0,0,68,false,stim,false,1,1300.0,0,0,2,67495,task1,930970,false,false,1150,image-keyboard-response,30
true,9,1,1,1,true,z,false,true,0.0-2.0-0.38-0.345-3.345,0,0,0,90,false,stim,false,2,1016.9999999998836,0,0,1,67495,task1,933495,false,false,1153,image-keyboard-response,31
true,9,0,1,0,true,q,false,true,0.0-2.0-0.38-0.346-3.346,0,0,0,81,false,stim,false,2,774.0,0,0,0,67495,task1,935778,false,false,1156,image-keyboard-response,32
true,9,0,1,0,true,q,false,true,0.0-2.0-0.38-0.347-3.347,0,0,0,81,false,stim,false,2,1278.0,0,0,0,67495,task1,938564,false,false,1159,image-keyboard-response,33
true,9,0,1,0,true,q,false,true,0.0-2.0-0.38-0.348-3.348,0,0,0,81,false,stim,false,1,862.0,0,0,2,67495,task1,940933,false,false,1162,image-keyboard-response,34
true,9,1,1,1,true,z,false,true,0.0-2.0-0.38-0.349-3.349,0,0,0,90,false,stim,false,2,388.0,0,0,1,67495,task1,942827,false,false,1165,image-keyboard-response,35
true,9,0,1,0,true,q,false,true,0.0-2.0-0.38-0.350-3.350,0,0,0,81,false,stim,false,2,453.0,0,0,0,67495,task1,944787,false,false,1168,image-keyboard-response,36
true,9,0,1,0,true,q,false,true,0.0-2.0-0.39-0.351-3.351,0,0,0,81,false,stim,false,2,547.0,0,0,0,67495,task1,946841,false,false,1171,image-keyboard-response,37
true,9,0,1,0,true,q,false,false,0.0-2.0-0.39-0.352-3.352,0,0,0,81,false,stim,false,1,955.0,0,0,2,67495,task1,949304,false,true,1174,image-keyboard-response,38
true,9,1,1,1,true,z,false,true,0.0-2.0-0.39-0.353-3.353,0,0,0,90,false,stim,false,2,803.0,0,0,1,67495,task1,951614,false,false,1177,image-keyboard-response,39
true,9,0,1,0,true,q,false,false,0.0-2.0-0.39-0.354-3.354,0,0,0,81,false,stim,false,2,501.0,0,0,0,67495,task1,953621,false,true,1180,image-keyboard-response,40
true,9,1,1,0,false,q,false,false,0.0-2.0-0.39-0.355-3.355,0,0,0,90,false,stim,true,1,620.0,0,0,2,67495,task1,955748,false,false,1183,image-keyboard-response,41
true,9,0,1,0,true,q,false,true,0.0-2.0-0.39-0.356-3.356,0,0,0,81,false,stim,false,1,1090.0,0,0,2,67495,task1,958347,false,false,1186,image-keyboard-response,42
true,10,1,1,1,true,z,false,true,0.0-2.0-0.39-0.357-3.357,0,0,0,90,true,stim,false,0,695.0,0,0,0,67495,task1,960549,false,false,1189,image-keyboard-response,1
true,10,1,1,2,false,d,false,false,0.0-2.0-0.39-0.358-3.358,0,0,0,90,false,stim,true,1,484.0000000001164,0,0,1,67495,task1,962539,false,false,1192,image-keyboard-response,2
true,10,2,1,2,true,d,false,true,0.0-2.0-0.39-0.359-3.359,0,0,0,68,false,stim,false,1,816.0000000001164,0,0,1,67495,task1,964861,false,false,1195,image-keyboard-response,3
true,10,2,1,2,true,d,false,true,0.0-2.0-0.40-0.360-3.360,0,0,0,68,false,stim,false,1,528.0,0,0,1,67495,task1,966897,false,false,1198,image-keyboard-response,4
true,10,0,1,1,false,z,false,false,0.0-2.0-0.40-0.361-3.361,0,0,0,81,false,stim,true,0,895.0,0,0,2,67495,task1,969306,false,false,1201,image-keyboard-response,5
true,10,1,1,2,false,d,false,false,0.0-2.0-0.40-0.362-3.362,0,0,0,90,false,stim,true,1,843.0,0,0,1,67495,task1,971659,false,false,1204,image-keyboard-response,6
true,10,1,1,1,true,z,false,true,0.0-2.0-0.40-0.363-3.363,0,0,0,90,false,stim,false,0,724.9999999998836,0,0,0,67495,task1,973890,false,false,1207,image-keyboard-response,7
true,10,2,1,2,true,d,false,true,0.0-2.0-0.40-0.364-3.364,0,0,0,68,false,stim,false,1,744.0000000001164,0,0,1,67495,task1,976141,false,false,1210,image-keyboard-response,8
true,10,1,1,1,true,z,false,false,0.0-2.0-0.40-0.365-3.365,0,0,0,90,false,stim,false,0,497.9999999998836,0,0,0,67495,task1,978148,false,true,1213,image-keyboard-response,9
true,10,1,1,1,true,z,false,true,0.0-2.0-0.40-0.366-3.366,0,0,0,90,false,stim,false,0,1723.9999999998836,0,0,0,67495,task1,981379,false,false,1216,image-keyboard-response,10
true,10,0,1,1,false,z,false,false,0.0-2.0-0.40-0.367-3.367,0,0,0,81,false,stim,true,0,835.0,0,0,2,67495,task1,983720,false,false,1219,image-keyboard-response,11
true,10,1,1,1,true,z,false,false,0.0-2.0-0.40-0.368-3.368,0,0,0,90,false,stim,false,0,470.0,0,0,2,67495,task1,985697,false,true,1222,image-keyboard-response,12
true,10,1,1,1,true,z,false,true,0.0-2.0-0.41-0.369-3.369,0,0,0,90,false,stim,false,0,554.0,0,0,0,67495,task1,987759,false,false,1225,image-keyboard-response,13
true,10,2,1,1,false,z,true,false,0.0-2.0-0.41-0.370-3.370,0,0,0,68,false,stim,false,0,352.0,0,0,2,67495,task1,989618,false,false,1228,image-keyboard-response,14
true,10,1,1,1,true,z,false,true,0.0-2.0-0.41-0.371-3.371,0,0,0,90,false,stim,false,0,634.0000000001164,0,0,0,67495,task1,991762,false,false,1231,image-keyboard-response,15
true,10,1,1,1,true,z,false,true,0.0-2.0-0.41-0.372-3.372,0,0,0,90,false,stim,false,0,487.0,0,0,0,67495,task1,993756,false,false,1234,image-keyboard-response,16
true,10,1,1,2,false,d,false,false,0.0-2.0-0.41-0.373-3.373,0,0,0,90,false,stim,true,1,812.0,0,0,1,67495,task1,996074,false,false,1237,image-keyboard-response,17
true,10,0,1,1,false,z,false,false,0.0-2.0-0.41-0.374-3.374,0,0,0,81,false,stim,true,0,650.0,0,0,2,67495,task1,998231,false,false,1240,image-keyboard-response,18
true,10,1,1,2,false,d,false,false,0.0-2.0-0.41-0.375-3.375,0,0,0,90,false,stim,true,1,1041.9999999998836,0,0,1,67495,task1,1000780,false,false,1243,image-keyboard-response,19
true,10,2,1,2,true,d,false,true,0.0-2.0-0.41-0.376-3.376,0,0,0,68,false,stim,false,1,748.9999999998836,0,0,1,67495,task1,1003036,false,false,1246,image-keyboard-response,20
true,10,2,1,1,false,z,true,false,0.0-2.0-0.41-0.377-3.377,0,0,0,68,false,stim,false,0,1098.0,0,0,2,67495,task1,1005644,false,false,1249,image-keyboard-response,21
true,10,1,1,1,true,z,false,true,0.0-2.0-0.42-0.378-3.378,0,0,0,90,false,stim,false,0,916.9999999998836,0,0,2,67495,task1,1008069,false,false,1252,image-keyboard-response,22
true,10,2,1,2,true,d,false,true,0.0-2.0-0.42-0.379-3.379,0,0,0,68,false,stim,false,1,720.0,0,0,1,67495,task1,1010295,false,false,1255,image-keyboard-response,23
true,10,1,1,1,true,z,false,true,0.0-2.0-0.42-0.380-3.380,0,0,0,90,false,stim,false,0,452.0,0,0,0,67495,task1,1012253,false,false,1258,image-keyboard-response,24
true,10,2,1,2,true,d,false,false,0.0-2.0-0.42-0.381-3.381,0,0,0,68,false,stim,false,1,373.9999999998836,0,0,1,67495,task1,1014137,false,true,1261,image-keyboard-response,25
true,10,2,1,2,true,d,false,true,0.0-2.0-0.42-0.382-3.382,0,0,0,68,false,stim,false,1,442.0,0,0,1,67495,task1,1016086,false,false,1264,image-keyboard-response,26
true,10,1,1,1,true,z,false,true,0.0-2.0-0.42-0.383-3.383,0,0,0,90,false,stim,false,0,494.0,0,0,2,67495,task1,1018085,false,false,1267,image-keyboard-response,27
true,10,1,1,1,true,z,false,true,0.0-2.0-0.42-0.384-3.384,0,0,0,90,false,stim,false,0,435.0000000001164,0,0,2,67495,task1,1020026,false,false,1270,image-keyboard-response,28
true,10,2,1,1,false,z,true,false,0.0-2.0-0.42-0.385-3.385,0,0,0,68,false,stim,false,0,635.0,0,0,0,67495,task1,1022167,false,false,1273,image-keyboard-response,29
true,10,1,1,1,true,z,false,true,0.0-2.0-0.42-0.386-3.386,0,0,0,90,false,stim,false,0,983.0,0,0,0,67495,task1,1024659,false,false,1276,image-keyboard-response,30
true,10,1,1,2,false,d,false,false,0.0-2.0-0.43-0.387-3.387,0,0,0,90,false,stim,true,1,523.9999999998836,0,0,1,67495,task1,1026691,false,false,1279,image-keyboard-response,31
true,10,1,1,1,true,z,false,true,0.0-2.0-0.43-0.388-3.388,0,0,0,90,false,stim,false,0,463.0,0,0,2,67495,task1,1028660,false,false,1282,image-keyboard-response,32
true,10,1,1,1,true,z,false,true,0.0-2.0-0.43-0.389-3.389,0,0,0,90,false,stim,false,0,398.9999999998836,0,0,2,67495,task1,1030566,false,false,1285,image-keyboard-response,33
true,10,1,1,1,true,z,false,true,0.0-2.0-0.43-0.390-3.390,0,0,0,90,false,stim,false,0,1086.0,0,0,0,67495,task1,1033159,false,false,1288,image-keyboard-response,34
true,10,1,1,1,true,z,false,true,0.0-2.0-0.43-0.391-3.391,0,0,0,90,false,stim,false,0,396.9999999998836,0,0,0,67495,task1,1035064,false,false,1291,image-keyboard-response,35
true,10,2,1,2,true,d,false,true,0.0-2.0-0.43-0.392-3.392,0,0,0,68,false,stim,false,1,582.9999999998836,0,0,1,67495,task1,1037154,false,false,1294,image-keyboard-response,36
true,10,1,1,1,true,z,false,true,0.0-2.0-0.43-0.393-3.393,0,0,0,90,false,stim,false,0,607.0,0,0,2,67495,task1,1039267,false,false,1297,image-keyboard-response,37
true,10,1,1,1,true,z,false,true,0.0-2.0-0.43-0.394-3.394,0,0,0,90,false,stim,false,0,600.9999999998836,0,0,0,67495,task1,1041376,false,false,1300,image-keyboard-response,38
true,10,2,1,2,true,d,false,true,0.0-2.0-0.43-0.395-3.395,0,0,0,68,false,stim,false,1,588.0,0,0,1,67495,task1,1043479,false,false,1303,image-keyboard-response,39
true,11,2,1,1,false,z,false,false,0.0-2.0-0.44-0.396-3.396,0,0,0,68,true,stim,true,2,537.0,0,0,1,67495,task1,1045524,false,false,1306,image-keyboard-response,1
true,11,1,1,0,false,q,false,false,0.0-2.0-0.44-0.397-3.397,0,0,0,90,false,stim,true,1,1001.0,0,0,2,67495,task1,1048032,false,false,1309,image-keyboard-response,2
true,11,1,1,2,false,d,false,false,0.0-2.0-0.44-0.398-3.398,0,0,0,90,false,stim,true,1,684.0,0,0,0,67495,task1,1050225,false,false,1312,image-keyboard-response,3
true,11,0,1,2,false,d,true,false,0.0-2.0-0.44-0.399-3.399,0,0,0,81,false,stim,false,1,232.0,0,0,0,67495,task1,1051964,false,false,1315,image-keyboard-response,4
true,11,2,1,2,true,d,false,true,0.0-2.0-0.44-0.400-3.400,0,0,0,68,false,stim,false,1,637.0,0,0,0,67495,task1,1054108,false,false,1318,image-keyboard-response,5
true,11,1,1,1,true,z,false,true,0.0-2.0-0.44-0.401-3.401,0,0,0,90,false,stim,false,2,393.0,0,0,1,67495,task1,1056007,false,false,1321,image-keyboard-response,6
true,11,0,1,0,true,q,false,false,0.0-2.0-0.44-0.402-3.402,0,0,0,81,false,stim,false,1,546.0,0,0,2,67495,task1,1058060,false,true,1324,image-keyboard-response,7
true,11,2,1,1,false,z,false,false,0.0-2.0-0.44-0.403-3.403,0,0,0,68,false,stim,true,2,844.0,0,0,1,67495,task1,1060410,false,false,1327,image-keyboard-response,8
true,11,1,1,0,false,q,false,false,0.0-2.0-0.44-0.404-3.404,0,0,0,90,false,stim,true,1,1691.0,0,0,2,67495,task1,1063612,false,false,1330,image-keyboard-response,9
true,11,1,1,1,true,z,false,true,0.0-2.0-0.45-0.405-3.405,0,0,0,90,false,stim,false,2,357.0,0,0,1,67495,task1,1065478,false,false,1333,image-keyboard-response,10
true,11,2,1,0,false,q,true,false,0.0-2.0-0.45-0.406-3.406,0,0,0,68,false,stim,false,1,728.0000000002328,0,0,2,67495,task1,1067713,false,false,1336,image-keyboard-response,11
true,11,1,1,1,true,z,false,true,0.0-2.0-0.45-0.407-3.407,0,0,0,90,false,stim,false,2,357.0,0,0,1,67495,task1,1069577,false,false,1339,image-keyboard-response,12
true,11,1,1,2,false,d,false,false,0.0-2.0-0.45-0.408-3.408,0,0,0,90,false,stim,true,1,628.0,0,0,0,67495,task1,1071712,false,false,1342,image-keyboard-response,13
true,11,0,1,0,true,q,false,true,0.0-2.0-0.45-0.409-3.409,0,0,0,81,false,stim,false,1,656.0,0,0,2,67495,task1,1073874,false,false,1345,image-keyboard-response,14
true,11,1,1,1,true,z,false,true,0.0-2.0-0.45-0.410-3.410,0,0,0,90,false,stim,false,2,643.0,0,0,1,67495,task1,1076026,false,false,1348,image-keyboard-response,15
true,11,1,1,2,false,d,false,false,0.0-2.0-0.45-0.411-3.411,0,0,0,90,false,stim,true,1,698.0,0,0,0,67495,task1,1078231,false,false,1351,image-keyboard-response,16
true,11,0,1,0,true,q,false,true,0.0-2.0-0.45-0.412-3.412,0,0,0,81,false,stim,false,1,621.0,0,0,2,67495,task1,1080358,false,false,1354,image-keyboard-response,17
true,11,2,1,2,true,d,false,true,0.0-2.0-0.45-0.413-3.413,0,0,0,68,false,stim,false,1,771.0,0,0,0,67495,task1,1082636,false,false,1357,image-keyboard-response,18
true,11,0,1,0,true,q,false,true,0.0-2.0-0.46-0.414-3.414,0,0,0,81,false,stim,false,1,674.0,0,0,2,67495,task1,1084818,false,false,1360,image-keyboard-response,19
true,11,1,1,1,true,z,false,false,0.0-2.0-0.46-0.415-3.415,0,0,0,90,false,stim,false,2,347.0,0,0,1,67495,task1,1086673,false,true,1363,image-keyboard-response,20
true,11,0,1,0,true,q,false,true,0.0-2.0-0.46-0.416-3.416,0,0,0,81,false,stim,false,1,729.0,0,0,2,67495,task1,1088909,false,false,1366,image-keyboard-response,21
true,11,2,1,2,true,d,false,true,0.0-2.0-0.46-0.417-3.417,0,0,0,68,false,stim,false,1,635.0,0,0,0,67495,task1,1091051,false,false,1369,image-keyboard-response,22
true,11,0,1,0,true,q,false,true,0.0-2.0-0.46-0.418-3.418,0,0,0,81,false,stim,false,1,613.0,0,0,2,67495,task1,1093171,false,false,1372,image-keyboard-response,23
true,11,1,1,1,true,z,false,true,0.0-2.0-0.46-0.419-3.419,0,0,0,90,false,stim,false,2,497.0,0,0,1,67495,task1,1095174,false,false,1375,image-keyboard-response,24
true,11,2,1,2,true,d,false,true,0.0-2.0-0.46-0.420-3.420,0,0,0,68,false,stim,false,1,1052.0,0,0,0,67495,task1,1097733,false,false,1378,image-keyboard-response,25
true,11,1,1,2,false,d,false,false,0.0-2.0-0.46-0.421-3.421,0,0,0,90,false,stim,true,1,688.0,0,0,0,67495,task1,1099930,false,false,1381,image-keyboard-response,26
true,11,1,1,1,true,z,false,true,0.0-2.0-0.46-0.422-3.422,0,0,0,90,false,stim,false,2,648.0,0,0,1,67495,task1,1102086,false,false,1384,image-keyboard-response,27
true,11,2,1,2,true,d,false,false,0.0-2.0-0.47-0.423-3.423,0,0,0,68,false,stim,false,1,942.0,0,0,0,67495,task1,1104535,false,true,1387,image-keyboard-response,28
true,11,1,1,1,true,z,false,true,0.0-2.0-0.47-0.424-3.424,0,0,0,90,false,stim,false,2,506.0,0,0,1,67495,task1,1106548,false,false,1390,image-keyboard-response,29
true,11,0,1,0,true,q,false,true,0.0-2.0-0.47-0.425-3.425,0,0,0,81,false,stim,false,1,661.0,0,0,2,67495,task1,1108715,false,false,1393,image-keyboard-response,30
true,11,2,1,2,true,d,false,true,0.0-2.0-0.47-0.426-3.426,0,0,0,68,false,stim,false,1,971.0,0,0,0,67495,task1,1111193,false,false,1396,image-keyboard-response,31
true,11,1,1,1,true,z,false,true,0.0-2.0-0.47-0.427-3.427,0,0,0,90,false,stim,false,2,792.0,0,0,1,67495,task1,1113494,false,false,1399,image-keyboard-response,32
true,11,0,1,0,true,q,false,true,0.0-2.0-0.47-0.428-3.428,0,0,0,81,false,stim,false,1,1451.0,0,0,2,67495,task1,1116460,false,false,1402,image-keyboard-response,33
true,11,1,1,1,true,z,false,true,0.0-2.0-0.47-0.429-3.429,0,0,0,90,false,stim,false,2,879.0,0,0,1,67495,task1,1118849,false,false,1405,image-keyboard-response,34
true,11,2,1,2,true,d,false,true,0.0-2.0-0.47-0.430-3.430,0,0,0,68,false,stim,false,1,787.0,0,0,0,67495,task1,1121143,false,false,1408,image-keyboard-response,35
true,11,0,1,0,true,q,false,true,0.0-2.0-0.47-0.431-3.431,0,0,0,81,false,stim,false,1,772.0,0,0,2,67495,task1,1123422,false,false,1411,image-keyboard-response,36
true,11,2,1,2,true,d,false,true,0.0-2.0-0.48-0.432-3.432,0,0,0,68,false,stim,false,1,568.0,0,0,0,67495,task1,1125498,false,false,1414,image-keyboard-response,37
true,11,1,1,1,true,z,false,true,0.0-2.0-0.48-0.433-3.433,0,0,0,90,false,stim,false,2,542.0,0,0,1,67495,task1,1127549,false,false,1417,image-keyboard-response,38
true,11,2,1,2,true,d,false,true,0.0-2.0-0.48-0.434-3.434,0,0,0,68,false,stim,false,1,725.0,0,0,0,67495,task1,1129781,false,false,1420,image-keyboard-response,39
true,11,1,1,0,false,q,false,false,0.0-2.0-0.48-0.435-3.435,0,0,0,90,false,stim,true,1,529.0,0,0,2,67495,task1,1131817,false,false,1423,image-keyboard-response,40
true,12,1,2,2,false,d,true,false,0.0-2.0-0.48-0.436-3.436,0,0,0,90,true,stim,false,0,669.0,0,0,2,67495,task1,1133992,false,false,1426,image-keyboard-response,1
true,12,2,2,1,false,z,false,false,0.0-2.0-0.48-0.437-3.437,0,0,0,68,false,stim,true,2,707.0,0,0,0,67495,task1,1136205,false,false,1429,image-keyboard-response,2
true,12,1,2,0,false,q,false,false,0.0-2.0-0.48-0.438-3.438,0,0,0,90,false,stim,true,1,1557.0,0,0,1,67495,task1,1139272,false,false,1432,image-keyboard-response,3
true,12,0,2,2,false,d,false,false,0.0-2.0-0.48-0.439-3.439,0,0,0,81,false,stim,true,0,425.0,0,0,2,67495,task1,1141204,false,false,1435,image-keyboard-response,4
true,12,1,2,0,false,q,false,false,0.0-2.0-0.48-0.440-3.440,0,0,0,90,false,stim,true,1,565.0,0,0,1,67495,task1,1143275,false,false,1438,image-keyboard-response,5
true,12,2,2,2,true,d,false,false,0.0-2.0-0.49-0.441-3.441,0,0,0,68,false,stim,false,0,392.0,0,0,2,67495,task1,1145174,false,true,1441,image-keyboard-response,6
true,12,1,2,0,false,q,false,false,0.0-2.0-0.49-0.442-3.442,0,0,0,90,false,stim,true,1,655.0,0,0,1,67495,task1,1147336,false,false,1444,image-keyboard-response,7
true,12,0,2,0,true,q,false,true,0.0-2.0-0.49-0.443-3.443,0,0,0,81,false,stim,false,1,805.0,0,0,1,67495,task1,1149650,false,false,1447,image-keyboard-response,8
true,12,1,2,1,true,z,false,true,0.0-2.0-0.49-0.444-3.444,0,0,0,90,false,stim,false,2,389.0,0,0,0,67495,task1,1151546,false,false,1450,image-keyboard-response,9
true,12,2,2,2,true,d,false,true,0.0-2.0-0.49-0.445-3.445,0,0,0,68,false,stim,false,0,786.9999999997672,0,0,2,67495,task1,1153839,false,false,1453,image-keyboard-response,10
true,12,2,2,2,true,d,false,true,0.0-2.0-0.49-0.446-3.446,0,0,0,68,false,stim,false,0,757.0,0,0,2,67495,task1,1156103,false,false,1456,image-keyboard-response,11
true,12,0,2,0,true,q,false,true,0.0-2.0-0.49-0.447-3.447,0,0,0,81,false,stim,false,1,492.00000000023283,0,0,1,67495,task1,1158101,false,false,1459,image-keyboard-response,12
true,12,1,2,1,true,z,false,true,0.0-2.0-0.49-0.448-3.448,0,0,0,90,false,stim,false,2,383.0,0,0,0,67495,task1,1159993,false,false,1462,image-keyboard-response,13
true,12,1,2,1,true,z,false,true,0.0-2.0-0.49-0.449-3.449,0,0,0,90,false,stim,false,2,642.0,0,0,0,67495,task1,1162142,false,false,1465,image-keyboard-response,14
true,12,0,2,0,true,q,false,true,0.0-2.0-0.50-0.450-3.450,0,0,0,81,false,stim,false,1,927.0,0,0,1,67495,task1,1164577,false,false,1468,image-keyboard-response,15
true,12,1,2,1,true,z,false,true,0.0-2.0-0.50-0.451-3.451,0,0,0,90,false,stim,false,2,403.0,0,0,0,67495,task1,1166487,false,false,1471,image-keyboard-response,16
true,12,2,2,2,true,d,false,true,0.0-2.0-0.50-0.452-3.452,0,0,0,68,false,stim,false,0,725.0,0,0,2,67495,task1,1168718,false,false,1474,image-keyboard-response,17
true,12,1,2,1,true,z,false,true,0.0-2.0-0.50-0.453-3.453,0,0,0,90,false,stim,false,2,545.0,0,0,0,67495,task1,1170772,false,false,1477,image-keyboard-response,18
true,12,0,2,0,true,q,false,false,0.0-2.0-0.50-0.454-3.454,0,0,0,81,false,stim,false,1,983.0,0,0,1,67495,task1,1173261,false,true,1480,image-keyboard-response,19
true,12,2,2,2,true,d,false,true,0.0-2.0-0.50-0.455-3.455,0,0,0,68,false,stim,false,0,578.0,0,0,2,67495,task1,1175346,false,false,1483,image-keyboard-response,20
true,12,1,2,1,true,z,false,true,0.0-2.0-0.50-0.456-3.456,0,0,0,90,false,stim,false,2,522.9999999997672,0,0,0,67495,task1,1177375,false,false,1486,image-keyboard-response,21
true,12,2,2,2,true,d,false,true,0.0-2.0-0.50-0.457-3.457,0,0,0,68,false,stim,false,0,929.0,0,0,2,67495,task1,1179811,false,false,1489,image-keyboard-response,22
true,12,0,2,0,true,q,false,true,0.0-2.0-0.50-0.458-3.458,0,0,0,81,false,stim,false,1,678.0,0,0,1,67495,task1,1181999,false,false,1492,image-keyboard-response,23
true,12,1,2,1,true,z,false,true,0.0-2.0-0.51-0.459-3.459,0,0,0,90,false,stim,false,2,363.0,0,0,0,67495,task1,1183870,false,false,1495,image-keyboard-response,24
true,12,2,2,2,true,d,false,false,0.0-2.0-0.51-0.460-3.460,0,0,0,68,false,stim,false,0,388.00000000023283,0,0,2,67495,task1,1185765,false,true,1498,image-keyboard-response,25
true,12,2,2,2,true,d,false,true,0.0-2.0-0.51-0.461-3.461,0,0,0,68,false,stim,false,0,461.0,0,0,2,67495,task1,1187741,false,false,1501,image-keyboard-response,26
true,12,1,2,0,false,q,false,false,0.0-2.0-0.51-0.462-3.462,0,0,0,90,false,stim,true,1,550.9999999997672,0,0,1,67495,task1,1189796,false,false,1504,image-keyboard-response,27
true,12,0,2,1,false,z,true,false,0.0-2.0-0.51-0.463-3.463,0,0,0,81,false,stim,false,2,1017.0,0,0,0,67495,task1,1192320,false,false,1507,image-keyboard-response,28
true,12,0,2,0,true,q,false,false,0.0-2.0-0.51-0.464-3.464,0,0,0,81,false,stim,false,1,1325.0,0,0,1,67495,task1,1195152,false,true,1510,image-keyboard-response,29
true,12,1,2,1,true,z,false,true,0.0-2.0-0.51-0.465-3.465,0,0,0,90,false,stim,false,2,683.0,0,0,0,67495,task1,1197343,false,false,1513,image-keyboard-response,30
true,12,2,2,2,true,d,false,true,0.0-2.0-0.51-0.466-3.466,0,0,0,68,false,stim,false,0,461.0,0,0,2,67495,task1,1199311,false,false,1516,image-keyboard-response,31
true,12,2,2,0,false,q,true,false,0.0-2.0-0.51-0.467-3.467,0,0,0,68,false,stim,false,1,657.0,0,0,1,67495,task1,1201475,false,false,1519,image-keyboard-response,32
true,12,2,2,2,true,d,false,true,0.0-2.0-0.52-0.468-3.468,0,0,0,68,false,stim,false,0,1004.0,0,0,2,67495,task1,1203987,false,false,1522,image-keyboard-response,33
true,12,0,2,0,true,q,false,false,0.0-2.0-0.52-0.469-3.469,0,0,0,81,false,stim,false,1,721.0,0,0,1,67495,task1,1206215,false,true,1525,image-keyboard-response,34
true,12,2,2,2,true,d,false,false,0.0-2.0-0.52-0.470-3.470,0,0,0,68,false,stim,false,0,733.0,0,0,2,67495,task1,1208455,false,true,1528,image-keyboard-response,35
true,12,1,2,0,false,q,false,false,0.0-2.0-0.52-0.471-3.471,0,0,0,90,false,stim,true,1,413.0,0,0,1,67495,task1,1210377,false,false,1531,image-keyboard-response,36
true,12,2,2,2,true,d,false,true,0.0-2.0-0.52-0.472-3.472,0,0,0,68,false,stim,false,0,696.0,0,0,2,67495,task1,1212581,false,false,1534,image-keyboard-response,37
true,12,1,2,1,true,z,false,true,0.0-2.0-0.52-0.473-3.473,0,0,0,90,false,stim,false,2,654.0,0,0,0,67495,task1,1214742,false,false,1537,image-keyboard-response,38
true,12,2,2,0,false,q,true,false,0.0-2.0-0.52-0.474-3.474,0,0,0,68,false,stim,false,1,345.00000000023283,0,0,1,67495,task1,1216593,false,false,1540,image-keyboard-response,39
true,12,1,2,1,true,z,false,true,0.0-2.0-0.52-0.475-3.475,0,0,0,90,false,stim,false,2,692.0,0,0,0,67495,task1,1218791,false,false,1543,image-keyboard-response,40
true,12,1,2,1,true,z,false,true,0.0-2.0-0.52-0.476-3.476,0,0,0,90,false,stim,false,2,862.0,0,0,0,67495,task1,1221160,false,false,1546,image-keyboard-response,41
true,12,2,2,2,true,d,false,true,0.0-2.0-0.53-0.477-3.477,0,0,0,68,false,stim,false,0,613.0,0,0,2,67495,task1,1223281,false,false,1549,image-keyboard-response,42
true,12,1,2,1,true,z,false,false,0.0-2.0-0.53-0.478-3.478,0,0,0,90,false,stim,false,2,723.0,0,0,0,67495,task1,1225513,false,true,1552,image-keyboard-response,43
true,12,2,2,2,true,d,false,true,0.0-2.0-0.53-0.479-3.479,0,0,0,68,false,stim,false,0,527.0,0,0,2,67495,task1,1227546,false,false,1555,image-keyboard-response,44
true,12,1,2,1,true,z,false,true,0.0-2.0-0.53-0.480-3.480,0,0,0,90,false,stim,false,2,431.0,0,0,0,67495,task1,1229485,false,false,1558,image-keyboard-response,45
true,13,0,2,1,false,z,false,false,0.0-2.0-0.53-0.481-3.481,0,0,0,81,true,stim,true,0,680.0,0,0,1,67495,task1,1231673,false,false,1561,image-keyboard-response,1
true,13,1,2,1,true,z,false,true,0.0-2.0-0.53-0.482-3.482,0,0,0,90,false,stim,false,0,429.0,0,0,1,67495,task1,1233609,false,false,1564,image-keyboard-response,2
true,13,1,2,0,false,q,false,false,0.0-2.0-0.53-0.483-3.483,0,0,0,90,false,stim,true,1,476.0,0,0,0,67495,task1,1235591,false,false,1567,image-keyboard-response,3
true,13,2,2,1,false,z,false,true,0.0-2.0-0.53-0.484-3.484,0,0,0,68,false,stim,true,2,665.0,0,0,2,67495,task1,1237765,false,true,1570,image-keyboard-response,4
true,13,1,2,1,true,z,false,true,0.0-2.0-0.53-0.485-3.485,0,0,0,90,false,stim,false,0,594.0,0,0,1,67495,task1,1239866,false,false,1573,image-keyboard-response,5
true,13,2,2,1,false,z,false,false,0.0-2.0-0.54-0.486-3.486,0,0,0,68,false,stim,true,2,526.0,0,0,2,67495,task1,1241900,false,false,1576,image-keyboard-response,6
true,13,0,2,0,true,q,false,true,0.0-2.0-0.54-0.487-3.487,0,0,0,81,false,stim,false,1,739.0,0,0,0,67495,task1,1244146,false,false,1579,image-keyboard-response,7
true,13,2,2,1,false,z,false,false,0.0-2.0-0.54-0.488-3.488,0,0,0,68,false,stim,true,2,456.0,0,0,2,67495,task1,1246108,false,false,1582,image-keyboard-response,8
true,13,0,2,0,true,q,false,true,0.0-2.0-0.54-0.489-3.489,0,0,0,81,false,stim,false,1,890.0000000002328,0,0,0,67495,task1,1248507,false,false,1585,image-keyboard-response,9
true,13,1,2,1,true,z,false,true,0.0-2.0-0.54-0.490-3.490,0,0,0,90,false,stim,false,0,325.0,0,0,1,67495,task1,1250339,false,false,1588,image-keyboard-response,10
true,13,1,2,1,true,z,false,true,0.0-2.0-0.54-0.491-3.491,0,0,0,90,false,stim,false,2,349.0,0,0,2,67495,task1,1252195,false,false,1591,image-keyboard-response,11
true,13,0,2,0,true,q,false,false,0.0-2.0-0.54-0.492-3.492,0,0,0,81,false,stim,false,1,577.0,0,0,0,67495,task1,1254279,false,true,1594,image-keyboard-response,12
true,13,1,2,1,true,z,false,true,0.0-2.0-0.54-0.493-3.493,0,0,0,90,false,stim,false,0,360.0,0,0,1,67495,task1,1256145,false,false,1597,image-keyboard-response,13
true,13,1,2,1,true,z,false,true,0.0-2.0-0.54-0.494-3.494,0,0,0,90,false,stim,false,0,376.0,0,0,1,67495,task1,1258031,false,false,1600,image-keyboard-response,14
true,13,0,2,1,false,z,true,false,0.0-2.0-0.55-0.495-3.495,0,0,0,81,false,stim,false,2,1030.0,0,0,2,67495,task1,1260579,false,false,1603,image-keyboard-response,15
true,13,1,2,0,false,q,false,false,0.0-2.0-0.55-0.496-3.496,0,0,0,90,false,stim,true,1,432.0,0,0,0,67495,task1,1262518,false,false,1606,image-keyboard-response,16
true,13,1,2,1,true,z,false,true,0.0-2.0-0.55-0.497-3.497,0,0,0,90,false,stim,false,0,317.0,0,0,1,67495,task1,1264343,false,false,1609,image-keyboard-response,17
true,13,1,2,1,true,z,false,true,0.0-2.0-0.55-0.498-3.498,0,0,0,90,false,stim,false,0,888.0000000002328,0,0,1,67495,task1,1266739,false,false,1612,image-keyboard-response,18
true,13,2,2,1,false,z,false,false,0.0-2.0-0.55-0.499-3.499,0,0,0,68,false,stim,true,2,603.0,0,0,2,67495,task1,1268848,false,false,1615,image-keyboard-response,19
true,13,1,2,1,true,z,false,true,0.0-2.0-0.55-0.500-3.500,0,0,0,90,false,stim,false,2,368.99999999976717,0,0,2,67495,task1,1270724,false,false,1618,image-keyboard-response,20
true,13,0,2,0,true,q,false,true,0.0-2.0-0.55-0.501-3.501,0,0,0,81,false,stim,false,1,620.0,0,0,0,67495,task1,1272853,false,false,1621,image-keyboard-response,21
true,13,1,2,1,true,z,false,false,0.0-2.0-0.55-0.502-3.502,0,0,0,90,false,stim,false,0,298.0,0,0,1,67495,task1,1274659,false,true,1624,image-keyboard-response,22
true,13,1,2,0,false,q,false,false,0.0-2.0-0.55-0.503-3.503,0,0,0,90,false,stim,true,1,526.0000000002328,0,0,0,67495,task1,1276690,false,false,1627,image-keyboard-response,23
true,13,1,2,1,true,z,false,true,0.0-2.0-0.56-0.504-3.504,0,0,0,90,false,stim,false,0,702.0,0,0,1,67495,task1,1278900,false,false,1630,image-keyboard-response,24
true,13,0,2,0,true,q,false,true,0.0-2.0-0.56-0.505-3.505,0,0,0,81,false,stim,false,1,764.0,0,0,0,67495,task1,1281173,false,false,1633,image-keyboard-response,25
true,13,1,2,1,true,z,false,true,0.0-2.0-0.56-0.506-3.506,0,0,0,90,false,stim,false,2,1150.0,0,0,2,67495,task1,1283831,false,false,1636,image-keyboard-response,26
true,13,1,2,1,true,z,false,true,0.0-2.0-0.56-0.507-3.507,0,0,0,90,false,stim,false,2,575.0,0,0,2,67495,task1,1285913,false,false,1639,image-keyboard-response,27
true,13,0,2,0,true,q,false,true,0.0-2.0-0.56-0.508-3.508,0,0,0,81,false,stim,false,1,639.0,0,0,0,67495,task1,1288058,false,false,1642,image-keyboard-response,28
true,13,0,2,0,true,q,false,true,0.0-2.0-0.56-0.509-3.509,0,0,0,81,false,stim,false,1,619.0,0,0,0,67495,task1,1290184,false,false,1645,image-keyboard-response,29
true,13,1,2,1,true,z,false,true,0.0-2.0-0.56-0.510-3.510,0,0,0,90,false,stim,false,0,645.0,0,0,1,67495,task1,1292338,false,false,1648,image-keyboard-response,30
true,13,1,2,1,true,z,false,true,0.0-2.0-0.56-0.511-3.511,0,0,0,90,false,stim,false,2,404.0,0,0,2,67495,task1,1294250,false,false,1651,image-keyboard-response,31
true,13,1,2,1,true,z,false,true,0.0-2.0-0.56-0.512-3.512,0,0,0,90,false,stim,false,0,924.0,0,0,1,67495,task1,1296680,false,false,1654,image-keyboard-response,32
true,13,1,2,1,true,z,false,true,0.0-2.0-0.57-0.513-3.513,0,0,0,90,false,stim,false,0,544.0,0,0,1,67495,task1,1298731,false,false,1657,image-keyboard-response,33
true,13,1,2,1,true,z,false,true,0.0-2.0-0.57-0.514-3.514,0,0,0,90,false,stim,false,0,364.0,0,0,1,67495,task1,1300601,false,false,1660,image-keyboard-response,34
true,13,0,2,0,true,q,false,true,0.0-2.0-0.57-0.515-3.515,0,0,0,81,false,stim,false,1,1002.0,0,0,0,67495,task1,1303111,false,false,1663,image-keyboard-response,35
true,13,0,2,0,true,q,false,true,0.0-2.0-0.57-0.516-3.516,0,0,0,81,false,stim,false,1,586.0,0,1,0,67495,task1,1305204,false,false,1666,image-keyboard-response,36
true,13,0,2,0,true,q,false,true,0.0-2.0-0.57-0.517-3.517,0,0,0,81,false,stim,false,1,692.0,0,1,0,67495,task1,1307403,false,false,1669,image-keyboard-response,37
true,13,0,2,1,false,z,false,false,0.0-2.0-0.57-0.518-3.518,0,0,0,81,false,stim,true,0,531.0000000002328,0,1,1,67495,task1,1309442,false,false,1672,image-keyboard-response,38
true,13,1,2,1,true,z,false,true,0.0-2.0-0.57-0.519-3.519,0,0,0,90,false,stim,false,2,622.0,0,1,2,67495,task1,1311570,false,false,1675,image-keyboard-response,39
true,13,1,2,1,true,z,false,true,0.0-2.0-0.57-0.520-3.520,0,0,0,90,false,stim,false,2,401.0,0,1,2,67495,task1,1313477,false,false,1678,image-keyboard-response,40
true,14,1,0,1,true,z,false,true,0.0-2.0-0.57-0.521-3.521,1,1,1,90,true,stim,false,1,2141.0,0,1,2,67495,task1,1417324,false,false,1781,image-keyboard-response,1
true,14,1,0,0,false,q,true,true,0.0-2.0-0.58-0.522-3.522,1,1,1,90,false,stim,false,0,674.0,0,1,0,67495,task1,1419507,false,true,1784,image-keyboard-response,2
true,14,1,0,0,false,q,true,false,0.0-2.0-0.58-0.523-3.523,1,1,1,90,false,stim,false,0,534.0,0,1,0,67495,task1,1421549,false,false,1787,image-keyboard-response,3
true,14,1,0,0,false,q,true,false,0.0-2.0-0.58-0.524-3.524,1,1,1,90,false,stim,false,0,652.0,0,1,0,67495,task1,1423708,false,false,1790,image-keyboard-response,4
true,14,0,0,1,false,z,true,false,0.0-2.0-0.58-0.525-3.525,1,1,1,81,false,stim,false,1,1146.9999999997672,0,1,1,67495,task1,1426362,false,false,1793,image-keyboard-response,5
true,14,1,0,1,true,z,false,true,0.0-2.0-0.58-0.526-3.526,1,1,1,90,false,stim,false,1,328.0,0,1,2,67495,task1,1428197,false,false,1796,image-keyboard-response,6
true,14,0,0,1,false,z,true,false,0.0-2.0-0.58-0.527-3.527,1,1,1,81,false,stim,false,1,361.0,0,1,1,67495,task1,1430064,false,false,1799,image-keyboard-response,7
true,14,1,0,1,true,z,false,true,0.0-2.0-0.58-0.528-3.528,1,1,1,90,false,stim,false,1,332.0,0,1,2,67495,task1,1431917,false,false,1802,image-keyboard-response,8
true,14,2,0,1,false,z,true,false,0.0-2.0-0.58-0.529-3.529,1,1,1,68,false,stim,false,1,311.00000000023283,0,0,1,67495,task1,1433734,false,false,1805,image-keyboard-response,9
true,14,1,0,1,true,z,false,true,0.0-2.0-0.58-0.530-3.530,1,1,1,90,false,stim,false,1,358.00000000023283,0,0,2,67495,task1,1435599,false,false,1808,image-keyboard-response,10
true,14,1,0,1,true,z,false,false,0.0-2.0-0.59-0.531-3.531,1,1,1,90,false,stim,false,1,408.0,0,0,2,67495,task1,1437517,false,true,1811,image-keyboard-response,11
true,14,0,0,0,true,q,false,true,0.0-2.0-0.59-0.532-3.532,1,1,1,81,false,stim,false,0,528.0,0,0,0,67495,task1,1439552,false,false,1814,image-keyboard-response,12
true,14,0,0,1,false,z,true,false,0.0-2.0-0.59-0.533-3.533,1,1,1,81,false,stim,false,1,404.00000000023283,0,0,2,67495,task1,1441465,false,false,1817,image-keyboard-response,13
true,15,1,1,0,false,q,false,false,0.0-2.0-0.59-0.534-3.534,0,0,0,90,true,stim,true,1,789.0,0,0,1,67495,task1,1443761,false,false,1820,image-keyboard-response,1
true,15,0,1,2,false,d,false,false,0.0-2.0-0.59-0.535-3.535,0,0,0,81,false,stim,true,0,724.0,0,0,0,67495,task1,1445991,false,false,1823,image-keyboard-response,2
true,15,0,1,2,false,d,false,false,0.0-2.0-0.59-0.536-3.536,0,0,0,81,false,stim,true,0,519.0,0,0,0,67495,task1,1448016,false,false,1826,image-keyboard-response,3
true,15,1,1,2,false,d,false,false,0.0-2.0-0.59-0.537-3.537,0,0,0,90,false,stim,true,1,966.0,0,0,2,67495,task1,1450492,false,false,1829,image-keyboard-response,4
true,15,1,1,0,false,q,false,false,0.0-2.0-0.59-0.538-3.538,0,0,0,90,false,stim,true,1,736.0,0,0,1,67495,task1,1452736,false,false,1832,image-keyboard-response,5
true,15,2,1,0,false,q,true,false,0.0-2.0-0.59-0.539-3.539,0,0,0,68,false,stim,false,1,958.0,0,0,1,67495,task1,1455201,false,false,1835,image-keyboard-response,6
true,15,2,1,2,true,d,false,true,0.0-2.0-0.60-0.540-3.540,0,0,0,68,false,stim,false,1,1132.0,0,0,2,67495,task1,1457842,false,false,1838,image-keyboard-response,7
true,15,0,1,0,true,q,false,true,0.0-2.0-0.60-0.541-3.541,0,0,0,81,false,stim,false,1,512.0,0,0,1,67495,task1,1459864,false,false,1841,image-keyboard-response,8
true,15,1,1,2,false,d,true,false,0.0-2.0-0.60-0.542-3.542,0,0,0,90,false,stim,false,0,395.0,0,0,0,67495,task1,1461766,false,false,1844,image-keyboard-response,9
true,15,2,1,2,true,d,false,true,0.0-2.0-0.60-0.543-3.543,0,0,0,68,false,stim,false,1,648.9999999997672,0,0,2,67495,task1,1463922,false,false,1847,image-keyboard-response,10
true,15,0,1,0,true,q,false,true,0.0-2.0-0.60-0.544-3.544,0,0,0,81,false,stim,false,1,356.0,0,0,1,67495,task1,1465784,false,false,1850,image-keyboard-response,11
true,15,2,1,2,true,d,false,true,0.0-2.0-0.60-0.545-3.545,0,0,0,68,false,stim,false,1,324.0,0,0,2,67495,task1,1467614,false,false,1853,image-keyboard-response,12
true,15,1,1,2,false,d,true,false,0.0-2.0-0.60-0.546-3.546,0,0,0,90,false,stim,false,0,525.0000000002328,0,0,0,67495,task1,1469648,false,false,1856,image-keyboard-response,13
true,15,0,1,0,true,q,false,true,0.0-2.0-0.60-0.547-3.547,0,0,0,81,false,stim,false,1,907.0000000002328,0,0,1,67495,task1,1472062,false,false,1859,image-keyboard-response,14
true,15,0,1,2,false,d,false,false,0.0-2.0-0.60-0.548-3.548,0,0,0,81,false,stim,true,0,609.0,0,0,0,67495,task1,1474179,false,false,1862,image-keyboard-response,15
true,15,2,1,2,true,d,false,true,0.0-2.0-0.61-0.549-3.549,0,0,0,68,false,stim,false,1,611.9999999997672,0,0,2,67495,task1,1476300,false,false,1865,image-keyboard-response,16
true,15,1,1,2,false,d,true,false,0.0-2.0-0.61-0.550-3.550,0,0,0,90,false,stim,false,0,588.0,0,0,0,67495,task1,1478397,false,false,1868,image-keyboard-response,17
true,15,0,1,0,true,q,false,true,0.0-2.0-0.61-0.551-3.551,0,0,0,81,false,stim,false,1,350.00000000023283,0,0,1,67495,task1,1480255,false,false,1871,image-keyboard-response,18
true,15,0,1,0,true,q,false,true,0.0-2.0-0.61-0.552-3.552,0,0,0,81,false,stim,false,1,582.0,0,0,1,67495,task1,1482344,false,false,1874,image-keyboard-response,19
true,15,2,1,2,true,d,false,false,0.0-2.0-0.61-0.553-3.553,0,0,0,68,false,stim,false,1,784.9999999997672,0,0,2,67495,task1,1484635,false,true,1877,image-keyboard-response,20
true,15,0,1,0,true,q,false,true,0.0-2.0-0.61-0.554-3.554,0,0,0,81,false,stim,false,1,680.0,0,0,1,67495,task1,1486824,false,false,1880,image-keyboard-response,21
true,15,1,1,2,false,d,true,false,0.0-2.0-0.61-0.555-3.555,0,0,0,90,false,stim,false,0,827.0,0,0,0,67495,task1,1489158,false,false,1883,image-keyboard-response,22
true,15,2,1,2,true,d,false,true,0.0-2.0-0.61-0.556-3.556,0,0,0,68,false,stim,false,1,608.0,0,0,2,67495,task1,1491273,false,false,1886,image-keyboard-response,23
true,15,1,1,2,false,d,true,false,0.0-2.0-0.61-0.557-3.557,0,0,0,90,false,stim,false,0,566.0,0,0,0,67495,task1,1493347,false,false,1889,image-keyboard-response,24
true,15,2,1,2,true,d,false,true,0.0-2.0-0.62-0.558-3.558,0,0,0,68,false,stim,false,1,577.0,0,0,2,67495,task1,1495434,false,false,1892,image-keyboard-response,25
true,15,0,1,0,true,q,false,false,0.0-2.0-0.62-0.559-3.559,0,0,0,81,false,stim,false,1,867.0,0,0,1,67495,task1,1497808,false,true,1895,image-keyboard-response,26
true,15,2,1,2,true,d,false,false,0.0-2.0-0.62-0.560-3.560,0,0,0,68,false,stim,false,1,578.0,0,0,2,67495,task1,1499893,false,true,1898,image-keyboard-response,27
true,15,1,1,0,false,q,false,false,0.0-2.0-0.62-0.561-3.561,0,0,0,90,false,stim,true,1,695.0,0,0,1,67495,task1,1502106,false,false,1901,image-keyboard-response,28
true,15,0,1,2,false,d,false,true,0.0-2.0-0.62-0.562-3.562,0,0,0,81,false,stim,true,0,881.0,0,0,0,67495,task1,1504494,false,true,1904,image-keyboard-response,29
true,15,2,1,2,true,d,false,true,0.0-2.0-0.62-0.563-3.563,0,0,0,68,false,stim,false,1,527.0,0,0,2,67495,task1,1506528,false,false,1907,image-keyboard-response,30
true,15,0,1,2,false,d,false,false,0.0-2.0-0.62-0.564-3.564,0,0,0,81,false,stim,true,0,699.0,0,0,0,67495,task1,1508734,false,false,1910,image-keyboard-response,31
true,15,1,1,0,false,q,false,false,0.0-2.0-0.62-0.565-3.565,0,0,0,90,false,stim,true,1,574.0,0,0,1,67495,task1,1510818,false,false,1913,image-keyboard-response,32
true,15,0,1,2,false,d,false,false,0.0-2.0-0.62-0.566-3.566,0,0,0,81,false,stim,true,0,424.0,0,0,0,67495,task1,1512750,false,false,1916,image-keyboard-response,33
true,15,2,1,2,true,d,false,true,0.0-2.0-0.63-0.567-3.567,0,0,0,68,false,stim,false,1,688.0,0,0,2,67495,task1,1514946,false,false,1919,image-keyboard-response,34
true,15,1,1,0,false,q,false,false,0.0-2.0-0.63-0.568-3.568,0,0,0,90,false,stim,true,1,649.0,0,0,1,67495,task1,1517103,false,false,1922,image-keyboard-response,35
true,15,2,1,0,false,q,true,false,0.0-2.0-0.63-0.569-3.569,0,0,0,68,false,stim,false,1,482.00000000023283,0,0,1,67495,task1,1519092,false,false,1925,image-keyboard-response,36
true,15,1,1,2,false,d,true,false,0.0-2.0-0.63-0.570-3.570,0,0,0,90,false,stim,false,0,686.0000000002328,0,0,0,67495,task1,1521285,false,false,1928,image-keyboard-response,37
true,15,1,1,2,false,d,true,false,0.0-2.0-0.63-0.571-3.571,0,0,0,90,false,stim,false,0,811.9999999997672,0,0,0,67495,task1,1523606,false,false,1931,image-keyboard-response,38
true,15,0,1,2,false,d,true,false,0.0-2.0-0.63-0.572-3.572,0,0,0,81,false,stim,false,1,527.0000000002328,0,0,2,67495,task1,1525640,false,false,1934,image-keyboard-response,39
true,15,2,1,2,true,d,false,false,0.0-2.0-0.63-0.573-3.573,0,0,0,68,false,stim,false,1,407.00000000023283,0,0,2,67495,task1,1527554,false,true,1937,image-keyboard-response,40
true,15,2,1,2,true,d,false,true,0.0-2.0-0.63-0.574-3.574,0,0,0,68,false,stim,false,0,849.0000000002328,0,0,0,67495,task1,1529910,false,false,1940,image-keyboard-response,41
true,16,1,2,1,true,z,false,true,0.0-2.0-0.63-0.575-3.575,0,0,0,90,true,stim,false,0,432.00000000023283,0,0,1,67495,task1,1531852,false,false,1943,image-keyboard-response,1
true,16,2,2,0,false,q,false,false,0.0-2.0-0.64-0.576-3.576,0,0,0,68,false,stim,true,2,1388.0,0,0,0,67495,task1,1534749,false,false,1946,image-keyboard-response,2
true,16,2,2,0,false,q,false,false,0.0-2.0-0.64-0.577-3.577,0,0,0,68,false,stim,true,2,450.0,0,0,0,67495,task1,1536706,false,false,1949,image-keyboard-response,3
true,16,2,2,1,false,z,false,false,0.0-2.0-0.64-0.578-3.578,0,0,0,68,false,stim,true,2,1172.0,0,0,2,67495,task1,1539384,false,false,1952,image-keyboard-response,4
true,16,1,2,1,true,z,false,true,0.0-2.0-0.64-0.579-3.579,0,0,0,90,false,stim,false,0,2495.999999999767,0,0,1,67495,task1,1543387,false,false,1955,image-keyboard-response,5
true,16,0,2,1,false,z,true,false,0.0-2.0-0.64-0.580-3.580,0,0,0,81,false,stim,false,2,939.0000000002328,0,0,2,67495,task1,1545834,false,false,1958,image-keyboard-response,6
true,16,1,2,1,true,z,false,true,0.0-2.0-0.64-0.581-3.581,0,0,0,90,false,stim,false,2,388.0,0,0,2,67495,task1,1547728,false,false,1961,image-keyboard-response,7
true,16,2,2,0,false,q,false,false,0.0-2.0-0.64-0.582-3.582,0,0,0,68,false,stim,true,2,685.0,0,0,0,67495,task1,1549922,false,false,1964,image-keyboard-response,8
true,16,1,2,1,true,z,false,true,0.0-2.0-0.64-0.583-3.583,0,0,0,90,false,stim,false,0,687.0,0,0,1,67495,task1,1552114,false,false,1967,image-keyboard-response,9
true,16,1,2,1,true,z,false,true,0.0-2.0-0.64-0.584-3.584,0,0,0,90,false,stim,false,0,338.99999999976717,0,0,1,67495,task1,1553960,false,false,1970,image-keyboard-response,10
true,16,1,2,0,false,q,true,false,0.0-2.0-0.65-0.585-3.585,0,0,0,90,false,stim,false,2,399.0,0,0,0,67495,task1,1555868,false,false,1973,image-keyboard-response,11
true,16,1,2,0,false,q,true,false,0.0-2.0-0.65-0.586-3.586,0,0,0,90,false,stim,false,2,355.0,0,0,0,67495,task1,1557731,false,false,1976,image-keyboard-response,12
true,16,1,2,1,true,z,false,true,0.0-2.0-0.65-0.587-3.587,0,0,0,90,false,stim,false,2,421.0,0,0,2,67495,task1,1559662,false,false,1979,image-keyboard-response,13
true,16,1,2,1,true,z,false,true,0.0-2.0-0.65-0.588-3.588,0,0,0,90,false,stim,false,0,423.0,0,0,1,67495,task1,1561592,false,false,1982,image-keyboard-response,14
true,16,1,2,1,true,z,false,true,0.0-2.0-0.65-0.589-3.589,0,0,0,90,false,stim,false,0,362.0,0,0,1,67495,task1,1563460,false,false,1985,image-keyboard-response,15
true,16,0,2,0,true,q,false,true,0.0-2.0-0.65-0.590-3.590,0,0,0,81,false,stim,false,2,722.0000000002328,0,0,0,67495,task1,1565689,false,false,1988,image-keyboard-response,16
true,16,1,2,1,true,z,false,true,0.0-2.0-0.65-0.591-3.591,0,0,0,90,false,stim,false,2,443.0,0,0,2,67495,task1,1567640,false,false,1991,image-keyboard-response,17
true,16,1,2,1,true,z,false,true,0.0-2.0-0.65-0.592-3.592,0,0,0,90,false,stim,false,2,393.0,0,0,2,67495,task1,1569543,false,false,1994,image-keyboard-response,18
true,16,1,2,1,true,z,false,false,0.0-2.0-0.65-0.593-3.593,0,0,0,90,false,stim,false,0,413.0,0,0,1,67495,task1,1571463,false,true,1997,image-keyboard-response,19
true,16,1,2,1,true,z,false,true,0.0-2.0-0.66-0.594-3.594,0,0,0,90,false,stim,false,0,533.0,0,0,1,67495,task1,1573505,false,false,2000,image-keyboard-response,20
true,16,0,2,0,true,q,false,true,0.0-2.0-0.66-0.595-3.595,0,0,0,81,false,stim,false,2,566.0,0,0,0,67495,task1,1575586,false,false,2003,image-keyboard-response,21
true,16,1,2,1,true,z,false,true,0.0-2.0-0.66-0.596-3.596,0,0,0,90,false,stim,false,0,572.9999999997672,0,0,1,67495,task1,1577667,false,false,2006,image-keyboard-response,22
true,16,0,2,0,true,q,false,false,0.0-2.0-0.66-0.597-3.597,0,0,0,81,false,stim,false,2,608.0,0,0,0,67495,task1,1579783,false,true,2009,image-keyboard-response,23
true,16,1,2,1,true,z,false,true,0.0-2.0-0.66-0.598-3.598,0,0,0,90,false,stim,false,2,538.0,0,0,2,67495,task1,1581831,false,false,2012,image-keyboard-response,24
true,16,1,2,1,true,z,false,true,0.0-2.0-0.66-0.599-3.599,0,0,0,90,false,stim,false,2,372.0,0,0,2,67495,task1,1583711,false,false,2015,image-keyboard-response,25
true,16,1,2,1,true,z,false,true,0.0-2.0-0.66-0.600-3.600,0,0,0,90,false,stim,false,2,311.0,0,0,2,67495,task1,1585529,false,false,2018,image-keyboard-response,26
true,16,1,2,1,true,z,false,true,0.0-2.0-0.66-0.601-3.601,0,0,0,90,false,stim,false,0,361.0,0,0,1,67495,task1,1587397,false,false,2021,image-keyboard-response,27
true,16,0,2,0,true,q,false,true,0.0-2.0-0.66-0.602-3.602,0,0,0,81,false,stim,false,2,580.0,0,0,0,67495,task1,1589484,false,false,2024,image-keyboard-response,28
true,16,1,2,0,false,q,true,false,0.0-2.0-0.67-0.603-3.603,0,0,0,90,false,stim,false,2,336.0,0,0,0,67495,task1,1591329,false,false,2027,image-keyboard-response,29
true,16,1,2,1,true,z,false,true,0.0-2.0-0.67-0.604-3.604,0,0,0,90,false,stim,false,2,423.0,0,0,2,67495,task1,1593260,false,false,2030,image-keyboard-response,30
true,16,1,2,1,true,z,false,false,0.0-2.0-0.67-0.605-3.605,0,0,0,90,false,stim,false,0,676.9999999997672,0,0,1,67495,task1,1595444,false,true,2033,image-keyboard-response,31
true,16,1,2,0,false,q,true,true,0.0-2.0-0.67-0.606-3.606,0,0,0,90,false,stim,false,2,637.9999999997672,0,0,0,67495,task1,1597588,false,true,2036,image-keyboard-response,32
true,16,1,2,1,true,z,false,true,0.0-2.0-0.67-0.607-3.607,0,0,0,90,false,stim,false,0,651.0000000002328,0,0,1,67495,task1,1599748,false,false,2039,image-keyboard-response,33
true,16,1,2,0,false,q,true,false,0.0-2.0-0.67-0.608-3.608,0,0,0,90,false,stim,false,2,512.0000000002328,0,0,0,67495,task1,1601768,false,false,2042,image-keyboard-response,34
true,16,1,2,1,true,z,false,false,0.0-2.0-0.67-0.609-3.609,0,0,0,90,false,stim,false,2,1611.0,0,0,2,67495,task1,1604885,false,true,2045,image-keyboard-response,35
true,16,2,2,1,false,z,false,false,0.0-2.0-0.67-0.610-3.610,0,0,0,68,false,stim,true,2,420.99999999976717,0,0,2,67495,task1,1606813,false,false,2048,image-keyboard-response,36
true,16,1,2,1,true,z,false,true,0.0-2.0-0.67-0.611-3.611,0,0,0,90,false,stim,false,0,613.0,0,0,1,67495,task1,1608933,false,false,2051,image-keyboard-response,37
true,16,1,2,0,false,q,true,false,0.0-2.0-0.68-0.612-3.612,0,0,0,90,false,stim,false,2,1013.0,0,0,0,67495,task1,1611457,false,false,2054,image-keyboard-response,38
true,16,0,2,1,false,z,true,false,0.0-2.0-0.68-0.613-3.613,0,0,0,81,false,stim,false,2,1045.0,0,0,2,67495,task1,1614010,false,false,2057,image-keyboard-response,39
true,16,0,2,0,true,q,false,true,0.0-2.0-0.68-0.614-3.614,0,0,0,81,false,stim,false,2,728.9999999997672,0,0,0,67495,task1,1616247,false,false,2060,image-keyboard-response,40
true,16,0,2,1,false,z,true,false,0.0-2.0-0.68-0.615-3.615,0,0,0,81,false,stim,false,2,788.0,0,0,2,67495,task1,1618543,false,false,2063,image-keyboard-response,41
true,16,0,2,0,true,q,false,true,0.0-2.0-0.68-0.616-3.616,0,0,0,81,false,stim,false,2,498.0,0,0,0,67495,task1,1620551,false,false,2066,image-keyboard-response,42
