answered,blockNum,choice,condition,corResp,correct,correct_response,explo,fb,internal_node_id,isStable_1,isStable_2,isStable_3,key_press,newBlock,part,persev,persevResp,rt,sessNum,stableAS,stimulus,subject,task,time_elapsed,training,trap,trial_index,trial_type,trialsInBlock
true,1,1,0,2,false,d,true,false,0.0-2.0-0.0-0.0-3.0,0,0,0,90,true,stim,false,-1,636.0000000000146,1,0,2,67495,task3,92350,false,false,103,image-keyboard-response,1
true,1,0,0,2,false,d,true,false,0.0-2.0-0.0-0.1-3.1,0,0,0,81,false,stim,false,-1,478.0,1,0,2,67495,task3,94333,false,false,106,image-keyboard-response,2
true,1,0,0,2,false,d,true,false,0.0-2.0-0.0-0.2-3.2,0,0,0,81,false,stim,false,-1,767.9999999999854,1,0,0,67495,task3,96607,false,false,109,image-keyboard-response,3
true,1,1,0,0,false,q,true,false,0.0-2.0-0.0-0.3-3.3,0,0,0,90,false,stim,false,-1,743.0,1,0,1,67495,task3,98856,false,false,112,image-keyboard-response,4
true,1,2,0,2,true,d,false,true,0.0-2.0-0.0-0.4-3.4,0,0,0,68,false,stim,false,-1,367.0,1,0,2,67495,task3,100728,false,false,115,image-keyboard-response,5
true,1,0,0,0,true,q,false,true,0.0-2.0-0.0-0.5-3.5,0,0,0,81,false,stim,false,-1,417.0,1,0,1,67495,task3,102651,false,false,118,image-keyboard-response,6
true,1,0,0,0,true,q,false,true,0.0-2.0-0.0-0.6-3.6,0,0,0,81,false,stim,false,-1,647.0,1,0,1,67495,task3,104803,false,false,121,image-keyboard-response,7
true,1,1,0,2,false,d,true,false,0.0-2.0-0.0-0.7-3.7,0,0,0,90,false,stim,false,-1,452.0,1,0,0,67495,task3,106760,false,false,124,image-keyboard-response,8
true,1,0,0,2,false,d,true,false,0.0-2.0-0.0-0.8-3.8,0,0,0,81,false,stim,false,-1,544.0000000000146,1,0,0,67495,task3,108808,false,false,127,image-keyboard-response,9
true,1,2,0,2,true,d,false,false,0.0-2.0-0.1-0.9-3.9,0,0,0,68,false,stim,false,-1,977.9999999999854,1,0,2,67495,task3,111293,false,true,130,image-keyboard-response,10
true,1,2,0,2,true,d,false,true,0.0-2.0-0.1-0.10-3.10,0,0,0,68,false,stim,false,-1,426.0,1,0,2,67495,task3,113224,false,false,133,image-keyboard-response,11
true,1,0,0,0,true,q,false,true,0.0-2.0-0.1-0.11-3.11,0,0,0,81,false,stim,false,-1,331.00000000001455,1,0,1,67495,task3,115062,false,false,136,image-keyboard-response,12
true,1,2,0,0,false,q,true,false,0.0-2.0-0.1-0.12-3.12,0,0,0,68,false,stim,false,-1,358.0,1,0,1,67495,task3,116925,false,false,139,image-keyboard-response,13
true,1,0,0,0,true,q,false,true,0.0-2.0-0.1-0.13-3.13,0,0,0,81,false,stim,false,-1,547.0,1,0,1,67495,task3,118978,false,false,142,image-keyboard-response,14
true,1,2,0,2,true,d,false,true,0.0-2.0-0.1-0.14-3.14,0,0,0,68,false,stim,false,-1,665.0,1,0,0,67495,task3,121149,false,false,145,image-keyboard-response,15
true,1,2,0,2,true,d,false,true,0.0-2.0-0.1-0.15-3.15,0,0,0,68,false,stim,false,-1,508.0,1,0,0,67495,task3,123162,false,false,148,image-keyboard-response,16
true,1,2,0,2,true,d,false,true,0.0-2.0-0.1-0.16-3.16,0,0,0,68,false,stim,false,-1,446.00000000001455,1,0,0,67495,task3,125113,false,false,151,image-keyboard-response,17
true,1,2,0,2,true,d,false,true,0.0-2.0-0.1-0.17-3.17,0,0,0,68,false,stim,false,-1,642.0000000000291,1,0,2,67495,task3,127260,false,false,154,image-keyboard-response,18
true,1,2,0,2,true,d,false,true,0.0-2.0-0.2-0.18-3.18,0,0,0,68,false,stim,false,-1,557.0,1,0,0,67495,task3,129322,false,false,157,image-keyboard-response,19
true,1,2,0,0,false,q,true,false,0.0-2.0-0.2-0.19-3.19,0,0,0,68,false,stim,false,-1,682.0,1,0,1,67495,task3,131509,false,false,160,image-keyboard-response,20
true,1,2,0,2,true,d,false,true,0.0-2.0-0.2-0.20-3.20,0,0,0,68,false,stim,false,-1,550.0,1,0,2,67495,task3,133565,false,false,163,image-keyboard-response,21
true,1,2,0,2,true,d,false,true,0.0-2.0-0.2-0.21-3.21,0,0,0,68,false,stim,false,-1,434.0000000000291,1,0,2,67495,task3,135505,false,false,166,image-keyboard-response,22
true,1,2,0,2,true,d,false,true,0.0-2.0-0.2-0.22-3.22,0,0,0,68,false,stim,false,-1,576.0,1,0,2,67495,task3,137586,false,false,169,image-keyboard-response,23
true,1,2,0,2,true,d,false,true,0.0-2.0-0.2-0.23-3.23,0,0,0,68,false,stim,false,-1,633.0,1,1,0,67495,task3,139725,false,false,172,image-keyboard-response,24
true,1,0,0,0,true,q,false,true,0.0-2.0-0.2-0.24-3.24,0,0,0,81,false,stim,false,-1,519.0,1,0,1,67495,task3,141748,false,false,175,image-keyboard-response,25
true,2,0,1,2,false,d,false,false,0.0-2.0-0.2-0.25-3.25,1,0,0,81,true,stim,true,0,388.0000000000291,1,0,1,67495,task3,143642,false,false,178,image-keyboard-response,1
true,2,2,1,2,true,d,false,true,0.0-2.0-0.2-0.26-3.26,1,0,0,68,false,stim,false,2,709.9999999999709,1,1,0,67495,task3,145858,false,false,181,image-keyboard-response,2
true,2,2,1,0,false,q,false,false,0.0-2.0-0.3-0.27-3.27,1,0,0,68,false,stim,true,2,371.0,1,0,2,67495,task3,147735,false,false,184,image-keyboard-response,3
true,2,0,1,2,false,d,false,false,0.0-2.0-0.3-0.28-3.28,1,0,0,81,false,stim,true,0,1024.0,1,0,1,67495,task3,150264,false,false,187,image-keyboard-response,4
true,2,1,1,2,false,d,true,false,0.0-2.0-0.3-0.29-3.29,1,0,0,90,false,stim,false,2,1308.0,1,1,0,67495,task3,153078,false,false,190,image-keyboard-response,5
true,2,1,1,2,false,d,true,false,0.0-2.0-0.3-0.30-3.30,1,0,0,90,false,stim,false,0,665.0,1,0,1,67495,task3,155249,false,false,193,image-keyboard-response,6
true,2,2,1,2,true,d,false,true,0.0-2.0-0.3-0.31-3.31,1,0,0,68,false,stim,false,2,675.9999999999709,1,1,0,67495,task3,157431,false,false,196,image-keyboard-response,7
true,2,2,1,2,true,d,false,true,0.0-2.0-0.3-0.32-3.32,1,0,0,68,false,stim,false,2,918.0,1,1,0,67495,task3,159855,false,false,199,image-keyboard-response,8
true,2,2,1,0,false,q,false,false,0.0-2.0-0.3-0.33-3.33,1,0,0,68,false,stim,true,2,995.0,1,0,2,67495,task3,162358,false,false,202,image-keyboard-response,9
true,2,1,1,0,false,q,true,false,0.0-2.0-0.3-0.34-3.34,1,0,0,90,false,stim,false,2,623.0,1,0,2,67495,task3,164487,false,false,205,image-keyboard-response,10
true,2,1,1,2,false,d,true,false,0.0-2.0-0.3-0.35-3.35,1,0,0,90,false,stim,false,0,1052.0,1,0,1,67495,task3,167044,false,false,208,image-keyboard-response,11
true,2,2,1,2,true,d,false,false,0.0-2.0-0.4-0.36-3.36,1,0,0,68,false,stim,false,2,441.0,1,1,0,67495,task3,168991,false,true,211,image-keyboard-response,12
true,2,0,1,2,false,d,false,false,0.0-2.0-0.4-0.37-3.37,1,0,0,81,false,stim,true,0,462.0000000000291,1,0,1,67495,task3,170959,false,false,214,image-keyboard-response,13
true,2,2,1,0,false,q,false,false,0.0-2.0-0.4-0.38-3.38,1,0,0,68,false,stim,true,2,1096.0,1,0,2,67495,task3,173561,false,false,217,image-keyboard-response,14
true,2,2,1,2,true,d,false,false,0.0-2.0-0.4-0.39-3.39,1,0,0,68,false,stim,false,0,787.0,1,0,1,67495,task3,175854,false,true,220,image-keyboard-response,15
true,2,2,1,2,true,d,false,true,0.0-2.0-0.4-0.40-3.40,1,0,0,68,false,stim,false,2,637.0,1,1,0,67495,task3,177996,false,false,223,image-keyboard-response,16
true,2,2,1,2,true,d,false,false,0.0-2.0-0.4-0.41-3.41,1,0,0,68,false,stim,false,2,650.0,1,1,0,67495,task3,180150,false,true,226,image-keyboard-response,17
true,2,1,1,0,false,q,true,false,0.0-2.0-0.4-0.42-3.42,1,0,0,90,false,stim,false,2,478.0,1,0,2,67495,task3,182133,false,false,229,image-keyboard-response,18
true,2,1,1,0,false,q,true,false,0.0-2.0-0.4-0.43-3.43,1,0,0,90,false,stim,false,2,505.0,1,0,2,67495,task3,184143,false,false,232,image-keyboard-response,19
true,2,0,1,2,false,d,false,false,0.0-2.0-0.4-0.44-3.44,1,0,0,81,false,stim,true,0,1248.999999999971,1,0,1,67495,task3,186898,false,false,235,image-keyboard-response,20
true,2,0,1,2,false,d,false,true,0.0-2.0-0.5-0.45-3.45,1,0,0,81,false,stim,true,0,438.0,1,0,1,67495,task3,188840,false,true,238,image-keyboard-response,21
true,2,2,1,0,false,q,false,false,0.0-2.0-0.5-0.46-3.46,1,0,0,68,false,stim,true,2,817.0,1,0,2,67495,task3,191162,false,false,241,image-keyboard-response,22
true,2,1,1,0,false,q,true,false,0.0-2.0-0.5-0.47-3.47,1,0,0,90,false,stim,false,2,493.0,1,0,2,67495,task3,193157,false,false,244,image-keyboard-response,23
true,2,0,1,0,true,q,false,false,0.0-2.0-0.5-0.48-3.48,1,0,0,81,false,stim,false,2,437.0,1,0,2,67495,task3,195097,false,true,247,image-keyboard-response,24
true,2,1,1,2,false,d,true,true,0.0-2.0-0.5-0.49-3.49,1,0,0,90,false,stim,false,2,925.0000000000291,1,1,0,67495,task3,197525,false,true,250,image-keyboard-response,25
true,2,1,1,2,false,d,true,false,0.0-2.0-0.5-0.50-3.50,1,0,0,90,false,stim,false,2,393.0,1,1,0,67495,task3,199420,false,false,253,image-keyboard-response,26
true,2,1,1,2,false,d,true,false,0.0-2.0-0.5-0.51-3.51,1,0,0,90,false,stim,false,2,361.0,1,1,0,67495,task3,201285,false,false,256,image-keyboard-response,27
true,2,2,1,2,true,d,false,true,0.0-2.0-0.5-0.52-3.52,1,0,0,68,false,stim,false,0,678.0,1,1,1,67495,task3,203467,false,false,259,image-keyboard-response,28
true,3,2,2,2,true,d,false,true,0.0-2.0-0.5-0.53-3.53,1,1,0,68,true,stim,false,2,557.0,1,1,1,67495,task3,205527,false,false,262,image-keyboard-response,1
true,3,2,2,1,false,z,true,false,0.0-2.0-0.6-0.54-3.54,1,1,0,68,false,stim,false,0,812.0,1,0,2,67495,task3,207845,false,false,265,image-keyboard-response,2
true,3,2,2,2,true,d,false,true,0.0-2.0-0.6-0.55-3.55,1,1,0,68,false,stim,false,2,1152.0,1,1,0,67495,task3,210503,false,false,268,image-keyboard-response,3
true,3,2,2,2,true,d,false,true,0.0-2.0-0.6-0.56-3.56,1,1,0,68,false,stim,false,2,424.0,1,1,1,67495,task3,212433,false,false,271,image-keyboard-response,4
true,3,2,2,2,true,d,false,true,0.0-2.0-0.6-0.57-3.57,1,1,0,68,false,stim,false,2,350.0,1,1,0,67495,task3,214289,false,false,274,image-keyboard-response,5
true,3,0,2,1,false,z,false,false,0.0-2.0-0.6-0.58-3.58,1,1,0,81,false,stim,true,0,835.0,1,0,2,67495,task3,216629,false,false,277,image-keyboard-response,6
true,3,2,2,2,true,d,false,true,0.0-2.0-0.6-0.59-3.59,1,1,0,68,false,stim,false,2,879.0,1,1,1,67495,task3,219013,false,false,280,image-keyboard-response,7
true,3,2,2,2,true,d,false,true,0.0-2.0-0.6-0.60-3.60,1,1,0,68,false,stim,false,2,401.9999999999709,1,1,1,67495,task3,220920,false,false,283,image-keyboard-response,8
true,3,1,2,1,true,z,false,true,0.0-2.0-0.6-0.61-3.61,1,1,0,90,false,stim,false,0,550.0,1,0,2,67495,task3,222975,false,false,286,image-keyboard-response,9
true,3,2,2,2,true,d,false,true,0.0-2.0-0.6-0.62-3.62,1,1,0,68,false,stim,false,2,568.0000000000291,1,1,0,67495,task3,225049,false,false,289,image-keyboard-response,10
true,3,2,2,2,true,d,false,true,0.0-2.0-0.7-0.63-3.63,1,1,0,68,false,stim,false,2,1327.999999999971,1,1,0,67495,task3,227883,false,false,292,image-keyboard-response,11
true,3,1,2,2,false,d,true,false,0.0-2.0-0.7-0.64-3.64,1,1,0,90,false,stim,false,2,670.0,1,0,1,67495,task3,230059,false,false,295,image-keyboard-response,12
true,3,2,2,2,true,d,false,true,0.0-2.0-0.7-0.65-3.65,1,1,0,68,false,stim,false,2,501.0,1,0,1,67495,task3,232066,false,false,298,image-keyboard-response,13
true,3,1,2,1,true,z,false,false,0.0-2.0-0.7-0.66-3.66,1,1,0,90,false,stim,false,0,615.0,1,1,2,67495,task3,234189,false,true,301,image-keyboard-response,14
true,4,2,2,0,false,q,false,false,0.0-2.0-0.7-0.67-3.67,1,0,1,68,true,stim,true,2,689.0,1,0,1,67495,task3,236383,false,false,304,image-keyboard-response,1
true,4,2,2,2,true,d,false,true,0.0-2.0-0.7-0.68-3.68,1,0,1,68,false,stim,false,2,798.9999999999709,1,1,0,67495,task3,238687,false,false,307,image-keyboard-response,2
true,4,1,2,1,true,z,false,true,0.0-2.0-0.7-0.69-3.69,1,0,1,90,false,stim,false,1,1055.000000000029,1,1,2,67495,task3,241246,false,false,310,image-keyboard-response,3
true,4,1,2,1,true,z,false,true,0.0-2.0-0.7-0.70-3.70,1,0,1,90,false,stim,false,1,501.0000000000291,1,1,2,67495,task3,243253,false,false,313,image-keyboard-response,4
true,4,2,2,2,true,d,false,true,0.0-2.0-0.7-0.71-3.71,1,0,1,68,false,stim,false,2,597.0,1,1,0,67495,task3,245356,false,false,316,image-keyboard-response,5
true,4,2,2,0,false,q,false,false,0.0-2.0-0.8-0.72-3.72,1,0,1,68,false,stim,true,2,398.0,1,0,1,67495,task3,247260,false,false,319,image-keyboard-response,6
true,4,1,2,1,true,z,false,true,0.0-2.0-0.8-0.73-3.73,1,0,1,90,false,stim,false,1,848.0,1,1,2,67495,task3,249614,false,false,322,image-keyboard-response,7
true,4,2,2,2,true,d,false,true,0.0-2.0-0.8-0.74-3.74,1,0,1,68,false,stim,false,2,2074.000000000029,1,0,0,67495,task3,253193,false,false,325,image-keyboard-response,8
true,4,0,2,0,true,q,false,true,0.0-2.0-0.8-0.75-3.75,1,0,1,81,false,stim,false,2,466.9999999999709,1,1,1,67495,task3,255166,false,false,328,image-keyboard-response,9
true,4,1,2,2,false,d,true,false,0.0-2.0-0.8-0.76-3.76,1,0,1,90,false,stim,false,2,1854.999999999971,1,0,0,67495,task3,258527,false,false,331,image-keyboard-response,10
true,4,0,2,0,true,q,false,true,0.0-2.0-0.8-0.77-3.77,1,0,1,81,false,stim,false,2,634.0,1,1,1,67495,task3,260666,false,false,334,image-keyboard-response,11
true,4,2,2,2,true,d,false,true,0.0-2.0-0.8-0.78-3.78,1,0,1,68,false,stim,false,2,515.9999999999418,1,0,0,67495,task3,262688,false,false,337,image-keyboard-response,12
true,5,1,2,1,true,z,false,true,0.0-2.0-0.8-0.79-3.79,0,1,1,90,true,stim,false,1,624.0,1,1,2,67495,task3,264817,false,false,340,image-keyboard-response,1
true,5,1,2,1,true,z,false,true,0.0-2.0-0.8-0.80-3.80,0,1,1,90,false,stim,false,1,580.0,1,1,2,67495,task3,266902,false,false,343,image-keyboard-response,2
true,5,2,2,1,false,z,false,false,0.0-2.0-0.9-0.81-3.81,0,1,1,68,false,stim,true,2,665.0,1,0,0,67495,task3,269072,false,false,346,image-keyboard-response,3
true,5,0,2,0,true,q,false,true,0.0-2.0-0.9-0.82-3.82,0,1,1,81,false,stim,false,0,598.0,1,1,1,67495,task3,271176,false,false,349,image-keyboard-response,4
true,5,1,2,1,true,z,false,true,0.0-2.0-0.9-0.83-3.83,0,1,1,90,false,stim,false,1,1099.0,1,1,2,67495,task3,273780,false,false,352,image-keyboard-response,5
true,5,0,2,0,true,q,false,true,0.0-2.0-0.9-0.84-3.84,0,1,1,81,false,stim,false,0,1180.9999999999418,1,1,1,67495,task3,276466,false,false,355,image-keyboard-response,6
true,5,1,2,1,true,z,false,true,0.0-2.0-0.9-0.85-3.85,0,1,1,90,false,stim,false,1,561.0,1,0,2,67495,task3,278533,false,false,358,image-keyboard-response,7
true,5,1,2,1,true,z,false,true,0.0-2.0-0.9-0.86-3.86,0,1,1,90,false,stim,false,1,933.0,1,0,2,67495,task3,280973,false,false,361,image-keyboard-response,8
true,5,2,2,1,false,z,false,true,0.0-2.0-0.9-0.87-3.87,0,1,1,68,false,stim,true,2,548.0,1,1,0,67495,task3,283026,false,true,364,image-keyboard-response,9
true,5,2,2,1,false,z,false,false,0.0-2.0-0.9-0.88-3.88,0,1,1,68,false,stim,true,2,537.0,1,1,0,67495,task3,285068,false,false,367,image-keyboard-response,10
true,5,0,2,0,true,q,false,true,0.0-2.0-0.9-0.89-3.89,0,1,1,81,false,stim,false,0,506.0,1,1,1,67495,task3,287079,false,false,370,image-keyboard-response,11
true,6,2,2,1,false,z,true,false,0.0-2.0-0.10-0.90-3.90,1,1,0,68,true,stim,false,1,874.0000000000582,1,1,0,67495,task3,289459,false,false,373,image-keyboard-response,1
true,6,1,2,2,false,d,false,false,0.0-2.0-0.10-0.91-3.91,1,1,0,90,false,stim,true,1,648.0,1,0,2,67495,task3,291613,false,false,376,image-keyboard-response,2
true,6,0,2,1,false,z,true,false,0.0-2.0-0.10-0.92-3.92,1,1,0,81,false,stim,false,1,497.0,1,1,0,67495,task3,293616,false,false,379,image-keyboard-response,3
true,6,1,2,1,true,z,false,true,0.0-2.0-0.10-0.93-3.93,1,1,0,90,false,stim,false,1,385.0000000000582,1,1,0,67495,task3,295507,false,false,382,image-keyboard-response,4
true,6,0,2,0,true,q,false,false,0.0-2.0-0.10-0.94-3.94,1,1,0,81,false,stim,false,0,531.0,1,1,1,67495,task3,297543,false,true,385,image-keyboard-response,5
true,6,2,2,2,true,d,false,true,0.0-2.0-0.10-0.95-3.95,1,1,0,68,false,stim,false,1,743.9999999999418,1,0,2,67495,task3,299792,false,false,388,image-keyboard-response,6
true,6,2,2,0,false,q,true,false,0.0-2.0-0.10-0.96-3.96,1,1,0,68,false,stim,false,0,813.9999999999418,1,1,1,67495,task3,302112,false,false,391,image-keyboard-response,7
true,6,1,2,0,false,q,true,false,0.0-2.0-0.10-0.97-3.97,1,1,0,90,false,stim,false,0,382.0,1,1,1,67495,task3,303999,false,false,394,image-keyboard-response,8
true,6,2,2,2,true,d,false,true,0.0-2.0-0.10-0.98-3.98,1,1,0,68,false,stim,false,1,460.0,1,0,2,67495,task3,305964,false,false,397,image-keyboard-response,9
true,6,2,2,2,true,d,false,true,0.0-2.0-0.11-0.99-3.99,1,1,0,68,false,stim,false,1,787.0,1,0,2,67495,task3,308256,false,false,400,image-keyboard-response,10
true,6,0,2,1,false,z,true,false,0.0-2.0-0.11-0.100-3.100,1,1,0,81,false,stim,false,1,694.0000000000582,1,1,0,67495,task3,310459,false,false,403,image-keyboard-response,11
true,6,2,2,2,true,d,false,true,0.0-2.0-0.11-0.101-3.101,1,1,0,68,false,stim,false,1,802.0,1,0,2,67495,task3,312767,false,false,406,image-keyboard-response,12
true,6,0,2,0,true,q,false,true,0.0-2.0-0.11-0.102-3.102,1,1,0,81,false,stim,false,0,699.0,1,1,1,67495,task3,314972,false,false,409,image-keyboard-response,13
true,6,2,2,2,true,d,false,true,0.0-2.0-0.11-0.103-3.103,1,1,0,68,false,stim,false,1,524.0,1,0,2,67495,task3,317002,false,false,412,image-keyboard-response,14
true,6,1,2,1,true,z,false,true,0.0-2.0-0.11-0.104-3.104,1,1,0,90,false,stim,false,1,599.9999999999418,1,1,0,67495,task3,319107,false,false,415,image-keyboard-response,15
true,6,1,2,1,true,z,false,true,0.0-2.0-0.11-0.105-3.105,1,1,0,90,false,stim,false,1,402.0,1,1,0,67495,task3,321013,false,false,418,image-keyboard-response,16
true,6,0,2,0,true,q,false,true,0.0-2.0-0.11-0.106-3.106,1,1,0,81,false,stim,false,0,757.0,1,1,1,67495,task3,323275,false,false,421,image-keyboard-response,17
true,6,0,2,0,true,q,false,true,0.0-2.0-0.11-0.107-3.107,1,1,0,81,false,stim,false,0,610.0,1,1,1,67495,task3,325391,false,false,424,image-keyboard-response,18
true,6,0,2,0,true,q,false,true,0.0-2.0-0.12-0.108-3.108,1,1,0,81,false,stim,false,0,447.0,1,1,1,67495,task3,327344,false,false,427,image-keyboard-response,19
true,6,1,2,1,true,z,false,true,0.0-2.0-0.12-0.109-3.109,1,1,0,90,false,stim,false,1,661.0,1,1,0,67495,task3,329511,false,false,430,image-keyboard-response,20
true,6,2,2,2,true,d,false,true,0.0-2.0-0.12-0.110-3.110,1,1,0,68,false,stim,false,1,556.0000000000582,1,0,2,67495,task3,331573,false,false,433,image-keyboard-response,21
true,6,1,2,0,false,q,true,false,0.0-2.0-0.12-0.111-3.111,1,1,0,90,false,stim,false,0,591.0,1,1,1,67495,task3,333670,false,false,436,image-keyboard-response,22
true,6,1,2,1,true,z,false,true,0.0-2.0-0.12-0.112-3.112,1,1,0,90,false,stim,false,1,386.0,1,1,0,67495,task3,335562,false,false,439,image-keyboard-response,23
true,7,2,2,0,false,q,false,false,0.0-2.0-0.12-0.113-3.113,1,1,0,68,true,stim,true,2,516.0,1,0,2,67495,task3,337583,false,false,442,image-keyboard-response,1
true,7,0,2,0,true,q,false,false,0.0-2.0-0.12-0.114-3.114,1,1,0,81,false,stim,false,0,746.0000000000582,1,1,1,67495,task3,339835,false,true,445,image-keyboard-response,2
true,7,2,2,0,false,q,false,false,0.0-2.0-0.12-0.115-3.115,1,1,0,68,false,stim,true,2,825.0,1,0,2,67495,task3,342165,false,false,448,image-keyboard-response,3
true,7,1,2,1,true,z,false,true,0.0-2.0-0.12-0.116-3.116,1,1,0,90,false,stim,false,1,664.0,1,1,0,67495,task3,344334,false,false,451,image-keyboard-response,4
true,7,1,2,0,false,q,true,false,0.0-2.0-0.13-0.117-3.117,1,1,0,90,false,stim,false,0,898.0,1,1,1,67495,task3,346740,false,false,454,image-keyboard-response,5
true,7,2,2,0,false,q,false,false,0.0-2.0-0.13-0.118-3.118,1,1,0,68,false,stim,true,2,587.0,1,0,2,67495,task3,348831,false,false,457,image-keyboard-response,6
true,7,1,2,1,true,z,false,true,0.0-2.0-0.13-0.119-3.119,1,1,0,90,false,stim,false,1,1075.0000000000582,1,1,0,67495,task3,351412,false,false,460,image-keyboard-response,7
true,7,1,2,1,true,z,false,true,0.0-2.0-0.13-0.120-3.120,1,1,0,90,false,stim,false,1,598.0,1,1,0,67495,task3,353515,false,false,463,image-keyboard-response,8
true,7,1,2,0,false,q,true,true,0.0-2.0-0.13-0.121-3.121,1,1,0,90,false,stim,false,2,975.0000000000582,1,0,2,67495,task3,355996,false,true,466,image-keyboard-response,9
true,7,0,2,0,true,q,false,true,0.0-2.0-0.13-0.122-3.122,1,1,0,81,false,stim,false,0,1107.0,1,1,1,67495,task3,358608,false,false,469,image-keyboard-response,10
true,7,1,2,0,false,q,true,false,0.0-2.0-0.13-0.123-3.123,1,1,0,90,false,stim,false,2,433.0,1,0,2,67495,task3,360548,false,false,472,image-keyboard-response,11
true,7,0,2,0,true,q,false,true,0.0-2.0-0.13-0.124-3.124,1,1,0,81,false,stim,false,0,693.0000000000582,1,1,1,67495,task3,362747,false,false,475,image-keyboard-response,12
true,7,1,2,1,true,z,false,true,0.0-2.0-0.13-0.125-3.125,1,1,0,90,false,stim,false,1,695.0,1,1,0,67495,task3,364948,false,false,478,image-keyboard-response,13
true,7,1,2,1,true,z,false,true,0.0-2.0-0.14-0.126-3.126,1,1,0,90,false,stim,false,1,901.0,1,1,0,67495,task3,367355,false,false,481,image-keyboard-response,14
true,7,1,2,0,false,q,true,false,0.0-2.0-0.14-0.127-3.127,1,1,0,90,false,stim,false,2,1084.0,1,0,2,67495,task3,369945,false,false,484,image-keyboard-response,15
true,7,0,2,0,true,q,false,true,0.0-2.0-0.14-0.128-3.128,1,1,0,81,false,stim,false,0,460.0,1,1,1,67495,task3,371911,false,false,487,image-keyboard-response,16
true,7,0,2,0,true,q,false,true,0.0-2.0-0.14-0.129-3.129,1,1,0,81,false,stim,false,0,989.0,1,1,1,67495,task3,374406,false,false,490,image-keyboard-response,17
true,7,1,2,1,true,z,false,false,0.0-2.0-0.14-0.130-3.130,1,1,0,90,false,stim,false,1,710.0000000000582,1,1,0,67495,task3,376622,false,true,493,image-keyboard-response,18
true,7,0,2,0,true,q,false,true,0.0-2.0-0.14-0.131-3.131,1,1,0,81,false,stim,false,0,1918.0000000000582,1,1,1,67495,task3,380045,false,false,496,image-keyboard-response,19
true,7,1,2,0,false,q,true,false,0.0-2.0-0.14-0.132-3.132,1,1,0,90,false,stim,false,2,1114.0,1,0,2,67495,task3,382665,false,false,499,image-keyboard-response,20
true,7,0,2,0,true,q,false,false,0.0-2.0-0.14-0.133-3.133,1,1,0,81,false,stim,false,2,1036.0,1,0,2,67495,task3,385211,false,true,502,image-keyboard-response,21
true,7,1,2,1,true,z,false,true,0.0-2.0-0.14-0.134-3.134,1,1,0,90,false,stim,false,1,1290.0,1,1,0,67495,task3,388007,false,false,505,image-keyboard-response,22
true,7,2,2,0,false,q,false,false,0.0-2.0-0.15-0.135-3.135,1,1,0,68,false,stim,true,2,584.0,1,0,2,67495,task3,390097,false,false,508,image-keyboard-response,23
true,7,1,2,0,false,q,true,false,0.0-2.0-0.15-0.136-3.136,1,1,0,90,false,stim,false,2,620.0000000000582,1,0,2,67495,task3,392223,false,false,511,image-keyboard-response,24
true,7,1,2,1,true,z,false,true,0.0-2.0-0.15-0.137-3.137,1,1,0,90,false,stim,false,1,590.0000000000582,1,1,0,67495,task3,394319,false,false,514,image-keyboard-response,25
true,7,0,2,0,true,q,false,true,0.0-2.0-0.15-0.138-3.138,1,1,0,81,false,stim,false,0,975.0000000000582,1,0,1,67495,task3,396800,false,false,517,image-keyboard-response,26
true,7,1,2,1,true,z,false,true,0.0-2.0-0.15-0.139-3.139,1,1,0,90,false,stim,false,1,703.0000000000582,1,1,0,67495,task3,399009,false,false,520,image-keyboard-response,27
true,8,0,1,2,false,d,false,false,0.0-2.0-0.15-0.140-3.140,1,0,0,81,true,stim,true,0,708.0,1,0,2,67495,task3,401222,false,false,523,image-keyboard-response,1
true,8,0,1,2,false,d,false,false,0.0-2.0-0.15-0.141-3.141,1,0,0,81,false,stim,true,0,916.0,1,0,1,67495,task3,403644,false,false,526,image-keyboard-response,2
true,8,1,1,1,true,z,false,true,0.0-2.0-0.15-0.142-3.142,1,0,0,90,false,stim,false,1,494.0,1,1,0,67495,task3,405644,false,false,529,image-keyboard-response,3
true,8,0,1,2,false,d,false,false,0.0-2.0-0.15-0.143-3.143,1,0,0,81,false,stim,true,0,1226.0,1,0,1,67495,task3,408376,false,false,532,image-keyboard-response,4
true,8,1,1,2,false,d,true,false,0.0-2.0-0.16-0.144-3.144,1,0,0,90,false,stim,false,0,1358.0,1,0,2,67495,task3,411240,false,false,535,image-keyboard-response,5
true,8,2,1,2,true,d,false,true,0.0-2.0-0.16-0.145-3.145,1,0,0,68,false,stim,false,0,1389.0000000000582,1,0,1,67495,task3,414135,false,false,538,image-keyboard-response,6
true,8,1,1,1,true,z,false,true,0.0-2.0-0.16-0.146-3.146,1,0,0,90,false,stim,false,1,336.0,1,1,0,67495,task3,415977,false,false,541,image-keyboard-response,7
true,8,2,1,2,true,d,false,true,0.0-2.0-0.16-0.147-3.147,1,0,0,68,false,stim,false,0,569.0,1,0,2,67495,task3,418052,false,false,544,image-keyboard-response,8
true,8,1,1,1,true,z,false,false,0.0-2.0-0.16-0.148-3.148,1,0,0,90,false,stim,false,1,331.0,1,1,0,67495,task3,419888,false,true,547,image-keyboard-response,9
true,8,2,1,2,true,d,false,false,0.0-2.0-0.16-0.149-3.149,1,0,0,68,false,stim,false,0,500.0,1,0,2,67495,task3,421895,false,true,550,image-keyboard-response,10
true,8,1,1,2,false,d,true,false,0.0-2.0-0.16-0.150-3.150,1,0,0,90,false,stim,false,0,950.0,1,0,1,67495,task3,424350,false,false,553,image-keyboard-response,11
true,8,2,1,2,true,d,false,true,0.0-2.0-0.16-0.151-3.151,1,0,0,68,false,stim,false,0,383.0,1,0,1,67495,task3,426238,false,false,556,image-keyboard-response,12
true,8,1,1,1,true,z,false,true,0.0-2.0-0.16-0.152-3.152,1,0,0,90,false,stim,false,1,509.0,1,1,0,67495,task3,428252,false,false,559,image-keyboard-response,13
true,8,2,1,2,true,d,false,true,0.0-2.0-0.17-0.153-3.153,1,0,0,68,false,stim,false,0,586.0000000000582,1,0,1,67495,task3,430344,false,false,562,image-keyboard-response,14
true,8,2,1,2,true,d,false,true,0.0-2.0-0.17-0.154-3.154,1,0,0,68,false,stim,false,0,665.0,1,0,2,67495,task3,432515,false,false,565,image-keyboard-response,15
true,8,1,1,1,true,z,false,true,0.0-2.0-0.17-0.155-3.155,1,0,0,90,false,stim,false,1,427.0,1,1,0,67495,task3,434448,false,false,568,image-keyboard-response,16
true,8,2,1,2,true,d,false,true,0.0-2.0-0.17-0.156-3.156,1,0,0,68,false,stim,false,0,415.0,1,0,2,67495,task3,436368,false,false,571,image-keyboard-response,17
true,8,2,1,2,true,d,false,true,0.0-2.0-0.17-0.157-3.157,1,0,0,68,false,stim,false,0,468.9999999999418,1,0,1,67495,task3,438342,false,false,574,image-keyboard-response,18
true,8,2,1,2,true,d,false,true,0.0-2.0-0.17-0.158-3.158,1,0,0,68,false,stim,false,0,765.0,1,0,1,67495,task3,440614,false,false,577,image-keyboard-response,19
true,8,1,1,1,true,z,false,true,0.0-2.0-0.17-0.159-3.159,1,0,0,90,false,stim,false,1,428.0,1,1,0,67495,task3,442548,false,false,580,image-keyboard-response,20
true,8,2,1,2,true,d,false,true,0.0-2.0-0.17-0.160-3.160,1,0,0,68,false,stim,false,0,469.0000000000582,1,0,2,67495,task3,444523,false,false,583,image-keyboard-response,21
true,8,1,1,1,true,z,false,true,0.0-2.0-0.17-0.161-3.161,1,0,0,90,false,stim,false,1,366.0,1,1,0,67495,task3,446395,false,false,586,image-keyboard-response,22
true,8,2,1,2,true,d,false,true,0.0-2.0-0.18-0.162-3.162,1,0,0,68,false,stim,false,0,751.0,1,0,2,67495,task3,448652,false,false,589,image-keyboard-response,23
true,8,2,1,2,true,d,false,true,0.0-2.0-0.18-0.163-3.163,1,0,0,68,false,stim,false,0,493.0,1,0,2,67495,task3,450651,false,false,592,image-keyboard-response,24
true,8,2,1,2,true,d,false,true,0.0-2.0-0.18-0.164-3.164,1,0,0,68,false,stim,false,0,1472.0,1,1,1,67495,task3,453628,false,false,595,image-keyboard-response,25
true,8,2,1,2,true,d,false,false,0.0-2.0-0.18-0.165-3.165,1,0,0,68,false,stim,false,0,419.0,1,1,1,67495,task3,455554,false,true,598,image-keyboard-response,26
true,8,1,1,1,true,z,false,true,0.0-2.0-0.18-0.166-3.166,1,0,0,90,false,stim,false,1,774.0,1,1,0,67495,task3,457838,false,false,601,image-keyboard-response,27
true,9,1,2,1,true,z,false,true,0.0-2.0-0.18-0.167-3.167,1,1,0,90,true,stim,false,1,463.0,1,1,0,67495,task3,459806,false,false,604,image-keyboard-response,1
true,9,1,2,1,true,z,false,true,0.0-2.0-0.18-0.168-3.168,1,1,0,90,false,stim,false,1,448.0,1,1,0,67495,task3,461759,false,false,607,image-keyboard-response,2
true,9,2,2,1,false,z,false,false,0.0-2.0-0.18-0.169-3.169,1,1,0,68,false,stim,true,2,685.0,1,0,2,67495,task3,463950,false,false,610,image-keyboard-response,3
true,9,2,2,2,true,d,false,true,0.0-2.0-0.18-0.170-3.170,1,1,0,68,false,stim,false,2,912.0,1,1,1,67495,task3,466368,false,false,613,image-keyboard-response,4
true,9,1,2,1,true,z,false,true,0.0-2.0-0.19-0.171-3.171,1,1,0,90,false,stim,false,2,632.9999999999418,1,0,2,67495,task3,468507,false,false,616,image-keyboard-response,5
true,9,2,2,2,true,d,false,true,0.0-2.0-0.19-0.172-3.172,1,1,0,68,false,stim,false,2,541.0,1,1,1,67495,task3,470554,false,false,619,image-keyboard-response,6
true,9,1,2,1,true,z,false,true,0.0-2.0-0.19-0.173-3.173,1,1,0,90,false,stim,false,1,493.0,1,0,0,67495,task3,472553,false,false,622,image-keyboard-response,7
true,9,1,2,1,true,z,false,true,0.0-2.0-0.19-0.174-3.174,1,1,0,90,false,stim,false,1,613.9999999999418,1,0,0,67495,task3,474674,false,false,625,image-keyboard-response,8
true,9,1,2,1,true,z,false,true,0.0-2.0-0.19-0.175-3.175,1,1,0,90,false,stim,false,1,395.0,1,0,0,67495,task3,476574,false,false,628,image-keyboard-response,9
true,9,1,2,1,true,z,false,true,0.0-2.0-0.19-0.176-3.176,1,1,0,90,false,stim,false,2,361.0,1,1,2,67495,task3,478441,false,false,631,image-keyboard-response,10
true,9,2,2,2,true,d,false,true,0.0-2.0-0.19-0.177-3.177,1,1,0,68,false,stim,false,2,392.9999999999418,1,1,1,67495,task3,480345,false,false,634,image-keyboard-response,11
true,10,1,2,1,true,z,false,true,0.0-2.0-0.19-0.178-3.178,0,1,1,90,true,stim,false,1,428.9999999999418,1,1,2,67495,task3,482280,false,false,637,image-keyboard-response,1
true,10,2,2,2,true,d,false,true,0.0-2.0-0.19-0.179-3.179,0,1,1,68,false,stim,false,2,582.9999999999418,1,1,1,67495,task3,484369,false,false,640,image-keyboard-response,2
true,10,1,2,0,false,q,false,false,0.0-2.0-0.20-0.180-3.180,0,1,1,90,false,stim,true,1,587.0,1,0,0,67495,task3,486463,false,false,643,image-keyboard-response,3
true,10,2,2,1,false,z,true,false,0.0-2.0-0.20-0.181-3.181,0,1,1,68,false,stim,false,1,638.0,1,1,2,67495,task3,488607,false,false,646,image-keyboard-response,4
true,10,1,2,1,true,z,false,true,0.0-2.0-0.20-0.182-3.182,0,1,1,90,false,stim,false,1,561.0000000000582,1,1,2,67495,task3,490673,false,false,649,image-keyboard-response,5
true,10,1,2,1,true,z,false,true,0.0-2.0-0.20-0.183-3.183,0,1,1,90,false,stim,false,1,456.0,1,1,2,67495,task3,492635,false,false,652,image-keyboard-response,6
true,10,1,2,0,false,q,false,false,0.0-2.0-0.20-0.184-3.184,0,1,1,90,false,stim,true,1,366.0000000000582,1,0,0,67495,task3,494508,false,false,655,image-keyboard-response,7
true,10,2,2,2,true,d,false,true,0.0-2.0-0.20-0.185-3.185,0,1,1,68,false,stim,false,2,371.0,1,1,1,67495,task3,496387,false,false,658,image-keyboard-response,8
true,10,0,2,2,false,d,true,false,0.0-2.0-0.20-0.186-3.186,0,1,1,81,false,stim,false,2,620.0,1,1,1,67495,task3,498514,false,false,661,image-keyboard-response,9
true,10,1,2,2,false,d,true,false,0.0-2.0-0.20-0.187-3.187,0,1,1,90,false,stim,false,2,1260.9999999999418,1,1,1,67495,task3,501280,false,false,664,image-keyboard-response,10
true,10,1,2,0,false,q,false,false,0.0-2.0-0.20-0.188-3.188,0,1,1,90,false,stim,true,1,622.9999999999418,1,0,0,67495,task3,503409,false,false,667,image-keyboard-response,11
true,10,2,2,1,false,z,true,false,0.0-2.0-0.21-0.189-3.189,0,1,1,68,false,stim,false,1,889.9999999999418,1,1,2,67495,task3,505806,false,false,670,image-keyboard-response,12
true,10,1,2,1,true,z,false,true,0.0-2.0-0.21-0.190-3.190,0,1,1,90,false,stim,false,1,423.0,1,1,2,67495,task3,507735,false,false,673,image-keyboard-response,13
true,10,2,2,2,true,d,false,true,0.0-2.0-0.21-0.191-3.191,0,1,1,68,false,stim,false,2,385.0000000001164,1,1,1,67495,task3,509626,false,false,676,image-keyboard-response,14
true,10,2,2,0,false,q,true,false,0.0-2.0-0.21-0.192-3.192,0,1,1,68,false,stim,false,1,559.9999999999418,1,0,0,67495,task3,511693,false,false,679,image-keyboard-response,15
true,10,1,2,1,true,z,false,true,0.0-2.0-0.21-0.193-3.193,0,1,1,90,false,stim,false,1,860.0,1,1,2,67495,task3,514059,false,false,682,image-keyboard-response,16
true,10,2,2,2,true,d,false,true,0.0-2.0-0.21-0.194-3.194,0,1,1,68,false,stim,false,2,367.9999999999418,1,1,1,67495,task3,515933,false,false,685,image-keyboard-response,17
true,10,2,2,2,true,d,false,true,0.0-2.0-0.21-0.195-3.195,0,1,1,68,false,stim,false,2,830.0000000000582,1,1,1,67495,task3,518269,false,false,688,image-keyboard-response,18
true,10,2,2,0,false,q,true,false,0.0-2.0-0.21-0.196-3.196,0,1,1,68,false,stim,false,1,1149.9999999999418,1,0,0,67495,task3,520925,false,false,691,image-keyboard-response,19
true,10,1,2,0,false,q,false,false,0.0-2.0-0.21-0.197-3.197,0,1,1,90,false,stim,true,1,603.0,1,0,0,67495,task3,523034,false,false,694,image-keyboard-response,20
true,10,0,2,0,true,q,false,false,0.0-2.0-0.22-0.198-3.198,0,1,1,81,false,stim,false,1,736.0,1,0,0,67495,task3,525277,false,true,697,image-keyboard-response,21
true,10,1,2,1,true,z,false,true,0.0-2.0-0.22-0.199-3.199,0,1,1,90,false,stim,false,1,728.0,1,1,2,67495,task3,527511,false,false,700,image-keyboard-response,22
true,10,0,2,0,true,q,false,true,0.0-2.0-0.22-0.200-3.200,0,1,1,81,false,stim,false,1,471.0,1,0,0,67495,task3,529492,false,false,703,image-keyboard-response,23
true,10,2,2,2,true,d,false,true,0.0-2.0-0.22-0.201-3.201,0,1,1,68,false,stim,false,2,607.0,1,0,1,67495,task3,531605,false,false,706,image-keyboard-response,24
true,10,1,2,1,true,z,false,true,0.0-2.0-0.22-0.202-3.202,0,1,1,90,false,stim,false,1,808.0,1,1,2,67495,task3,533920,false,false,709,image-keyboard-response,25
true,10,2,2,2,true,d,false,true,0.0-2.0-0.22-0.203-3.203,0,1,1,68,false,stim,false,2,849.0,1,0,1,67495,task3,536275,false,false,712,image-keyboard-response,26
true,10,2,2,2,true,d,false,true,0.0-2.0-0.22-0.204-3.204,0,1,1,68,false,stim,false,2,1064.0,1,0,1,67495,task3,538845,false,false,715,image-keyboard-response,27
true,10,0,2,0,true,q,false,true,0.0-2.0-0.22-0.205-3.205,0,1,1,81,false,stim,false,1,734.0000000001164,1,0,0,67495,task3,541084,false,false,718,image-keyboard-response,28
true,11,1,1,1,true,z,false,true,0.0-2.0-0.22-0.206-3.206,0,0,1,90,true,stim,false,1,499.0,1,1,2,67495,task3,543089,false,false,721,image-keyboard-response,1
true,11,2,1,1,false,z,false,false,0.0-2.0-0.23-0.207-3.207,0,0,1,68,false,stim,true,2,1001.0,1,0,1,67495,task3,545597,false,false,724,image-keyboard-response,2
true,11,2,1,1,false,z,false,false,0.0-2.0-0.23-0.208-3.208,0,0,1,68,false,stim,true,2,649.9999999998836,1,0,1,67495,task3,547753,false,false,727,image-keyboard-response,3
true,11,1,1,1,true,z,false,true,0.0-2.0-0.23-0.209-3.209,0,0,1,90,false,stim,false,1,801.0,1,1,2,67495,task3,550060,false,false,730,image-keyboard-response,4
true,11,1,1,1,true,z,false,true,0.0-2.0-0.23-0.210-3.210,0,0,1,90,false,stim,false,1,473.0,1,1,2,67495,task3,552040,false,false,733,image-keyboard-response,5
true,11,0,1,2,false,d,false,false,0.0-2.0-0.23-0.211-3.211,0,0,1,81,false,stim,true,0,978.0,1,0,0,67495,task3,554524,false,false,736,image-keyboard-response,6
true,11,1,1,1,true,z,false,true,0.0-2.0-0.23-0.212-3.212,0,0,1,90,false,stim,false,1,900.0,1,1,2,67495,task3,556930,false,false,739,image-keyboard-response,7
true,11,1,1,2,false,d,true,false,0.0-2.0-0.23-0.213-3.213,0,0,1,90,false,stim,false,0,1498.9999999998836,1,0,0,67495,task3,559935,false,false,742,image-keyboard-response,8
true,11,2,1,2,true,d,false,true,0.0-2.0-0.23-0.214-3.214,0,0,1,68,false,stim,false,0,767.0,1,1,0,67495,task3,562208,false,false,745,image-keyboard-response,9
true,11,2,1,1,false,z,false,false,0.0-2.0-0.23-0.215-3.215,0,0,1,68,false,stim,true,2,1013.0,1,1,1,67495,task3,564727,false,false,748,image-keyboard-response,10
true,11,0,1,1,false,z,true,true,0.0-2.0-0.24-0.216-3.216,0,0,1,81,false,stim,false,2,1220.0,1,1,1,67495,task3,567453,false,true,751,image-keyboard-response,11
true,11,1,1,1,true,z,false,true,0.0-2.0-0.24-0.217-3.217,0,0,1,90,false,stim,false,1,559.0,1,0,2,67495,task3,569519,false,false,754,image-keyboard-response,12
true,11,0,1,1,false,z,true,false,0.0-2.0-0.24-0.218-3.218,0,0,1,81,false,stim,false,2,746.0,1,1,1,67495,task3,571771,false,false,757,image-keyboard-response,13
true,12,1,2,0,false,q,false,false,0.0-2.0-0.24-0.219-3.219,1,1,0,90,true,stim,true,1,644.0,1,0,2,67495,task3,573920,false,false,760,image-keyboard-response,1
true,12,2,2,2,true,d,false,true,0.0-2.0-0.24-0.220-3.220,1,1,0,68,false,stim,false,2,366.9999999998836,1,1,0,67495,task3,575793,false,false,763,image-keyboard-response,2
true,12,2,2,2,true,d,false,true,0.0-2.0-0.24-0.221-3.221,1,1,0,68,false,stim,false,2,621.0,1,1,0,67495,task3,577920,false,false,766,image-keyboard-response,3
true,12,2,2,2,true,d,false,true,0.0-2.0-0.24-0.222-3.222,1,1,0,68,false,stim,false,2,458.0000000001164,1,1,0,67495,task3,579883,false,false,769,image-keyboard-response,4
true,12,0,2,1,false,z,true,false,0.0-2.0-0.24-0.223-3.223,1,1,0,81,false,stim,false,1,643.0,1,1,1,67495,task3,582031,false,false,772,image-keyboard-response,5
true,12,0,2,0,true,q,false,true,0.0-2.0-0.24-0.224-3.224,1,1,0,81,false,stim,false,1,815.0,1,0,2,67495,task3,584352,false,false,775,image-keyboard-response,6
true,12,0,2,0,true,q,false,true,0.0-2.0-0.25-0.225-3.225,1,1,0,81,false,stim,false,1,520.0000000001164,1,0,2,67495,task3,586378,false,false,778,image-keyboard-response,7
true,12,2,2,2,true,d,false,true,0.0-2.0-0.25-0.226-3.226,1,1,0,68,false,stim,false,2,1208.0,1,1,0,67495,task3,589093,false,false,781,image-keyboard-response,8
true,12,1,2,1,true,z,false,true,0.0-2.0-0.25-0.227-3.227,1,1,0,90,false,stim,false,1,1137.0,1,1,1,67495,task3,591736,false,false,784,image-keyboard-response,9
true,12,1,2,1,true,z,false,true,0.0-2.0-0.25-0.228-3.228,1,1,0,90,false,stim,false,1,2034.0,1,1,1,67495,task3,595276,false,false,787,image-keyboard-response,10
true,12,2,2,2,true,d,false,true,0.0-2.0-0.25-0.229-3.229,1,1,0,68,false,stim,false,2,741.0,1,1,0,67495,task3,597523,false,false,790,image-keyboard-response,11
true,12,1,2,2,false,d,true,false,0.0-2.0-0.25-0.230-3.230,1,1,0,90,false,stim,false,2,561.0,1,1,0,67495,task3,599591,false,false,793,image-keyboard-response,12
true,12,0,2,0,true,q,false,true,0.0-2.0-0.25-0.231-3.231,1,1,0,81,false,stim,false,1,1322.0,1,0,2,67495,task3,602420,false,false,796,image-keyboard-response,13
true,12,0,2,0,true,q,false,true,0.0-2.0-0.25-0.232-3.232,1,1,0,81,false,stim,false,1,692.0,1,0,2,67495,task3,604618,false,false,799,image-keyboard-response,14
true,12,1,2,1,true,z,false,true,0.0-2.0-0.25-0.233-3.233,1,1,0,90,false,stim,false,1,441.0,1,1,1,67495,task3,606571,false,false,802,image-keyboard-response,15
true,12,2,2,2,true,d,false,true,0.0-2.0-0.26-0.234-3.234,1,1,0,68,false,stim,false,2,578.0,1,1,0,67495,task3,608656,false,false,805,image-keyboard-response,16
true,12,0,2,0,true,q,false,true,0.0-2.0-0.26-0.235-3.235,1,1,0,81,false,stim,false,1,648.0,1,0,2,67495,task3,610810,false,false,808,image-keyboard-response,17
true,12,2,2,2,true,d,false,true,0.0-2.0-0.26-0.236-3.236,1,1,0,68,false,stim,false,2,660.0,1,1,0,67495,task3,612976,false,false,811,image-keyboard-response,18
true,12,0,2,0,true,q,false,true,0.0-2.0-0.26-0.237-3.237,1,1,0,81,false,stim,false,1,517.0,1,0,2,67495,task3,614999,false,false,814,image-keyboard-response,19
true,12,1,2,1,true,z,false,true,0.0-2.0-0.26-0.238-3.238,1,1,0,90,false,stim,false,1,428.0,1,1,1,67495,task3,616934,false,false,817,image-keyboard-response,20
true,12,1,2,1,true,z,false,true,0.0-2.0-0.26-0.239-3.239,1,1,0,90,false,stim,false,1,483.0,1,1,1,67495,task3,618924,false,false,820,image-keyboard-response,21
true,12,0,2,0,true,q,false,false,0.0-2.0-0.26-0.240-3.240,1,1,0,81,false,stim,false,1,931.0,1,0,2,67495,task3,621362,false,true,823,image-keyboard-response,22
true,12,2,2,2,true,d,false,false,0.0-2.0-0.26-0.241-3.241,1,1,0,68,false,stim,false,2,943.0,1,0,0,67495,task3,623811,false,true,826,image-keyboard-response,23
true,12,1,2,1,true,z,false,true,0.0-2.0-0.26-0.242-3.242,1,1,0,90,false,stim,false,1,1047.0,1,1,1,67495,task3,626364,false,false,829,image-keyboard-response,24
true,12,1,2,1,true,z,false,true,0.0-2.0-0.27-0.243-3.243,1,1,0,90,false,stim,false,1,399.0,1,1,1,67495,task3,628270,false,false,832,image-keyboard-response,25
true,13,0,1,2,false,d,false,false,0.0-2.0-0.27-0.244-3.244,0,1,0,81,true,stim,true,0,688.0,1,0,2,67495,task3,630464,false,false,835,image-keyboard-response,1
true,13,1,1,1,true,z,false,true,0.0-2.0-0.27-0.245-3.245,0,1,0,90,false,stim,false,2,609.0,1,0,0,67495,task3,632579,false,false,838,image-keyboard-response,2
true,13,1,1,2,false,d,true,true,0.0-2.0-0.27-0.246-3.246,0,1,0,90,false,stim,false,0,344.0,1,0,2,67495,task3,634429,false,true,841,image-keyboard-response,3
true,13,2,1,1,false,z,true,false,0.0-2.0-0.27-0.247-3.247,0,1,0,68,false,stim,false,1,918.0,1,1,1,67495,task3,636854,false,false,844,image-keyboard-response,4
true,13,1,1,2,false,d,true,false,0.0-2.0-0.27-0.248-3.248,0,1,0,90,false,stim,false,0,573.0000000001164,1,0,2,67495,task3,638933,false,false,847,image-keyboard-response,5
true,13,1,1,1,true,z,false,true,0.0-2.0-0.27-0.249-3.249,0,1,0,90,false,stim,false,2,334.0,1,0,0,67495,task3,640773,false,false,850,image-keyboard-response,6
true,13,1,1,1,true,z,false,true,0.0-2.0-0.27-0.250-3.250,0,1,0,90,false,stim,false,2,461.9999999998836,1,0,0,67495,task3,642741,false,false,853,image-keyboard-response,7
true,13,1,1,1,true,z,false,true,0.0-2.0-0.27-0.251-3.251,0,1,0,90,false,stim,false,1,422.0,1,1,1,67495,task3,644669,false,false,856,image-keyboard-response,8
true,13,1,1,1,true,z,false,true,0.0-2.0-0.28-0.252-3.252,0,1,0,90,false,stim,false,2,566.0,1,0,0,67495,task3,646742,false,false,859,image-keyboard-response,9
true,13,1,1,1,true,z,false,false,0.0-2.0-0.28-0.253-3.253,0,1,0,90,false,stim,false,1,346.0,1,1,1,67495,task3,648594,false,true,862,image-keyboard-response,10
true,13,1,1,1,true,z,false,true,0.0-2.0-0.28-0.254-3.254,0,1,0,90,false,stim,false,1,433.0,1,1,1,67495,task3,650534,false,false,865,image-keyboard-response,11
true,13,1,1,1,true,z,false,true,0.0-2.0-0.28-0.255-3.255,0,1,0,90,false,stim,false,2,439.0,1,0,0,67495,task3,652478,false,false,868,image-keyboard-response,12
true,13,1,1,1,true,z,false,true,0.0-2.0-0.28-0.256-3.256,0,1,0,90,false,stim,false,2,518.0,1,0,0,67495,task3,654503,false,false,871,image-keyboard-response,13
true,13,0,1,2,false,d,false,false,0.0-2.0-0.28-0.257-3.257,0,1,0,81,false,stim,true,0,898.0,1,0,2,67495,task3,656908,false,false,874,image-keyboard-response,14
true,13,2,1,2,true,d,false,true,0.0-2.0-0.28-0.258-3.258,0,1,0,68,false,stim,false,0,776.0,1,0,2,67495,task3,659190,false,false,877,image-keyboard-response,15
true,13,2,1,2,true,d,false,true,0.0-2.0-0.28-0.259-3.259,0,1,0,68,false,stim,false,0,494.0,1,0,2,67495,task3,661190,false,false,880,image-keyboard-response,16
true,13,1,1,1,true,z,false,true,0.0-2.0-0.28-0.260-3.260,0,1,0,90,false,stim,false,1,501.0,1,1,1,67495,task3,663197,false,false,883,image-keyboard-response,17
true,13,1,1,1,true,z,false,true,0.0-2.0-0.29-0.261-3.261,0,1,0,90,false,stim,false,2,820.9999999998836,1,0,0,67495,task3,665524,false,false,886,image-keyboard-response,18
true,13,1,1,1,true,z,false,true,0.0-2.0-0.29-0.262-3.262,0,1,0,90,false,stim,false,1,528.0,1,1,1,67495,task3,667557,false,false,889,image-keyboard-response,19
true,13,1,1,2,false,d,true,false,0.0-2.0-0.29-0.263-3.263,0,1,0,90,false,stim,false,0,1081.0,1,1,2,67495,task3,670144,false,false,892,image-keyboard-response,20
true,13,2,1,2,true,d,false,false,0.0-2.0-0.29-0.264-3.264,0,1,0,68,false,stim,false,0,1331.0,1,1,2,67495,task3,672981,false,true,895,image-keyboard-response,21
true,13,1,1,1,true,z,false,true,0.0-2.0-0.29-0.265-3.265,0,1,0,90,false,stim,false,1,668.0,1,1,1,67495,task3,675156,false,false,898,image-keyboard-response,22
true,13,1,1,1,true,z,false,true,0.0-2.0-0.29-0.266-3.266,0,1,0,90,false,stim,false,1,488.0,1,1,1,67495,task3,677158,false,false,901,image-keyboard-response,23
true,14,1,2,0,false,q,false,true,0.0-2.0-0.29-0.267-3.267,0,1,1,90,true,stim,true,1,1114.0,1,0,0,67495,task3,679777,false,true,904,image-keyboard-response,1
true,14,0,2,2,false,d,true,false,0.0-2.0-0.29-0.268-3.268,0,1,1,81,false,stim,false,2,588.0,1,1,2,67495,task3,681871,false,false,907,image-keyboard-response,2
true,14,1,2,0,false,q,false,false,0.0-2.0-0.29-0.269-3.269,0,1,1,90,false,stim,true,1,354.0,1,0,0,67495,task3,683731,false,false,910,image-keyboard-response,3
true,14,1,2,1,true,z,false,true,0.0-2.0-0.30-0.270-3.270,0,1,1,90,false,stim,false,1,322.0,1,1,1,67495,task3,685559,false,false,913,image-keyboard-response,4
true,14,1,2,0,false,q,false,false,0.0-2.0-0.30-0.271-3.271,0,1,1,90,false,stim,true,1,394.0,1,0,0,67495,task3,687459,false,false,916,image-keyboard-response,5
true,14,1,2,2,false,d,true,false,0.0-2.0-0.30-0.272-3.272,0,1,1,90,false,stim,false,2,1454.0,1,1,2,67495,task3,690420,false,false,919,image-keyboard-response,6
true,14,1,2,1,true,z,false,true,0.0-2.0-0.30-0.273-3.273,0,1,1,90,false,stim,false,1,343.0,1,1,1,67495,task3,692270,false,false,922,image-keyboard-response,7
true,14,0,2,0,true,q,false,true,0.0-2.0-0.30-0.274-3.274,0,1,1,81,false,stim,false,1,523.0,1,0,0,67495,task3,694298,false,false,925,image-keyboard-response,8
true,14,0,2,0,true,q,false,true,0.0-2.0-0.30-0.275-3.275,0,1,1,81,false,stim,false,1,525.9999999998836,1,0,0,67495,task3,696331,false,false,928,image-keyboard-response,9
true,14,1,2,1,true,z,false,true,0.0-2.0-0.30-0.276-3.276,0,1,1,90,false,stim,false,1,583.0,1,1,1,67495,task3,698420,false,false,931,image-keyboard-response,10
true,14,2,2,2,true,d,false,true,0.0-2.0-0.30-0.277-3.277,0,1,1,68,false,stim,false,2,583.0,1,1,2,67495,task3,700509,false,false,934,image-keyboard-response,11
true,14,2,2,2,true,d,false,true,0.0-2.0-0.30-0.278-3.278,0,1,1,68,false,stim,false,2,829.0,1,1,2,67495,task3,702844,false,false,937,image-keyboard-response,12
true,14,0,2,0,true,q,false,true,0.0-2.0-0.31-0.279-3.279,0,1,1,81,false,stim,false,1,530.0,1,0,0,67495,task3,704881,false,false,940,image-keyboard-response,13
true,14,1,2,1,true,z,false,true,0.0-2.0-0.31-0.280-3.280,0,1,1,90,false,stim,false,1,403.9999999998836,1,1,1,67495,task3,706791,false,false,943,image-keyboard-response,14
true,14,1,2,1,true,z,false,true,0.0-2.0-0.31-0.281-3.281,0,1,1,90,false,stim,false,1,415.0,1,1,1,67495,task3,708712,false,false,946,image-keyboard-response,15
true,14,2,2,2,true,d,false,true,0.0-2.0-0.31-0.282-3.282,0,1,1,68,false,stim,false,2,547.0,1,1,2,67495,task3,710766,false,false,949,image-keyboard-response,16
true,14,1,2,1,true,z,false,true,0.0-2.0-0.31-0.283-3.283,0,1,1,90,false,stim,false,1,1169.0,1,1,1,67495,task3,713442,false,false,952,image-keyboard-response,17
true,14,0,2,0,true,q,false,true,0.0-2.0-0.31-0.284-3.284,0,1,1,81,false,stim,false,1,419.0,1,0,0,67495,task3,715367,false,false,955,image-keyboard-response,18
true,14,2,2,2,true,d,false,true,0.0-2.0-0.31-0.285-3.285,0,1,1,68,false,stim,false,2,729.0,1,1,2,67495,task3,717602,false,false,958,image-keyboard-response,19
true,14,2,2,2,true,d,false,true,0.0-2.0-0.31-0.286-3.286,0,1,1,68,false,stim,false,2,539.0,1,1,2,67495,task3,719646,false,false,961,image-keyboard-response,20
true,14,0,2,0,true,q,false,true,0.0-2.0-0.31-0.287-3.287,0,1,1,81,false,stim,false,1,509.0000000001164,1,0,0,67495,task3,721661,false,false,964,image-keyboard-response,21
true,14,1,2,1,true,z,false,true,0.0-2.0-0.32-0.288-3.288,0,1,1,90,false,stim,false,1,412.0000000001164,1,1,1,67495,task3,723579,false,false,967,image-keyboard-response,22
true,14,0,2,0,true,q,false,true,0.0-2.0-0.32-0.289-3.289,0,1,1,81,false,stim,false,1,664.0,1,0,0,67495,task3,725749,false,false,970,image-keyboard-response,23
true,14,0,2,0,true,q,false,true,0.0-2.0-0.32-0.290-3.290,0,1,1,81,false,stim,false,1,560.0000000001164,1,0,0,67495,task3,727816,false,false,973,image-keyboard-response,24
true,14,2,2,2,true,d,false,true,0.0-2.0-0.32-0.291-3.291,0,1,1,68,false,stim,false,2,898.0,1,0,2,67495,task3,730221,false,false,976,image-keyboard-response,25
true,14,1,2,1,true,z,false,true,0.0-2.0-0.32-0.292-3.292,0,1,1,90,false,stim,false,1,875.0,1,1,1,67495,task3,732602,false,false,979,image-keyboard-response,26
true,14,0,2,0,true,q,false,true,0.0-2.0-0.32-0.293-3.293,0,1,1,81,false,stim,false,1,477.9999999998836,1,0,0,67495,task3,734587,false,false,982,image-keyboard-response,27
true,14,2,2,2,true,d,false,true,0.0-2.0-0.32-0.294-3.294,0,1,1,68,false,stim,false,2,680.0,1,0,2,67495,task3,736773,false,false,985,image-keyboard-response,28
true,14,1,2,1,true,z,false,false,0.0-2.0-0.32-0.295-3.295,0,1,1,90,false,stim,false,1,653.0,1,1,1,67495,task3,738932,false,true,988,image-keyboard-response,29
true,15,2,1,0,false,q,false,false,0.0-2.0-0.32-0.296-3.296,0,1,0,68,true,stim,true,2,707.0,1,0,2,67495,task3,741144,false,false,991,image-keyboard-response,1
true,15,1,1,0,false,q,true,false,0.0-2.0-0.33-0.297-3.297,0,1,0,90,false,stim,false,2,837.0,1,0,2,67495,task3,743486,false,false,994,image-keyboard-response,2
true,15,0,1,1,false,z,false,false,0.0-2.0-0.33-0.298-3.298,0,1,0,81,false,stim,true,0,541.0,1,0,0,67495,task3,745533,false,false,997,image-keyboard-response,3
true,15,1,1,1,true,z,false,true,0.0-2.0-0.33-0.299-3.299,0,1,0,90,false,stim,false,0,412.0,1,0,0,67495,task3,747451,false,false,1000,image-keyboard-response,4
true,15,0,1,0,true,q,false,true,0.0-2.0-0.33-0.300-3.300,0,1,0,81,false,stim,false,2,865.0,1,0,2,67495,task3,749829,false,false,1003,image-keyboard-response,5
true,15,2,1,1,false,z,true,false,0.0-2.0-0.33-0.301-3.301,0,1,0,68,false,stim,false,1,459.0,1,1,1,67495,task3,751795,false,false,1006,image-keyboard-response,6
true,15,1,1,1,true,z,false,true,0.0-2.0-0.33-0.302-3.302,0,1,0,90,false,stim,false,1,1063.0,1,1,1,67495,task3,754365,false,false,1009,image-keyboard-response,7
true,15,1,1,1,true,z,false,true,0.0-2.0-0.33-0.303-3.303,0,1,0,90,false,stim,false,1,619.0,1,1,1,67495,task3,756490,false,false,1012,image-keyboard-response,8
true,15,0,1,0,true,q,false,true,0.0-2.0-0.33-0.304-3.304,0,1,0,81,false,stim,false,2,550.0,1,0,2,67495,task3,758546,false,false,1015,image-keyboard-response,9
true,15,1,1,1,true,z,false,true,0.0-2.0-0.33-0.305-3.305,0,1,0,90,false,stim,false,0,316.0,1,0,0,67495,task3,760371,false,false,1018,image-keyboard-response,10
true,15,1,1,1,true,z,false,true,0.0-2.0-0.34-0.306-3.306,0,1,0,90,false,stim,false,0,424.0,1,0,0,67495,task3,762303,false,false,1021,image-keyboard-response,11
true,15,1,1,1,true,z,false,false,0.0-2.0-0.34-0.307-3.307,0,1,0,90,false,stim,false,0,486.9999999998836,1,0,0,67495,task3,764299,false,true,1024,image-keyboard-response,12
true,15,1,1,1,true,z,false,true,0.0-2.0-0.34-0.308-3.308,0,1,0,90,false,stim,false,0,333.0000000001164,1,0,0,67495,task3,766139,false,false,1027,image-keyboard-response,13
true,15,0,1,0,true,q,false,true,0.0-2.0-0.34-0.309-3.309,0,1,0,81,false,stim,false,2,465.0,1,0,2,67495,task3,768111,false,false,1030,image-keyboard-response,14
true,15,1,1,1,true,z,false,true,0.0-2.0-0.34-0.310-3.310,0,1,0,90,false,stim,false,1,374.0,1,1,1,67495,task3,769992,false,false,1033,image-keyboard-response,15
true,15,1,1,0,false,q,true,false,0.0-2.0-0.34-0.311-3.311,0,1,0,90,false,stim,false,2,385.0000000001164,1,0,2,67495,task3,771884,false,false,1036,image-keyboard-response,16
true,15,1,1,1,true,z,false,true,0.0-2.0-0.34-0.312-3.312,0,1,0,90,false,stim,false,1,471.0,1,1,1,67495,task3,773861,false,false,1039,image-keyboard-response,17
true,15,1,1,1,true,z,false,true,0.0-2.0-0.34-0.313-3.313,0,1,0,90,false,stim,false,1,458.0,1,1,1,67495,task3,775826,false,false,1042,image-keyboard-response,18
true,15,0,1,0,true,q,false,true,0.0-2.0-0.34-0.314-3.314,0,1,0,81,false,stim,false,2,427.0,1,0,2,67495,task3,777761,false,false,1045,image-keyboard-response,19
true,15,0,1,0,true,q,false,true,0.0-2.0-0.35-0.315-3.315,0,1,0,81,false,stim,false,2,462.0,1,0,2,67495,task3,779731,false,false,1048,image-keyboard-response,20
true,15,1,1,1,true,z,false,true,0.0-2.0-0.35-0.316-3.316,0,1,0,90,false,stim,false,1,589.0,1,1,1,67495,task3,781826,false,false,1051,image-keyboard-response,21
true,15,0,1,0,true,q,false,true,0.0-2.0-0.35-0.317-3.317,0,1,0,81,false,stim,false,2,558.0,1,0,2,67495,task3,783891,false,false,1054,image-keyboard-response,22
true,15,1,1,1,true,z,false,true,0.0-2.0-0.35-0.318-3.318,0,1,0,90,false,stim,false,0,371.0,1,0,0,67495,task3,785768,false,false,1057,image-keyboard-response,23
true,15,0,1,0,true,q,false,true,0.0-2.0-0.35-0.319-3.319,0,1,0,81,false,stim,false,2,600.0,1,1,2,67495,task3,787875,false,false,1060,image-keyboard-response,24
true,15,1,1,1,true,z,false,true,0.0-2.0-0.35-0.320-3.320,0,1,0,90,false,stim,false,0,426.0,1,0,0,67495,task3,789808,false,false,1063,image-keyboard-response,25
true,15,1,1,1,true,z,false,true,0.0-2.0-0.35-0.321-3.321,0,1,0,90,false,stim,false,0,408.0,1,0,0,67495,task3,791723,false,false,1066,image-keyboard-response,26
true,15,1,1,1,true,z,false,true,0.0-2.0-0.35-0.322-3.322,0,1,0,90,false,stim,false,1,1279.0,1,0,1,67495,task3,794508,false,false,1069,image-keyboard-response,27
true,15,1,1,1,true,z,false,true,0.0-2.0-0.35-0.323-3.323,0,1,0,90,false,stim,false,1,432.0,1,0,1,67495,task3,796447,false,false,1072,image-keyboard-response,28
true,16,1,1,0,false,q,false,false,0.0-2.0-0.36-0.324-3.324,0,0,1,90,true,stim,true,1,410.0000000001164,1,0,1,67495,task3,798365,false,false,1075,image-keyboard-response,1
true,16,1,1,2,false,d,false,false,0.0-2.0-0.36-0.325-3.325,0,0,1,90,false,stim,true,1,618.0,1,0,0,67495,task3,800489,false,false,1078,image-keyboard-response,2
true,16,0,1,0,true,q,false,true,0.0-2.0-0.36-0.326-3.326,0,0,1,81,false,stim,false,0,1123.0,1,1,2,67495,task3,803120,false,false,1081,image-keyboard-response,3
true,16,1,1,2,false,d,false,false,0.0-2.0-0.36-0.327-3.327,0,0,1,90,false,stim,true,1,357.0,1,0,0,67495,task3,804984,false,false,1084,image-keyboard-response,4
true,16,2,1,0,false,q,true,false,0.0-2.0-0.36-0.328-3.328,0,0,1,68,false,stim,false,1,1453.9999999998836,1,0,1,67495,task3,807945,false,false,1087,image-keyboard-response,5
true,16,0,1,0,true,q,false,true,0.0-2.0-0.36-0.329-3.329,0,0,1,81,false,stim,false,0,946.9999999998836,1,1,2,67495,task3,810401,false,false,1090,image-keyboard-response,6
true,16,0,1,0,true,q,false,true,0.0-2.0-0.36-0.330-3.330,0,0,1,81,false,stim,false,0,664.0,1,1,2,67495,task3,812572,false,false,1093,image-keyboard-response,7
true,16,0,1,0,true,q,false,true,0.0-2.0-0.36-0.331-3.331,0,0,1,81,false,stim,false,1,426.0,1,0,1,67495,task3,814504,false,false,1096,image-keyboard-response,8
true,16,1,1,2,false,d,false,false,0.0-2.0-0.36-0.332-3.332,0,0,1,90,false,stim,true,1,588.9999999998836,1,0,0,67495,task3,816599,false,false,1099,image-keyboard-response,9
true,16,0,1,2,false,d,true,false,0.0-2.0-0.37-0.333-3.333,0,0,1,81,false,stim,false,1,539.0,1,0,0,67495,task3,818651,false,false,1102,image-keyboard-response,10
true,16,0,1,0,true,q,false,false,0.0-2.0-0.37-0.334-3.334,0,0,1,81,false,stim,false,0,644.9999999998836,1,1,2,67495,task3,820805,false,true,1105,image-keyboard-response,11
true,16,2,1,2,true,d,false,true,0.0-2.0-0.37-0.335-3.335,0,0,1,68,false,stim,false,1,828.0,1,0,0,67495,task3,823139,false,false,1108,image-keyboard-response,12
true,16,0,1,0,true,q,false,true,0.0-2.0-0.37-0.336-3.336,0,0,1,81,false,stim,false,0,627.0,1,1,2,67495,task3,825274,false,false,1111,image-keyboard-response,13
true,16,2,1,2,true,d,false,true,0.0-2.0-0.37-0.337-3.337,0,0,1,68,false,stim,false,1,751.0,1,0,0,67495,task3,827531,false,false,1114,image-keyboard-response,14
true,16,0,1,0,true,q,false,true,0.0-2.0-0.37-0.338-3.338,0,0,1,81,false,stim,false,1,397.0,1,0,1,67495,task3,829438,false,false,1117,image-keyboard-response,15
true,16,0,1,0,true,q,false,true,0.0-2.0-0.37-0.339-3.339,0,0,1,81,false,stim,false,1,399.0,1,0,1,67495,task3,831343,false,false,1120,image-keyboard-response,16
true,16,0,1,0,true,q,false,true,0.0-2.0-0.37-0.340-3.340,0,0,1,81,false,stim,false,1,499.0,1,0,1,67495,task3,833348,false,false,1123,image-keyboard-response,17
true,16,0,1,0,true,q,false,true,0.0-2.0-0.37-0.341-3.341,0,0,1,81,false,stim,false,0,689.0,1,1,2,67495,task3,835543,false,false,1126,image-keyboard-response,18
true,16,0,1,0,true,q,false,false,0.0-2.0-0.38-0.342-3.342,0,0,1,81,false,stim,false,0,463.0,1,1,2,67495,task3,837514,false,true,1129,image-keyboard-response,19
true,16,0,1,0,true,q,false,true,0.0-2.0-0.38-0.343-3.343,0,0,1,81,false,stim,false,0,375.0,1,1,2,67495,task3,839395,false,false,1132,image-keyboard-response,20
true,16,0,1,2,false,d,true,false,0.0-2.0-0.38-0.344-3.344,0,0,1,81,false,stim,false,1,383.0,1,0,0,67495,task3,841286,false,false,1135,image-keyboard-response,21
true,16,0,1,0,true,q,false,true,0.0-2.0-0.38-0.345-3.345,0,0,1,81,false,stim,false,0,420.0,1,1,2,67495,task3,843212,false,false,1138,image-keyboard-response,22
true,16,0,1,0,true,q,false,true,0.0-2.0-0.38-0.346-3.346,0,0,1,81,false,stim,false,1,997.0,1,0,1,67495,task3,845715,false,false,1141,image-keyboard-response,23
true,16,2,1,2,true,d,false,true,0.0-2.0-0.38-0.347-3.347,0,0,1,68,false,stim,false,1,1103.0,1,0,0,67495,task3,848324,false,false,1144,image-keyboard-response,24
true,16,0,1,0,true,q,false,true,0.0-2.0-0.38-0.348-3.348,0,0,1,81,false,stim,false,1,598.0000000001164,1,0,1,67495,task3,850429,false,false,1147,image-keyboard-response,25
true,16,2,1,2,true,d,false,true,0.0-2.0-0.38-0.349-3.349,0,0,1,68,false,stim,false,1,755.0,1,0,0,67495,task3,852691,false,false,1150,image-keyboard-response,26
true,17,0,1,1,false,z,false,true,0.0-2.0-0.38-0.350-3.350,0,0,1,81,true,stim,true,0,894.0,1,0,1,67495,task3,855091,false,true,1153,image-keyboard-response,1
true,17,0,1,1,false,z,false,false,0.0-2.0-0.39-0.351-3.351,0,0,1,81,false,stim,true,0,377.0000000001164,1,0,1,67495,task3,856977,false,false,1156,image-keyboard-response,2
true,17,2,1,0,false,q,false,false,0.0-2.0-0.39-0.352-3.352,0,0,1,68,false,stim,true,2,1334.0,1,0,0,67495,task3,859817,false,false,1159,image-keyboard-response,3
true,17,1,1,0,false,q,true,false,0.0-2.0-0.39-0.353-3.353,0,0,1,90,false,stim,false,2,360.0000000001164,1,0,0,67495,task3,861685,false,false,1162,image-keyboard-response,4
true,17,0,1,1,false,z,false,false,0.0-2.0-0.39-0.354-3.354,0,0,1,81,false,stim,true,0,860.0,1,0,1,67495,task3,864051,false,false,1165,image-keyboard-response,5
true,17,0,1,0,true,q,false,true,0.0-2.0-0.39-0.355-3.355,0,0,1,81,false,stim,false,2,358.0,1,0,0,67495,task3,865916,false,false,1168,image-keyboard-response,6
true,17,1,1,0,false,q,true,false,0.0-2.0-0.39-0.356-3.356,0,0,1,90,false,stim,false,0,427.0,1,0,2,67495,task3,867849,false,false,1171,image-keyboard-response,7
true,17,1,1,1,true,z,false,true,0.0-2.0-0.39-0.357-3.357,0,0,1,90,false,stim,false,0,629.0000000001164,1,1,1,67495,task3,869987,false,false,1174,image-keyboard-response,8
true,17,2,1,0,false,q,true,false,0.0-2.0-0.39-0.358-3.358,0,0,1,68,false,stim,false,0,675.0,1,0,2,67495,task3,872169,false,false,1177,image-keyboard-response,9
true,17,0,1,0,true,q,false,true,0.0-2.0-0.39-0.359-3.359,0,0,1,81,false,stim,false,0,463.0,1,0,2,67495,task3,874139,false,false,1180,image-keyboard-response,10
true,17,0,1,1,false,z,false,false,0.0-2.0-0.40-0.360-3.360,0,0,1,81,false,stim,true,0,622.0,1,1,1,67495,task3,876268,false,false,1183,image-keyboard-response,11
true,18,1,2,1,true,z,false,true,0.0-2.0-0.40-0.361-3.361,1,1,0,90,true,stim,false,1,384.0,1,1,1,67495,task3,878159,false,false,1186,image-keyboard-response,1
true,18,1,2,1,true,z,false,true,0.0-2.0-0.40-0.362-3.362,1,1,0,90,false,stim,false,1,315.9999999998836,1,1,1,67495,task3,879982,false,false,1189,image-keyboard-response,2
true,18,0,2,0,true,q,false,true,0.0-2.0-0.40-0.363-3.363,1,1,0,81,false,stim,false,0,885.0,1,1,0,67495,task3,882376,false,false,1192,image-keyboard-response,3
true,18,0,2,1,false,z,false,false,0.0-2.0-0.40-0.364-3.364,1,1,0,81,false,stim,true,0,304.0,1,0,2,67495,task3,884187,false,false,1195,image-keyboard-response,4
true,18,0,2,0,true,q,false,true,0.0-2.0-0.40-0.365-3.365,1,1,0,81,false,stim,false,0,568.0000000001164,1,1,0,67495,task3,886262,false,false,1198,image-keyboard-response,5
true,18,0,2,0,true,q,false,true,0.0-2.0-0.40-0.366-3.366,1,1,0,81,false,stim,false,0,496.0,1,1,0,67495,task3,888272,false,false,1201,image-keyboard-response,6
true,18,1,2,1,true,z,false,false,0.0-2.0-0.40-0.367-3.367,1,1,0,90,false,stim,false,0,920.0,1,0,2,67495,task3,890703,false,true,1204,image-keyboard-response,7
true,18,0,2,1,false,z,false,true,0.0-2.0-0.40-0.368-3.368,1,1,0,81,false,stim,true,0,444.0,1,0,2,67495,task3,892654,false,true,1207,image-keyboard-response,8
true,18,0,2,0,true,q,false,true,0.0-2.0-0.41-0.369-3.369,1,1,0,81,false,stim,false,0,565.9999999998836,1,1,0,67495,task3,894727,false,false,1210,image-keyboard-response,9
true,18,1,2,1,true,z,false,true,0.0-2.0-0.41-0.370-3.370,1,1,0,90,false,stim,false,1,565.9999999998836,1,0,1,67495,task3,896800,false,false,1213,image-keyboard-response,10
true,18,0,2,1,false,z,false,false,0.0-2.0-0.41-0.371-3.371,1,1,0,81,false,stim,true,0,1437.0000000001164,1,1,2,67495,task3,899744,false,false,1216,image-keyboard-response,11
true,18,0,2,1,false,z,false,false,0.0-2.0-0.41-0.372-3.372,1,1,0,81,false,stim,true,0,676.9999999998836,1,1,2,67495,task3,901930,false,false,1219,image-keyboard-response,12
true,18,0,2,0,true,q,false,true,0.0-2.0-0.41-0.373-3.373,1,1,0,81,false,stim,false,0,969.0,1,1,0,67495,task3,904405,false,false,1222,image-keyboard-response,13
true,18,0,2,0,true,q,false,true,0.0-2.0-0.41-0.374-3.374,1,1,0,81,false,stim,false,0,630.0,1,1,0,67495,task3,906542,false,false,1225,image-keyboard-response,14
true,19,1,2,0,false,q,false,false,0.0-2.0-0.41-0.375-3.375,1,0,1,90,true,stim,true,1,441.0,1,0,1,67495,task3,908489,false,false,1228,image-keyboard-response,1
true,19,1,2,1,true,z,false,true,0.0-2.0-0.41-0.376-3.376,1,0,1,90,false,stim,false,1,399.0,1,1,2,67495,task3,910393,false,false,1231,image-keyboard-response,2
true,19,2,2,0,false,q,true,false,0.0-2.0-0.41-0.377-3.377,1,0,1,68,false,stim,false,1,464.0,1,0,1,67495,task3,912364,false,false,1234,image-keyboard-response,3
true,19,0,2,0,true,q,false,true,0.0-2.0-0.42-0.378-3.378,1,0,1,81,false,stim,false,1,667.0,1,0,1,67495,task3,914540,false,false,1237,image-keyboard-response,4
true,19,1,2,1,true,z,false,true,0.0-2.0-0.42-0.379-3.379,1,0,1,90,false,stim,false,1,748.0,1,1,2,67495,task3,916795,false,false,1240,image-keyboard-response,5
true,19,0,2,0,true,q,false,true,0.0-2.0-0.42-0.380-3.380,1,0,1,81,false,stim,false,1,695.0,1,0,1,67495,task3,918998,false,false,1243,image-keyboard-response,6
true,19,1,2,1,true,z,false,true,0.0-2.0-0.42-0.381-3.381,1,0,1,90,false,stim,false,1,630.0,1,1,2,67495,task3,921136,false,false,1246,image-keyboard-response,7
true,19,0,2,0,true,q,false,true,0.0-2.0-0.42-0.382-3.382,1,0,1,81,false,stim,false,0,384.0,1,1,0,67495,task3,923028,false,false,1249,image-keyboard-response,8
true,19,0,2,0,true,q,false,true,0.0-2.0-0.42-0.383-3.383,1,0,1,81,false,stim,false,0,549.0,1,1,0,67495,task3,925088,false,false,1252,image-keyboard-response,9
true,19,0,2,0,true,q,false,true,0.0-2.0-0.42-0.384-3.384,1,0,1,81,false,stim,false,0,433.0,1,1,0,67495,task3,927028,false,false,1255,image-keyboard-response,10
true,19,1,2,1,true,z,false,true,0.0-2.0-0.42-0.385-3.385,1,0,1,90,false,stim,false,1,456.0,1,1,2,67495,task3,928992,false,false,1258,image-keyboard-response,11
true,19,0,2,0,true,q,false,true,0.0-2.0-0.42-0.386-3.386,1,0,1,81,false,stim,false,1,431.0,1,0,1,67495,task3,930928,false,false,1261,image-keyboard-response,12
true,19,0,2,0,true,q,false,true,0.0-2.0-0.43-0.387-3.387,1,0,1,81,false,stim,false,0,477.9999999998836,1,1,0,67495,task3,932915,false,false,1264,image-keyboard-response,13
true,19,0,2,0,true,q,false,true,0.0-2.0-0.43-0.388-3.388,1,0,1,81,false,stim,false,1,603.0000000001164,1,0,1,67495,task3,935024,false,false,1267,image-keyboard-response,14
true,19,1,2,1,true,z,false,true,0.0-2.0-0.43-0.389-3.389,1,0,1,90,false,stim,false,1,413.0,1,1,2,67495,task3,936944,false,false,1270,image-keyboard-response,15
true,19,0,2,0,true,q,false,true,0.0-2.0-0.43-0.390-3.390,1,0,1,81,false,stim,false,1,496.0,1,0,1,67495,task3,938948,false,false,1273,image-keyboard-response,16
true,19,0,2,0,true,q,false,false,0.0-2.0-0.43-0.391-3.391,1,0,1,81,false,stim,false,0,724.0,1,1,0,67495,task3,941179,false,true,1276,image-keyboard-response,17
true,19,0,2,1,false,z,true,false,0.0-2.0-0.43-0.392-3.392,1,0,1,81,false,stim,false,1,1803.0,1,1,2,67495,task3,944491,false,false,1279,image-keyboard-response,18
true,19,1,2,0,false,q,false,false,0.0-2.0-0.43-0.393-3.393,1,0,1,90,false,stim,true,1,645.9999999998836,1,0,1,67495,task3,946644,false,false,1282,image-keyboard-response,19
true,19,1,2,1,true,z,false,true,0.0-2.0-0.43-0.394-3.394,1,0,1,90,false,stim,false,1,674.0,1,0,2,67495,task3,948824,false,false,1285,image-keyboard-response,20
true,19,0,2,0,true,q,false,false,0.0-2.0-0.43-0.395-3.395,1,0,1,81,false,stim,false,0,468.9999999998836,1,1,0,67495,task3,950799,false,true,1288,image-keyboard-response,21
true,19,1,2,0,false,q,true,false,0.0-2.0-0.44-0.396-3.396,1,0,1,90,false,stim,false,0,598.0,1,1,0,67495,task3,952906,false,false,1291,image-keyboard-response,22
true,19,1,2,1,true,z,false,true,0.0-2.0-0.44-0.397-3.397,1,0,1,90,false,stim,false,1,368.0,1,0,2,67495,task3,954783,false,false,1294,image-keyboard-response,23
true,19,0,2,0,true,q,false,true,0.0-2.0-0.44-0.398-3.398,1,0,1,81,false,stim,false,1,859.0000000001164,1,0,1,67495,task3,957148,false,false,1297,image-keyboard-response,24
true,20,1,1,2,false,d,false,false,0.0-2.0-0.44-0.399-3.399,1,0,0,90,true,stim,true,1,1089.0000000001164,1,0,2,67495,task3,959744,false,false,1300,image-keyboard-response,1
true,20,2,1,0,false,q,true,false,0.0-2.0-0.44-0.400-3.400,1,0,0,68,false,stim,false,0,668.0,1,1,0,67495,task3,961929,false,false,1303,image-keyboard-response,2
true,20,0,1,2,false,d,false,false,0.0-2.0-0.44-0.401-3.401,1,0,0,81,false,stim,true,0,1267.0,1,0,1,67495,task3,964703,false,false,1306,image-keyboard-response,3
true,20,1,1,2,false,d,false,false,0.0-2.0-0.44-0.402-3.402,1,0,0,90,false,stim,true,1,1273.0,1,0,2,67495,task3,967482,false,false,1309,image-keyboard-response,4
true,20,0,1,0,true,q,false,true,0.0-2.0-0.44-0.403-3.403,1,0,0,81,false,stim,false,0,1772.0,1,1,0,67495,task3,970761,false,false,1312,image-keyboard-response,5
true,20,1,1,2,false,d,true,false,0.0-2.0-0.44-0.404-3.404,1,0,0,90,false,stim,false,0,552.0,1,0,1,67495,task3,972820,false,false,1315,image-keyboard-response,6
true,20,0,1,2,false,d,false,false,0.0-2.0-0.45-0.405-3.405,1,0,0,81,false,stim,true,0,663.0,1,0,1,67495,task3,974991,false,false,1318,image-keyboard-response,7
true,20,0,1,0,true,q,false,true,0.0-2.0-0.45-0.406-3.406,1,0,0,81,false,stim,false,0,638.0,1,1,0,67495,task3,977136,false,false,1321,image-keyboard-response,8
true,20,1,1,2,false,d,false,false,0.0-2.0-0.45-0.407-3.407,1,0,0,90,false,stim,true,1,1040.0,1,0,2,67495,task3,979683,false,false,1324,image-keyboard-response,9
true,20,2,1,2,true,d,false,true,0.0-2.0-0.45-0.408-3.408,1,0,0,68,false,stim,false,0,813.0,1,0,1,67495,task3,982002,false,false,1327,image-keyboard-response,10
true,20,0,1,2,false,d,true,false,0.0-2.0-0.45-0.409-3.409,1,0,0,81,false,stim,false,1,630.0000000001164,1,0,2,67495,task3,984139,false,false,1330,image-keyboard-response,11
true,20,2,1,2,true,d,false,true,0.0-2.0-0.45-0.410-3.410,1,0,0,68,false,stim,false,1,805.9999999998836,1,0,2,67495,task3,986455,false,false,1333,image-keyboard-response,12
true,20,0,1,0,true,q,false,true,0.0-2.0-0.45-0.411-3.411,1,0,0,81,false,stim,false,0,479.0,1,1,0,67495,task3,988440,false,false,1336,image-keyboard-response,13
true,20,2,1,2,true,d,false,true,0.0-2.0-0.45-0.412-3.412,1,0,0,68,false,stim,false,0,784.0,1,0,1,67495,task3,990731,false,false,1339,image-keyboard-response,14
true,20,0,1,0,true,q,false,true,0.0-2.0-0.45-0.413-3.413,1,0,0,81,false,stim,false,0,543.0000000001164,1,1,0,67495,task3,992780,false,false,1342,image-keyboard-response,15
true,20,2,1,2,true,d,false,true,0.0-2.0-0.46-0.414-3.414,1,0,0,68,false,stim,false,1,1003.0,1,0,2,67495,task3,995290,false,false,1345,image-keyboard-response,16
true,20,2,1,2,true,d,false,true,0.0-2.0-0.46-0.415-3.415,1,0,0,68,false,stim,false,0,618.0,1,0,1,67495,task3,997415,false,false,1348,image-keyboard-response,17
true,20,0,1,0,true,q,false,true,0.0-2.0-0.46-0.416-3.416,1,0,0,81,false,stim,false,0,475.0,1,1,0,67495,task3,999397,false,false,1351,image-keyboard-response,18
true,20,0,1,2,false,d,false,false,0.0-2.0-0.46-0.417-3.417,1,0,0,81,false,stim,true,0,519.0,1,0,1,67495,task3,1001422,false,false,1354,image-keyboard-response,19
true,20,2,1,2,true,d,false,true,0.0-2.0-0.46-0.418-3.418,1,0,0,68,false,stim,false,0,482.0,1,0,1,67495,task3,1003413,false,false,1357,image-keyboard-response,20
true,20,0,1,0,true,q,false,true,0.0-2.0-0.46-0.419-3.419,1,0,0,81,false,stim,false,0,495.0,1,0,0,67495,task3,1005415,false,false,1360,image-keyboard-response,21
true,20,2,1,2,true,d,false,true,0.0-2.0-0.46-0.420-3.420,1,0,0,68,false,stim,false,1,675.0,1,1,2,67495,task3,1007596,false,false,1363,image-keyboard-response,22
true,20,0,1,0,true,q,false,true,0.0-2.0-0.46-0.421-3.421,1,0,0,81,false,stim,false,0,554.9999999998836,1,0,0,67495,task3,1009658,false,false,1366,image-keyboard-response,23
true,20,2,1,2,true,d,false,true,0.0-2.0-0.46-0.422-3.422,1,0,0,68,false,stim,false,1,358.9999999998836,1,1,2,67495,task3,1011523,false,false,1369,image-keyboard-response,24
true,20,0,1,0,true,q,false,true,0.0-2.0-0.47-0.423-3.423,1,0,0,81,false,stim,false,0,542.0000000001164,1,0,0,67495,task3,1013573,false,false,1372,image-keyboard-response,25
true,21,2,1,2,true,d,false,true,0.0-2.0-0.47-0.424-3.424,0,0,1,68,true,stim,false,2,694.0,1,1,2,67495,task3,1015776,false,false,1375,image-keyboard-response,1
true,21,0,1,2,false,d,false,false,0.0-2.0-0.47-0.425-3.425,0,0,1,81,false,stim,true,0,779.0,1,0,0,67495,task3,1018062,false,false,1378,image-keyboard-response,2
true,21,2,1,1,false,z,false,false,0.0-2.0-0.47-0.426-3.426,0,0,1,68,false,stim,true,2,917.0,1,0,1,67495,task3,1020486,false,false,1381,image-keyboard-response,3
true,21,1,1,2,false,d,true,false,0.0-2.0-0.47-0.427-3.427,0,0,1,90,false,stim,false,2,731.0,1,1,2,67495,task3,1022724,false,false,1384,image-keyboard-response,4
true,21,0,1,2,false,d,false,false,0.0-2.0-0.47-0.428-3.428,0,0,1,81,false,stim,true,0,623.0,1,0,0,67495,task3,1024855,false,false,1387,image-keyboard-response,5
true,21,2,1,2,true,d,false,true,0.0-2.0-0.47-0.429-3.429,0,0,1,68,false,stim,false,2,690.9999999997672,1,1,2,67495,task3,1027056,false,false,1390,image-keyboard-response,6
true,21,1,1,1,true,z,false,true,0.0-2.0-0.47-0.430-3.430,0,0,1,90,false,stim,false,2,499.0,1,0,1,67495,task3,1029063,false,false,1393,image-keyboard-response,7
true,21,1,1,1,true,z,false,false,0.0-2.0-0.47-0.431-3.431,0,0,1,90,false,stim,false,2,553.9999999998836,1,0,1,67495,task3,1031124,false,true,1396,image-keyboard-response,8
true,21,2,1,2,true,d,false,true,0.0-2.0-0.48-0.432-3.432,0,0,1,68,false,stim,false,0,863.0,1,0,0,67495,task3,1033495,false,false,1399,image-keyboard-response,9
true,21,1,1,1,true,z,false,true,0.0-2.0-0.48-0.433-3.433,0,0,1,90,false,stim,false,2,340.0,1,0,1,67495,task3,1035352,false,false,1402,image-keyboard-response,10
true,21,2,1,2,true,d,false,true,0.0-2.0-0.48-0.434-3.434,0,0,1,68,false,stim,false,0,427.9999999998836,1,0,0,67495,task3,1037287,false,false,1405,image-keyboard-response,11
true,21,2,1,2,true,d,false,false,0.0-2.0-0.48-0.435-3.435,0,0,1,68,false,stim,false,2,1050.0,1,1,2,67495,task3,1039843,false,true,1408,image-keyboard-response,12
true,21,2,1,2,true,d,false,true,0.0-2.0-0.48-0.436-3.436,0,0,1,68,false,stim,false,0,615.0,1,0,0,67495,task3,1041965,false,false,1411,image-keyboard-response,13
true,21,1,1,1,true,z,false,true,0.0-2.0-0.48-0.437-3.437,0,0,1,90,false,stim,false,2,692.0,1,0,1,67495,task3,1044167,false,false,1414,image-keyboard-response,14
true,21,1,1,1,true,z,false,true,0.0-2.0-0.48-0.438-3.438,0,0,1,90,false,stim,false,2,467.9999999998836,1,0,1,67495,task3,1046143,false,false,1417,image-keyboard-response,15
true,21,2,1,2,true,d,false,true,0.0-2.0-0.48-0.439-3.439,0,0,1,68,false,stim,false,2,357.0,1,1,2,67495,task3,1048007,false,false,1420,image-keyboard-response,16
true,21,2,1,2,true,d,false,true,0.0-2.0-0.48-0.440-3.440,0,0,1,68,false,stim,false,2,393.0,1,1,2,67495,task3,1049907,false,false,1423,image-keyboard-response,17
true,21,2,1,2,true,d,false,true,0.0-2.0-0.49-0.441-3.441,0,0,1,68,false,stim,false,2,365.0,1,1,2,67495,task3,1051780,false,false,1426,image-keyboard-response,18
true,21,1,1,2,false,d,true,false,0.0-2.0-0.49-0.442-3.442,0,0,1,90,false,stim,false,0,478.0,1,0,0,67495,task3,1053764,false,false,1429,image-keyboard-response,19
true,21,2,1,2,true,d,false,false,0.0-2.0-0.49-0.443-3.443,0,0,1,68,false,stim,false,2,739.0,1,1,2,67495,task3,1056012,false,true,1432,image-keyboard-response,20
true,21,1,1,1,true,z,false,true,0.0-2.0-0.49-0.444-3.444,0,0,1,90,false,stim,false,2,603.0,1,0,1,67495,task3,1058120,false,false,1435,image-keyboard-response,21
true,21,1,1,1,true,z,false,true,0.0-2.0-0.49-0.445-3.445,0,0,1,90,false,stim,false,2,407.0,1,0,1,67495,task3,1060034,false,false,1438,image-keyboard-response,22
true,21,2,1,2,true,d,false,true,0.0-2.0-0.49-0.446-3.446,0,0,1,68,false,stim,false,0,633.0,1,0,0,67495,task3,1062173,false,false,1441,image-keyboard-response,23
true,22,1,1,0,false,q,false,false,0.0-2.0-0.49-0.447-3.447,0,0,1,90,true,stim,true,1,1003.0000000002328,1,0,1,67495,task3,1064683,false,false,1444,image-keyboard-response,1
true,22,2,1,0,false,q,false,false,0.0-2.0-0.49-0.448-3.448,0,0,1,68,false,stim,true,2,531.9999999997672,1,0,0,67495,task3,1066725,false,false,1447,image-keyboard-response,2
true,22,1,1,2,false,d,true,false,0.0-2.0-0.49-0.449-3.449,0,0,1,90,false,stim,false,2,1108.0,1,1,2,67495,task3,1069340,false,false,1450,image-keyboard-response,3
true,22,0,1,0,true,q,false,true,0.0-2.0-0.50-0.450-3.450,0,0,1,81,false,stim,false,2,527.0,1,0,0,67495,task3,1071374,false,false,1453,image-keyboard-response,4
true,22,0,1,0,true,q,false,true,0.0-2.0-0.50-0.451-3.451,0,0,1,81,false,stim,false,2,512.0,1,0,0,67495,task3,1073393,false,false,1456,image-keyboard-response,5
true,22,1,1,2,false,d,true,false,0.0-2.0-0.50-0.452-3.452,0,0,1,90,false,stim,false,2,413.0,1,1,2,67495,task3,1075313,false,false,1459,image-keyboard-response,6
true,22,2,1,2,true,d,false,true,0.0-2.0-0.50-0.453-3.453,0,0,1,68,false,stim,false,2,683.0,1,1,2,67495,task3,1077505,false,false,1462,image-keyboard-response,7
true,22,1,1,0,false,q,false,false,0.0-2.0-0.50-0.454-3.454,0,0,1,90,false,stim,true,1,423.0,1,0,1,67495,task3,1079435,false,false,1465,image-keyboard-response,8
true,22,0,1,0,true,q,false,true,0.0-2.0-0.50-0.455-3.455,0,0,1,81,false,stim,false,2,494.0,1,0,0,67495,task3,1081436,false,false,1468,image-keyboard-response,9
true,22,0,1,0,true,q,false,true,0.0-2.0-0.50-0.456-3.456,0,0,1,81,false,stim,false,1,439.0,1,0,1,67495,task3,1083382,false,false,1471,image-keyboard-response,10
true,22,2,1,2,true,d,false,true,0.0-2.0-0.50-0.457-3.457,0,0,1,68,false,stim,false,2,447.0,1,1,2,67495,task3,1085336,false,false,1474,image-keyboard-response,11
true,22,0,1,0,true,q,false,true,0.0-2.0-0.50-0.458-3.458,0,0,1,81,false,stim,false,1,448.0,1,0,1,67495,task3,1087294,false,false,1477,image-keyboard-response,12
true,22,0,1,0,true,q,false,false,0.0-2.0-0.51-0.459-3.459,0,0,1,81,false,stim,false,2,710.0,1,0,0,67495,task3,1089512,false,true,1480,image-keyboard-response,13
true,22,2,1,2,true,d,false,false,0.0-2.0-0.51-0.460-3.460,0,0,1,68,false,stim,false,2,386.00000000023283,1,1,2,67495,task3,1091405,false,true,1483,image-keyboard-response,14
true,22,1,1,0,false,q,true,false,0.0-2.0-0.51-0.461-3.461,0,0,1,90,false,stim,false,2,1176.0000000002328,1,0,0,67495,task3,1094088,false,false,1486,image-keyboard-response,15
true,22,2,1,2,true,d,false,true,0.0-2.0-0.51-0.462-3.462,0,0,1,68,false,stim,false,2,857.0,1,1,2,67495,task3,1096454,false,false,1489,image-keyboard-response,16
true,22,2,1,2,true,d,false,false,0.0-2.0-0.51-0.463-3.463,0,0,1,68,false,stim,false,2,485.0,1,1,2,67495,task3,1098445,false,true,1492,image-keyboard-response,17
true,22,0,1,0,true,q,false,true,0.0-2.0-0.51-0.464-3.464,0,0,1,81,false,stim,false,2,821.0,1,0,0,67495,task3,1100772,false,false,1495,image-keyboard-response,18
true,22,1,1,0,false,q,false,true,0.0-2.0-0.51-0.465-3.465,0,0,1,90,false,stim,true,1,589.0,1,0,1,67495,task3,1102868,false,true,1498,image-keyboard-response,19
true,22,1,1,0,false,q,false,false,0.0-2.0-0.51-0.466-3.466,0,0,1,90,false,stim,true,1,507.0,1,0,1,67495,task3,1104891,false,false,1501,image-keyboard-response,20
true,22,1,1,0,false,q,false,false,0.0-2.0-0.51-0.467-3.467,0,0,1,90,false,stim,true,1,333.0,1,0,1,67495,task3,1106731,false,false,1504,image-keyboard-response,21
true,22,0,1,0,true,q,false,true,0.0-2.0-0.52-0.468-3.468,0,0,1,81,false,stim,false,2,804.0,1,0,0,67495,task3,1109042,false,false,1507,image-keyboard-response,22
true,22,0,1,0,true,q,false,true,0.0-2.0-0.52-0.469-3.469,0,0,1,81,false,stim,false,2,484.0,1,0,0,67495,task3,1111033,false,false,1510,image-keyboard-response,23
true,22,2,1,0,false,q,true,false,0.0-2.0-0.52-0.470-3.470,0,0,1,68,false,stim,false,1,781.0,1,0,1,67495,task3,1113323,false,false,1513,image-keyboard-response,24
true,22,0,1,0,true,q,false,true,0.0-2.0-0.52-0.471-3.471,0,0,1,81,false,stim,false,1,534.0,1,1,1,67495,task3,1115364,false,false,1516,image-keyboard-response,25
true,22,2,1,2,true,d,false,true,0.0-2.0-0.52-0.472-3.472,0,0,1,68,false,stim,false,2,671.0,1,1,2,67495,task3,1117541,false,false,1519,image-keyboard-response,26
true,22,2,1,2,true,d,false,true,0.0-2.0-0.52-0.473-3.473,0,0,1,68,false,stim,false,2,743.0,1,1,2,67495,task3,1119792,false,false,1522,image-keyboard-response,27
true,22,0,1,0,true,q,false,false,0.0-2.0-0.52-0.474-3.474,0,0,1,81,false,stim,false,2,552.0,1,0,0,67495,task3,1121851,false,true,1525,image-keyboard-response,28
true,22,2,1,2,true,d,false,true,0.0-2.0-0.52-0.475-3.475,0,0,1,68,false,stim,false,2,548.0,1,1,2,67495,task3,1123909,false,false,1528,image-keyboard-response,29
true,23,0,2,0,true,q,false,true,0.0-2.0-0.52-0.476-3.476,0,1,1,81,true,stim,false,0,889.0,1,1,1,67495,task3,1126306,false,false,1531,image-keyboard-response,1
true,23,0,2,0,true,q,false,true,0.0-2.0-0.53-0.477-3.477,0,1,1,81,false,stim,false,0,518.0,1,1,1,67495,task3,1128332,false,false,1534,image-keyboard-response,2
true,23,0,2,2,false,d,false,false,0.0-2.0-0.53-0.478-3.478,0,1,1,81,false,stim,true,0,578.0,1,0,0,67495,task3,1130418,false,false,1537,image-keyboard-response,3
true,23,1,2,2,false,d,true,false,0.0-2.0-0.53-0.479-3.479,0,1,1,90,false,stim,false,0,430.0,1,0,0,67495,task3,1132355,false,false,1540,image-keyboard-response,4
true,23,0,2,0,true,q,false,true,0.0-2.0-0.53-0.480-3.480,0,1,1,81,false,stim,false,0,694.0,1,1,1,67495,task3,1134556,false,false,1543,image-keyboard-response,5
true,23,2,2,2,true,d,false,true,0.0-2.0-0.53-0.481-3.481,0,1,1,68,false,stim,false,2,617.0,1,1,2,67495,task3,1136680,false,false,1546,image-keyboard-response,6
true,23,2,2,2,true,d,false,true,0.0-2.0-0.53-0.482-3.482,0,1,1,68,false,stim,false,2,567.0,1,1,2,67495,task3,1138754,false,false,1549,image-keyboard-response,7
true,23,2,2,2,true,d,false,true,0.0-2.0-0.53-0.483-3.483,0,1,1,68,false,stim,false,0,632.0,1,0,0,67495,task3,1140892,false,false,1552,image-keyboard-response,8
true,23,2,2,2,true,d,false,true,0.0-2.0-0.53-0.484-3.484,0,1,1,68,false,stim,false,2,500.0,1,1,2,67495,task3,1142901,false,false,1555,image-keyboard-response,9
true,23,0,2,0,true,q,false,true,0.0-2.0-0.53-0.485-3.485,0,1,1,81,false,stim,false,0,395.0,1,0,1,67495,task3,1144802,false,false,1558,image-keyboard-response,10
true,23,0,2,0,true,q,false,true,0.0-2.0-0.54-0.486-3.486,0,1,1,81,false,stim,false,0,1047.0000000002328,1,0,1,67495,task3,1147358,false,false,1561,image-keyboard-response,11
true,23,0,2,0,true,q,false,true,0.0-2.0-0.54-0.487-3.487,0,1,1,81,false,stim,false,0,592.0,1,0,1,67495,task3,1149457,false,false,1564,image-keyboard-response,12
true,23,2,2,2,true,d,false,true,0.0-2.0-0.54-0.488-3.488,0,1,1,68,false,stim,false,2,608.9999999997672,1,0,2,67495,task3,1151573,false,false,1567,image-keyboard-response,13
true,23,2,2,2,true,d,false,true,0.0-2.0-0.54-0.489-3.489,0,1,1,68,false,stim,false,0,540.0,1,1,0,67495,task3,1153621,false,false,1570,image-keyboard-response,14
true,24,2,1,2,true,d,false,true,0.0-2.0-0.54-0.490-3.490,1,0,0,68,true,stim,false,2,642.0,1,1,0,67495,task3,1155770,false,false,1573,image-keyboard-response,1
true,24,0,1,2,false,d,false,false,0.0-2.0-0.54-0.491-3.491,1,0,0,81,false,stim,true,0,562.0000000002328,1,0,1,67495,task3,1157840,false,false,1576,image-keyboard-response,2
true,24,2,1,2,true,d,false,true,0.0-2.0-0.54-0.492-3.492,1,0,0,68,false,stim,false,2,418.0,1,1,0,67495,task3,1159766,false,false,1579,image-keyboard-response,3
true,24,2,1,0,false,q,false,false,0.0-2.0-0.54-0.493-3.493,1,0,0,68,false,stim,true,2,770.9999999997672,1,0,2,67495,task3,1162044,false,false,1582,image-keyboard-response,4
true,24,1,1,0,false,q,true,false,0.0-2.0-0.54-0.494-3.494,1,0,0,90,false,stim,false,2,501.0,1,0,2,67495,task3,1164054,false,false,1585,image-keyboard-response,5
true,24,0,1,0,true,q,false,true,0.0-2.0-0.55-0.495-3.495,1,0,0,81,false,stim,false,2,390.0,1,0,2,67495,task3,1165953,false,false,1588,image-keyboard-response,6
true,24,1,1,2,false,d,true,false,0.0-2.0-0.55-0.496-3.496,1,0,0,90,false,stim,false,0,515.0,1,0,1,67495,task3,1167975,false,false,1591,image-keyboard-response,7
true,24,1,1,2,false,d,true,false,0.0-2.0-0.55-0.497-3.497,1,0,0,90,false,stim,false,2,688.0,1,1,0,67495,task3,1170170,false,false,1594,image-keyboard-response,8
true,24,2,1,2,true,d,false,true,0.0-2.0-0.55-0.498-3.498,1,0,0,68,false,stim,false,2,729.0,1,1,0,67495,task3,1172406,false,false,1597,image-keyboard-response,9
true,24,1,1,2,false,d,true,true,0.0-2.0-0.55-0.499-3.499,1,0,0,90,false,stim,false,0,610.0,1,0,1,67495,task3,1174525,false,true,1600,image-keyboard-response,10
true,24,0,1,0,true,q,false,true,0.0-2.0-0.55-0.500-3.500,1,0,0,81,false,stim,false,2,917.0,1,0,2,67495,task3,1176959,false,false,1603,image-keyboard-response,11
true,24,2,1,2,true,d,false,false,0.0-2.0-0.55-0.501-3.501,1,0,0,68,false,stim,false,2,560.9999999997672,1,1,0,67495,task3,1179027,false,true,1606,image-keyboard-response,12
true,24,0,1,0,true,q,false,true,0.0-2.0-0.55-0.502-3.502,1,0,0,81,false,stim,false,2,1191.0,1,0,2,67495,task3,1181727,false,false,1609,image-keyboard-response,13
true,24,1,1,2,false,d,true,false,0.0-2.0-0.55-0.503-3.503,1,0,0,90,false,stim,false,0,424.00000000023283,1,0,1,67495,task3,1183657,false,false,1612,image-keyboard-response,14
true,24,0,1,0,true,q,false,true,0.0-2.0-0.56-0.504-3.504,1,0,0,81,false,stim,false,2,540.0,1,0,2,67495,task3,1185706,false,false,1615,image-keyboard-response,15
true,24,0,1,0,true,q,false,true,0.0-2.0-0.56-0.505-3.505,1,0,0,81,false,stim,false,2,565.0,1,0,2,67495,task3,1187779,false,false,1618,image-keyboard-response,16
true,24,0,1,2,false,d,false,false,0.0-2.0-0.56-0.506-3.506,1,0,0,81,false,stim,true,0,476.0,1,0,1,67495,task3,1189762,false,false,1621,image-keyboard-response,17
true,24,0,1,0,true,q,false,true,0.0-2.0-0.56-0.507-3.507,1,0,0,81,false,stim,false,2,406.0,1,0,2,67495,task3,1191674,false,false,1624,image-keyboard-response,18
true,24,2,1,2,true,d,false,true,0.0-2.0-0.56-0.508-3.508,1,0,0,68,false,stim,false,0,355.0,1,0,1,67495,task3,1193536,false,false,1627,image-keyboard-response,19
true,24,2,1,2,true,d,false,true,0.0-2.0-0.56-0.509-3.509,1,0,0,68,false,stim,false,0,756.0,1,0,1,67495,task3,1195800,false,false,1630,image-keyboard-response,20
true,24,1,1,2,false,d,true,false,0.0-2.0-0.56-0.510-3.510,1,0,0,90,false,stim,false,2,704.0,1,1,0,67495,task3,1198011,false,false,1633,image-keyboard-response,21
true,24,0,1,2,false,d,true,false,0.0-2.0-0.56-0.511-3.511,1,0,0,81,false,stim,false,2,491.0,1,1,0,67495,task3,1200012,false,false,1636,image-keyboard-response,22
true,24,2,1,2,true,d,false,false,0.0-2.0-0.56-0.512-3.512,1,0,0,68,false,stim,false,2,395.0,1,1,0,67495,task3,1201914,false,true,1639,image-keyboard-response,23
true,25,1,1,0,false,q,true,false,0.0-2.0-0.57-0.513-3.513,1,0,0,90,true,stim,false,2,1519.0,1,0,1,67495,task3,1204941,false,false,1642,image-keyboard-response,1
true,25,0,1,2,false,d,true,false,0.0-2.0-0.57-0.514-3.514,1,0,0,81,false,stim,false,2,1560.0,1,1,0,67495,task3,1208008,false,false,1645,image-keyboard-response,2
true,25,0,1,1,false,z,false,false,0.0-2.0-0.57-0.515-3.515,1,0,0,81,false,stim,true,0,1043.0,1,0,2,67495,task3,1210559,false,false,1648,image-keyboard-response,3
true,25,1,1,2,false,d,true,false,0.0-2.0-0.57-0.516-3.516,1,0,0,90,false,stim,false,2,669.0000000002328,1,1,0,67495,task3,1212735,false,false,1651,image-keyboard-response,4
true,25,1,1,0,false,q,true,true,0.0-2.0-0.57-0.517-3.517,1,0,0,90,false,stim,false,2,406.0,1,0,1,67495,task3,1214649,false,true,1654,image-keyboard-response,5
true,25,2,1,1,false,z,true,false,0.0-2.0-0.57-0.518-3.518,1,0,0,68,false,stim,false,0,537.0,1,0,2,67495,task3,1216693,false,false,1657,image-keyboard-response,6
true,25,0,1,2,false,d,true,false,0.0-2.0-0.57-0.519-3.519,1,0,0,81,false,stim,false,2,775.0,1,1,0,67495,task3,1218975,false,false,1660,image-keyboard-response,7
true,25,1,1,1,true,z,false,true,0.0-2.0-0.57-0.520-3.520,1,0,0,90,false,stim,false,0,992.0,1,1,2,67495,task3,1221476,false,false,1663,image-keyboard-response,8
true,25,0,1,0,true,q,false,true,0.0-2.0-0.57-0.521-3.521,1,0,0,81,false,stim,false,2,472.0,1,1,1,67495,task3,1223455,false,false,1666,image-keyboard-response,9
true,25,1,1,0,false,q,true,false,0.0-2.0-0.58-0.522-3.522,1,0,0,90,false,stim,false,2,419.0,1,1,1,67495,task3,1225381,false,false,1669,image-keyboard-response,10
true,25,2,1,2,true,d,false,true,0.0-2.0-0.58-0.523-3.523,1,0,0,68,false,stim,false,2,831.0,1,1,0,67495,task3,1227719,false,false,1672,image-keyboard-response,11
true,25,1,1,1,true,z,false,true,0.0-2.0-0.58-0.524-3.524,1,0,0,90,false,stim,false,0,569.0,1,1,2,67495,task3,1229795,false,false,1675,image-keyboard-response,12
true,26,0,0,1,false,z,true,true,0.0-2.0-0.58-0.525-3.525,1,1,1,81,true,stim,false,1,2106.0,1,1,2,67495,task3,1317277,false,true,1762,image-keyboard-response,1
true,26,1,0,0,false,q,true,false,0.0-2.0-0.58-0.526-3.526,1,1,1,90,false,stim,false,0,2295.000000000233,1,1,1,67495,task3,1321075,false,false,1765,image-keyboard-response,2
true,26,0,0,1,false,z,true,false,0.0-2.0-0.58-0.527-3.527,1,1,1,81,false,stim,false,1,415.0,1,1,2,67495,task3,1322998,false,false,1768,image-keyboard-response,3
true,26,2,0,0,false,q,true,false,0.0-2.0-0.58-0.528-3.528,1,1,1,68,false,stim,false,0,1669.0,1,1,1,67495,task3,1326178,false,false,1771,image-keyboard-response,4
true,26,0,0,2,false,d,true,false,0.0-2.0-0.58-0.529-3.529,1,1,1,81,false,stim,false,2,810.0,1,1,0,67495,task3,1328496,false,false,1774,image-keyboard-response,5
true,26,1,0,2,false,d,true,false,0.0-2.0-0.58-0.530-3.530,1,1,1,90,false,stim,false,2,595.0,1,1,0,67495,task3,1330598,false,false,1777,image-keyboard-response,6
true,26,2,0,2,true,d,false,true,0.0-2.0-0.59-0.531-3.531,1,1,1,68,false,stim,false,2,699.0,1,1,0,67495,task3,1332805,false,false,1780,image-keyboard-response,7
true,26,2,0,2,true,d,false,true,0.0-2.0-0.59-0.532-3.532,1,1,1,68,false,stim,false,2,610.0000000002328,1,1,0,67495,task3,1334922,false,false,1783,image-keyboard-response,8
true,26,2,0,0,false,q,true,false,0.0-2.0-0.59-0.533-3.533,1,1,1,68,false,stim,false,0,843.0,1,1,1,67495,task3,1337275,false,false,1786,image-keyboard-response,9
true,26,2,0,2,true,d,false,true,0.0-2.0-0.59-0.534-3.534,1,1,1,68,false,stim,false,2,391.0,1,1,0,67495,task3,1339173,false,false,1789,image-keyboard-response,10
true,26,1,0,0,false,q,true,false,0.0-2.0-0.59-0.535-3.535,1,1,1,90,false,stim,false,0,350.99999999976717,1,0,1,67495,task3,1341032,false,false,1792,image-keyboard-response,11
true,26,1,0,1,true,z,false,true,0.0-2.0-0.59-0.536-3.536,1,1,1,90,false,stim,false,1,795.0,1,1,2,67495,task3,1343334,false,false,1795,image-keyboard-response,12
true,26,1,0,1,true,z,false,false,0.0-2.0-0.59-0.537-3.537,1,1,1,90,false,stim,false,1,556.0,1,1,2,67495,task3,1345397,false,true,1798,image-keyboard-response,13
true,26,0,0,0,true,q,false,true,0.0-2.0-0.59-0.538-3.538,1,1,1,81,false,stim,false,0,1527.0,1,0,1,67495,task3,1348445,false,false,1801,image-keyboard-response,14
true,26,1,0,1,true,z,false,true,0.0-2.0-0.59-0.539-3.539,1,1,1,90,false,stim,false,1,1660.9999999997672,1,1,2,67495,task3,1351612,false,false,1804,image-keyboard-response,15
true,27,1,2,1,true,z,false,true,0.0-2.0-0.60-0.540-3.540,1,0,1,90,true,stim,false,1,529.0000000002328,1,1,2,67495,task3,1353652,false,false,1807,image-keyboard-response,1
true,27,2,2,2,true,d,false,true,0.0-2.0-0.60-0.541-3.541,1,0,1,68,false,stim,false,2,672.0,1,1,0,67495,task3,1355830,false,false,1810,image-keyboard-response,2
true,27,0,2,2,false,d,false,false,0.0-2.0-0.60-0.542-3.542,1,0,1,81,false,stim,true,0,853.0,1,0,1,67495,task3,1358191,false,false,1813,image-keyboard-response,3
true,27,1,2,1,true,z,false,true,0.0-2.0-0.60-0.543-3.543,1,0,1,90,false,stim,false,1,366.0,1,1,2,67495,task3,1360065,false,false,1816,image-keyboard-response,4
true,27,2,2,2,true,d,false,true,0.0-2.0-0.60-0.544-3.544,1,0,1,68,false,stim,false,2,528.0,1,1,0,67495,task3,1362103,false,false,1819,image-keyboard-response,5
true,27,0,2,2,false,d,false,false,0.0-2.0-0.60-0.545-3.545,1,0,1,81,false,stim,true,0,429.0,1,0,1,67495,task3,1364039,false,false,1822,image-keyboard-response,6
true,27,1,2,2,false,d,true,false,0.0-2.0-0.60-0.546-3.546,1,0,1,90,false,stim,false,0,929.0,1,1,1,67495,task3,1366475,false,false,1825,image-keyboard-response,7
true,27,2,2,2,true,d,false,true,0.0-2.0-0.60-0.547-3.547,1,0,1,68,false,stim,false,2,772.0,1,0,0,67495,task3,1368754,false,false,1828,image-keyboard-response,8
true,27,1,2,1,true,z,false,true,0.0-2.0-0.60-0.548-3.548,1,0,1,90,false,stim,false,1,589.0,1,0,2,67495,task3,1370850,false,false,1831,image-keyboard-response,9
true,27,1,2,1,true,z,false,true,0.0-2.0-0.61-0.549-3.549,1,0,1,90,false,stim,false,1,403.0,1,0,2,67495,task3,1372764,false,false,1834,image-keyboard-response,10
true,27,2,2,2,true,d,false,true,0.0-2.0-0.61-0.550-3.550,1,0,1,68,false,stim,false,2,362.0,1,0,0,67495,task3,1374633,false,false,1837,image-keyboard-response,11
true,28,2,1,2,true,d,false,true,0.0-2.0-0.61-0.551-3.551,0,1,0,68,true,stim,false,2,326.0,1,1,1,67495,task3,1376467,false,false,1840,image-keyboard-response,1
true,28,2,1,2,true,d,false,true,0.0-2.0-0.61-0.552-3.552,0,1,0,68,false,stim,false,2,434.0,1,1,1,67495,task3,1378408,false,false,1843,image-keyboard-response,2
true,28,1,1,1,true,z,false,true,0.0-2.0-0.61-0.553-3.553,0,1,0,90,false,stim,false,2,534.0,1,0,0,67495,task3,1380450,false,false,1846,image-keyboard-response,3
true,28,1,1,1,true,z,false,true,0.0-2.0-0.61-0.554-3.554,0,1,0,90,false,stim,false,2,552.0,1,0,0,67495,task3,1382512,false,false,1849,image-keyboard-response,4
true,28,2,1,0,false,q,true,false,0.0-2.0-0.61-0.555-3.555,0,1,0,68,false,stim,false,1,510.0,1,0,2,67495,task3,1384529,false,false,1852,image-keyboard-response,5
true,28,2,1,0,false,q,true,false,0.0-2.0-0.61-0.556-3.556,0,1,0,68,false,stim,false,1,444.00000000023283,1,0,2,67495,task3,1386480,false,false,1855,image-keyboard-response,6
true,28,2,1,2,true,d,false,true,0.0-2.0-0.61-0.557-3.557,0,1,0,68,false,stim,false,2,859.0000000002328,1,1,1,67495,task3,1388846,false,false,1858,image-keyboard-response,7
true,28,1,1,0,false,q,false,false,0.0-2.0-0.62-0.558-3.558,0,1,0,90,false,stim,true,1,1263.0,1,0,2,67495,task3,1391617,false,false,1861,image-keyboard-response,8
true,28,1,1,1,true,z,false,true,0.0-2.0-0.62-0.559-3.559,0,1,0,90,false,stim,false,2,722.0,1,0,0,67495,task3,1393849,false,false,1864,image-keyboard-response,9
true,28,1,1,1,true,z,false,true,0.0-2.0-0.62-0.560-3.560,0,1,0,90,false,stim,false,2,696.0,1,0,0,67495,task3,1396053,false,false,1867,image-keyboard-response,10
true,28,0,1,0,true,q,false,true,0.0-2.0-0.62-0.561-3.561,0,1,0,81,false,stim,false,1,634.0,1,0,2,67495,task3,1398195,false,false,1870,image-keyboard-response,11
true,28,2,1,1,false,z,false,false,0.0-2.0-0.62-0.562-3.562,0,1,0,68,false,stim,true,2,713.0,1,0,0,67495,task3,1400415,false,false,1873,image-keyboard-response,12
true,28,2,1,2,true,d,false,true,0.0-2.0-0.62-0.563-3.563,0,1,0,68,false,stim,false,2,904.0,1,1,1,67495,task3,1402825,false,false,1876,image-keyboard-response,13
true,28,2,1,2,true,d,false,true,0.0-2.0-0.62-0.564-3.564,0,1,0,68,false,stim,false,2,510.0,1,1,1,67495,task3,1404842,false,false,1879,image-keyboard-response,14
true,28,2,1,2,true,d,false,true,0.0-2.0-0.62-0.565-3.565,0,1,0,68,false,stim,false,2,474.0,1,1,1,67495,task3,1406823,false,false,1882,image-keyboard-response,15
true,28,0,1,0,true,q,false,true,0.0-2.0-0.62-0.566-3.566,0,1,0,81,false,stim,false,1,604.0,1,0,2,67495,task3,1408934,false,false,1885,image-keyboard-response,16
true,28,0,1,0,true,q,false,true,0.0-2.0-0.63-0.567-3.567,0,1,0,81,false,stim,false,1,589.0000000002328,1,0,2,67495,task3,1411030,false,false,1888,image-keyboard-response,17
true,28,2,1,2,true,d,false,true,0.0-2.0-0.63-0.568-3.568,0,1,0,68,false,stim,false,2,1122.0,1,1,1,67495,task3,1413659,false,false,1891,image-keyboard-response,18
true,28,2,1,2,true,d,false,true,0.0-2.0-0.63-0.569-3.569,0,1,0,68,false,stim,false,2,577.0,1,0,1,67495,task3,1415747,false,false,1894,image-keyboard-response,19
true,28,0,1,0,true,q,false,true,0.0-2.0-0.63-0.570-3.570,0,1,0,81,false,stim,false,1,592.0,1,0,2,67495,task3,1417846,false,false,1897,image-keyboard-response,20
true,28,1,1,1,true,z,false,true,0.0-2.0-0.63-0.571-3.571,0,1,0,90,false,stim,false,2,405.0,1,1,0,67495,task3,1419757,false,false,1900,image-keyboard-response,21
true,28,2,1,2,true,d,false,false,0.0-2.0-0.63-0.572-3.572,0,1,0,68,false,stim,false,2,824.0,1,0,1,67495,task3,1422098,false,true,1903,image-keyboard-response,22
true,28,1,1,1,true,z,false,true,0.0-2.0-0.63-0.573-3.573,0,1,0,90,false,stim,false,2,992.0,1,1,0,67495,task3,1424599,false,false,1906,image-keyboard-response,23
true,29,1,1,1,true,z,false,false,0.0-2.0-0.63-0.574-3.574,1,0,0,90,true,stim,false,1,506.99999999976717,1,1,0,67495,task3,1426613,false,true,1909,image-keyboard-response,1
true,29,0,1,1,false,z,false,false,0.0-2.0-0.63-0.575-3.575,1,0,0,81,false,stim,true,0,706.0,1,0,2,67495,task3,1428826,false,false,1912,image-keyboard-response,2
true,29,2,1,1,false,z,true,false,0.0-2.0-0.64-0.576-3.576,1,0,0,68,false,stim,false,0,399.0,1,0,2,67495,task3,1430734,false,false,1915,image-keyboard-response,3
true,29,2,1,0,false,q,false,false,0.0-2.0-0.64-0.577-3.577,1,0,0,68,false,stim,true,2,577.0,1,0,1,67495,task3,1432819,false,false,1918,image-keyboard-response,4
true,29,0,1,1,false,z,true,false,0.0-2.0-0.64-0.578-3.578,1,0,0,81,false,stim,false,1,797.0,1,1,0,67495,task3,1435124,false,false,1921,image-keyboard-response,5
true,29,0,1,1,false,z,true,false,0.0-2.0-0.64-0.579-3.579,1,0,0,81,false,stim,false,1,651.0,1,1,0,67495,task3,1437282,false,false,1924,image-keyboard-response,6
true,29,1,1,1,true,z,false,true,0.0-2.0-0.64-0.580-3.580,1,0,0,90,false,stim,false,0,386.00000000023283,1,0,2,67495,task3,1439175,false,false,1927,image-keyboard-response,7
true,29,2,1,0,false,q,false,false,0.0-2.0-0.64-0.581-3.581,1,0,0,68,false,stim,true,2,374.0,1,0,1,67495,task3,1441057,false,false,1930,image-keyboard-response,8
true,29,0,1,1,false,z,true,false,0.0-2.0-0.64-0.582-3.582,1,0,0,81,false,stim,false,1,703.0,1,1,0,67495,task3,1443268,false,false,1933,image-keyboard-response,9
true,29,1,1,0,false,q,true,false,0.0-2.0-0.64-0.583-3.583,1,0,0,90,false,stim,false,2,551.0,1,0,1,67495,task3,1445327,false,false,1936,image-keyboard-response,10
true,29,1,1,1,true,z,false,true,0.0-2.0-0.64-0.584-3.584,1,0,0,90,false,stim,false,0,607.0,1,0,2,67495,task3,1447441,false,false,1939,image-keyboard-response,11
true,29,2,1,1,false,z,true,true,0.0-2.0-0.65-0.585-3.585,1,0,0,68,false,stim,false,1,305.0,1,1,0,67495,task3,1449255,false,true,1942,image-keyboard-response,12
true,29,1,1,1,true,z,false,false,0.0-2.0-0.65-0.586-3.586,1,0,0,90,false,stim,false,0,770.0,1,0,2,67495,task3,1451535,false,true,1945,image-keyboard-response,13
true,29,2,1,1,false,z,true,false,0.0-2.0-0.65-0.587-3.587,1,0,0,68,false,stim,false,1,394.0,1,1,0,67495,task3,1453437,false,false,1948,image-keyboard-response,14
true,29,1,1,1,true,z,false,true,0.0-2.0-0.65-0.588-3.588,1,0,0,90,false,stim,false,0,386.00000000023283,1,0,2,67495,task3,1455330,false,false,1951,image-keyboard-response,15
true,29,2,1,0,false,q,false,false,0.0-2.0-0.65-0.589-3.589,1,0,0,68,false,stim,true,2,668.0,1,0,1,67495,task3,1457505,false,false,1954,image-keyboard-response,16
true,29,1,1,0,false,q,true,false,0.0-2.0-0.65-0.590-3.590,1,0,0,90,false,stim,false,2,634.0,1,0,1,67495,task3,1459648,false,false,1957,image-keyboard-response,17
true,29,2,1,1,false,z,true,false,0.0-2.0-0.65-0.591-3.591,1,0,0,68,false,stim,false,1,1014.0,1,1,0,67495,task3,1462168,false,false,1960,image-keyboard-response,18
true,29,1,1,1,true,z,false,true,0.0-2.0-0.65-0.592-3.592,1,0,0,90,false,stim,false,0,690.9999999997672,1,0,2,67495,task3,1464366,false,false,1963,image-keyboard-response,19
true,29,0,1,0,true,q,false,false,0.0-2.0-0.65-0.593-3.593,1,0,0,81,false,stim,false,2,975.0,1,1,1,67495,task3,1466848,false,true,1966,image-keyboard-response,20
true,29,2,1,0,false,q,false,false,0.0-2.0-0.66-0.594-3.594,1,0,0,68,false,stim,true,2,488.0,1,1,1,67495,task3,1468847,false,false,1969,image-keyboard-response,21
true,29,1,1,1,true,z,false,true,0.0-2.0-0.66-0.595-3.595,1,0,0,90,false,stim,false,0,645.0,1,0,2,67495,task3,1471000,false,false,1972,image-keyboard-response,22
true,29,1,1,1,true,z,false,true,0.0-2.0-0.66-0.596-3.596,1,0,0,90,false,stim,false,0,366.0,1,0,2,67495,task3,1472874,false,false,1975,image-keyboard-response,23
true,30,0,2,0,true,q,false,true,0.0-2.0-0.66-0.597-3.597,1,1,0,81,true,stim,false,0,869.0,1,1,1,67495,task3,1475251,false,false,1978,image-keyboard-response,1
true,30,2,2,1,false,z,true,false,0.0-2.0-0.66-0.598-3.598,1,1,0,68,false,stim,false,1,504.00000000023283,1,1,0,67495,task3,1477262,false,false,1981,image-keyboard-response,2
true,30,1,2,2,false,d,false,false,0.0-2.0-0.66-0.599-3.599,1,1,0,90,false,stim,true,1,921.0,1,0,2,67495,task3,1479691,false,false,1984,image-keyboard-response,3
true,30,0,2,0,true,q,false,true,0.0-2.0-0.66-0.600-3.600,1,1,0,81,false,stim,false,0,345.0,1,1,1,67495,task3,1481542,false,false,1987,image-keyboard-response,4
true,30,2,2,1,false,z,true,false,0.0-2.0-0.66-0.601-3.601,1,1,0,68,false,stim,false,1,756.0,1,1,0,67495,task3,1483806,false,false,1990,image-keyboard-response,5
true,30,1,2,1,true,z,false,true,0.0-2.0-0.66-0.602-3.602,1,1,0,90,false,stim,false,1,414.0,1,1,0,67495,task3,1485728,false,false,1993,image-keyboard-response,6
true,30,1,2,2,false,d,false,false,0.0-2.0-0.67-0.603-3.603,1,1,0,90,false,stim,true,1,713.0,1,0,2,67495,task3,1487950,false,false,1996,image-keyboard-response,7
true,30,1,2,1,true,z,false,true,0.0-2.0-0.67-0.604-3.604,1,1,0,90,false,stim,false,1,1104.0000000002328,1,1,0,67495,task3,1490561,false,false,1999,image-keyboard-response,8
true,30,0,2,2,false,d,true,false,0.0-2.0-0.67-0.605-3.605,1,1,0,81,false,stim,false,1,745.9999999997672,1,0,2,67495,task3,1492827,false,false,2002,image-keyboard-response,9
true,30,1,2,1,true,z,false,true,0.0-2.0-0.67-0.606-3.606,1,1,0,90,false,stim,false,1,1099.0,1,1,0,67495,task3,1495433,false,false,2005,image-keyboard-response,10
true,30,2,2,2,true,d,false,true,0.0-2.0-0.67-0.607-3.607,1,1,0,68,false,stim,false,1,552.0,1,0,2,67495,task3,1497493,false,false,2008,image-keyboard-response,11
true,30,0,2,0,true,q,false,true,0.0-2.0-0.67-0.608-3.608,1,1,0,81,false,stim,false,0,708.0,1,1,1,67495,task3,1499707,false,false,2011,image-keyboard-response,12
true,30,1,2,0,false,q,true,false,0.0-2.0-0.67-0.609-3.609,1,1,0,90,false,stim,false,0,588.0,1,1,1,67495,task3,1501805,false,false,2014,image-keyboard-response,13
true,30,1,2,1,true,z,false,true,0.0-2.0-0.67-0.610-3.610,1,1,0,90,false,stim,false,1,368.0,1,1,0,67495,task3,1503681,false,false,2017,image-keyboard-response,14
true,30,0,2,0,true,q,false,true,0.0-2.0-0.67-0.611-3.611,1,1,0,81,false,stim,false,0,889.0,1,1,1,67495,task3,1506078,false,false,2020,image-keyboard-response,15
true,30,0,2,0,true,q,false,true,0.0-2.0-0.68-0.612-3.612,1,1,0,81,false,stim,false,0,530.0,1,1,1,67495,task3,1508116,false,false,2023,image-keyboard-response,16
true,30,0,2,0,true,q,false,true,0.0-2.0-0.68-0.613-3.613,1,1,0,81,false,stim,false,0,505.00000000023283,1,1,1,67495,task3,1510129,false,false,2026,image-keyboard-response,17
true,30,1,2,1,true,z,false,true,0.0-2.0-0.68-0.614-3.614,1,1,0,90,false,stim,false,1,391.0,1,1,0,67495,task3,1512030,false,false,2029,image-keyboard-response,18
true,30,2,2,2,true,d,false,true,0.0-2.0-0.68-0.615-3.615,1,1,0,68,false,stim,false,1,405.0,1,0,2,67495,task3,1513942,false,false,2032,image-keyboard-response,19
