answered,blockNum,choice,condition,corResp,correct,correct_response,explo,fb,internal_node_id,isStable_1,isStable_2,isStable_3,key_press,newBlock,part,persev,persevResp,rt,sessNum,stableAS,stimulus,subject,task,time_elapsed,training,trap,trial_index,trial_type,trialsInBlock
true,1,0,0,0,true,q,false,true,0.0-2.0-0.0-0.0-3.0,0,0,0,81,true,stim,false,-1,1202,1,0,1,68193,task3,329905,false,false,115,image-keyboard-response,1
true,1,1,0,0,false,q,true,true,0.0-2.0-0.0-0.1-3.1,0,0,0,90,false,stim,false,-1,496,1,0,2,68193,task3,331933,false,true,118,image-keyboard-response,2
true,1,1,0,0,false,q,true,false,0.0-2.0-0.0-0.2-3.2,0,0,0,90,false,stim,false,-1,585,1,0,2,68193,task3,334034,false,false,121,image-keyboard-response,3
true,1,2,0,0,false,q,true,false,0.0-2.0-0.0-0.3-3.3,0,0,0,68,false,stim,false,-1,703,1,0,2,68193,task3,336262,false,false,124,image-keyboard-response,4
true,1,1,0,2,false,d,true,false,0.0-2.0-0.0-0.4-3.4,0,0,0,90,false,stim,false,-1,935,1,0,0,68193,task3,338720,false,false,127,image-keyboard-response,5
true,1,2,0,2,true,d,false,true,0.0-2.0-0.0-0.5-3.5,0,0,0,68,false,stim,false,-1,721,1,0,0,68193,task3,340971,false,false,130,image-keyboard-response,6
true,1,0,0,0,true,q,false,true,0.0-2.0-0.0-0.6-3.6,0,0,0,81,false,stim,false,-1,745,1,0,1,68193,task3,343242,false,false,133,image-keyboard-response,7
true,1,0,0,0,true,q,false,true,0.0-2.0-0.0-0.7-3.7,0,0,0,81,false,stim,false,-1,891,1,0,1,68193,task3,345661,false,false,136,image-keyboard-response,8
true,1,2,0,2,true,d,false,true,0.0-2.0-0.0-0.8-3.8,0,0,0,68,false,stim,false,-1,831,1,0,0,68193,task3,348014,false,false,139,image-keyboard-response,9
true,1,2,0,2,true,d,false,true,0.0-2.0-0.1-0.9-3.9,0,0,0,68,false,stim,false,-1,1531,1,0,0,68193,task3,351061,false,false,142,image-keyboard-response,10
true,1,0,0,0,true,q,false,true,0.0-2.0-0.1-0.10-3.10,0,0,0,81,false,stim,false,-1,811,1,0,1,68193,task3,353393,false,false,145,image-keyboard-response,11
true,1,1,0,0,false,q,true,false,0.0-2.0-0.1-0.11-3.11,0,0,0,90,false,stim,false,-1,1471,1,0,2,68193,task3,356394,false,false,148,image-keyboard-response,12
true,1,0,0,0,true,q,false,true,0.0-2.0-0.1-0.12-3.12,0,0,0,81,false,stim,false,-1,783,1,0,1,68193,task3,358693,false,false,151,image-keyboard-response,13
true,1,0,0,0,true,q,false,true,0.0-2.0-0.1-0.13-3.13,0,0,0,81,false,stim,false,-1,612,1,0,1,68193,task3,360832,false,false,154,image-keyboard-response,14
true,1,2,0,2,true,d,false,true,0.0-2.0-0.1-0.14-3.14,0,0,0,68,false,stim,false,-1,1042,1,0,0,68193,task3,363400,false,false,157,image-keyboard-response,15
true,1,1,0,0,false,q,true,false,0.0-2.0-0.1-0.15-3.15,0,0,0,90,false,stim,false,-1,1308,1,0,2,68193,task3,366229,false,false,160,image-keyboard-response,16
true,1,2,0,2,true,d,false,true,0.0-2.0-0.1-0.16-3.16,0,0,0,68,false,stim,false,-1,1452,1,0,0,68193,task3,369212,false,false,163,image-keyboard-response,17
true,1,1,0,0,false,q,true,false,0.0-2.0-0.1-0.17-3.17,0,0,0,90,false,stim,false,-1,1128,1,0,2,68193,task3,371867,false,false,166,image-keyboard-response,18
true,1,0,0,0,true,q,false,true,0.0-2.0-0.2-0.18-3.18,0,0,0,81,false,stim,false,-1,538,1,0,2,68193,task3,373915,false,false,169,image-keyboard-response,19
true,1,2,0,2,true,d,false,true,0.0-2.0-0.2-0.19-3.19,0,0,0,68,false,stim,false,-1,605,1,1,0,68193,task3,376033,false,false,172,image-keyboard-response,20
true,1,2,0,2,true,d,false,true,0.0-2.0-0.2-0.20-3.20,0,0,0,68,false,stim,false,-1,748,1,1,0,68193,task3,378309,false,false,175,image-keyboard-response,21
true,1,0,0,0,true,q,false,true,0.0-2.0-0.2-0.21-3.21,0,0,0,81,false,stim,false,-1,967,1,1,1,68193,task3,380798,false,false,178,image-keyboard-response,22
true,1,0,0,0,true,q,false,true,0.0-2.0-0.2-0.22-3.22,0,0,0,81,false,stim,false,-1,776,1,1,1,68193,task3,383090,false,false,181,image-keyboard-response,23
true,1,0,0,0,true,q,false,true,0.0-2.0-0.2-0.23-3.23,0,0,0,81,false,stim,false,-1,773,1,1,1,68193,task3,385371,false,false,184,image-keyboard-response,24
true,2,0,2,1,false,z,false,false,0.0-2.0-0.2-0.24-3.24,1,1,0,81,true,stim,true,0,955,1,0,2,68193,task3,387839,false,false,187,image-keyboard-response,1
true,2,1,2,1,true,z,false,true,0.0-2.0-0.2-0.25-3.25,1,1,0,90,false,stim,false,0,979,1,0,2,68193,task3,390327,false,false,190,image-keyboard-response,2
true,2,2,2,2,true,d,false,true,0.0-2.0-0.2-0.26-3.26,1,1,0,68,false,stim,false,2,841,1,1,0,68193,task3,392680,false,false,193,image-keyboard-response,3
true,2,1,2,1,true,z,false,true,0.0-2.0-0.3-0.27-3.27,1,1,0,90,false,stim,false,0,623,1,0,2,68193,task3,394825,false,false,196,image-keyboard-response,4
true,2,0,2,0,true,q,false,true,0.0-2.0-0.3-0.28-3.28,1,1,0,81,false,stim,false,0,951,1,1,1,68193,task3,397291,false,false,199,image-keyboard-response,5
true,2,0,2,0,true,q,false,true,0.0-2.0-0.3-0.29-3.29,1,1,0,81,false,stim,false,0,899,1,1,1,68193,task3,399718,false,false,202,image-keyboard-response,6
true,2,1,2,1,true,z,false,true,0.0-2.0-0.3-0.30-3.30,1,1,0,90,false,stim,false,0,989,1,0,2,68193,task3,402221,false,false,205,image-keyboard-response,7
true,2,2,2,2,true,d,false,true,0.0-2.0-0.3-0.31-3.31,1,1,0,68,false,stim,false,2,1447,1,1,0,68193,task3,405196,false,false,208,image-keyboard-response,8
true,2,1,2,1,true,z,false,true,0.0-2.0-0.3-0.32-3.32,1,1,0,90,false,stim,false,0,901,1,0,2,68193,task3,407612,false,false,211,image-keyboard-response,9
true,2,2,2,2,true,d,false,false,0.0-2.0-0.3-0.33-3.33,1,1,0,68,false,stim,false,2,1139,1,1,0,68193,task3,410277,false,true,214,image-keyboard-response,10
true,2,0,2,0,true,q,false,true,0.0-2.0-0.3-0.34-3.34,1,1,0,81,false,stim,false,0,846,1,1,1,68193,task3,412646,false,false,217,image-keyboard-response,11
true,2,1,2,2,false,d,true,false,0.0-2.0-0.3-0.35-3.35,1,1,0,90,false,stim,false,2,657,1,1,0,68193,task3,414812,false,false,220,image-keyboard-response,12
true,2,2,2,2,true,d,false,true,0.0-2.0-0.4-0.36-3.36,1,1,0,68,false,stim,false,2,797,1,1,0,68193,task3,417127,false,false,223,image-keyboard-response,13
true,2,0,2,0,true,q,false,false,0.0-2.0-0.4-0.37-3.37,1,1,0,81,false,stim,false,0,1247,1,1,1,68193,task3,419905,false,true,226,image-keyboard-response,14
true,2,1,2,1,true,z,false,true,0.0-2.0-0.4-0.38-3.38,1,1,0,90,false,stim,false,0,902,1,0,2,68193,task3,422331,false,false,229,image-keyboard-response,15
true,2,2,2,2,true,d,false,true,0.0-2.0-0.4-0.39-3.39,1,1,0,68,false,stim,false,2,790,1,1,0,68193,task3,424647,false,false,232,image-keyboard-response,16
true,2,1,2,1,true,z,false,true,0.0-2.0-0.4-0.40-3.40,1,1,0,90,false,stim,false,0,1038,1,0,2,68193,task3,427207,false,false,235,image-keyboard-response,17
true,2,1,2,1,true,z,false,true,0.0-2.0-0.4-0.41-3.41,1,1,0,90,false,stim,false,0,671,1,0,2,68193,task3,429386,false,false,238,image-keyboard-response,18
true,2,1,2,0,false,q,true,false,0.0-2.0-0.4-0.42-3.42,1,1,0,90,false,stim,false,0,1489,1,1,1,68193,task3,432395,false,false,241,image-keyboard-response,19
true,2,2,2,2,true,d,false,true,0.0-2.0-0.4-0.43-3.43,1,1,0,68,false,stim,false,2,548,1,1,0,68193,task3,434463,false,false,244,image-keyboard-response,20
true,2,1,2,0,false,q,true,false,0.0-2.0-0.4-0.44-3.44,1,1,0,90,false,stim,false,0,827,1,1,1,68193,task3,436810,false,false,247,image-keyboard-response,21
true,2,1,2,1,true,z,false,true,0.0-2.0-0.5-0.45-3.45,1,1,0,90,false,stim,false,0,580,1,0,2,68193,task3,438921,false,false,250,image-keyboard-response,22
true,2,2,2,2,true,d,false,false,0.0-2.0-0.5-0.46-3.46,1,1,0,68,false,stim,false,2,982,1,1,0,68193,task3,441413,false,true,253,image-keyboard-response,23
true,2,1,2,0,false,q,true,true,0.0-2.0-0.5-0.47-3.47,1,1,0,90,false,stim,false,0,1066,1,0,1,68193,task3,443992,false,true,256,image-keyboard-response,24
true,2,0,2,1,false,z,false,true,0.0-2.0-0.5-0.48-3.48,1,1,0,81,false,stim,true,0,963,1,0,2,68193,task3,446471,false,true,259,image-keyboard-response,25
true,2,0,2,1,false,z,false,false,0.0-2.0-0.5-0.49-3.49,1,1,0,81,false,stim,true,0,741,1,0,2,68193,task3,448731,false,false,262,image-keyboard-response,26
true,2,1,2,0,false,q,true,false,0.0-2.0-0.5-0.50-3.50,1,1,0,90,false,stim,false,0,691,1,0,1,68193,task3,450946,false,false,265,image-keyboard-response,27
true,3,2,1,1,false,z,true,false,0.0-2.0-0.5-0.51-3.51,1,0,0,68,true,stim,false,0,710,1,0,1,68193,task3,453174,false,false,268,image-keyboard-response,1
true,3,2,1,2,true,d,false,true,0.0-2.0-0.5-0.52-3.52,1,0,0,68,false,stim,false,2,882,1,1,0,68193,task3,455591,false,false,271,image-keyboard-response,2
true,3,2,1,2,true,d,false,true,0.0-2.0-0.5-0.53-3.53,1,0,0,68,false,stim,false,2,724,1,1,0,68193,task3,457837,false,false,274,image-keyboard-response,3
true,3,2,1,1,false,z,true,false,0.0-2.0-0.6-0.54-3.54,1,0,0,68,false,stim,false,0,799,1,0,1,68193,task3,460160,false,false,277,image-keyboard-response,4
true,3,0,1,2,false,d,true,true,0.0-2.0-0.6-0.55-3.55,1,0,0,81,false,stim,false,1,1663,1,0,2,68193,task3,463339,false,true,280,image-keyboard-response,5
true,3,2,1,2,true,d,false,true,0.0-2.0-0.6-0.56-3.56,1,0,0,68,false,stim,false,2,491,1,1,0,68193,task3,465356,false,false,283,image-keyboard-response,6
true,3,1,1,1,true,z,false,false,0.0-2.0-0.6-0.57-3.57,1,0,0,90,false,stim,false,0,621,1,0,1,68193,task3,467499,false,true,286,image-keyboard-response,7
true,3,2,1,2,true,d,false,true,0.0-2.0-0.6-0.58-3.58,1,0,0,68,false,stim,false,2,791,1,1,0,68193,task3,469820,false,false,289,image-keyboard-response,8
true,3,2,1,2,true,d,false,true,0.0-2.0-0.6-0.59-3.59,1,0,0,68,false,stim,false,2,860,1,1,0,68193,task3,472193,false,false,292,image-keyboard-response,9
true,3,0,1,2,false,d,true,false,0.0-2.0-0.6-0.60-3.60,1,0,0,81,false,stim,false,1,868,1,0,2,68193,task3,474569,false,false,295,image-keyboard-response,10
true,3,0,1,1,false,z,false,false,0.0-2.0-0.6-0.61-3.61,1,0,0,81,false,stim,true,0,857,1,0,1,68193,task3,476958,false,false,298,image-keyboard-response,11
true,3,2,1,2,true,d,false,true,0.0-2.0-0.6-0.62-3.62,1,0,0,68,false,stim,false,1,1078,1,0,2,68193,task3,479562,false,false,301,image-keyboard-response,12
true,3,2,1,2,true,d,false,true,0.0-2.0-0.7-0.63-3.63,1,0,0,68,false,stim,false,2,1059,1,1,0,68193,task3,482138,false,false,304,image-keyboard-response,13
true,3,2,1,1,false,z,true,false,0.0-2.0-0.7-0.64-3.64,1,0,0,68,false,stim,false,0,716,1,0,1,68193,task3,484374,false,false,307,image-keyboard-response,14
true,3,0,1,2,false,d,true,false,0.0-2.0-0.7-0.65-3.65,1,0,0,81,false,stim,false,1,1415,1,0,2,68193,task3,487312,false,false,310,image-keyboard-response,15
true,3,1,1,1,true,z,false,false,0.0-2.0-0.7-0.66-3.66,1,0,0,90,false,stim,false,0,928,1,0,1,68193,task3,489752,false,true,313,image-keyboard-response,16
true,3,2,1,2,true,d,false,true,0.0-2.0-0.7-0.67-3.67,1,0,0,68,false,stim,false,1,969,1,0,2,68193,task3,492235,false,false,316,image-keyboard-response,17
true,3,2,1,2,true,d,false,true,0.0-2.0-0.7-0.68-3.68,1,0,0,68,false,stim,false,1,899,1,0,2,68193,task3,494655,false,false,319,image-keyboard-response,18
true,3,2,1,2,true,d,false,true,0.0-2.0-0.7-0.69-3.69,1,0,0,68,false,stim,false,2,750,1,1,0,68193,task3,496914,false,false,322,image-keyboard-response,19
true,3,2,1,2,true,d,false,true,0.0-2.0-0.7-0.70-3.70,1,0,0,68,false,stim,false,2,490,1,1,0,68193,task3,498913,false,false,325,image-keyboard-response,20
true,3,2,1,1,false,z,true,false,0.0-2.0-0.7-0.71-3.71,1,0,0,68,false,stim,false,0,846,1,0,1,68193,task3,501275,false,false,328,image-keyboard-response,21
true,3,1,1,1,true,z,false,true,0.0-2.0-0.8-0.72-3.72,1,0,0,90,false,stim,false,0,891,1,0,1,68193,task3,503675,false,false,331,image-keyboard-response,22
true,3,2,1,2,true,d,false,true,0.0-2.0-0.8-0.73-3.73,1,0,0,68,false,stim,false,2,705,1,1,0,68193,task3,505899,false,false,334,image-keyboard-response,23
true,3,1,1,1,true,z,false,true,0.0-2.0-0.8-0.74-3.74,1,0,0,90,false,stim,false,0,494,1,0,1,68193,task3,507914,false,false,337,image-keyboard-response,24
true,4,2,2,2,true,d,false,true,0.0-2.0-0.8-0.75-3.75,1,0,1,68,true,stim,false,2,957,1,1,2,68193,task3,510395,false,false,340,image-keyboard-response,1
true,4,2,2,2,true,d,false,true,0.0-2.0-0.8-0.76-3.76,1,0,1,68,false,stim,false,2,1355,1,1,0,68193,task3,513277,false,false,343,image-keyboard-response,2
true,4,1,2,0,false,q,false,false,0.0-2.0-0.8-0.77-3.77,1,0,1,90,false,stim,true,1,1063,1,0,1,68193,task3,515860,false,false,346,image-keyboard-response,3
true,4,2,2,2,true,d,false,true,0.0-2.0-0.8-0.78-3.78,1,0,1,68,false,stim,false,2,555,1,1,2,68193,task3,517942,false,false,349,image-keyboard-response,4
true,4,2,2,2,true,d,false,true,0.0-2.0-0.8-0.79-3.79,1,0,1,68,false,stim,false,2,588,1,1,2,68193,task3,520051,false,false,352,image-keyboard-response,5
true,4,2,2,2,true,d,false,false,0.0-2.0-0.8-0.80-3.80,1,0,1,68,false,stim,false,2,619,1,1,0,68193,task3,522197,false,true,355,image-keyboard-response,6
true,4,0,2,2,false,d,true,false,0.0-2.0-0.9-0.81-3.81,1,0,1,81,false,stim,false,2,456,1,1,0,68193,task3,524163,false,false,358,image-keyboard-response,7
true,4,1,2,2,false,d,true,true,0.0-2.0-0.9-0.82-3.82,1,0,1,90,false,stim,false,2,926,1,1,2,68193,task3,526598,false,true,361,image-keyboard-response,8
true,4,2,2,0,false,q,true,false,0.0-2.0-0.9-0.83-3.83,1,0,1,68,false,stim,false,1,1259,1,0,1,68193,task3,529380,false,false,364,image-keyboard-response,9
true,4,2,2,2,true,d,false,true,0.0-2.0-0.9-0.84-3.84,1,0,1,68,false,stim,false,2,637,1,1,0,68193,task3,531541,false,false,367,image-keyboard-response,10
true,4,0,2,0,true,q,false,true,0.0-2.0-0.9-0.85-3.85,1,0,1,81,false,stim,false,1,1538,1,0,1,68193,task3,534601,false,false,370,image-keyboard-response,11
true,4,2,2,2,true,d,false,true,0.0-2.0-0.9-0.86-3.86,1,0,1,68,false,stim,false,2,799,1,1,0,68193,task3,536909,false,false,373,image-keyboard-response,12
true,4,0,2,0,true,q,false,true,0.0-2.0-0.9-0.87-3.87,1,0,1,81,false,stim,false,1,904,1,0,1,68193,task3,539321,false,false,376,image-keyboard-response,13
true,4,1,2,2,false,d,true,false,0.0-2.0-0.9-0.88-3.88,1,0,1,90,false,stim,false,2,1049,1,1,2,68193,task3,541901,false,false,379,image-keyboard-response,14
true,4,2,2,2,true,d,false,true,0.0-2.0-0.9-0.89-3.89,1,0,1,68,false,stim,false,2,420,1,1,2,68193,task3,543839,false,false,382,image-keyboard-response,15
true,4,2,2,2,true,d,false,true,0.0-2.0-0.10-0.90-3.90,1,0,1,68,false,stim,false,2,423,1,1,2,68193,task3,545772,false,false,385,image-keyboard-response,16
true,4,2,2,2,true,d,false,true,0.0-2.0-0.10-0.91-3.91,1,0,1,68,false,stim,false,2,558,1,1,2,68193,task3,547858,false,false,388,image-keyboard-response,17
true,4,2,2,2,true,d,false,true,0.0-2.0-0.10-0.92-3.92,1,0,1,68,false,stim,false,2,855,1,1,2,68193,task3,550239,false,false,391,image-keyboard-response,18
true,4,2,2,2,true,d,false,true,0.0-2.0-0.10-0.93-3.93,1,0,1,68,false,stim,false,2,1400,1,1,0,68193,task3,553163,false,false,394,image-keyboard-response,19
true,4,2,2,2,true,d,false,true,0.0-2.0-0.10-0.94-3.94,1,0,1,68,false,stim,false,2,651,1,1,0,68193,task3,555334,false,false,397,image-keyboard-response,20
true,4,0,2,0,true,q,false,true,0.0-2.0-0.10-0.95-3.95,1,0,1,81,false,stim,false,1,572,1,0,1,68193,task3,557415,false,false,400,image-keyboard-response,21
true,4,2,2,2,true,d,false,true,0.0-2.0-0.10-0.96-3.96,1,0,1,68,false,stim,false,2,663,1,1,0,68193,task3,559605,false,false,403,image-keyboard-response,22
true,4,0,2,0,true,q,false,true,0.0-2.0-0.10-0.97-3.97,1,0,1,81,false,stim,false,1,1259,1,0,1,68193,task3,562385,false,false,406,image-keyboard-response,23
true,4,0,2,0,true,q,false,true,0.0-2.0-0.10-0.98-3.98,1,0,1,81,false,stim,false,1,929,1,0,1,68193,task3,564829,false,false,409,image-keyboard-response,24
true,4,2,2,2,true,d,false,true,0.0-2.0-0.11-0.99-3.99,1,0,1,68,false,stim,false,2,552,1,1,2,68193,task3,566912,false,false,412,image-keyboard-response,25
true,4,2,2,2,true,d,false,true,0.0-2.0-0.11-0.100-3.100,1,0,1,68,false,stim,false,2,874,1,1,2,68193,task3,569301,false,false,415,image-keyboard-response,26
true,4,2,2,2,true,d,false,true,0.0-2.0-0.11-0.101-3.101,1,0,1,68,false,stim,false,2,1133,1,0,0,68193,task3,571960,false,false,418,image-keyboard-response,27
false,4,-1,2,0,false,q,true,false,0.0-2.0-0.11-0.102-3.102,1,0,1,,false,stim,false,1,,1,0,1,68193,task3,576487,false,false,421,image-keyboard-response,28
true,4,0,2,0,true,q,false,true,0.0-2.0-0.11-0.103-3.103,1,0,1,81,false,stim,false,1,2370,1,0,1,68193,task3,580378,false,false,424,image-keyboard-response,29
true,5,2,1,2,true,d,false,true,0.0-2.0-0.11-0.104-3.104,0,0,1,68,true,stim,false,2,796,1,1,2,68193,task3,582691,false,false,427,image-keyboard-response,1
true,5,2,1,0,false,q,false,false,0.0-2.0-0.11-0.105-3.105,0,0,1,68,false,stim,true,2,1449,1,0,0,68193,task3,585663,false,false,430,image-keyboard-response,2
true,5,0,1,2,false,d,false,true,0.0-2.0-0.11-0.106-3.106,0,0,1,81,false,stim,true,0,1059,1,0,1,68193,task3,588255,false,true,433,image-keyboard-response,3
true,5,1,1,0,false,q,true,true,0.0-2.0-0.11-0.107-3.107,0,0,1,90,false,stim,false,2,892,1,0,0,68193,task3,590668,false,true,436,image-keyboard-response,4
true,5,1,1,0,false,q,true,false,0.0-2.0-0.12-0.108-3.108,0,0,1,90,false,stim,false,2,542,1,0,0,68193,task3,592752,false,false,439,image-keyboard-response,5
true,5,2,1,2,true,d,false,true,0.0-2.0-0.12-0.109-3.109,0,0,1,68,false,stim,false,2,1466,1,1,2,68193,task3,595748,false,false,442,image-keyboard-response,6
true,5,2,1,0,false,q,false,false,0.0-2.0-0.12-0.110-3.110,0,0,1,68,false,stim,true,2,354,1,0,0,68193,task3,597632,false,false,445,image-keyboard-response,7
true,5,0,1,2,false,d,false,true,0.0-2.0-0.12-0.111-3.111,0,0,1,81,false,stim,true,0,974,1,0,1,68193,task3,600125,false,true,448,image-keyboard-response,8
true,5,0,1,2,false,d,false,false,0.0-2.0-0.12-0.112-3.112,0,0,1,81,false,stim,true,0,539,1,0,1,68193,task3,602189,false,false,451,image-keyboard-response,9
true,5,2,1,2,true,d,false,true,0.0-2.0-0.12-0.113-3.113,0,0,1,68,false,stim,false,2,1828,1,1,2,68193,task3,605539,false,false,454,image-keyboard-response,10
true,5,2,1,2,true,d,false,true,0.0-2.0-0.12-0.114-3.114,0,0,1,68,false,stim,false,2,892,1,1,2,68193,task3,607955,false,false,457,image-keyboard-response,11
true,5,1,1,2,false,d,true,false,0.0-2.0-0.12-0.115-3.115,0,0,1,90,false,stim,false,0,1786,1,0,1,68193,task3,611259,false,false,460,image-keyboard-response,12
true,5,2,1,0,false,q,false,false,0.0-2.0-0.12-0.116-3.116,0,0,1,68,false,stim,true,2,1113,1,0,0,68193,task3,613897,false,false,463,image-keyboard-response,13
true,5,2,1,2,true,d,false,true,0.0-2.0-0.13-0.117-3.117,0,0,1,68,false,stim,false,2,940,1,1,2,68193,task3,616361,false,false,466,image-keyboard-response,14
true,5,0,1,0,true,q,false,true,0.0-2.0-0.13-0.118-3.118,0,0,1,81,false,stim,false,2,1391,1,0,0,68193,task3,619290,false,false,469,image-keyboard-response,15
true,5,0,1,0,true,q,false,true,0.0-2.0-0.13-0.119-3.119,0,0,1,81,false,stim,false,2,946,1,0,0,68193,task3,621753,false,false,472,image-keyboard-response,16
true,5,2,1,2,true,d,false,true,0.0-2.0-0.13-0.120-3.120,0,0,1,68,false,stim,false,0,920,1,0,1,68193,task3,624204,false,false,475,image-keyboard-response,17
true,5,1,1,2,false,d,true,false,0.0-2.0-0.13-0.121-3.121,0,0,1,90,false,stim,false,2,2240,1,1,2,68193,task3,627959,false,false,478,image-keyboard-response,18
true,5,2,1,0,false,q,false,true,0.0-2.0-0.13-0.122-3.122,0,0,1,68,false,stim,true,2,1071,1,0,0,68193,task3,630555,false,true,481,image-keyboard-response,19
true,5,2,1,2,true,d,false,true,0.0-2.0-0.13-0.123-3.123,0,0,1,68,false,stim,false,2,1510,1,0,2,68193,task3,633581,false,false,484,image-keyboard-response,20
true,5,0,1,2,false,d,false,false,0.0-2.0-0.13-0.124-3.124,0,0,1,81,false,stim,true,0,1194,1,1,1,68193,task3,636294,false,false,487,image-keyboard-response,21
true,5,1,1,2,false,d,true,false,0.0-2.0-0.13-0.125-3.125,0,0,1,90,false,stim,false,0,1256,1,1,1,68193,task3,639078,false,false,490,image-keyboard-response,22
true,5,2,1,2,true,d,false,true,0.0-2.0-0.14-0.126-3.126,0,0,1,68,false,stim,false,0,870,1,1,1,68193,task3,641479,false,false,493,image-keyboard-response,23
true,5,2,1,0,false,q,false,true,0.0-2.0-0.14-0.127-3.127,0,0,1,68,false,stim,true,2,693,1,0,0,68193,task3,643691,false,true,496,image-keyboard-response,24
true,6,2,1,2,true,d,false,true,0.0-2.0-0.14-0.128-3.128,0,1,0,68,true,stim,false,0,724,1,0,0,68193,task3,645934,false,false,499,image-keyboard-response,1
true,6,2,1,1,false,z,false,false,0.0-2.0-0.14-0.129-3.129,0,1,0,68,false,stim,true,2,947,1,0,2,68193,task3,648410,false,false,502,image-keyboard-response,2
true,6,2,1,1,false,z,false,false,0.0-2.0-0.14-0.130-3.130,0,1,0,68,false,stim,true,2,1018,1,0,2,68193,task3,650951,false,false,505,image-keyboard-response,3
true,6,0,1,1,false,z,true,false,0.0-2.0-0.14-0.131-3.131,0,1,0,81,false,stim,false,2,509,1,0,2,68193,task3,652981,false,false,508,image-keyboard-response,4
true,6,2,1,2,true,d,false,true,0.0-2.0-0.14-0.132-3.132,0,1,0,68,false,stim,false,2,895,1,1,1,68193,task3,655398,false,false,511,image-keyboard-response,5
true,6,2,1,2,true,d,false,true,0.0-2.0-0.14-0.133-3.133,0,1,0,68,false,stim,false,0,931,1,0,0,68193,task3,657841,false,false,514,image-keyboard-response,6
true,6,1,1,2,false,d,true,false,0.0-2.0-0.14-0.134-3.134,0,1,0,90,false,stim,false,2,748,1,1,1,68193,task3,660117,false,false,517,image-keyboard-response,7
true,6,2,1,2,true,d,false,false,0.0-2.0-0.15-0.135-3.135,0,1,0,68,false,stim,false,0,669,1,0,0,68193,task3,662302,false,true,520,image-keyboard-response,8
true,6,2,1,2,true,d,false,true,0.0-2.0-0.15-0.136-3.136,0,1,0,68,false,stim,false,2,1106,1,1,1,68193,task3,664929,false,false,523,image-keyboard-response,9
true,6,2,1,2,true,d,false,true,0.0-2.0-0.15-0.137-3.137,0,1,0,68,false,stim,false,0,1138,1,0,0,68193,task3,667582,false,false,526,image-keyboard-response,10
true,6,0,1,2,false,d,false,false,0.0-2.0-0.15-0.138-3.138,0,1,0,81,false,stim,true,0,970,1,0,0,68193,task3,670068,false,false,529,image-keyboard-response,11
true,6,2,1,1,false,z,false,false,0.0-2.0-0.15-0.139-3.139,0,1,0,68,false,stim,true,2,783,1,0,2,68193,task3,672365,false,false,532,image-keyboard-response,12
true,6,2,1,2,true,d,false,true,0.0-2.0-0.15-0.140-3.140,0,1,0,68,false,stim,false,2,798,1,1,1,68193,task3,674672,false,false,535,image-keyboard-response,13
true,6,2,1,2,true,d,false,true,0.0-2.0-0.15-0.141-3.141,0,1,0,68,false,stim,false,2,653,1,1,1,68193,task3,676844,false,false,538,image-keyboard-response,14
true,6,2,1,1,false,z,false,false,0.0-2.0-0.15-0.142-3.142,0,1,0,68,false,stim,true,2,827,1,0,2,68193,task3,679201,false,false,541,image-keyboard-response,15
true,6,1,1,1,true,z,false,true,0.0-2.0-0.15-0.143-3.143,0,1,0,90,false,stim,false,2,725,1,0,2,68193,task3,681454,false,false,544,image-keyboard-response,16
true,6,2,1,2,true,d,false,true,0.0-2.0-0.16-0.144-3.144,0,1,0,68,false,stim,false,2,523,1,1,1,68193,task3,683495,false,false,547,image-keyboard-response,17
true,6,1,1,1,true,z,false,true,0.0-2.0-0.16-0.145-3.145,0,1,0,90,false,stim,false,2,1515,1,1,2,68193,task3,686524,false,false,550,image-keyboard-response,18
true,6,2,1,2,true,d,false,true,0.0-2.0-0.16-0.146-3.146,0,1,0,68,false,stim,false,2,621,1,1,1,68193,task3,688664,false,false,553,image-keyboard-response,19
true,6,1,1,1,true,z,false,true,0.0-2.0-0.16-0.147-3.147,0,1,0,90,false,stim,false,2,1110,1,1,2,68193,task3,691299,false,false,556,image-keyboard-response,20
true,6,0,1,2,false,d,false,false,0.0-2.0-0.16-0.148-3.148,0,1,0,81,false,stim,true,0,1731,1,0,0,68193,task3,694549,false,false,559,image-keyboard-response,21
true,6,2,1,2,true,d,false,true,0.0-2.0-0.16-0.149-3.149,0,1,0,68,false,stim,false,0,458,1,0,0,68193,task3,696537,false,false,562,image-keyboard-response,22
true,7,1,2,1,true,z,false,true,0.0-2.0-0.16-0.150-3.150,0,1,1,90,true,stim,false,1,807,1,1,2,68193,task3,698868,false,false,565,image-keyboard-response,1
true,7,2,2,1,false,z,false,false,0.0-2.0-0.16-0.151-3.151,0,1,1,68,false,stim,true,2,996,1,0,0,68193,task3,701384,false,false,568,image-keyboard-response,2
true,7,2,2,2,true,d,false,true,0.0-2.0-0.16-0.152-3.152,0,1,1,68,false,stim,false,2,1402,1,1,1,68193,task3,704296,false,false,571,image-keyboard-response,3
true,7,0,2,1,false,z,true,false,0.0-2.0-0.17-0.153-3.153,0,1,1,81,false,stim,false,1,818,1,1,2,68193,task3,706650,false,false,574,image-keyboard-response,4
true,7,2,2,1,false,z,false,false,0.0-2.0-0.17-0.154-3.154,0,1,1,68,false,stim,true,2,827,1,0,0,68193,task3,709000,false,false,577,image-keyboard-response,5
true,7,1,2,1,true,z,false,true,0.0-2.0-0.17-0.155-3.155,0,1,1,90,false,stim,false,1,650,1,1,2,68193,task3,711173,false,false,580,image-keyboard-response,6
true,7,0,2,1,false,z,true,false,0.0-2.0-0.17-0.156-3.156,0,1,1,81,false,stim,false,2,1109,1,0,0,68193,task3,713803,false,false,583,image-keyboard-response,7
true,7,1,2,1,true,z,false,true,0.0-2.0-0.17-0.157-3.157,0,1,1,90,false,stim,false,1,1097,1,1,2,68193,task3,716426,false,false,586,image-keyboard-response,8
true,7,2,2,2,true,d,false,true,0.0-2.0-0.17-0.158-3.158,0,1,1,68,false,stim,false,2,452,1,1,1,68193,task3,718390,false,false,589,image-keyboard-response,9
true,7,2,2,2,true,d,false,true,0.0-2.0-0.17-0.159-3.159,0,1,1,68,false,stim,false,2,649,1,1,1,68193,task3,720552,false,false,592,image-keyboard-response,10
true,7,0,2,1,false,z,true,false,0.0-2.0-0.17-0.160-3.160,0,1,1,81,false,stim,false,2,790,1,1,0,68193,task3,722869,false,false,595,image-keyboard-response,11
true,7,2,2,2,true,d,false,true,0.0-2.0-0.17-0.161-3.161,0,1,1,68,false,stim,false,2,1072,1,1,1,68193,task3,725453,false,false,598,image-keyboard-response,12
true,7,0,2,1,false,z,true,true,0.0-2.0-0.18-0.162-3.162,0,1,1,81,false,stim,false,2,1392,1,1,0,68193,task3,728374,false,true,601,image-keyboard-response,13
true,7,1,2,1,true,z,false,true,0.0-2.0-0.18-0.163-3.163,0,1,1,90,false,stim,false,1,566,1,0,2,68193,task3,730461,false,false,604,image-keyboard-response,14
true,8,2,2,2,true,d,false,true,0.0-2.0-0.18-0.164-3.164,1,1,0,68,true,stim,false,2,825,1,1,1,68193,task3,732813,false,false,607,image-keyboard-response,1
true,8,2,2,2,true,d,false,false,0.0-2.0-0.18-0.165-3.165,1,1,0,68,false,stim,false,2,777,1,1,1,68193,task3,735113,false,true,610,image-keyboard-response,2
true,8,1,2,2,false,d,true,false,0.0-2.0-0.18-0.166-3.166,1,1,0,90,false,stim,false,2,1500,1,1,1,68193,task3,738129,false,false,613,image-keyboard-response,3
true,8,0,2,0,true,q,false,true,0.0-2.0-0.18-0.167-3.167,1,1,0,81,false,stim,false,1,1383,1,0,2,68193,task3,741029,false,false,616,image-keyboard-response,4
true,8,0,2,0,true,q,false,true,0.0-2.0-0.18-0.168-3.168,1,1,0,81,false,stim,false,1,1110,1,0,2,68193,task3,743662,false,false,619,image-keyboard-response,5
true,8,2,2,1,false,z,true,false,0.0-2.0-0.18-0.169-3.169,1,1,0,68,false,stim,false,1,1240,1,1,0,68193,task3,746428,false,false,622,image-keyboard-response,6
true,8,0,2,1,false,z,true,false,0.0-2.0-0.18-0.170-3.170,1,1,0,81,false,stim,false,1,676,1,1,0,68193,task3,748629,false,false,625,image-keyboard-response,7
true,8,0,2,0,true,q,false,true,0.0-2.0-0.19-0.171-3.171,1,1,0,81,false,stim,false,1,773,1,1,2,68193,task3,750926,false,false,628,image-keyboard-response,8
true,8,1,2,1,true,z,false,true,0.0-2.0-0.19-0.172-3.172,1,1,0,90,false,stim,false,1,533,1,1,0,68193,task3,752984,false,false,631,image-keyboard-response,9
true,8,0,2,0,true,q,false,true,0.0-2.0-0.19-0.173-3.173,1,1,0,81,false,stim,false,1,654,1,1,2,68193,task3,755150,false,false,634,image-keyboard-response,10
true,8,2,2,2,true,d,false,false,0.0-2.0-0.19-0.174-3.174,1,1,0,68,false,stim,false,2,657,1,0,1,68193,task3,757331,false,true,637,image-keyboard-response,11
true,8,2,2,2,true,d,false,true,0.0-2.0-0.19-0.175-3.175,1,1,0,68,false,stim,false,2,1172,1,0,1,68193,task3,760030,false,false,640,image-keyboard-response,12
true,9,0,2,0,true,q,false,true,0.0-2.0-0.19-0.176-3.176,1,0,1,81,true,stim,false,0,2415,1,1,2,68193,task3,763962,false,false,643,image-keyboard-response,1
true,9,2,2,0,false,q,false,false,0.0-2.0-0.19-0.177-3.177,1,0,1,68,false,stim,true,2,937,1,0,1,68193,task3,766419,false,false,646,image-keyboard-response,2
true,9,2,2,1,false,z,true,false,0.0-2.0-0.19-0.178-3.178,1,0,1,68,false,stim,false,1,844,1,1,0,68193,task3,768784,false,false,649,image-keyboard-response,3
true,9,1,2,1,true,z,false,true,0.0-2.0-0.19-0.179-3.179,1,0,1,90,false,stim,false,1,959,1,1,0,68193,task3,771267,false,false,652,image-keyboard-response,4
true,9,0,2,0,true,q,false,true,0.0-2.0-0.20-0.180-3.180,1,0,1,81,false,stim,false,0,482,1,1,2,68193,task3,773270,false,false,655,image-keyboard-response,5
true,9,0,2,0,true,q,false,true,0.0-2.0-0.20-0.181-3.181,1,0,1,81,false,stim,false,0,678,1,1,2,68193,task3,775468,false,false,658,image-keyboard-response,6
true,9,2,2,0,false,q,false,false,0.0-2.0-0.20-0.182-3.182,1,0,1,68,false,stim,true,2,751,1,0,1,68193,task3,777755,false,false,661,image-keyboard-response,7
true,9,1,2,0,false,q,true,false,0.0-2.0-0.20-0.183-3.183,1,0,1,90,false,stim,false,2,411,1,0,1,68193,task3,779693,false,false,664,image-keyboard-response,8
true,9,1,2,1,true,z,false,true,0.0-2.0-0.20-0.184-3.184,1,0,1,90,false,stim,false,1,811,1,1,0,68193,task3,782041,false,false,667,image-keyboard-response,9
true,9,1,2,1,true,z,false,true,0.0-2.0-0.20-0.185-3.185,1,0,1,90,false,stim,false,1,831,1,1,0,68193,task3,784393,false,false,670,image-keyboard-response,10
true,9,0,2,0,true,q,false,true,0.0-2.0-0.20-0.186-3.186,1,0,1,81,false,stim,false,0,653,1,1,2,68193,task3,786574,false,false,673,image-keyboard-response,11
true,9,1,2,1,true,z,false,true,0.0-2.0-0.20-0.187-3.187,1,0,1,90,false,stim,false,1,768,1,1,0,68193,task3,788878,false,false,676,image-keyboard-response,12
true,9,0,2,0,true,q,false,true,0.0-2.0-0.20-0.188-3.188,1,0,1,81,false,stim,false,2,1510,1,0,1,68193,task3,791903,false,false,679,image-keyboard-response,13
true,9,0,2,0,true,q,false,true,0.0-2.0-0.21-0.189-3.189,1,0,1,81,false,stim,false,0,597,1,1,2,68193,task3,794027,false,false,682,image-keyboard-response,14
true,9,1,2,1,true,z,false,true,0.0-2.0-0.21-0.190-3.190,1,0,1,90,false,stim,false,1,532,1,1,0,68193,task3,796075,false,false,685,image-keyboard-response,15
true,9,0,2,0,true,q,false,true,0.0-2.0-0.21-0.191-3.191,1,0,1,81,false,stim,false,2,723,1,0,1,68193,task3,798316,false,false,688,image-keyboard-response,16
true,9,1,2,1,true,z,false,true,0.0-2.0-0.21-0.192-3.192,1,0,1,90,false,stim,false,1,955,1,1,0,68193,task3,800793,false,false,691,image-keyboard-response,17
true,9,0,2,0,true,q,false,true,0.0-2.0-0.21-0.193-3.193,1,0,1,81,false,stim,false,2,2082,1,0,1,68193,task3,804396,false,false,694,image-keyboard-response,18
true,9,0,2,0,true,q,false,true,0.0-2.0-0.21-0.194-3.194,1,0,1,81,false,stim,false,2,462,1,0,1,68193,task3,806384,false,false,697,image-keyboard-response,19
true,9,1,2,1,true,z,false,true,0.0-2.0-0.21-0.195-3.195,1,0,1,90,false,stim,false,1,889,1,1,0,68193,task3,808786,false,false,700,image-keyboard-response,20
true,9,0,2,0,true,q,false,true,0.0-2.0-0.21-0.196-3.196,1,0,1,81,false,stim,false,0,763,1,1,2,68193,task3,811085,false,false,703,image-keyboard-response,21
true,9,0,2,0,true,q,false,true,0.0-2.0-0.21-0.197-3.197,1,0,1,81,false,stim,false,0,1783,1,1,2,68193,task3,814392,false,false,706,image-keyboard-response,22
true,9,0,2,0,true,q,false,true,0.0-2.0-0.22-0.198-3.198,1,0,1,81,false,stim,false,2,1033,1,0,1,68193,task3,816933,false,false,709,image-keyboard-response,23
true,9,1,2,1,true,z,false,true,0.0-2.0-0.22-0.199-3.199,1,0,1,90,false,stim,false,1,839,1,1,0,68193,task3,819294,false,false,712,image-keyboard-response,24
true,9,0,2,0,true,q,false,true,0.0-2.0-0.22-0.200-3.200,1,0,1,81,false,stim,false,0,896,1,1,2,68193,task3,821710,false,false,715,image-keyboard-response,25
true,9,0,2,0,true,q,false,false,0.0-2.0-0.22-0.201-3.201,1,0,1,81,false,stim,false,2,1173,1,0,1,68193,task3,824405,false,true,718,image-keyboard-response,26
true,10,1,2,1,true,z,false,true,0.0-2.0-0.22-0.202-3.202,1,0,1,90,true,stim,false,1,721,1,1,0,68193,task3,826660,false,false,721,image-keyboard-response,1
true,10,0,2,0,true,q,false,true,0.0-2.0-0.22-0.203-3.203,1,0,1,81,false,stim,false,0,781,1,1,2,68193,task3,828957,false,false,724,image-keyboard-response,2
true,10,0,2,0,true,q,false,true,0.0-2.0-0.22-0.204-3.204,1,0,1,81,false,stim,false,0,508,1,1,2,68193,task3,830986,false,false,727,image-keyboard-response,3
true,10,1,2,1,true,z,false,true,0.0-2.0-0.22-0.205-3.205,1,0,1,90,false,stim,false,0,467,1,0,1,68193,task3,832981,false,false,730,image-keyboard-response,4
true,10,1,2,1,true,z,false,false,0.0-2.0-0.22-0.206-3.206,1,0,1,90,false,stim,false,1,520,1,1,0,68193,task3,835020,false,true,733,image-keyboard-response,5
true,10,1,2,1,true,z,false,true,0.0-2.0-0.23-0.207-3.207,1,0,1,90,false,stim,false,0,866,1,0,1,68193,task3,837402,false,false,736,image-keyboard-response,6
true,10,0,2,0,true,q,false,true,0.0-2.0-0.23-0.208-3.208,1,0,1,81,false,stim,false,0,641,1,1,2,68193,task3,839553,false,false,739,image-keyboard-response,7
true,10,2,2,1,false,z,true,false,0.0-2.0-0.23-0.209-3.209,1,0,1,68,false,stim,false,1,433,1,1,0,68193,task3,841509,false,false,742,image-keyboard-response,8
true,10,0,2,0,true,q,false,true,0.0-2.0-0.23-0.210-3.210,1,0,1,81,false,stim,false,0,1367,1,1,2,68193,task3,844399,false,false,745,image-keyboard-response,9
true,10,1,2,1,true,z,false,true,0.0-2.0-0.23-0.211-3.211,1,0,1,90,false,stim,false,1,459,1,0,0,68193,task3,846368,false,false,748,image-keyboard-response,10
true,10,1,2,1,true,z,false,true,0.0-2.0-0.23-0.212-3.212,1,0,1,90,false,stim,false,1,540,1,0,0,68193,task3,848427,false,false,751,image-keyboard-response,11
true,10,1,2,1,true,z,false,true,0.0-2.0-0.23-0.213-3.213,1,0,1,90,false,stim,false,0,646,1,1,1,68193,task3,850596,false,false,754,image-keyboard-response,12
true,10,0,2,0,true,q,false,true,0.0-2.0-0.23-0.214-3.214,1,0,1,81,false,stim,false,0,785,1,0,2,68193,task3,852895,false,false,757,image-keyboard-response,13
true,10,0,2,1,false,z,false,false,0.0-2.0-0.23-0.215-3.215,1,0,1,81,false,stim,true,0,987,1,1,1,68193,task3,855405,false,false,760,image-keyboard-response,14
true,11,1,1,0,false,q,false,true,0.0-2.0-0.24-0.216-3.216,0,1,0,90,true,stim,true,1,695,1,0,0,68193,task3,857619,false,true,763,image-keyboard-response,1
true,11,1,1,0,false,q,false,false,0.0-2.0-0.24-0.217-3.217,0,1,0,90,false,stim,true,1,501,1,0,0,68193,task3,859638,false,false,766,image-keyboard-response,2
true,11,1,1,1,true,z,false,true,0.0-2.0-0.24-0.218-3.218,0,1,0,90,false,stim,false,1,1715,1,1,1,68193,task3,862874,false,false,769,image-keyboard-response,3
true,11,2,1,0,false,q,true,false,0.0-2.0-0.24-0.219-3.219,0,1,0,68,false,stim,false,1,860,1,0,0,68193,task3,865261,false,false,772,image-keyboard-response,4
true,11,0,1,1,false,z,false,false,0.0-2.0-0.24-0.220-3.220,0,1,0,81,false,stim,true,0,780,1,0,2,68193,task3,867570,false,false,775,image-keyboard-response,5
true,11,1,1,1,true,z,false,true,0.0-2.0-0.24-0.221-3.221,0,1,0,90,false,stim,false,1,1100,1,1,1,68193,task3,870196,false,false,778,image-keyboard-response,6
true,11,1,1,1,true,z,false,true,0.0-2.0-0.24-0.222-3.222,0,1,0,90,false,stim,false,0,359,1,0,2,68193,task3,872072,false,false,781,image-keyboard-response,7
true,11,1,1,1,true,z,false,true,0.0-2.0-0.24-0.223-3.223,0,1,0,90,false,stim,false,1,800,1,1,1,68193,task3,874395,false,false,784,image-keyboard-response,8
true,11,1,1,1,true,z,false,true,0.0-2.0-0.24-0.224-3.224,0,1,0,90,false,stim,false,0,658,1,0,2,68193,task3,876588,false,false,787,image-keyboard-response,9
true,11,1,1,1,true,z,false,true,0.0-2.0-0.25-0.225-3.225,0,1,0,90,false,stim,false,0,608,1,0,2,68193,task3,878722,false,false,790,image-keyboard-response,10
true,11,0,1,0,true,q,false,true,0.0-2.0-0.25-0.226-3.226,0,1,0,81,false,stim,false,1,799,1,0,0,68193,task3,881048,false,false,793,image-keyboard-response,11
true,11,1,1,1,true,z,false,true,0.0-2.0-0.25-0.227-3.227,0,1,0,90,false,stim,false,0,641,1,0,2,68193,task3,883216,false,false,796,image-keyboard-response,12
true,11,0,1,0,true,q,false,true,0.0-2.0-0.25-0.228-3.228,0,1,0,81,false,stim,false,1,1032,1,0,0,68193,task3,885781,false,false,799,image-keyboard-response,13
true,11,1,1,1,true,z,false,true,0.0-2.0-0.25-0.229-3.229,0,1,0,90,false,stim,false,1,1400,1,1,1,68193,task3,888722,false,false,802,image-keyboard-response,14
true,11,1,1,1,true,z,false,false,0.0-2.0-0.25-0.230-3.230,0,1,0,90,false,stim,false,1,616,1,1,1,68193,task3,890860,false,true,805,image-keyboard-response,15
true,11,2,1,1,false,z,true,true,0.0-2.0-0.25-0.231-3.231,0,1,0,68,false,stim,false,1,1940,1,1,1,68193,task3,894334,false,true,808,image-keyboard-response,16
true,11,0,1,0,true,q,false,false,0.0-2.0-0.25-0.232-3.232,0,1,0,81,false,stim,false,1,585,1,0,0,68193,task3,896438,false,true,811,image-keyboard-response,17
true,11,1,1,1,true,z,false,true,0.0-2.0-0.25-0.233-3.233,0,1,0,90,false,stim,false,0,975,1,0,2,68193,task3,898932,false,false,814,image-keyboard-response,18
true,11,1,1,0,false,q,false,false,0.0-2.0-0.26-0.234-3.234,0,1,0,90,false,stim,true,1,1202,1,0,0,68193,task3,901648,false,false,817,image-keyboard-response,19
true,11,2,1,1,false,z,true,false,0.0-2.0-0.26-0.235-3.235,0,1,0,68,false,stim,false,1,701,1,1,1,68193,task3,903881,false,false,820,image-keyboard-response,20
true,11,1,1,0,false,q,false,false,0.0-2.0-0.26-0.236-3.236,0,1,0,90,false,stim,true,1,833,1,0,0,68193,task3,906240,false,false,823,image-keyboard-response,21
true,11,0,1,1,false,z,true,false,0.0-2.0-0.26-0.237-3.237,0,1,0,81,false,stim,false,1,1693,1,1,1,68193,task3,909449,false,false,826,image-keyboard-response,22
true,11,2,1,0,false,q,true,false,0.0-2.0-0.26-0.238-3.238,0,1,0,68,false,stim,false,1,1440,1,0,0,68193,task3,912411,false,false,829,image-keyboard-response,23
true,11,1,1,1,true,z,false,true,0.0-2.0-0.26-0.239-3.239,0,1,0,90,false,stim,false,0,779,1,0,2,68193,task3,914708,false,false,832,image-keyboard-response,24
true,12,1,1,0,false,q,false,false,0.0-2.0-0.26-0.240-3.240,0,1,0,90,true,stim,true,1,635,1,0,2,68193,task3,916868,false,false,835,image-keyboard-response,1
true,12,2,1,1,false,z,true,false,0.0-2.0-0.26-0.241-3.241,0,1,0,68,false,stim,false,1,548,1,1,1,68193,task3,918937,false,false,838,image-keyboard-response,2
true,12,1,1,0,false,q,false,false,0.0-2.0-0.26-0.242-3.242,0,1,0,90,false,stim,true,1,606,1,0,2,68193,task3,921070,false,false,841,image-keyboard-response,3
true,12,1,1,1,true,z,false,true,0.0-2.0-0.27-0.243-3.243,0,1,0,90,false,stim,false,1,786,1,1,1,68193,task3,923375,false,false,844,image-keyboard-response,4
true,12,0,1,2,false,d,false,false,0.0-2.0-0.27-0.244-3.244,0,1,0,81,false,stim,true,0,435,1,0,0,68193,task3,925333,false,false,847,image-keyboard-response,5
true,12,0,1,0,true,q,false,true,0.0-2.0-0.27-0.245-3.245,0,1,0,81,false,stim,false,1,957,1,0,2,68193,task3,927809,false,false,850,image-keyboard-response,6
true,12,0,1,0,true,q,false,true,0.0-2.0-0.27-0.246-3.246,0,1,0,81,false,stim,false,1,885,1,0,2,68193,task3,930209,false,false,853,image-keyboard-response,7
true,12,2,1,2,true,d,false,true,0.0-2.0-0.27-0.247-3.247,0,1,0,68,false,stim,false,0,996,1,0,0,68193,task3,932739,false,false,856,image-keyboard-response,8
true,12,1,1,1,true,z,false,true,0.0-2.0-0.27-0.248-3.248,0,1,0,90,false,stim,false,1,624,1,1,1,68193,task3,934882,false,false,859,image-keyboard-response,9
true,12,0,1,0,true,q,false,true,0.0-2.0-0.27-0.249-3.249,0,1,0,81,false,stim,false,1,516,1,0,2,68193,task3,936921,false,false,862,image-keyboard-response,10
true,12,2,1,2,true,d,false,true,0.0-2.0-0.27-0.250-3.250,0,1,0,68,false,stim,false,0,1288,1,0,0,68193,task3,939731,false,false,865,image-keyboard-response,11
true,12,1,1,1,true,z,false,true,0.0-2.0-0.27-0.251-3.251,0,1,0,90,false,stim,false,1,858,1,1,1,68193,task3,942098,false,false,868,image-keyboard-response,12
true,12,2,1,2,true,d,false,true,0.0-2.0-0.28-0.252-3.252,0,1,0,68,false,stim,false,0,1050,1,0,0,68193,task3,944661,false,false,871,image-keyboard-response,13
true,12,1,1,1,true,z,false,true,0.0-2.0-0.28-0.253-3.253,0,1,0,90,false,stim,false,1,908,1,1,1,68193,task3,947094,false,false,874,image-keyboard-response,14
true,12,0,1,0,true,q,false,true,0.0-2.0-0.28-0.254-3.254,0,1,0,81,false,stim,false,1,893,1,0,2,68193,task3,949496,false,false,877,image-keyboard-response,15
true,12,2,1,2,true,d,false,true,0.0-2.0-0.28-0.255-3.255,0,1,0,68,false,stim,false,0,1138,1,0,0,68193,task3,952168,false,false,880,image-keyboard-response,16
true,12,1,1,1,true,z,false,true,0.0-2.0-0.28-0.256-3.256,0,1,0,90,false,stim,false,1,1085,1,1,1,68193,task3,954768,false,false,883,image-keyboard-response,17
true,12,2,1,2,true,d,false,true,0.0-2.0-0.28-0.257-3.257,0,1,0,68,false,stim,false,0,681,1,0,0,68193,task3,956969,false,false,886,image-keyboard-response,18
true,12,1,1,1,true,z,false,false,0.0-2.0-0.28-0.258-3.258,0,1,0,90,false,stim,false,1,2049,1,1,1,68193,task3,960539,false,true,889,image-keyboard-response,19
true,12,0,1,0,true,q,false,true,0.0-2.0-0.28-0.259-3.259,0,1,0,81,false,stim,false,1,1233,1,0,2,68193,task3,963295,false,false,892,image-keyboard-response,20
true,12,0,1,0,true,q,false,true,0.0-2.0-0.28-0.260-3.260,0,1,0,81,false,stim,false,1,1233,1,0,2,68193,task3,966057,false,false,895,image-keyboard-response,21
true,12,1,1,1,true,z,false,true,0.0-2.0-0.29-0.261-3.261,0,1,0,90,false,stim,false,1,728,1,1,1,68193,task3,968317,false,false,898,image-keyboard-response,22
true,12,2,1,2,true,d,false,true,0.0-2.0-0.29-0.262-3.262,0,1,0,68,false,stim,false,0,834,1,0,0,68193,task3,970689,false,false,901,image-keyboard-response,23
true,12,1,1,1,true,z,false,true,0.0-2.0-0.29-0.263-3.263,0,1,0,90,false,stim,false,1,2423,1,1,1,68193,task3,974628,false,false,904,image-keyboard-response,24
true,12,0,1,0,true,q,false,true,0.0-2.0-0.29-0.264-3.264,0,1,0,81,false,stim,false,1,932,1,1,2,68193,task3,977085,false,false,907,image-keyboard-response,25
true,12,2,1,2,true,d,false,true,0.0-2.0-0.29-0.265-3.265,0,1,0,68,false,stim,false,0,773,1,0,0,68193,task3,979375,false,false,910,image-keyboard-response,26
true,13,2,2,0,false,q,false,false,0.0-2.0-0.29-0.266-3.266,0,1,1,68,true,stim,true,2,622,1,0,0,68193,task3,981526,false,false,913,image-keyboard-response,1
true,13,0,2,0,true,q,false,true,0.0-2.0-0.29-0.267-3.267,0,1,1,81,false,stim,false,0,1875,1,1,2,68193,task3,984925,false,false,916,image-keyboard-response,2
true,13,0,2,0,true,q,false,true,0.0-2.0-0.29-0.268-3.268,0,1,1,81,false,stim,false,0,706,1,1,2,68193,task3,987143,false,false,919,image-keyboard-response,3
true,13,1,2,1,true,z,false,false,0.0-2.0-0.29-0.269-3.269,0,1,1,90,false,stim,false,1,651,1,1,1,68193,task3,989321,false,true,922,image-keyboard-response,4
true,13,1,2,0,false,q,true,false,0.0-2.0-0.30-0.270-3.270,0,1,1,90,false,stim,false,2,928,1,0,0,68193,task3,991778,false,false,925,image-keyboard-response,5
true,13,0,2,0,true,q,false,true,0.0-2.0-0.30-0.271-3.271,0,1,1,81,false,stim,false,2,508,1,0,0,68193,task3,993806,false,false,928,image-keyboard-response,6
true,13,2,2,1,false,z,true,false,0.0-2.0-0.30-0.272-3.272,0,1,1,68,false,stim,false,1,605,1,1,1,68193,task3,995934,false,false,931,image-keyboard-response,7
true,13,0,2,0,true,q,false,true,0.0-2.0-0.30-0.273-3.273,0,1,1,81,false,stim,false,2,909,1,0,0,68193,task3,998363,false,false,934,image-keyboard-response,8
true,13,0,2,1,false,z,true,false,0.0-2.0-0.30-0.274-3.274,0,1,1,81,false,stim,false,1,865,1,1,1,68193,task3,1000751,false,false,937,image-keyboard-response,9
true,13,0,2,0,true,q,false,true,0.0-2.0-0.30-0.275-3.275,0,1,1,81,false,stim,false,0,920,1,1,2,68193,task3,1003188,false,false,940,image-keyboard-response,10
true,13,0,2,0,true,q,false,true,0.0-2.0-0.30-0.276-3.276,0,1,1,81,false,stim,false,0,687,1,0,2,68193,task3,1005398,false,false,943,image-keyboard-response,11
true,13,1,2,1,true,z,false,true,0.0-2.0-0.30-0.277-3.277,0,1,1,90,false,stim,false,1,623,1,0,1,68193,task3,1007547,false,false,946,image-keyboard-response,12
true,13,0,2,0,true,q,false,true,0.0-2.0-0.30-0.278-3.278,0,1,1,81,false,stim,false,0,671,1,0,2,68193,task3,1009736,false,false,949,image-keyboard-response,13
true,13,1,2,0,false,q,true,false,0.0-2.0-0.31-0.279-3.279,0,1,1,90,false,stim,false,0,523,1,0,2,68193,task3,1011792,false,false,952,image-keyboard-response,14
true,13,0,2,0,true,q,false,true,0.0-2.0-0.31-0.280-3.280,0,1,1,81,false,stim,false,0,591,1,0,2,68193,task3,1013905,false,false,955,image-keyboard-response,15
true,14,1,1,0,false,q,true,false,0.0-2.0-0.31-0.281-3.281,1,0,0,90,true,stim,false,0,898,1,1,0,68193,task3,1016338,false,false,958,image-keyboard-response,1
true,14,0,1,0,true,q,false,true,0.0-2.0-0.31-0.282-3.282,1,0,0,81,false,stim,false,0,537,1,1,0,68193,task3,1018384,false,false,961,image-keyboard-response,2
true,14,0,1,0,true,q,false,true,0.0-2.0-0.31-0.283-3.283,1,0,0,81,false,stim,false,0,1303,1,1,0,68193,task3,1021216,false,false,964,image-keyboard-response,3
true,14,1,1,0,false,q,false,false,0.0-2.0-0.31-0.284-3.284,1,0,0,90,false,stim,true,1,1362,1,0,1,68193,task3,1024107,false,false,967,image-keyboard-response,4
true,14,1,1,0,false,q,false,false,0.0-2.0-0.31-0.285-3.285,1,0,0,90,false,stim,true,1,2238,1,0,1,68193,task3,1027867,false,false,970,image-keyboard-response,5
true,14,0,1,1,false,z,false,false,0.0-2.0-0.31-0.286-3.286,1,0,0,81,false,stim,true,0,942,1,0,2,68193,task3,1030341,false,false,973,image-keyboard-response,6
true,14,1,1,0,false,q,false,false,0.0-2.0-0.31-0.287-3.287,1,0,0,90,false,stim,true,1,857,1,0,1,68193,task3,1032713,false,false,976,image-keyboard-response,7
true,14,0,1,0,true,q,false,true,0.0-2.0-0.32-0.288-3.288,1,0,0,81,false,stim,false,0,1028,1,1,0,68193,task3,1035268,false,false,979,image-keyboard-response,8
true,14,0,1,1,false,z,false,false,0.0-2.0-0.32-0.289-3.289,1,0,0,81,false,stim,true,0,955,1,0,2,68193,task3,1037747,false,false,982,image-keyboard-response,9
true,14,2,1,1,false,z,true,false,0.0-2.0-0.32-0.290-3.290,1,0,0,68,false,stim,false,0,885,1,0,2,68193,task3,1040233,false,false,985,image-keyboard-response,10
true,14,0,1,0,true,q,false,true,0.0-2.0-0.32-0.291-3.291,1,0,0,81,false,stim,false,0,1188,1,1,0,68193,task3,1042948,false,false,988,image-keyboard-response,11
true,14,0,1,0,true,q,false,true,0.0-2.0-0.32-0.292-3.292,1,0,0,81,false,stim,false,0,1229,1,1,0,68193,task3,1045717,false,false,991,image-keyboard-response,12
true,14,1,1,0,false,q,false,false,0.0-2.0-0.32-0.293-3.293,1,0,0,90,false,stim,true,1,1140,1,0,1,68193,task3,1048388,false,false,994,image-keyboard-response,13
true,14,0,1,0,true,q,false,true,0.0-2.0-0.32-0.294-3.294,1,0,0,81,false,stim,false,1,638,1,0,1,68193,task3,1050551,false,false,997,image-keyboard-response,14
true,14,0,1,0,true,q,false,true,0.0-2.0-0.32-0.295-3.295,1,0,0,81,false,stim,false,1,648,1,0,1,68193,task3,1052737,false,false,1000,image-keyboard-response,15
true,14,2,1,1,false,z,true,false,0.0-2.0-0.32-0.296-3.296,1,0,0,68,false,stim,false,0,1483,1,0,2,68193,task3,1055775,false,false,1003,image-keyboard-response,16
true,14,0,1,0,true,q,false,true,0.0-2.0-0.33-0.297-3.297,1,0,0,81,false,stim,false,1,1819,1,0,1,68193,task3,1059127,false,false,1006,image-keyboard-response,17
true,14,0,1,0,true,q,false,true,0.0-2.0-0.33-0.298-3.298,1,0,0,81,false,stim,false,1,1196,1,0,1,68193,task3,1061839,false,false,1009,image-keyboard-response,18
true,14,1,1,0,false,q,true,true,0.0-2.0-0.33-0.299-3.299,1,0,0,90,false,stim,false,0,814,1,1,0,68193,task3,1064173,false,true,1012,image-keyboard-response,19
true,14,0,1,1,false,z,false,true,0.0-2.0-0.33-0.300-3.300,1,0,0,81,false,stim,true,0,802,1,1,2,68193,task3,1066491,false,true,1015,image-keyboard-response,20
true,14,1,1,0,false,q,true,false,0.0-2.0-0.33-0.301-3.301,1,0,0,90,false,stim,false,0,829,1,0,0,68193,task3,1068856,false,false,1018,image-keyboard-response,21
true,14,0,1,0,true,q,false,false,0.0-2.0-0.33-0.302-3.302,1,0,0,81,false,stim,false,0,547,1,0,0,68193,task3,1070917,false,true,1021,image-keyboard-response,22
true,14,0,1,1,false,z,false,false,0.0-2.0-0.33-0.303-3.303,1,0,0,81,false,stim,true,0,658,1,1,2,68193,task3,1073103,false,false,1024,image-keyboard-response,23
true,14,2,1,1,false,z,true,false,0.0-2.0-0.33-0.304-3.304,1,0,0,68,false,stim,false,0,783,1,1,2,68193,task3,1075414,false,false,1027,image-keyboard-response,24
true,15,0,1,1,false,z,false,false,0.0-2.0-0.33-0.305-3.305,0,0,1,81,true,stim,true,0,1213,1,0,1,68193,task3,1078153,false,false,1030,image-keyboard-response,1
true,15,2,1,2,true,d,false,true,0.0-2.0-0.34-0.306-3.306,0,0,1,68,false,stim,false,0,482,1,0,0,68193,task3,1080165,false,false,1033,image-keyboard-response,2
true,15,2,1,2,true,d,false,true,0.0-2.0-0.34-0.307-3.307,0,0,1,68,false,stim,false,0,674,1,0,0,68193,task3,1082357,false,false,1036,image-keyboard-response,3
true,15,1,1,1,true,z,false,true,0.0-2.0-0.34-0.308-3.308,0,0,1,90,false,stim,false,0,936,1,0,1,68193,task3,1084810,false,false,1039,image-keyboard-response,4
true,15,2,1,2,true,d,false,true,0.0-2.0-0.34-0.309-3.309,0,0,1,68,false,stim,false,0,1077,1,0,0,68193,task3,1087409,false,false,1042,image-keyboard-response,5
true,15,1,1,1,true,z,false,true,0.0-2.0-0.34-0.310-3.310,0,0,1,90,false,stim,false,0,471,1,0,1,68193,task3,1089411,false,false,1045,image-keyboard-response,6
true,15,0,1,1,false,z,true,true,0.0-2.0-0.34-0.311-3.311,0,0,1,81,false,stim,false,1,838,1,1,2,68193,task3,1091775,false,true,1048,image-keyboard-response,7
true,15,1,1,1,true,z,false,true,0.0-2.0-0.34-0.312-3.312,0,0,1,90,false,stim,false,0,1203,1,0,1,68193,task3,1094512,false,false,1051,image-keyboard-response,8
true,15,0,1,1,false,z,true,true,0.0-2.0-0.34-0.313-3.313,0,0,1,81,false,stim,false,1,1052,1,1,2,68193,task3,1097091,false,true,1054,image-keyboard-response,9
true,15,0,1,1,false,z,true,false,0.0-2.0-0.34-0.314-3.314,0,0,1,81,false,stim,false,1,553,1,1,2,68193,task3,1099164,false,false,1057,image-keyboard-response,10
true,15,2,1,2,true,d,false,true,0.0-2.0-0.35-0.315-3.315,0,0,1,68,false,stim,false,0,831,1,0,0,68193,task3,1101517,false,false,1060,image-keyboard-response,11
true,15,1,1,1,true,z,false,true,0.0-2.0-0.35-0.316-3.316,0,0,1,90,false,stim,false,0,1038,1,0,1,68193,task3,1104077,false,false,1063,image-keyboard-response,12
true,15,1,1,1,true,z,false,true,0.0-2.0-0.35-0.317-3.317,0,0,1,90,false,stim,false,1,1552,1,1,2,68193,task3,1107161,false,false,1066,image-keyboard-response,13
true,15,1,1,1,true,z,false,false,0.0-2.0-0.35-0.318-3.318,0,0,1,90,false,stim,false,1,493,1,1,2,68193,task3,1109178,false,true,1069,image-keyboard-response,14
true,15,0,1,1,false,z,false,false,0.0-2.0-0.35-0.319-3.319,0,0,1,81,false,stim,true,0,583,1,0,1,68193,task3,1111281,false,false,1072,image-keyboard-response,15
true,15,2,1,2,true,d,false,true,0.0-2.0-0.35-0.320-3.320,0,0,1,68,false,stim,false,0,903,1,0,0,68193,task3,1113719,false,false,1075,image-keyboard-response,16
true,15,1,1,2,false,d,true,false,0.0-2.0-0.35-0.321-3.321,0,0,1,90,false,stim,false,0,1384,1,0,0,68193,task3,1116632,false,false,1078,image-keyboard-response,17
true,15,2,1,1,false,z,true,false,0.0-2.0-0.35-0.322-3.322,0,0,1,68,false,stim,false,1,524,1,1,2,68193,task3,1118679,false,false,1081,image-keyboard-response,18
true,15,0,1,1,false,z,false,false,0.0-2.0-0.35-0.323-3.323,0,0,1,81,false,stim,true,0,1331,1,0,1,68193,task3,1121533,false,false,1084,image-keyboard-response,19
true,15,0,1,1,false,z,true,true,0.0-2.0-0.36-0.324-3.324,0,0,1,81,false,stim,false,1,1128,1,1,2,68193,task3,1124185,false,true,1087,image-keyboard-response,20
true,15,0,1,1,false,z,true,false,0.0-2.0-0.36-0.325-3.325,0,0,1,81,false,stim,false,1,556,1,1,2,68193,task3,1126257,false,false,1090,image-keyboard-response,21
true,15,1,1,1,true,z,false,true,0.0-2.0-0.36-0.326-3.326,0,0,1,90,false,stim,false,0,1034,1,0,1,68193,task3,1128808,false,false,1093,image-keyboard-response,22
true,15,2,1,2,true,d,false,true,0.0-2.0-0.36-0.327-3.327,0,0,1,68,false,stim,false,0,418,1,0,0,68193,task3,1130749,false,false,1096,image-keyboard-response,23
true,15,2,1,2,true,d,false,true,0.0-2.0-0.36-0.328-3.328,0,0,1,68,false,stim,false,0,1874,1,0,0,68193,task3,1134154,false,false,1099,image-keyboard-response,24
true,15,2,1,2,true,d,false,true,0.0-2.0-0.36-0.329-3.329,0,0,1,68,false,stim,false,0,666,1,0,0,68193,task3,1136359,false,false,1102,image-keyboard-response,25
true,15,0,1,1,false,z,true,false,0.0-2.0-0.36-0.330-3.330,0,0,1,81,false,stim,false,1,893,1,0,2,68193,task3,1138784,false,false,1105,image-keyboard-response,26
true,15,1,1,1,true,z,false,true,0.0-2.0-0.36-0.331-3.331,0,0,1,90,false,stim,false,0,2223,1,1,1,68193,task3,1142524,false,false,1108,image-keyboard-response,27
true,16,1,1,1,true,z,false,true,0.0-2.0-0.36-0.332-3.332,0,1,0,90,true,stim,false,1,473,1,1,1,68193,task3,1144528,false,false,1111,image-keyboard-response,1
true,16,0,1,2,false,d,true,false,0.0-2.0-0.37-0.333-3.333,0,1,0,81,false,stim,false,1,1133,1,0,2,68193,task3,1147186,false,false,1114,image-keyboard-response,2
true,16,1,1,1,true,z,false,true,0.0-2.0-0.37-0.334-3.334,0,1,0,90,false,stim,false,1,793,1,1,1,68193,task3,1149508,false,false,1117,image-keyboard-response,3
true,16,1,1,0,false,q,true,false,0.0-2.0-0.37-0.335-3.335,0,1,0,90,false,stim,false,2,511,1,0,0,68193,task3,1151551,false,false,1120,image-keyboard-response,4
true,16,0,1,1,false,z,true,false,0.0-2.0-0.37-0.336-3.336,0,1,0,81,false,stim,false,1,1069,1,1,1,68193,task3,1154152,false,false,1123,image-keyboard-response,5
true,16,1,1,2,false,d,false,false,0.0-2.0-0.37-0.337-3.337,0,1,0,90,false,stim,true,1,1377,1,0,2,68193,task3,1157062,false,false,1126,image-keyboard-response,6
true,16,0,1,2,false,d,true,false,0.0-2.0-0.37-0.338-3.338,0,1,0,81,false,stim,false,1,770,1,0,2,68193,task3,1159350,false,false,1129,image-keyboard-response,7
true,16,2,1,0,false,q,false,false,0.0-2.0-0.37-0.339-3.339,0,1,0,68,false,stim,true,2,578,1,0,0,68193,task3,1161449,false,false,1132,image-keyboard-response,8
true,16,1,1,0,false,q,true,false,0.0-2.0-0.37-0.340-3.340,0,1,0,90,false,stim,false,2,744,1,0,0,68193,task3,1163703,false,false,1135,image-keyboard-response,9
true,16,2,1,1,false,z,true,false,0.0-2.0-0.37-0.341-3.341,0,1,0,68,false,stim,false,1,879,1,1,1,68193,task3,1166099,false,false,1138,image-keyboard-response,10
true,16,2,1,0,false,q,false,false,0.0-2.0-0.38-0.342-3.342,0,1,0,68,false,stim,true,2,700,1,0,0,68193,task3,1168322,false,false,1141,image-keyboard-response,11
true,16,0,1,1,false,z,true,false,0.0-2.0-0.38-0.343-3.343,0,1,0,81,false,stim,false,1,1020,1,1,1,68193,task3,1170858,false,false,1144,image-keyboard-response,12
true,16,2,1,2,true,d,false,true,0.0-2.0-0.38-0.344-3.344,0,1,0,68,false,stim,false,1,803,1,0,2,68193,task3,1173194,false,false,1147,image-keyboard-response,13
true,16,1,1,1,true,z,false,true,0.0-2.0-0.38-0.345-3.345,0,1,0,90,false,stim,false,1,1535,1,1,1,68193,task3,1176247,false,false,1150,image-keyboard-response,14
true,16,2,1,2,true,d,false,true,0.0-2.0-0.38-0.346-3.346,0,1,0,68,false,stim,false,1,613,1,0,2,68193,task3,1178381,false,false,1153,image-keyboard-response,15
true,16,2,1,0,false,q,false,false,0.0-2.0-0.38-0.347-3.347,0,1,0,68,false,stim,true,2,1500,1,0,0,68193,task3,1181404,false,false,1156,image-keyboard-response,16
true,16,0,1,0,true,q,false,true,0.0-2.0-0.38-0.348-3.348,0,1,0,81,false,stim,false,2,919,1,0,0,68193,task3,1183859,false,false,1159,image-keyboard-response,17
true,16,1,1,1,true,z,false,true,0.0-2.0-0.38-0.349-3.349,0,1,0,90,false,stim,false,1,785,1,1,1,68193,task3,1186159,false,false,1162,image-keyboard-response,18
true,16,2,1,2,true,d,false,true,0.0-2.0-0.38-0.350-3.350,0,1,0,68,false,stim,false,1,1400,1,0,2,68193,task3,1189092,false,false,1165,image-keyboard-response,19
true,16,1,1,1,true,z,false,true,0.0-2.0-0.39-0.351-3.351,0,1,0,90,false,stim,false,1,1603,1,1,1,68193,task3,1192223,false,false,1168,image-keyboard-response,20
true,16,2,1,2,true,d,false,true,0.0-2.0-0.39-0.352-3.352,0,1,0,68,false,stim,false,1,1001,1,0,2,68193,task3,1194748,false,false,1171,image-keyboard-response,21
true,16,1,1,1,true,z,false,true,0.0-2.0-0.39-0.353-3.353,0,1,0,90,false,stim,false,1,1226,1,0,1,68193,task3,1197498,false,false,1174,image-keyboard-response,22
true,16,0,1,0,true,q,false,true,0.0-2.0-0.39-0.354-3.354,0,1,0,81,false,stim,false,2,972,1,0,0,68193,task3,1199997,false,false,1177,image-keyboard-response,23
true,16,0,1,0,true,q,false,false,0.0-2.0-0.39-0.355-3.355,0,1,0,81,false,stim,false,2,1378,1,0,0,68193,task3,1202897,false,true,1180,image-keyboard-response,24
true,16,1,1,1,true,z,false,true,0.0-2.0-0.39-0.356-3.356,0,1,0,90,false,stim,false,1,699,1,0,1,68193,task3,1205108,false,false,1183,image-keyboard-response,25
true,16,2,1,2,true,d,false,false,0.0-2.0-0.39-0.357-3.357,0,1,0,68,false,stim,false,1,974,1,1,2,68193,task3,1207613,false,true,1186,image-keyboard-response,26
true,17,1,1,1,true,z,false,true,0.0-2.0-0.39-0.358-3.358,0,0,1,90,true,stim,false,0,1094,1,0,0,68193,task3,1210237,false,false,1189,image-keyboard-response,1
true,17,2,1,2,true,d,false,true,0.0-2.0-0.39-0.359-3.359,0,0,1,68,false,stim,false,2,1220,1,1,2,68193,task3,1212988,false,false,1192,image-keyboard-response,2
true,17,2,1,2,true,d,false,true,0.0-2.0-0.40-0.360-3.360,0,0,1,68,false,stim,false,2,719,1,1,2,68193,task3,1215240,false,false,1195,image-keyboard-response,3
true,17,2,1,2,true,d,false,true,0.0-2.0-0.40-0.361-3.361,0,0,1,68,false,stim,false,2,962,1,1,2,68193,task3,1217727,false,false,1198,image-keyboard-response,4
true,17,1,1,1,true,z,false,true,0.0-2.0-0.40-0.362-3.362,0,0,1,90,false,stim,false,0,1052,1,0,0,68193,task3,1220321,false,false,1201,image-keyboard-response,5
true,17,1,1,2,false,d,false,false,0.0-2.0-0.40-0.363-3.363,0,0,1,90,false,stim,true,1,807,1,0,1,68193,task3,1222642,false,false,1204,image-keyboard-response,6
true,17,1,1,1,true,z,false,true,0.0-2.0-0.40-0.364-3.364,0,0,1,90,false,stim,false,0,1179,1,0,0,68193,task3,1225344,false,false,1207,image-keyboard-response,7
true,17,2,1,2,true,d,false,true,0.0-2.0-0.40-0.365-3.365,0,0,1,68,false,stim,false,2,975,1,1,2,68193,task3,1227842,false,false,1210,image-keyboard-response,8
true,17,2,1,2,true,d,false,true,0.0-2.0-0.40-0.366-3.366,0,0,1,68,false,stim,false,1,622,1,0,1,68193,task3,1229987,false,false,1213,image-keyboard-response,9
true,17,1,1,1,true,z,false,true,0.0-2.0-0.40-0.367-3.367,0,0,1,90,false,stim,false,0,1302,1,0,0,68193,task3,1232804,false,false,1216,image-keyboard-response,10
true,17,2,1,2,true,d,false,true,0.0-2.0-0.40-0.368-3.368,0,0,1,68,false,stim,false,1,893,1,0,1,68193,task3,1235217,false,false,1219,image-keyboard-response,11
true,17,2,1,1,false,z,true,false,0.0-2.0-0.41-0.369-3.369,0,0,1,68,false,stim,false,0,478,1,0,0,68193,task3,1237218,false,false,1222,image-keyboard-response,12
true,17,1,1,1,true,z,false,true,0.0-2.0-0.41-0.370-3.370,0,0,1,90,false,stim,false,0,538,1,0,0,68193,task3,1239288,false,false,1225,image-keyboard-response,13
true,17,2,1,2,true,d,false,true,0.0-2.0-0.41-0.371-3.371,0,0,1,68,false,stim,false,1,724,1,0,1,68193,task3,1241535,false,false,1228,image-keyboard-response,14
true,17,2,1,2,true,d,false,false,0.0-2.0-0.41-0.372-3.372,0,0,1,68,false,stim,false,1,2876,1,0,1,68193,task3,1245939,false,true,1231,image-keyboard-response,15
true,17,2,1,2,true,d,false,true,0.0-2.0-0.41-0.373-3.373,0,0,1,68,false,stim,false,2,1060,1,1,2,68193,task3,1248536,false,false,1234,image-keyboard-response,16
true,17,1,1,1,true,z,false,true,0.0-2.0-0.41-0.374-3.374,0,0,1,90,false,stim,false,0,774,1,0,0,68193,task3,1250838,false,false,1237,image-keyboard-response,17
true,17,1,1,2,false,d,false,false,0.0-2.0-0.41-0.375-3.375,0,0,1,90,false,stim,true,1,1071,1,0,1,68193,task3,1253442,false,false,1240,image-keyboard-response,18
true,17,2,1,2,true,d,false,true,0.0-2.0-0.41-0.376-3.376,0,0,1,68,false,stim,false,2,1346,1,1,2,68193,task3,1256310,false,false,1243,image-keyboard-response,19
true,17,2,1,2,true,d,false,true,0.0-2.0-0.41-0.377-3.377,0,0,1,68,false,stim,false,2,605,1,1,2,68193,task3,1258436,false,false,1246,image-keyboard-response,20
true,17,2,1,2,true,d,false,true,0.0-2.0-0.42-0.378-3.378,0,0,1,68,false,stim,false,2,576,1,1,2,68193,task3,1260537,false,false,1249,image-keyboard-response,21
true,17,2,1,2,true,d,false,true,0.0-2.0-0.42-0.379-3.379,0,0,1,68,false,stim,false,2,711,1,1,2,68193,task3,1262765,false,false,1252,image-keyboard-response,22
true,17,0,1,2,false,d,true,false,0.0-2.0-0.42-0.380-3.380,0,0,1,81,false,stim,false,1,1294,1,0,1,68193,task3,1265588,false,false,1255,image-keyboard-response,23
true,17,2,1,2,true,d,false,true,0.0-2.0-0.42-0.381-3.381,0,0,1,68,false,stim,false,2,884,1,1,2,68193,task3,1267989,false,false,1258,image-keyboard-response,24
true,17,1,1,1,true,z,false,true,0.0-2.0-0.42-0.382-3.382,0,0,1,90,false,stim,false,0,909,1,1,0,68193,task3,1270438,false,false,1261,image-keyboard-response,25
true,17,2,1,2,true,d,false,true,0.0-2.0-0.42-0.383-3.383,0,0,1,68,false,stim,false,1,926,1,0,1,68193,task3,1272889,false,false,1264,image-keyboard-response,26
true,17,1,1,1,true,z,false,true,0.0-2.0-0.42-0.384-3.384,0,0,1,90,false,stim,false,0,924,1,1,0,68193,task3,1275350,false,false,1267,image-keyboard-response,27
true,17,2,1,2,true,d,false,true,0.0-2.0-0.42-0.385-3.385,0,0,1,68,false,stim,false,1,507,1,0,1,68193,task3,1277382,false,false,1270,image-keyboard-response,28
true,18,1,2,1,true,z,false,true,0.0-2.0-0.42-0.386-3.386,1,0,1,90,true,stim,false,1,789,1,1,0,68193,task3,1279695,false,false,1273,image-keyboard-response,1
true,18,2,2,0,false,q,false,true,0.0-2.0-0.43-0.387-3.387,1,0,1,68,false,stim,true,2,639,1,0,1,68193,task3,1281858,false,true,1276,image-keyboard-response,2
true,18,2,2,2,true,d,false,true,0.0-2.0-0.43-0.388-3.388,1,0,1,68,false,stim,false,2,1106,1,1,2,68193,task3,1284480,false,false,1279,image-keyboard-response,3
true,18,2,2,2,true,d,false,true,0.0-2.0-0.43-0.389-3.389,1,0,1,68,false,stim,false,2,769,1,1,2,68193,task3,1286778,false,false,1282,image-keyboard-response,4
true,18,1,2,1,true,z,false,false,0.0-2.0-0.43-0.390-3.390,1,0,1,90,false,stim,false,1,581,1,1,0,68193,task3,1288882,false,true,1285,image-keyboard-response,5
true,18,2,2,0,false,q,false,false,0.0-2.0-0.43-0.391-3.391,1,0,1,68,false,stim,true,2,588,1,1,1,68193,task3,1290990,false,false,1288,image-keyboard-response,6
true,18,2,2,2,true,d,false,true,0.0-2.0-0.43-0.392-3.392,1,0,1,68,false,stim,false,2,867,1,1,2,68193,task3,1293392,false,false,1291,image-keyboard-response,7
true,18,2,2,0,false,q,false,false,0.0-2.0-0.43-0.393-3.393,1,0,1,68,false,stim,true,2,1108,1,1,1,68193,task3,1296021,false,false,1294,image-keyboard-response,8
true,18,0,2,1,false,z,true,false,0.0-2.0-0.43-0.394-3.394,1,0,1,81,false,stim,false,1,1111,1,0,0,68193,task3,1298667,false,false,1297,image-keyboard-response,9
true,18,1,2,1,true,z,false,true,0.0-2.0-0.43-0.395-3.395,1,0,1,90,false,stim,false,1,1046,1,0,0,68193,task3,1301229,false,false,1300,image-keyboard-response,10
true,19,1,2,0,false,q,false,false,0.0-2.0-0.44-0.396-3.396,0,1,1,90,true,stim,true,1,690,1,0,0,68193,task3,1303471,false,false,1303,image-keyboard-response,1
true,19,2,2,0,false,q,true,false,0.0-2.0-0.44-0.397-3.397,0,1,1,68,false,stim,false,1,1280,1,0,0,68193,task3,1306275,false,false,1306,image-keyboard-response,2
true,19,2,2,2,true,d,false,true,0.0-2.0-0.44-0.398-3.398,0,1,1,68,false,stim,false,2,594,1,1,2,68193,task3,1308386,false,false,1309,image-keyboard-response,3
true,19,2,2,0,false,q,true,false,0.0-2.0-0.44-0.399-3.399,0,1,1,68,false,stim,false,0,1153,1,1,1,68193,task3,1311061,false,false,1312,image-keyboard-response,4
true,19,0,2,2,false,d,true,false,0.0-2.0-0.44-0.400-3.400,0,1,1,81,false,stim,false,2,1037,1,1,2,68193,task3,1313634,false,false,1315,image-keyboard-response,5
true,19,1,2,0,false,q,false,false,0.0-2.0-0.44-0.401-3.401,0,1,1,90,false,stim,true,1,763,1,0,0,68193,task3,1315923,false,false,1318,image-keyboard-response,6
true,19,2,2,2,true,d,false,true,0.0-2.0-0.44-0.402-3.402,0,1,1,68,false,stim,false,2,854,1,1,2,68193,task3,1318293,false,false,1321,image-keyboard-response,7
true,19,2,2,0,false,q,true,false,0.0-2.0-0.44-0.403-3.403,0,1,1,68,false,stim,false,0,980,1,1,1,68193,task3,1320784,false,false,1324,image-keyboard-response,8
true,19,1,2,0,false,q,true,false,0.0-2.0-0.44-0.404-3.404,0,1,1,90,false,stim,false,0,793,1,1,1,68193,task3,1323112,false,false,1327,image-keyboard-response,9
true,19,0,2,0,true,q,false,true,0.0-2.0-0.45-0.405-3.405,0,1,1,81,false,stim,false,0,705,1,1,1,68193,task3,1325345,false,false,1330,image-keyboard-response,10
true,19,2,2,2,true,d,false,false,0.0-2.0-0.45-0.406-3.406,0,1,1,68,false,stim,false,2,1258,1,1,2,68193,task3,1328124,false,true,1333,image-keyboard-response,11
true,19,0,2,0,true,q,false,true,0.0-2.0-0.45-0.407-3.407,0,1,1,81,false,stim,false,0,1120,1,1,1,68193,task3,1330781,false,false,1336,image-keyboard-response,12
true,19,1,2,2,false,d,true,false,0.0-2.0-0.45-0.408-3.408,0,1,1,90,false,stim,false,2,1152,1,1,2,68193,task3,1333467,false,false,1339,image-keyboard-response,13
true,19,1,2,0,false,q,false,false,0.0-2.0-0.45-0.409-3.409,0,1,1,90,false,stim,true,1,1013,1,0,0,68193,task3,1335999,false,false,1342,image-keyboard-response,14
true,19,2,2,0,false,q,true,false,0.0-2.0-0.45-0.410-3.410,0,1,1,68,false,stim,false,1,1029,1,0,0,68193,task3,1338555,false,false,1345,image-keyboard-response,15
true,19,0,2,0,true,q,false,true,0.0-2.0-0.45-0.411-3.411,0,1,1,81,false,stim,false,0,773,1,1,1,68193,task3,1340857,false,false,1348,image-keyboard-response,16
true,19,2,2,0,false,q,true,false,0.0-2.0-0.45-0.412-3.412,0,1,1,68,false,stim,false,1,1137,1,0,0,68193,task3,1343523,false,false,1351,image-keyboard-response,17
true,19,1,2,2,false,d,true,false,0.0-2.0-0.45-0.413-3.413,0,1,1,90,false,stim,false,2,717,1,1,2,68193,task3,1345768,false,false,1354,image-keyboard-response,18
true,19,1,2,0,false,q,false,false,0.0-2.0-0.46-0.414-3.414,0,1,1,90,false,stim,true,1,1734,1,0,0,68193,task3,1349024,false,false,1357,image-keyboard-response,19
true,19,0,2,0,true,q,false,true,0.0-2.0-0.46-0.415-3.415,0,1,1,81,false,stim,false,1,714,1,0,0,68193,task3,1351264,false,false,1360,image-keyboard-response,20
true,19,0,2,2,false,d,true,false,0.0-2.0-0.46-0.416-3.416,0,1,1,81,false,stim,false,2,1122,1,1,2,68193,task3,1353911,false,false,1363,image-keyboard-response,21
true,19,0,2,0,true,q,false,false,0.0-2.0-0.46-0.417-3.417,0,1,1,81,false,stim,false,1,1113,1,0,0,68193,task3,1356540,false,true,1366,image-keyboard-response,22
true,19,1,2,2,false,d,true,false,0.0-2.0-0.46-0.418-3.418,0,1,1,90,false,stim,false,2,685,1,1,2,68193,task3,1358758,false,false,1369,image-keyboard-response,23
true,19,0,2,0,true,q,false,true,0.0-2.0-0.46-0.419-3.419,0,1,1,81,false,stim,false,0,825,1,0,1,68193,task3,1361099,false,false,1372,image-keyboard-response,24
true,19,1,2,0,false,q,true,false,0.0-2.0-0.46-0.420-3.420,0,1,1,90,false,stim,false,0,970,1,0,1,68193,task3,1363593,false,false,1375,image-keyboard-response,25
true,19,0,2,2,false,d,true,false,0.0-2.0-0.46-0.421-3.421,0,1,1,81,false,stim,false,2,593,1,1,2,68193,task3,1365715,false,false,1378,image-keyboard-response,26
true,19,0,2,0,true,q,false,true,0.0-2.0-0.46-0.422-3.422,0,1,1,81,false,stim,false,0,364,1,0,1,68193,task3,1367604,false,false,1381,image-keyboard-response,27
true,19,0,2,0,true,q,false,true,0.0-2.0-0.47-0.423-3.423,0,1,1,81,false,stim,false,1,1138,1,0,0,68193,task3,1370282,false,false,1384,image-keyboard-response,28
true,20,2,1,2,true,d,false,true,0.0-2.0-0.47-0.424-3.424,0,0,1,68,true,stim,false,2,896,1,1,2,68193,task3,1372701,false,false,1387,image-keyboard-response,1
true,20,0,1,1,false,z,false,false,0.0-2.0-0.47-0.425-3.425,0,0,1,81,false,stim,true,0,1693,1,0,0,68193,task3,1375926,false,false,1390,image-keyboard-response,2
true,20,0,1,1,false,z,false,true,0.0-2.0-0.47-0.426-3.426,0,0,1,81,false,stim,true,0,868,1,0,1,68193,task3,1378313,false,true,1393,image-keyboard-response,3
true,20,2,1,2,true,d,false,true,0.0-2.0-0.47-0.427-3.427,0,0,1,68,false,stim,false,2,678,1,1,2,68193,task3,1380513,false,false,1396,image-keyboard-response,4
true,20,1,1,1,true,z,false,true,0.0-2.0-0.47-0.428-3.428,0,0,1,90,false,stim,false,0,1143,1,0,0,68193,task3,1383200,false,false,1399,image-keyboard-response,5
true,20,0,1,1,false,z,false,false,0.0-2.0-0.47-0.429-3.429,0,0,1,81,false,stim,true,0,612,1,0,1,68193,task3,1385351,false,false,1402,image-keyboard-response,6
true,20,1,1,2,false,d,true,false,0.0-2.0-0.47-0.430-3.430,0,0,1,90,false,stim,false,2,555,1,1,2,68193,task3,1387429,false,false,1405,image-keyboard-response,7
true,20,2,1,1,false,z,true,false,0.0-2.0-0.47-0.431-3.431,0,0,1,68,false,stim,false,0,1228,1,0,1,68193,task3,1390178,false,false,1408,image-keyboard-response,8
true,20,2,1,1,false,z,true,false,0.0-2.0-0.48-0.432-3.432,0,0,1,68,false,stim,false,0,1463,1,0,0,68193,task3,1393158,false,false,1411,image-keyboard-response,9
true,20,1,1,2,false,d,true,false,0.0-2.0-0.48-0.433-3.433,0,0,1,90,false,stim,false,2,924,1,1,2,68193,task3,1395608,false,false,1414,image-keyboard-response,10
true,20,2,1,1,false,z,true,false,0.0-2.0-0.48-0.434-3.434,0,0,1,68,false,stim,false,0,1026,1,0,1,68193,task3,1398166,false,false,1417,image-keyboard-response,11
true,20,2,1,2,true,d,false,true,0.0-2.0-0.48-0.435-3.435,0,0,1,68,false,stim,false,2,916,1,1,2,68193,task3,1400614,false,false,1420,image-keyboard-response,12
true,20,1,1,1,true,z,false,true,0.0-2.0-0.48-0.436-3.436,0,0,1,90,false,stim,false,0,890,1,0,1,68193,task3,1403031,false,false,1423,image-keyboard-response,13
true,20,1,1,1,true,z,false,true,0.0-2.0-0.48-0.437-3.437,0,0,1,90,false,stim,false,0,1373,1,0,0,68193,task3,1405939,false,false,1426,image-keyboard-response,14
true,20,1,1,1,true,z,false,true,0.0-2.0-0.48-0.438-3.438,0,0,1,90,false,stim,false,0,507,1,0,1,68193,task3,1407981,false,false,1429,image-keyboard-response,15
true,20,1,1,1,true,z,false,true,0.0-2.0-0.48-0.439-3.439,0,0,1,90,false,stim,false,0,1068,1,0,0,68193,task3,1410582,false,false,1432,image-keyboard-response,16
true,20,1,1,2,false,d,true,false,0.0-2.0-0.48-0.440-3.440,0,0,1,90,false,stim,false,2,929,1,1,2,68193,task3,1413034,false,false,1435,image-keyboard-response,17
true,20,1,1,1,true,z,false,true,0.0-2.0-0.49-0.441-3.441,0,0,1,90,false,stim,false,0,974,1,0,1,68193,task3,1415528,false,false,1438,image-keyboard-response,18
true,20,1,1,2,false,d,true,false,0.0-2.0-0.49-0.442-3.442,0,0,1,90,false,stim,false,2,1064,1,1,2,68193,task3,1418116,false,false,1441,image-keyboard-response,19
true,20,2,1,2,true,d,false,true,0.0-2.0-0.49-0.443-3.443,0,0,1,68,false,stim,false,2,1417,1,0,2,68193,task3,1421057,false,false,1444,image-keyboard-response,20
true,20,1,1,1,true,z,false,true,0.0-2.0-0.49-0.444-3.444,0,0,1,90,false,stim,false,0,963,1,1,0,68193,task3,1423537,false,false,1447,image-keyboard-response,21
true,20,1,1,1,true,z,false,true,0.0-2.0-0.49-0.445-3.445,0,0,1,90,false,stim,false,0,1066,1,0,1,68193,task3,1426136,false,false,1450,image-keyboard-response,22
true,20,1,1,1,true,z,false,true,0.0-2.0-0.49-0.446-3.446,0,0,1,90,false,stim,false,0,894,1,1,0,68193,task3,1428555,false,false,1453,image-keyboard-response,23
true,20,1,1,1,true,z,false,true,0.0-2.0-0.49-0.447-3.447,0,0,1,90,false,stim,false,0,1090,1,0,1,68193,task3,1431158,false,false,1456,image-keyboard-response,24
true,21,1,1,1,true,z,false,false,0.0-2.0-0.49-0.448-3.448,1,0,0,90,true,stim,false,1,908,1,1,0,68193,task3,1433603,false,true,1459,image-keyboard-response,1
true,21,2,1,1,false,z,false,false,0.0-2.0-0.49-0.449-3.449,1,0,0,68,false,stim,true,2,1084,1,0,2,68193,task3,1436202,false,false,1462,image-keyboard-response,2
true,21,2,1,1,false,z,true,false,0.0-2.0-0.50-0.450-3.450,1,0,0,68,false,stim,false,1,708,1,1,0,68193,task3,1438440,false,false,1465,image-keyboard-response,3
true,21,1,1,1,true,z,false,true,0.0-2.0-0.50-0.451-3.451,1,0,0,90,false,stim,false,2,2236,1,0,2,68193,task3,1442209,false,false,1468,image-keyboard-response,4
true,21,1,1,0,false,q,false,false,0.0-2.0-0.50-0.452-3.452,1,0,0,90,false,stim,true,1,464,1,0,1,68193,task3,1444201,false,false,1471,image-keyboard-response,5
true,21,1,1,1,true,z,false,true,0.0-2.0-0.50-0.453-3.453,1,0,0,90,false,stim,false,1,1448,1,1,0,68193,task3,1447174,false,false,1474,image-keyboard-response,6
true,21,1,1,1,true,z,false,true,0.0-2.0-0.50-0.454-3.454,1,0,0,90,false,stim,false,2,2535,1,0,2,68193,task3,1451236,false,false,1477,image-keyboard-response,7
true,21,0,1,1,false,z,true,false,0.0-2.0-0.50-0.455-3.455,1,0,0,81,false,stim,false,1,1100,1,1,0,68193,task3,1453856,false,false,1480,image-keyboard-response,8
true,21,1,1,1,true,z,false,false,0.0-2.0-0.50-0.456-3.456,1,0,0,90,false,stim,false,2,809,1,0,2,68193,task3,1456193,false,true,1483,image-keyboard-response,9
true,21,1,1,0,false,q,false,false,0.0-2.0-0.50-0.457-3.457,1,0,0,90,false,stim,true,1,960,1,0,1,68193,task3,1458669,false,false,1486,image-keyboard-response,10
true,21,2,1,0,false,q,true,false,0.0-2.0-0.50-0.458-3.458,1,0,0,68,false,stim,false,1,1519,1,0,1,68193,task3,1461709,false,false,1489,image-keyboard-response,11
true,21,0,1,0,true,q,false,true,0.0-2.0-0.51-0.459-3.459,1,0,0,81,false,stim,false,1,891,1,0,1,68193,task3,1464130,false,false,1492,image-keyboard-response,12
true,21,0,1,0,true,q,false,true,0.0-2.0-0.51-0.460-3.460,1,0,0,81,false,stim,false,1,568,1,0,1,68193,task3,1466236,false,false,1495,image-keyboard-response,13
true,21,1,1,1,true,z,false,true,0.0-2.0-0.51-0.461-3.461,1,0,0,90,false,stim,false,2,1378,1,0,2,68193,task3,1469154,false,false,1498,image-keyboard-response,14
true,21,1,1,1,true,z,false,true,0.0-2.0-0.51-0.462-3.462,1,0,0,90,false,stim,false,2,1504,1,0,2,68193,task3,1472206,false,false,1501,image-keyboard-response,15
true,21,2,1,1,false,z,true,false,0.0-2.0-0.51-0.463-3.463,1,0,0,68,false,stim,false,1,1017,1,1,0,68193,task3,1474740,false,false,1504,image-keyboard-response,16
true,21,1,1,1,true,z,false,true,0.0-2.0-0.51-0.464-3.464,1,0,0,90,false,stim,false,1,826,1,1,0,68193,task3,1477089,false,false,1507,image-keyboard-response,17
true,21,1,1,1,true,z,false,true,0.0-2.0-0.51-0.465-3.465,1,0,0,90,false,stim,false,1,762,1,1,0,68193,task3,1479391,false,false,1510,image-keyboard-response,18
true,21,1,1,1,true,z,false,true,0.0-2.0-0.51-0.466-3.466,1,0,0,90,false,stim,false,2,1182,1,0,2,68193,task3,1482095,false,false,1513,image-keyboard-response,19
true,21,0,1,0,true,q,false,true,0.0-2.0-0.51-0.467-3.467,1,0,0,81,false,stim,false,1,838,1,0,1,68193,task3,1484447,false,false,1516,image-keyboard-response,20
true,21,1,1,1,true,z,false,true,0.0-2.0-0.52-0.468-3.468,1,0,0,90,false,stim,false,1,1362,1,1,0,68193,task3,1487336,false,false,1519,image-keyboard-response,21
true,21,1,1,1,true,z,false,true,0.0-2.0-0.52-0.469-3.469,1,0,0,90,false,stim,false,2,799,1,0,2,68193,task3,1489669,false,false,1522,image-keyboard-response,22
true,21,1,1,1,true,z,false,true,0.0-2.0-0.52-0.470-3.470,1,0,0,90,false,stim,false,1,860,1,1,0,68193,task3,1492059,false,false,1525,image-keyboard-response,23
true,21,0,1,0,true,q,false,true,0.0-2.0-0.52-0.471-3.471,1,0,0,81,false,stim,false,1,1151,1,0,1,68193,task3,1494729,false,false,1528,image-keyboard-response,24
true,21,0,1,0,true,q,false,true,0.0-2.0-0.52-0.472-3.472,1,0,0,81,false,stim,false,1,796,1,1,1,68193,task3,1497059,false,false,1531,image-keyboard-response,25
true,21,1,1,1,true,z,false,true,0.0-2.0-0.52-0.473-3.473,1,0,0,90,false,stim,false,2,768,1,0,2,68193,task3,1499358,false,false,1534,image-keyboard-response,26
true,21,1,1,1,true,z,false,true,0.0-2.0-0.52-0.474-3.474,1,0,0,90,false,stim,false,1,557,1,0,0,68193,task3,1501437,false,false,1537,image-keyboard-response,27
true,21,1,1,1,true,z,false,true,0.0-2.0-0.52-0.475-3.475,1,0,0,90,false,stim,false,2,1168,1,0,2,68193,task3,1504131,false,false,1540,image-keyboard-response,28
true,21,0,1,0,true,q,false,true,0.0-2.0-0.52-0.476-3.476,1,0,0,81,false,stim,false,1,986,1,1,1,68193,task3,1506639,false,false,1543,image-keyboard-response,29
true,22,0,1,0,true,q,false,true,0.0-2.0-0.53-0.477-3.477,0,1,0,81,true,stim,false,0,642,1,1,1,68193,task3,1508807,false,false,1546,image-keyboard-response,1
true,22,0,1,0,true,q,false,false,0.0-2.0-0.53-0.478-3.478,0,1,0,81,false,stim,false,0,657,1,1,1,68193,task3,1510980,false,true,1549,image-keyboard-response,2
true,22,1,1,0,false,q,false,false,0.0-2.0-0.53-0.479-3.479,0,1,0,90,false,stim,true,1,490,1,0,2,68193,task3,1513000,false,false,1552,image-keyboard-response,3
true,22,1,1,2,false,d,false,false,0.0-2.0-0.53-0.480-3.480,0,1,0,90,false,stim,true,1,685,1,0,0,68193,task3,1515203,false,false,1555,image-keyboard-response,4
true,22,1,1,2,false,d,false,false,0.0-2.0-0.53-0.481-3.481,0,1,0,90,false,stim,true,1,1232,1,0,0,68193,task3,1517972,false,false,1558,image-keyboard-response,5
true,22,0,1,2,false,d,true,false,0.0-2.0-0.53-0.482-3.482,0,1,0,81,false,stim,false,1,600,1,0,0,68193,task3,1520087,false,false,1561,image-keyboard-response,6
true,22,0,1,0,true,q,false,true,0.0-2.0-0.53-0.483-3.483,0,1,0,81,false,stim,false,1,930,1,1,2,68193,task3,1522535,false,false,1564,image-keyboard-response,7
true,22,0,1,0,true,q,false,true,0.0-2.0-0.53-0.484-3.484,0,1,0,81,false,stim,false,0,907,1,0,1,68193,task3,1524959,false,false,1567,image-keyboard-response,8
true,22,0,1,0,true,q,false,true,0.0-2.0-0.53-0.485-3.485,0,1,0,81,false,stim,false,1,763,1,1,2,68193,task3,1527257,false,false,1570,image-keyboard-response,9
true,22,0,1,0,true,q,false,true,0.0-2.0-0.54-0.486-3.486,0,1,0,81,false,stim,false,1,1162,1,1,2,68193,task3,1529947,false,false,1573,image-keyboard-response,10
true,22,0,1,0,true,q,false,true,0.0-2.0-0.54-0.487-3.487,0,1,0,81,false,stim,false,0,1178,1,0,1,68193,task3,1532645,false,false,1576,image-keyboard-response,11
true,23,0,2,2,false,d,false,false,0.0-2.0-0.54-0.488-3.488,1,0,1,81,true,stim,true,0,1001,1,0,1,68193,task3,1535180,false,false,1579,image-keyboard-response,1
true,23,2,2,2,true,d,false,false,0.0-2.0-0.54-0.489-3.489,1,0,1,68,false,stim,false,2,1288,1,1,0,68193,task3,1537987,false,true,1582,image-keyboard-response,2
true,23,0,2,0,true,q,false,true,0.0-2.0-0.54-0.490-3.490,1,0,1,81,false,stim,false,0,1095,1,1,2,68193,task3,1540610,false,false,1585,image-keyboard-response,3
true,23,0,2,2,false,d,false,false,0.0-2.0-0.54-0.491-3.491,1,0,1,81,false,stim,true,0,1046,1,0,1,68193,task3,1543186,false,false,1588,image-keyboard-response,4
true,23,1,2,2,false,d,true,false,0.0-2.0-0.54-0.492-3.492,1,0,1,90,false,stim,false,2,1049,1,1,0,68193,task3,1545769,false,false,1591,image-keyboard-response,5
true,23,0,2,2,false,d,true,false,0.0-2.0-0.54-0.493-3.493,1,0,1,81,false,stim,false,2,1143,1,1,0,68193,task3,1548438,false,false,1594,image-keyboard-response,6
true,23,0,2,0,true,q,false,true,0.0-2.0-0.54-0.494-3.494,1,0,1,81,false,stim,false,0,1423,1,1,2,68193,task3,1551387,false,false,1597,image-keyboard-response,7
true,23,2,2,2,true,d,false,true,0.0-2.0-0.55-0.495-3.495,1,0,1,68,false,stim,false,0,935,1,1,1,68193,task3,1553850,false,false,1600,image-keyboard-response,8
true,23,0,2,0,true,q,false,true,0.0-2.0-0.55-0.496-3.496,1,0,1,81,false,stim,false,0,1080,1,1,2,68193,task3,1556479,false,false,1603,image-keyboard-response,9
true,23,1,2,2,false,d,true,false,0.0-2.0-0.55-0.497-3.497,1,0,1,90,false,stim,false,2,1216,1,0,0,68193,task3,1559216,false,false,1606,image-keyboard-response,10
true,23,0,2,2,false,d,true,false,0.0-2.0-0.55-0.498-3.498,1,0,1,81,false,stim,false,2,523,1,0,0,68193,task3,1561262,false,false,1609,image-keyboard-response,11
true,23,2,2,2,true,d,false,true,0.0-2.0-0.55-0.499-3.499,1,0,1,68,false,stim,false,0,742,1,1,1,68193,task3,1563528,false,false,1612,image-keyboard-response,12
true,24,2,2,2,true,d,false,true,0.0-2.0-0.55-0.500-3.500,0,1,1,68,true,stim,false,2,633,1,1,1,68193,task3,1565696,false,false,1615,image-keyboard-response,1
true,24,2,2,0,false,q,false,false,0.0-2.0-0.55-0.501-3.501,0,1,1,68,false,stim,true,2,656,1,0,0,68193,task3,1567876,false,false,1618,image-keyboard-response,2
true,24,0,2,0,true,q,false,true,0.0-2.0-0.55-0.502-3.502,0,1,1,81,false,stim,false,0,659,1,1,2,68193,task3,1570070,false,false,1621,image-keyboard-response,3
true,24,0,2,0,true,q,false,true,0.0-2.0-0.55-0.503-3.503,0,1,1,81,false,stim,false,0,592,1,1,2,68193,task3,1572190,false,false,1624,image-keyboard-response,4
true,24,0,2,0,true,q,false,true,0.0-2.0-0.56-0.504-3.504,0,1,1,81,false,stim,false,2,654,1,0,0,68193,task3,1574368,false,false,1627,image-keyboard-response,5
true,24,0,2,0,true,q,false,true,0.0-2.0-0.56-0.505-3.505,0,1,1,81,false,stim,false,2,648,1,0,0,68193,task3,1576531,false,false,1630,image-keyboard-response,6
true,24,2,2,2,true,d,false,true,0.0-2.0-0.56-0.506-3.506,0,1,1,68,false,stim,false,2,1357,1,1,1,68193,task3,1579421,false,false,1633,image-keyboard-response,7
true,24,0,2,0,true,q,false,true,0.0-2.0-0.56-0.507-3.507,0,1,1,81,false,stim,false,0,1039,1,0,2,68193,task3,1581984,false,false,1636,image-keyboard-response,8
true,24,2,2,0,false,q,false,false,0.0-2.0-0.56-0.508-3.508,0,1,1,68,false,stim,true,2,654,1,1,0,68193,task3,1584169,false,false,1639,image-keyboard-response,9
true,24,2,2,2,true,d,false,true,0.0-2.0-0.56-0.509-3.509,0,1,1,68,false,stim,false,2,1757,1,1,1,68193,task3,1587454,false,false,1642,image-keyboard-response,10
true,24,0,2,0,true,q,false,true,0.0-2.0-0.56-0.510-3.510,0,1,1,81,false,stim,false,0,1029,1,0,2,68193,task3,1590010,false,false,1645,image-keyboard-response,11
true,25,0,2,1,false,z,false,true,0.0-2.0-0.56-0.511-3.511,1,1,0,81,true,stim,true,0,967,1,0,2,68193,task3,1592498,false,true,1648,image-keyboard-response,1
true,25,2,2,2,true,d,false,true,0.0-2.0-0.56-0.512-3.512,1,1,0,68,false,stim,false,2,1327,1,1,1,68193,task3,1595350,false,false,1651,image-keyboard-response,2
true,25,0,2,1,false,z,false,false,0.0-2.0-0.57-0.513-3.513,1,1,0,81,false,stim,true,0,772,1,0,2,68193,task3,1597657,false,false,1654,image-keyboard-response,3
true,25,1,2,1,true,z,false,true,0.0-2.0-0.57-0.514-3.514,1,1,0,90,false,stim,false,0,783,1,0,2,68193,task3,1599978,false,false,1657,image-keyboard-response,4
true,25,0,2,0,true,q,false,true,0.0-2.0-0.57-0.515-3.515,1,1,0,81,false,stim,false,0,735,1,1,0,68193,task3,1602242,false,false,1660,image-keyboard-response,5
true,25,2,2,2,true,d,false,true,0.0-2.0-0.57-0.516-3.516,1,1,0,68,false,stim,false,2,1137,1,1,1,68193,task3,1604902,false,false,1663,image-keyboard-response,6
true,25,1,2,1,true,z,false,true,0.0-2.0-0.57-0.517-3.517,1,1,0,90,false,stim,false,0,1235,1,1,2,68193,task3,1607676,false,false,1666,image-keyboard-response,7
true,25,2,2,2,true,d,false,true,0.0-2.0-0.57-0.518-3.518,1,1,0,68,false,stim,false,2,881,1,1,1,68193,task3,1610086,false,false,1669,image-keyboard-response,8
true,25,2,2,2,true,d,false,true,0.0-2.0-0.57-0.519-3.519,1,1,0,68,false,stim,false,2,965,1,1,1,68193,task3,1612578,false,false,1672,image-keyboard-response,9
true,25,2,2,0,false,q,true,false,0.0-2.0-0.57-0.520-3.520,1,1,0,68,false,stim,false,0,1348,1,1,0,68193,task3,1615448,false,false,1675,image-keyboard-response,10
true,25,1,2,0,false,q,true,false,0.0-2.0-0.57-0.521-3.521,1,1,0,90,false,stim,false,0,921,1,1,0,68193,task3,1617892,false,false,1678,image-keyboard-response,11
true,26,0,0,0,true,q,false,true,0.0-2.0-0.58-0.522-3.522,1,1,1,81,true,stim,false,0,1293,1,1,0,68193,task3,1741958,false,false,1801,image-keyboard-response,1
true,26,1,0,2,false,d,true,false,0.0-2.0-0.58-0.523-3.523,1,1,1,90,false,stim,false,2,781,1,1,1,68193,task3,1744276,false,false,1804,image-keyboard-response,2
true,26,0,0,0,true,q,false,true,0.0-2.0-0.58-0.524-3.524,1,1,1,81,false,stim,false,0,805,1,1,0,68193,task3,1746604,false,false,1807,image-keyboard-response,3
true,26,2,0,1,false,z,true,true,0.0-2.0-0.58-0.525-3.525,1,1,1,68,false,stim,false,1,765,1,1,2,68193,task3,1748898,false,true,1810,image-keyboard-response,4
true,26,0,0,2,false,d,true,false,0.0-2.0-0.58-0.526-3.526,1,1,1,81,false,stim,false,2,630,1,1,1,68193,task3,1751053,false,false,1813,image-keyboard-response,5
true,26,2,0,1,false,z,true,true,0.0-2.0-0.58-0.527-3.527,1,1,1,68,false,stim,false,1,792,1,1,2,68193,task3,1753359,false,true,1816,image-keyboard-response,6
true,26,2,0,2,true,d,false,true,0.0-2.0-0.58-0.528-3.528,1,1,1,68,false,stim,false,2,2868,1,1,1,68193,task3,1757759,false,false,1819,image-keyboard-response,7
true,26,2,0,0,false,q,true,false,0.0-2.0-0.58-0.529-3.529,1,1,1,68,false,stim,false,0,2492,1,1,0,68193,task3,1761778,false,false,1822,image-keyboard-response,8
false,26,-1,0,1,false,z,true,true,0.0-2.0-0.58-0.530-3.530,1,1,1,,false,stim,false,1,,1,1,2,68193,task3,1766303,false,true,1825,image-keyboard-response,9
true,26,2,0,1,false,z,true,false,0.0-2.0-0.59-0.531-3.531,1,1,1,68,false,stim,false,1,603,1,1,2,68193,task3,1768429,false,false,1828,image-keyboard-response,10
true,26,1,0,1,true,z,false,false,0.0-2.0-0.59-0.532-3.532,1,1,1,90,false,stim,false,1,474,1,1,2,68193,task3,1770429,false,true,1831,image-keyboard-response,11
true,26,0,0,1,false,z,true,false,0.0-2.0-0.59-0.533-3.533,1,1,1,81,false,stim,false,1,572,1,1,2,68193,task3,1772532,false,false,1834,image-keyboard-response,12
true,26,2,0,2,true,d,false,true,0.0-2.0-0.59-0.534-3.534,1,1,1,68,false,stim,false,2,1306,1,1,1,68193,task3,1775358,false,false,1837,image-keyboard-response,13
true,26,1,0,0,false,q,true,false,0.0-2.0-0.59-0.535-3.535,1,1,1,90,false,stim,false,0,1986,1,0,0,68193,task3,1778869,false,false,1840,image-keyboard-response,14
true,27,0,2,2,false,d,false,false,0.0-2.0-0.59-0.536-3.536,0,1,1,81,true,stim,true,0,1791,1,0,0,68193,task3,1782190,false,false,1843,image-keyboard-response,1
true,27,2,2,2,true,d,false,true,0.0-2.0-0.59-0.537-3.537,0,1,1,68,false,stim,false,2,526,1,1,1,68193,task3,1784247,false,false,1846,image-keyboard-response,2
true,27,2,2,2,true,d,false,true,0.0-2.0-0.59-0.538-3.538,0,1,1,68,false,stim,false,2,508,1,1,1,68193,task3,1786272,false,false,1849,image-keyboard-response,3
true,27,2,2,2,true,d,false,true,0.0-2.0-0.59-0.539-3.539,0,1,1,68,false,stim,false,0,969,1,0,0,68193,task3,1788763,false,false,1852,image-keyboard-response,4
true,27,2,2,2,true,d,false,true,0.0-2.0-0.60-0.540-3.540,0,1,1,68,false,stim,false,2,798,1,1,1,68193,task3,1791092,false,false,1855,image-keyboard-response,5
true,27,1,2,1,true,z,false,true,0.0-2.0-0.60-0.541-3.541,0,1,1,90,false,stim,false,1,958,1,1,2,68193,task3,1793587,false,false,1858,image-keyboard-response,6
true,27,2,2,2,true,d,false,true,0.0-2.0-0.60-0.542-3.542,0,1,1,68,false,stim,false,2,679,1,1,1,68193,task3,1795798,false,false,1861,image-keyboard-response,7
true,27,2,2,2,true,d,false,true,0.0-2.0-0.60-0.543-3.543,0,1,1,68,false,stim,false,2,1006,1,1,1,68193,task3,1798334,false,false,1864,image-keyboard-response,8
true,27,2,2,2,true,d,false,false,0.0-2.0-0.60-0.544-3.544,0,1,1,68,false,stim,false,0,1298,1,0,0,68193,task3,1801163,false,true,1867,image-keyboard-response,9
true,27,2,2,2,true,d,false,false,0.0-2.0-0.60-0.545-3.545,0,1,1,68,false,stim,false,0,590,1,0,0,68193,task3,1803281,false,true,1870,image-keyboard-response,10
true,27,0,2,2,false,d,false,false,0.0-2.0-0.60-0.546-3.546,0,1,1,81,false,stim,true,0,620,1,0,0,68193,task3,1805432,false,false,1873,image-keyboard-response,11
true,27,1,2,1,true,z,false,true,0.0-2.0-0.60-0.547-3.547,0,1,1,90,false,stim,false,1,481,1,1,2,68193,task3,1807440,false,false,1876,image-keyboard-response,12
true,27,1,2,1,true,z,false,true,0.0-2.0-0.60-0.548-3.548,0,1,1,90,false,stim,false,1,700,1,1,2,68193,task3,1809670,false,false,1879,image-keyboard-response,13
true,27,1,2,2,false,d,true,false,0.0-2.0-0.61-0.549-3.549,0,1,1,90,false,stim,false,0,1601,1,0,0,68193,task3,1812803,false,false,1882,image-keyboard-response,14
true,27,1,2,1,true,z,false,true,0.0-2.0-0.61-0.550-3.550,0,1,1,90,false,stim,false,1,824,1,1,2,68193,task3,1815163,false,false,1885,image-keyboard-response,15
true,27,2,2,2,true,d,false,true,0.0-2.0-0.61-0.551-3.551,0,1,1,68,false,stim,false,2,743,1,1,1,68193,task3,1817434,false,false,1888,image-keyboard-response,16
true,27,2,2,2,true,d,false,true,0.0-2.0-0.61-0.552-3.552,0,1,1,68,false,stim,false,0,1113,1,0,0,68193,task3,1820067,false,false,1891,image-keyboard-response,17
true,27,2,2,2,true,d,false,true,0.0-2.0-0.61-0.553-3.553,0,1,1,68,false,stim,false,0,574,1,0,0,68193,task3,1822155,false,false,1894,image-keyboard-response,18
true,27,2,2,2,true,d,false,true,0.0-2.0-0.61-0.554-3.554,0,1,1,68,false,stim,false,2,1263,1,1,1,68193,task3,1824947,false,false,1897,image-keyboard-response,19
true,27,1,2,1,true,z,false,true,0.0-2.0-0.61-0.555-3.555,0,1,1,90,false,stim,false,1,510,1,1,2,68193,task3,1826990,false,false,1900,image-keyboard-response,20
true,27,2,2,2,true,d,false,false,0.0-2.0-0.61-0.556-3.556,0,1,1,68,false,stim,false,2,794,1,1,1,68193,task3,1829341,false,true,1903,image-keyboard-response,21
true,27,1,2,1,true,z,false,true,0.0-2.0-0.61-0.557-3.557,0,1,1,90,false,stim,false,1,530,1,1,2,68193,task3,1831386,false,false,1906,image-keyboard-response,22
true,27,0,2,2,false,d,true,false,0.0-2.0-0.62-0.558-3.558,0,1,1,81,false,stim,false,2,819,1,1,1,68193,task3,1833742,false,false,1909,image-keyboard-response,23
true,27,1,2,1,true,z,false,true,0.0-2.0-0.62-0.559-3.559,0,1,1,90,false,stim,false,1,625,1,0,2,68193,task3,1835894,false,false,1912,image-keyboard-response,24
true,27,2,2,2,true,d,false,true,0.0-2.0-0.62-0.560-3.560,0,1,1,68,false,stim,false,0,1708,1,0,0,68193,task3,1839134,false,false,1915,image-keyboard-response,25
true,27,1,2,1,true,z,false,true,0.0-2.0-0.62-0.561-3.561,0,1,1,90,false,stim,false,1,935,1,0,2,68193,task3,1841594,false,false,1918,image-keyboard-response,26
true,27,2,2,2,true,d,false,true,0.0-2.0-0.62-0.562-3.562,0,1,1,68,false,stim,false,2,1471,1,1,1,68193,task3,1844595,false,false,1921,image-keyboard-response,27
true,28,2,1,2,true,d,false,true,0.0-2.0-0.62-0.563-3.563,0,1,0,68,true,stim,false,2,1112,1,1,1,68193,task3,1847239,false,false,1924,image-keyboard-response,1
true,28,1,1,2,false,d,false,false,0.0-2.0-0.62-0.564-3.564,0,1,0,90,false,stim,true,1,746,1,0,2,68193,task3,1849512,false,false,1927,image-keyboard-response,2
true,28,2,1,0,false,q,false,false,0.0-2.0-0.62-0.565-3.565,0,1,0,68,false,stim,true,2,739,1,0,0,68193,task3,1851790,false,false,1930,image-keyboard-response,3
true,28,0,1,0,true,q,false,true,0.0-2.0-0.62-0.566-3.566,0,1,0,81,false,stim,false,2,522,1,0,0,68193,task3,1853846,false,false,1933,image-keyboard-response,4
true,28,1,1,2,false,d,true,false,0.0-2.0-0.63-0.567-3.567,0,1,0,90,false,stim,false,2,1608,1,1,1,68193,task3,1856986,false,false,1936,image-keyboard-response,5
true,28,0,1,0,true,q,false,true,0.0-2.0-0.63-0.568-3.568,0,1,0,81,false,stim,false,2,1065,1,0,0,68193,task3,1859582,false,false,1939,image-keyboard-response,6
true,28,0,1,2,false,d,true,false,0.0-2.0-0.63-0.569-3.569,0,1,0,81,false,stim,false,2,745,1,1,1,68193,task3,1861850,false,false,1942,image-keyboard-response,7
true,28,2,1,2,true,d,false,true,0.0-2.0-0.63-0.570-3.570,0,1,0,68,false,stim,false,1,836,1,0,2,68193,task3,1864225,false,false,1945,image-keyboard-response,8
true,28,0,1,0,true,q,false,true,0.0-2.0-0.63-0.571-3.571,0,1,0,81,false,stim,false,2,947,1,0,0,68193,task3,1866702,false,false,1948,image-keyboard-response,9
true,28,2,1,2,true,d,false,true,0.0-2.0-0.63-0.572-3.572,0,1,0,68,false,stim,false,2,1432,1,1,1,68193,task3,1869660,false,false,1951,image-keyboard-response,10
true,28,2,1,2,true,d,false,true,0.0-2.0-0.63-0.573-3.573,0,1,0,68,false,stim,false,1,1756,1,0,2,68193,task3,1872940,false,false,1954,image-keyboard-response,11
true,28,2,1,2,true,d,false,true,0.0-2.0-0.63-0.574-3.574,0,1,0,68,false,stim,false,1,778,1,0,2,68193,task3,1875245,false,false,1957,image-keyboard-response,12
true,28,0,1,0,true,q,false,true,0.0-2.0-0.63-0.575-3.575,0,1,0,81,false,stim,false,2,1022,1,0,0,68193,task3,1877808,false,false,1960,image-keyboard-response,13
true,28,2,1,2,true,d,false,false,0.0-2.0-0.64-0.576-3.576,0,1,0,68,false,stim,false,2,845,1,1,1,68193,task3,1880179,false,true,1963,image-keyboard-response,14
true,28,2,1,2,true,d,false,false,0.0-2.0-0.64-0.577-3.577,0,1,0,68,false,stim,false,1,1102,1,0,2,68193,task3,1882811,false,true,1966,image-keyboard-response,15
true,28,0,1,0,true,q,false,true,0.0-2.0-0.64-0.578-3.578,0,1,0,81,false,stim,false,2,869,1,0,0,68193,task3,1885209,false,false,1969,image-keyboard-response,16
true,28,1,1,2,false,d,false,false,0.0-2.0-0.64-0.579-3.579,0,1,0,90,false,stim,true,1,1235,1,0,2,68193,task3,1887963,false,false,1972,image-keyboard-response,17
true,28,0,1,2,false,d,true,true,0.0-2.0-0.64-0.580-3.580,0,1,0,81,false,stim,false,1,724,1,0,2,68193,task3,1890224,false,true,1975,image-keyboard-response,18
true,28,0,1,0,true,q,false,true,0.0-2.0-0.64-0.581-3.581,0,1,0,81,false,stim,false,2,774,1,0,0,68193,task3,1892533,false,false,1978,image-keyboard-response,19
true,28,2,1,2,true,d,false,true,0.0-2.0-0.64-0.582-3.582,0,1,0,68,false,stim,false,2,1359,1,1,1,68193,task3,1895418,false,false,1981,image-keyboard-response,20
true,28,0,1,0,true,q,false,true,0.0-2.0-0.64-0.583-3.583,0,1,0,81,false,stim,false,2,1274,1,0,0,68193,task3,1898216,false,false,1984,image-keyboard-response,21
true,28,2,1,2,true,d,false,true,0.0-2.0-0.64-0.584-3.584,0,1,0,68,false,stim,false,2,1442,1,1,1,68193,task3,1901174,false,false,1987,image-keyboard-response,22
true,28,0,1,2,false,d,true,true,0.0-2.0-0.65-0.585-3.585,0,1,0,81,false,stim,false,1,811,1,0,2,68193,task3,1903520,false,true,1990,image-keyboard-response,23
true,28,0,1,0,true,q,false,true,0.0-2.0-0.65-0.586-3.586,0,1,0,81,false,stim,false,2,643,1,0,0,68193,task3,1905691,false,false,1993,image-keyboard-response,24
true,28,2,1,2,true,d,false,true,0.0-2.0-0.65-0.587-3.587,0,1,0,68,false,stim,false,2,2388,1,1,1,68193,task3,1909614,false,false,1996,image-keyboard-response,25
true,28,0,1,2,false,d,true,false,0.0-2.0-0.65-0.588-3.588,0,1,0,81,false,stim,false,1,1441,1,0,2,68193,task3,1912585,false,false,1999,image-keyboard-response,26
true,28,2,1,2,true,d,false,false,0.0-2.0-0.65-0.589-3.589,0,1,0,68,false,stim,false,2,917,1,1,1,68193,task3,1915058,false,true,2002,image-keyboard-response,27
true,28,0,1,0,true,q,false,true,0.0-2.0-0.65-0.590-3.590,0,1,0,81,false,stim,false,2,937,1,0,0,68193,task3,1917520,false,false,2005,image-keyboard-response,28
true,29,1,1,2,false,d,true,false,0.0-2.0-0.65-0.591-3.591,0,1,0,90,true,stim,false,2,929,1,1,1,68193,task3,1919970,false,false,2008,image-keyboard-response,1
true,29,0,1,1,false,z,false,false,0.0-2.0-0.65-0.592-3.592,0,1,0,81,false,stim,true,0,740,1,0,0,68193,task3,1922239,false,false,2011,image-keyboard-response,2
true,29,2,1,1,false,z,false,false,0.0-2.0-0.65-0.593-3.593,0,1,0,68,false,stim,true,2,898,1,0,2,68193,task3,1924668,false,false,2014,image-keyboard-response,3
true,29,2,1,1,false,z,true,false,0.0-2.0-0.66-0.594-3.594,0,1,0,68,false,stim,false,0,815,1,0,0,68193,task3,1927011,false,false,2017,image-keyboard-response,4
true,29,0,1,1,false,z,false,false,0.0-2.0-0.66-0.595-3.595,0,1,0,81,false,stim,true,0,367,1,0,0,68193,task3,1928905,false,false,2020,image-keyboard-response,5
true,29,2,1,2,true,d,false,true,0.0-2.0-0.66-0.596-3.596,0,1,0,68,false,stim,false,2,930,1,1,1,68193,task3,1931363,false,false,2023,image-keyboard-response,6
true,29,1,1,1,true,z,false,true,0.0-2.0-0.66-0.597-3.597,0,1,0,90,false,stim,false,2,1183,1,0,2,68193,task3,1934071,false,false,2026,image-keyboard-response,7
true,29,1,1,1,true,z,false,true,0.0-2.0-0.66-0.598-3.598,0,1,0,90,false,stim,false,0,1469,1,0,0,68193,task3,1937078,false,false,2029,image-keyboard-response,8
true,29,1,1,1,true,z,false,false,0.0-2.0-0.66-0.599-3.599,0,1,0,90,false,stim,false,2,980,1,0,2,68193,task3,1939579,false,true,2032,image-keyboard-response,9
true,29,2,1,2,true,d,false,false,0.0-2.0-0.66-0.600-3.600,0,1,0,68,false,stim,false,2,738,1,1,1,68193,task3,1941849,false,true,2035,image-keyboard-response,10
true,29,2,1,2,true,d,false,true,0.0-2.0-0.66-0.601-3.601,0,1,0,68,false,stim,false,2,728,1,1,1,68193,task3,1944103,false,false,2038,image-keyboard-response,11
true,29,2,1,1,false,z,false,false,0.0-2.0-0.66-0.602-3.602,0,1,0,68,false,stim,true,2,1017,1,0,2,68193,task3,1946648,false,false,2041,image-keyboard-response,12
true,29,0,1,1,false,z,true,false,0.0-2.0-0.67-0.603-3.603,0,1,0,81,false,stim,false,2,433,1,0,2,68193,task3,1948623,false,false,2044,image-keyboard-response,13
true,29,2,1,2,true,d,false,true,0.0-2.0-0.67-0.604-3.604,0,1,0,68,false,stim,false,2,1034,1,1,1,68193,task3,1951194,false,false,2047,image-keyboard-response,14
true,29,2,1,2,true,d,false,true,0.0-2.0-0.67-0.605-3.605,0,1,0,68,false,stim,false,2,891,1,1,1,68193,task3,1953621,false,false,2050,image-keyboard-response,15
true,29,1,1,1,true,z,false,true,0.0-2.0-0.67-0.606-3.606,0,1,0,90,false,stim,false,2,802,1,0,2,68193,task3,1955947,false,false,2053,image-keyboard-response,16
true,29,1,1,1,true,z,false,false,0.0-2.0-0.67-0.607-3.607,0,1,0,90,false,stim,false,0,1348,1,0,0,68193,task3,1958828,false,true,2056,image-keyboard-response,17
true,29,1,1,1,true,z,false,true,0.0-2.0-0.67-0.608-3.608,0,1,0,90,false,stim,false,2,1486,1,0,2,68193,task3,1961839,false,false,2059,image-keyboard-response,18
true,29,1,1,2,false,d,true,false,0.0-2.0-0.67-0.609-3.609,0,1,0,90,false,stim,false,2,1193,1,1,1,68193,task3,1964564,false,false,2062,image-keyboard-response,19
true,29,2,1,1,false,z,true,false,0.0-2.0-0.67-0.610-3.610,0,1,0,68,false,stim,false,0,1138,1,0,0,68193,task3,1967222,false,false,2065,image-keyboard-response,20
true,29,0,1,1,false,z,false,false,0.0-2.0-0.67-0.611-3.611,0,1,0,81,false,stim,true,0,903,1,0,0,68193,task3,1969657,false,false,2068,image-keyboard-response,21
true,29,1,1,2,false,d,true,false,0.0-2.0-0.68-0.612-3.612,0,1,0,90,false,stim,false,2,1465,1,1,1,68193,task3,1972655,false,false,2071,image-keyboard-response,22
true,29,1,1,1,true,z,false,true,0.0-2.0-0.68-0.613-3.613,0,1,0,90,false,stim,false,2,1249,1,0,2,68193,task3,1975439,false,false,2074,image-keyboard-response,23
true,29,2,1,2,true,d,false,true,0.0-2.0-0.68-0.614-3.614,0,1,0,68,false,stim,false,2,1667,1,1,1,68193,task3,1978631,false,false,2077,image-keyboard-response,24
true,29,2,1,2,true,d,false,true,0.0-2.0-0.68-0.615-3.615,0,1,0,68,false,stim,false,2,680,1,1,1,68193,task3,1980844,false,false,2080,image-keyboard-response,25
true,29,1,1,1,true,z,false,true,0.0-2.0-0.68-0.616-3.616,0,1,0,90,false,stim,false,2,850,1,0,2,68193,task3,1983208,false,false,2083,image-keyboard-response,26
true,29,1,1,1,true,z,false,true,0.0-2.0-0.68-0.617-3.617,0,1,0,90,false,stim,false,2,1438,1,0,2,68193,task3,1986160,false,false,2086,image-keyboard-response,27
true,29,2,1,1,false,z,true,true,0.0-2.0-0.68-0.618-3.618,0,1,0,68,false,stim,false,0,1223,1,1,0,68193,task3,1988908,false,true,2089,image-keyboard-response,28
true,29,2,1,1,false,z,true,false,0.0-2.0-0.68-0.619-3.619,0,1,0,68,false,stim,false,0,789,1,1,0,68193,task3,1991217,false,false,2092,image-keyboard-response,29
true,30,1,2,1,true,z,false,false,0.0-2.0-0.68-0.620-3.620,1,1,0,90,true,stim,false,1,925,1,1,0,68193,task3,1993675,false,true,2095,image-keyboard-response,1
true,30,1,2,2,false,d,true,false,0.0-2.0-0.69-0.621-3.621,1,1,0,90,false,stim,false,2,904,1,1,1,68193,task3,1996102,false,false,2098,image-keyboard-response,2
true,30,0,2,1,false,z,true,false,0.0-2.0-0.69-0.622-3.622,1,1,0,81,false,stim,false,1,990,1,1,0,68193,task3,1998655,false,false,2101,image-keyboard-response,3
true,30,1,2,0,false,q,false,true,0.0-2.0-0.69-0.623-3.623,1,1,0,90,false,stim,true,1,947,1,0,2,68193,task3,2001137,false,true,2104,image-keyboard-response,4
true,30,1,2,1,true,z,false,true,0.0-2.0-0.69-0.624-3.624,1,1,0,90,false,stim,false,1,1259,1,1,0,68193,task3,2003934,false,false,2107,image-keyboard-response,5
true,30,1,2,0,false,q,false,false,0.0-2.0-0.69-0.625-3.625,1,1,0,90,false,stim,true,1,2062,1,0,2,68193,task3,2007522,false,false,2110,image-keyboard-response,6
true,30,0,2,0,true,q,false,true,0.0-2.0-0.69-0.626-3.626,1,1,0,81,false,stim,false,1,592,1,0,2,68193,task3,2009652,false,false,2113,image-keyboard-response,7
true,30,1,2,2,false,d,true,false,0.0-2.0-0.69-0.627-3.627,1,1,0,90,false,stim,false,2,823,1,1,1,68193,task3,2012001,false,false,2116,image-keyboard-response,8
true,30,1,2,1,true,z,false,true,0.0-2.0-0.69-0.628-3.628,1,1,0,90,false,stim,false,1,1843,1,1,0,68193,task3,2015359,false,false,2119,image-keyboard-response,9
true,30,1,2,2,false,d,true,false,0.0-2.0-0.69-0.629-3.629,1,1,0,90,false,stim,false,2,1792,1,1,1,68193,task3,2018680,false,false,2122,image-keyboard-response,10
true,30,0,2,0,true,q,false,true,0.0-2.0-0.70-0.630-3.630,1,1,0,81,false,stim,false,1,1058,1,1,2,68193,task3,2021270,false,false,2125,image-keyboard-response,11
true,30,2,2,1,false,z,true,false,0.0-2.0-0.70-0.631-3.631,1,1,0,68,false,stim,false,1,1803,1,1,0,68193,task3,2024605,false,false,2128,image-keyboard-response,12
true,30,1,2,1,true,z,false,true,0.0-2.0-0.70-0.632-3.632,1,1,0,90,false,stim,false,1,1580,1,1,0,68193,task3,2027709,false,false,2131,image-keyboard-response,13
