answered,blockNum,choice,condition,corResp,correct,correct_response,explo,fb,internal_node_id,isStable_1,isStable_2,isStable_3,key_press,newBlock,part,persev,persevResp,rt,sessNum,stableAS,stimulus,subject,task,time_elapsed,training,trap,trial_index,trial_type,trialsInBlock
true,1,1,0,1,true,z,false,true,0.0-2.0-0.0-0.0-3.0,0,0,0,90,true,stim,false,-1,2790,0,0,0,68193,task2,161418,false,false,92,image-keyboard-response,1
false,1,-1,0,2,false,d,false,false,0.0-2.0-0.0-0.1-3.1,0,0,0,,false,stim,true,-1,,0,0,2,68193,task2,166196,false,false,95,image-keyboard-response,2
true,1,1,0,1,true,z,false,true,0.0-2.0-0.0-0.2-3.2,0,0,0,90,false,stim,false,-1,2456,0,0,0,68193,task2,170192,false,false,98,image-keyboard-response,3
true,1,2,0,2,true,d,false,true,0.0-2.0-0.0-0.3-3.3,0,0,0,68,false,stim,false,-1,1623,0,0,2,68193,task2,173450,false,false,101,image-keyboard-response,4
true,1,0,0,0,true,q,false,true,0.0-2.0-0.0-0.4-3.4,0,0,0,81,false,stim,false,-1,2879,0,0,1,68193,task2,177862,false,false,104,image-keyboard-response,5
true,1,0,0,0,true,q,false,true,0.0-2.0-0.0-0.5-3.5,0,0,0,81,false,stim,false,-1,1046,0,0,1,68193,task2,180420,false,false,107,image-keyboard-response,6
true,1,2,0,2,true,d,false,true,0.0-2.0-0.0-0.6-3.6,0,0,0,68,false,stim,false,-1,2055,0,0,2,68193,task2,183995,false,false,110,image-keyboard-response,7
true,1,0,0,0,true,q,false,true,0.0-2.0-0.0-0.7-3.7,0,0,0,81,false,stim,false,-1,1546,0,0,1,68193,task2,187073,false,false,113,image-keyboard-response,8
true,1,1,0,1,true,z,false,true,0.0-2.0-0.0-0.8-3.8,0,0,0,90,false,stim,false,-1,1541,0,0,0,68193,task2,190139,false,false,116,image-keyboard-response,9
true,1,1,0,1,true,z,false,true,0.0-2.0-0.1-0.9-3.9,0,0,0,90,false,stim,false,-1,588,0,0,0,68193,task2,192257,false,false,119,image-keyboard-response,10
true,1,1,0,1,true,z,false,true,0.0-2.0-0.1-0.10-3.10,0,0,0,90,false,stim,false,-1,592,0,0,0,68193,task2,194361,false,false,122,image-keyboard-response,11
true,1,2,0,2,true,d,false,true,0.0-2.0-0.1-0.11-3.11,0,0,0,68,false,stim,false,-1,1509,0,0,2,68193,task2,197406,false,false,125,image-keyboard-response,12
false,1,-1,0,0,false,q,false,false,0.0-2.0-0.1-0.12-3.12,0,0,0,,false,stim,true,-1,,0,0,1,68193,task2,201940,false,false,128,image-keyboard-response,13
true,1,0,0,0,true,q,false,true,0.0-2.0-0.1-0.13-3.13,0,0,0,81,false,stim,false,-1,2058,0,0,1,68193,task2,205537,false,false,131,image-keyboard-response,14
true,1,2,0,2,true,d,false,true,0.0-2.0-0.1-0.14-3.14,0,0,0,68,false,stim,false,-1,1622,0,0,2,68193,task2,208684,false,false,134,image-keyboard-response,15
true,1,2,0,2,true,d,false,true,0.0-2.0-0.1-0.15-3.15,0,0,0,68,false,stim,false,-1,2404,0,0,2,68193,task2,212610,false,false,137,image-keyboard-response,16
true,1,0,0,1,false,z,true,false,0.0-2.0-0.1-0.16-3.16,0,0,0,81,false,stim,false,-1,1135,0,0,0,68193,task2,215257,false,false,140,image-keyboard-response,17
true,1,1,0,0,false,q,true,false,0.0-2.0-0.1-0.17-3.17,0,0,0,90,false,stim,false,-1,2046,0,0,1,68193,task2,218831,false,false,143,image-keyboard-response,18
true,1,1,0,1,true,z,false,true,0.0-2.0-0.2-0.18-3.18,0,0,0,90,false,stim,false,-1,1981,0,0,0,68193,task2,222340,false,false,146,image-keyboard-response,19
true,1,2,0,2,true,d,false,true,0.0-2.0-0.2-0.19-3.19,0,0,0,68,false,stim,false,-1,2607,0,0,2,68193,task2,226465,false,false,149,image-keyboard-response,20
true,1,2,0,2,true,d,false,true,0.0-2.0-0.2-0.20-3.20,0,0,0,68,false,stim,false,-1,1090,0,0,2,68193,task2,229092,false,false,152,image-keyboard-response,21
true,1,0,0,0,true,q,false,true,0.0-2.0-0.2-0.21-3.21,0,0,0,81,false,stim,false,-1,2169,0,0,1,68193,task2,232782,false,false,155,image-keyboard-response,22
true,1,2,0,2,true,d,false,true,0.0-2.0-0.2-0.22-3.22,0,0,0,68,false,stim,false,-1,2013,0,0,2,68193,task2,236312,false,false,158,image-keyboard-response,23
true,1,1,0,1,true,z,false,true,0.0-2.0-0.2-0.23-3.23,0,0,0,90,false,stim,false,-1,2051,0,0,0,68193,task2,240064,false,false,161,image-keyboard-response,24
true,1,0,0,0,true,q,false,false,0.0-2.0-0.2-0.24-3.24,0,0,0,81,false,stim,false,-1,1731,0,0,1,68193,task2,243329,false,true,164,image-keyboard-response,25
true,1,1,0,1,true,z,false,true,0.0-2.0-0.2-0.25-3.25,0,0,0,90,false,stim,false,-1,2094,0,0,0,68193,task2,246937,false,false,167,image-keyboard-response,26
true,2,2,1,1,false,z,true,false,0.0-2.0-0.2-0.26-3.26,0,0,0,68,true,stim,false,0,2271,0,0,1,68193,task2,250739,false,false,170,image-keyboard-response,1
true,2,1,1,2,false,d,false,false,0.0-2.0-0.3-0.27-3.27,0,0,0,90,false,stim,true,1,1543,0,0,0,68193,task2,253809,false,false,173,image-keyboard-response,2
true,2,0,1,2,false,d,true,false,0.0-2.0-0.3-0.28-3.28,0,0,0,81,false,stim,false,1,1511,0,0,0,68193,task2,256845,false,false,176,image-keyboard-response,3
true,2,2,1,1,false,z,true,false,0.0-2.0-0.3-0.29-3.29,0,0,0,68,false,stim,false,0,2214,0,0,1,68193,task2,260587,false,false,179,image-keyboard-response,4
true,2,2,1,2,true,d,false,true,0.0-2.0-0.3-0.30-3.30,0,0,0,68,false,stim,false,1,1637,0,0,0,68193,task2,263731,false,false,182,image-keyboard-response,5
true,2,2,1,1,false,z,true,false,0.0-2.0-0.3-0.31-3.31,0,0,0,68,false,stim,false,0,1945,0,0,1,68193,task2,267204,false,false,185,image-keyboard-response,6
true,2,1,1,1,true,z,false,true,0.0-2.0-0.3-0.32-3.32,0,0,0,90,false,stim,false,0,1855,0,0,1,68193,task2,270590,false,false,188,image-keyboard-response,7
true,2,2,1,1,false,z,false,false,0.0-2.0-0.3-0.33-3.33,0,0,0,68,false,stim,true,2,1560,0,0,2,68193,task2,273673,false,false,191,image-keyboard-response,8
true,2,0,1,1,false,z,true,false,0.0-2.0-0.3-0.34-3.34,0,0,0,81,false,stim,false,2,1197,0,0,2,68193,task2,276393,false,false,194,image-keyboard-response,9
true,2,1,1,1,true,z,false,true,0.0-2.0-0.3-0.35-3.35,0,0,0,90,false,stim,false,2,1145,0,0,2,68193,task2,279066,false,false,197,image-keyboard-response,10
true,2,1,1,2,false,d,false,false,0.0-2.0-0.4-0.36-3.36,0,0,0,90,false,stim,true,1,1156,0,0,0,68193,task2,281742,false,false,200,image-keyboard-response,11
true,2,1,1,1,true,z,false,true,0.0-2.0-0.4-0.37-3.37,0,0,0,90,false,stim,false,0,598,0,0,1,68193,task2,283862,false,false,203,image-keyboard-response,12
true,2,0,1,1,false,z,true,false,0.0-2.0-0.4-0.38-3.38,0,0,0,81,false,stim,false,2,1279,0,0,2,68193,task2,286671,false,false,206,image-keyboard-response,13
true,2,1,1,2,false,d,false,false,0.0-2.0-0.4-0.39-3.39,0,0,0,90,false,stim,true,1,1584,0,0,0,68193,task2,289776,false,false,209,image-keyboard-response,14
true,2,2,1,2,true,d,false,true,0.0-2.0-0.4-0.40-3.40,0,0,0,68,false,stim,false,1,1321,0,0,0,68193,task2,292612,false,false,212,image-keyboard-response,15
true,2,1,1,1,true,z,false,true,0.0-2.0-0.4-0.41-3.41,0,0,0,90,false,stim,false,2,1302,0,0,2,68193,task2,295444,false,false,215,image-keyboard-response,16
true,2,1,1,1,true,z,false,true,0.0-2.0-0.4-0.42-3.42,0,0,0,90,false,stim,false,2,735,0,0,2,68193,task2,297701,false,false,218,image-keyboard-response,17
true,2,0,1,1,false,z,false,false,0.0-2.0-0.4-0.43-3.43,0,0,0,81,false,stim,true,0,1307,0,0,1,68193,task2,300533,false,false,221,image-keyboard-response,18
true,2,2,1,1,false,z,true,false,0.0-2.0-0.4-0.44-3.44,0,0,0,68,false,stim,false,0,1794,0,0,1,68193,task2,303848,false,false,224,image-keyboard-response,19
true,2,1,1,1,true,z,false,true,0.0-2.0-0.5-0.45-3.45,0,0,0,90,false,stim,false,2,1388,0,0,2,68193,task2,306754,false,false,227,image-keyboard-response,20
true,2,1,1,1,true,z,false,true,0.0-2.0-0.5-0.46-3.46,0,0,0,90,false,stim,false,2,1037,0,0,2,68193,task2,309319,false,false,230,image-keyboard-response,21
true,2,2,1,1,false,z,true,false,0.0-2.0-0.5-0.47-3.47,0,0,0,68,false,stim,false,0,1648,0,0,1,68193,task2,312490,false,false,233,image-keyboard-response,22
true,2,1,1,1,true,z,false,true,0.0-2.0-0.5-0.48-3.48,0,0,0,90,false,stim,false,0,528,0,0,1,68193,task2,314539,false,false,236,image-keyboard-response,23
true,2,1,1,1,true,z,false,true,0.0-2.0-0.5-0.49-3.49,0,0,0,90,false,stim,false,0,506,0,0,1,68193,task2,316579,false,false,239,image-keyboard-response,24
true,2,1,1,2,false,d,false,false,0.0-2.0-0.5-0.50-3.50,0,0,0,90,false,stim,true,1,899,0,0,0,68193,task2,319003,false,false,242,image-keyboard-response,25
true,2,2,1,2,true,d,false,true,0.0-2.0-0.5-0.51-3.51,0,0,0,68,false,stim,false,1,1184,0,0,0,68193,task2,321702,false,false,245,image-keyboard-response,26
true,2,1,1,1,true,z,false,false,0.0-2.0-0.5-0.52-3.52,0,0,0,90,false,stim,false,2,891,0,0,2,68193,task2,324116,false,true,248,image-keyboard-response,27
true,2,1,1,2,false,d,false,false,0.0-2.0-0.5-0.53-3.53,0,0,0,90,false,stim,true,1,917,0,0,0,68193,task2,326560,false,false,251,image-keyboard-response,28
true,2,1,1,1,true,z,false,false,0.0-2.0-0.6-0.54-3.54,0,0,0,90,false,stim,false,0,985,0,0,1,68193,task2,329068,false,true,254,image-keyboard-response,29
true,2,2,1,1,false,z,false,false,0.0-2.0-0.6-0.55-3.55,0,0,0,68,false,stim,true,2,454,0,0,2,68193,task2,331044,false,false,257,image-keyboard-response,30
true,2,0,1,1,false,z,true,false,0.0-2.0-0.6-0.56-3.56,0,0,0,81,false,stim,false,2,1257,0,0,2,68193,task2,333825,false,false,260,image-keyboard-response,31
true,2,2,1,1,false,z,true,false,0.0-2.0-0.6-0.57-3.57,0,0,0,68,false,stim,false,0,75,0,1,1,68193,task2,335423,false,false,263,image-keyboard-response,32
true,2,2,1,2,true,d,false,true,0.0-2.0-0.6-0.58-3.58,0,0,0,68,false,stim,false,1,1982,0,0,0,68193,task2,338930,false,false,266,image-keyboard-response,33
true,2,1,1,1,true,z,false,true,0.0-2.0-0.6-0.59-3.59,0,0,0,90,false,stim,false,0,1202,0,1,1,68193,task2,341655,false,false,269,image-keyboard-response,34
true,2,2,1,1,false,z,false,false,0.0-2.0-0.6-0.60-3.60,0,0,0,68,false,stim,true,2,1106,0,0,2,68193,task2,344283,false,false,272,image-keyboard-response,35
true,2,2,1,2,true,d,false,true,0.0-2.0-0.6-0.61-3.61,0,0,0,68,false,stim,false,1,1077,0,0,0,68193,task2,346890,false,false,275,image-keyboard-response,36
true,3,2,2,1,false,z,false,false,0.0-2.0-0.6-0.62-3.62,0,1,0,68,true,stim,true,2,539,0,0,0,68193,task2,348954,false,false,278,image-keyboard-response,1
true,3,0,2,1,false,z,true,false,0.0-2.0-0.7-0.63-3.63,0,1,0,81,false,stim,false,1,2274,0,1,1,68193,task2,352759,false,false,281,image-keyboard-response,2
true,3,1,2,2,false,d,false,true,0.0-2.0-0.7-0.64-3.64,0,1,0,90,false,stim,true,1,1434,0,0,2,68193,task2,355723,false,true,284,image-keyboard-response,3
true,3,1,2,2,false,d,false,false,0.0-2.0-0.7-0.65-3.65,0,1,0,90,false,stim,true,1,567,0,0,2,68193,task2,357820,false,false,287,image-keyboard-response,4
true,3,0,2,1,false,z,true,false,0.0-2.0-0.7-0.66-3.66,0,1,0,81,false,stim,false,2,1349,0,0,0,68193,task2,360675,false,false,290,image-keyboard-response,5
true,3,2,2,1,false,z,true,false,0.0-2.0-0.7-0.67-3.67,0,1,0,68,false,stim,false,1,1462,0,1,1,68193,task2,363662,false,false,293,image-keyboard-response,6
true,3,1,2,1,true,z,false,true,0.0-2.0-0.7-0.68-3.68,0,1,0,90,false,stim,false,1,1486,0,1,1,68193,task2,366662,false,false,296,image-keyboard-response,7
true,3,0,2,1,false,z,true,false,0.0-2.0-0.7-0.69-3.69,0,1,0,81,false,stim,false,2,1356,0,0,0,68193,task2,369541,false,false,299,image-keyboard-response,8
true,3,2,2,1,false,z,false,true,0.0-2.0-0.7-0.70-3.70,0,1,0,68,false,stim,true,2,1113,0,0,0,68193,task2,372179,false,true,302,image-keyboard-response,9
true,3,0,2,2,false,d,true,false,0.0-2.0-0.7-0.71-3.71,0,1,0,81,false,stim,false,1,1555,0,0,2,68193,task2,375251,false,false,305,image-keyboard-response,10
true,3,1,2,1,true,z,false,true,0.0-2.0-0.8-0.72-3.72,0,1,0,90,false,stim,false,1,1089,0,1,1,68193,task2,377858,false,false,308,image-keyboard-response,11
true,3,2,2,2,true,d,false,true,0.0-2.0-0.8-0.73-3.73,0,1,0,68,false,stim,false,1,754,0,0,2,68193,task2,380127,false,false,311,image-keyboard-response,12
true,3,0,2,1,false,z,true,false,0.0-2.0-0.8-0.74-3.74,0,1,0,81,false,stim,false,2,987,0,0,0,68193,task2,382622,false,false,314,image-keyboard-response,13
true,3,2,2,2,true,d,false,true,0.0-2.0-0.8-0.75-3.75,0,1,0,68,false,stim,false,1,1199,0,0,2,68193,task2,385331,false,false,317,image-keyboard-response,14
true,3,2,2,1,false,z,false,true,0.0-2.0-0.8-0.76-3.76,0,1,0,68,false,stim,true,2,1305,0,0,0,68193,task2,388167,false,true,320,image-keyboard-response,15
true,3,2,2,1,false,z,false,false,0.0-2.0-0.8-0.77-3.77,0,1,0,68,false,stim,true,2,748,0,0,0,68193,task2,390431,false,false,323,image-keyboard-response,16
true,3,1,2,1,true,z,false,true,0.0-2.0-0.8-0.78-3.78,0,1,0,90,false,stim,false,1,1591,0,1,1,68193,task2,393539,false,false,326,image-keyboard-response,17
true,3,2,2,2,true,d,false,true,0.0-2.0-0.8-0.79-3.79,0,1,0,68,false,stim,false,1,1209,0,0,2,68193,task2,396275,false,false,329,image-keyboard-response,18
true,3,1,2,1,true,z,false,true,0.0-2.0-0.8-0.80-3.80,0,1,0,90,false,stim,false,1,1324,0,1,1,68193,task2,399134,false,false,332,image-keyboard-response,19
true,3,1,2,1,true,z,false,true,0.0-2.0-0.9-0.81-3.81,0,1,0,90,false,stim,false,1,1161,0,1,1,68193,task2,401825,false,false,335,image-keyboard-response,20
true,3,0,2,2,false,d,true,false,0.0-2.0-0.9-0.82-3.82,0,1,0,81,false,stim,false,1,1721,0,0,2,68193,task2,405064,false,false,338,image-keyboard-response,21
true,3,1,2,2,false,d,false,false,0.0-2.0-0.9-0.83-3.83,0,1,0,90,false,stim,true,1,2208,0,0,2,68193,task2,408780,false,false,341,image-keyboard-response,22
true,3,2,2,1,false,z,false,true,0.0-2.0-0.9-0.84-3.84,0,1,0,68,false,stim,true,2,1451,0,0,0,68193,task2,411751,false,true,344,image-keyboard-response,23
true,3,1,2,1,true,z,false,true,0.0-2.0-0.9-0.85-3.85,0,1,0,90,false,stim,false,1,670,0,1,1,68193,task2,413946,false,false,347,image-keyboard-response,24
true,3,0,2,1,false,z,true,false,0.0-2.0-0.9-0.86-3.86,0,1,0,81,false,stim,false,2,2575,0,0,0,68193,task2,418048,false,false,350,image-keyboard-response,25
true,3,0,2,2,false,d,true,false,0.0-2.0-0.9-0.87-3.87,0,1,0,81,false,stim,false,1,1546,0,0,2,68193,task2,421112,false,false,353,image-keyboard-response,26
true,3,2,2,1,false,z,false,false,0.0-2.0-0.9-0.88-3.88,0,1,0,68,false,stim,true,2,1634,0,0,0,68193,task2,424258,false,false,356,image-keyboard-response,27
true,3,1,2,1,true,z,false,true,0.0-2.0-0.9-0.89-3.89,0,1,0,90,false,stim,false,1,2449,0,1,1,68193,task2,428222,false,false,359,image-keyboard-response,28
true,3,1,2,1,true,z,false,true,0.0-2.0-0.10-0.90-3.90,0,1,0,90,false,stim,false,2,1740,0,0,0,68193,task2,431494,false,false,362,image-keyboard-response,29
true,3,1,2,1,true,z,false,true,0.0-2.0-0.10-0.91-3.91,0,1,0,90,false,stim,false,2,549,0,0,0,68193,task2,433567,false,false,365,image-keyboard-response,30
true,3,2,2,2,true,d,false,true,0.0-2.0-0.10-0.92-3.92,0,1,0,68,false,stim,false,1,2327,0,0,2,68193,task2,437414,false,false,368,image-keyboard-response,31
true,3,1,2,1,true,z,false,true,0.0-2.0-0.10-0.93-3.93,0,1,0,90,false,stim,false,1,1064,0,1,1,68193,task2,440004,false,false,371,image-keyboard-response,32
true,3,2,2,2,true,d,false,true,0.0-2.0-0.10-0.94-3.94,0,1,0,68,false,stim,false,1,1083,0,0,2,68193,task2,442595,false,false,374,image-keyboard-response,33
true,3,0,2,1,false,z,true,false,0.0-2.0-0.10-0.95-3.95,0,1,0,81,false,stim,false,2,1597,0,0,0,68193,task2,445718,false,false,377,image-keyboard-response,34
true,4,1,2,1,true,z,false,true,0.0-2.0-0.10-0.96-3.96,0,1,0,90,true,stim,false,1,2109,0,1,1,68193,task2,449344,false,false,380,image-keyboard-response,1
true,4,2,2,1,false,z,true,false,0.0-2.0-0.10-0.97-3.97,0,1,0,68,false,stim,false,1,1885,0,1,1,68193,task2,452757,false,false,383,image-keyboard-response,2
true,4,2,2,1,false,z,false,false,0.0-2.0-0.10-0.98-3.98,0,1,0,68,false,stim,true,2,1300,0,0,2,68193,task2,455592,false,false,386,image-keyboard-response,3
true,4,0,2,0,true,q,false,true,0.0-2.0-0.11-0.99-3.99,0,1,0,81,false,stim,false,1,2254,0,0,0,68193,task2,459371,false,false,389,image-keyboard-response,4
true,4,2,2,1,false,z,false,false,0.0-2.0-0.11-0.100-3.100,0,1,0,68,false,stim,true,2,2476,0,0,2,68193,task2,463367,false,false,392,image-keyboard-response,5
true,4,1,2,1,true,z,false,true,0.0-2.0-0.11-0.101-3.101,0,1,0,90,false,stim,false,2,1758,0,0,2,68193,task2,466638,false,false,395,image-keyboard-response,6
true,4,1,2,1,true,z,false,true,0.0-2.0-0.11-0.102-3.102,0,1,0,90,false,stim,false,2,660,0,0,2,68193,task2,468823,false,false,398,image-keyboard-response,7
true,4,1,2,1,true,z,false,true,0.0-2.0-0.11-0.103-3.103,0,1,0,90,false,stim,false,1,768,0,1,1,68193,task2,471120,false,false,401,image-keyboard-response,8
true,4,0,2,0,true,q,false,false,0.0-2.0-0.11-0.104-3.104,0,1,0,81,false,stim,false,1,1145,0,0,0,68193,task2,473797,false,true,404,image-keyboard-response,9
true,4,1,2,1,true,z,false,true,0.0-2.0-0.11-0.105-3.105,0,1,0,90,false,stim,false,1,1235,0,1,1,68193,task2,476555,false,false,407,image-keyboard-response,10
true,4,1,2,1,true,z,false,true,0.0-2.0-0.11-0.106-3.106,0,1,0,90,false,stim,false,1,578,0,1,1,68193,task2,478664,false,false,410,image-keyboard-response,11
true,4,1,2,0,false,q,false,false,0.0-2.0-0.11-0.107-3.107,0,1,0,90,false,stim,true,1,990,0,0,0,68193,task2,481173,false,false,413,image-keyboard-response,12
true,4,2,2,1,false,z,true,false,0.0-2.0-0.12-0.108-3.108,0,1,0,68,false,stim,false,1,1546,0,1,1,68193,task2,484253,false,false,416,image-keyboard-response,13
true,4,0,2,0,true,q,false,false,0.0-2.0-0.12-0.109-3.109,0,1,0,81,false,stim,false,1,1632,0,0,0,68193,task2,487407,false,true,419,image-keyboard-response,14
true,4,1,2,1,true,z,false,true,0.0-2.0-0.12-0.110-3.110,0,1,0,90,false,stim,false,2,1498,0,0,2,68193,task2,490428,false,false,422,image-keyboard-response,15
true,4,1,2,0,false,q,false,false,0.0-2.0-0.12-0.111-3.111,0,1,0,90,false,stim,true,1,1122,0,0,0,68193,task2,493071,false,false,425,image-keyboard-response,16
true,4,2,2,1,false,z,false,true,0.0-2.0-0.12-0.112-3.112,0,1,0,68,false,stim,true,2,1792,0,0,2,68193,task2,496386,false,true,428,image-keyboard-response,17
true,4,2,2,1,false,z,true,false,0.0-2.0-0.12-0.113-3.113,0,1,0,68,false,stim,false,1,928,0,1,1,68193,task2,498822,false,false,431,image-keyboard-response,18
true,4,0,2,1,false,z,true,false,0.0-2.0-0.12-0.114-3.114,0,1,0,81,false,stim,false,1,1444,0,1,1,68193,task2,501795,false,false,434,image-keyboard-response,19
true,4,1,2,1,true,z,false,true,0.0-2.0-0.12-0.115-3.115,0,1,0,90,false,stim,false,2,1251,0,0,2,68193,task2,504573,false,false,437,image-keyboard-response,20
true,4,1,2,0,false,q,false,true,0.0-2.0-0.12-0.116-3.116,0,1,0,90,false,stim,true,1,733,0,0,0,68193,task2,506827,false,true,440,image-keyboard-response,21
true,4,1,2,0,false,q,false,false,0.0-2.0-0.13-0.117-3.117,0,1,0,90,false,stim,true,1,608,0,0,0,68193,task2,508956,false,false,443,image-keyboard-response,22
true,4,0,2,1,false,z,true,false,0.0-2.0-0.13-0.118-3.118,0,1,0,81,false,stim,false,2,1672,0,0,2,68193,task2,512148,false,false,446,image-keyboard-response,23
true,4,0,2,1,false,z,true,false,0.0-2.0-0.13-0.119-3.119,0,1,0,81,false,stim,false,1,1996,0,1,1,68193,task2,515673,false,false,449,image-keyboard-response,24
true,4,2,2,1,false,z,false,true,0.0-2.0-0.13-0.120-3.120,0,1,0,68,false,stim,true,2,1465,0,0,2,68193,task2,518658,false,true,452,image-keyboard-response,25
true,4,0,2,1,false,z,true,true,0.0-2.0-0.13-0.121-3.121,0,1,0,81,false,stim,false,1,1811,0,1,1,68193,task2,521982,false,true,455,image-keyboard-response,26
true,4,0,2,0,true,q,false,false,0.0-2.0-0.13-0.122-3.122,0,1,0,81,false,stim,false,1,661,0,0,0,68193,task2,524164,false,true,458,image-keyboard-response,27
true,4,1,2,1,true,z,false,true,0.0-2.0-0.13-0.123-3.123,0,1,0,90,false,stim,false,1,1859,0,1,1,68193,task2,527548,false,false,461,image-keyboard-response,28
true,4,2,2,1,false,z,false,false,0.0-2.0-0.13-0.124-3.124,0,1,0,68,false,stim,true,2,1586,0,0,2,68193,task2,530668,false,false,464,image-keyboard-response,29
true,4,0,2,0,true,q,false,true,0.0-2.0-0.13-0.125-3.125,0,1,0,81,false,stim,false,1,1578,0,0,0,68193,task2,533770,false,false,467,image-keyboard-response,30
true,4,0,2,0,true,q,false,true,0.0-2.0-0.14-0.126-3.126,0,1,0,81,false,stim,false,1,799,0,0,0,68193,task2,536088,false,false,470,image-keyboard-response,31
true,4,2,2,1,false,z,false,false,0.0-2.0-0.14-0.127-3.127,0,1,0,68,false,stim,true,2,1574,0,0,2,68193,task2,539189,false,false,473,image-keyboard-response,32
true,4,2,2,1,false,z,false,false,0.0-2.0-0.14-0.128-3.128,0,1,0,68,false,stim,true,2,1806,0,0,2,68193,task2,542506,false,false,476,image-keyboard-response,33
true,4,0,2,0,true,q,false,true,0.0-2.0-0.14-0.129-3.129,0,1,0,81,false,stim,false,1,1735,0,0,0,68193,task2,545759,false,false,479,image-keyboard-response,34
true,5,1,1,2,false,d,false,false,0.0-2.0-0.14-0.130-3.130,0,0,0,90,true,stim,true,1,1259,0,0,1,68193,task2,548541,false,false,482,image-keyboard-response,1
true,5,0,1,2,false,d,true,false,0.0-2.0-0.14-0.131-3.131,0,0,0,81,false,stim,false,1,792,0,0,1,68193,task2,550869,false,false,485,image-keyboard-response,2
true,5,2,1,2,true,d,false,true,0.0-2.0-0.14-0.132-3.132,0,0,0,68,false,stim,false,1,1282,0,0,1,68193,task2,553671,false,false,488,image-keyboard-response,3
true,5,0,1,1,false,z,false,false,0.0-2.0-0.14-0.133-3.133,0,0,0,81,false,stim,true,0,2479,0,0,0,68193,task2,557669,false,false,491,image-keyboard-response,4
true,5,1,1,2,false,d,false,true,0.0-2.0-0.14-0.134-3.134,0,0,0,90,false,stim,true,1,1552,0,0,2,68193,task2,560742,false,true,494,image-keyboard-response,5
true,5,1,1,2,false,d,false,false,0.0-2.0-0.15-0.135-3.135,0,0,0,90,false,stim,true,1,736,0,0,2,68193,task2,562989,false,false,497,image-keyboard-response,6
true,5,2,1,1,false,z,true,false,0.0-2.0-0.15-0.136-3.136,0,0,0,68,false,stim,false,0,1057,0,0,0,68193,task2,565580,false,false,500,image-keyboard-response,7
true,5,2,1,2,true,d,false,true,0.0-2.0-0.15-0.137-3.137,0,0,0,68,false,stim,false,1,953,0,0,2,68193,task2,568052,false,false,503,image-keyboard-response,8
true,5,2,1,2,true,d,false,true,0.0-2.0-0.15-0.138-3.138,0,0,0,68,false,stim,false,1,475,0,0,1,68193,task2,570051,false,false,506,image-keyboard-response,9
true,5,2,1,2,true,d,false,true,0.0-2.0-0.15-0.139-3.139,0,0,0,68,false,stim,false,1,1217,0,0,1,68193,task2,572780,false,false,509,image-keyboard-response,10
true,5,2,1,1,false,z,true,false,0.0-2.0-0.15-0.140-3.140,0,0,0,68,false,stim,false,0,902,0,0,0,68193,task2,575204,false,false,512,image-keyboard-response,11
true,5,2,1,2,true,d,false,true,0.0-2.0-0.15-0.141-3.141,0,0,0,68,false,stim,false,1,746,0,0,2,68193,task2,577459,false,false,515,image-keyboard-response,12
true,5,0,1,1,false,z,false,false,0.0-2.0-0.15-0.142-3.142,0,0,0,81,false,stim,true,0,1136,0,0,0,68193,task2,580105,false,false,518,image-keyboard-response,13
true,5,2,1,2,true,d,false,true,0.0-2.0-0.15-0.143-3.143,0,0,0,68,false,stim,false,1,1605,0,0,1,68193,task2,583233,false,false,521,image-keyboard-response,14
true,5,2,1,2,true,d,false,true,0.0-2.0-0.16-0.144-3.144,0,0,0,68,false,stim,false,1,666,0,0,1,68193,task2,585431,false,false,524,image-keyboard-response,15
true,5,2,1,2,true,d,false,true,0.0-2.0-0.16-0.145-3.145,0,0,0,68,false,stim,false,1,636,0,0,1,68193,task2,587578,false,false,527,image-keyboard-response,16
true,5,1,1,1,true,z,false,true,0.0-2.0-0.16-0.146-3.146,0,0,0,90,false,stim,false,0,1743,0,0,0,68193,task2,590846,false,false,530,image-keyboard-response,17
true,5,1,1,1,true,z,false,true,0.0-2.0-0.16-0.147-3.147,0,0,0,90,false,stim,false,0,1019,0,0,0,68193,task2,593378,false,false,533,image-keyboard-response,18
true,5,2,1,2,true,d,false,true,0.0-2.0-0.16-0.148-3.148,0,0,0,68,false,stim,false,1,1215,0,0,1,68193,task2,596104,false,false,536,image-keyboard-response,19
true,5,0,1,2,false,d,true,true,0.0-2.0-0.16-0.149-3.149,0,0,0,81,false,stim,false,1,1440,0,0,2,68193,task2,599076,false,true,539,image-keyboard-response,20
true,5,0,1,2,false,d,true,false,0.0-2.0-0.16-0.150-3.150,0,0,0,81,false,stim,false,1,841,0,0,2,68193,task2,601428,false,false,542,image-keyboard-response,21
true,5,1,1,2,false,d,false,false,0.0-2.0-0.16-0.151-3.151,0,0,0,90,false,stim,true,1,976,0,0,2,68193,task2,603925,false,false,545,image-keyboard-response,22
true,5,1,1,1,true,z,false,true,0.0-2.0-0.16-0.152-3.152,0,0,0,90,false,stim,false,0,2037,0,0,0,68193,task2,607493,false,false,548,image-keyboard-response,23
true,5,1,1,1,true,z,false,true,0.0-2.0-0.17-0.153-3.153,0,0,0,90,false,stim,false,0,763,0,0,0,68193,task2,609786,false,false,551,image-keyboard-response,24
true,5,1,1,2,false,d,false,false,0.0-2.0-0.17-0.154-3.154,0,0,0,90,false,stim,true,1,1878,0,0,1,68193,task2,613196,false,false,554,image-keyboard-response,25
true,5,2,1,2,true,d,false,true,0.0-2.0-0.17-0.155-3.155,0,0,0,68,false,stim,false,1,1328,0,0,1,68193,task2,616054,false,false,557,image-keyboard-response,26
true,5,1,1,2,false,d,false,false,0.0-2.0-0.17-0.156-3.156,0,0,0,90,false,stim,true,1,1607,0,0,2,68193,task2,619189,false,false,560,image-keyboard-response,27
true,5,1,1,1,true,z,false,true,0.0-2.0-0.17-0.157-3.157,0,0,0,90,false,stim,false,0,2392,0,0,0,68193,task2,623105,false,false,563,image-keyboard-response,28
true,5,2,1,2,true,d,false,true,0.0-2.0-0.17-0.158-3.158,0,0,0,68,false,stim,false,1,980,0,0,2,68193,task2,625610,false,false,566,image-keyboard-response,29
true,5,2,1,1,false,z,true,false,0.0-2.0-0.17-0.159-3.159,0,0,0,68,false,stim,false,0,2206,0,0,0,68193,task2,629349,false,false,569,image-keyboard-response,30
true,5,2,1,2,true,d,false,true,0.0-2.0-0.17-0.160-3.160,0,0,0,68,false,stim,false,1,570,0,0,2,68193,task2,631437,false,false,572,image-keyboard-response,31
true,5,2,1,2,true,d,false,true,0.0-2.0-0.17-0.161-3.161,0,0,0,68,false,stim,false,1,849,0,0,1,68193,task2,633818,false,false,575,image-keyboard-response,32
true,5,2,1,2,true,d,false,true,0.0-2.0-0.18-0.162-3.162,0,0,0,68,false,stim,false,1,734,0,0,2,68193,task2,636083,false,false,578,image-keyboard-response,33
true,5,2,1,2,true,d,false,true,0.0-2.0-0.18-0.163-3.163,0,0,0,68,false,stim,false,1,822,0,0,1,68193,task2,638437,false,false,581,image-keyboard-response,34
true,5,2,1,1,false,z,true,false,0.0-2.0-0.18-0.164-3.164,0,0,0,68,false,stim,false,0,741,0,0,0,68193,task2,640702,false,false,584,image-keyboard-response,35
true,5,1,1,2,false,d,false,false,0.0-2.0-0.18-0.165-3.165,0,0,0,90,false,stim,true,1,889,0,0,2,68193,task2,643114,false,false,587,image-keyboard-response,36
true,5,2,1,2,true,d,false,true,0.0-2.0-0.18-0.166-3.166,0,0,0,68,false,stim,false,1,479,0,0,1,68193,task2,645123,false,false,590,image-keyboard-response,37
true,6,1,1,2,false,d,false,false,0.0-2.0-0.18-0.167-3.167,0,0,0,90,true,stim,true,1,1948,0,0,0,68193,task2,648599,false,false,593,image-keyboard-response,1
true,6,2,1,0,false,q,false,false,0.0-2.0-0.18-0.168-3.168,0,0,0,68,false,stim,true,2,893,0,0,2,68193,task2,651005,false,false,596,image-keyboard-response,2
true,6,2,1,0,false,q,false,false,0.0-2.0-0.18-0.169-3.169,0,0,0,68,false,stim,true,2,1229,0,0,1,68193,task2,653764,false,false,599,image-keyboard-response,3
true,6,0,1,2,false,d,true,false,0.0-2.0-0.18-0.170-3.170,0,0,0,81,false,stim,false,1,1067,0,0,0,68193,task2,656370,false,false,602,image-keyboard-response,4
true,6,1,1,2,false,d,false,true,0.0-2.0-0.19-0.171-3.171,0,0,0,90,false,stim,true,1,2743,0,0,0,68193,task2,660639,false,true,605,image-keyboard-response,5
true,6,1,1,2,false,d,false,false,0.0-2.0-0.19-0.172-3.172,0,0,0,90,false,stim,true,1,537,0,0,0,68193,task2,662703,false,false,608,image-keyboard-response,6
true,6,2,1,0,false,q,false,false,0.0-2.0-0.19-0.173-3.173,0,0,0,68,false,stim,true,2,1651,0,0,2,68193,task2,665866,false,false,611,image-keyboard-response,7
true,6,0,1,0,true,q,false,true,0.0-2.0-0.19-0.174-3.174,0,0,0,81,false,stim,false,2,1143,0,0,2,68193,task2,668522,false,false,614,image-keyboard-response,8
true,6,1,1,2,false,d,false,false,0.0-2.0-0.19-0.175-3.175,0,0,0,90,false,stim,true,1,1883,0,0,0,68193,task2,671933,false,false,617,image-keyboard-response,9
true,6,2,1,0,false,q,false,true,0.0-2.0-0.19-0.176-3.176,0,0,0,68,false,stim,true,2,1122,0,0,1,68193,task2,674572,false,true,620,image-keyboard-response,10
true,6,0,1,0,true,q,false,false,0.0-2.0-0.19-0.177-3.177,0,0,0,81,false,stim,false,2,1183,0,0,2,68193,task2,677280,false,true,623,image-keyboard-response,11
true,6,2,1,0,false,q,false,false,0.0-2.0-0.19-0.178-3.178,0,0,0,68,false,stim,true,2,928,0,0,1,68193,task2,679733,false,false,626,image-keyboard-response,12
true,6,1,1,0,false,q,true,false,0.0-2.0-0.19-0.179-3.179,0,0,0,90,false,stim,false,2,1225,0,0,1,68193,task2,682475,false,false,629,image-keyboard-response,13
true,6,0,1,0,true,q,false,true,0.0-2.0-0.20-0.180-3.180,0,0,0,81,false,stim,false,2,587,0,0,1,68193,task2,684590,false,false,632,image-keyboard-response,14
true,6,1,1,0,false,q,true,false,0.0-2.0-0.20-0.181-3.181,0,0,0,90,false,stim,false,2,1475,0,0,2,68193,task2,687587,false,false,635,image-keyboard-response,15
true,6,0,1,2,false,d,true,true,0.0-2.0-0.20-0.182-3.182,0,0,0,81,false,stim,false,1,1168,0,0,0,68193,task2,690278,false,true,638,image-keyboard-response,16
true,6,2,1,0,false,q,false,false,0.0-2.0-0.20-0.183-3.183,0,0,0,68,false,stim,true,2,1867,0,0,2,68193,task2,693666,false,false,641,image-keyboard-response,17
true,6,0,1,0,true,q,false,true,0.0-2.0-0.20-0.184-3.184,0,0,0,81,false,stim,false,2,702,0,0,1,68193,task2,695888,false,false,644,image-keyboard-response,18
true,6,0,1,2,false,d,true,false,0.0-2.0-0.20-0.185-3.185,0,0,0,81,false,stim,false,1,398,0,0,0,68193,task2,697799,false,false,647,image-keyboard-response,19
true,6,0,1,2,false,d,true,false,0.0-2.0-0.20-0.186-3.186,0,0,0,81,false,stim,false,1,590,0,0,0,68193,task2,699915,false,false,650,image-keyboard-response,20
true,6,0,1,0,true,q,false,true,0.0-2.0-0.20-0.187-3.187,0,0,0,81,false,stim,false,2,856,0,0,1,68193,task2,702300,false,false,653,image-keyboard-response,21
true,6,2,1,0,false,q,false,false,0.0-2.0-0.20-0.188-3.188,0,0,0,68,false,stim,true,2,1596,0,0,2,68193,task2,705423,false,false,656,image-keyboard-response,22
true,6,1,1,0,false,q,true,false,0.0-2.0-0.21-0.189-3.189,0,0,0,90,false,stim,false,2,2211,0,0,2,68193,task2,709144,false,false,659,image-keyboard-response,23
false,6,-1,1,2,false,d,true,false,0.0-2.0-0.21-0.190-3.190,0,0,0,,false,stim,false,1,,0,0,0,68193,task2,713661,false,false,662,image-keyboard-response,24
true,6,0,1,0,true,q,false,true,0.0-2.0-0.21-0.191-3.191,0,0,0,81,false,stim,false,2,848,0,0,2,68193,task2,716034,false,false,665,image-keyboard-response,25
true,6,0,1,0,true,q,false,true,0.0-2.0-0.21-0.192-3.192,0,0,0,81,false,stim,false,2,518,0,0,1,68193,task2,718072,false,false,668,image-keyboard-response,26
true,6,0,1,0,true,q,false,true,0.0-2.0-0.21-0.193-3.193,0,0,0,81,false,stim,false,2,489,0,0,1,68193,task2,720087,false,false,671,image-keyboard-response,27
true,6,0,1,0,true,q,false,true,0.0-2.0-0.21-0.194-3.194,0,0,0,81,false,stim,false,2,383,0,0,1,68193,task2,721983,false,false,674,image-keyboard-response,28
true,6,0,1,0,true,q,false,true,0.0-2.0-0.21-0.195-3.195,0,0,0,81,false,stim,false,2,920,0,0,2,68193,task2,724430,false,false,677,image-keyboard-response,29
true,6,2,1,2,true,d,false,true,0.0-2.0-0.21-0.196-3.196,0,0,0,68,false,stim,false,1,1944,0,0,0,68193,task2,727908,false,false,680,image-keyboard-response,30
true,6,2,1,2,true,d,false,true,0.0-2.0-0.21-0.197-3.197,0,0,0,68,false,stim,false,1,1145,0,0,0,68193,task2,730576,false,false,683,image-keyboard-response,31
true,6,0,1,0,true,q,false,true,0.0-2.0-0.22-0.198-3.198,0,0,0,81,false,stim,false,2,760,0,1,1,68193,task2,732868,false,false,686,image-keyboard-response,32
true,6,2,1,2,true,d,false,true,0.0-2.0-0.22-0.199-3.199,0,0,0,68,false,stim,false,1,1364,0,0,0,68193,task2,735764,false,false,689,image-keyboard-response,33
true,6,0,1,0,true,q,false,true,0.0-2.0-0.22-0.200-3.200,0,0,0,81,false,stim,false,2,1133,0,0,2,68193,task2,738420,false,false,692,image-keyboard-response,34
true,6,0,1,0,true,q,false,true,0.0-2.0-0.22-0.201-3.201,0,0,0,81,false,stim,false,2,752,0,1,1,68193,task2,740689,false,false,695,image-keyboard-response,35
true,7,0,2,2,false,d,false,false,0.0-2.0-0.22-0.202-3.202,0,1,0,81,true,stim,true,0,728,0,0,2,68193,task2,742938,false,false,698,image-keyboard-response,1
true,7,0,2,0,true,q,false,true,0.0-2.0-0.22-0.203-3.203,0,1,0,81,false,stim,false,0,618,0,1,1,68193,task2,745088,false,false,701,image-keyboard-response,2
true,7,2,2,0,false,q,false,false,0.0-2.0-0.22-0.204-3.204,0,1,0,68,false,stim,true,2,1250,0,0,0,68193,task2,747867,false,false,704,image-keyboard-response,3
true,7,1,2,0,false,q,true,false,0.0-2.0-0.22-0.205-3.205,0,1,0,90,false,stim,false,2,671,0,0,0,68193,task2,750063,false,false,707,image-keyboard-response,4
true,7,2,2,2,true,d,false,true,0.0-2.0-0.22-0.206-3.206,0,1,0,68,false,stim,false,0,1364,0,0,2,68193,task2,752959,false,false,710,image-keyboard-response,5
true,7,2,2,2,true,d,false,false,0.0-2.0-0.23-0.207-3.207,0,1,0,68,false,stim,false,0,1156,0,0,2,68193,task2,755649,false,true,713,image-keyboard-response,6
true,7,0,2,0,true,q,false,true,0.0-2.0-0.23-0.208-3.208,0,1,0,81,false,stim,false,0,1548,0,1,1,68193,task2,758728,false,false,716,image-keyboard-response,7
true,7,1,2,2,false,d,true,false,0.0-2.0-0.23-0.209-3.209,0,1,0,90,false,stim,false,0,1588,0,0,2,68193,task2,761845,false,false,719,image-keyboard-response,8
true,7,1,2,0,false,q,true,false,0.0-2.0-0.23-0.210-3.210,0,1,0,90,false,stim,false,2,1132,0,0,0,68193,task2,764495,false,false,722,image-keyboard-response,9
true,7,0,2,0,true,q,false,false,0.0-2.0-0.23-0.211-3.211,0,1,0,81,false,stim,false,0,432,0,1,1,68193,task2,766458,false,true,725,image-keyboard-response,10
true,7,1,2,0,false,q,true,false,0.0-2.0-0.23-0.212-3.212,0,1,0,90,false,stim,false,2,565,0,0,0,68193,task2,768548,false,false,728,image-keyboard-response,11
true,7,0,2,0,true,q,false,true,0.0-2.0-0.23-0.213-3.213,0,1,0,81,false,stim,false,2,1766,0,0,0,68193,task2,771835,false,false,731,image-keyboard-response,12
true,7,0,2,0,true,q,false,true,0.0-2.0-0.23-0.214-3.214,0,1,0,81,false,stim,false,0,761,0,1,1,68193,task2,774125,false,false,734,image-keyboard-response,13
true,7,0,2,2,false,d,false,false,0.0-2.0-0.23-0.215-3.215,0,1,0,81,false,stim,true,0,1743,0,0,2,68193,task2,777392,false,false,737,image-keyboard-response,14
true,7,1,2,0,false,q,true,false,0.0-2.0-0.24-0.216-3.216,0,1,0,90,false,stim,false,2,2034,0,0,0,68193,task2,780949,false,false,740,image-keyboard-response,15
true,7,2,2,2,true,d,false,true,0.0-2.0-0.24-0.217-3.217,0,1,0,68,false,stim,false,0,1496,0,0,2,68193,task2,783963,false,false,743,image-keyboard-response,16
true,7,2,2,0,false,q,false,false,0.0-2.0-0.24-0.218-3.218,0,1,0,68,false,stim,true,2,1864,0,0,0,68193,task2,787353,false,false,746,image-keyboard-response,17
true,7,0,2,0,true,q,false,true,0.0-2.0-0.24-0.219-3.219,0,1,0,81,false,stim,false,2,1515,0,0,0,68193,task2,790392,false,false,749,image-keyboard-response,18
true,7,1,2,2,false,d,true,false,0.0-2.0-0.24-0.220-3.220,0,1,0,90,false,stim,false,0,1813,0,0,2,68193,task2,793740,false,false,752,image-keyboard-response,19
true,7,0,2,0,true,q,false,true,0.0-2.0-0.24-0.221-3.221,0,1,0,81,false,stim,false,0,2338,0,1,1,68193,task2,797614,false,false,755,image-keyboard-response,20
true,7,0,2,0,true,q,false,false,0.0-2.0-0.24-0.222-3.222,0,1,0,81,false,stim,false,0,507,0,1,1,68193,task2,799650,false,true,758,image-keyboard-response,21
true,7,1,2,0,false,q,true,true,0.0-2.0-0.24-0.223-3.223,0,1,0,90,false,stim,false,0,1303,0,1,1,68193,task2,802479,false,true,761,image-keyboard-response,22
true,7,1,2,2,false,d,true,false,0.0-2.0-0.24-0.224-3.224,0,1,0,90,false,stim,false,0,1609,0,0,2,68193,task2,805617,false,false,764,image-keyboard-response,23
true,7,2,2,0,false,q,true,false,0.0-2.0-0.25-0.225-3.225,0,1,0,68,false,stim,false,0,1863,0,1,1,68193,task2,808996,false,false,767,image-keyboard-response,24
true,7,0,2,0,true,q,false,true,0.0-2.0-0.25-0.226-3.226,0,1,0,81,false,stim,false,2,1736,0,0,0,68193,task2,812260,false,false,770,image-keyboard-response,25
true,7,2,2,2,true,d,false,true,0.0-2.0-0.25-0.227-3.227,0,1,0,68,false,stim,false,0,2375,0,0,2,68193,task2,816160,false,false,773,image-keyboard-response,26
true,7,0,2,0,true,q,false,true,0.0-2.0-0.25-0.228-3.228,0,1,0,81,false,stim,false,2,1024,0,0,0,68193,task2,818710,false,false,776,image-keyboard-response,27
true,7,1,2,0,false,q,true,false,0.0-2.0-0.25-0.229-3.229,0,1,0,90,false,stim,false,2,2110,0,0,0,68193,task2,822341,false,false,779,image-keyboard-response,28
true,7,0,2,0,true,q,false,true,0.0-2.0-0.25-0.230-3.230,0,1,0,81,false,stim,false,0,1133,0,0,1,68193,task2,824985,false,false,782,image-keyboard-response,29
true,7,0,2,0,true,q,false,true,0.0-2.0-0.25-0.231-3.231,0,1,0,81,false,stim,false,0,958,0,0,1,68193,task2,827473,false,false,785,image-keyboard-response,30
true,7,2,2,2,true,d,false,true,0.0-2.0-0.25-0.232-3.232,0,1,0,68,false,stim,false,0,1936,0,0,2,68193,task2,830924,false,false,788,image-keyboard-response,31
true,8,2,1,0,false,q,false,false,0.0-2.0-0.25-0.233-3.233,0,0,0,68,true,stim,true,2,1879,0,0,2,68193,task2,834324,false,false,791,image-keyboard-response,1
true,8,1,1,0,false,q,true,false,0.0-2.0-0.26-0.234-3.234,0,0,0,90,false,stim,false,2,1055,0,0,2,68193,task2,836906,false,false,794,image-keyboard-response,2
true,8,0,1,2,false,d,false,false,0.0-2.0-0.26-0.235-3.235,0,0,0,81,false,stim,true,0,1027,0,0,0,68193,task2,839468,false,false,797,image-keyboard-response,3
true,8,0,1,0,true,q,false,true,0.0-2.0-0.26-0.236-3.236,0,0,0,81,false,stim,false,2,958,0,0,2,68193,task2,841957,false,false,800,image-keyboard-response,4
true,8,1,1,2,false,d,true,false,0.0-2.0-0.26-0.237-3.237,0,0,0,90,false,stim,false,0,1506,0,0,1,68193,task2,845009,false,false,803,image-keyboard-response,5
true,8,0,1,2,false,d,false,false,0.0-2.0-0.26-0.238-3.238,0,0,0,81,false,stim,true,0,555,0,0,1,68193,task2,847085,false,false,806,image-keyboard-response,6
true,8,0,1,0,true,q,false,false,0.0-2.0-0.26-0.239-3.239,0,0,0,81,false,stim,false,2,1364,0,0,2,68193,task2,849977,false,true,809,image-keyboard-response,7
true,8,2,1,2,true,d,false,true,0.0-2.0-0.26-0.240-3.240,0,0,0,68,false,stim,false,0,1732,0,0,0,68193,task2,853223,false,false,812,image-keyboard-response,8
true,8,2,1,2,true,d,false,true,0.0-2.0-0.26-0.241-3.241,0,0,0,68,false,stim,false,0,2404,0,0,1,68193,task2,857148,false,false,815,image-keyboard-response,9
true,8,0,1,2,false,d,false,false,0.0-2.0-0.26-0.242-3.242,0,0,0,81,false,stim,true,0,2088,0,0,0,68193,task2,860767,false,false,818,image-keyboard-response,10
true,8,2,1,2,true,d,false,true,0.0-2.0-0.27-0.243-3.243,0,0,0,68,false,stim,false,0,1168,0,0,1,68193,task2,863463,false,false,821,image-keyboard-response,11
true,8,2,1,2,true,d,false,true,0.0-2.0-0.27-0.244-3.244,0,0,0,68,false,stim,false,0,575,0,0,1,68193,task2,865559,false,false,824,image-keyboard-response,12
true,8,2,1,0,false,q,false,false,0.0-2.0-0.27-0.245-3.245,0,0,0,68,false,stim,true,2,501,0,0,2,68193,task2,867590,false,false,827,image-keyboard-response,13
true,8,1,1,2,false,d,true,false,0.0-2.0-0.27-0.246-3.246,0,0,0,90,false,stim,false,0,1920,0,0,0,68193,task2,871028,false,false,830,image-keyboard-response,14
true,8,2,1,2,true,d,false,true,0.0-2.0-0.27-0.247-3.247,0,0,0,68,false,stim,false,0,743,0,0,1,68193,task2,873288,false,false,833,image-keyboard-response,15
true,8,2,1,2,true,d,false,true,0.0-2.0-0.27-0.248-3.248,0,0,0,68,false,stim,false,0,544,0,0,0,68193,task2,875363,false,false,836,image-keyboard-response,16
true,8,2,1,2,true,d,false,true,0.0-2.0-0.27-0.249-3.249,0,0,0,68,false,stim,false,0,379,0,0,0,68193,task2,877268,false,false,839,image-keyboard-response,17
true,8,2,1,0,false,q,false,false,0.0-2.0-0.27-0.250-3.250,0,0,0,68,false,stim,true,2,556,0,0,2,68193,task2,879352,false,false,842,image-keyboard-response,18
true,8,1,1,0,false,q,true,false,0.0-2.0-0.27-0.251-3.251,0,0,0,90,false,stim,false,2,1235,0,0,2,68193,task2,882116,false,false,845,image-keyboard-response,19
true,8,2,1,2,true,d,false,true,0.0-2.0-0.28-0.252-3.252,0,0,0,68,false,stim,false,0,1490,0,0,1,68193,task2,885127,false,false,848,image-keyboard-response,20
true,8,0,1,0,true,q,false,true,0.0-2.0-0.28-0.253-3.253,0,0,0,81,false,stim,false,2,1016,0,0,2,68193,task2,887667,false,false,851,image-keyboard-response,21
true,8,2,1,2,true,d,false,true,0.0-2.0-0.28-0.254-3.254,0,0,0,68,false,stim,false,0,1222,0,0,0,68193,task2,890421,false,false,854,image-keyboard-response,22
true,8,0,1,2,false,d,false,false,0.0-2.0-0.28-0.255-3.255,0,0,0,81,false,stim,true,0,1458,0,0,0,68193,task2,893391,false,false,857,image-keyboard-response,23
true,8,2,1,2,true,d,false,true,0.0-2.0-0.28-0.256-3.256,0,0,0,68,false,stim,false,0,1409,0,0,1,68193,task2,896313,false,false,860,image-keyboard-response,24
true,8,2,1,0,false,q,false,false,0.0-2.0-0.28-0.257-3.257,0,0,0,68,false,stim,true,2,975,0,0,2,68193,task2,898821,false,false,863,image-keyboard-response,25
true,8,1,1,2,false,d,true,false,0.0-2.0-0.28-0.258-3.258,0,0,0,90,false,stim,false,0,1619,0,0,0,68193,task2,901951,false,false,866,image-keyboard-response,26
true,8,0,1,0,true,q,false,true,0.0-2.0-0.28-0.259-3.259,0,0,0,81,false,stim,false,2,1036,0,0,2,68193,task2,904516,false,false,869,image-keyboard-response,27
true,8,0,1,2,false,d,false,false,0.0-2.0-0.28-0.260-3.260,0,0,0,81,false,stim,true,0,1043,0,0,1,68193,task2,907079,false,false,872,image-keyboard-response,28
true,8,1,1,2,false,d,true,false,0.0-2.0-0.29-0.261-3.261,0,0,0,90,false,stim,false,0,2102,0,0,1,68193,task2,910700,false,false,875,image-keyboard-response,29
true,8,0,1,0,true,q,false,true,0.0-2.0-0.29-0.262-3.262,0,0,0,81,false,stim,false,2,1816,0,0,2,68193,task2,914025,false,false,878,image-keyboard-response,30
true,8,0,1,0,true,q,false,true,0.0-2.0-0.29-0.263-3.263,0,0,0,81,false,stim,false,2,1790,0,0,2,68193,task2,917337,false,false,881,image-keyboard-response,31
true,8,0,1,0,true,q,false,true,0.0-2.0-0.29-0.264-3.264,0,0,0,81,false,stim,false,2,877,0,0,2,68193,task2,919737,false,false,884,image-keyboard-response,32
true,8,2,1,2,true,d,false,true,0.0-2.0-0.29-0.265-3.265,0,0,0,68,false,stim,false,0,2354,0,0,1,68193,task2,923613,false,false,887,image-keyboard-response,33
true,8,2,1,2,true,d,false,true,0.0-2.0-0.29-0.266-3.266,0,0,0,68,false,stim,false,0,1935,0,0,0,68193,task2,927084,false,false,890,image-keyboard-response,34
true,8,2,1,2,true,d,false,true,0.0-2.0-0.29-0.267-3.267,0,0,0,68,false,stim,false,0,1138,0,0,1,68193,task2,929742,false,false,893,image-keyboard-response,35
true,8,2,1,2,true,d,false,false,0.0-2.0-0.29-0.268-3.268,0,0,0,68,false,stim,false,0,510,0,0,0,68193,task2,931782,false,true,896,image-keyboard-response,36
true,8,1,1,2,false,d,true,false,0.0-2.0-0.29-0.269-3.269,0,0,0,90,false,stim,false,0,1376,0,0,0,68193,task2,934676,false,false,899,image-keyboard-response,37
true,8,2,1,2,true,d,false,true,0.0-2.0-0.30-0.270-3.270,0,0,0,68,false,stim,false,0,1168,0,0,1,68193,task2,937388,false,false,902,image-keyboard-response,38
true,9,0,1,0,true,q,false,true,0.0-2.0-0.30-0.271-3.271,0,0,0,81,true,stim,false,2,1312,0,0,0,68193,task2,940223,false,false,905,image-keyboard-response,1
true,9,2,1,0,false,q,false,false,0.0-2.0-0.30-0.272-3.272,0,0,0,68,false,stim,true,2,1418,0,0,1,68193,task2,943160,false,false,908,image-keyboard-response,2
true,9,0,1,0,true,q,false,true,0.0-2.0-0.30-0.273-3.273,0,0,0,81,false,stim,false,2,886,0,0,0,68193,task2,945559,false,false,911,image-keyboard-response,3
true,9,2,1,1,false,z,true,true,0.0-2.0-0.30-0.274-3.274,0,0,0,68,false,stim,false,0,1050,0,0,2,68193,task2,948129,false,true,914,image-keyboard-response,4
true,9,2,1,1,false,z,true,false,0.0-2.0-0.30-0.275-3.275,0,0,0,68,false,stim,false,0,1134,0,0,2,68193,task2,950781,false,false,917,image-keyboard-response,5
true,9,0,1,0,true,q,false,true,0.0-2.0-0.30-0.276-3.276,0,0,0,81,false,stim,false,2,552,0,0,0,68193,task2,952853,false,false,920,image-keyboard-response,6
true,9,0,1,0,true,q,false,true,0.0-2.0-0.30-0.277-3.277,0,0,0,81,false,stim,false,2,600,0,0,1,68193,task2,954975,false,false,923,image-keyboard-response,7
true,9,0,1,1,false,z,false,true,0.0-2.0-0.30-0.278-3.278,0,0,0,81,false,stim,true,0,556,0,0,2,68193,task2,957042,false,true,926,image-keyboard-response,8
true,9,0,1,1,false,z,false,true,0.0-2.0-0.31-0.279-3.279,0,0,0,81,false,stim,true,0,643,0,0,2,68193,task2,959196,false,true,929,image-keyboard-response,9
true,9,0,1,0,true,q,false,false,0.0-2.0-0.31-0.280-3.280,0,0,0,81,false,stim,false,2,1135,0,0,1,68193,task2,961849,false,true,932,image-keyboard-response,10
true,9,0,1,0,true,q,false,true,0.0-2.0-0.31-0.281-3.281,0,0,0,81,false,stim,false,2,662,0,0,0,68193,task2,964040,false,false,935,image-keyboard-response,11
true,9,0,1,0,true,q,false,true,0.0-2.0-0.31-0.282-3.282,0,0,0,81,false,stim,false,2,555,0,0,0,68193,task2,966118,false,false,938,image-keyboard-response,12
true,9,1,1,1,true,z,false,true,0.0-2.0-0.31-0.283-3.283,0,0,0,90,false,stim,false,0,1167,0,0,2,68193,task2,968811,false,false,941,image-keyboard-response,13
true,9,0,1,0,true,q,false,true,0.0-2.0-0.31-0.284-3.284,0,0,0,81,false,stim,false,2,563,0,0,0,68193,task2,970903,false,false,944,image-keyboard-response,14
true,9,1,1,1,true,z,false,true,0.0-2.0-0.31-0.285-3.285,0,0,0,90,false,stim,false,0,523,0,0,2,68193,task2,972960,false,false,947,image-keyboard-response,15
true,9,0,1,0,true,q,false,false,0.0-2.0-0.31-0.286-3.286,0,0,0,81,false,stim,false,2,1125,0,0,1,68193,task2,975616,false,true,950,image-keyboard-response,16
true,9,2,1,0,false,q,false,false,0.0-2.0-0.31-0.287-3.287,0,0,0,68,false,stim,true,2,1708,0,0,1,68193,task2,978848,false,false,953,image-keyboard-response,17
true,9,2,1,0,false,q,false,false,0.0-2.0-0.32-0.288-3.288,0,0,0,68,false,stim,true,2,770,0,0,1,68193,task2,981130,false,false,956,image-keyboard-response,18
true,9,1,1,0,false,q,true,false,0.0-2.0-0.32-0.289-3.289,0,0,0,90,false,stim,false,2,457,0,0,0,68193,task2,983107,false,false,959,image-keyboard-response,19
true,9,1,1,1,true,z,false,true,0.0-2.0-0.32-0.290-3.290,0,0,0,90,false,stim,false,0,498,0,0,2,68193,task2,985126,false,false,962,image-keyboard-response,20
true,9,0,1,0,true,q,false,true,0.0-2.0-0.32-0.291-3.291,0,0,0,81,false,stim,false,2,1020,0,0,0,68193,task2,987669,false,false,965,image-keyboard-response,21
true,9,1,1,0,false,q,true,false,0.0-2.0-0.32-0.292-3.292,0,0,0,90,false,stim,false,2,753,0,0,1,68193,task2,989946,false,false,968,image-keyboard-response,22
true,9,0,1,0,true,q,false,true,0.0-2.0-0.32-0.293-3.293,0,0,0,81,false,stim,false,2,712,0,0,0,68193,task2,992181,false,false,971,image-keyboard-response,23
true,9,0,1,0,true,q,false,true,0.0-2.0-0.32-0.294-3.294,0,0,0,81,false,stim,false,2,669,0,0,1,68193,task2,994383,false,false,974,image-keyboard-response,24
true,9,0,1,1,false,z,false,false,0.0-2.0-0.32-0.295-3.295,0,0,0,81,false,stim,true,0,915,0,0,2,68193,task2,996817,false,false,977,image-keyboard-response,25
true,9,2,1,1,false,z,true,true,0.0-2.0-0.32-0.296-3.296,0,0,0,68,false,stim,false,0,1559,0,0,2,68193,task2,999900,false,true,980,image-keyboard-response,26
true,9,0,1,0,true,q,false,true,0.0-2.0-0.33-0.297-3.297,0,0,0,81,false,stim,false,2,630,0,0,1,68193,task2,1002056,false,false,983,image-keyboard-response,27
true,9,2,1,1,false,z,true,true,0.0-2.0-0.33-0.298-3.298,0,0,0,68,false,stim,false,0,2009,0,0,2,68193,task2,1005597,false,true,986,image-keyboard-response,28
true,9,0,1,0,true,q,false,true,0.0-2.0-0.33-0.299-3.299,0,0,0,81,false,stim,false,2,718,0,0,0,68193,task2,1007841,false,false,989,image-keyboard-response,29
true,9,0,1,0,true,q,false,true,0.0-2.0-0.33-0.300-3.300,0,0,0,81,false,stim,false,2,753,0,0,0,68193,task2,1010110,false,false,992,image-keyboard-response,30
true,9,0,1,0,true,q,false,true,0.0-2.0-0.33-0.301-3.301,0,0,0,81,false,stim,false,2,892,0,0,1,68193,task2,1012512,false,false,995,image-keyboard-response,31
true,9,0,1,0,true,q,false,true,0.0-2.0-0.33-0.302-3.302,0,0,0,81,false,stim,false,2,609,0,0,0,68193,task2,1014647,false,false,998,image-keyboard-response,32
true,9,2,1,1,false,z,true,false,0.0-2.0-0.33-0.303-3.303,0,0,0,68,false,stim,false,0,1260,0,0,2,68193,task2,1017454,false,false,1001,image-keyboard-response,33
true,9,0,1,0,true,q,false,false,0.0-2.0-0.33-0.304-3.304,0,0,0,81,false,stim,false,2,573,0,0,1,68193,task2,1019548,false,true,1004,image-keyboard-response,34
true,9,0,1,1,false,z,false,false,0.0-2.0-0.33-0.305-3.305,0,0,0,81,false,stim,true,0,987,0,0,2,68193,task2,1022072,false,false,1007,image-keyboard-response,35
true,9,2,1,0,false,q,false,false,0.0-2.0-0.34-0.306-3.306,0,0,0,68,false,stim,true,2,1330,0,0,1,68193,task2,1024927,false,false,1010,image-keyboard-response,36
true,9,1,1,1,true,z,false,true,0.0-2.0-0.34-0.307-3.307,0,0,0,90,false,stim,false,0,713,0,0,2,68193,task2,1027167,false,false,1013,image-keyboard-response,37
true,10,1,1,0,false,q,false,false,0.0-2.0-0.34-0.308-3.308,0,0,0,90,true,stim,true,1,609,0,0,2,68193,task2,1029304,false,false,1016,image-keyboard-response,1
true,10,1,1,1,true,z,false,true,0.0-2.0-0.34-0.309-3.309,0,0,0,90,false,stim,false,0,2410,0,0,1,68193,task2,1033234,false,false,1019,image-keyboard-response,2
true,10,0,1,0,true,q,false,true,0.0-2.0-0.34-0.310-3.310,0,0,0,81,false,stim,false,1,1324,0,0,2,68193,task2,1036080,false,false,1022,image-keyboard-response,3
true,10,1,1,1,true,z,false,true,0.0-2.0-0.34-0.311-3.311,0,0,0,90,false,stim,false,0,505,0,0,1,68193,task2,1038120,false,false,1025,image-keyboard-response,4
true,10,0,1,2,false,d,false,false,0.0-2.0-0.34-0.312-3.312,0,0,0,81,false,stim,true,0,1816,0,0,0,68193,task2,1041467,false,false,1028,image-keyboard-response,5
true,10,2,1,2,true,d,false,true,0.0-2.0-0.34-0.313-3.313,0,0,0,68,false,stim,false,0,1227,0,0,0,68193,task2,1044215,false,false,1031,image-keyboard-response,6
true,10,2,1,2,true,d,false,true,0.0-2.0-0.34-0.314-3.314,0,0,0,68,false,stim,false,0,644,0,0,0,68193,task2,1046382,false,false,1034,image-keyboard-response,7
true,10,0,1,0,true,q,false,true,0.0-2.0-0.35-0.315-3.315,0,0,0,81,false,stim,false,1,1403,0,0,2,68193,task2,1049315,false,false,1037,image-keyboard-response,8
true,10,1,1,2,false,d,true,false,0.0-2.0-0.35-0.316-3.316,0,0,0,90,false,stim,false,0,824,0,0,0,68193,task2,1051651,false,false,1040,image-keyboard-response,9
true,10,0,1,0,true,q,false,true,0.0-2.0-0.35-0.317-3.317,0,0,0,81,false,stim,false,1,917,0,0,2,68193,task2,1054095,false,false,1043,image-keyboard-response,10
true,10,2,1,2,true,d,false,true,0.0-2.0-0.35-0.318-3.318,0,0,0,68,false,stim,false,0,446,0,0,0,68193,task2,1056069,false,false,1046,image-keyboard-response,11
true,10,1,1,1,true,z,false,true,0.0-2.0-0.35-0.319-3.319,0,0,0,90,false,stim,false,0,668,0,0,1,68193,task2,1058262,false,false,1049,image-keyboard-response,12
true,10,1,1,1,true,z,false,true,0.0-2.0-0.35-0.320-3.320,0,0,0,90,false,stim,false,0,567,0,0,1,68193,task2,1060357,false,false,1052,image-keyboard-response,13
true,10,2,1,2,true,d,false,true,0.0-2.0-0.35-0.321-3.321,0,0,0,68,false,stim,false,0,1078,0,0,0,68193,task2,1062965,false,false,1055,image-keyboard-response,14
true,10,0,1,0,true,q,false,true,0.0-2.0-0.35-0.322-3.322,0,0,0,81,false,stim,false,1,1203,0,0,2,68193,task2,1065686,false,false,1058,image-keyboard-response,15
true,10,1,1,1,true,z,false,true,0.0-2.0-0.35-0.323-3.323,0,0,0,90,false,stim,false,0,1152,0,0,1,68193,task2,1068350,false,false,1061,image-keyboard-response,16
true,10,2,1,2,true,d,false,false,0.0-2.0-0.36-0.324-3.324,0,0,0,68,false,stim,false,0,1323,0,0,0,68193,task2,1071202,false,true,1064,image-keyboard-response,17
true,10,0,1,0,true,q,false,true,0.0-2.0-0.36-0.325-3.325,0,0,0,81,false,stim,false,1,1003,0,0,2,68193,task2,1073734,false,false,1067,image-keyboard-response,18
true,10,0,1,2,false,d,false,false,0.0-2.0-0.36-0.326-3.326,0,0,0,81,false,stim,true,0,1130,0,0,0,68193,task2,1076399,false,false,1070,image-keyboard-response,19
true,10,0,1,0,true,q,false,true,0.0-2.0-0.36-0.327-3.327,0,0,0,81,false,stim,false,1,1791,0,0,2,68193,task2,1079718,false,false,1073,image-keyboard-response,20
true,10,1,1,1,true,z,false,true,0.0-2.0-0.36-0.328-3.328,0,0,0,90,false,stim,false,0,2770,0,0,1,68193,task2,1084010,false,false,1076,image-keyboard-response,21
true,10,0,1,0,true,q,false,true,0.0-2.0-0.36-0.329-3.329,0,0,0,81,false,stim,false,1,732,0,0,2,68193,task2,1086258,false,false,1079,image-keyboard-response,22
true,10,1,1,2,false,d,true,true,0.0-2.0-0.36-0.330-3.330,0,0,0,90,false,stim,false,0,516,0,0,0,68193,task2,1088291,false,true,1082,image-keyboard-response,23
true,10,0,1,1,false,z,false,false,0.0-2.0-0.36-0.331-3.331,0,0,0,81,false,stim,true,0,2115,0,0,1,68193,task2,1091930,false,false,1085,image-keyboard-response,24
true,10,1,1,1,true,z,false,true,0.0-2.0-0.36-0.332-3.332,0,0,0,90,false,stim,false,0,659,0,0,1,68193,task2,1094112,false,false,1088,image-keyboard-response,25
true,10,1,1,2,false,d,true,false,0.0-2.0-0.37-0.333-3.333,0,0,0,90,false,stim,false,0,631,0,0,0,68193,task2,1096275,false,false,1091,image-keyboard-response,26
true,10,0,1,2,false,d,false,false,0.0-2.0-0.37-0.334-3.334,0,0,0,81,false,stim,true,0,916,0,0,0,68193,task2,1098707,false,false,1094,image-keyboard-response,27
true,10,1,1,0,false,q,false,false,0.0-2.0-0.37-0.335-3.335,0,0,0,90,false,stim,true,1,1030,0,0,2,68193,task2,1101269,false,false,1097,image-keyboard-response,28
true,10,2,1,0,false,q,true,true,0.0-2.0-0.37-0.336-3.336,0,0,0,68,false,stim,false,1,1483,0,0,2,68193,task2,1104270,false,true,1100,image-keyboard-response,29
true,10,2,1,0,false,q,true,false,0.0-2.0-0.37-0.337-3.337,0,0,0,68,false,stim,false,1,1157,0,0,2,68193,task2,1106974,false,false,1103,image-keyboard-response,30
true,10,0,1,2,false,d,false,false,0.0-2.0-0.37-0.338-3.338,0,0,0,81,false,stim,true,0,651,0,0,0,68193,task2,1109152,false,false,1106,image-keyboard-response,31
true,10,1,1,1,true,z,false,true,0.0-2.0-0.37-0.339-3.339,0,0,0,90,false,stim,false,0,1352,0,0,1,68193,task2,1112034,false,false,1109,image-keyboard-response,32
true,10,1,1,1,true,z,false,true,0.0-2.0-0.37-0.340-3.340,0,0,0,90,false,stim,false,0,926,0,0,1,68193,task2,1114496,false,false,1112,image-keyboard-response,33
true,10,1,1,1,true,z,false,true,0.0-2.0-0.37-0.341-3.341,0,0,0,90,false,stim,false,0,694,0,0,1,68193,task2,1116705,false,false,1115,image-keyboard-response,34
true,10,1,1,0,false,q,false,false,0.0-2.0-0.38-0.342-3.342,0,0,0,90,false,stim,true,1,1218,0,0,2,68193,task2,1119452,false,false,1118,image-keyboard-response,35
true,10,1,1,1,true,z,false,true,0.0-2.0-0.38-0.343-3.343,0,0,0,90,false,stim,false,0,653,0,0,1,68193,task2,1121629,false,false,1121,image-keyboard-response,36
true,11,1,1,1,true,z,false,false,0.0-2.0-0.38-0.344-3.344,0,0,0,90,true,stim,false,0,741,0,0,2,68193,task2,1123908,false,true,1124,image-keyboard-response,1
true,11,1,1,2,false,d,false,false,0.0-2.0-0.38-0.345-3.345,0,0,0,90,false,stim,true,1,712,0,0,1,68193,task2,1126158,false,false,1127,image-keyboard-response,2
true,11,0,1,2,false,d,true,true,0.0-2.0-0.38-0.346-3.346,0,0,0,81,false,stim,false,1,455,0,0,1,68193,task2,1128127,false,true,1130,image-keyboard-response,3
true,11,2,1,1,false,z,false,false,0.0-2.0-0.38-0.347-3.347,0,0,0,68,false,stim,true,2,1908,0,0,0,68193,task2,1131571,false,false,1133,image-keyboard-response,4
true,11,1,1,1,true,z,false,true,0.0-2.0-0.38-0.348-3.348,0,0,0,90,false,stim,false,2,1265,0,0,0,68193,task2,1134364,false,false,1136,image-keyboard-response,5
true,11,2,1,1,false,z,true,false,0.0-2.0-0.38-0.349-3.349,0,0,0,68,false,stim,false,0,1247,0,0,2,68193,task2,1137142,false,false,1139,image-keyboard-response,6
true,11,1,1,1,true,z,false,true,0.0-2.0-0.38-0.350-3.350,0,0,0,90,false,stim,false,2,507,0,0,0,68193,task2,1139159,false,false,1142,image-keyboard-response,7
true,11,0,1,2,false,d,true,false,0.0-2.0-0.39-0.351-3.351,0,0,0,81,false,stim,false,1,1008,0,0,1,68193,task2,1141698,false,false,1145,image-keyboard-response,8
true,11,1,1,1,true,z,false,true,0.0-2.0-0.39-0.352-3.352,0,0,0,90,false,stim,false,2,525,0,0,0,68193,task2,1143752,false,false,1148,image-keyboard-response,9
true,11,1,1,1,true,z,false,true,0.0-2.0-0.39-0.353-3.353,0,0,0,90,false,stim,false,2,589,0,0,0,68193,task2,1145872,false,false,1151,image-keyboard-response,10
true,11,1,1,2,false,d,false,false,0.0-2.0-0.39-0.354-3.354,0,0,0,90,false,stim,true,1,447,0,0,1,68193,task2,1147847,false,false,1154,image-keyboard-response,11
true,11,2,1,1,false,z,true,false,0.0-2.0-0.39-0.355-3.355,0,0,0,68,false,stim,false,0,1292,0,0,2,68193,task2,1150670,false,false,1157,image-keyboard-response,12
true,11,0,1,1,false,z,false,false,0.0-2.0-0.39-0.356-3.356,0,0,0,81,false,stim,true,0,951,0,0,2,68193,task2,1153139,false,false,1160,image-keyboard-response,13
true,11,1,1,1,true,z,false,true,0.0-2.0-0.39-0.357-3.357,0,0,0,90,false,stim,false,2,1084,0,0,0,68193,task2,1155760,false,false,1163,image-keyboard-response,14
true,11,1,1,1,true,z,false,true,0.0-2.0-0.39-0.358-3.358,0,0,0,90,false,stim,false,0,499,0,0,2,68193,task2,1157796,false,false,1166,image-keyboard-response,15
true,11,2,1,2,true,d,false,true,0.0-2.0-0.39-0.359-3.359,0,0,0,68,false,stim,false,1,935,0,0,1,68193,task2,1160259,false,false,1169,image-keyboard-response,16
true,11,1,1,1,true,z,false,true,0.0-2.0-0.40-0.360-3.360,0,0,0,90,false,stim,false,2,563,0,0,0,68193,task2,1162346,false,false,1172,image-keyboard-response,17
true,11,2,1,2,true,d,false,true,0.0-2.0-0.40-0.361-3.361,0,0,0,68,false,stim,false,1,958,0,0,1,68193,task2,1164823,false,false,1175,image-keyboard-response,18
true,11,1,1,1,true,z,false,true,0.0-2.0-0.40-0.362-3.362,0,0,0,90,false,stim,false,2,809,0,0,0,68193,task2,1167146,false,false,1178,image-keyboard-response,19
true,11,1,1,1,true,z,false,true,0.0-2.0-0.40-0.363-3.363,0,0,0,90,false,stim,false,0,532,0,0,2,68193,task2,1169193,false,false,1181,image-keyboard-response,20
true,11,1,1,2,false,d,false,false,0.0-2.0-0.40-0.364-3.364,0,0,0,90,false,stim,true,1,801,0,0,1,68193,task2,1171511,false,false,1184,image-keyboard-response,21
true,11,1,1,1,true,z,false,true,0.0-2.0-0.40-0.365-3.365,0,0,0,90,false,stim,false,0,562,0,0,2,68193,task2,1173602,false,false,1187,image-keyboard-response,22
true,11,1,1,1,true,z,false,true,0.0-2.0-0.40-0.366-3.366,0,0,0,90,false,stim,false,0,474,0,0,2,68193,task2,1175601,false,false,1190,image-keyboard-response,23
true,11,1,1,1,true,z,false,true,0.0-2.0-0.40-0.367-3.367,0,0,0,90,false,stim,false,2,685,0,0,0,68193,task2,1177820,false,false,1193,image-keyboard-response,24
true,11,2,1,2,true,d,false,true,0.0-2.0-0.40-0.368-3.368,0,0,0,68,false,stim,false,1,1071,0,0,1,68193,task2,1180425,false,false,1196,image-keyboard-response,25
true,11,1,1,1,true,z,false,true,0.0-2.0-0.41-0.369-3.369,0,0,0,90,false,stim,false,0,793,0,0,2,68193,task2,1182733,false,false,1199,image-keyboard-response,26
true,11,1,1,1,true,z,false,true,0.0-2.0-0.41-0.370-3.370,0,0,0,90,false,stim,false,0,682,0,0,2,68193,task2,1184957,false,false,1202,image-keyboard-response,27
true,11,1,1,1,true,z,false,true,0.0-2.0-0.41-0.371-3.371,0,0,0,90,false,stim,false,2,1253,0,0,0,68193,task2,1187736,false,false,1205,image-keyboard-response,28
true,11,1,1,1,true,z,false,true,0.0-2.0-0.41-0.372-3.372,0,0,0,90,false,stim,false,2,529,0,0,0,68193,task2,1189800,false,false,1208,image-keyboard-response,29
true,11,2,1,2,true,d,false,true,0.0-2.0-0.41-0.373-3.373,0,0,0,68,false,stim,false,1,1016,0,1,1,68193,task2,1192334,false,false,1211,image-keyboard-response,30
true,11,1,1,1,true,z,false,true,0.0-2.0-0.41-0.374-3.374,0,0,0,90,false,stim,false,2,558,0,0,0,68193,task2,1194421,false,false,1214,image-keyboard-response,31
true,11,1,1,1,true,z,false,true,0.0-2.0-0.41-0.375-3.375,0,0,0,90,false,stim,false,0,789,0,0,2,68193,task2,1196733,false,false,1217,image-keyboard-response,32
true,11,2,1,2,true,d,false,true,0.0-2.0-0.41-0.376-3.376,0,0,0,68,false,stim,false,1,1576,0,1,1,68193,task2,1199827,false,false,1220,image-keyboard-response,33
true,11,2,1,2,true,d,false,true,0.0-2.0-0.41-0.377-3.377,0,0,0,68,false,stim,false,1,904,0,1,1,68193,task2,1202252,false,false,1223,image-keyboard-response,34
true,12,1,2,2,false,d,false,false,0.0-2.0-0.42-0.378-3.378,0,1,0,90,true,stim,true,1,774,0,0,2,68193,task2,1204553,false,false,1226,image-keyboard-response,1
true,12,1,2,2,false,d,true,false,0.0-2.0-0.42-0.379-3.379,0,1,0,90,false,stim,false,2,722,0,1,1,68193,task2,1206799,false,false,1229,image-keyboard-response,2
true,12,2,2,2,true,d,false,true,0.0-2.0-0.42-0.380-3.380,0,1,0,68,false,stim,false,1,1839,0,0,2,68193,task2,1210151,false,false,1232,image-keyboard-response,3
true,12,2,2,2,true,d,false,true,0.0-2.0-0.42-0.381-3.381,0,1,0,68,false,stim,false,2,807,0,1,1,68193,task2,1212494,false,false,1235,image-keyboard-response,4
true,12,2,2,2,true,d,false,true,0.0-2.0-0.42-0.382-3.382,0,1,0,68,false,stim,false,1,668,0,0,2,68193,task2,1214692,false,false,1238,image-keyboard-response,5
true,12,0,2,0,true,q,false,false,0.0-2.0-0.42-0.383-3.383,0,1,0,81,false,stim,false,1,1084,0,0,0,68193,task2,1217303,false,true,1241,image-keyboard-response,6
true,12,1,2,0,false,q,false,false,0.0-2.0-0.42-0.384-3.384,0,1,0,90,false,stim,true,1,736,0,0,0,68193,task2,1219572,false,false,1244,image-keyboard-response,7
true,12,2,2,0,false,q,true,false,0.0-2.0-0.42-0.385-3.385,0,1,0,68,false,stim,false,1,426,0,0,0,68193,task2,1221524,false,false,1247,image-keyboard-response,8
true,12,1,2,2,false,d,true,false,0.0-2.0-0.42-0.386-3.386,0,1,0,90,false,stim,false,2,694,0,1,1,68193,task2,1223746,false,false,1250,image-keyboard-response,9
true,12,0,2,0,true,q,false,true,0.0-2.0-0.43-0.387-3.387,0,1,0,81,false,stim,false,1,1783,0,0,0,68193,task2,1227059,false,false,1253,image-keyboard-response,10
true,12,2,2,2,true,d,false,true,0.0-2.0-0.43-0.388-3.388,0,1,0,68,false,stim,false,2,893,0,1,1,68193,task2,1229477,false,false,1256,image-keyboard-response,11
true,12,0,2,0,true,q,false,true,0.0-2.0-0.43-0.389-3.389,0,1,0,81,false,stim,false,1,747,0,0,0,68193,task2,1231748,false,false,1259,image-keyboard-response,12
true,12,2,2,2,true,d,false,true,0.0-2.0-0.43-0.390-3.390,0,1,0,68,false,stim,false,2,893,0,1,1,68193,task2,1234166,false,false,1262,image-keyboard-response,13
true,12,2,2,2,true,d,false,true,0.0-2.0-0.43-0.391-3.391,0,1,0,68,false,stim,false,1,467,0,0,2,68193,task2,1236158,false,false,1265,image-keyboard-response,14
true,12,2,2,2,true,d,false,true,0.0-2.0-0.43-0.392-3.392,0,1,0,68,false,stim,false,1,718,0,0,2,68193,task2,1238393,false,false,1268,image-keyboard-response,15
true,12,0,2,0,true,q,false,false,0.0-2.0-0.43-0.393-3.393,0,1,0,81,false,stim,false,1,1382,0,0,0,68193,task2,1241290,false,true,1271,image-keyboard-response,16
true,12,2,2,2,true,d,false,true,0.0-2.0-0.43-0.394-3.394,0,1,0,68,false,stim,false,2,1313,0,1,1,68193,task2,1244125,false,false,1274,image-keyboard-response,17
true,12,2,2,2,true,d,false,true,0.0-2.0-0.43-0.395-3.395,0,1,0,68,false,stim,false,1,441,0,0,2,68193,task2,1246090,false,false,1277,image-keyboard-response,18
true,12,2,2,2,true,d,false,true,0.0-2.0-0.44-0.396-3.396,0,1,0,68,false,stim,false,1,508,0,0,2,68193,task2,1248122,false,false,1280,image-keyboard-response,19
true,12,2,2,2,true,d,false,true,0.0-2.0-0.44-0.397-3.397,0,1,0,68,false,stim,false,1,402,0,0,2,68193,task2,1250047,false,false,1283,image-keyboard-response,20
true,12,2,2,2,true,d,false,false,0.0-2.0-0.44-0.398-3.398,0,1,0,68,false,stim,false,2,834,0,1,1,68193,task2,1252402,false,true,1286,image-keyboard-response,21
true,12,1,2,0,false,q,false,false,0.0-2.0-0.44-0.399-3.399,0,1,0,90,false,stim,true,1,1162,0,0,0,68193,task2,1255096,false,false,1289,image-keyboard-response,22
true,12,2,2,2,true,d,false,true,0.0-2.0-0.44-0.400-3.400,0,1,0,68,false,stim,false,2,1138,0,1,1,68193,task2,1257752,false,false,1292,image-keyboard-response,23
true,12,2,2,0,false,q,true,false,0.0-2.0-0.44-0.401-3.401,0,1,0,68,false,stim,false,1,1030,0,0,0,68193,task2,1260308,false,false,1295,image-keyboard-response,24
true,12,0,2,2,false,d,true,false,0.0-2.0-0.44-0.402-3.402,0,1,0,81,false,stim,false,1,2097,0,0,2,68193,task2,1263923,false,false,1298,image-keyboard-response,25
true,12,1,2,0,false,q,false,true,0.0-2.0-0.44-0.403-3.403,0,1,0,90,false,stim,true,1,1126,0,0,0,68193,task2,1266598,false,true,1301,image-keyboard-response,26
true,12,1,2,2,false,d,true,false,0.0-2.0-0.44-0.404-3.404,0,1,0,90,false,stim,false,2,1311,0,1,1,68193,task2,1269440,false,false,1304,image-keyboard-response,27
true,12,0,2,2,false,d,true,false,0.0-2.0-0.45-0.405-3.405,0,1,0,81,false,stim,false,2,1196,0,0,1,68193,task2,1272153,false,false,1307,image-keyboard-response,28
true,12,0,2,2,false,d,true,false,0.0-2.0-0.45-0.406-3.406,0,1,0,81,false,stim,false,1,580,0,1,2,68193,task2,1274259,false,false,1310,image-keyboard-response,29
true,12,1,2,0,false,q,false,false,0.0-2.0-0.45-0.407-3.407,0,1,0,90,false,stim,true,1,690,0,0,0,68193,task2,1276474,false,false,1313,image-keyboard-response,30
true,12,1,2,2,false,d,true,true,0.0-2.0-0.45-0.408-3.408,0,1,0,90,false,stim,false,2,1282,0,0,1,68193,task2,1279289,false,true,1316,image-keyboard-response,31
true,12,2,2,0,false,q,true,false,0.0-2.0-0.45-0.409-3.409,0,1,0,68,false,stim,false,1,883,0,0,0,68193,task2,1281707,false,false,1319,image-keyboard-response,32
true,13,1,2,1,true,z,false,true,0.0-2.0-0.45-0.410-3.410,0,0,1,90,true,stim,false,2,461,0,0,1,68193,task2,1283688,false,false,1322,image-keyboard-response,1
true,13,1,2,2,false,d,true,false,0.0-2.0-0.45-0.411-3.411,0,0,1,90,false,stim,false,2,562,0,1,2,68193,task2,1285779,false,false,1325,image-keyboard-response,2
true,13,1,2,2,false,d,true,true,0.0-2.0-0.45-0.412-3.412,0,0,1,90,false,stim,false,0,694,0,0,0,68193,task2,1288008,false,true,1328,image-keyboard-response,3
true,13,2,2,2,true,d,false,true,0.0-2.0-0.45-0.413-3.413,0,0,1,68,false,stim,false,2,1173,0,1,2,68193,task2,1290705,false,false,1331,image-keyboard-response,4
true,13,1,2,2,false,d,true,false,0.0-2.0-0.46-0.414-3.414,0,0,1,90,false,stim,false,0,569,0,0,0,68193,task2,1292801,false,false,1334,image-keyboard-response,5
true,13,1,2,1,true,z,false,true,0.0-2.0-0.46-0.415-3.415,0,0,1,90,false,stim,false,2,787,0,0,1,68193,task2,1295113,false,false,1337,image-keyboard-response,6
true,13,2,2,1,false,z,false,false,0.0-2.0-0.46-0.416-3.416,0,0,1,68,false,stim,true,2,520,0,0,1,68193,task2,1297163,false,false,1340,image-keyboard-response,7
true,13,2,2,2,true,d,false,true,0.0-2.0-0.46-0.417-3.417,0,0,1,68,false,stim,false,2,756,0,1,2,68193,task2,1299442,false,false,1343,image-keyboard-response,8
true,13,2,2,2,true,d,false,true,0.0-2.0-0.46-0.418-3.418,0,0,1,68,false,stim,false,0,1869,0,0,0,68193,task2,1302847,false,false,1346,image-keyboard-response,9
true,13,2,2,2,true,d,false,true,0.0-2.0-0.46-0.419-3.419,0,0,1,68,false,stim,false,2,931,0,1,2,68193,task2,1305309,false,false,1349,image-keyboard-response,10
true,13,2,2,2,true,d,false,true,0.0-2.0-0.46-0.420-3.420,0,0,1,68,false,stim,false,0,761,0,0,0,68193,task2,1307594,false,false,1352,image-keyboard-response,11
true,13,2,2,2,true,d,false,true,0.0-2.0-0.46-0.421-3.421,0,0,1,68,false,stim,false,2,582,0,1,2,68193,task2,1309695,false,false,1355,image-keyboard-response,12
true,13,1,2,1,true,z,false,true,0.0-2.0-0.46-0.422-3.422,0,0,1,90,false,stim,false,2,763,0,0,1,68193,task2,1311988,false,false,1358,image-keyboard-response,13
true,13,1,2,1,true,z,false,true,0.0-2.0-0.47-0.423-3.423,0,0,1,90,false,stim,false,2,1247,0,0,1,68193,task2,1314769,false,false,1361,image-keyboard-response,14
true,13,2,2,2,true,d,false,true,0.0-2.0-0.47-0.424-3.424,0,0,1,68,false,stim,false,2,1947,0,1,2,68193,task2,1318241,false,false,1364,image-keyboard-response,15
true,13,1,2,1,true,z,false,true,0.0-2.0-0.47-0.425-3.425,0,0,1,90,false,stim,false,2,981,0,0,1,68193,task2,1320741,false,false,1367,image-keyboard-response,16
true,13,2,2,2,true,d,false,true,0.0-2.0-0.47-0.426-3.426,0,0,1,68,false,stim,false,2,627,0,1,2,68193,task2,1322900,false,false,1370,image-keyboard-response,17
true,13,1,2,1,true,z,false,true,0.0-2.0-0.47-0.427-3.427,0,0,1,90,false,stim,false,2,1044,0,0,1,68193,task2,1325469,false,false,1373,image-keyboard-response,18
true,13,2,2,2,true,d,false,true,0.0-2.0-0.47-0.428-3.428,0,0,1,68,false,stim,false,0,1005,0,0,0,68193,task2,1327997,false,false,1376,image-keyboard-response,19
true,13,2,2,2,true,d,false,true,0.0-2.0-0.47-0.429-3.429,0,0,1,68,false,stim,false,2,1318,0,1,2,68193,task2,1330848,false,false,1379,image-keyboard-response,20
true,13,2,2,2,true,d,false,true,0.0-2.0-0.47-0.430-3.430,0,0,1,68,false,stim,false,0,1298,0,0,0,68193,task2,1333675,false,false,1382,image-keyboard-response,21
true,13,2,2,2,true,d,false,true,0.0-2.0-0.47-0.431-3.431,0,0,1,68,false,stim,false,0,1488,0,0,0,68193,task2,1336688,false,false,1385,image-keyboard-response,22
true,13,2,2,2,true,d,false,true,0.0-2.0-0.48-0.432-3.432,0,0,1,68,false,stim,false,2,1024,0,1,2,68193,task2,1339228,false,false,1388,image-keyboard-response,23
true,13,2,2,2,true,d,false,true,0.0-2.0-0.48-0.433-3.433,0,0,1,68,false,stim,false,0,1314,0,0,0,68193,task2,1342066,false,false,1391,image-keyboard-response,24
true,13,2,2,2,true,d,false,true,0.0-2.0-0.48-0.434-3.434,0,0,1,68,false,stim,false,2,1425,0,1,2,68193,task2,1345013,false,false,1394,image-keyboard-response,25
true,13,1,2,1,true,z,false,true,0.0-2.0-0.48-0.435-3.435,0,0,1,90,false,stim,false,2,959,0,0,1,68193,task2,1347505,false,false,1397,image-keyboard-response,26
true,13,2,2,2,true,d,false,true,0.0-2.0-0.48-0.436-3.436,0,0,1,68,false,stim,false,0,1916,0,0,0,68193,task2,1350953,false,false,1400,image-keyboard-response,27
true,13,2,2,2,true,d,false,true,0.0-2.0-0.48-0.437-3.437,0,0,1,68,false,stim,false,2,1195,0,0,2,68193,task2,1353703,false,false,1403,image-keyboard-response,28
true,13,1,2,1,true,z,false,true,0.0-2.0-0.48-0.438-3.438,0,0,1,90,false,stim,false,2,1617,0,0,1,68193,task2,1356842,false,false,1406,image-keyboard-response,29
true,13,2,2,2,true,d,false,true,0.0-2.0-0.48-0.439-3.439,0,0,1,68,false,stim,false,0,856,0,1,0,68193,task2,1359224,false,false,1409,image-keyboard-response,30
true,13,1,2,1,true,z,false,true,0.0-2.0-0.48-0.440-3.440,0,0,1,90,false,stim,false,2,1239,0,0,1,68193,task2,1361989,false,false,1412,image-keyboard-response,31
true,13,2,2,2,true,d,false,true,0.0-2.0-0.49-0.441-3.441,0,0,1,68,false,stim,false,2,1198,0,0,2,68193,task2,1364717,false,false,1415,image-keyboard-response,32
true,14,2,2,2,true,d,false,true,0.0-2.0-0.49-0.442-3.442,1,0,0,68,true,stim,false,2,1199,0,1,0,68193,task2,1367447,false,false,1418,image-keyboard-response,1
true,14,1,2,0,false,q,false,false,0.0-2.0-0.49-0.443-3.443,1,0,0,90,false,stim,true,1,1169,0,0,1,68193,task2,1370145,false,false,1421,image-keyboard-response,2
true,14,2,2,2,true,d,false,true,0.0-2.0-0.49-0.444-3.444,1,0,0,68,false,stim,false,2,990,0,1,0,68193,task2,1372663,false,false,1424,image-keyboard-response,3
true,14,0,2,0,true,q,false,true,0.0-2.0-0.49-0.445-3.445,1,0,0,81,false,stim,false,1,970,0,0,1,68193,task2,1375157,false,false,1427,image-keyboard-response,4
true,14,2,2,1,false,z,false,false,0.0-2.0-0.49-0.446-3.446,1,0,0,68,false,stim,true,2,1240,0,0,2,68193,task2,1377931,false,false,1430,image-keyboard-response,5
true,14,0,2,0,true,q,false,true,0.0-2.0-0.49-0.447-3.447,1,0,0,81,false,stim,false,1,586,0,0,1,68193,task2,1380038,false,false,1433,image-keyboard-response,6
true,14,0,2,1,false,z,true,false,0.0-2.0-0.49-0.448-3.448,1,0,0,81,false,stim,false,2,945,0,0,2,68193,task2,1382509,false,false,1436,image-keyboard-response,7
true,14,2,2,2,true,d,false,true,0.0-2.0-0.49-0.449-3.449,1,0,0,68,false,stim,false,2,2801,0,1,0,68193,task2,1386820,false,false,1439,image-keyboard-response,8
true,14,0,2,0,true,q,false,true,0.0-2.0-0.50-0.450-3.450,1,0,0,81,false,stim,false,1,803,0,0,1,68193,task2,1389147,false,false,1442,image-keyboard-response,9
true,14,1,2,1,true,z,false,true,0.0-2.0-0.50-0.451-3.451,1,0,0,90,false,stim,false,2,1235,0,0,2,68193,task2,1391904,false,false,1445,image-keyboard-response,10
true,14,2,2,2,true,d,false,true,0.0-2.0-0.50-0.452-3.452,1,0,0,68,false,stim,false,2,600,0,1,0,68193,task2,1394019,false,false,1448,image-keyboard-response,11
true,14,2,2,2,true,d,false,true,0.0-2.0-0.50-0.453-3.453,1,0,0,68,false,stim,false,2,1055,0,1,0,68193,task2,1396607,false,false,1451,image-keyboard-response,12
true,14,2,2,2,true,d,false,true,0.0-2.0-0.50-0.454-3.454,1,0,0,68,false,stim,false,2,996,0,1,0,68193,task2,1399122,false,false,1454,image-keyboard-response,13
true,14,1,2,1,true,z,false,true,0.0-2.0-0.50-0.455-3.455,1,0,0,90,false,stim,false,2,1157,0,0,2,68193,task2,1401802,false,false,1457,image-keyboard-response,14
true,14,1,2,1,true,z,false,true,0.0-2.0-0.50-0.456-3.456,1,0,0,90,false,stim,false,2,1043,0,0,2,68193,task2,1404373,false,false,1460,image-keyboard-response,15
true,14,0,2,0,true,q,false,false,0.0-2.0-0.50-0.457-3.457,1,0,0,81,false,stim,false,1,1834,0,0,1,68193,task2,1407739,false,true,1463,image-keyboard-response,16
true,14,1,2,0,false,q,false,false,0.0-2.0-0.50-0.458-3.458,1,0,0,90,false,stim,true,1,790,0,0,1,68193,task2,1410061,false,false,1466,image-keyboard-response,17
true,14,2,2,0,false,q,true,false,0.0-2.0-0.51-0.459-3.459,1,0,0,68,false,stim,false,1,639,0,0,1,68193,task2,1412216,false,false,1469,image-keyboard-response,18
true,14,1,2,1,true,z,false,true,0.0-2.0-0.51-0.460-3.460,1,0,0,90,false,stim,false,2,1325,0,0,2,68193,task2,1415065,false,false,1472,image-keyboard-response,19
true,14,2,2,2,true,d,false,true,0.0-2.0-0.51-0.461-3.461,1,0,0,68,false,stim,false,2,935,0,1,0,68193,task2,1417528,false,false,1475,image-keyboard-response,20
true,14,0,2,0,true,q,false,true,0.0-2.0-0.51-0.462-3.462,1,0,0,81,false,stim,false,1,1020,0,0,1,68193,task2,1420076,false,false,1478,image-keyboard-response,21
true,14,2,2,2,true,d,false,true,0.0-2.0-0.51-0.463-3.463,1,0,0,68,false,stim,false,2,1084,0,1,0,68193,task2,1422682,false,false,1481,image-keyboard-response,22
true,14,1,2,1,true,z,false,true,0.0-2.0-0.51-0.464-3.464,1,0,0,90,false,stim,false,2,943,0,0,2,68193,task2,1425149,false,false,1484,image-keyboard-response,23
true,14,1,2,1,true,z,false,true,0.0-2.0-0.51-0.465-3.465,1,0,0,90,false,stim,false,2,520,0,0,2,68193,task2,1427188,false,false,1487,image-keyboard-response,24
true,14,0,2,0,true,q,false,true,0.0-2.0-0.51-0.466-3.466,1,0,0,81,false,stim,false,1,713,0,0,1,68193,task2,1429428,false,false,1490,image-keyboard-response,25
true,14,2,2,2,true,d,false,true,0.0-2.0-0.51-0.467-3.467,1,0,0,68,false,stim,false,2,1383,0,1,0,68193,task2,1432340,false,false,1493,image-keyboard-response,26
true,14,1,2,1,true,z,false,true,0.0-2.0-0.52-0.468-3.468,1,0,0,90,false,stim,false,2,1705,0,0,2,68193,task2,1435577,false,false,1496,image-keyboard-response,27
true,14,2,2,2,true,d,false,true,0.0-2.0-0.52-0.469-3.469,1,0,0,68,false,stim,false,2,1203,0,0,0,68193,task2,1438308,false,false,1499,image-keyboard-response,28
true,14,1,2,1,true,z,false,true,0.0-2.0-0.52-0.470-3.470,1,0,0,90,false,stim,false,2,779,0,0,2,68193,task2,1440641,false,false,1502,image-keyboard-response,29
true,14,0,2,0,true,q,false,true,0.0-2.0-0.52-0.471-3.471,1,0,0,81,false,stim,false,1,1033,0,1,1,68193,task2,1443197,false,false,1505,image-keyboard-response,30
true,14,1,2,1,true,z,false,true,0.0-2.0-0.52-0.472-3.472,1,0,0,90,false,stim,false,2,1273,0,0,2,68193,task2,1445991,false,false,1508,image-keyboard-response,31
true,15,2,2,1,false,z,false,false,0.0-2.0-0.52-0.473-3.473,0,1,0,68,true,stim,true,2,1563,0,0,0,68193,task2,1449084,false,false,1511,image-keyboard-response,1
true,15,0,2,0,true,q,false,true,0.0-2.0-0.52-0.474-3.474,0,1,0,81,false,stim,false,0,1283,0,1,1,68193,task2,1451902,false,false,1514,image-keyboard-response,2
true,15,1,2,1,true,z,false,false,0.0-2.0-0.52-0.475-3.475,0,1,0,90,false,stim,false,2,550,0,0,0,68193,task2,1453985,false,true,1517,image-keyboard-response,3
true,15,0,2,0,true,q,false,true,0.0-2.0-0.52-0.476-3.476,0,1,0,81,false,stim,false,0,1858,0,1,1,68193,task2,1457373,false,false,1520,image-keyboard-response,4
true,15,1,2,0,false,q,false,false,0.0-2.0-0.53-0.477-3.477,0,1,0,90,false,stim,true,1,949,0,0,2,68193,task2,1459851,false,false,1523,image-keyboard-response,5
true,15,0,2,1,false,z,true,false,0.0-2.0-0.53-0.478-3.478,0,1,0,81,false,stim,false,2,506,0,0,0,68193,task2,1461889,false,false,1526,image-keyboard-response,6
true,15,0,2,0,true,q,false,true,0.0-2.0-0.53-0.479-3.479,0,1,0,81,false,stim,false,1,1976,0,0,2,68193,task2,1465389,false,false,1529,image-keyboard-response,7
true,15,1,2,1,true,z,false,true,0.0-2.0-0.53-0.480-3.480,0,1,0,90,false,stim,false,2,602,0,0,0,68193,task2,1467522,false,false,1532,image-keyboard-response,8
true,15,0,2,0,true,q,false,true,0.0-2.0-0.53-0.481-3.481,0,1,0,81,false,stim,false,0,478,0,1,1,68193,task2,1469530,false,false,1535,image-keyboard-response,9
true,15,1,2,1,true,z,false,true,0.0-2.0-0.53-0.482-3.482,0,1,0,90,false,stim,false,2,1710,0,0,0,68193,task2,1472774,false,false,1538,image-keyboard-response,10
true,15,0,2,0,true,q,false,true,0.0-2.0-0.53-0.483-3.483,0,1,0,81,false,stim,false,1,568,0,0,2,68193,task2,1474862,false,false,1541,image-keyboard-response,11
true,15,0,2,0,true,q,false,true,0.0-2.0-0.53-0.484-3.484,0,1,0,81,false,stim,false,0,919,0,1,1,68193,task2,1477310,false,false,1544,image-keyboard-response,12
true,15,0,2,0,true,q,false,false,0.0-2.0-0.53-0.485-3.485,0,1,0,81,false,stim,false,0,1573,0,1,1,68193,task2,1480404,false,true,1547,image-keyboard-response,13
true,15,0,2,0,true,q,false,true,0.0-2.0-0.54-0.486-3.486,0,1,0,81,false,stim,false,1,1294,0,0,2,68193,task2,1483228,false,false,1550,image-keyboard-response,14
true,15,1,2,1,true,z,false,true,0.0-2.0-0.54-0.487-3.487,0,1,0,90,false,stim,false,2,1293,0,0,0,68193,task2,1486042,false,false,1553,image-keyboard-response,15
true,15,0,2,0,true,q,false,true,0.0-2.0-0.54-0.488-3.488,0,1,0,81,false,stim,false,0,1447,0,1,1,68193,task2,1489013,false,false,1556,image-keyboard-response,16
true,15,0,2,0,true,q,false,true,0.0-2.0-0.54-0.489-3.489,0,1,0,81,false,stim,false,0,657,0,1,1,68193,task2,1491198,false,false,1559,image-keyboard-response,17
true,15,1,2,1,true,z,false,true,0.0-2.0-0.54-0.490-3.490,0,1,0,90,false,stim,false,2,1422,0,0,0,68193,task2,1494137,false,false,1562,image-keyboard-response,18
true,15,0,2,0,true,q,false,true,0.0-2.0-0.54-0.491-3.491,0,1,0,81,false,stim,false,1,1054,0,0,2,68193,task2,1496719,false,false,1565,image-keyboard-response,19
true,15,0,2,0,true,q,false,true,0.0-2.0-0.54-0.492-3.492,0,1,0,81,false,stim,false,0,1414,0,1,1,68193,task2,1499654,false,false,1568,image-keyboard-response,20
true,15,1,2,1,true,z,false,true,0.0-2.0-0.54-0.493-3.493,0,1,0,90,false,stim,false,2,1269,0,0,0,68193,task2,1502443,false,false,1571,image-keyboard-response,21
true,15,0,2,0,true,q,false,true,0.0-2.0-0.54-0.494-3.494,0,1,0,81,false,stim,false,1,1319,0,0,2,68193,task2,1505281,false,false,1574,image-keyboard-response,22
true,15,0,2,0,true,q,false,true,0.0-2.0-0.55-0.495-3.495,0,1,0,81,false,stim,false,0,1049,0,1,1,68193,task2,1507847,false,false,1577,image-keyboard-response,23
true,15,0,2,0,true,q,false,true,0.0-2.0-0.55-0.496-3.496,0,1,0,81,false,stim,false,0,558,0,1,1,68193,task2,1509934,false,false,1580,image-keyboard-response,24
true,15,0,2,0,true,q,false,true,0.0-2.0-0.55-0.497-3.497,0,1,0,81,false,stim,false,1,873,0,0,2,68193,task2,1512335,false,false,1583,image-keyboard-response,25
true,15,1,2,1,true,z,false,true,0.0-2.0-0.55-0.498-3.498,0,1,0,90,false,stim,false,2,1680,0,0,0,68193,task2,1515532,false,false,1586,image-keyboard-response,26
true,15,0,2,0,true,q,false,true,0.0-2.0-0.55-0.499-3.499,0,1,0,81,false,stim,false,1,1537,0,0,2,68193,task2,1518587,false,false,1589,image-keyboard-response,27
true,15,1,2,1,true,z,false,true,0.0-2.0-0.55-0.500-3.500,0,1,0,90,false,stim,false,2,1475,0,0,0,68193,task2,1521591,false,false,1592,image-keyboard-response,28
true,15,1,2,1,true,z,false,true,0.0-2.0-0.55-0.501-3.501,0,1,0,90,false,stim,false,2,632,0,0,0,68193,task2,1523747,false,false,1595,image-keyboard-response,29
true,15,0,2,0,true,q,false,true,0.0-2.0-0.55-0.502-3.502,0,1,0,81,false,stim,false,1,712,0,0,2,68193,task2,1525976,false,false,1598,image-keyboard-response,30
true,15,0,2,0,true,q,false,true,0.0-2.0-0.55-0.503-3.503,0,1,0,81,false,stim,false,0,917,0,0,1,68193,task2,1528438,false,false,1601,image-keyboard-response,31
true,15,0,2,0,true,q,false,true,0.0-2.0-0.56-0.504-3.504,0,1,0,81,false,stim,false,0,1029,0,0,1,68193,task2,1530990,false,false,1604,image-keyboard-response,32
true,15,1,2,1,true,z,false,true,0.0-2.0-0.56-0.505-3.505,0,1,0,90,false,stim,false,2,1221,0,0,0,68193,task2,1533728,false,false,1607,image-keyboard-response,33
true,15,0,2,0,true,q,false,true,0.0-2.0-0.56-0.506-3.506,0,1,0,81,false,stim,false,0,716,0,0,1,68193,task2,1535960,false,false,1610,image-keyboard-response,34
true,15,1,2,1,true,z,false,true,0.0-2.0-0.56-0.507-3.507,0,1,0,90,false,stim,false,2,902,0,0,0,68193,task2,1538390,false,false,1613,image-keyboard-response,35
true,16,0,2,0,true,q,false,true,0.0-2.0-0.56-0.508-3.508,0,0,1,81,true,stim,false,0,1722,0,1,2,68193,task2,1541637,false,false,1616,image-keyboard-response,1
true,16,1,2,0,false,q,false,true,0.0-2.0-0.56-0.509-3.509,0,0,1,90,false,stim,true,1,932,0,0,0,68193,task2,1544102,false,true,1619,image-keyboard-response,2
true,16,0,2,0,true,q,false,true,0.0-2.0-0.56-0.510-3.510,0,0,1,81,false,stim,false,0,1376,0,1,2,68193,task2,1547002,false,false,1622,image-keyboard-response,3
true,16,0,2,0,true,q,false,true,0.0-2.0-0.56-0.511-3.511,0,0,1,81,false,stim,false,0,918,0,1,2,68193,task2,1549447,false,false,1625,image-keyboard-response,4
true,16,0,2,2,false,d,false,false,0.0-2.0-0.56-0.512-3.512,0,0,1,81,false,stim,true,0,728,0,0,1,68193,task2,1551714,false,false,1628,image-keyboard-response,5
true,16,0,2,0,true,q,false,true,0.0-2.0-0.57-0.513-3.513,0,0,1,81,false,stim,false,0,503,0,1,2,68193,task2,1553750,false,false,1631,image-keyboard-response,6
true,16,1,2,0,false,q,false,false,0.0-2.0-0.57-0.514-3.514,0,0,1,90,false,stim,true,1,1064,0,0,0,68193,task2,1556347,false,false,1634,image-keyboard-response,7
true,16,1,2,2,false,d,true,false,0.0-2.0-0.57-0.515-3.515,0,0,1,90,false,stim,false,0,984,0,0,1,68193,task2,1558853,false,false,1637,image-keyboard-response,8
true,16,0,2,0,true,q,false,true,0.0-2.0-0.57-0.516-3.516,0,0,1,81,false,stim,false,0,2173,0,1,2,68193,task2,1562538,false,false,1640,image-keyboard-response,9
true,16,2,2,2,true,d,false,true,0.0-2.0-0.57-0.517-3.517,0,0,1,68,false,stim,false,0,677,0,0,1,68193,task2,1564742,false,false,1643,image-keyboard-response,10
true,16,0,2,0,true,q,false,true,0.0-2.0-0.57-0.518-3.518,0,0,1,81,false,stim,false,0,1058,0,1,2,68193,task2,1567334,false,false,1646,image-keyboard-response,11
true,16,0,2,0,true,q,false,true,0.0-2.0-0.57-0.519-3.519,0,0,1,81,false,stim,false,1,581,0,0,0,68193,task2,1569436,false,false,1649,image-keyboard-response,12
true,16,2,2,2,true,d,false,true,0.0-2.0-0.57-0.520-3.520,0,0,1,68,false,stim,false,0,1231,0,0,1,68193,task2,1572189,false,false,1652,image-keyboard-response,13
true,16,0,2,0,true,q,false,true,0.0-2.0-0.57-0.521-3.521,0,0,1,81,false,stim,false,1,692,0,0,0,68193,task2,1574403,false,false,1655,image-keyboard-response,14
true,16,2,2,2,true,d,false,true,0.0-2.0-0.58-0.522-3.522,0,0,1,68,false,stim,false,0,1263,0,0,1,68193,task2,1577199,false,false,1658,image-keyboard-response,15
true,16,0,2,0,true,q,false,true,0.0-2.0-0.58-0.523-3.523,0,0,1,81,false,stim,false,1,909,0,0,0,68193,task2,1579636,false,false,1661,image-keyboard-response,16
true,16,2,2,2,true,d,false,true,0.0-2.0-0.58-0.524-3.524,0,0,1,68,false,stim,false,0,1107,0,0,1,68193,task2,1582280,false,false,1664,image-keyboard-response,17
true,16,0,2,0,true,q,false,false,0.0-2.0-0.58-0.525-3.525,0,0,1,81,false,stim,false,1,756,0,0,0,68193,task2,1584572,false,true,1667,image-keyboard-response,18
true,16,0,2,0,true,q,false,false,0.0-2.0-0.58-0.526-3.526,0,0,1,81,false,stim,false,0,940,0,1,2,68193,task2,1587040,false,true,1670,image-keyboard-response,19
true,16,2,2,2,true,d,false,true,0.0-2.0-0.58-0.527-3.527,0,0,1,68,false,stim,false,0,982,0,0,1,68193,task2,1589562,false,false,1673,image-keyboard-response,20
true,16,1,2,0,false,q,false,false,0.0-2.0-0.58-0.528-3.528,0,0,1,90,false,stim,true,1,1423,0,0,0,68193,task2,1592496,false,false,1676,image-keyboard-response,21
true,16,1,2,0,false,q,true,false,0.0-2.0-0.58-0.529-3.529,0,0,1,90,false,stim,false,0,1807,0,1,2,68193,task2,1595817,false,false,1679,image-keyboard-response,22
true,16,2,2,0,false,q,true,false,0.0-2.0-0.58-0.530-3.530,0,0,1,68,false,stim,false,0,818,0,1,2,68193,task2,1598151,false,false,1682,image-keyboard-response,23
true,16,2,2,0,false,q,true,false,0.0-2.0-0.59-0.531-3.531,0,0,1,68,false,stim,false,1,2123,0,0,0,68193,task2,1601800,false,false,1685,image-keyboard-response,24
true,16,0,2,0,true,q,false,true,0.0-2.0-0.59-0.532-3.532,0,0,1,81,false,stim,false,1,555,0,0,0,68193,task2,1603873,false,false,1688,image-keyboard-response,25
true,16,2,2,2,true,d,false,true,0.0-2.0-0.59-0.533-3.533,0,0,1,68,false,stim,false,0,1065,0,0,1,68193,task2,1606465,false,false,1691,image-keyboard-response,26
true,16,0,2,0,true,q,false,true,0.0-2.0-0.59-0.534-3.534,0,0,1,81,false,stim,false,1,1095,0,0,0,68193,task2,1609083,false,false,1694,image-keyboard-response,27
true,16,2,2,2,true,d,false,true,0.0-2.0-0.59-0.535-3.535,0,0,1,68,false,stim,false,0,1055,0,0,1,68193,task2,1611666,false,false,1697,image-keyboard-response,28
true,16,2,2,2,true,d,false,true,0.0-2.0-0.59-0.536-3.536,0,0,1,68,false,stim,false,0,1154,0,1,1,68193,task2,1614343,false,false,1700,image-keyboard-response,29
true,16,0,2,0,true,q,false,false,0.0-2.0-0.59-0.537-3.537,0,0,1,81,false,stim,false,0,974,0,1,2,68193,task2,1616881,false,true,1703,image-keyboard-response,30
true,16,2,2,0,false,q,true,false,0.0-2.0-0.59-0.538-3.538,0,0,1,68,false,stim,false,0,1094,0,1,2,68193,task2,1619512,false,false,1706,image-keyboard-response,31
true,16,1,2,0,false,q,true,false,0.0-2.0-0.59-0.539-3.539,0,0,1,90,false,stim,false,0,507,0,1,2,68193,task2,1621549,false,false,1709,image-keyboard-response,32
true,16,2,2,2,true,d,false,true,0.0-2.0-0.60-0.540-3.540,0,0,1,68,false,stim,false,0,1632,0,1,1,68193,task2,1624719,false,false,1712,image-keyboard-response,33
true,17,1,0,0,false,q,true,false,0.0-2.0-0.60-0.541-3.541,1,1,1,90,true,stim,false,0,2714,0,1,0,68193,task2,1750153,false,false,1835,image-keyboard-response,1
true,17,1,0,0,false,q,true,false,0.0-2.0-0.60-0.542-3.542,1,1,1,90,false,stim,false,0,1904,0,1,2,68193,task2,1753596,false,false,1838,image-keyboard-response,2
true,17,0,0,0,true,q,false,true,0.0-2.0-0.60-0.543-3.543,1,1,1,81,false,stim,false,0,1369,0,1,0,68193,task2,1756489,false,false,1841,image-keyboard-response,3
true,17,0,0,2,false,d,true,false,0.0-2.0-0.60-0.544-3.544,1,1,1,81,false,stim,false,2,919,0,1,1,68193,task2,1758940,false,false,1844,image-keyboard-response,4
true,17,0,0,0,true,q,false,true,0.0-2.0-0.60-0.545-3.545,1,1,1,81,false,stim,false,0,654,0,1,2,68193,task2,1761122,false,false,1847,image-keyboard-response,5
true,17,1,0,0,false,q,true,false,0.0-2.0-0.60-0.546-3.546,1,1,1,90,false,stim,false,0,1698,0,1,2,68193,task2,1764351,false,false,1850,image-keyboard-response,6
true,17,2,0,2,true,d,false,true,0.0-2.0-0.60-0.547-3.547,1,1,1,68,false,stim,false,2,1807,0,1,1,68193,task2,1767693,false,false,1853,image-keyboard-response,7
true,17,0,0,0,true,q,false,true,0.0-2.0-0.60-0.548-3.548,1,1,1,81,false,stim,false,0,702,0,1,0,68193,task2,1769928,false,false,1856,image-keyboard-response,8
true,17,0,0,0,true,q,false,true,0.0-2.0-0.61-0.549-3.549,1,1,1,81,false,stim,false,0,860,0,0,2,68193,task2,1772312,false,false,1859,image-keyboard-response,9
true,17,0,0,0,true,q,false,true,0.0-2.0-0.61-0.550-3.550,1,1,1,81,false,stim,false,0,767,0,0,2,68193,task2,1774600,false,false,1862,image-keyboard-response,10
true,17,2,0,2,true,d,false,false,0.0-2.0-0.61-0.551-3.551,1,1,1,68,false,stim,false,2,481,0,0,1,68193,task2,1776598,false,true,1865,image-keyboard-response,11
true,17,1,0,2,false,d,true,false,0.0-2.0-0.61-0.552-3.552,1,1,1,90,false,stim,false,2,1267,0,0,1,68193,task2,1779390,false,false,1868,image-keyboard-response,12
true,17,0,0,2,false,d,true,false,0.0-2.0-0.61-0.553-3.553,1,1,1,81,false,stim,false,2,607,0,0,1,68193,task2,1781529,false,false,1871,image-keyboard-response,13
true,18,1,1,1,true,z,false,true,0.0-2.0-0.61-0.554-3.554,0,0,0,90,true,stim,false,0,749,0,0,0,68193,task2,1783809,false,false,1874,image-keyboard-response,1
true,18,0,1,1,false,z,false,false,0.0-2.0-0.61-0.555-3.555,0,0,0,81,false,stim,true,0,1192,0,0,2,68193,task2,1786536,false,false,1877,image-keyboard-response,2
true,18,1,1,1,true,z,false,true,0.0-2.0-0.61-0.556-3.556,0,0,0,90,false,stim,false,0,464,0,0,0,68193,task2,1788519,false,false,1880,image-keyboard-response,3
true,18,1,1,1,true,z,false,true,0.0-2.0-0.61-0.557-3.557,0,0,0,90,false,stim,false,0,835,0,0,0,68193,task2,1790881,false,false,1883,image-keyboard-response,4
true,18,1,1,1,true,z,false,true,0.0-2.0-0.62-0.558-3.558,0,0,0,90,false,stim,false,0,540,0,0,0,68193,task2,1792938,false,false,1886,image-keyboard-response,5
true,18,0,1,1,false,z,false,false,0.0-2.0-0.62-0.559-3.559,0,0,0,81,false,stim,true,0,1209,0,0,2,68193,task2,1795676,false,false,1889,image-keyboard-response,6
true,18,2,1,1,false,z,true,false,0.0-2.0-0.62-0.560-3.560,0,0,0,68,false,stim,false,0,851,0,0,2,68193,task2,1798059,false,false,1892,image-keyboard-response,7
true,18,2,1,0,false,q,false,false,0.0-2.0-0.62-0.561-3.561,0,0,0,68,false,stim,true,2,983,0,0,1,68193,task2,1800566,false,false,1895,image-keyboard-response,8
true,18,1,1,1,true,z,false,true,0.0-2.0-0.62-0.562-3.562,0,0,0,90,false,stim,false,0,735,0,0,0,68193,task2,1802815,false,false,1898,image-keyboard-response,9
true,18,0,1,0,true,q,false,true,0.0-2.0-0.62-0.563-3.563,0,0,0,81,false,stim,false,2,709,0,0,1,68193,task2,1805085,false,false,1901,image-keyboard-response,10
true,18,0,1,0,true,q,false,true,0.0-2.0-0.62-0.564-3.564,0,0,0,81,false,stim,false,2,434,0,0,1,68193,task2,1807043,false,false,1904,image-keyboard-response,11
true,18,1,1,1,true,z,false,true,0.0-2.0-0.62-0.565-3.565,0,0,0,90,false,stim,false,0,498,0,0,2,68193,task2,1809076,false,false,1907,image-keyboard-response,12
true,18,1,1,1,true,z,false,true,0.0-2.0-0.62-0.566-3.566,0,0,0,90,false,stim,false,0,530,0,0,0,68193,task2,1811138,false,false,1910,image-keyboard-response,13
true,18,0,1,0,true,q,false,true,0.0-2.0-0.63-0.567-3.567,0,0,0,81,false,stim,false,2,1060,0,0,1,68193,task2,1813717,false,false,1913,image-keyboard-response,14
true,18,1,1,1,true,z,false,true,0.0-2.0-0.63-0.568-3.568,0,0,0,90,false,stim,false,0,1149,0,0,2,68193,task2,1816390,false,false,1916,image-keyboard-response,15
true,18,0,1,0,true,q,false,true,0.0-2.0-0.63-0.569-3.569,0,0,0,81,false,stim,false,2,1506,0,0,1,68193,task2,1819430,false,false,1919,image-keyboard-response,16
true,18,1,1,1,true,z,false,false,0.0-2.0-0.63-0.570-3.570,0,0,0,90,false,stim,false,0,693,0,0,0,68193,task2,1821656,false,true,1922,image-keyboard-response,17
true,18,2,1,1,false,z,true,false,0.0-2.0-0.63-0.571-3.571,0,0,0,68,false,stim,false,0,1728,0,0,0,68193,task2,1824911,false,false,1925,image-keyboard-response,18
true,18,1,1,1,true,z,false,false,0.0-2.0-0.63-0.572-3.572,0,0,0,90,false,stim,false,0,1924,0,0,2,68193,task2,1828365,false,true,1928,image-keyboard-response,19
true,18,0,1,0,true,q,false,true,0.0-2.0-0.63-0.573-3.573,0,0,0,81,false,stim,false,2,1199,0,0,1,68193,task2,1831103,false,false,1931,image-keyboard-response,20
true,18,0,1,1,false,z,false,false,0.0-2.0-0.63-0.574-3.574,0,0,0,81,false,stim,true,0,686,0,0,0,68193,task2,1833314,false,false,1934,image-keyboard-response,21
true,18,0,1,1,false,z,false,false,0.0-2.0-0.63-0.575-3.575,0,0,0,81,false,stim,true,0,939,0,0,2,68193,task2,1835775,false,false,1937,image-keyboard-response,22
false,18,-1,1,0,false,q,true,false,0.0-2.0-0.64-0.576-3.576,0,0,0,,false,stim,false,2,,0,0,1,68193,task2,1840297,false,false,1940,image-keyboard-response,23
true,18,0,1,0,true,q,false,true,0.0-2.0-0.64-0.577-3.577,0,0,0,81,false,stim,false,2,538,0,0,1,68193,task2,1842372,false,false,1943,image-keyboard-response,24
true,18,1,1,1,true,z,false,true,0.0-2.0-0.64-0.578-3.578,0,0,0,90,false,stim,false,0,578,0,0,2,68193,task2,1844466,false,false,1946,image-keyboard-response,25
true,18,1,1,1,true,z,false,true,0.0-2.0-0.64-0.579-3.579,0,0,0,90,false,stim,false,0,541,0,0,2,68193,task2,1846536,false,false,1949,image-keyboard-response,26
true,18,0,1,0,true,q,false,true,0.0-2.0-0.64-0.580-3.580,0,0,0,81,false,stim,false,2,840,0,0,1,68193,task2,1848904,false,false,1952,image-keyboard-response,27
true,18,1,1,1,true,z,false,true,0.0-2.0-0.64-0.581-3.581,0,0,0,90,false,stim,false,0,631,0,0,2,68193,task2,1851058,false,false,1955,image-keyboard-response,28
true,18,0,1,1,false,z,false,false,0.0-2.0-0.64-0.582-3.582,0,0,0,81,false,stim,true,0,1458,0,0,0,68193,task2,1854045,false,false,1958,image-keyboard-response,29
true,18,1,1,1,true,z,false,true,0.0-2.0-0.64-0.583-3.583,0,0,0,90,false,stim,false,0,976,0,0,0,68193,task2,1856548,false,false,1961,image-keyboard-response,30
true,18,1,1,1,true,z,false,true,0.0-2.0-0.64-0.584-3.584,0,0,0,90,false,stim,false,0,806,0,0,0,68193,task2,1858887,false,false,1964,image-keyboard-response,31
true,18,1,1,1,true,z,false,true,0.0-2.0-0.65-0.585-3.585,0,0,0,90,false,stim,false,0,532,0,0,0,68193,task2,1860944,false,false,1967,image-keyboard-response,32
true,18,0,1,0,true,q,false,true,0.0-2.0-0.65-0.586-3.586,0,0,0,81,false,stim,false,2,1308,0,1,1,68193,task2,1863791,false,false,1970,image-keyboard-response,33
true,18,1,1,1,true,z,false,true,0.0-2.0-0.65-0.587-3.587,0,0,0,90,false,stim,false,0,1548,0,0,2,68193,task2,1866875,false,false,1973,image-keyboard-response,34
true,18,0,1,0,true,q,false,true,0.0-2.0-0.65-0.588-3.588,0,0,0,81,false,stim,false,2,1020,0,1,1,68193,task2,1869427,false,false,1976,image-keyboard-response,35
true,18,1,1,1,true,z,false,true,0.0-2.0-0.65-0.589-3.589,0,0,0,90,false,stim,false,0,917,0,0,2,68193,task2,1871875,false,false,1979,image-keyboard-response,36
true,18,1,1,1,true,z,false,true,0.0-2.0-0.65-0.590-3.590,0,0,0,90,false,stim,false,0,1029,0,0,0,68193,task2,1874430,false,false,1982,image-keyboard-response,37
true,19,1,2,2,false,d,false,false,0.0-2.0-0.65-0.591-3.591,0,1,0,90,true,stim,true,1,1437,0,0,2,68193,task2,1877388,false,false,1985,image-keyboard-response,1
true,19,1,2,2,false,d,false,false,0.0-2.0-0.65-0.592-3.592,0,1,0,90,false,stim,true,1,1333,0,0,0,68193,task2,1880246,false,false,1988,image-keyboard-response,2
true,19,0,2,0,true,q,false,true,0.0-2.0-0.65-0.593-3.593,0,1,0,81,false,stim,false,0,1431,0,1,1,68193,task2,1883205,false,false,1991,image-keyboard-response,3
true,19,1,2,2,false,d,false,false,0.0-2.0-0.66-0.594-3.594,0,1,0,90,false,stim,true,1,847,0,0,2,68193,task2,1885573,false,false,1994,image-keyboard-response,4
true,19,1,2,2,false,d,false,false,0.0-2.0-0.66-0.595-3.595,0,1,0,90,false,stim,true,1,999,0,0,2,68193,task2,1888102,false,false,1997,image-keyboard-response,5
true,19,0,2,0,true,q,false,true,0.0-2.0-0.66-0.596-3.596,0,1,0,81,false,stim,false,0,1059,0,1,1,68193,task2,1890687,false,false,2000,image-keyboard-response,6
true,19,0,2,0,true,q,false,true,0.0-2.0-0.66-0.597-3.597,0,1,0,81,false,stim,false,0,840,0,1,1,68193,task2,1893089,false,false,2003,image-keyboard-response,7
true,19,1,2,2,false,d,false,false,0.0-2.0-0.66-0.598-3.598,0,1,0,90,false,stim,true,1,1133,0,0,0,68193,task2,1895747,false,false,2006,image-keyboard-response,8
true,19,2,2,2,true,d,false,true,0.0-2.0-0.66-0.599-3.599,0,1,0,68,false,stim,false,1,1513,0,0,0,68193,task2,1898782,false,false,2009,image-keyboard-response,9
true,19,0,2,0,true,q,false,true,0.0-2.0-0.66-0.600-3.600,0,1,0,81,false,stim,false,0,873,0,1,1,68193,task2,1901181,false,false,2012,image-keyboard-response,10
true,19,2,2,2,true,d,false,true,0.0-2.0-0.66-0.601-3.601,0,1,0,68,false,stim,false,1,649,0,0,0,68193,task2,1903353,false,false,2015,image-keyboard-response,11
true,19,1,2,2,false,d,false,true,0.0-2.0-0.66-0.602-3.602,0,1,0,90,false,stim,true,1,517,0,0,2,68193,task2,1905410,false,true,2018,image-keyboard-response,12
true,19,1,2,2,false,d,false,false,0.0-2.0-0.67-0.603-3.603,0,1,0,90,false,stim,true,1,685,0,0,2,68193,task2,1907621,false,false,2021,image-keyboard-response,13
true,19,0,2,0,true,q,false,true,0.0-2.0-0.67-0.604-3.604,0,1,0,81,false,stim,false,0,784,0,1,1,68193,task2,1909931,false,false,2024,image-keyboard-response,14
true,19,0,2,2,false,d,true,false,0.0-2.0-0.67-0.605-3.605,0,1,0,81,false,stim,false,1,742,0,0,2,68193,task2,1912205,false,false,2027,image-keyboard-response,15
true,19,2,2,2,true,d,false,true,0.0-2.0-0.67-0.606-3.606,0,1,0,68,false,stim,false,1,912,0,0,0,68193,task2,1914641,false,false,2030,image-keyboard-response,16
true,19,0,2,0,true,q,false,true,0.0-2.0-0.67-0.607-3.607,0,1,0,81,false,stim,false,0,758,0,1,1,68193,task2,1916931,false,false,2033,image-keyboard-response,17
true,19,2,2,2,true,d,false,true,0.0-2.0-0.67-0.608-3.608,0,1,0,68,false,stim,false,1,561,0,0,2,68193,task2,1919012,false,false,2036,image-keyboard-response,18
true,19,0,2,0,true,q,false,true,0.0-2.0-0.67-0.609-3.609,0,1,0,81,false,stim,false,0,677,0,1,1,68193,task2,1921216,false,false,2039,image-keyboard-response,19
true,19,2,2,2,true,d,false,false,0.0-2.0-0.67-0.610-3.610,0,1,0,68,false,stim,false,1,742,0,0,0,68193,task2,1923487,false,true,2042,image-keyboard-response,20
true,19,1,2,2,false,d,false,false,0.0-2.0-0.67-0.611-3.611,0,1,0,90,false,stim,true,1,800,0,0,0,68193,task2,1925819,false,false,2045,image-keyboard-response,21
true,19,0,2,2,false,d,true,false,0.0-2.0-0.68-0.612-3.612,0,1,0,81,false,stim,false,1,762,0,0,0,68193,task2,1928114,false,false,2048,image-keyboard-response,22
true,19,1,2,2,false,d,false,false,0.0-2.0-0.68-0.613-3.613,0,1,0,90,false,stim,true,1,629,0,0,0,68193,task2,1930273,false,false,2051,image-keyboard-response,23
true,19,2,2,2,true,d,false,true,0.0-2.0-0.68-0.614-3.614,0,1,0,68,false,stim,false,1,772,0,0,2,68193,task2,1932565,false,false,2054,image-keyboard-response,24
true,19,0,2,0,true,q,false,true,0.0-2.0-0.68-0.615-3.615,0,1,0,81,false,stim,false,0,762,0,1,1,68193,task2,1934867,false,false,2057,image-keyboard-response,25
true,19,2,2,2,true,d,false,true,0.0-2.0-0.68-0.616-3.616,0,1,0,68,false,stim,false,1,1866,0,0,2,68193,task2,1938266,false,false,2060,image-keyboard-response,26
true,19,0,2,0,true,q,false,true,0.0-2.0-0.68-0.617-3.617,0,1,0,81,false,stim,false,0,794,0,1,1,68193,task2,1940587,false,false,2063,image-keyboard-response,27
true,19,0,2,0,true,q,false,true,0.0-2.0-0.68-0.618-3.618,0,1,0,81,false,stim,false,0,976,0,0,1,68193,task2,1943094,false,false,2066,image-keyboard-response,28
true,19,2,2,2,true,d,false,false,0.0-2.0-0.68-0.619-3.619,0,1,0,68,false,stim,false,1,739,0,0,2,68193,task2,1945358,false,true,2069,image-keyboard-response,29
true,19,0,2,2,false,d,true,false,0.0-2.0-0.68-0.620-3.620,0,1,0,81,false,stim,false,1,2108,0,0,0,68193,task2,1948989,false,false,2072,image-keyboard-response,30
true,19,0,2,0,true,q,false,true,0.0-2.0-0.69-0.621-3.621,0,1,0,81,false,stim,false,0,409,0,0,1,68193,task2,1950930,false,false,2075,image-keyboard-response,31
true,19,1,2,2,false,d,false,false,0.0-2.0-0.69-0.622-3.622,0,1,0,90,false,stim,true,1,1330,0,0,0,68193,task2,1953790,false,false,2078,image-keyboard-response,32
true,20,2,1,0,false,q,false,false,0.0-2.0-0.69-0.623-3.623,0,0,0,68,true,stim,true,2,941,0,0,2,68193,task2,1956252,false,false,2081,image-keyboard-response,1
true,20,1,1,0,false,q,true,false,0.0-2.0-0.69-0.624-3.624,0,0,0,90,false,stim,false,2,908,0,0,2,68193,task2,1958689,false,false,2084,image-keyboard-response,2
true,20,0,1,0,true,q,false,true,0.0-2.0-0.69-0.625-3.625,0,0,0,81,false,stim,false,2,643,0,0,2,68193,task2,1960867,false,false,2087,image-keyboard-response,3
true,20,1,1,0,false,q,true,false,0.0-2.0-0.69-0.626-3.626,0,0,0,90,false,stim,false,2,1002,0,0,0,68193,task2,1963406,false,false,2090,image-keyboard-response,4
true,20,2,1,0,false,q,false,false,0.0-2.0-0.69-0.627-3.627,0,0,0,68,false,stim,true,2,657,0,0,0,68193,task2,1965593,false,false,2093,image-keyboard-response,5
true,20,0,1,1,false,z,false,false,0.0-2.0-0.69-0.628-3.628,0,0,0,81,false,stim,true,0,623,0,0,1,68193,task2,1967743,false,false,2096,image-keyboard-response,6
true,20,2,1,1,false,z,true,false,0.0-2.0-0.69-0.629-3.629,0,0,0,68,false,stim,false,0,499,0,0,1,68193,task2,1969775,false,false,2099,image-keyboard-response,7
true,20,1,1,1,true,z,false,true,0.0-2.0-0.70-0.630-3.630,0,0,0,90,false,stim,false,0,501,0,0,1,68193,task2,1971849,false,false,2102,image-keyboard-response,8
true,20,1,1,1,true,z,false,true,0.0-2.0-0.70-0.631-3.631,0,0,0,90,false,stim,false,0,778,0,0,1,68193,task2,1974164,false,false,2105,image-keyboard-response,9
