answered,blockNum,choice,condition,corResp,correct,correct_response,explo,fb,internal_node_id,isStable_1,isStable_2,isStable_3,key_press,newBlock,part,persev,persevResp,rt,sessNum,stableAS,stimulus,subject,task,time_elapsed,training,trap,trial_index,trial_type,trialsInBlock
true,1,1,0,0,false,q,true,false,0.0-2.0-0.0-0.0-3.0,0,0,0,90,true,stim,false,-1,1005.0999999046326,2,0,1,69221,task1,128305,false,false,79,image-keyboard-response,1
true,1,1,0,1,true,z,false,true,0.0-2.0-0.0-0.1-3.1,0,0,0,90,false,stim,false,-1,477.2000000476837,2,0,0,69221,task1,130300,false,false,82,image-keyboard-response,2
true,1,0,0,0,true,q,false,true,0.0-2.0-0.0-0.2-3.2,0,0,0,81,false,stim,false,-1,1125.0,2,0,1,69221,task1,132953,false,false,85,image-keyboard-response,3
true,1,1,0,1,true,z,false,true,0.0-2.0-0.0-0.3-3.3,0,0,0,90,false,stim,false,-1,493.2000000476837,2,0,0,69221,task1,134960,false,false,88,image-keyboard-response,4
true,1,1,0,1,true,z,false,true,0.0-2.0-0.0-0.4-3.4,0,0,0,90,false,stim,false,-1,488.89999985694885,2,0,0,69221,task1,136966,false,false,91,image-keyboard-response,5
true,1,2,0,0,false,q,true,false,0.0-2.0-0.0-0.5-3.5,0,0,0,68,false,stim,false,-1,785.6000001430511,2,0,2,69221,task1,139274,false,false,94,image-keyboard-response,6
true,1,0,0,0,true,q,false,true,0.0-2.0-0.0-0.6-3.6,0,0,0,81,false,stim,false,-1,844.1999998092651,2,0,1,69221,task1,141632,false,false,97,image-keyboard-response,7
true,1,0,0,0,true,q,false,true,0.0-2.0-0.0-0.7-3.7,0,0,0,81,false,stim,false,-1,371.2999999523163,2,0,2,69221,task1,143522,false,false,100,image-keyboard-response,8
true,1,0,0,0,true,q,false,true,0.0-2.0-0.0-0.8-3.8,0,0,0,81,false,stim,false,-1,593.1000001430511,2,0,2,69221,task1,145645,false,false,103,image-keyboard-response,9
true,1,0,0,0,true,q,false,false,0.0-2.0-0.1-0.9-3.9,0,0,0,81,false,stim,false,-1,650.5,2,0,1,69221,task1,147818,false,true,106,image-keyboard-response,10
true,1,0,0,0,true,q,false,true,0.0-2.0-0.1-0.10-3.10,0,0,0,81,false,stim,false,-1,641.7999999523163,2,0,1,69221,task1,149980,false,false,109,image-keyboard-response,11
true,1,1,0,1,true,z,false,true,0.0-2.0-0.1-0.11-3.11,0,0,0,90,false,stim,false,-1,568.2000000476837,2,0,0,69221,task1,152067,false,false,112,image-keyboard-response,12
true,1,1,0,1,true,z,false,true,0.0-2.0-0.1-0.12-3.12,0,0,0,90,false,stim,false,-1,519.7999999523163,2,0,0,69221,task1,154109,false,false,115,image-keyboard-response,13
true,1,0,0,0,true,q,false,true,0.0-2.0-0.1-0.13-3.13,0,0,0,81,false,stim,false,-1,384.10000014305115,2,0,2,69221,task1,156014,false,false,118,image-keyboard-response,14
true,1,0,0,0,true,q,false,true,0.0-2.0-0.1-0.14-3.14,0,0,0,81,false,stim,false,-1,465.0,2,0,2,69221,task1,157996,false,false,121,image-keyboard-response,15
true,1,1,0,0,false,q,true,false,0.0-2.0-0.1-0.15-3.15,0,0,0,90,false,stim,false,-1,462.60000014305115,2,0,1,69221,task1,159972,false,false,124,image-keyboard-response,16
true,1,1,0,0,false,q,true,false,0.0-2.0-0.1-0.16-3.16,0,0,0,90,false,stim,false,-1,1677.5,2,0,2,69221,task1,163165,false,false,127,image-keyboard-response,17
true,1,0,0,1,false,z,true,false,0.0-2.0-0.1-0.17-3.17,0,0,0,81,false,stim,false,-1,693.7000000476837,2,0,0,69221,task1,165384,false,false,130,image-keyboard-response,18
true,1,0,0,0,true,q,false,false,0.0-2.0-0.2-0.18-3.18,0,0,0,81,false,stim,false,-1,411.0,2,0,2,69221,task1,167308,false,true,133,image-keyboard-response,19
true,1,0,0,0,true,q,false,false,0.0-2.0-0.2-0.19-3.19,0,0,0,81,false,stim,false,-1,364.7000000476837,2,0,1,69221,task1,169203,false,true,136,image-keyboard-response,20
true,1,1,0,1,true,z,false,true,0.0-2.0-0.2-0.20-3.20,0,0,0,90,false,stim,false,-1,457.7000000476837,2,0,0,69221,task1,171185,false,false,139,image-keyboard-response,21
true,1,1,0,1,true,z,false,true,0.0-2.0-0.2-0.21-3.21,0,0,0,90,false,stim,false,-1,582.6999998092651,2,0,0,69221,task1,173290,false,false,142,image-keyboard-response,22
true,1,0,0,0,true,q,false,true,0.0-2.0-0.2-0.22-3.22,0,0,0,81,false,stim,false,-1,695.9000000953674,2,0,2,69221,task1,175507,false,false,145,image-keyboard-response,23
true,1,1,0,1,true,z,false,true,0.0-2.0-0.2-0.23-3.23,0,0,0,90,false,stim,false,-1,1085.0,2,0,0,69221,task1,178106,false,false,148,image-keyboard-response,24
true,1,0,0,0,true,q,false,true,0.0-2.0-0.2-0.24-3.24,0,0,0,81,false,stim,false,-1,1270.5,2,0,1,69221,task1,180891,false,false,151,image-keyboard-response,25
true,1,0,0,0,true,q,false,true,0.0-2.0-0.2-0.25-3.25,0,0,0,81,false,stim,false,-1,1369.4000000953674,2,0,2,69221,task1,183785,false,false,154,image-keyboard-response,26
true,2,0,1,1,false,z,false,false,0.0-2.0-0.2-0.26-3.26,0,0,0,81,true,stim,true,0,483.7999999523163,2,0,1,69221,task1,185789,false,false,157,image-keyboard-response,1
true,2,0,1,1,false,z,false,true,0.0-2.0-0.3-0.27-3.27,0,0,0,81,false,stim,true,0,822.3999998569489,2,0,2,69221,task1,188137,false,true,160,image-keyboard-response,2
true,2,1,1,0,false,q,false,false,0.0-2.0-0.3-0.28-3.28,0,0,0,90,false,stim,true,1,508.60000014305115,2,0,0,69221,task1,190164,false,false,163,image-keyboard-response,3
true,2,0,1,1,false,z,false,true,0.0-2.0-0.3-0.29-3.29,0,0,0,81,false,stim,true,0,491.90000009536743,2,0,2,69221,task1,192181,false,true,166,image-keyboard-response,4
true,2,1,1,0,false,q,false,false,0.0-2.0-0.3-0.30-3.30,0,0,0,90,false,stim,true,1,499.89999985694885,2,0,0,69221,task1,194203,false,false,169,image-keyboard-response,5
true,2,0,1,1,false,z,false,false,0.0-2.0-0.3-0.31-3.31,0,0,0,81,false,stim,true,0,326.2999999523163,2,0,1,69221,task1,196059,false,false,172,image-keyboard-response,6
true,2,0,1,1,false,z,false,false,0.0-2.0-0.3-0.32-3.32,0,0,0,81,false,stim,true,0,444.39999985694885,2,0,2,69221,task1,198031,false,false,175,image-keyboard-response,7
true,2,2,1,1,false,z,true,true,0.0-2.0-0.3-0.33-3.33,0,0,0,68,false,stim,false,0,701.9000000953674,2,0,1,69221,task1,200250,false,true,178,image-keyboard-response,8
true,2,2,1,0,false,q,true,false,0.0-2.0-0.3-0.34-3.34,0,0,0,68,false,stim,false,1,1107.3000001907349,2,0,0,69221,task1,202886,false,false,181,image-keyboard-response,9
true,2,2,1,1,false,z,true,false,0.0-2.0-0.3-0.35-3.35,0,0,0,68,false,stim,false,0,815.1000001430511,2,0,1,69221,task1,205216,false,false,184,image-keyboard-response,10
true,2,0,1,0,true,q,false,true,0.0-2.0-0.4-0.36-3.36,0,0,0,81,false,stim,false,1,552.0,2,0,0,69221,task1,207300,false,false,187,image-keyboard-response,11
true,2,0,1,0,true,q,false,true,0.0-2.0-0.4-0.37-3.37,0,0,0,81,false,stim,false,1,527.0,2,0,0,69221,task1,209348,false,false,190,image-keyboard-response,12
true,2,0,1,0,true,q,false,true,0.0-2.0-0.4-0.38-3.38,0,0,0,81,false,stim,false,1,421.60000014305115,2,0,0,69221,task1,211286,false,false,193,image-keyboard-response,13
true,2,2,1,1,false,z,true,false,0.0-2.0-0.4-0.39-3.39,0,0,0,68,false,stim,false,0,1248.7999999523163,2,0,2,69221,task1,214062,false,false,196,image-keyboard-response,14
true,2,2,1,1,false,z,true,false,0.0-2.0-0.4-0.40-3.40,0,0,0,68,false,stim,false,0,894.4000000953674,2,0,1,69221,task1,216473,false,false,199,image-keyboard-response,15
true,2,1,1,1,true,z,false,true,0.0-2.0-0.4-0.41-3.41,0,0,0,90,false,stim,false,0,763.5,2,0,1,69221,task1,218754,false,false,202,image-keyboard-response,16
true,2,1,1,1,true,z,false,true,0.0-2.0-0.4-0.42-3.42,0,0,0,90,false,stim,false,0,1057.5,2,0,1,69221,task1,221335,false,false,205,image-keyboard-response,17
true,2,1,1,1,true,z,false,true,0.0-2.0-0.4-0.43-3.43,0,0,0,90,false,stim,false,0,1154.1000001430511,2,0,2,69221,task1,224011,false,false,208,image-keyboard-response,18
true,2,1,1,1,true,z,false,true,0.0-2.0-0.4-0.44-3.44,0,0,0,90,false,stim,false,0,498.39999985694885,2,0,2,69221,task1,226026,false,false,211,image-keyboard-response,19
true,2,1,1,1,true,z,false,true,0.0-2.0-0.5-0.45-3.45,0,0,0,90,false,stim,false,0,566.7999999523163,2,0,1,69221,task1,228119,false,false,214,image-keyboard-response,20
true,2,1,1,1,true,z,false,false,0.0-2.0-0.5-0.46-3.46,0,0,0,90,false,stim,false,0,370.5,2,0,2,69221,task1,230009,false,true,217,image-keyboard-response,21
true,2,1,1,1,true,z,false,true,0.0-2.0-0.5-0.47-3.47,0,0,0,90,false,stim,false,0,556.3999998569489,2,0,1,69221,task1,232087,false,false,220,image-keyboard-response,22
true,2,1,1,1,true,z,false,true,0.0-2.0-0.5-0.48-3.48,0,0,0,90,false,stim,false,0,351.2999999523163,2,0,2,69221,task1,233965,false,false,223,image-keyboard-response,23
true,2,1,1,1,true,z,false,true,0.0-2.0-0.5-0.49-3.49,0,0,0,90,false,stim,false,0,437.89999985694885,2,0,2,69221,task1,235919,false,false,226,image-keyboard-response,24
true,2,0,1,0,true,q,false,true,0.0-2.0-0.5-0.50-3.50,0,0,0,81,false,stim,false,1,524.5,2,0,0,69221,task1,237970,false,false,229,image-keyboard-response,25
true,2,0,1,0,true,q,false,true,0.0-2.0-0.5-0.51-3.51,0,0,0,81,false,stim,false,1,608.7999999523163,2,0,0,69221,task1,240094,false,false,232,image-keyboard-response,26
true,2,0,1,0,true,q,false,true,0.0-2.0-0.5-0.52-3.52,0,0,0,81,false,stim,false,1,626.1000001430511,2,0,0,69221,task1,242245,false,false,235,image-keyboard-response,27
true,2,1,1,1,true,z,false,false,0.0-2.0-0.5-0.53-3.53,0,0,0,90,false,stim,false,0,1843.8999998569489,2,0,1,69221,task1,245610,false,true,238,image-keyboard-response,28
true,2,0,1,0,true,q,false,true,0.0-2.0-0.6-0.54-3.54,0,0,0,81,false,stim,false,1,555.2000000476837,2,0,0,69221,task1,247690,false,false,241,image-keyboard-response,29
true,2,1,1,1,true,z,false,true,0.0-2.0-0.6-0.55-3.55,0,0,0,90,false,stim,false,0,398.09999990463257,2,0,1,69221,task1,249616,false,false,244,image-keyboard-response,30
true,2,1,1,1,true,z,false,true,0.0-2.0-0.6-0.56-3.56,0,0,0,90,false,stim,false,0,523.9000000953674,2,0,2,69221,task1,251655,false,false,247,image-keyboard-response,31
true,2,1,1,1,true,z,false,true,0.0-2.0-0.6-0.57-3.57,0,0,0,90,false,stim,false,0,710.7000000476837,2,0,2,69221,task1,253886,false,false,250,image-keyboard-response,32
true,2,0,1,0,true,q,false,true,0.0-2.0-0.6-0.58-3.58,0,0,0,81,false,stim,false,1,643.6000001430511,2,0,0,69221,task1,256058,false,false,253,image-keyboard-response,33
true,2,1,1,1,true,z,false,false,0.0-2.0-0.6-0.59-3.59,0,0,0,90,false,stim,false,0,1133.2999999523163,2,0,1,69221,task1,258713,false,true,256,image-keyboard-response,34
true,2,1,1,1,true,z,false,false,0.0-2.0-0.6-0.60-3.60,0,0,0,90,false,stim,false,0,1045.8999998569489,2,0,2,69221,task1,261285,false,true,259,image-keyboard-response,35
true,2,0,1,0,true,q,false,true,0.0-2.0-0.6-0.61-3.61,0,0,0,81,false,stim,false,1,484.10000014305115,2,0,0,69221,task1,263293,false,false,262,image-keyboard-response,36
true,2,2,1,1,false,z,true,false,0.0-2.0-0.6-0.62-3.62,0,0,0,68,false,stim,false,0,516.9000000953674,2,0,1,69221,task1,265337,false,false,265,image-keyboard-response,37
true,2,0,1,0,true,q,false,true,0.0-2.0-0.7-0.63-3.63,0,0,0,81,false,stim,false,1,599.8000001907349,2,0,0,69221,task1,267461,false,false,268,image-keyboard-response,38
true,2,0,1,1,false,z,false,false,0.0-2.0-0.7-0.64-3.64,0,0,0,81,false,stim,true,0,1026.6000001430511,2,0,1,69221,task1,270009,false,false,271,image-keyboard-response,39
true,2,1,1,1,true,z,false,true,0.0-2.0-0.7-0.65-3.65,0,0,0,90,false,stim,false,0,497.7000000476837,2,0,1,69221,task1,272032,false,false,274,image-keyboard-response,40
true,2,1,1,1,true,z,false,true,0.0-2.0-0.7-0.66-3.66,0,0,0,90,false,stim,false,0,404.2000000476837,2,0,2,69221,task1,273953,false,false,277,image-keyboard-response,41
true,3,0,1,1,false,z,false,false,0.0-2.0-0.7-0.67-3.67,0,0,0,81,true,stim,true,0,408.2999999523163,2,0,0,69221,task1,275876,false,false,280,image-keyboard-response,1
true,3,1,1,2,false,d,false,false,0.0-2.0-0.7-0.68-3.68,0,0,0,90,false,stim,true,1,338.7999999523163,2,0,1,69221,task1,277740,false,false,283,image-keyboard-response,2
true,3,0,1,1,false,z,false,false,0.0-2.0-0.7-0.69-3.69,0,0,0,81,false,stim,true,0,525.0999999046326,2,0,0,69221,task1,279779,false,false,286,image-keyboard-response,3
true,3,1,1,2,false,d,false,false,0.0-2.0-0.7-0.70-3.70,0,0,0,90,false,stim,true,1,451.7000000476837,2,0,2,69221,task1,281745,false,false,289,image-keyboard-response,4
true,3,1,1,2,false,d,false,false,0.0-2.0-0.7-0.71-3.71,0,0,0,90,false,stim,true,1,380.09999990463257,2,0,2,69221,task1,283654,false,false,292,image-keyboard-response,5
true,3,1,1,2,false,d,false,false,0.0-2.0-0.8-0.72-3.72,0,0,0,90,false,stim,true,1,393.90000009536743,2,0,1,69221,task1,285571,false,false,295,image-keyboard-response,6
true,3,0,1,2,false,d,true,false,0.0-2.0-0.8-0.73-3.73,0,0,0,81,false,stim,false,1,477.2000000476837,2,0,2,69221,task1,287570,false,false,298,image-keyboard-response,7
true,3,1,1,1,true,z,false,true,0.0-2.0-0.8-0.74-3.74,0,0,0,90,false,stim,false,0,893.7999999523163,2,0,0,69221,task1,289984,false,false,301,image-keyboard-response,8
true,3,0,1,2,false,d,true,false,0.0-2.0-0.8-0.75-3.75,0,0,0,81,false,stim,false,1,448.09999990463257,2,0,2,69221,task1,291948,false,false,304,image-keyboard-response,9
true,3,2,1,2,true,d,false,false,0.0-2.0-0.8-0.76-3.76,0,0,0,68,false,stim,false,1,497.5,2,0,2,69221,task1,293961,false,true,307,image-keyboard-response,10
true,3,2,1,2,true,d,false,true,0.0-2.0-0.8-0.77-3.77,0,0,0,68,false,stim,false,1,1106.1000001430511,2,0,1,69221,task1,296596,false,false,310,image-keyboard-response,11
true,3,1,1,1,true,z,false,true,0.0-2.0-0.8-0.78-3.78,0,0,0,90,false,stim,false,0,875.7000000476837,2,0,0,69221,task1,298992,false,false,313,image-keyboard-response,12
true,3,2,1,2,true,d,false,false,0.0-2.0-0.8-0.79-3.79,0,0,0,68,false,stim,false,1,608.0,2,0,1,69221,task1,301121,false,true,316,image-keyboard-response,13
true,3,1,1,1,true,z,false,true,0.0-2.0-0.8-0.80-3.80,0,0,0,90,false,stim,false,0,436.7000000476837,2,0,0,69221,task1,303084,false,false,319,image-keyboard-response,14
true,3,1,1,1,true,z,false,true,0.0-2.0-0.9-0.81-3.81,0,0,0,90,false,stim,false,0,491.5,2,0,0,69221,task1,305100,false,false,322,image-keyboard-response,15
true,3,1,1,1,true,z,false,true,0.0-2.0-0.9-0.82-3.82,0,0,0,90,false,stim,false,0,407.39999985694885,2,0,0,69221,task1,307033,false,false,325,image-keyboard-response,16
true,3,2,1,2,true,d,false,true,0.0-2.0-0.9-0.83-3.83,0,0,0,68,false,stim,false,1,405.80000019073486,2,0,1,69221,task1,308968,false,false,328,image-keyboard-response,17
true,3,2,1,2,true,d,false,false,0.0-2.0-0.9-0.84-3.84,0,0,0,68,false,stim,false,1,971.7999999523163,2,0,2,69221,task1,311468,false,true,331,image-keyboard-response,18
true,3,1,1,2,false,d,false,false,0.0-2.0-0.9-0.85-3.85,0,0,0,90,false,stim,true,1,353.89999985694885,2,0,1,69221,task1,313341,false,false,334,image-keyboard-response,19
true,3,2,1,2,true,d,false,true,0.0-2.0-0.9-0.86-3.86,0,0,0,68,false,stim,false,1,604.1999998092651,2,0,1,69221,task1,315473,false,false,337,image-keyboard-response,20
true,3,2,1,2,true,d,false,true,0.0-2.0-0.9-0.87-3.87,0,0,0,68,false,stim,false,1,664.0,2,0,2,69221,task1,317657,false,false,340,image-keyboard-response,21
true,3,2,1,2,true,d,false,true,0.0-2.0-0.9-0.88-3.88,0,0,0,68,false,stim,false,1,595.0,2,0,2,69221,task1,319771,false,false,343,image-keyboard-response,22
true,3,1,1,1,true,z,false,false,0.0-2.0-0.9-0.89-3.89,0,0,0,90,false,stim,false,0,327.0,2,0,0,69221,task1,321623,false,true,346,image-keyboard-response,23
true,3,2,1,2,true,d,false,true,0.0-2.0-0.10-0.90-3.90,0,0,0,68,false,stim,false,1,418.40000009536743,2,0,2,69221,task1,323568,false,false,349,image-keyboard-response,24
true,3,2,1,2,true,d,false,true,0.0-2.0-0.10-0.91-3.91,0,0,0,68,false,stim,false,1,330.40000009536743,2,0,1,69221,task1,325426,false,false,352,image-keyboard-response,25
true,3,1,1,1,true,z,false,true,0.0-2.0-0.10-0.92-3.92,0,0,0,90,false,stim,false,0,495.7999999523163,2,0,0,69221,task1,327445,false,false,355,image-keyboard-response,26
true,3,2,1,2,true,d,false,true,0.0-2.0-0.10-0.93-3.93,0,0,0,68,false,stim,false,1,475.40000009536743,2,0,1,69221,task1,329449,false,false,358,image-keyboard-response,27
true,3,1,1,1,true,z,false,false,0.0-2.0-0.10-0.94-3.94,0,0,0,90,false,stim,false,0,380.39999985694885,2,0,0,69221,task1,331348,false,true,361,image-keyboard-response,28
true,3,1,1,2,false,d,false,false,0.0-2.0-0.10-0.95-3.95,0,0,0,90,false,stim,true,1,449.2000000476837,2,0,2,69221,task1,333319,false,false,364,image-keyboard-response,29
true,3,1,1,1,true,z,false,true,0.0-2.0-0.10-0.96-3.96,0,0,0,90,false,stim,false,0,537.6000001430511,2,0,0,69221,task1,335373,false,false,367,image-keyboard-response,30
true,3,2,1,2,true,d,false,false,0.0-2.0-0.10-0.97-3.97,0,0,0,68,false,stim,false,1,553.5,2,0,1,69221,task1,337445,false,true,370,image-keyboard-response,31
true,3,2,1,2,true,d,false,false,0.0-2.0-0.10-0.98-3.98,0,0,0,68,false,stim,false,1,364.7999999523163,2,0,2,69221,task1,339329,false,true,373,image-keyboard-response,32
true,3,2,1,2,true,d,false,true,0.0-2.0-0.11-0.99-3.99,0,0,0,68,false,stim,false,1,323.59999990463257,2,0,2,69221,task1,341166,false,false,376,image-keyboard-response,33
true,3,1,1,1,true,z,false,true,0.0-2.0-0.11-0.100-3.100,0,0,0,90,false,stim,false,0,459.40000009536743,2,0,0,69221,task1,343145,false,false,379,image-keyboard-response,34
true,3,2,1,2,true,d,false,true,0.0-2.0-0.11-0.101-3.101,0,0,0,68,false,stim,false,1,361.7000000476837,2,0,1,69221,task1,345025,false,false,382,image-keyboard-response,35
true,3,2,1,2,true,d,false,true,0.0-2.0-0.11-0.102-3.102,0,0,0,68,false,stim,false,1,721.7000000476837,2,0,2,69221,task1,347273,false,false,385,image-keyboard-response,36
true,3,2,1,2,true,d,false,true,0.0-2.0-0.11-0.103-3.103,0,0,0,68,false,stim,false,1,486.80000019073486,2,0,1,69221,task1,349281,false,false,388,image-keyboard-response,37
true,3,2,1,2,true,d,false,true,0.0-2.0-0.11-0.104-3.104,0,0,0,68,false,stim,false,1,727.5,2,0,2,69221,task1,351532,false,false,391,image-keyboard-response,38
true,3,2,1,2,true,d,false,true,0.0-2.0-0.11-0.105-3.105,0,0,0,68,false,stim,false,1,468.2999999523163,2,0,1,69221,task1,353527,false,false,394,image-keyboard-response,39
true,3,1,1,1,true,z,false,true,0.0-2.0-0.11-0.106-3.106,0,0,0,90,false,stim,false,0,465.7000000476837,2,0,0,69221,task1,355517,false,false,397,image-keyboard-response,40
true,3,1,1,1,true,z,false,true,0.0-2.0-0.11-0.107-3.107,0,0,0,90,false,stim,false,0,472.7999999523163,2,0,0,69221,task1,357505,false,false,400,image-keyboard-response,41
true,4,2,1,1,false,z,false,false,0.0-2.0-0.12-0.108-3.108,0,0,0,68,true,stim,true,2,539.1000001430511,2,0,2,69221,task1,359571,false,false,403,image-keyboard-response,1
true,4,1,1,2,false,d,false,false,0.0-2.0-0.12-0.109-3.109,0,0,0,90,false,stim,true,1,639.2999999523163,2,0,0,69221,task1,361728,false,false,406,image-keyboard-response,2
true,4,1,1,2,false,d,false,false,0.0-2.0-0.12-0.110-3.110,0,0,0,90,false,stim,true,1,428.5,2,0,0,69221,task1,363684,false,false,409,image-keyboard-response,3
true,4,2,1,1,false,z,false,false,0.0-2.0-0.12-0.111-3.111,0,0,0,68,false,stim,true,2,589.0,2,0,2,69221,task1,365793,false,false,412,image-keyboard-response,4
true,4,2,1,1,false,z,false,true,0.0-2.0-0.12-0.112-3.112,0,0,0,68,false,stim,true,2,504.80000019073486,2,0,2,69221,task1,367826,false,true,415,image-keyboard-response,5
true,4,2,1,1,false,z,false,false,0.0-2.0-0.12-0.113-3.113,0,0,0,68,false,stim,true,2,660.0,2,0,1,69221,task1,370006,false,false,418,image-keyboard-response,6
true,4,1,1,1,true,z,false,true,0.0-2.0-0.12-0.114-3.114,0,0,0,90,false,stim,false,2,481.09999990463257,2,0,1,69221,task1,372008,false,false,421,image-keyboard-response,7
true,4,1,1,2,false,d,false,false,0.0-2.0-0.12-0.115-3.115,0,0,0,90,false,stim,true,1,549.1000001430511,2,0,0,69221,task1,374085,false,false,424,image-keyboard-response,8
true,4,1,1,1,true,z,false,true,0.0-2.0-0.12-0.116-3.116,0,0,0,90,false,stim,false,2,386.89999985694885,2,0,1,69221,task1,375995,false,false,427,image-keyboard-response,9
true,4,2,1,1,false,z,false,false,0.0-2.0-0.13-0.117-3.117,0,0,0,68,false,stim,true,2,679.8999998569489,2,0,2,69221,task1,378187,false,false,430,image-keyboard-response,10
true,4,1,1,1,true,z,false,true,0.0-2.0-0.13-0.118-3.118,0,0,0,90,false,stim,false,2,951.2999999523163,2,0,1,69221,task1,380652,false,false,433,image-keyboard-response,11
true,4,2,1,2,true,d,false,true,0.0-2.0-0.13-0.119-3.119,0,0,0,68,false,stim,false,1,647.0,2,0,0,69221,task1,382821,false,false,436,image-keyboard-response,12
true,4,2,1,2,true,d,false,true,0.0-2.0-0.13-0.120-3.120,0,0,0,68,false,stim,false,1,617.7999999523163,2,0,0,69221,task1,384955,false,false,439,image-keyboard-response,13
true,4,2,1,1,false,z,false,false,0.0-2.0-0.13-0.121-3.121,0,0,0,68,false,stim,true,2,904.8000001907349,2,0,2,69221,task1,387375,false,false,442,image-keyboard-response,14
true,4,1,1,1,true,z,false,true,0.0-2.0-0.13-0.122-3.122,0,0,0,90,false,stim,false,2,431.89999985694885,2,0,2,69221,task1,389323,false,false,445,image-keyboard-response,15
true,4,1,1,1,true,z,false,true,0.0-2.0-0.13-0.123-3.123,0,0,0,90,false,stim,false,2,1277.8000001907349,2,0,1,69221,task1,392128,false,false,448,image-keyboard-response,16
true,4,1,1,1,true,z,false,true,0.0-2.0-0.13-0.124-3.124,0,0,0,90,false,stim,false,2,479.59999990463257,2,0,1,69221,task1,394132,false,false,451,image-keyboard-response,17
true,4,2,1,2,true,d,false,true,0.0-2.0-0.13-0.125-3.125,0,0,0,68,false,stim,false,1,671.2999999523163,2,0,0,69221,task1,396335,false,false,454,image-keyboard-response,18
true,4,1,1,1,true,z,false,true,0.0-2.0-0.14-0.126-3.126,0,0,0,90,false,stim,false,2,1050.8999998569489,2,0,1,69221,task1,398907,false,false,457,image-keyboard-response,19
true,4,1,1,1,true,z,false,true,0.0-2.0-0.14-0.127-3.127,0,0,0,90,false,stim,false,2,826.2000000476837,2,0,2,69221,task1,401251,false,false,460,image-keyboard-response,20
true,4,2,1,2,true,d,false,true,0.0-2.0-0.14-0.128-3.128,0,0,0,68,false,stim,false,1,394.7999999523163,2,0,0,69221,task1,403163,false,false,463,image-keyboard-response,21
true,4,1,1,1,true,z,false,true,0.0-2.0-0.14-0.129-3.129,0,0,0,90,false,stim,false,2,443.40000009536743,2,0,2,69221,task1,405133,false,false,466,image-keyboard-response,22
true,4,1,1,1,true,z,false,true,0.0-2.0-0.14-0.130-3.130,0,0,0,90,false,stim,false,2,557.4000000953674,2,0,2,69221,task1,407213,false,false,469,image-keyboard-response,23
true,4,2,1,2,true,d,false,true,0.0-2.0-0.14-0.131-3.131,0,0,0,68,false,stim,false,1,709.8000001907349,2,0,0,69221,task1,409439,false,false,472,image-keyboard-response,24
true,4,1,1,1,true,z,false,true,0.0-2.0-0.14-0.132-3.132,0,0,0,90,false,stim,false,2,552.7000000476837,2,0,1,69221,task1,411522,false,false,475,image-keyboard-response,25
true,4,2,1,2,true,d,false,true,0.0-2.0-0.14-0.133-3.133,0,0,0,68,false,stim,false,1,668.3000001907349,2,0,0,69221,task1,413715,false,false,478,image-keyboard-response,26
true,4,1,1,1,true,z,false,true,0.0-2.0-0.14-0.134-3.134,0,0,0,90,false,stim,false,2,413.59999990463257,2,0,1,69221,task1,415657,false,false,481,image-keyboard-response,27
true,4,2,1,2,true,d,false,false,0.0-2.0-0.15-0.135-3.135,0,0,0,68,false,stim,false,1,1692.0,2,0,0,69221,task1,418866,false,true,484,image-keyboard-response,28
true,4,1,1,1,true,z,false,true,0.0-2.0-0.15-0.136-3.136,0,0,0,90,false,stim,false,2,449.2999999523163,2,0,2,69221,task1,420832,false,false,487,image-keyboard-response,29
true,4,1,1,1,true,z,false,true,0.0-2.0-0.15-0.137-3.137,0,0,0,90,false,stim,false,2,539.7999999523163,2,0,2,69221,task1,422883,false,false,490,image-keyboard-response,30
true,4,1,1,1,true,z,false,true,0.0-2.0-0.15-0.138-3.138,0,0,0,90,false,stim,false,2,532.7000000476837,2,0,1,69221,task1,424934,false,false,493,image-keyboard-response,31
true,4,1,1,1,true,z,false,true,0.0-2.0-0.15-0.139-3.139,0,0,0,90,false,stim,false,2,488.09999990463257,2,0,2,69221,task1,426945,false,false,496,image-keyboard-response,32
true,4,1,1,1,true,z,false,true,0.0-2.0-0.15-0.140-3.140,0,0,0,90,false,stim,false,2,526.0,2,0,1,69221,task1,428990,false,false,499,image-keyboard-response,33
true,4,1,1,1,true,z,false,true,0.0-2.0-0.15-0.141-3.141,0,0,0,90,false,stim,false,2,544.7999999523163,2,0,1,69221,task1,431060,false,false,502,image-keyboard-response,34
true,4,2,1,2,true,d,false,true,0.0-2.0-0.15-0.142-3.142,0,0,0,68,false,stim,false,1,772.5999999046326,2,0,0,69221,task1,433365,false,false,505,image-keyboard-response,35
true,4,2,1,2,true,d,false,true,0.0-2.0-0.15-0.143-3.143,0,0,0,68,false,stim,false,1,432.19999980926514,2,0,0,69221,task1,435309,false,false,508,image-keyboard-response,36
true,4,2,1,2,true,d,false,true,0.0-2.0-0.16-0.144-3.144,0,0,0,68,false,stim,false,1,385.2999999523163,2,0,0,69221,task1,437222,false,false,511,image-keyboard-response,37
true,4,1,1,1,true,z,false,true,0.0-2.0-0.16-0.145-3.145,0,0,0,90,false,stim,false,2,517.7999999523163,2,0,2,69221,task1,439255,false,false,514,image-keyboard-response,38
true,4,2,1,2,true,d,false,true,0.0-2.0-0.16-0.146-3.146,0,0,0,68,false,stim,false,1,877.0,2,0,0,69221,task1,441652,false,false,517,image-keyboard-response,39
true,5,1,2,2,false,d,false,false,0.0-2.0-0.16-0.147-3.147,0,0,0,90,true,stim,true,1,1194.6000001430511,2,0,1,69221,task1,444366,false,false,520,image-keyboard-response,1
true,5,1,2,2,false,d,false,false,0.0-2.0-0.16-0.148-3.148,0,0,0,90,false,stim,true,1,426.2000000476837,2,0,1,69221,task1,446309,false,false,523,image-keyboard-response,2
true,5,1,2,2,false,d,false,false,0.0-2.0-0.16-0.149-3.149,0,0,0,90,false,stim,true,1,633.0,2,0,2,69221,task1,448462,false,false,526,image-keyboard-response,3
true,5,1,2,2,false,d,false,false,0.0-2.0-0.16-0.150-3.150,0,0,0,90,false,stim,true,1,660.9000000953674,2,0,1,69221,task1,450639,false,false,529,image-keyboard-response,4
true,5,2,2,1,false,z,false,false,0.0-2.0-0.16-0.151-3.151,0,0,0,68,false,stim,true,2,526.5,2,0,0,69221,task1,452680,false,false,532,image-keyboard-response,5
true,5,1,2,2,false,d,false,false,0.0-2.0-0.16-0.152-3.152,0,0,0,90,false,stim,true,1,1365.9000000953674,2,0,2,69221,task1,455561,false,false,535,image-keyboard-response,6
true,5,2,2,1,false,z,false,true,0.0-2.0-0.17-0.153-3.153,0,0,0,68,false,stim,true,2,772.5999999046326,2,0,0,69221,task1,457860,false,true,538,image-keyboard-response,7
true,5,0,2,2,false,d,true,false,0.0-2.0-0.17-0.154-3.154,0,0,0,81,false,stim,false,1,508.5,2,0,2,69221,task1,459896,false,false,541,image-keyboard-response,8
true,5,0,2,2,false,d,true,false,0.0-2.0-0.17-0.155-3.155,0,0,0,81,false,stim,false,1,419.40000009536743,2,0,1,69221,task1,461843,false,false,544,image-keyboard-response,9
true,5,2,2,1,false,z,false,false,0.0-2.0-0.17-0.156-3.156,0,0,0,68,false,stim,true,2,428.0,2,0,0,69221,task1,463800,false,false,547,image-keyboard-response,10
true,5,2,2,2,true,d,false,true,0.0-2.0-0.17-0.157-3.157,0,0,0,68,false,stim,false,1,968.6000001430511,2,0,2,69221,task1,466286,false,false,550,image-keyboard-response,11
true,5,2,2,1,false,z,false,false,0.0-2.0-0.17-0.158-3.158,0,0,0,68,false,stim,true,2,737.7999999523163,2,0,0,69221,task1,468540,false,false,553,image-keyboard-response,12
true,5,2,2,2,true,d,false,true,0.0-2.0-0.17-0.159-3.159,0,0,0,68,false,stim,false,1,682.0,2,0,1,69221,task1,470747,false,false,556,image-keyboard-response,13
true,5,2,2,2,true,d,false,true,0.0-2.0-0.17-0.160-3.160,0,0,0,68,false,stim,false,1,376.0,2,0,1,69221,task1,472641,false,false,559,image-keyboard-response,14
true,5,2,2,2,true,d,false,true,0.0-2.0-0.17-0.161-3.161,0,0,0,68,false,stim,false,1,452.5,2,0,2,69221,task1,474612,false,false,562,image-keyboard-response,15
true,5,0,2,1,false,z,true,true,0.0-2.0-0.18-0.162-3.162,0,0,0,81,false,stim,false,2,399.60000014305115,2,0,0,69221,task1,476532,false,true,565,image-keyboard-response,16
true,5,2,2,2,true,d,false,false,0.0-2.0-0.18-0.163-3.163,0,0,0,68,false,stim,false,1,457.89999985694885,2,0,2,69221,task1,478508,false,true,568,image-keyboard-response,17
true,5,2,2,2,true,d,false,true,0.0-2.0-0.18-0.164-3.164,0,0,0,68,false,stim,false,1,377.90000009536743,2,0,1,69221,task1,480404,false,false,571,image-keyboard-response,18
true,5,2,2,2,true,d,false,true,0.0-2.0-0.18-0.165-3.165,0,0,0,68,false,stim,false,1,361.5,2,0,1,69221,task1,482280,false,false,574,image-keyboard-response,19
true,5,0,2,1,false,z,true,false,0.0-2.0-0.18-0.166-3.166,0,0,0,81,false,stim,false,2,603.9000000953674,2,0,0,69221,task1,484405,false,false,577,image-keyboard-response,20
true,5,0,2,1,false,z,true,false,0.0-2.0-0.18-0.167-3.167,0,0,0,81,false,stim,false,2,689.4000000953674,2,0,0,69221,task1,486605,false,false,580,image-keyboard-response,21
true,5,2,2,2,true,d,false,true,0.0-2.0-0.18-0.168-3.168,0,0,0,68,false,stim,false,1,443.2999999523163,2,0,1,69221,task1,488564,false,false,583,image-keyboard-response,22
true,5,2,2,2,true,d,false,false,0.0-2.0-0.18-0.169-3.169,0,0,0,68,false,stim,false,1,565.9000000953674,2,0,2,69221,task1,490651,false,true,586,image-keyboard-response,23
true,5,2,2,2,true,d,false,true,0.0-2.0-0.18-0.170-3.170,0,0,0,68,false,stim,false,1,550.5,2,0,2,69221,task1,492723,false,false,589,image-keyboard-response,24
true,5,2,2,2,true,d,false,false,0.0-2.0-0.19-0.171-3.171,0,0,0,68,false,stim,false,1,317.39999985694885,2,0,1,69221,task1,494564,false,true,592,image-keyboard-response,25
true,5,0,2,1,false,z,true,true,0.0-2.0-0.19-0.172-3.172,0,0,0,81,false,stim,false,2,1025.2000000476837,2,0,0,69221,task1,497110,false,true,595,image-keyboard-response,26
true,5,2,2,2,true,d,false,false,0.0-2.0-0.19-0.173-3.173,0,0,0,68,false,stim,false,1,494.19999980926514,2,0,2,69221,task1,499127,false,true,598,image-keyboard-response,27
true,5,1,2,2,false,d,false,false,0.0-2.0-0.19-0.174-3.174,0,0,0,90,false,stim,true,1,420.2999999523163,2,0,1,69221,task1,501072,false,false,601,image-keyboard-response,28
true,5,2,2,2,true,d,false,true,0.0-2.0-0.19-0.175-3.175,0,0,0,68,false,stim,false,1,848.5999999046326,2,0,1,69221,task1,503441,false,false,604,image-keyboard-response,29
true,5,0,2,1,false,z,true,false,0.0-2.0-0.19-0.176-3.176,0,0,0,81,false,stim,false,2,517.2000000476837,2,0,0,69221,task1,505489,false,false,607,image-keyboard-response,30
true,5,0,2,1,false,z,true,false,0.0-2.0-0.19-0.177-3.177,0,0,0,81,false,stim,false,2,697.5,2,0,0,69221,task1,507714,false,false,610,image-keyboard-response,31
true,5,2,2,2,true,d,false,true,0.0-2.0-0.19-0.178-3.178,0,0,0,68,false,stim,false,1,475.7999999523163,2,0,2,69221,task1,509720,false,false,613,image-keyboard-response,32
true,5,2,2,2,true,d,false,true,0.0-2.0-0.19-0.179-3.179,0,0,0,68,false,stim,false,1,391.0,2,0,2,69221,task1,511626,false,false,616,image-keyboard-response,33
true,5,1,2,1,true,z,false,true,0.0-2.0-0.20-0.180-3.180,0,0,0,90,false,stim,false,2,467.59999990463257,2,0,0,69221,task1,513616,false,false,619,image-keyboard-response,34
true,5,2,2,2,true,d,false,true,0.0-2.0-0.20-0.181-3.181,0,0,0,68,false,stim,false,1,424.7999999523163,2,0,2,69221,task1,515567,false,false,622,image-keyboard-response,35
true,5,1,2,1,true,z,false,false,0.0-2.0-0.20-0.182-3.182,0,0,0,90,false,stim,false,2,527.5,2,0,0,69221,task1,517618,false,true,625,image-keyboard-response,36
true,5,2,2,2,true,d,false,true,0.0-2.0-0.20-0.183-3.183,0,0,0,68,false,stim,false,1,763.8000001907349,2,0,2,69221,task1,519909,false,false,628,image-keyboard-response,37
true,5,2,2,2,true,d,false,true,0.0-2.0-0.20-0.184-3.184,0,0,0,68,false,stim,false,1,623.2999999523163,2,0,1,69221,task1,522056,false,false,631,image-keyboard-response,38
true,5,2,2,2,true,d,false,true,0.0-2.0-0.20-0.185-3.185,0,0,0,68,false,stim,false,1,514.0,2,0,2,69221,task1,524094,false,false,634,image-keyboard-response,39
true,5,2,2,2,true,d,false,true,0.0-2.0-0.20-0.186-3.186,0,0,0,68,false,stim,false,1,468.90000009536743,2,0,1,69221,task1,526087,false,false,637,image-keyboard-response,40
true,5,2,2,2,true,d,false,true,0.0-2.0-0.20-0.187-3.187,0,0,0,68,false,stim,false,1,497.60000014305115,2,0,1,69221,task1,528099,false,false,640,image-keyboard-response,41
true,5,1,2,1,true,z,false,true,0.0-2.0-0.20-0.188-3.188,0,0,0,90,false,stim,false,2,466.30000019073486,2,0,0,69221,task1,530094,false,false,643,image-keyboard-response,42
true,5,1,2,1,true,z,false,true,0.0-2.0-0.21-0.189-3.189,0,0,0,90,false,stim,false,2,433.5,2,0,0,69221,task1,532038,false,false,646,image-keyboard-response,43
true,5,2,2,2,true,d,false,true,0.0-2.0-0.21-0.190-3.190,0,0,0,68,false,stim,false,1,505.7999999523163,2,0,2,69221,task1,534060,false,false,649,image-keyboard-response,44
true,5,1,2,1,true,z,false,true,0.0-2.0-0.21-0.191-3.191,0,0,0,90,false,stim,false,2,468.2999999523163,2,0,0,69221,task1,536051,false,false,652,image-keyboard-response,45
true,6,1,2,2,false,d,false,false,0.0-2.0-0.21-0.192-3.192,0,0,0,90,true,stim,true,1,407.2000000476837,2,0,0,69221,task1,537981,false,false,655,image-keyboard-response,1
true,6,2,2,1,false,z,false,false,0.0-2.0-0.21-0.193-3.193,0,0,0,68,false,stim,true,2,573.7000000476837,2,0,1,69221,task1,540078,false,false,658,image-keyboard-response,2
true,6,2,2,1,false,z,false,false,0.0-2.0-0.21-0.194-3.194,0,0,0,68,false,stim,true,2,495.5,2,0,2,69221,task1,542099,false,false,661,image-keyboard-response,3
true,6,2,2,1,false,z,false,false,0.0-2.0-0.21-0.195-3.195,0,0,0,68,false,stim,true,2,577.2000000476837,2,0,1,69221,task1,544205,false,false,664,image-keyboard-response,4
true,6,2,2,1,false,z,false,false,0.0-2.0-0.21-0.196-3.196,0,0,0,68,false,stim,true,2,622.7999999523163,2,0,2,69221,task1,546346,false,false,667,image-keyboard-response,5
true,6,2,2,1,false,z,false,false,0.0-2.0-0.21-0.197-3.197,0,0,0,68,false,stim,true,2,650.6999998092651,2,0,1,69221,task1,548525,false,false,670,image-keyboard-response,6
true,6,1,2,2,false,d,false,false,0.0-2.0-0.22-0.198-3.198,0,0,0,90,false,stim,true,1,1389.7999999523163,2,0,0,69221,task1,551445,false,false,673,image-keyboard-response,7
true,6,1,2,1,true,z,false,true,0.0-2.0-0.22-0.199-3.199,0,0,0,90,false,stim,false,2,1867.7000000476837,2,0,1,69221,task1,554829,false,false,676,image-keyboard-response,8
true,6,0,2,2,false,d,true,true,0.0-2.0-0.22-0.200-3.200,0,0,0,81,false,stim,false,1,1114.7000000476837,2,0,0,69221,task1,557466,false,true,679,image-keyboard-response,9
true,6,0,2,2,false,d,true,false,0.0-2.0-0.22-0.201-3.201,0,0,0,81,false,stim,false,1,530.0,2,0,0,69221,task1,559511,false,false,682,image-keyboard-response,10
true,6,1,2,1,true,z,false,true,0.0-2.0-0.22-0.202-3.202,0,0,0,90,false,stim,false,2,552.0,2,0,2,69221,task1,561589,false,false,685,image-keyboard-response,11
true,6,1,2,1,true,z,false,true,0.0-2.0-0.22-0.203-3.203,0,0,0,90,false,stim,false,2,504.7999999523163,2,0,1,69221,task1,563619,false,false,688,image-keyboard-response,12
true,6,1,2,1,true,z,false,true,0.0-2.0-0.22-0.204-3.204,0,0,0,90,false,stim,false,2,496.39999985694885,2,0,2,69221,task1,565631,false,false,691,image-keyboard-response,13
true,6,1,2,1,true,z,false,true,0.0-2.0-0.22-0.205-3.205,0,0,0,90,false,stim,false,2,538.5999999046326,2,0,2,69221,task1,567696,false,false,694,image-keyboard-response,14
true,6,1,2,1,true,z,false,true,0.0-2.0-0.22-0.206-3.206,0,0,0,90,false,stim,false,2,444.5,2,0,1,69221,task1,569666,false,false,697,image-keyboard-response,15
true,6,1,2,1,true,z,false,true,0.0-2.0-0.23-0.207-3.207,0,0,0,90,false,stim,false,2,374.40000009536743,2,0,1,69221,task1,571565,false,false,700,image-keyboard-response,16
true,6,1,2,1,true,z,false,true,0.0-2.0-0.23-0.208-3.208,0,0,0,90,false,stim,false,2,385.10000014305115,2,0,1,69221,task1,573474,false,false,703,image-keyboard-response,17
true,6,1,2,1,true,z,false,true,0.0-2.0-0.23-0.209-3.209,0,0,0,90,false,stim,false,2,410.59999990463257,2,0,1,69221,task1,575401,false,false,706,image-keyboard-response,18
true,6,1,2,1,true,z,false,true,0.0-2.0-0.23-0.210-3.210,0,0,0,90,false,stim,false,2,461.5,2,0,2,69221,task1,577387,false,false,709,image-keyboard-response,19
true,6,1,2,1,true,z,false,true,0.0-2.0-0.23-0.211-3.211,0,0,0,90,false,stim,false,2,530.5999999046326,2,0,2,69221,task1,579437,false,false,712,image-keyboard-response,20
true,6,0,2,2,false,d,true,false,0.0-2.0-0.23-0.212-3.212,0,0,0,81,false,stim,false,1,603.0,2,0,0,69221,task1,581564,false,false,715,image-keyboard-response,21
true,6,1,2,1,true,z,false,true,0.0-2.0-0.23-0.213-3.213,0,0,0,90,false,stim,false,2,530.5,2,0,2,69221,task1,583609,false,false,718,image-keyboard-response,22
true,6,0,2,2,false,d,true,false,0.0-2.0-0.23-0.214-3.214,0,0,0,81,false,stim,false,1,459.5,2,0,0,69221,task1,585596,false,false,721,image-keyboard-response,23
true,6,2,2,2,true,d,false,true,0.0-2.0-0.23-0.215-3.215,0,0,0,68,false,stim,false,1,766.6000001430511,2,0,0,69221,task1,587884,false,false,724,image-keyboard-response,24
true,6,1,2,1,true,z,false,true,0.0-2.0-0.24-0.216-3.216,0,0,0,90,false,stim,false,2,518.7000000476837,2,0,1,69221,task1,589923,false,false,727,image-keyboard-response,25
true,6,1,2,1,true,z,false,true,0.0-2.0-0.24-0.217-3.217,0,0,0,90,false,stim,false,2,382.2999999523163,2,0,2,69221,task1,591829,false,false,730,image-keyboard-response,26
true,6,2,2,2,true,d,false,false,0.0-2.0-0.24-0.218-3.218,0,0,0,68,false,stim,false,1,389.59999990463257,2,0,0,69221,task1,593735,false,true,733,image-keyboard-response,27
true,6,1,2,1,true,z,false,true,0.0-2.0-0.24-0.219-3.219,0,0,0,90,false,stim,false,2,442.2000000476837,2,0,2,69221,task1,595704,false,false,736,image-keyboard-response,28
true,6,1,2,1,true,z,false,true,0.0-2.0-0.24-0.220-3.220,0,0,0,90,false,stim,false,2,482.10000014305115,2,0,2,69221,task1,597706,false,false,739,image-keyboard-response,29
true,6,2,2,2,true,d,false,true,0.0-2.0-0.24-0.221-3.221,0,0,0,68,false,stim,false,1,462.5,2,0,0,69221,task1,599680,false,false,742,image-keyboard-response,30
true,6,2,2,2,true,d,false,true,0.0-2.0-0.24-0.222-3.222,0,0,0,68,false,stim,false,1,501.0,2,0,0,69221,task1,601697,false,false,745,image-keyboard-response,31
true,6,1,2,1,true,z,false,true,0.0-2.0-0.24-0.223-3.223,0,0,0,90,false,stim,false,2,700.2999999523163,2,0,1,69221,task1,603928,false,false,748,image-keyboard-response,32
true,6,1,2,1,true,z,false,true,0.0-2.0-0.24-0.224-3.224,0,0,0,90,false,stim,false,2,420.90000009536743,2,0,1,69221,task1,605878,false,false,751,image-keyboard-response,33
true,6,2,2,2,true,d,false,false,0.0-2.0-0.25-0.225-3.225,0,0,0,68,false,stim,false,1,836.5999999046326,2,0,0,69221,task1,608242,false,true,754,image-keyboard-response,34
true,6,1,2,1,true,z,false,true,0.0-2.0-0.25-0.226-3.226,0,0,0,90,false,stim,false,2,1124.5,2,0,2,69221,task1,610895,false,false,757,image-keyboard-response,35
true,6,1,2,1,true,z,false,true,0.0-2.0-0.25-0.227-3.227,0,0,0,90,false,stim,false,2,462.40000009536743,2,0,2,69221,task1,612879,false,false,760,image-keyboard-response,36
true,6,2,2,2,true,d,false,true,0.0-2.0-0.25-0.228-3.228,0,0,0,68,false,stim,false,1,563.5,2,0,0,69221,task1,614971,false,false,763,image-keyboard-response,37
true,6,1,2,1,true,z,false,true,0.0-2.0-0.25-0.229-3.229,0,0,0,90,false,stim,false,2,1277.2000000476837,2,0,2,69221,task1,617767,false,false,766,image-keyboard-response,38
true,6,1,2,1,true,z,false,true,0.0-2.0-0.25-0.230-3.230,0,0,0,90,false,stim,false,2,691.1000001430511,2,0,1,69221,task1,619981,false,false,769,image-keyboard-response,39
true,6,1,2,1,true,z,false,true,0.0-2.0-0.25-0.231-3.231,0,0,0,90,false,stim,false,2,588.6999998092651,2,0,1,69221,task1,622089,false,false,772,image-keyboard-response,40
true,6,1,2,1,true,z,false,true,0.0-2.0-0.25-0.232-3.232,0,0,0,90,false,stim,false,2,559.3999998569489,2,0,1,69221,task1,624161,false,false,775,image-keyboard-response,41
true,6,2,2,2,true,d,false,true,0.0-2.0-0.25-0.233-3.233,0,0,0,68,false,stim,false,1,1158.6999998092651,2,0,0,69221,task1,626836,false,false,778,image-keyboard-response,42
true,6,1,2,1,true,z,false,true,0.0-2.0-0.26-0.234-3.234,0,0,0,90,false,stim,false,2,821.0999999046326,2,0,2,69221,task1,629173,false,false,781,image-keyboard-response,43
true,6,2,2,2,true,d,false,true,0.0-2.0-0.26-0.235-3.235,0,0,0,68,false,stim,false,1,1543.7999999523163,2,0,0,69221,task1,632241,false,false,784,image-keyboard-response,44
true,6,1,2,1,true,z,false,true,0.0-2.0-0.26-0.236-3.236,0,0,0,90,false,stim,false,2,653.2000000476837,2,0,1,69221,task1,634424,false,false,787,image-keyboard-response,45
true,7,2,2,1,false,z,false,true,0.0-2.0-0.26-0.237-3.237,0,0,0,68,true,stim,true,2,1471.0,2,0,0,69221,task1,637423,false,true,790,image-keyboard-response,1
true,7,1,2,2,false,d,false,false,0.0-2.0-0.26-0.238-3.238,0,0,0,90,false,stim,true,1,1338.0,2,0,1,69221,task1,640283,false,false,793,image-keyboard-response,2
true,7,1,2,2,false,d,false,false,0.0-2.0-0.26-0.239-3.239,0,0,0,90,false,stim,true,1,602.4000000953674,2,0,2,69221,task1,642401,false,false,796,image-keyboard-response,3
true,7,1,2,2,false,d,false,false,0.0-2.0-0.26-0.240-3.240,0,0,0,90,false,stim,true,1,478.90000009536743,2,0,1,69221,task1,644406,false,false,799,image-keyboard-response,4
true,7,1,2,2,false,d,false,true,0.0-2.0-0.26-0.241-3.241,0,0,0,90,false,stim,true,1,575.3000001907349,2,0,2,69221,task1,646506,false,true,802,image-keyboard-response,5
true,7,2,2,1,false,z,false,false,0.0-2.0-0.26-0.242-3.242,0,0,0,68,false,stim,true,2,473.40000009536743,2,0,0,69221,task1,648508,false,false,805,image-keyboard-response,6
true,7,1,2,2,false,d,false,false,0.0-2.0-0.27-0.243-3.243,0,0,0,90,false,stim,true,1,658.2000000476837,2,0,2,69221,task1,650690,false,false,808,image-keyboard-response,7
true,7,2,2,2,true,d,false,true,0.0-2.0-0.27-0.244-3.244,0,0,0,68,false,stim,false,1,1766.5,2,0,1,69221,task1,653977,false,false,811,image-keyboard-response,8
true,7,2,2,2,true,d,false,false,0.0-2.0-0.27-0.245-3.245,0,0,0,68,false,stim,false,1,456.7000000476837,2,0,1,69221,task1,655962,false,true,814,image-keyboard-response,9
true,7,2,2,2,true,d,false,true,0.0-2.0-0.27-0.246-3.246,0,0,0,68,false,stim,false,1,372.90000009536743,2,0,1,69221,task1,657849,false,false,817,image-keyboard-response,10
true,7,2,2,2,true,d,false,true,0.0-2.0-0.27-0.247-3.247,0,0,0,68,false,stim,false,1,748.2999999523163,2,0,2,69221,task1,660119,false,false,820,image-keyboard-response,11
true,7,0,2,1,false,z,true,false,0.0-2.0-0.27-0.248-3.248,0,0,0,81,false,stim,false,2,397.89999985694885,2,0,0,69221,task1,662042,false,false,823,image-keyboard-response,12
true,7,0,2,1,false,z,true,false,0.0-2.0-0.27-0.249-3.249,0,0,0,81,false,stim,false,2,1433.0,2,0,0,69221,task1,664992,false,false,826,image-keyboard-response,13
true,7,1,2,1,true,z,false,true,0.0-2.0-0.27-0.250-3.250,0,0,0,90,false,stim,false,2,544.5,2,0,0,69221,task1,667056,false,false,829,image-keyboard-response,14
true,7,2,2,2,true,d,false,true,0.0-2.0-0.27-0.251-3.251,0,0,0,68,false,stim,false,1,398.59999990463257,2,0,2,69221,task1,668982,false,false,832,image-keyboard-response,15
true,7,2,2,2,true,d,false,true,0.0-2.0-0.28-0.252-3.252,0,0,0,68,false,stim,false,1,609.0999999046326,2,0,1,69221,task1,671108,false,false,835,image-keyboard-response,16
true,7,2,2,2,true,d,false,true,0.0-2.0-0.28-0.253-3.253,0,0,0,68,false,stim,false,1,512.0,2,0,2,69221,task1,673145,false,false,838,image-keyboard-response,17
true,7,1,2,1,true,z,false,false,0.0-2.0-0.28-0.254-3.254,0,0,0,90,false,stim,false,2,1207.8999998569489,2,0,0,69221,task1,675870,false,true,841,image-keyboard-response,18
true,7,2,2,2,true,d,false,true,0.0-2.0-0.28-0.255-3.255,0,0,0,68,false,stim,false,1,1071.9000000953674,2,0,2,69221,task1,678466,false,false,844,image-keyboard-response,19
true,7,1,2,1,true,z,false,true,0.0-2.0-0.28-0.256-3.256,0,0,0,90,false,stim,false,2,964.5,2,0,0,69221,task1,680954,false,false,847,image-keyboard-response,20
true,7,2,2,2,true,d,false,true,0.0-2.0-0.28-0.257-3.257,0,0,0,68,false,stim,false,1,1975.8999998569489,2,0,1,69221,task1,684450,false,false,850,image-keyboard-response,21
true,7,1,2,1,true,z,false,true,0.0-2.0-0.28-0.258-3.258,0,0,0,90,false,stim,false,2,456.2999999523163,2,0,0,69221,task1,686418,false,false,853,image-keyboard-response,22
true,7,2,2,2,true,d,false,false,0.0-2.0-0.28-0.259-3.259,0,0,0,68,false,stim,false,1,672.0,2,0,2,69221,task1,688616,false,true,856,image-keyboard-response,23
true,7,2,2,2,true,d,false,true,0.0-2.0-0.28-0.260-3.260,0,0,0,68,false,stim,false,1,709.7999999523163,2,0,1,69221,task1,690850,false,false,859,image-keyboard-response,24
true,7,1,2,2,false,d,false,true,0.0-2.0-0.29-0.261-3.261,0,0,0,90,false,stim,true,1,1438.1999998092651,2,0,1,69221,task1,693804,false,true,862,image-keyboard-response,25
true,7,1,2,1,true,z,false,false,0.0-2.0-0.29-0.262-3.262,0,0,0,90,false,stim,false,2,793.5999999046326,2,0,0,69221,task1,696120,false,true,865,image-keyboard-response,26
true,7,2,2,2,true,d,false,true,0.0-2.0-0.29-0.263-3.263,0,0,0,68,false,stim,false,1,366.2000000476837,2,0,2,69221,task1,698012,false,false,868,image-keyboard-response,27
true,7,2,2,1,false,z,false,false,0.0-2.0-0.29-0.264-3.264,0,0,0,68,false,stim,true,2,1038.9000000953674,2,0,0,69221,task1,700571,false,false,871,image-keyboard-response,28
true,7,2,2,2,true,d,false,true,0.0-2.0-0.29-0.265-3.265,0,0,0,68,false,stim,false,1,1851.5,2,0,2,69221,task1,703942,false,false,874,image-keyboard-response,29
true,7,2,2,2,true,d,false,true,0.0-2.0-0.29-0.266-3.266,0,0,0,68,false,stim,false,1,655.0,2,0,1,69221,task1,706118,false,false,877,image-keyboard-response,30
true,7,2,2,2,true,d,false,true,0.0-2.0-0.29-0.267-3.267,0,0,0,68,false,stim,false,1,534.8999998569489,2,0,2,69221,task1,708173,false,false,880,image-keyboard-response,31
true,7,1,2,1,true,z,false,true,0.0-2.0-0.29-0.268-3.268,0,0,0,90,false,stim,false,2,687.2000000476837,2,0,0,69221,task1,710381,false,false,883,image-keyboard-response,32
true,7,2,2,2,true,d,false,true,0.0-2.0-0.29-0.269-3.269,0,0,0,68,false,stim,false,1,774.0,2,0,1,69221,task1,712669,false,false,886,image-keyboard-response,33
true,7,2,2,2,true,d,false,false,0.0-2.0-0.30-0.270-3.270,0,0,0,68,false,stim,false,1,571.6000001430511,2,0,2,69221,task1,714767,false,true,889,image-keyboard-response,34
true,7,2,2,2,true,d,false,true,0.0-2.0-0.30-0.271-3.271,0,0,0,68,false,stim,false,1,934.3999998569489,2,0,2,69221,task1,717215,false,false,892,image-keyboard-response,35
true,7,2,2,2,true,d,false,true,0.0-2.0-0.30-0.272-3.272,0,0,0,68,false,stim,false,1,550.0,2,0,2,69221,task1,719292,false,false,895,image-keyboard-response,36
true,7,2,2,2,true,d,false,true,0.0-2.0-0.30-0.273-3.273,0,0,0,68,false,stim,false,1,1068.2999999523163,2,0,1,69221,task1,721888,false,false,898,image-keyboard-response,37
true,7,1,2,1,true,z,false,false,0.0-2.0-0.30-0.274-3.274,0,0,0,90,false,stim,false,2,1252.4000000953674,2,0,0,69221,task1,724673,false,true,901,image-keyboard-response,38
true,7,1,2,1,true,z,false,true,0.0-2.0-0.30-0.275-3.275,0,0,0,90,false,stim,false,2,701.5,2,0,0,69221,task1,726892,false,false,904,image-keyboard-response,39
true,7,2,2,2,true,d,false,true,0.0-2.0-0.30-0.276-3.276,0,0,0,68,false,stim,false,1,673.0,2,0,1,69221,task1,729089,false,false,907,image-keyboard-response,40
true,7,2,2,2,true,d,false,true,0.0-2.0-0.30-0.277-3.277,0,0,0,68,false,stim,false,1,2095.2000000476837,2,0,1,69221,task1,732708,false,false,910,image-keyboard-response,41
true,7,1,2,1,true,z,false,true,0.0-2.0-0.30-0.278-3.278,0,0,0,90,false,stim,false,2,1279.2999999523163,2,0,0,69221,task1,735505,false,false,913,image-keyboard-response,42
true,7,2,2,2,true,d,false,true,0.0-2.0-0.31-0.279-3.279,0,0,0,68,false,stim,false,1,953.9000000953674,2,0,2,69221,task1,737984,false,false,916,image-keyboard-response,43
true,7,1,2,2,false,d,false,false,0.0-2.0-0.31-0.280-3.280,0,0,0,90,false,stim,true,1,555.3000001907349,2,0,1,69221,task1,740057,false,false,919,image-keyboard-response,44
true,8,2,1,0,false,q,false,false,0.0-2.0-0.31-0.281-3.281,0,0,0,68,true,stim,true,2,519.3999998569489,2,0,2,69221,task1,742091,false,false,922,image-keyboard-response,1
true,8,1,1,1,true,z,false,true,0.0-2.0-0.31-0.282-3.282,0,0,0,90,false,stim,false,2,770.0,2,0,1,69221,task1,744382,false,false,925,image-keyboard-response,2
true,8,2,1,2,true,d,false,true,0.0-2.0-0.31-0.283-3.283,0,0,0,68,false,stim,false,1,892.2000000476837,2,0,0,69221,task1,746795,false,false,928,image-keyboard-response,3
true,8,1,1,0,false,q,true,false,0.0-2.0-0.31-0.284-3.284,0,0,0,90,false,stim,false,2,755.5999999046326,2,0,2,69221,task1,749073,false,false,931,image-keyboard-response,4
true,8,1,1,2,false,d,false,false,0.0-2.0-0.31-0.285-3.285,0,0,0,90,false,stim,true,1,380.90000009536743,2,0,0,69221,task1,750970,false,false,934,image-keyboard-response,5
true,8,1,1,2,false,d,false,false,0.0-2.0-0.31-0.286-3.286,0,0,0,90,false,stim,true,1,664.0999999046326,2,0,0,69221,task1,753155,false,false,937,image-keyboard-response,6
true,8,2,1,1,false,z,false,false,0.0-2.0-0.31-0.287-3.287,0,0,0,68,false,stim,true,2,841.7000000476837,2,0,1,69221,task1,755527,false,false,940,image-keyboard-response,7
true,8,2,1,2,true,d,false,true,0.0-2.0-0.32-0.288-3.288,0,0,0,68,false,stim,false,1,640.5,2,0,0,69221,task1,757694,false,false,943,image-keyboard-response,8
true,8,2,1,2,true,d,false,false,0.0-2.0-0.32-0.289-3.289,0,0,0,68,false,stim,false,1,755.8999998569489,2,0,0,69221,task1,759973,false,true,946,image-keyboard-response,9
true,8,0,1,0,true,q,false,true,0.0-2.0-0.32-0.290-3.290,0,0,0,81,false,stim,false,2,675.7999999523163,2,0,2,69221,task1,762165,false,false,949,image-keyboard-response,10
true,8,0,1,1,false,z,true,false,0.0-2.0-0.32-0.291-3.291,0,0,0,81,false,stim,false,2,583.2999999523163,2,0,1,69221,task1,764268,false,false,952,image-keyboard-response,11
true,8,0,1,1,false,z,true,true,0.0-2.0-0.32-0.292-3.292,0,0,0,81,false,stim,false,2,482.2000000476837,2,0,1,69221,task1,766266,false,true,955,image-keyboard-response,12
true,8,0,1,0,true,q,false,true,0.0-2.0-0.32-0.293-3.293,0,0,0,81,false,stim,false,2,594.7000000476837,2,0,2,69221,task1,768390,false,false,958,image-keyboard-response,13
true,8,0,1,1,false,z,true,false,0.0-2.0-0.32-0.294-3.294,0,0,0,81,false,stim,false,2,338.40000009536743,2,0,1,69221,task1,770240,false,false,961,image-keyboard-response,14
true,8,2,1,2,true,d,false,true,0.0-2.0-0.32-0.295-3.295,0,0,0,68,false,stim,false,1,690.9000000953674,2,0,0,69221,task1,772449,false,false,964,image-keyboard-response,15
true,8,0,1,0,true,q,false,true,0.0-2.0-0.32-0.296-3.296,0,0,0,81,false,stim,false,2,689.6999998092651,2,0,2,69221,task1,774659,false,false,967,image-keyboard-response,16
true,8,0,1,0,true,q,false,false,0.0-2.0-0.33-0.297-3.297,0,0,0,81,false,stim,false,2,499.2999999523163,2,0,2,69221,task1,776687,false,true,970,image-keyboard-response,17
true,8,0,1,0,true,q,false,true,0.0-2.0-0.33-0.298-3.298,0,0,0,81,false,stim,false,2,404.09999990463257,2,0,2,69221,task1,778617,false,false,973,image-keyboard-response,18
true,8,0,1,1,false,z,true,false,0.0-2.0-0.33-0.299-3.299,0,0,0,81,false,stim,false,2,617.9000000953674,2,0,1,69221,task1,780748,false,false,976,image-keyboard-response,19
true,8,2,1,2,true,d,false,true,0.0-2.0-0.33-0.300-3.300,0,0,0,68,false,stim,false,1,469.40000009536743,2,0,0,69221,task1,782740,false,false,979,image-keyboard-response,20
true,8,0,1,1,false,z,true,false,0.0-2.0-0.33-0.301-3.301,0,0,0,81,false,stim,false,2,516.1000001430511,2,0,1,69221,task1,784780,false,false,982,image-keyboard-response,21
true,8,1,1,1,true,z,false,true,0.0-2.0-0.33-0.302-3.302,0,0,0,90,false,stim,false,2,454.7999999523163,2,0,1,69221,task1,786761,false,false,985,image-keyboard-response,22
true,8,0,1,0,true,q,false,true,0.0-2.0-0.33-0.303-3.303,0,0,0,81,false,stim,false,2,475.5,2,0,2,69221,task1,788760,false,false,988,image-keyboard-response,23
true,8,2,1,2,true,d,false,true,0.0-2.0-0.33-0.304-3.304,0,0,0,68,false,stim,false,1,473.2999999523163,2,0,0,69221,task1,790753,false,false,991,image-keyboard-response,24
true,8,2,1,2,true,d,false,true,0.0-2.0-0.33-0.305-3.305,0,0,0,68,false,stim,false,1,554.2000000476837,2,0,0,69221,task1,792833,false,false,994,image-keyboard-response,25
true,8,0,1,0,true,q,false,true,0.0-2.0-0.34-0.306-3.306,0,0,0,81,false,stim,false,2,464.7999999523163,2,0,2,69221,task1,794818,false,false,997,image-keyboard-response,26
true,8,2,1,2,true,d,false,true,0.0-2.0-0.34-0.307-3.307,0,0,0,68,false,stim,false,1,683.9000000953674,2,0,0,69221,task1,797015,false,false,1000,image-keyboard-response,27
true,8,0,1,2,false,d,true,false,0.0-2.0-0.34-0.308-3.308,0,0,0,81,false,stim,false,1,521.1999998092651,2,0,0,69221,task1,799071,false,false,1003,image-keyboard-response,28
true,8,2,1,2,true,d,false,true,0.0-2.0-0.34-0.309-3.309,0,0,0,68,false,stim,false,1,644.5,2,0,0,69221,task1,801235,false,false,1006,image-keyboard-response,29
true,8,1,1,1,true,z,false,true,0.0-2.0-0.34-0.310-3.310,0,0,0,90,false,stim,false,2,1016.7000000476837,2,0,1,69221,task1,803768,false,false,1009,image-keyboard-response,30
true,8,0,1,0,true,q,false,true,0.0-2.0-0.34-0.311-3.311,0,0,0,81,false,stim,false,2,683.7999999523163,2,0,2,69221,task1,805970,false,false,1012,image-keyboard-response,31
true,8,1,1,1,true,z,false,true,0.0-2.0-0.34-0.312-3.312,0,0,0,90,false,stim,false,2,564.6999998092651,2,0,1,69221,task1,808061,false,false,1015,image-keyboard-response,32
true,8,1,1,1,true,z,false,false,0.0-2.0-0.34-0.313-3.313,0,0,0,90,false,stim,false,2,502.5,2,0,1,69221,task1,810078,false,true,1018,image-keyboard-response,33
true,8,0,1,0,true,q,false,true,0.0-2.0-0.34-0.314-3.314,0,0,0,81,false,stim,false,2,663.4000000953674,2,0,2,69221,task1,812254,false,false,1021,image-keyboard-response,34
true,8,2,1,2,true,d,false,true,0.0-2.0-0.35-0.315-3.315,0,0,0,68,false,stim,false,1,443.59999990463257,2,0,0,69221,task1,814225,false,false,1024,image-keyboard-response,35
true,8,0,1,0,true,q,false,true,0.0-2.0-0.35-0.316-3.316,0,0,0,81,false,stim,false,2,559.0,2,0,2,69221,task1,816304,false,false,1027,image-keyboard-response,36
true,8,0,1,0,true,q,false,true,0.0-2.0-0.35-0.317-3.317,0,0,0,81,false,stim,false,2,514.2000000476837,2,0,2,69221,task1,818347,false,false,1030,image-keyboard-response,37
true,8,1,1,1,true,z,false,true,0.0-2.0-0.35-0.318-3.318,0,0,0,90,false,stim,false,2,438.7999999523163,2,0,1,69221,task1,820316,false,false,1033,image-keyboard-response,38
true,8,2,1,2,true,d,false,false,0.0-2.0-0.35-0.319-3.319,0,0,0,68,false,stim,false,1,632.7999999523163,2,0,0,69221,task1,822475,false,true,1036,image-keyboard-response,39
true,8,0,1,0,true,q,false,true,0.0-2.0-0.35-0.320-3.320,0,0,0,81,false,stim,false,2,830.0,2,0,2,69221,task1,824822,false,false,1039,image-keyboard-response,40
true,8,2,1,2,true,d,false,true,0.0-2.0-0.35-0.321-3.321,0,0,0,68,false,stim,false,1,685.1999998092651,2,0,0,69221,task1,827029,false,false,1042,image-keyboard-response,41
true,8,1,1,1,true,z,false,true,0.0-2.0-0.35-0.322-3.322,0,0,0,90,false,stim,false,2,1306.3999998569489,2,0,1,69221,task1,829858,false,false,1045,image-keyboard-response,42
true,8,1,1,1,true,z,false,true,0.0-2.0-0.35-0.323-3.323,0,0,0,90,false,stim,false,2,475.5,2,0,1,69221,task1,831858,false,false,1048,image-keyboard-response,43
true,9,0,2,2,false,d,false,false,0.0-2.0-0.36-0.324-3.324,0,0,0,81,true,stim,true,0,645.5,2,0,2,69221,task1,834025,false,false,1051,image-keyboard-response,1
true,9,2,2,1,false,z,false,false,0.0-2.0-0.36-0.325-3.325,0,0,0,68,false,stim,true,2,905.5999999046326,2,0,0,69221,task1,836450,false,false,1054,image-keyboard-response,2
true,9,1,2,1,true,z,false,true,0.0-2.0-0.36-0.326-3.326,0,0,0,90,false,stim,false,2,688.4000000953674,2,0,0,69221,task1,838658,false,false,1057,image-keyboard-response,3
true,9,1,2,2,false,d,false,false,0.0-2.0-0.36-0.327-3.327,0,0,0,90,false,stim,true,1,725.4000000953674,2,0,1,69221,task1,840907,false,false,1060,image-keyboard-response,4
true,9,0,2,2,false,d,false,false,0.0-2.0-0.36-0.328-3.328,0,0,0,81,false,stim,true,0,716.7000000476837,2,0,2,69221,task1,843141,false,false,1063,image-keyboard-response,5
true,9,1,2,1,true,z,false,true,0.0-2.0-0.36-0.329-3.329,0,0,0,90,false,stim,false,2,664.0,2,0,0,69221,task1,845329,false,false,1066,image-keyboard-response,6
true,9,1,2,2,false,d,true,false,0.0-2.0-0.36-0.330-3.330,0,0,0,90,false,stim,false,0,379.2999999523163,2,0,2,69221,task1,847226,false,false,1069,image-keyboard-response,7
true,9,1,2,2,false,d,false,false,0.0-2.0-0.36-0.331-3.331,0,0,0,90,false,stim,true,1,394.80000019073486,2,0,1,69221,task1,849150,false,false,1072,image-keyboard-response,8
true,9,2,2,2,true,d,false,true,0.0-2.0-0.36-0.332-3.332,0,0,0,68,false,stim,false,1,637.0999999046326,2,0,1,69221,task1,851311,false,false,1075,image-keyboard-response,9
true,9,2,2,2,true,d,false,true,0.0-2.0-0.37-0.333-3.333,0,0,0,68,false,stim,false,0,408.89999985694885,2,0,2,69221,task1,853248,false,false,1078,image-keyboard-response,10
true,9,2,2,2,true,d,false,true,0.0-2.0-0.37-0.334-3.334,0,0,0,68,false,stim,false,0,465.7000000476837,2,0,2,69221,task1,855240,false,false,1081,image-keyboard-response,11
true,9,2,2,2,true,d,false,true,0.0-2.0-0.37-0.335-3.335,0,0,0,68,false,stim,false,1,474.10000014305115,2,0,1,69221,task1,857231,false,false,1084,image-keyboard-response,12
true,9,2,2,2,true,d,false,true,0.0-2.0-0.37-0.336-3.336,0,0,0,68,false,stim,false,0,557.4000000953674,2,0,2,69221,task1,859311,false,false,1087,image-keyboard-response,13
true,9,2,2,2,true,d,false,true,0.0-2.0-0.37-0.337-3.337,0,0,0,68,false,stim,false,1,409.2999999523163,2,0,1,69221,task1,861248,false,false,1090,image-keyboard-response,14
true,9,1,2,1,true,z,false,true,0.0-2.0-0.37-0.338-3.338,0,0,0,90,false,stim,false,2,502.39999985694885,2,0,0,69221,task1,863274,false,false,1093,image-keyboard-response,15
true,9,2,2,2,true,d,false,false,0.0-2.0-0.37-0.339-3.339,0,0,0,68,false,stim,false,1,583.2999999523163,2,0,1,69221,task1,865383,false,true,1096,image-keyboard-response,16
true,9,1,2,1,true,z,false,true,0.0-2.0-0.37-0.340-3.340,0,0,0,90,false,stim,false,2,384.5,2,0,0,69221,task1,867289,false,false,1099,image-keyboard-response,17
true,9,1,2,1,true,z,false,true,0.0-2.0-0.37-0.341-3.341,0,0,0,90,false,stim,false,2,581.8000001907349,2,0,0,69221,task1,869403,false,false,1102,image-keyboard-response,18
true,9,2,2,2,true,d,false,true,0.0-2.0-0.38-0.342-3.342,0,0,0,68,false,stim,false,0,483.90000009536743,2,0,2,69221,task1,871409,false,false,1105,image-keyboard-response,19
true,9,1,2,1,true,z,false,false,0.0-2.0-0.38-0.343-3.343,0,0,0,90,false,stim,false,2,477.09999990463257,2,0,0,69221,task1,873407,false,true,1108,image-keyboard-response,20
true,9,2,2,2,true,d,false,true,0.0-2.0-0.38-0.344-3.344,0,0,0,68,false,stim,false,0,469.40000009536743,2,0,2,69221,task1,875394,false,false,1111,image-keyboard-response,21
true,9,2,2,2,true,d,false,true,0.0-2.0-0.38-0.345-3.345,0,0,0,68,false,stim,false,0,713.1000001430511,2,0,2,69221,task1,877629,false,false,1114,image-keyboard-response,22
true,9,2,2,2,true,d,false,true,0.0-2.0-0.38-0.346-3.346,0,0,0,68,false,stim,false,1,1712.3999998569489,2,0,1,69221,task1,880871,false,false,1117,image-keyboard-response,23
true,9,1,2,1,true,z,false,true,0.0-2.0-0.38-0.347-3.347,0,0,0,90,false,stim,false,2,474.40000009536743,2,0,0,69221,task1,882865,false,false,1120,image-keyboard-response,24
true,9,2,2,2,true,d,false,true,0.0-2.0-0.38-0.348-3.348,0,0,0,68,false,stim,false,1,1125.6000001430511,2,0,1,69221,task1,885508,false,false,1123,image-keyboard-response,25
true,9,1,2,1,true,z,false,true,0.0-2.0-0.38-0.349-3.349,0,0,0,90,false,stim,false,2,524.8999998569489,2,0,0,69221,task1,887557,false,false,1126,image-keyboard-response,26
true,9,2,2,2,true,d,false,true,0.0-2.0-0.38-0.350-3.350,0,0,0,68,false,stim,false,1,705.0,2,0,1,69221,task1,889780,false,false,1129,image-keyboard-response,27
true,9,1,2,1,true,z,false,true,0.0-2.0-0.39-0.351-3.351,0,0,0,90,false,stim,false,2,1814.5,2,0,0,69221,task1,893118,false,false,1132,image-keyboard-response,28
true,9,2,2,2,true,d,false,true,0.0-2.0-0.39-0.352-3.352,0,0,0,68,false,stim,false,1,443.39999985694885,2,0,1,69221,task1,895085,false,false,1135,image-keyboard-response,29
true,9,1,2,2,false,d,true,false,0.0-2.0-0.39-0.353-3.353,0,0,0,90,false,stim,false,0,1030.4000000953674,2,0,2,69221,task1,897633,false,false,1138,image-keyboard-response,30
true,9,2,2,2,true,d,false,true,0.0-2.0-0.39-0.354-3.354,0,0,0,68,false,stim,false,0,513.5,2,0,2,69221,task1,899676,false,false,1141,image-keyboard-response,31
true,9,2,2,2,true,d,false,true,0.0-2.0-0.39-0.355-3.355,0,0,0,68,false,stim,false,1,766.4000000953674,2,0,1,69221,task1,901967,false,false,1144,image-keyboard-response,32
true,9,2,2,2,true,d,false,true,0.0-2.0-0.39-0.356-3.356,0,0,0,68,false,stim,false,1,1221.8999998569489,2,0,1,69221,task1,904713,false,false,1147,image-keyboard-response,33
true,9,2,2,2,true,d,false,true,0.0-2.0-0.39-0.357-3.357,0,0,0,68,false,stim,false,0,772.2999999523163,2,0,2,69221,task1,907001,false,false,1150,image-keyboard-response,34
true,9,1,2,1,true,z,false,true,0.0-2.0-0.39-0.358-3.358,0,0,0,90,false,stim,false,2,771.8999998569489,2,0,0,69221,task1,909290,false,false,1153,image-keyboard-response,35
true,9,1,2,1,true,z,false,true,0.0-2.0-0.39-0.359-3.359,0,0,0,90,false,stim,false,2,595.2000000476837,2,0,0,69221,task1,911405,false,false,1156,image-keyboard-response,36
true,9,2,2,2,true,d,false,true,0.0-2.0-0.40-0.360-3.360,0,0,0,68,false,stim,false,0,695.1999998092651,2,0,2,69221,task1,913624,false,false,1159,image-keyboard-response,37
true,9,1,2,1,true,z,false,true,0.0-2.0-0.40-0.361-3.361,0,0,0,90,false,stim,false,2,747.0,2,0,0,69221,task1,915886,false,false,1162,image-keyboard-response,38
true,9,2,2,2,true,d,false,true,0.0-2.0-0.40-0.362-3.362,0,0,0,68,false,stim,false,0,717.7000000476837,2,0,2,69221,task1,918133,false,false,1165,image-keyboard-response,39
true,9,2,2,2,true,d,false,true,0.0-2.0-0.40-0.363-3.363,0,0,0,68,false,stim,false,1,834.2999999523163,2,0,1,69221,task1,920495,false,false,1168,image-keyboard-response,40
true,9,2,2,2,true,d,false,true,0.0-2.0-0.40-0.364-3.364,0,0,0,68,false,stim,false,1,708.7999999523163,2,0,1,69221,task1,922725,false,false,1171,image-keyboard-response,41
true,9,1,2,1,true,z,false,true,0.0-2.0-0.40-0.365-3.365,0,0,0,90,false,stim,false,2,945.0,2,0,0,69221,task1,925185,false,false,1174,image-keyboard-response,42
true,10,2,2,1,false,z,false,false,0.0-2.0-0.40-0.366-3.366,0,0,0,68,true,stim,true,2,1165.0,2,0,1,69221,task1,927879,false,false,1177,image-keyboard-response,1
true,10,2,2,1,false,z,false,false,0.0-2.0-0.40-0.367-3.367,0,0,0,68,false,stim,true,2,579.6000001430511,2,0,2,69221,task1,929981,false,false,1180,image-keyboard-response,2
true,10,1,2,2,false,d,false,false,0.0-2.0-0.40-0.368-3.368,0,0,0,90,false,stim,true,1,624.7000000476837,2,0,0,69221,task1,932136,false,false,1183,image-keyboard-response,3
true,10,2,2,2,true,d,false,true,0.0-2.0-0.41-0.369-3.369,0,0,0,68,false,stim,false,1,1115.7999999523163,2,0,0,69221,task1,934775,false,false,1186,image-keyboard-response,4
true,10,2,2,2,true,d,false,true,0.0-2.0-0.41-0.370-3.370,0,0,0,68,false,stim,false,1,895.1000001430511,2,0,0,69221,task1,937197,false,false,1189,image-keyboard-response,5
true,10,2,2,1,false,z,false,false,0.0-2.0-0.41-0.371-3.371,0,0,0,68,false,stim,true,2,941.2999999523163,2,0,1,69221,task1,939659,false,false,1192,image-keyboard-response,6
true,10,1,2,1,true,z,false,false,0.0-2.0-0.41-0.372-3.372,0,0,0,90,false,stim,false,2,1036.0999999046326,2,0,2,69221,task1,942211,false,true,1195,image-keyboard-response,7
true,10,0,2,1,false,z,true,false,0.0-2.0-0.41-0.373-3.373,0,0,0,81,false,stim,false,2,701.9000000953674,2,0,1,69221,task1,944429,false,false,1198,image-keyboard-response,8
true,10,0,2,1,false,z,true,false,0.0-2.0-0.41-0.374-3.374,0,0,0,81,false,stim,false,2,496.0,2,0,2,69221,task1,946460,false,false,1201,image-keyboard-response,9
true,10,1,2,1,true,z,false,true,0.0-2.0-0.41-0.375-3.375,0,0,0,90,false,stim,false,2,540.4000000953674,2,0,2,69221,task1,948516,false,false,1204,image-keyboard-response,10
true,10,1,2,1,true,z,false,true,0.0-2.0-0.41-0.376-3.376,0,0,0,90,false,stim,false,2,431.2000000476837,2,0,1,69221,task1,950475,false,false,1207,image-keyboard-response,11
true,10,2,2,2,true,d,false,true,0.0-2.0-0.41-0.377-3.377,0,0,0,68,false,stim,false,1,472.39999985694885,2,0,0,69221,task1,952465,false,false,1210,image-keyboard-response,12
true,10,2,2,2,true,d,false,true,0.0-2.0-0.42-0.378-3.378,0,0,0,68,false,stim,false,1,546.9000000953674,2,0,0,69221,task1,954540,false,false,1213,image-keyboard-response,13
true,10,1,2,1,true,z,false,true,0.0-2.0-0.42-0.379-3.379,0,0,0,90,false,stim,false,2,662.2999999523163,2,0,1,69221,task1,956716,false,false,1216,image-keyboard-response,14
true,10,1,2,1,true,z,false,true,0.0-2.0-0.42-0.380-3.380,0,0,0,90,false,stim,false,2,450.09999990463257,2,0,2,69221,task1,958684,false,false,1219,image-keyboard-response,15
true,10,2,2,2,true,d,false,true,0.0-2.0-0.42-0.381-3.381,0,0,0,68,false,stim,false,1,967.2000000476837,2,0,0,69221,task1,961177,false,false,1222,image-keyboard-response,16
true,10,1,2,1,true,z,false,true,0.0-2.0-0.42-0.382-3.382,0,0,0,90,false,stim,false,2,762.5999999046326,2,0,1,69221,task1,963466,false,false,1225,image-keyboard-response,17
true,10,2,2,1,false,z,false,false,0.0-2.0-0.42-0.383-3.383,0,0,0,68,false,stim,true,2,1626.1999998092651,2,0,2,69221,task1,966623,false,false,1228,image-keyboard-response,18
true,10,2,2,1,false,z,false,false,0.0-2.0-0.42-0.384-3.384,0,0,0,68,false,stim,true,2,1833.5,2,0,2,69221,task1,969984,false,false,1231,image-keyboard-response,19
true,10,2,2,2,true,d,false,false,0.0-2.0-0.42-0.385-3.385,0,0,0,68,false,stim,false,1,1515.8999998569489,2,0,0,69221,task1,973024,false,true,1234,image-keyboard-response,20
true,10,1,2,1,true,z,false,true,0.0-2.0-0.42-0.386-3.386,0,0,0,90,false,stim,false,2,1317.9000000953674,2,0,1,69221,task1,975868,false,false,1237,image-keyboard-response,21
true,10,1,2,1,true,z,false,true,0.0-2.0-0.43-0.387-3.387,0,0,0,90,false,stim,false,2,420.90000009536743,2,0,1,69221,task1,977818,false,false,1240,image-keyboard-response,22
true,10,1,2,1,true,z,false,true,0.0-2.0-0.43-0.388-3.388,0,0,0,90,false,stim,false,2,474.5,2,0,2,69221,task1,979818,false,false,1243,image-keyboard-response,23
true,10,2,2,2,true,d,false,true,0.0-2.0-0.43-0.389-3.389,0,0,0,68,false,stim,false,1,587.2999999523163,2,0,0,69221,task1,981926,false,false,1246,image-keyboard-response,24
true,10,1,2,1,true,z,false,false,0.0-2.0-0.43-0.390-3.390,0,0,0,90,false,stim,false,2,595.6000001430511,2,0,2,69221,task1,984036,false,true,1249,image-keyboard-response,25
true,10,1,2,1,true,z,false,true,0.0-2.0-0.43-0.391-3.391,0,0,0,90,false,stim,false,2,612.6000001430511,2,0,1,69221,task1,986172,false,false,1252,image-keyboard-response,26
true,10,1,2,1,true,z,false,false,0.0-2.0-0.43-0.392-3.392,0,0,0,90,false,stim,false,2,474.7000000476837,2,0,1,69221,task1,988170,false,true,1255,image-keyboard-response,27
true,10,1,2,1,true,z,false,true,0.0-2.0-0.43-0.393-3.393,0,0,0,90,false,stim,false,2,624.1999998092651,2,0,2,69221,task1,990312,false,false,1258,image-keyboard-response,28
true,10,2,2,2,true,d,false,true,0.0-2.0-0.43-0.394-3.394,0,0,0,68,false,stim,false,1,639.0,2,0,0,69221,task1,992466,false,false,1261,image-keyboard-response,29
true,10,1,2,2,false,d,false,false,0.0-2.0-0.43-0.395-3.395,0,0,0,90,false,stim,true,1,720.1000001430511,2,0,0,69221,task1,994710,false,false,1264,image-keyboard-response,30
true,10,1,2,2,false,d,false,false,0.0-2.0-0.44-0.396-3.396,0,0,0,90,false,stim,true,1,430.2000000476837,2,0,0,69221,task1,996664,false,false,1267,image-keyboard-response,31
true,10,1,2,1,true,z,false,true,0.0-2.0-0.44-0.397-3.397,0,0,0,90,false,stim,false,2,573.8999998569489,2,0,2,69221,task1,998757,false,false,1270,image-keyboard-response,32
true,10,2,2,2,true,d,false,true,0.0-2.0-0.44-0.398-3.398,0,0,0,68,false,stim,false,1,481.60000014305115,2,0,0,69221,task1,1000766,false,false,1273,image-keyboard-response,33
true,10,1,2,1,true,z,false,true,0.0-2.0-0.44-0.399-3.399,0,0,0,90,false,stim,false,2,748.1000001430511,2,0,1,69221,task1,1003041,false,false,1276,image-keyboard-response,34
true,10,1,2,1,true,z,false,true,0.0-2.0-0.44-0.400-3.400,0,0,0,90,false,stim,false,2,515.1000001430511,2,0,2,69221,task1,1005087,false,false,1279,image-keyboard-response,35
true,10,1,2,1,true,z,false,true,0.0-2.0-0.44-0.401-3.401,0,0,0,90,false,stim,false,2,437.7000000476837,2,0,2,69221,task1,1007051,false,false,1282,image-keyboard-response,36
true,10,1,2,1,true,z,false,true,0.0-2.0-0.44-0.402-3.402,0,0,0,90,false,stim,false,2,632.3000001907349,2,0,1,69221,task1,1009210,false,false,1285,image-keyboard-response,37
true,10,2,2,2,true,d,false,true,0.0-2.0-0.44-0.403-3.403,0,0,0,68,false,stim,false,1,592.4000000953674,2,0,0,69221,task1,1011330,false,false,1288,image-keyboard-response,38
true,10,1,2,1,true,z,false,true,0.0-2.0-0.44-0.404-3.404,0,0,0,90,false,stim,false,2,629.2999999523163,2,0,1,69221,task1,1013480,false,false,1291,image-keyboard-response,39
true,10,1,2,1,true,z,false,true,0.0-2.0-0.45-0.405-3.405,0,0,0,90,false,stim,false,2,773.9000000953674,2,0,2,69221,task1,1015779,false,false,1294,image-keyboard-response,40
true,10,2,2,1,false,z,false,false,0.0-2.0-0.45-0.406-3.406,0,0,0,68,false,stim,true,2,773.5999999046326,2,0,1,69221,task1,1018082,false,false,1297,image-keyboard-response,41
true,10,2,2,2,true,d,false,true,0.0-2.0-0.45-0.407-3.407,0,0,0,68,false,stim,false,1,690.9000000953674,2,0,0,69221,task1,1020291,false,false,1300,image-keyboard-response,42
true,10,1,2,1,true,z,false,true,0.0-2.0-0.45-0.408-3.408,0,0,0,90,false,stim,false,2,755.0999999046326,2,0,1,69221,task1,1022585,false,false,1303,image-keyboard-response,43
true,10,2,2,2,true,d,false,true,0.0-2.0-0.45-0.409-3.409,0,0,0,68,false,stim,false,1,681.7999999523163,2,0,0,69221,task1,1024795,false,false,1306,image-keyboard-response,44
true,11,1,1,2,false,d,false,false,0.0-2.0-0.45-0.410-3.410,0,0,0,90,true,stim,true,1,939.5999999046326,2,0,2,69221,task1,1027260,false,false,1309,image-keyboard-response,1
true,11,1,1,2,false,d,false,true,0.0-2.0-0.45-0.411-3.411,0,0,0,90,false,stim,true,1,727.0999999046326,2,0,2,69221,task1,1029509,false,true,1312,image-keyboard-response,2
true,11,2,1,1,false,z,false,false,0.0-2.0-0.45-0.412-3.412,0,0,0,68,false,stim,true,2,647.2000000476837,2,0,0,69221,task1,1031673,false,false,1315,image-keyboard-response,3
true,11,1,1,0,false,q,false,false,0.0-2.0-0.45-0.413-3.413,0,0,0,90,false,stim,true,1,947.7999999523163,2,0,1,69221,task1,1034140,false,false,1318,image-keyboard-response,4
true,11,1,1,0,false,q,false,false,0.0-2.0-0.46-0.414-3.414,0,0,0,90,false,stim,true,1,469.7999999523163,2,0,1,69221,task1,1036135,false,false,1321,image-keyboard-response,5
true,11,2,1,0,false,q,true,false,0.0-2.0-0.46-0.415-3.415,0,0,0,68,false,stim,false,1,1188.0,2,0,1,69221,task1,1038846,false,false,1324,image-keyboard-response,6
true,11,2,1,2,true,d,false,false,0.0-2.0-0.46-0.416-3.416,0,0,0,68,false,stim,false,1,1208.7999999523163,2,0,2,69221,task1,1041573,false,true,1327,image-keyboard-response,7
true,11,1,1,2,false,d,false,false,0.0-2.0-0.46-0.417-3.417,0,0,0,90,false,stim,true,1,711.8999998569489,2,0,2,69221,task1,1043806,false,false,1330,image-keyboard-response,8
true,11,2,1,1,false,z,false,false,0.0-2.0-0.46-0.418-3.418,0,0,0,68,false,stim,true,2,919.7000000476837,2,0,0,69221,task1,1046244,false,false,1333,image-keyboard-response,9
true,11,0,1,1,false,z,true,false,0.0-2.0-0.46-0.419-3.419,0,0,0,81,false,stim,false,2,793.5,2,0,0,69221,task1,1048562,false,false,1336,image-keyboard-response,10
true,11,0,1,0,true,q,false,true,0.0-2.0-0.46-0.420-3.420,0,0,0,81,false,stim,false,1,964.4000000953674,2,0,1,69221,task1,1051052,false,false,1339,image-keyboard-response,11
true,11,1,1,1,true,z,false,true,0.0-2.0-0.46-0.421-3.421,0,0,0,90,false,stim,false,2,1063.2000000476837,2,0,0,69221,task1,1053639,false,false,1342,image-keyboard-response,12
true,11,0,1,2,false,d,true,false,0.0-2.0-0.46-0.422-3.422,0,0,0,81,false,stim,false,1,896.8000001907349,2,0,2,69221,task1,1056057,false,false,1345,image-keyboard-response,13
true,11,0,1,0,true,q,false,true,0.0-2.0-0.47-0.423-3.423,0,0,0,81,false,stim,false,1,523.5999999046326,2,0,1,69221,task1,1058109,false,false,1348,image-keyboard-response,14
true,11,0,1,2,false,d,true,false,0.0-2.0-0.47-0.424-3.424,0,0,0,81,false,stim,false,1,684.0,2,0,2,69221,task1,1060314,false,false,1351,image-keyboard-response,15
true,11,0,1,2,false,d,true,false,0.0-2.0-0.47-0.425-3.425,0,0,0,81,false,stim,false,1,595.6000001430511,2,0,2,69221,task1,1062430,false,false,1354,image-keyboard-response,16
true,11,0,1,0,true,q,false,true,0.0-2.0-0.47-0.426-3.426,0,0,0,81,false,stim,false,1,718.2999999523163,2,0,1,69221,task1,1064671,false,false,1357,image-keyboard-response,17
true,11,1,1,0,false,q,false,false,0.0-2.0-0.47-0.427-3.427,0,0,0,90,false,stim,true,1,473.2999999523163,2,0,1,69221,task1,1066669,false,false,1360,image-keyboard-response,18
true,11,1,1,1,true,z,false,true,0.0-2.0-0.47-0.428-3.428,0,0,0,90,false,stim,false,2,587.7999999523163,2,0,0,69221,task1,1068774,false,false,1363,image-keyboard-response,19
true,11,1,1,1,true,z,false,true,0.0-2.0-0.47-0.429-3.429,0,0,0,90,false,stim,false,2,1024.7999999523163,2,0,0,69221,task1,1071324,false,false,1366,image-keyboard-response,20
true,11,1,1,1,true,z,false,true,0.0-2.0-0.47-0.430-3.430,0,0,0,90,false,stim,false,2,462.2000000476837,2,0,0,69221,task1,1073311,false,false,1369,image-keyboard-response,21
true,11,2,1,2,true,d,false,false,0.0-2.0-0.47-0.431-3.431,0,0,0,68,false,stim,false,1,1302.7999999523163,2,0,2,69221,task1,1076130,false,true,1372,image-keyboard-response,22
true,11,1,1,1,true,z,false,true,0.0-2.0-0.48-0.432-3.432,0,0,0,90,false,stim,false,2,536.2999999523163,2,0,0,69221,task1,1078195,false,false,1375,image-keyboard-response,23
true,11,2,1,0,false,q,true,false,0.0-2.0-0.48-0.433-3.433,0,0,0,68,false,stim,false,1,1270.3999998569489,2,0,1,69221,task1,1080991,false,false,1378,image-keyboard-response,24
true,11,0,1,2,false,d,true,false,0.0-2.0-0.48-0.434-3.434,0,0,0,81,false,stim,false,1,463.5,2,0,2,69221,task1,1082981,false,false,1381,image-keyboard-response,25
true,11,0,1,2,false,d,true,false,0.0-2.0-0.48-0.435-3.435,0,0,0,81,false,stim,false,1,596.0,2,0,2,69221,task1,1085091,false,false,1384,image-keyboard-response,26
true,11,1,1,1,true,z,false,true,0.0-2.0-0.48-0.436-3.436,0,0,0,90,false,stim,false,2,505.10000014305115,2,0,0,69221,task1,1087124,false,false,1387,image-keyboard-response,27
true,11,0,1,0,true,q,false,true,0.0-2.0-0.48-0.437-3.437,0,0,0,81,false,stim,false,1,662.0999999046326,2,0,1,69221,task1,1089305,false,false,1390,image-keyboard-response,28
true,11,0,1,0,true,q,false,true,0.0-2.0-0.48-0.438-3.438,0,0,0,81,false,stim,false,1,460.0,2,0,1,69221,task1,1091281,false,false,1393,image-keyboard-response,29
true,11,1,1,1,true,z,false,true,0.0-2.0-0.48-0.439-3.439,0,0,0,90,false,stim,false,2,367.0,2,0,0,69221,task1,1093171,false,false,1396,image-keyboard-response,30
true,11,1,1,2,false,d,false,true,0.0-2.0-0.48-0.440-3.440,0,0,0,90,false,stim,true,1,402.7999999523163,2,0,2,69221,task1,1095093,false,true,1399,image-keyboard-response,31
true,11,1,1,1,true,z,false,true,0.0-2.0-0.49-0.441-3.441,0,0,0,90,false,stim,false,2,535.2000000476837,2,0,0,69221,task1,1097158,false,false,1402,image-keyboard-response,32
true,11,0,1,0,true,q,false,true,0.0-2.0-0.49-0.442-3.442,0,0,0,81,false,stim,false,1,501.5,2,0,1,69221,task1,1099181,false,false,1405,image-keyboard-response,33
true,11,1,1,2,false,d,false,false,0.0-2.0-0.49-0.443-3.443,0,0,0,90,false,stim,true,1,494.5,2,0,2,69221,task1,1101201,false,false,1408,image-keyboard-response,34
true,11,0,1,0,true,q,false,true,0.0-2.0-0.49-0.444-3.444,0,0,0,81,false,stim,false,1,424.40000009536743,2,0,1,69221,task1,1103155,false,false,1411,image-keyboard-response,35
true,11,1,1,1,true,z,false,false,0.0-2.0-0.49-0.445-3.445,0,0,0,90,false,stim,false,2,417.19999980926514,2,0,0,69221,task1,1105102,false,true,1414,image-keyboard-response,36
true,11,0,1,0,true,q,false,true,0.0-2.0-0.49-0.446-3.446,0,0,0,81,false,stim,false,1,500.7999999523163,2,0,1,69221,task1,1107132,false,false,1417,image-keyboard-response,37
true,11,1,1,1,true,z,false,true,0.0-2.0-0.49-0.447-3.447,0,0,0,90,false,stim,false,2,691.4000000953674,2,0,0,69221,task1,1109339,false,false,1420,image-keyboard-response,38
true,11,1,1,2,false,d,false,false,0.0-2.0-0.49-0.448-3.448,0,0,0,90,false,stim,true,1,538.7999999523163,2,0,2,69221,task1,1111399,false,false,1423,image-keyboard-response,39
true,11,0,1,2,false,d,true,false,0.0-2.0-0.49-0.449-3.449,0,0,0,81,false,stim,false,1,2037.5,2,0,2,69221,task1,1114961,false,false,1426,image-keyboard-response,40
true,11,2,1,2,true,d,false,true,0.0-2.0-0.50-0.450-3.450,0,0,0,68,false,stim,false,1,594.9000000953674,2,0,2,69221,task1,1117082,false,false,1429,image-keyboard-response,41
true,11,0,1,0,true,q,false,true,0.0-2.0-0.50-0.451-3.451,0,0,0,81,false,stim,false,1,410.7000000476837,2,0,1,69221,task1,1119014,false,false,1432,image-keyboard-response,42
true,12,2,2,1,false,z,false,false,0.0-2.0-0.50-0.452-3.452,0,0,0,68,true,stim,true,2,505.19999980926514,2,0,2,69221,task1,1121042,false,false,1435,image-keyboard-response,1
true,12,2,2,1,false,z,false,false,0.0-2.0-0.50-0.453-3.453,0,0,0,68,false,stim,true,2,492.69999980926514,2,0,2,69221,task1,1123062,false,false,1438,image-keyboard-response,2
true,12,1,2,2,false,d,false,false,0.0-2.0-0.50-0.454-3.454,0,0,0,90,false,stim,true,1,495.39999985694885,2,0,0,69221,task1,1125074,false,false,1441,image-keyboard-response,3
true,12,1,2,2,false,d,false,false,0.0-2.0-0.50-0.455-3.455,0,0,0,90,false,stim,true,1,422.39999985694885,2,0,0,69221,task1,1127026,false,false,1444,image-keyboard-response,4
true,12,0,2,1,false,z,false,false,0.0-2.0-0.50-0.456-3.456,0,0,0,81,false,stim,true,0,491.2999999523163,2,0,1,69221,task1,1129038,false,false,1447,image-keyboard-response,5
true,12,0,2,2,false,d,true,false,0.0-2.0-0.50-0.457-3.457,0,0,0,81,false,stim,false,1,1133.0,2,0,0,69221,task1,1131695,false,false,1450,image-keyboard-response,6
true,12,1,2,1,true,z,false,false,0.0-2.0-0.50-0.458-3.458,0,0,0,90,false,stim,false,0,498.2000000476837,2,0,1,69221,task1,1133714,false,true,1453,image-keyboard-response,7
true,12,2,2,1,false,z,false,false,0.0-2.0-0.51-0.459-3.459,0,0,0,68,false,stim,true,2,852.6000001430511,2,0,2,69221,task1,1136083,false,false,1456,image-keyboard-response,8
true,12,1,2,1,true,z,false,true,0.0-2.0-0.51-0.460-3.460,0,0,0,90,false,stim,false,2,732.0999999046326,2,0,2,69221,task1,1138331,false,false,1459,image-keyboard-response,9
true,12,1,2,1,true,z,false,true,0.0-2.0-0.51-0.461-3.461,0,0,0,90,false,stim,false,2,636.2999999523163,2,0,2,69221,task1,1140495,false,false,1462,image-keyboard-response,10
true,12,1,2,1,true,z,false,true,0.0-2.0-0.51-0.462-3.462,0,0,0,90,false,stim,false,0,609.7999999523163,2,0,1,69221,task1,1142635,false,false,1465,image-keyboard-response,11
true,12,1,2,1,true,z,false,false,0.0-2.0-0.51-0.463-3.463,0,0,0,90,false,stim,false,0,392.7000000476837,2,0,1,69221,task1,1144550,false,true,1468,image-keyboard-response,12
true,12,0,2,2,false,d,true,false,0.0-2.0-0.51-0.464-3.464,0,0,0,81,false,stim,false,1,1855.2999999523163,2,0,0,69221,task1,1147936,false,false,1471,image-keyboard-response,13
true,12,1,2,1,true,z,false,false,0.0-2.0-0.51-0.465-3.465,0,0,0,90,false,stim,false,0,569.7999999523163,2,0,1,69221,task1,1150023,false,true,1474,image-keyboard-response,14
true,12,1,2,2,false,d,false,false,0.0-2.0-0.51-0.466-3.466,0,0,0,90,false,stim,true,1,1217.1000001430511,2,0,0,69221,task1,1152757,false,false,1477,image-keyboard-response,15
true,12,2,2,2,true,d,false,true,0.0-2.0-0.51-0.467-3.467,0,0,0,68,false,stim,false,1,632.5999999046326,2,0,0,69221,task1,1154914,false,false,1480,image-keyboard-response,16
true,12,1,2,1,true,z,false,true,0.0-2.0-0.52-0.468-3.468,0,0,0,90,false,stim,false,2,449.0,2,0,2,69221,task1,1156881,false,false,1483,image-keyboard-response,17
true,12,2,2,2,true,d,false,false,0.0-2.0-0.52-0.469-3.469,0,0,0,68,false,stim,false,1,455.40000009536743,2,0,0,69221,task1,1158851,false,true,1486,image-keyboard-response,18
true,12,1,2,1,true,z,false,true,0.0-2.0-0.52-0.470-3.470,0,0,0,90,false,stim,false,0,918.9000000953674,2,0,1,69221,task1,1161292,false,false,1489,image-keyboard-response,19
true,12,2,2,2,true,d,false,true,0.0-2.0-0.52-0.471-3.471,0,0,0,68,false,stim,false,1,663.6000001430511,2,0,0,69221,task1,1163483,false,false,1492,image-keyboard-response,20
true,12,1,2,1,true,z,false,true,0.0-2.0-0.52-0.472-3.472,0,0,0,90,false,stim,false,0,899.2999999523163,2,0,1,69221,task1,1165897,false,false,1495,image-keyboard-response,21
true,12,1,2,1,true,z,false,false,0.0-2.0-0.52-0.473-3.473,0,0,0,90,false,stim,false,2,453.5,2,0,2,69221,task1,1167883,false,true,1498,image-keyboard-response,22
true,12,1,2,1,true,z,false,true,0.0-2.0-0.52-0.474-3.474,0,0,0,90,false,stim,false,0,407.19999980926514,2,0,1,69221,task1,1169824,false,false,1501,image-keyboard-response,23
true,12,2,2,2,true,d,false,true,0.0-2.0-0.52-0.475-3.475,0,0,0,68,false,stim,false,1,736.5999999046326,2,0,0,69221,task1,1172079,false,false,1504,image-keyboard-response,24
true,12,1,2,1,true,z,false,true,0.0-2.0-0.52-0.476-3.476,0,0,0,90,false,stim,false,2,450.5,2,0,2,69221,task1,1174048,false,false,1507,image-keyboard-response,25
true,12,1,2,1,true,z,false,true,0.0-2.0-0.53-0.477-3.477,0,0,0,90,false,stim,false,2,382.40000009536743,2,0,2,69221,task1,1175948,false,false,1510,image-keyboard-response,26
true,12,1,2,1,true,z,false,true,0.0-2.0-0.53-0.478-3.478,0,0,0,90,false,stim,false,0,479.89999985694885,2,0,1,69221,task1,1177951,false,false,1513,image-keyboard-response,27
true,12,1,2,1,true,z,false,true,0.0-2.0-0.53-0.479-3.479,0,0,0,90,false,stim,false,0,436.09999990463257,2,0,1,69221,task1,1179902,false,false,1516,image-keyboard-response,28
true,12,1,2,1,true,z,false,true,0.0-2.0-0.53-0.480-3.480,0,0,0,90,false,stim,false,2,749.1999998092651,2,0,2,69221,task1,1182174,false,false,1519,image-keyboard-response,29
true,12,1,2,1,true,z,false,true,0.0-2.0-0.53-0.481-3.481,0,0,0,90,false,stim,false,2,904.2000000476837,2,0,2,69221,task1,1184599,false,false,1522,image-keyboard-response,30
true,12,1,2,1,true,z,false,true,0.0-2.0-0.53-0.482-3.482,0,0,0,90,false,stim,false,0,581.0,2,0,1,69221,task1,1186705,false,false,1525,image-keyboard-response,31
true,12,2,2,2,true,d,false,true,0.0-2.0-0.53-0.483-3.483,0,0,0,68,false,stim,false,1,683.7000000476837,2,0,0,69221,task1,1188909,false,false,1528,image-keyboard-response,32
true,12,2,2,2,true,d,false,true,0.0-2.0-0.53-0.484-3.484,0,0,0,68,false,stim,false,1,844.7999999523163,2,0,0,69221,task1,1191267,false,false,1531,image-keyboard-response,33
true,12,2,2,2,true,d,false,true,0.0-2.0-0.53-0.485-3.485,0,0,0,68,false,stim,false,1,516.2000000476837,2,0,0,69221,task1,1193306,false,false,1534,image-keyboard-response,34
true,12,1,2,1,true,z,false,true,0.0-2.0-0.54-0.486-3.486,0,0,0,90,false,stim,false,0,767.6000001430511,2,0,1,69221,task1,1195600,false,false,1537,image-keyboard-response,35
true,12,2,2,2,true,d,false,true,0.0-2.0-0.54-0.487-3.487,0,0,0,68,false,stim,false,1,710.2999999523163,2,0,0,69221,task1,1197830,false,false,1540,image-keyboard-response,36
true,12,1,2,1,true,z,false,true,0.0-2.0-0.54-0.488-3.488,0,0,0,90,false,stim,false,2,380.39999985694885,2,0,2,69221,task1,1199727,false,false,1543,image-keyboard-response,37
true,12,1,2,1,true,z,false,true,0.0-2.0-0.54-0.489-3.489,0,0,0,90,false,stim,false,2,458.60000014305115,2,0,2,69221,task1,1201705,false,false,1546,image-keyboard-response,38
true,12,2,2,2,true,d,false,true,0.0-2.0-0.54-0.490-3.490,0,0,0,68,false,stim,false,1,536.0,2,0,0,69221,task1,1203759,false,false,1549,image-keyboard-response,39
true,12,1,2,1,true,z,false,false,0.0-2.0-0.54-0.491-3.491,0,0,0,90,false,stim,false,2,565.0,2,0,2,69221,task1,1205841,false,true,1552,image-keyboard-response,40
true,12,1,2,1,true,z,false,true,0.0-2.0-0.54-0.492-3.492,0,0,0,90,false,stim,false,0,478.39999985694885,2,0,1,69221,task1,1207838,false,false,1555,image-keyboard-response,41
true,12,1,2,1,true,z,false,true,0.0-2.0-0.54-0.493-3.493,0,0,0,90,false,stim,false,0,448.59999990463257,2,0,1,69221,task1,1209805,false,false,1558,image-keyboard-response,42
true,12,2,2,2,true,d,false,true,0.0-2.0-0.54-0.494-3.494,0,0,0,68,false,stim,false,1,757.7000000476837,2,0,0,69221,task1,1212085,false,false,1561,image-keyboard-response,43
true,13,1,1,0,false,q,false,false,0.0-2.0-0.55-0.495-3.495,0,0,0,90,true,stim,true,1,434.30000019073486,2,0,2,69221,task1,1214048,false,false,1564,image-keyboard-response,1
true,13,2,1,0,false,q,true,false,0.0-2.0-0.55-0.496-3.496,0,0,0,68,false,stim,false,1,780.2999999523163,2,0,2,69221,task1,1216354,false,false,1567,image-keyboard-response,2
true,13,1,1,2,false,d,false,true,0.0-2.0-0.55-0.497-3.497,0,0,0,90,false,stim,true,1,645.7000000476837,2,0,1,69221,task1,1218519,false,true,1570,image-keyboard-response,3
true,13,0,1,0,true,q,false,true,0.0-2.0-0.55-0.498-3.498,0,0,0,81,false,stim,false,1,428.2000000476837,2,0,2,69221,task1,1220470,false,false,1573,image-keyboard-response,4
true,13,1,1,2,false,d,false,false,0.0-2.0-0.55-0.499-3.499,0,0,0,90,false,stim,true,1,548.8000001907349,2,0,1,69221,task1,1222533,false,false,1576,image-keyboard-response,5
true,13,2,1,0,false,q,false,false,0.0-2.0-0.55-0.500-3.500,0,0,0,68,false,stim,true,2,428.09999990463257,2,0,0,69221,task1,1224485,false,false,1579,image-keyboard-response,6
true,13,1,1,2,false,d,false,false,0.0-2.0-0.55-0.501-3.501,0,0,0,90,false,stim,true,1,642.0,2,0,1,69221,task1,1226645,false,false,1582,image-keyboard-response,7
true,13,2,1,0,false,q,false,false,0.0-2.0-0.55-0.502-3.502,0,0,0,68,false,stim,true,2,567.2999999523163,2,0,0,69221,task1,1228735,false,false,1585,image-keyboard-response,8
true,13,1,1,0,false,q,true,false,0.0-2.0-0.55-0.503-3.503,0,0,0,90,false,stim,false,2,731.7000000476837,2,0,0,69221,task1,1230991,false,false,1588,image-keyboard-response,9
true,13,0,1,0,true,q,false,true,0.0-2.0-0.56-0.504-3.504,0,0,0,81,false,stim,false,1,1209.4000000953674,2,0,2,69221,task1,1233724,false,false,1591,image-keyboard-response,10
true,13,0,1,0,true,q,false,true,0.0-2.0-0.56-0.505-3.505,0,0,0,81,false,stim,false,2,813.2000000476837,2,0,0,69221,task1,1236065,false,false,1594,image-keyboard-response,11
true,13,0,1,2,false,d,true,false,0.0-2.0-0.56-0.506-3.506,0,0,0,81,false,stim,false,1,385.39999985694885,2,0,1,69221,task1,1237970,false,false,1597,image-keyboard-response,12
true,13,0,1,0,true,q,false,true,0.0-2.0-0.56-0.507-3.507,0,0,0,81,false,stim,false,2,569.5,2,0,0,69221,task1,1240068,false,false,1600,image-keyboard-response,13
true,13,0,1,0,true,q,false,true,0.0-2.0-0.56-0.508-3.508,0,0,0,81,false,stim,false,1,620.0999999046326,2,0,2,69221,task1,1242220,false,false,1603,image-keyboard-response,14
true,13,2,1,2,true,d,false,true,0.0-2.0-0.56-0.509-3.509,0,0,0,68,false,stim,false,1,598.2000000476837,2,0,1,69221,task1,1244348,false,false,1606,image-keyboard-response,15
true,13,2,1,2,true,d,false,true,0.0-2.0-0.56-0.510-3.510,0,0,0,68,false,stim,false,1,492.60000014305115,2,0,1,69221,task1,1246361,false,false,1609,image-keyboard-response,16
true,13,0,1,0,true,q,false,true,0.0-2.0-0.56-0.511-3.511,0,0,0,81,false,stim,false,1,499.7999999523163,2,0,2,69221,task1,1248380,false,false,1612,image-keyboard-response,17
true,13,0,1,0,true,q,false,false,0.0-2.0-0.56-0.512-3.512,0,0,0,81,false,stim,false,2,900.9000000953674,2,0,0,69221,task1,1250806,false,true,1615,image-keyboard-response,18
true,13,0,1,0,true,q,false,true,0.0-2.0-0.57-0.513-3.513,0,0,0,81,false,stim,false,2,780.2999999523163,2,0,0,69221,task1,1253110,false,false,1618,image-keyboard-response,19
true,13,2,1,2,true,d,false,false,0.0-2.0-0.57-0.514-3.514,0,0,0,68,false,stim,false,1,566.0,2,0,1,69221,task1,1255199,false,true,1621,image-keyboard-response,20
true,13,0,1,0,true,q,false,true,0.0-2.0-0.57-0.515-3.515,0,0,0,81,false,stim,false,2,459.10000014305115,2,0,0,69221,task1,1257179,false,false,1624,image-keyboard-response,21
true,13,0,1,0,true,q,false,true,0.0-2.0-0.57-0.516-3.516,0,0,0,81,false,stim,false,1,1140.2999999523163,2,0,2,69221,task1,1259845,false,false,1627,image-keyboard-response,22
true,13,0,1,0,true,q,false,true,0.0-2.0-0.57-0.517-3.517,0,0,0,81,false,stim,false,1,590.5,2,0,2,69221,task1,1261954,false,false,1630,image-keyboard-response,23
true,13,2,1,2,true,d,false,true,0.0-2.0-0.57-0.518-3.518,0,0,0,68,false,stim,false,1,466.5,2,0,1,69221,task1,1263948,false,false,1633,image-keyboard-response,24
true,13,2,1,2,true,d,false,true,0.0-2.0-0.57-0.519-3.519,0,0,0,68,false,stim,false,1,594.8999998569489,2,0,1,69221,task1,1266066,false,false,1636,image-keyboard-response,25
true,13,0,1,0,true,q,false,true,0.0-2.0-0.57-0.520-3.520,0,0,0,81,false,stim,false,2,513.0,2,0,0,69221,task1,1268103,false,false,1639,image-keyboard-response,26
true,13,0,1,0,true,q,false,true,0.0-2.0-0.57-0.521-3.521,0,0,0,81,false,stim,false,1,1552.5,2,0,2,69221,task1,1271180,false,false,1642,image-keyboard-response,27
true,13,0,1,0,true,q,false,true,0.0-2.0-0.58-0.522-3.522,0,0,0,81,false,stim,false,1,598.1999998092651,2,0,2,69221,task1,1273288,false,false,1645,image-keyboard-response,28
true,13,0,1,0,true,q,false,true,0.0-2.0-0.58-0.523-3.523,0,0,0,81,false,stim,false,1,441.7000000476837,2,0,2,69221,task1,1275241,false,false,1648,image-keyboard-response,29
true,13,0,1,0,true,q,false,true,0.0-2.0-0.58-0.524-3.524,0,0,0,81,false,stim,false,2,452.59999990463257,2,0,0,69221,task1,1277216,false,false,1651,image-keyboard-response,30
true,13,0,1,0,true,q,false,true,0.0-2.0-0.58-0.525-3.525,0,0,0,81,false,stim,false,2,768.7000000476837,2,0,0,69221,task1,1279512,false,false,1654,image-keyboard-response,31
true,13,2,1,2,true,d,false,true,0.0-2.0-0.58-0.526-3.526,0,0,0,68,false,stim,false,1,940.4000000953674,2,0,1,69221,task1,1281977,false,false,1657,image-keyboard-response,32
true,13,2,1,2,true,d,false,true,0.0-2.0-0.58-0.527-3.527,0,0,0,68,false,stim,false,1,526.0,2,0,1,69221,task1,1284022,false,false,1660,image-keyboard-response,33
true,13,0,1,0,true,q,false,true,0.0-2.0-0.58-0.528-3.528,0,0,0,81,false,stim,false,2,524.3999998569489,2,0,0,69221,task1,1286076,false,false,1663,image-keyboard-response,34
true,13,0,1,0,true,q,false,true,0.0-2.0-0.58-0.529-3.529,0,0,0,81,false,stim,false,1,1059.7999999523163,2,0,2,69221,task1,1288656,false,false,1666,image-keyboard-response,35
true,13,2,1,2,true,d,false,true,0.0-2.0-0.58-0.530-3.530,0,0,0,68,false,stim,false,1,920.2999999523163,2,1,1,69221,task1,1291094,false,false,1669,image-keyboard-response,36
true,13,0,1,0,true,q,false,true,0.0-2.0-0.59-0.531-3.531,0,0,0,81,false,stim,false,2,624.3999998569489,2,1,0,69221,task1,1293236,false,false,1672,image-keyboard-response,37
true,13,0,1,2,false,d,true,false,0.0-2.0-0.59-0.532-3.532,0,0,0,81,false,stim,false,1,735.6000001430511,2,1,1,69221,task1,1295495,false,false,1675,image-keyboard-response,38
true,13,0,1,0,true,q,false,true,0.0-2.0-0.59-0.533-3.533,0,0,0,81,false,stim,false,2,1073.1000001430511,2,1,0,69221,task1,1298094,false,false,1678,image-keyboard-response,39
true,13,2,1,2,true,d,false,true,0.0-2.0-0.59-0.534-3.534,0,0,0,68,false,stim,false,1,748.7000000476837,2,1,1,69221,task1,1300370,false,false,1681,image-keyboard-response,40
true,14,0,0,0,true,q,false,true,0.0-2.0-0.59-0.535-3.535,1,1,1,81,true,stim,false,0,873.9000000953674,2,1,2,69221,task1,1423526,false,false,1804,image-keyboard-response,1
true,14,1,0,0,false,q,true,false,0.0-2.0-0.59-0.536-3.536,1,1,1,90,false,stim,false,0,511.7000000476837,2,1,2,69221,task1,1425557,false,false,1807,image-keyboard-response,2
true,14,2,0,0,false,q,true,false,0.0-2.0-0.59-0.537-3.537,1,1,1,68,false,stim,false,0,583.2999999523163,2,1,0,69221,task1,1427673,false,false,1810,image-keyboard-response,3
true,14,0,0,0,true,q,false,true,0.0-2.0-0.59-0.538-3.538,1,1,1,81,false,stim,false,0,484.7000000476837,2,1,2,69221,task1,1429681,false,false,1813,image-keyboard-response,4
true,14,0,0,2,false,d,true,true,0.0-2.0-0.59-0.539-3.539,1,1,1,81,false,stim,false,2,341.40000009536743,2,1,1,69221,task1,1431545,false,true,1816,image-keyboard-response,5
true,14,1,0,0,false,q,true,false,0.0-2.0-0.60-0.540-3.540,1,1,1,90,false,stim,false,0,329.2999999523163,2,1,0,69221,task1,1433403,false,false,1819,image-keyboard-response,6
true,14,0,0,0,true,q,false,true,0.0-2.0-0.60-0.541-3.541,1,1,1,81,false,stim,false,0,805.3000001907349,2,1,2,69221,task1,1435737,false,false,1822,image-keyboard-response,7
true,14,0,0,2,false,d,true,true,0.0-2.0-0.60-0.542-3.542,1,1,1,81,false,stim,false,2,431.89999985694885,2,1,1,69221,task1,1437685,false,true,1825,image-keyboard-response,8
true,14,1,0,0,false,q,true,false,0.0-2.0-0.60-0.543-3.543,1,1,1,90,false,stim,false,0,389.60000014305115,2,0,0,69221,task1,1439589,false,false,1828,image-keyboard-response,9
true,14,0,0,0,true,q,false,true,0.0-2.0-0.60-0.544-3.544,1,1,1,81,false,stim,false,0,452.5,2,0,2,69221,task1,1441563,false,false,1831,image-keyboard-response,10
true,14,0,0,2,false,d,true,false,0.0-2.0-0.60-0.545-3.545,1,1,1,81,false,stim,false,2,234.40000009536743,2,0,1,69221,task1,1443320,false,false,1834,image-keyboard-response,11
true,14,0,0,0,true,q,false,true,0.0-2.0-0.60-0.546-3.546,1,1,1,81,false,stim,false,0,244.39999985694885,2,0,0,69221,task1,1445093,false,false,1837,image-keyboard-response,12
true,14,0,0,0,true,q,false,true,0.0-2.0-0.60-0.547-3.547,1,1,1,81,false,stim,false,0,357.59999990463257,2,0,2,69221,task1,1446970,false,false,1840,image-keyboard-response,13
true,15,0,1,0,true,q,false,true,0.0-2.0-0.60-0.548-3.548,0,0,0,81,true,stim,false,2,288.80000019073486,2,0,1,69221,task1,1448788,false,false,1843,image-keyboard-response,1
true,15,0,1,1,false,z,false,false,0.0-2.0-0.61-0.549-3.549,0,0,0,81,false,stim,true,0,533.2999999523163,2,0,2,69221,task1,1450837,false,false,1846,image-keyboard-response,2
true,15,0,1,0,true,q,false,true,0.0-2.0-0.61-0.550-3.550,0,0,0,81,false,stim,false,2,329.59999990463257,2,0,1,69221,task1,1452688,false,false,1849,image-keyboard-response,3
true,15,0,1,2,false,d,false,false,0.0-2.0-0.61-0.551-3.551,0,0,0,81,false,stim,true,0,425.39999985694885,2,0,0,69221,task1,1454636,false,false,1852,image-keyboard-response,4
true,15,0,1,1,false,z,false,false,0.0-2.0-0.61-0.552-3.552,0,0,0,81,false,stim,true,0,365.5,2,0,2,69221,task1,1456527,false,false,1855,image-keyboard-response,5
true,15,0,1,0,true,q,false,true,0.0-2.0-0.61-0.553-3.553,0,0,0,81,false,stim,false,2,672.7000000476837,2,0,1,69221,task1,1458721,false,false,1858,image-keyboard-response,6
true,15,0,1,0,true,q,false,true,0.0-2.0-0.61-0.554-3.554,0,0,0,81,false,stim,false,2,476.7999999523163,2,0,1,69221,task1,1460717,false,false,1861,image-keyboard-response,7
true,15,0,1,2,false,d,false,false,0.0-2.0-0.61-0.555-3.555,0,0,0,81,false,stim,true,0,323.59999990463257,2,0,0,69221,task1,1462558,false,false,1864,image-keyboard-response,8
true,15,1,1,1,true,z,false,false,0.0-2.0-0.61-0.556-3.556,0,0,0,90,false,stim,false,0,745.0,2,0,2,69221,task1,1464834,false,true,1867,image-keyboard-response,9
true,15,1,1,2,false,d,true,false,0.0-2.0-0.61-0.557-3.557,0,0,0,90,false,stim,false,0,1189.8999998569489,2,0,0,69221,task1,1467554,false,false,1870,image-keyboard-response,10
true,15,1,1,2,false,d,true,false,0.0-2.0-0.62-0.558-3.558,0,0,0,90,false,stim,false,0,787.7000000476837,2,0,0,69221,task1,1469868,false,false,1873,image-keyboard-response,11
true,15,1,1,0,false,q,true,false,0.0-2.0-0.62-0.559-3.559,0,0,0,90,false,stim,false,2,749.4000000953674,2,0,1,69221,task1,1472134,false,false,1876,image-keyboard-response,12
true,15,0,1,0,true,q,false,true,0.0-2.0-0.62-0.560-3.560,0,0,0,81,false,stim,false,2,660.2999999523163,2,0,1,69221,task1,1474317,false,false,1879,image-keyboard-response,13
true,15,2,1,2,true,d,false,true,0.0-2.0-0.62-0.561-3.561,0,0,0,68,false,stim,false,0,804.4000000953674,2,0,0,69221,task1,1476645,false,false,1882,image-keyboard-response,14
true,15,2,1,1,false,z,true,false,0.0-2.0-0.62-0.562-3.562,0,0,0,68,false,stim,false,0,403.2000000476837,2,0,2,69221,task1,1478578,false,false,1885,image-keyboard-response,15
true,15,0,1,1,false,z,false,false,0.0-2.0-0.62-0.563-3.563,0,0,0,81,false,stim,true,0,726.6000001430511,2,0,2,69221,task1,1480830,false,false,1888,image-keyboard-response,16
true,15,1,1,1,true,z,false,true,0.0-2.0-0.62-0.564-3.564,0,0,0,90,false,stim,false,0,453.40000009536743,2,0,2,69221,task1,1482800,false,false,1891,image-keyboard-response,17
true,15,2,1,2,true,d,false,true,0.0-2.0-0.62-0.565-3.565,0,0,0,68,false,stim,false,0,997.5999999046326,2,0,0,69221,task1,1485320,false,false,1894,image-keyboard-response,18
true,15,0,1,0,true,q,false,true,0.0-2.0-0.62-0.566-3.566,0,0,0,81,false,stim,false,2,688.3000001907349,2,0,1,69221,task1,1487529,false,false,1897,image-keyboard-response,19
true,15,2,1,2,true,d,false,true,0.0-2.0-0.63-0.567-3.567,0,0,0,68,false,stim,false,0,480.0,2,0,0,69221,task1,1489529,false,false,1900,image-keyboard-response,20
true,15,2,1,2,true,d,false,true,0.0-2.0-0.63-0.568-3.568,0,0,0,68,false,stim,false,0,617.2999999523163,2,0,0,69221,task1,1491680,false,false,1903,image-keyboard-response,21
true,15,1,1,1,true,z,false,true,0.0-2.0-0.63-0.569-3.569,0,0,0,90,false,stim,false,0,584.9000000953674,2,0,2,69221,task1,1493785,false,false,1906,image-keyboard-response,22
true,15,2,1,2,true,d,false,true,0.0-2.0-0.63-0.570-3.570,0,0,0,68,false,stim,false,0,915.9000000953674,2,0,0,69221,task1,1496220,false,false,1909,image-keyboard-response,23
true,15,1,1,1,true,z,false,false,0.0-2.0-0.63-0.571-3.571,0,0,0,90,false,stim,false,0,1229.9000000953674,2,0,2,69221,task1,1498978,false,true,1912,image-keyboard-response,24
true,15,1,1,1,true,z,false,true,0.0-2.0-0.63-0.572-3.572,0,0,0,90,false,stim,false,0,547.0999999046326,2,0,2,69221,task1,1501041,false,false,1915,image-keyboard-response,25
true,15,0,1,0,true,q,false,false,0.0-2.0-0.63-0.573-3.573,0,0,0,81,false,stim,false,2,686.7999999523163,2,0,1,69221,task1,1503256,false,true,1918,image-keyboard-response,26
true,15,0,1,0,true,q,false,true,0.0-2.0-0.63-0.574-3.574,0,0,0,81,false,stim,false,2,916.2000000476837,2,0,1,69221,task1,1505698,false,false,1921,image-keyboard-response,27
true,15,0,1,0,true,q,false,true,0.0-2.0-0.63-0.575-3.575,0,0,0,81,false,stim,false,2,517.5,2,0,1,69221,task1,1507739,false,false,1924,image-keyboard-response,28
true,15,0,1,0,true,q,false,true,0.0-2.0-0.64-0.576-3.576,0,0,0,81,false,stim,false,2,505.7000000476837,2,0,1,69221,task1,1509767,false,false,1927,image-keyboard-response,29
true,15,2,1,2,true,d,false,true,0.0-2.0-0.64-0.577-3.577,0,0,0,68,false,stim,false,0,779.2999999523163,2,0,0,69221,task1,1512066,false,false,1930,image-keyboard-response,30
true,15,2,1,2,true,d,false,true,0.0-2.0-0.64-0.578-3.578,0,0,0,68,false,stim,false,0,657.6000001430511,2,0,0,69221,task1,1514253,false,false,1933,image-keyboard-response,31
true,15,0,1,0,true,q,false,true,0.0-2.0-0.64-0.579-3.579,0,0,0,81,false,stim,false,2,743.6000001430511,2,0,1,69221,task1,1516515,false,false,1936,image-keyboard-response,32
true,15,1,1,1,true,z,false,true,0.0-2.0-0.64-0.580-3.580,0,0,0,90,false,stim,false,0,700.0,2,0,2,69221,task1,1518739,false,false,1939,image-keyboard-response,33
true,15,1,1,1,true,z,false,true,0.0-2.0-0.64-0.581-3.581,0,0,0,90,false,stim,false,0,636.3999998569489,2,0,2,69221,task1,1520889,false,false,1942,image-keyboard-response,34
true,15,2,1,2,true,d,false,true,0.0-2.0-0.64-0.582-3.582,0,0,0,68,false,stim,false,0,748.0999999046326,2,0,0,69221,task1,1523165,false,false,1945,image-keyboard-response,35
true,15,0,1,0,true,q,false,true,0.0-2.0-0.64-0.583-3.583,0,0,0,81,false,stim,false,2,785.4000000953674,2,0,1,69221,task1,1525474,false,false,1948,image-keyboard-response,36
true,15,1,1,1,true,z,false,true,0.0-2.0-0.64-0.584-3.584,0,0,0,90,false,stim,false,0,964.4000000953674,2,0,2,69221,task1,1527957,false,false,1951,image-keyboard-response,37
true,15,0,1,0,true,q,false,true,0.0-2.0-0.65-0.585-3.585,0,0,0,81,false,stim,false,2,587.1000001430511,2,0,1,69221,task1,1530066,false,false,1954,image-keyboard-response,38
true,15,2,1,2,true,d,false,true,0.0-2.0-0.65-0.586-3.586,0,0,0,68,false,stim,false,0,528.0999999046326,2,0,0,69221,task1,1532109,false,false,1957,image-keyboard-response,39
true,15,1,1,1,true,z,false,true,0.0-2.0-0.65-0.587-3.587,0,0,0,90,false,stim,false,0,1300.2999999523163,2,0,2,69221,task1,1534923,false,false,1960,image-keyboard-response,40
true,15,2,1,2,true,d,false,true,0.0-2.0-0.65-0.588-3.588,0,0,0,68,false,stim,false,0,720.9000000953674,2,0,0,69221,task1,1537171,false,false,1963,image-keyboard-response,41
true,16,0,2,2,false,d,false,false,0.0-2.0-0.65-0.589-3.589,0,0,0,81,true,stim,true,0,579.0999999046326,2,0,1,69221,task1,1539275,false,false,1966,image-keyboard-response,1
true,16,0,2,2,false,d,false,true,0.0-2.0-0.65-0.590-3.590,0,0,0,81,false,stim,true,0,451.2999999523163,2,0,1,69221,task1,1541255,false,true,1969,image-keyboard-response,2
