answered,blockNum,choice,condition,corResp,correct,correct_response,explo,fb,internal_node_id,isStable_1,isStable_2,isStable_3,key_press,newBlock,part,persev,persevResp,rt,sessNum,stableAS,stimulus,subject,task,time_elapsed,training,trap,trial_index,trial_type,trialsInBlock
true,1,1,0,2,false,d,true,false,0.0-2.0-0.0-0.0-3.0,0,0,0,90,true,stim,false,-1,736.0,1,0,1,69221,task2,168414,false,false,84,image-keyboard-response,1
true,1,2,0,2,true,d,false,true,0.0-2.0-0.0-0.1-3.1,0,0,0,68,false,stim,false,-1,694.5,1,0,0,69221,task2,170633,false,false,87,image-keyboard-response,2
true,1,2,0,2,true,d,false,true,0.0-2.0-0.0-0.2-3.2,0,0,0,68,false,stim,false,-1,470.10000014305115,1,0,0,69221,task2,172611,false,false,90,image-keyboard-response,3
true,1,1,0,0,false,q,true,false,0.0-2.0-0.0-0.3-3.3,0,0,0,90,false,stim,false,-1,606.0,1,0,2,69221,task2,174741,false,false,93,image-keyboard-response,4
true,1,0,0,2,false,d,true,false,0.0-2.0-0.0-0.4-3.4,0,0,0,81,false,stim,false,-1,637.7999999523163,1,0,1,69221,task2,176892,false,false,96,image-keyboard-response,5
true,1,2,0,0,false,q,true,false,0.0-2.0-0.0-0.5-3.5,0,0,0,68,false,stim,false,-1,1039.0,1,0,2,69221,task2,179445,false,false,99,image-keyboard-response,6
true,1,2,0,2,true,d,false,true,0.0-2.0-0.0-0.6-3.6,0,0,0,68,false,stim,false,-1,485.40000009536743,1,0,0,69221,task2,181457,false,false,102,image-keyboard-response,7
true,1,1,0,2,false,d,true,false,0.0-2.0-0.0-0.7-3.7,0,0,0,90,false,stim,false,-1,900.2999999523163,1,0,1,69221,task2,183872,false,false,105,image-keyboard-response,8
true,1,0,0,0,true,q,false,true,0.0-2.0-0.0-0.8-3.8,0,0,0,81,false,stim,false,-1,838.4000000953674,1,0,2,69221,task2,186228,false,false,108,image-keyboard-response,9
true,1,0,0,0,true,q,false,true,0.0-2.0-0.1-0.9-3.9,0,0,0,81,false,stim,false,-1,561.4000000953674,1,0,2,69221,task2,188310,false,false,111,image-keyboard-response,10
true,1,2,0,2,true,d,false,true,0.0-2.0-0.1-0.10-3.10,0,0,0,68,false,stim,false,-1,992.1000001430511,1,0,1,69221,task2,190826,false,false,114,image-keyboard-response,11
true,1,0,0,0,true,q,false,false,0.0-2.0-0.1-0.11-3.11,0,0,0,81,false,stim,false,-1,650.0,1,0,2,69221,task2,193004,false,true,117,image-keyboard-response,12
true,1,2,0,2,true,d,false,true,0.0-2.0-0.1-0.12-3.12,0,0,0,68,false,stim,false,-1,445.0,1,0,0,69221,task2,194966,false,false,120,image-keyboard-response,13
true,1,0,0,0,true,q,false,true,0.0-2.0-0.1-0.13-3.13,0,0,0,81,false,stim,false,-1,416.5,1,0,2,69221,task2,196903,false,false,123,image-keyboard-response,14
true,1,2,0,2,true,d,false,true,0.0-2.0-0.1-0.14-3.14,0,0,0,68,false,stim,false,-1,529.5999999046326,1,0,0,69221,task2,198952,false,false,126,image-keyboard-response,15
true,1,2,0,2,true,d,false,false,0.0-2.0-0.1-0.15-3.15,0,0,0,68,false,stim,false,-1,374.5,1,0,0,69221,task2,200844,false,true,129,image-keyboard-response,16
true,1,2,0,2,true,d,false,true,0.0-2.0-0.1-0.16-3.16,0,0,0,68,false,stim,false,-1,1715.9000000953674,1,0,1,69221,task2,204075,false,false,132,image-keyboard-response,17
true,1,2,0,2,true,d,false,true,0.0-2.0-0.1-0.17-3.17,0,0,0,68,false,stim,false,-1,647.3999998569489,1,0,1,69221,task2,206249,false,false,135,image-keyboard-response,18
true,1,2,0,2,true,d,false,false,0.0-2.0-0.2-0.18-3.18,0,0,0,68,false,stim,false,-1,851.2000000476837,1,0,0,69221,task2,208620,false,true,138,image-keyboard-response,19
true,1,0,0,0,true,q,false,true,0.0-2.0-0.2-0.19-3.19,0,0,0,81,false,stim,false,-1,751.4000000953674,1,0,2,69221,task2,210890,false,false,141,image-keyboard-response,20
true,1,2,0,2,true,d,false,true,0.0-2.0-0.2-0.20-3.20,0,0,0,68,false,stim,false,-1,1533.2000000476837,1,0,1,69221,task2,213934,false,false,144,image-keyboard-response,21
true,1,1,0,2,false,d,true,true,0.0-2.0-0.2-0.21-3.21,0,0,0,90,false,stim,false,-1,399.2000000476837,1,0,0,69221,task2,215849,false,true,147,image-keyboard-response,22
true,1,0,0,0,true,q,false,true,0.0-2.0-0.2-0.22-3.22,0,0,0,81,false,stim,false,-1,1282.5,1,1,2,69221,task2,218670,false,false,150,image-keyboard-response,23
true,1,2,0,2,true,d,false,true,0.0-2.0-0.2-0.23-3.23,0,0,0,68,false,stim,false,-1,394.5,1,0,1,69221,task2,220581,false,false,153,image-keyboard-response,24
true,1,2,0,2,true,d,false,false,0.0-2.0-0.2-0.24-3.24,0,0,0,68,false,stim,false,-1,438.5,1,0,1,69221,task2,222527,false,true,156,image-keyboard-response,25
true,1,1,0,2,false,d,true,false,0.0-2.0-0.2-0.25-3.25,0,0,0,90,false,stim,false,-1,365.90000009536743,1,0,0,69221,task2,224419,false,false,159,image-keyboard-response,26
true,2,0,2,0,true,q,false,true,0.0-2.0-0.2-0.26-3.26,0,0,1,81,true,stim,false,0,910.7999999523163,1,1,2,69221,task2,226856,false,false,162,image-keyboard-response,1
true,2,2,2,1,false,z,false,false,0.0-2.0-0.3-0.27-3.27,0,0,1,68,false,stim,true,2,389.7999999523163,1,0,1,69221,task2,228776,false,false,165,image-keyboard-response,2
true,2,1,2,1,true,z,false,true,0.0-2.0-0.3-0.28-3.28,0,0,1,90,false,stim,false,2,776.7999999523163,1,0,1,69221,task2,231081,false,false,168,image-keyboard-response,3
true,2,0,2,0,true,q,false,false,0.0-2.0-0.3-0.29-3.29,0,0,1,81,false,stim,false,0,499.90000009536743,1,1,2,69221,task2,233091,false,true,171,image-keyboard-response,4
true,2,1,2,1,true,z,false,true,0.0-2.0-0.3-0.30-3.30,0,0,1,90,false,stim,false,2,755.9000000953674,1,0,1,69221,task2,235374,false,false,174,image-keyboard-response,5
true,2,0,2,0,true,q,false,true,0.0-2.0-0.3-0.31-3.31,0,0,1,81,false,stim,false,0,633.1000001430511,1,1,2,69221,task2,237537,false,false,177,image-keyboard-response,6
true,2,1,2,1,true,z,false,false,0.0-2.0-0.3-0.32-3.32,0,0,1,90,false,stim,false,2,386.7999999523163,1,0,0,69221,task2,239439,false,true,180,image-keyboard-response,7
true,2,0,2,0,true,q,false,false,0.0-2.0-0.3-0.33-3.33,0,0,1,81,false,stim,false,0,820.7999999523163,1,1,2,69221,task2,241775,false,true,183,image-keyboard-response,8
true,2,0,2,1,false,z,true,false,0.0-2.0-0.3-0.34-3.34,0,0,1,81,false,stim,false,2,952.5999999046326,1,0,0,69221,task2,244242,false,false,186,image-keyboard-response,9
true,2,1,2,1,true,z,false,true,0.0-2.0-0.3-0.35-3.35,0,0,1,90,false,stim,false,2,827.9000000953674,1,0,0,69221,task2,246580,false,false,189,image-keyboard-response,10
true,2,1,2,1,true,z,false,true,0.0-2.0-0.4-0.36-3.36,0,0,1,90,false,stim,false,2,738.2000000476837,1,0,1,69221,task2,248841,false,false,192,image-keyboard-response,11
true,2,0,2,0,true,q,false,true,0.0-2.0-0.4-0.37-3.37,0,0,1,81,false,stim,false,0,466.7000000476837,1,1,2,69221,task2,250827,false,false,195,image-keyboard-response,12
true,2,0,2,0,true,q,false,true,0.0-2.0-0.4-0.38-3.38,0,0,1,81,false,stim,false,0,1393.7000000476837,1,1,2,69221,task2,253730,false,false,198,image-keyboard-response,13
true,2,1,2,1,true,z,false,true,0.0-2.0-0.4-0.39-3.39,0,0,1,90,false,stim,false,2,565.2999999523163,1,0,0,69221,task2,255817,false,false,201,image-keyboard-response,14
true,2,1,2,1,true,z,false,false,0.0-2.0-0.4-0.40-3.40,0,0,1,90,false,stim,false,2,400.89999985694885,1,0,0,69221,task2,257734,false,true,204,image-keyboard-response,15
true,2,1,2,1,true,z,false,true,0.0-2.0-0.4-0.41-3.41,0,0,1,90,false,stim,false,2,1317.8000001907349,1,0,1,69221,task2,260565,false,false,207,image-keyboard-response,16
true,2,1,2,1,true,z,false,true,0.0-2.0-0.4-0.42-3.42,0,0,1,90,false,stim,false,2,601.8999998569489,1,0,0,69221,task2,262691,false,false,210,image-keyboard-response,17
true,2,1,2,1,true,z,false,true,0.0-2.0-0.4-0.43-3.43,0,0,1,90,false,stim,false,2,1284.5999999046326,1,0,1,69221,task2,265500,false,false,213,image-keyboard-response,18
true,2,0,2,0,true,q,false,true,0.0-2.0-0.4-0.44-3.44,0,0,1,81,false,stim,false,0,687.0,1,1,2,69221,task2,267702,false,false,216,image-keyboard-response,19
true,2,0,2,0,true,q,false,true,0.0-2.0-0.5-0.45-3.45,0,0,1,81,false,stim,false,0,595.5,1,1,2,69221,task2,269812,false,false,219,image-keyboard-response,20
true,2,1,2,1,true,z,false,true,0.0-2.0-0.5-0.46-3.46,0,0,1,90,false,stim,false,2,362.80000019073486,1,0,0,69221,task2,271696,false,false,222,image-keyboard-response,21
true,2,1,2,1,true,z,false,true,0.0-2.0-0.5-0.47-3.47,0,0,1,90,false,stim,false,2,836.3999998569489,1,0,1,69221,task2,274059,false,false,225,image-keyboard-response,22
true,2,1,2,1,true,z,false,true,0.0-2.0-0.5-0.48-3.48,0,0,1,90,false,stim,false,2,536.1000001430511,1,0,0,69221,task2,276105,false,false,228,image-keyboard-response,23
true,2,1,2,1,true,z,false,true,0.0-2.0-0.5-0.49-3.49,0,0,1,90,false,stim,false,2,496.5,1,0,1,69221,task2,278116,false,false,231,image-keyboard-response,24
true,2,0,2,0,true,q,false,true,0.0-2.0-0.5-0.50-3.50,0,0,1,81,false,stim,false,0,456.40000009536743,1,1,2,69221,task2,280089,false,false,234,image-keyboard-response,25
true,2,1,2,1,true,z,false,true,0.0-2.0-0.5-0.51-3.51,0,0,1,90,false,stim,false,2,514.5999999046326,1,0,0,69221,task2,282114,false,false,237,image-keyboard-response,26
true,2,0,2,0,true,q,false,true,0.0-2.0-0.5-0.52-3.52,0,0,1,81,false,stim,false,0,581.2000000476837,1,1,2,69221,task2,284211,false,false,240,image-keyboard-response,27
true,2,1,2,1,true,z,false,false,0.0-2.0-0.5-0.53-3.53,0,0,1,90,false,stim,false,2,476.30000019073486,1,0,1,69221,task2,286194,false,true,243,image-keyboard-response,28
true,2,1,2,1,true,z,false,true,0.0-2.0-0.6-0.54-3.54,0,0,1,90,false,stim,false,2,493.89999985694885,1,0,0,69221,task2,288202,false,false,246,image-keyboard-response,29
true,2,1,2,1,true,z,false,true,0.0-2.0-0.6-0.55-3.55,0,0,1,90,false,stim,false,2,964.1999998092651,1,1,1,69221,task2,290697,false,false,249,image-keyboard-response,30
true,2,1,2,1,true,z,false,true,0.0-2.0-0.6-0.56-3.56,0,0,1,90,false,stim,false,2,563.5,1,0,0,69221,task2,292778,false,false,252,image-keyboard-response,31
true,2,1,2,1,true,z,false,true,0.0-2.0-0.6-0.57-3.57,0,0,1,90,false,stim,false,2,502.09999990463257,1,1,1,69221,task2,294800,false,false,255,image-keyboard-response,32
true,2,0,2,0,true,q,false,true,0.0-2.0-0.6-0.58-3.58,0,0,1,81,false,stim,false,0,380.0,1,0,2,69221,task2,296712,false,false,258,image-keyboard-response,33
true,3,1,2,0,false,q,false,false,0.0-2.0-0.6-0.59-3.59,0,1,0,90,true,stim,true,1,517.6000001430511,1,0,0,69221,task2,298749,false,false,261,image-keyboard-response,1
true,3,0,2,2,false,d,false,false,0.0-2.0-0.6-0.60-3.60,0,1,0,81,false,stim,true,0,717.5999999046326,1,0,2,69221,task2,300980,false,false,264,image-keyboard-response,2
true,3,1,2,1,true,z,false,true,0.0-2.0-0.6-0.61-3.61,0,1,0,90,false,stim,false,1,359.09999990463257,1,1,1,69221,task2,302844,false,false,267,image-keyboard-response,3
true,3,0,2,2,false,d,false,false,0.0-2.0-0.6-0.62-3.62,0,1,0,81,false,stim,true,0,549.7000000476837,1,0,2,69221,task2,304910,false,false,270,image-keyboard-response,4
true,3,1,2,0,false,q,false,false,0.0-2.0-0.7-0.63-3.63,0,1,0,90,false,stim,true,1,821.4000000953674,1,0,0,69221,task2,307253,false,false,273,image-keyboard-response,5
true,3,1,2,1,true,z,false,true,0.0-2.0-0.7-0.64-3.64,0,1,0,90,false,stim,false,1,706.9000000953674,1,1,1,69221,task2,309473,false,false,276,image-keyboard-response,6
true,3,2,2,2,true,d,false,true,0.0-2.0-0.7-0.65-3.65,0,1,0,68,false,stim,false,0,450.90000009536743,1,0,2,69221,task2,311449,false,false,279,image-keyboard-response,7
true,3,1,2,0,false,q,false,false,0.0-2.0-0.7-0.66-3.66,0,1,0,90,false,stim,true,1,1304.7000000476837,1,0,0,69221,task2,314268,false,false,282,image-keyboard-response,8
true,3,1,2,1,true,z,false,true,0.0-2.0-0.7-0.67-3.67,0,1,0,90,false,stim,false,1,1036.7000000476837,1,1,1,69221,task2,316836,false,false,285,image-keyboard-response,9
true,3,2,2,2,true,d,false,true,0.0-2.0-0.7-0.68-3.68,0,1,0,68,false,stim,false,0,443.40000009536743,1,0,2,69221,task2,318801,false,false,288,image-keyboard-response,10
true,3,0,2,0,true,q,false,true,0.0-2.0-0.7-0.69-3.69,0,1,0,81,false,stim,false,1,371.7000000476837,1,0,0,69221,task2,320703,false,false,291,image-keyboard-response,11
true,3,1,2,1,true,z,false,true,0.0-2.0-0.7-0.70-3.70,0,1,0,90,false,stim,false,1,848.4000000953674,1,1,1,69221,task2,323067,false,false,294,image-keyboard-response,12
true,3,2,2,2,true,d,false,true,0.0-2.0-0.7-0.71-3.71,0,1,0,68,false,stim,false,0,371.2000000476837,1,0,2,69221,task2,324968,false,false,297,image-keyboard-response,13
true,3,1,2,1,true,z,false,true,0.0-2.0-0.8-0.72-3.72,0,1,0,90,false,stim,false,1,730.7999999523163,1,1,1,69221,task2,327231,false,false,300,image-keyboard-response,14
true,3,2,2,2,true,d,false,true,0.0-2.0-0.8-0.73-3.73,0,1,0,68,false,stim,false,0,576.0,1,0,2,69221,task2,329327,false,false,303,image-keyboard-response,15
true,3,0,2,0,true,q,false,true,0.0-2.0-0.8-0.74-3.74,0,1,0,81,false,stim,false,1,605.7000000476837,1,0,0,69221,task2,331453,false,false,306,image-keyboard-response,16
true,3,1,2,0,false,q,false,false,0.0-2.0-0.8-0.75-3.75,0,1,0,90,false,stim,true,1,477.5,1,0,0,69221,task2,333442,false,false,309,image-keyboard-response,17
true,3,2,2,2,true,d,false,true,0.0-2.0-0.8-0.76-3.76,0,1,0,68,false,stim,false,0,803.5,1,0,2,69221,task2,335752,false,false,312,image-keyboard-response,18
true,3,2,2,2,true,d,false,true,0.0-2.0-0.8-0.77-3.77,0,1,0,68,false,stim,false,0,804.6999998092651,1,0,2,69221,task2,338085,false,false,315,image-keyboard-response,19
true,3,1,2,1,true,z,false,true,0.0-2.0-0.8-0.78-3.78,0,1,0,90,false,stim,false,1,391.59999990463257,1,1,1,69221,task2,340010,false,false,318,image-keyboard-response,20
true,3,0,2,0,true,q,false,true,0.0-2.0-0.8-0.79-3.79,0,1,0,81,false,stim,false,1,341.0,1,0,0,69221,task2,341859,false,false,321,image-keyboard-response,21
true,3,1,2,1,true,z,false,true,0.0-2.0-0.8-0.80-3.80,0,1,0,90,false,stim,false,1,796.9000000953674,1,1,1,69221,task2,344181,false,false,324,image-keyboard-response,22
true,3,2,2,2,true,d,false,false,0.0-2.0-0.9-0.81-3.81,0,1,0,68,false,stim,false,0,377.09999990463257,1,0,2,69221,task2,346094,false,true,327,image-keyboard-response,23
true,3,2,2,2,true,d,false,true,0.0-2.0-0.9-0.82-3.82,0,1,0,68,false,stim,false,0,852.0,1,0,2,69221,task2,348456,false,false,330,image-keyboard-response,24
true,3,0,2,0,true,q,false,true,0.0-2.0-0.9-0.83-3.83,0,1,0,81,false,stim,false,1,2106.0999999046326,1,0,0,69221,task2,352092,false,false,333,image-keyboard-response,25
true,3,0,2,0,true,q,false,false,0.0-2.0-0.9-0.84-3.84,0,1,0,81,false,stim,false,1,518.2999999523163,1,0,0,69221,task2,354118,false,true,336,image-keyboard-response,26
true,3,1,2,1,true,z,false,true,0.0-2.0-0.9-0.85-3.85,0,1,0,90,false,stim,false,1,454.2000000476837,1,1,1,69221,task2,356087,false,false,339,image-keyboard-response,27
true,3,2,2,2,true,d,false,true,0.0-2.0-0.9-0.86-3.86,0,1,0,68,false,stim,false,0,786.2000000476837,1,0,2,69221,task2,358384,false,false,342,image-keyboard-response,28
true,3,1,2,0,false,q,false,false,0.0-2.0-0.9-0.87-3.87,0,1,0,90,false,stim,true,1,973.2000000476837,1,1,0,69221,task2,360887,false,false,345,image-keyboard-response,29
true,3,0,2,1,false,z,true,false,0.0-2.0-0.9-0.88-3.88,0,1,0,81,false,stim,false,1,879.2999999523163,1,0,1,69221,task2,363301,false,false,348,image-keyboard-response,30
true,3,1,2,1,true,z,false,true,0.0-2.0-0.9-0.89-3.89,0,1,0,90,false,stim,false,1,692.5,1,0,1,69221,task2,365519,false,false,351,image-keyboard-response,31
true,3,1,2,1,true,z,false,true,0.0-2.0-0.10-0.90-3.90,0,1,0,90,false,stim,false,1,479.40000009536743,1,0,1,69221,task2,367521,false,false,354,image-keyboard-response,32
true,4,1,2,2,false,d,false,false,0.0-2.0-0.10-0.91-3.91,1,0,0,90,true,stim,true,1,585.0999999046326,1,0,1,69221,task2,369614,false,false,357,image-keyboard-response,1
true,4,2,2,1,false,z,false,false,0.0-2.0-0.10-0.92-3.92,1,0,0,68,false,stim,true,2,527.6000001430511,1,0,2,69221,task2,371659,false,false,360,image-keyboard-response,2
true,4,2,2,1,false,z,false,false,0.0-2.0-0.10-0.93-3.93,1,0,0,68,false,stim,true,2,696.3999998569489,1,0,2,69221,task2,373885,false,false,363,image-keyboard-response,3
true,4,0,2,0,true,q,false,true,0.0-2.0-0.10-0.94-3.94,1,0,0,81,false,stim,false,0,790.8999998569489,1,1,0,69221,task2,376198,false,false,366,image-keyboard-response,4
true,4,1,2,1,true,z,false,true,0.0-2.0-0.10-0.95-3.95,1,0,0,90,false,stim,false,2,614.5999999046326,1,0,2,69221,task2,378342,false,false,369,image-keyboard-response,5
true,4,0,2,0,true,q,false,true,0.0-2.0-0.10-0.96-3.96,1,0,0,81,false,stim,false,0,606.8999998569489,1,1,0,69221,task2,380467,false,false,372,image-keyboard-response,6
true,4,1,2,2,false,d,false,true,0.0-2.0-0.10-0.97-3.97,1,0,0,90,false,stim,true,1,670.1000001430511,1,0,1,69221,task2,382647,false,true,375,image-keyboard-response,7
true,4,0,2,0,true,q,false,true,0.0-2.0-0.10-0.98-3.98,1,0,0,81,false,stim,false,0,529.2000000476837,1,1,0,69221,task2,384690,false,false,378,image-keyboard-response,8
true,4,1,2,1,true,z,false,true,0.0-2.0-0.11-0.99-3.99,1,0,0,90,false,stim,false,2,434.59999990463257,1,0,2,69221,task2,386642,false,false,381,image-keyboard-response,9
true,4,0,2,0,true,q,false,true,0.0-2.0-0.11-0.100-3.100,1,0,0,81,false,stim,false,0,397.0,1,1,0,69221,task2,388555,false,false,384,image-keyboard-response,10
true,4,0,2,0,true,q,false,true,0.0-2.0-0.11-0.101-3.101,1,0,0,81,false,stim,false,0,468.39999985694885,1,1,0,69221,task2,390541,false,false,387,image-keyboard-response,11
true,4,1,2,2,false,d,false,false,0.0-2.0-0.11-0.102-3.102,1,0,0,90,false,stim,true,1,389.40000009536743,1,0,1,69221,task2,392455,false,false,390,image-keyboard-response,12
true,4,1,2,1,true,z,false,true,0.0-2.0-0.11-0.103-3.103,1,0,0,90,false,stim,false,2,1572.9000000953674,1,0,2,69221,task2,395545,false,false,393,image-keyboard-response,13
true,4,1,2,2,false,d,false,false,0.0-2.0-0.11-0.104-3.104,1,0,0,90,false,stim,true,1,518.6000001430511,1,0,1,69221,task2,397581,false,false,396,image-keyboard-response,14
true,4,0,2,2,false,d,true,false,0.0-2.0-0.11-0.105-3.105,1,0,0,81,false,stim,false,1,562.0,1,0,1,69221,task2,399672,false,false,399,image-keyboard-response,15
true,4,0,2,0,true,q,false,true,0.0-2.0-0.11-0.106-3.106,1,0,0,81,false,stim,false,0,400.2000000476837,1,1,0,69221,task2,401599,false,false,402,image-keyboard-response,16
true,4,1,2,1,true,z,false,false,0.0-2.0-0.11-0.107-3.107,1,0,0,90,false,stim,false,2,644.3000001907349,1,0,2,69221,task2,403764,false,true,405,image-keyboard-response,17
true,4,1,2,2,false,d,false,false,0.0-2.0-0.12-0.108-3.108,1,0,0,90,false,stim,true,1,637.0,1,0,1,69221,task2,405910,false,false,408,image-keyboard-response,18
true,4,0,2,0,true,q,false,false,0.0-2.0-0.12-0.109-3.109,1,0,0,81,false,stim,false,0,583.7999999523163,1,1,0,69221,task2,408006,false,true,411,image-keyboard-response,19
true,4,2,2,1,false,z,false,false,0.0-2.0-0.12-0.110-3.110,1,0,0,68,false,stim,true,2,570.2000000476837,1,0,2,69221,task2,410094,false,false,414,image-keyboard-response,20
true,4,2,2,2,true,d,false,true,0.0-2.0-0.12-0.111-3.111,1,0,0,68,false,stim,false,1,714.0,1,0,1,69221,task2,412326,false,false,417,image-keyboard-response,21
true,4,0,2,0,true,q,false,true,0.0-2.0-0.12-0.112-3.112,1,0,0,81,false,stim,false,0,924.5,1,1,0,69221,task2,414766,false,false,420,image-keyboard-response,22
true,4,2,2,2,true,d,false,true,0.0-2.0-0.12-0.113-3.113,1,0,0,68,false,stim,false,1,844.5999999046326,1,0,1,69221,task2,417135,false,false,423,image-keyboard-response,23
true,4,0,2,0,true,q,false,true,0.0-2.0-0.12-0.114-3.114,1,0,0,81,false,stim,false,0,614.5,1,1,0,69221,task2,419274,false,false,426,image-keyboard-response,24
true,4,1,2,1,true,z,false,true,0.0-2.0-0.12-0.115-3.115,1,0,0,90,false,stim,false,2,1503.7000000476837,1,0,2,69221,task2,422291,false,false,429,image-keyboard-response,25
true,4,2,2,1,false,z,false,false,0.0-2.0-0.12-0.116-3.116,1,0,0,68,false,stim,true,2,745.6000001430511,1,0,2,69221,task2,424572,false,false,432,image-keyboard-response,26
true,4,1,2,1,true,z,false,true,0.0-2.0-0.13-0.117-3.117,1,0,0,90,false,stim,false,2,368.7999999523163,1,1,2,69221,task2,426478,false,false,435,image-keyboard-response,27
true,4,1,2,1,true,z,false,true,0.0-2.0-0.13-0.118-3.118,1,0,0,90,false,stim,false,2,678.2000000476837,1,1,2,69221,task2,428684,false,false,438,image-keyboard-response,28
true,4,2,2,2,true,d,false,false,0.0-2.0-0.13-0.119-3.119,1,0,0,68,false,stim,false,1,1288.5,1,0,1,69221,task2,431497,false,true,441,image-keyboard-response,29
true,4,2,2,1,false,z,false,false,0.0-2.0-0.13-0.120-3.120,1,0,0,68,false,stim,true,2,816.4000000953674,1,1,2,69221,task2,433830,false,false,444,image-keyboard-response,30
true,4,0,2,2,false,d,true,false,0.0-2.0-0.13-0.121-3.121,1,0,0,81,false,stim,false,1,742.2000000476837,1,0,1,69221,task2,436085,false,false,447,image-keyboard-response,31
true,5,0,2,2,false,d,false,false,0.0-2.0-0.13-0.122-3.122,0,0,1,81,true,stim,true,0,599.7999999523163,1,0,0,69221,task2,438208,false,false,450,image-keyboard-response,1
true,5,0,2,2,false,d,false,false,0.0-2.0-0.13-0.123-3.123,0,0,1,81,false,stim,true,0,592.2999999523163,1,0,0,69221,task2,440324,false,false,453,image-keyboard-response,2
true,5,1,2,1,true,z,false,true,0.0-2.0-0.13-0.124-3.124,0,0,1,90,false,stim,false,2,884.5,1,0,1,69221,task2,442725,false,false,456,image-keyboard-response,3
true,5,1,2,2,false,d,true,false,0.0-2.0-0.13-0.125-3.125,0,0,1,90,false,stim,false,0,423.0,1,0,0,69221,task2,444661,false,false,459,image-keyboard-response,4
true,5,2,2,2,true,d,false,true,0.0-2.0-0.14-0.126-3.126,0,0,1,68,false,stim,false,0,545.4000000953674,1,0,0,69221,task2,446737,false,false,462,image-keyboard-response,5
true,5,1,2,1,true,z,false,true,0.0-2.0-0.14-0.127-3.127,0,0,1,90,false,stim,false,2,565.3999998569489,1,0,1,69221,task2,448822,false,false,465,image-keyboard-response,6
true,5,1,2,1,true,z,false,true,0.0-2.0-0.14-0.128-3.128,0,0,1,90,false,stim,false,2,499.89999985694885,1,0,1,69221,task2,450843,false,false,468,image-keyboard-response,7
true,5,1,2,1,true,z,false,false,0.0-2.0-0.14-0.129-3.129,0,0,1,90,false,stim,false,1,1348.6999998092651,1,1,2,69221,task2,453707,false,true,471,image-keyboard-response,8
true,5,2,2,1,false,z,true,false,0.0-2.0-0.14-0.130-3.130,0,0,1,68,false,stim,false,1,725.7000000476837,1,1,2,69221,task2,455953,false,false,474,image-keyboard-response,9
true,5,2,2,2,true,d,false,true,0.0-2.0-0.14-0.131-3.131,0,0,1,68,false,stim,false,0,765.7000000476837,1,0,0,69221,task2,458226,false,false,477,image-keyboard-response,10
true,5,1,2,1,true,z,false,true,0.0-2.0-0.14-0.132-3.132,0,0,1,90,false,stim,false,1,1016.0,1,1,2,69221,task2,460759,false,false,480,image-keyboard-response,11
true,5,1,2,1,true,z,false,false,0.0-2.0-0.14-0.133-3.133,0,0,1,90,false,stim,false,2,478.59999990463257,1,0,1,69221,task2,462767,false,true,483,image-keyboard-response,12
true,5,2,2,2,true,d,false,true,0.0-2.0-0.14-0.134-3.134,0,0,1,68,false,stim,false,0,986.3999998569489,1,0,0,69221,task2,465267,false,false,486,image-keyboard-response,13
true,5,1,2,1,true,z,false,true,0.0-2.0-0.15-0.135-3.135,0,0,1,90,false,stim,false,2,344.2999999523163,1,0,1,69221,task2,467124,false,false,489,image-keyboard-response,14
true,5,1,2,1,true,z,false,true,0.0-2.0-0.15-0.136-3.136,0,0,1,90,false,stim,false,2,405.90000009536743,1,0,1,69221,task2,469051,false,false,492,image-keyboard-response,15
true,5,1,2,1,true,z,false,true,0.0-2.0-0.15-0.137-3.137,0,0,1,90,false,stim,false,1,464.59999990463257,1,1,2,69221,task2,471036,false,false,495,image-keyboard-response,16
true,5,2,2,2,true,d,false,true,0.0-2.0-0.15-0.138-3.138,0,0,1,68,false,stim,false,0,459.90000009536743,1,0,0,69221,task2,473016,false,false,498,image-keyboard-response,17
true,5,1,2,1,true,z,false,false,0.0-2.0-0.15-0.139-3.139,0,0,1,90,false,stim,false,2,1046.8999998569489,1,0,1,69221,task2,475587,false,true,501,image-keyboard-response,18
true,5,2,2,2,true,d,false,true,0.0-2.0-0.15-0.140-3.140,0,0,1,68,false,stim,false,0,487.80000019073486,1,0,0,69221,task2,477585,false,false,504,image-keyboard-response,19
true,5,1,2,2,false,d,true,true,0.0-2.0-0.15-0.141-3.141,0,0,1,90,false,stim,false,0,336.90000009536743,1,0,0,69221,task2,479443,false,true,507,image-keyboard-response,20
true,5,1,2,1,true,z,false,true,0.0-2.0-0.15-0.142-3.142,0,0,1,90,false,stim,false,1,1887.5999999046326,1,1,2,69221,task2,482861,false,false,510,image-keyboard-response,21
true,5,1,2,1,true,z,false,true,0.0-2.0-0.15-0.143-3.143,0,0,1,90,false,stim,false,1,682.2000000476837,1,1,2,69221,task2,485059,false,false,513,image-keyboard-response,22
true,5,2,2,2,true,d,false,true,0.0-2.0-0.16-0.144-3.144,0,0,1,68,false,stim,false,0,555.6000001430511,1,0,0,69221,task2,487136,false,false,516,image-keyboard-response,23
true,5,1,2,1,true,z,false,true,0.0-2.0-0.16-0.145-3.145,0,0,1,90,false,stim,false,1,1497.7000000476837,1,1,2,69221,task2,490153,false,false,519,image-keyboard-response,24
true,5,1,2,1,true,z,false,true,0.0-2.0-0.16-0.146-3.146,0,0,1,90,false,stim,false,1,455.60000014305115,1,1,2,69221,task2,492131,false,false,522,image-keyboard-response,25
true,5,2,2,2,true,d,false,true,0.0-2.0-0.16-0.147-3.147,0,0,1,68,false,stim,false,0,1965.5999999046326,1,0,0,69221,task2,495626,false,false,525,image-keyboard-response,26
true,5,2,2,2,true,d,false,true,0.0-2.0-0.16-0.148-3.148,0,0,1,68,false,stim,false,0,606.0999999046326,1,0,0,69221,task2,497746,false,false,528,image-keyboard-response,27
true,5,1,2,1,true,z,false,true,0.0-2.0-0.16-0.149-3.149,0,0,1,90,false,stim,false,2,478.5,1,0,1,69221,task2,499736,false,false,531,image-keyboard-response,28
true,5,1,2,1,true,z,false,true,0.0-2.0-0.16-0.150-3.150,0,0,1,90,false,stim,false,2,415.7999999523163,1,0,1,69221,task2,501672,false,false,534,image-keyboard-response,29
true,5,1,2,1,true,z,false,true,0.0-2.0-0.16-0.151-3.151,0,0,1,90,false,stim,false,2,445.7000000476837,1,0,1,69221,task2,503640,false,false,537,image-keyboard-response,30
true,5,2,2,1,false,z,true,false,0.0-2.0-0.16-0.152-3.152,0,0,1,68,false,stim,false,1,522.4000000953674,1,0,2,69221,task2,505682,false,false,540,image-keyboard-response,31
true,5,1,2,1,true,z,false,true,0.0-2.0-0.17-0.153-3.153,0,0,1,90,false,stim,false,1,1847.7999999523163,1,0,2,69221,task2,509043,false,false,543,image-keyboard-response,32
true,5,2,2,2,true,d,false,true,0.0-2.0-0.17-0.154-3.154,0,0,1,68,false,stim,false,0,850.5,1,0,0,69221,task2,511406,false,false,546,image-keyboard-response,33
true,5,1,2,1,true,z,false,true,0.0-2.0-0.17-0.155-3.155,0,0,1,90,false,stim,false,2,813.5,1,0,1,69221,task2,513739,false,false,549,image-keyboard-response,34
true,6,1,1,0,false,q,false,false,0.0-2.0-0.17-0.156-3.156,0,0,0,90,true,stim,true,1,756.4000000953674,1,0,1,69221,task2,516017,false,false,552,image-keyboard-response,1
true,6,1,1,2,false,d,false,false,0.0-2.0-0.17-0.157-3.157,0,0,0,90,false,stim,true,1,893.8999998569489,1,0,2,69221,task2,518433,false,false,555,image-keyboard-response,2
true,6,2,1,0,false,q,false,false,0.0-2.0-0.17-0.158-3.158,0,0,0,68,false,stim,true,2,336.5,1,0,0,69221,task2,520277,false,false,558,image-keyboard-response,3
true,6,2,1,0,false,q,false,true,0.0-2.0-0.17-0.159-3.159,0,0,0,68,false,stim,true,2,598.2999999523163,1,0,0,69221,task2,522404,false,true,561,image-keyboard-response,4
true,6,1,1,0,false,q,false,false,0.0-2.0-0.17-0.160-3.160,0,0,0,90,false,stim,true,1,573.5,1,0,1,69221,task2,524498,false,false,564,image-keyboard-response,5
true,6,1,1,2,false,d,false,false,0.0-2.0-0.17-0.161-3.161,0,0,0,90,false,stim,true,1,929.0,1,0,2,69221,task2,526954,false,false,567,image-keyboard-response,6
true,6,2,1,0,false,q,false,false,0.0-2.0-0.18-0.162-3.162,0,0,0,68,false,stim,true,2,420.59999990463257,1,0,0,69221,task2,528885,false,false,570,image-keyboard-response,7
true,6,2,1,0,false,q,false,false,0.0-2.0-0.18-0.163-3.163,0,0,0,68,false,stim,true,2,594.2000000476837,1,0,0,69221,task2,530986,false,false,573,image-keyboard-response,8
true,6,0,1,0,true,q,false,false,0.0-2.0-0.18-0.164-3.164,0,0,0,81,false,stim,false,1,956.5999999046326,1,0,1,69221,task2,533479,false,true,576,image-keyboard-response,9
true,6,0,1,2,false,d,true,false,0.0-2.0-0.18-0.165-3.165,0,0,0,81,false,stim,false,1,894.3999998569489,1,0,2,69221,task2,535901,false,false,579,image-keyboard-response,10
true,6,1,1,2,false,d,false,false,0.0-2.0-0.18-0.166-3.166,0,0,0,90,false,stim,true,1,799.3000001907349,1,0,2,69221,task2,538218,false,false,582,image-keyboard-response,11
true,6,2,1,0,false,q,true,false,0.0-2.0-0.18-0.167-3.167,0,0,0,68,false,stim,false,1,1454.8999998569489,1,0,1,69221,task2,541209,false,false,585,image-keyboard-response,12
true,6,1,1,2,false,d,false,false,0.0-2.0-0.18-0.168-3.168,0,0,0,90,false,stim,true,1,825.5,1,0,2,69221,task2,543565,false,false,588,image-keyboard-response,13
true,6,2,1,0,false,q,true,false,0.0-2.0-0.18-0.169-3.169,0,0,0,68,false,stim,false,1,1478.0,1,0,1,69221,task2,546552,false,false,591,image-keyboard-response,14
true,6,0,1,0,true,q,false,true,0.0-2.0-0.18-0.170-3.170,0,0,0,81,false,stim,false,2,719.9000000953674,1,0,0,69221,task2,548790,false,false,594,image-keyboard-response,15
true,6,0,1,0,true,q,false,true,0.0-2.0-0.19-0.171-3.171,0,0,0,81,false,stim,false,2,523.2999999523163,1,0,0,69221,task2,550844,false,false,597,image-keyboard-response,16
true,6,0,1,0,true,q,false,true,0.0-2.0-0.19-0.172-3.172,0,0,0,81,false,stim,false,1,557.5,1,0,1,69221,task2,552928,false,false,600,image-keyboard-response,17
true,6,0,1,0,true,q,false,true,0.0-2.0-0.19-0.173-3.173,0,0,0,81,false,stim,false,1,417.0,1,0,1,69221,task2,554870,false,false,603,image-keyboard-response,18
true,6,0,1,2,false,d,true,false,0.0-2.0-0.19-0.174-3.174,0,0,0,81,false,stim,false,1,412.5,1,0,2,69221,task2,556801,false,false,606,image-keyboard-response,19
true,6,0,1,0,true,q,false,true,0.0-2.0-0.19-0.175-3.175,0,0,0,81,false,stim,false,2,466.89999985694885,1,0,0,69221,task2,558785,false,false,609,image-keyboard-response,20
true,6,1,1,2,false,d,false,false,0.0-2.0-0.19-0.176-3.176,0,0,0,90,false,stim,true,1,576.5,1,0,2,69221,task2,560877,false,false,612,image-keyboard-response,21
true,6,2,1,2,true,d,false,true,0.0-2.0-0.19-0.177-3.177,0,0,0,68,false,stim,false,1,734.2000000476837,1,0,2,69221,task2,563138,false,false,615,image-keyboard-response,22
true,6,0,1,0,true,q,false,true,0.0-2.0-0.19-0.178-3.178,0,0,0,81,false,stim,false,1,532.8999998569489,1,0,1,69221,task2,565187,false,false,618,image-keyboard-response,23
true,6,0,1,0,true,q,false,true,0.0-2.0-0.19-0.179-3.179,0,0,0,81,false,stim,false,2,446.0,1,0,0,69221,task2,567164,false,false,621,image-keyboard-response,24
true,6,2,1,2,true,d,false,true,0.0-2.0-0.20-0.180-3.180,0,0,0,68,false,stim,false,1,432.0,1,0,2,69221,task2,569108,false,false,624,image-keyboard-response,25
true,6,0,1,0,true,q,false,true,0.0-2.0-0.20-0.181-3.181,0,0,0,81,false,stim,false,2,427.09999990463257,1,0,0,69221,task2,571061,false,false,627,image-keyboard-response,26
true,6,2,1,2,true,d,false,true,0.0-2.0-0.20-0.182-3.182,0,0,0,68,false,stim,false,1,618.5,1,0,2,69221,task2,573208,false,false,630,image-keyboard-response,27
true,6,0,1,0,true,q,false,true,0.0-2.0-0.20-0.183-3.183,0,0,0,81,false,stim,false,1,524.0,1,0,1,69221,task2,575250,false,false,633,image-keyboard-response,28
true,6,0,1,0,true,q,false,true,0.0-2.0-0.20-0.184-3.184,0,0,0,81,false,stim,false,2,1743.7999999523163,1,0,0,69221,task2,578510,false,false,636,image-keyboard-response,29
true,6,0,1,0,true,q,false,true,0.0-2.0-0.20-0.185-3.185,0,0,0,81,false,stim,false,1,862.9000000953674,1,0,1,69221,task2,580900,false,false,639,image-keyboard-response,30
true,6,0,1,0,true,q,false,false,0.0-2.0-0.20-0.186-3.186,0,0,0,81,false,stim,false,2,632.4000000953674,1,0,0,69221,task2,583040,false,true,642,image-keyboard-response,31
true,6,0,1,0,true,q,false,true,0.0-2.0-0.20-0.187-3.187,0,0,0,81,false,stim,false,1,456.40000009536743,1,0,1,69221,task2,585025,false,false,645,image-keyboard-response,32
true,6,2,1,2,true,d,false,true,0.0-2.0-0.20-0.188-3.188,0,0,0,68,false,stim,false,1,483.39999985694885,1,1,2,69221,task2,587036,false,false,648,image-keyboard-response,33
true,6,0,1,0,true,q,false,true,0.0-2.0-0.21-0.189-3.189,0,0,0,81,false,stim,false,1,532.5,1,0,1,69221,task2,589091,false,false,651,image-keyboard-response,34
true,6,0,1,0,true,q,false,true,0.0-2.0-0.21-0.190-3.190,0,0,0,81,false,stim,false,2,612.1999998092651,1,0,0,69221,task2,591232,false,false,654,image-keyboard-response,35
true,6,0,1,0,true,q,false,true,0.0-2.0-0.21-0.191-3.191,0,0,0,81,false,stim,false,2,573.5,1,0,0,69221,task2,593323,false,false,657,image-keyboard-response,36
true,6,0,1,0,true,q,false,false,0.0-2.0-0.21-0.192-3.192,0,0,0,81,false,stim,false,2,432.60000014305115,1,0,0,69221,task2,595268,false,true,660,image-keyboard-response,37
true,7,0,2,1,false,z,false,false,0.0-2.0-0.21-0.193-3.193,0,0,1,81,true,stim,true,0,570.0999999046326,1,0,1,69221,task2,597352,false,false,663,image-keyboard-response,1
true,7,2,2,2,true,d,false,true,0.0-2.0-0.21-0.194-3.194,0,0,1,68,false,stim,false,2,1005.7999999523163,1,1,2,69221,task2,599881,false,false,666,image-keyboard-response,2
true,7,0,2,2,false,d,true,true,0.0-2.0-0.21-0.195-3.195,0,0,1,81,false,stim,false,2,467.5,1,1,2,69221,task2,601876,false,true,669,image-keyboard-response,3
true,7,2,2,2,true,d,false,true,0.0-2.0-0.21-0.196-3.196,0,0,1,68,false,stim,false,2,1113.8000001907349,1,1,2,69221,task2,604512,false,false,672,image-keyboard-response,4
true,7,0,2,1,false,z,false,false,0.0-2.0-0.21-0.197-3.197,0,0,1,81,false,stim,true,0,449.5,1,0,1,69221,task2,606472,false,false,675,image-keyboard-response,5
true,7,0,2,1,false,z,false,false,0.0-2.0-0.22-0.198-3.198,0,0,1,81,false,stim,true,0,900.5999999046326,1,0,0,69221,task2,608904,false,false,678,image-keyboard-response,6
true,7,1,2,1,true,z,false,true,0.0-2.0-0.22-0.199-3.199,0,0,1,90,false,stim,false,0,671.1999998092651,1,0,1,69221,task2,611090,false,false,681,image-keyboard-response,7
true,7,1,2,1,true,z,false,true,0.0-2.0-0.22-0.200-3.200,0,0,1,90,false,stim,false,0,564.0999999046326,1,0,0,69221,task2,613181,false,false,684,image-keyboard-response,8
true,7,1,2,1,true,z,false,true,0.0-2.0-0.22-0.201-3.201,0,0,1,90,false,stim,false,0,650.5,1,0,0,69221,task2,615356,false,false,687,image-keyboard-response,9
true,7,2,2,2,true,d,false,true,0.0-2.0-0.22-0.202-3.202,0,0,1,68,false,stim,false,2,711.0999999046326,1,1,2,69221,task2,617593,false,false,690,image-keyboard-response,10
true,7,1,2,1,true,z,false,true,0.0-2.0-0.22-0.203-3.203,0,0,1,90,false,stim,false,0,335.89999985694885,1,0,1,69221,task2,619455,false,false,693,image-keyboard-response,11
true,7,2,2,2,true,d,false,true,0.0-2.0-0.22-0.204-3.204,0,0,1,68,false,stim,false,2,623.0,1,1,2,69221,task2,621608,false,false,696,image-keyboard-response,12
true,7,2,2,2,true,d,false,true,0.0-2.0-0.22-0.205-3.205,0,0,1,68,false,stim,false,2,543.7000000476837,1,1,2,69221,task2,623676,false,false,699,image-keyboard-response,13
true,7,1,2,1,true,z,false,true,0.0-2.0-0.22-0.206-3.206,0,0,1,90,false,stim,false,0,413.89999985694885,1,0,1,69221,task2,625620,false,false,702,image-keyboard-response,14
true,7,1,2,1,true,z,false,true,0.0-2.0-0.23-0.207-3.207,0,0,1,90,false,stim,false,0,1610.3000001907349,1,0,0,69221,task2,628762,false,false,705,image-keyboard-response,15
true,7,2,2,2,true,d,false,true,0.0-2.0-0.23-0.208-3.208,0,0,1,68,false,stim,false,2,509.09999990463257,1,1,2,69221,task2,630795,false,false,708,image-keyboard-response,16
true,7,2,2,2,true,d,false,true,0.0-2.0-0.23-0.209-3.209,0,0,1,68,false,stim,false,2,388.0,1,1,2,69221,task2,632693,false,false,711,image-keyboard-response,17
true,7,2,2,2,true,d,false,true,0.0-2.0-0.23-0.210-3.210,0,0,1,68,false,stim,false,2,401.09999990463257,1,1,2,69221,task2,634619,false,false,714,image-keyboard-response,18
true,7,1,2,1,true,z,false,true,0.0-2.0-0.23-0.211-3.211,0,0,1,90,false,stim,false,0,534.0,1,0,0,69221,task2,636673,false,false,717,image-keyboard-response,19
true,7,1,2,1,true,z,false,true,0.0-2.0-0.23-0.212-3.212,0,0,1,90,false,stim,false,0,1282.0999999046326,1,0,1,69221,task2,639466,false,false,720,image-keyboard-response,20
true,7,1,2,1,true,z,false,true,0.0-2.0-0.23-0.213-3.213,0,0,1,90,false,stim,false,0,552.0,1,0,1,69221,task2,641555,false,false,723,image-keyboard-response,21
true,7,1,2,1,true,z,false,true,0.0-2.0-0.23-0.214-3.214,0,0,1,90,false,stim,false,0,514.6999998092651,1,0,0,69221,task2,643586,false,false,726,image-keyboard-response,22
true,7,1,2,1,true,z,false,true,0.0-2.0-0.23-0.215-3.215,0,0,1,90,false,stim,false,0,461.5,1,0,1,69221,task2,645561,false,false,729,image-keyboard-response,23
true,7,2,2,2,true,d,false,true,0.0-2.0-0.24-0.216-3.216,0,0,1,68,false,stim,false,2,958.7999999523163,1,1,2,69221,task2,648039,false,false,732,image-keyboard-response,24
true,7,1,2,1,true,z,false,true,0.0-2.0-0.24-0.217-3.217,0,0,1,90,false,stim,false,0,442.40000009536743,1,0,0,69221,task2,650012,false,false,735,image-keyboard-response,25
true,7,2,2,2,true,d,false,false,0.0-2.0-0.24-0.218-3.218,0,0,1,68,false,stim,false,2,534.3999998569489,1,1,2,69221,task2,652067,false,true,738,image-keyboard-response,26
true,7,1,2,1,true,z,false,true,0.0-2.0-0.24-0.219-3.219,0,0,1,90,false,stim,false,0,395.80000019073486,1,0,1,69221,task2,653984,false,false,741,image-keyboard-response,27
true,7,1,2,1,true,z,false,true,0.0-2.0-0.24-0.220-3.220,0,0,1,90,false,stim,false,0,406.2999999523163,1,0,1,69221,task2,655905,false,false,744,image-keyboard-response,28
true,7,1,2,1,true,z,false,true,0.0-2.0-0.24-0.221-3.221,0,0,1,90,false,stim,false,0,386.19999980926514,1,0,1,69221,task2,657817,false,false,747,image-keyboard-response,29
true,7,2,2,2,true,d,false,true,0.0-2.0-0.24-0.222-3.222,0,0,1,68,false,stim,false,2,443.59999990463257,1,1,2,69221,task2,659792,false,false,750,image-keyboard-response,30
true,7,1,2,1,true,z,false,true,0.0-2.0-0.24-0.223-3.223,0,0,1,90,false,stim,false,0,626.4000000953674,1,0,0,69221,task2,661948,false,false,753,image-keyboard-response,31
true,7,1,2,1,true,z,false,true,0.0-2.0-0.24-0.224-3.224,0,0,1,90,false,stim,false,0,356.90000009536743,1,0,0,69221,task2,663829,false,false,756,image-keyboard-response,32
true,7,2,2,2,true,d,false,true,0.0-2.0-0.25-0.225-3.225,0,0,1,68,false,stim,false,2,699.2999999523163,1,0,2,69221,task2,666033,false,false,759,image-keyboard-response,33
true,7,1,2,1,true,z,false,true,0.0-2.0-0.25-0.226-3.226,0,0,1,90,false,stim,false,0,499.09999990463257,1,0,0,69221,task2,668053,false,false,762,image-keyboard-response,34
true,7,1,2,1,true,z,false,true,0.0-2.0-0.25-0.227-3.227,0,0,1,90,false,stim,false,0,473.90000009536743,1,0,0,69221,task2,670045,false,false,765,image-keyboard-response,35
true,8,1,1,0,false,q,false,false,0.0-2.0-0.25-0.228-3.228,0,0,0,90,true,stim,true,1,447.69999980926514,1,0,0,69221,task2,672002,false,false,768,image-keyboard-response,1
true,8,2,1,1,false,z,false,true,0.0-2.0-0.25-0.229-3.229,0,0,0,68,false,stim,true,2,578.5,1,0,2,69221,task2,674096,false,true,771,image-keyboard-response,2
true,8,1,1,0,false,q,false,false,0.0-2.0-0.25-0.230-3.230,0,0,0,90,false,stim,true,1,551.2999999523163,1,0,1,69221,task2,676171,false,false,774,image-keyboard-response,3
true,8,2,1,1,false,z,false,false,0.0-2.0-0.25-0.231-3.231,0,0,0,68,false,stim,true,2,479.39999985694885,1,0,2,69221,task2,678182,false,false,777,image-keyboard-response,4
true,8,1,1,0,false,q,false,false,0.0-2.0-0.25-0.232-3.232,0,0,0,90,false,stim,true,1,813.8999998569489,1,0,1,69221,task2,680515,false,false,780,image-keyboard-response,5
true,8,0,1,0,true,q,false,true,0.0-2.0-0.25-0.233-3.233,0,0,0,81,false,stim,false,1,892.1999998092651,1,0,1,69221,task2,682926,false,false,783,image-keyboard-response,6
true,8,0,1,0,true,q,false,true,0.0-2.0-0.26-0.234-3.234,0,0,0,81,false,stim,false,1,661.1999998092651,1,0,0,69221,task2,685117,false,false,786,image-keyboard-response,7
true,8,2,1,1,false,z,false,false,0.0-2.0-0.26-0.235-3.235,0,0,0,68,false,stim,true,2,646.2999999523163,1,0,2,69221,task2,687296,false,false,789,image-keyboard-response,8
true,8,0,1,0,true,q,false,true,0.0-2.0-0.26-0.236-3.236,0,0,0,81,false,stim,false,1,423.59999990463257,1,0,0,69221,task2,689233,false,false,792,image-keyboard-response,9
true,8,1,1,1,true,z,false,true,0.0-2.0-0.26-0.237-3.237,0,0,0,90,false,stim,false,2,483.0,1,0,2,69221,task2,691240,false,false,795,image-keyboard-response,10
true,8,0,1,0,true,q,false,true,0.0-2.0-0.26-0.238-3.238,0,0,0,81,false,stim,false,1,492.09999990463257,1,0,1,69221,task2,693258,false,false,798,image-keyboard-response,11
true,8,0,1,0,true,q,false,true,0.0-2.0-0.26-0.239-3.239,0,0,0,81,false,stim,false,1,563.0999999046326,1,0,1,69221,task2,695342,false,false,801,image-keyboard-response,12
true,8,1,1,1,true,z,false,true,0.0-2.0-0.26-0.240-3.240,0,0,0,90,false,stim,false,2,687.5999999046326,1,0,2,69221,task2,697561,false,false,804,image-keyboard-response,13
true,8,0,1,0,true,q,false,true,0.0-2.0-0.26-0.241-3.241,0,0,0,81,false,stim,false,1,610.2000000476837,1,0,0,69221,task2,699683,false,false,807,image-keyboard-response,14
true,8,0,1,0,true,q,false,true,0.0-2.0-0.26-0.242-3.242,0,0,0,81,false,stim,false,1,1795.2999999523163,1,0,1,69221,task2,703001,false,false,810,image-keyboard-response,15
true,8,0,1,0,true,q,false,true,0.0-2.0-0.27-0.243-3.243,0,0,0,81,false,stim,false,1,750.7000000476837,1,0,0,69221,task2,705263,false,false,813,image-keyboard-response,16
true,8,0,1,0,true,q,false,true,0.0-2.0-0.27-0.244-3.244,0,0,0,81,false,stim,false,1,713.9000000953674,1,0,1,69221,task2,707487,false,false,816,image-keyboard-response,17
true,8,0,1,0,true,q,false,false,0.0-2.0-0.27-0.245-3.245,0,0,0,81,false,stim,false,1,605.2999999523163,1,0,1,69221,task2,709610,false,true,819,image-keyboard-response,18
true,8,0,1,0,true,q,false,true,0.0-2.0-0.27-0.246-3.246,0,0,0,81,false,stim,false,1,632.3999998569489,1,0,1,69221,task2,711768,false,false,822,image-keyboard-response,19
true,8,0,1,0,true,q,false,true,0.0-2.0-0.27-0.247-3.247,0,0,0,81,false,stim,false,1,505.2999999523163,1,0,0,69221,task2,713787,false,false,825,image-keyboard-response,20
true,8,1,1,1,true,z,false,false,0.0-2.0-0.27-0.248-3.248,0,0,0,90,false,stim,false,2,605.0999999046326,1,0,2,69221,task2,715925,false,true,828,image-keyboard-response,21
true,8,1,1,1,true,z,false,false,0.0-2.0-0.27-0.249-3.249,0,0,0,90,false,stim,false,2,585.5999999046326,1,0,2,69221,task2,718024,false,true,831,image-keyboard-response,22
true,8,1,1,1,true,z,false,true,0.0-2.0-0.27-0.250-3.250,0,0,0,90,false,stim,false,2,581.6000001430511,1,0,2,69221,task2,720120,false,false,834,image-keyboard-response,23
true,8,0,1,0,true,q,false,true,0.0-2.0-0.27-0.251-3.251,0,0,0,81,false,stim,false,1,504.2999999523163,1,0,0,69221,task2,722139,false,false,837,image-keyboard-response,24
true,8,0,1,0,true,q,false,true,0.0-2.0-0.28-0.252-3.252,0,0,0,81,false,stim,false,1,1210.2999999523163,1,0,0,69221,task2,724875,false,false,840,image-keyboard-response,25
true,8,0,1,0,true,q,false,true,0.0-2.0-0.28-0.253-3.253,0,0,0,81,false,stim,false,1,678.1999998092651,1,0,1,69221,task2,727094,false,false,843,image-keyboard-response,26
true,8,1,1,1,true,z,false,true,0.0-2.0-0.28-0.254-3.254,0,0,0,90,false,stim,false,2,581.5,1,0,2,69221,task2,729193,false,false,846,image-keyboard-response,27
true,8,1,1,1,true,z,false,true,0.0-2.0-0.28-0.255-3.255,0,0,0,90,false,stim,false,2,843.7000000476837,1,0,2,69221,task2,731544,false,false,849,image-keyboard-response,28
true,8,0,1,0,true,q,false,true,0.0-2.0-0.28-0.256-3.256,0,0,0,81,false,stim,false,1,594.5999999046326,1,0,1,69221,task2,733646,false,false,852,image-keyboard-response,29
true,8,0,1,0,true,q,false,true,0.0-2.0-0.28-0.257-3.257,0,0,0,81,false,stim,false,1,401.5,1,0,1,69221,task2,735565,false,false,855,image-keyboard-response,30
true,8,0,1,0,true,q,false,false,0.0-2.0-0.28-0.258-3.258,0,0,0,81,false,stim,false,1,616.0,1,0,0,69221,task2,737697,false,true,858,image-keyboard-response,31
true,8,1,1,1,true,z,false,false,0.0-2.0-0.28-0.259-3.259,0,0,0,90,false,stim,false,2,447.10000014305115,1,0,2,69221,task2,739656,false,true,861,image-keyboard-response,32
true,8,2,1,0,false,q,true,false,0.0-2.0-0.28-0.260-3.260,0,0,0,68,false,stim,false,1,584.0,1,1,0,69221,task2,741777,false,false,864,image-keyboard-response,33
true,8,0,1,0,true,q,false,true,0.0-2.0-0.29-0.261-3.261,0,0,0,81,false,stim,false,1,787.0999999046326,1,0,1,69221,task2,744100,false,false,867,image-keyboard-response,34
true,8,0,1,0,true,q,false,true,0.0-2.0-0.29-0.262-3.262,0,0,0,81,false,stim,false,1,675.7999999523163,1,1,0,69221,task2,746291,false,false,870,image-keyboard-response,35
true,8,1,1,1,true,z,false,true,0.0-2.0-0.29-0.263-3.263,0,0,0,90,false,stim,false,2,897.5999999046326,1,0,2,69221,task2,748703,false,false,873,image-keyboard-response,36
true,9,0,2,0,true,q,false,true,0.0-2.0-0.29-0.264-3.264,1,0,0,81,true,stim,false,0,621.7999999523163,1,1,0,69221,task2,750847,false,false,876,image-keyboard-response,1
true,9,0,2,2,false,d,false,false,0.0-2.0-0.29-0.265-3.265,1,0,0,81,false,stim,true,0,793.7000000476837,1,0,1,69221,task2,753157,false,false,879,image-keyboard-response,2
true,9,0,2,0,true,q,false,true,0.0-2.0-0.29-0.266-3.266,1,0,0,81,false,stim,false,0,886.5999999046326,1,1,0,69221,task2,755562,false,false,882,image-keyboard-response,3
true,9,1,2,0,false,q,false,false,0.0-2.0-0.29-0.267-3.267,1,0,0,90,false,stim,true,1,879.6999998092651,1,0,2,69221,task2,757974,false,false,885,image-keyboard-response,4
true,9,1,2,0,false,q,false,false,0.0-2.0-0.29-0.268-3.268,1,0,0,90,false,stim,true,1,671.0,1,0,2,69221,task2,760168,false,false,888,image-keyboard-response,5
true,9,0,2,2,false,d,false,false,0.0-2.0-0.29-0.269-3.269,1,0,0,81,false,stim,true,0,564.2999999523163,1,0,1,69221,task2,762259,false,false,891,image-keyboard-response,6
true,9,0,2,0,true,q,false,true,0.0-2.0-0.30-0.270-3.270,1,0,0,81,false,stim,false,0,544.4000000953674,1,1,0,69221,task2,764321,false,false,894,image-keyboard-response,7
true,9,2,2,0,false,q,true,false,0.0-2.0-0.30-0.271-3.271,1,0,0,68,false,stim,false,1,666.1999998092651,1,0,2,69221,task2,766499,false,false,897,image-keyboard-response,8
true,9,0,2,2,false,d,false,false,0.0-2.0-0.30-0.272-3.272,1,0,0,81,false,stim,true,0,465.10000014305115,1,0,1,69221,task2,768487,false,false,900,image-keyboard-response,9
true,9,0,2,0,true,q,false,false,0.0-2.0-0.30-0.273-3.273,1,0,0,81,false,stim,false,0,493.90000009536743,1,1,0,69221,task2,770502,false,true,903,image-keyboard-response,10
true,9,0,2,0,true,q,false,true,0.0-2.0-0.30-0.274-3.274,1,0,0,81,false,stim,false,1,594.7000000476837,1,0,2,69221,task2,772620,false,false,906,image-keyboard-response,11
true,9,1,2,2,false,d,true,false,0.0-2.0-0.30-0.275-3.275,1,0,0,90,false,stim,false,0,1413.7000000476837,1,0,1,69221,task2,775561,false,false,909,image-keyboard-response,12
true,9,2,2,0,false,q,true,false,0.0-2.0-0.30-0.276-3.276,1,0,0,68,false,stim,false,0,503.10000014305115,1,1,0,69221,task2,777586,false,false,912,image-keyboard-response,13
true,9,2,2,2,true,d,false,true,0.0-2.0-0.30-0.277-3.277,1,0,0,68,false,stim,false,0,1369.0,1,0,1,69221,task2,780477,false,false,915,image-keyboard-response,14
true,9,0,2,0,true,q,false,true,0.0-2.0-0.30-0.278-3.278,1,0,0,81,false,stim,false,1,736.5,1,0,2,69221,task2,782732,false,false,918,image-keyboard-response,15
true,9,2,2,2,true,d,false,true,0.0-2.0-0.31-0.279-3.279,1,0,0,68,false,stim,false,0,684.6000001430511,1,0,1,69221,task2,784943,false,false,921,image-keyboard-response,16
true,9,2,2,2,true,d,false,true,0.0-2.0-0.31-0.280-3.280,1,0,0,68,false,stim,false,0,579.0999999046326,1,0,1,69221,task2,787038,false,false,924,image-keyboard-response,17
true,9,0,2,0,true,q,false,true,0.0-2.0-0.31-0.281-3.281,1,0,0,81,false,stim,false,1,1233.7000000476837,1,0,2,69221,task2,789795,false,false,927,image-keyboard-response,18
true,9,2,2,0,false,q,true,false,0.0-2.0-0.31-0.282-3.282,1,0,0,68,false,stim,false,1,759.5,1,0,2,69221,task2,792085,false,false,930,image-keyboard-response,19
true,9,1,2,0,false,q,true,false,0.0-2.0-0.31-0.283-3.283,1,0,0,90,false,stim,false,0,673.1000001430511,1,1,0,69221,task2,794280,false,false,933,image-keyboard-response,20
true,9,0,2,0,true,q,false,true,0.0-2.0-0.31-0.284-3.284,1,0,0,81,false,stim,false,1,1025.2000000476837,1,0,2,69221,task2,796834,false,false,936,image-keyboard-response,21
true,9,2,2,0,false,q,true,false,0.0-2.0-0.31-0.285-3.285,1,0,0,68,false,stim,false,0,1208.9000000953674,1,1,0,69221,task2,799570,false,false,939,image-keyboard-response,22
true,9,0,2,0,true,q,false,true,0.0-2.0-0.31-0.286-3.286,1,0,0,81,false,stim,false,0,688.9000000953674,1,1,0,69221,task2,801783,false,false,942,image-keyboard-response,23
true,9,2,2,2,true,d,false,false,0.0-2.0-0.31-0.287-3.287,1,0,0,68,false,stim,false,0,687.3000001907349,1,0,1,69221,task2,803996,false,true,945,image-keyboard-response,24
true,9,0,2,0,true,q,false,true,0.0-2.0-0.32-0.288-3.288,1,0,0,81,false,stim,false,0,748.8000001907349,1,1,0,69221,task2,806272,false,false,948,image-keyboard-response,25
true,9,2,2,2,true,d,false,true,0.0-2.0-0.32-0.289-3.289,1,0,0,68,false,stim,false,0,835.2999999523163,1,0,1,69221,task2,808629,false,false,951,image-keyboard-response,26
true,9,0,2,0,true,q,false,true,0.0-2.0-0.32-0.290-3.290,1,0,0,81,false,stim,false,0,916.3999998569489,1,1,0,69221,task2,811074,false,false,954,image-keyboard-response,27
true,9,0,2,0,true,q,false,true,0.0-2.0-0.32-0.291-3.291,1,0,0,81,false,stim,false,1,1109.0,1,0,2,69221,task2,813698,false,false,957,image-keyboard-response,28
true,9,0,2,0,true,q,false,true,0.0-2.0-0.32-0.292-3.292,1,0,0,81,false,stim,false,1,629.8999998569489,1,0,2,69221,task2,815852,false,false,960,image-keyboard-response,29
true,9,0,2,0,true,q,false,true,0.0-2.0-0.32-0.293-3.293,1,0,0,81,false,stim,false,1,554.0,1,0,2,69221,task2,817916,false,false,963,image-keyboard-response,30
true,9,0,2,0,true,q,false,true,0.0-2.0-0.32-0.294-3.294,1,0,0,81,false,stim,false,0,1014.9000000953674,1,0,0,69221,task2,820454,false,false,966,image-keyboard-response,31
true,9,2,2,2,true,d,false,true,0.0-2.0-0.32-0.295-3.295,1,0,0,68,false,stim,false,0,1413.7999999523163,1,0,1,69221,task2,823390,false,false,969,image-keyboard-response,32
true,9,2,2,2,true,d,false,true,0.0-2.0-0.32-0.296-3.296,1,0,0,68,false,stim,false,0,1016.5999999046326,1,0,1,69221,task2,825940,false,false,972,image-keyboard-response,33
true,10,0,1,2,false,d,false,false,0.0-2.0-0.33-0.297-3.297,0,0,0,81,true,stim,true,0,693.2000000476837,1,0,2,69221,task2,828168,false,false,975,image-keyboard-response,1
true,10,2,1,1,false,z,false,false,0.0-2.0-0.33-0.298-3.298,0,0,0,68,false,stim,true,2,542.2999999523163,1,0,1,69221,task2,830244,false,false,978,image-keyboard-response,2
true,10,0,1,2,false,d,false,false,0.0-2.0-0.33-0.299-3.299,0,0,0,81,false,stim,true,0,514.7999999523163,1,0,0,69221,task2,832287,false,false,981,image-keyboard-response,3
true,10,2,1,1,false,z,false,false,0.0-2.0-0.33-0.300-3.300,0,0,0,68,false,stim,true,2,1157.9000000953674,1,0,1,69221,task2,834984,false,false,984,image-keyboard-response,4
true,10,2,1,2,true,d,false,true,0.0-2.0-0.33-0.301-3.301,0,0,0,68,false,stim,false,0,1020.2999999523163,1,0,0,69221,task2,837528,false,false,987,image-keyboard-response,5
true,10,2,1,2,true,d,false,true,0.0-2.0-0.33-0.302-3.302,0,0,0,68,false,stim,false,0,576.9000000953674,1,0,0,69221,task2,839633,false,false,990,image-keyboard-response,6
true,10,0,1,2,false,d,false,false,0.0-2.0-0.33-0.303-3.303,0,0,0,81,false,stim,true,0,1167.4000000953674,1,0,2,69221,task2,842309,false,false,993,image-keyboard-response,7
true,10,2,1,1,false,z,false,false,0.0-2.0-0.33-0.304-3.304,0,0,0,68,false,stim,true,2,716.2999999523163,1,0,1,69221,task2,844541,false,false,996,image-keyboard-response,8
true,10,1,1,2,false,d,true,false,0.0-2.0-0.33-0.305-3.305,0,0,0,90,false,stim,false,0,436.7000000476837,1,0,2,69221,task2,846496,false,false,999,image-keyboard-response,9
true,10,2,1,2,true,d,false,true,0.0-2.0-0.34-0.306-3.306,0,0,0,68,false,stim,false,0,710.0,1,0,2,69221,task2,848742,false,false,1002,image-keyboard-response,10
true,10,2,1,2,true,d,false,true,0.0-2.0-0.34-0.307-3.307,0,0,0,68,false,stim,false,0,652.0,1,0,0,69221,task2,850917,false,false,1005,image-keyboard-response,11
true,10,2,1,2,true,d,false,true,0.0-2.0-0.34-0.308-3.308,0,0,0,68,false,stim,false,0,536.0999999046326,1,0,0,69221,task2,852979,false,false,1008,image-keyboard-response,12
true,10,2,1,2,true,d,false,true,0.0-2.0-0.34-0.309-3.309,0,0,0,68,false,stim,false,0,489.0,1,0,2,69221,task2,854985,false,false,1011,image-keyboard-response,13
true,10,2,1,2,true,d,false,true,0.0-2.0-0.34-0.310-3.310,0,0,0,68,false,stim,false,0,781.0,1,0,0,69221,task2,857289,false,false,1014,image-keyboard-response,14
true,10,2,1,1,false,z,false,false,0.0-2.0-0.34-0.311-3.311,0,0,0,68,false,stim,true,2,1146.1999998092651,1,0,1,69221,task2,859965,false,false,1017,image-keyboard-response,15
true,10,1,1,1,true,z,false,true,0.0-2.0-0.34-0.312-3.312,0,0,0,90,false,stim,false,2,961.6000001430511,1,0,1,69221,task2,862454,false,false,1020,image-keyboard-response,16
true,10,1,1,1,true,z,false,true,0.0-2.0-0.34-0.313-3.313,0,0,0,90,false,stim,false,2,402.90000009536743,1,0,1,69221,task2,864377,false,false,1023,image-keyboard-response,17
true,10,2,1,2,true,d,false,false,0.0-2.0-0.34-0.314-3.314,0,0,0,68,false,stim,false,0,750.7000000476837,1,0,2,69221,task2,866658,false,true,1026,image-keyboard-response,18
true,10,2,1,2,true,d,false,true,0.0-2.0-0.35-0.315-3.315,0,0,0,68,false,stim,false,0,586.3999998569489,1,0,0,69221,task2,868768,false,false,1029,image-keyboard-response,19
true,10,1,1,1,true,z,false,true,0.0-2.0-0.35-0.316-3.316,0,0,0,90,false,stim,false,2,594.2999999523163,1,0,1,69221,task2,870876,false,false,1032,image-keyboard-response,20
true,10,1,1,1,true,z,false,true,0.0-2.0-0.35-0.317-3.317,0,0,0,90,false,stim,false,2,903.5,1,0,1,69221,task2,873297,false,false,1035,image-keyboard-response,21
true,10,1,1,1,true,z,false,true,0.0-2.0-0.35-0.318-3.318,0,0,0,90,false,stim,false,2,678.3000001907349,1,0,1,69221,task2,875501,false,false,1038,image-keyboard-response,22
true,10,2,1,2,true,d,false,true,0.0-2.0-0.35-0.319-3.319,0,0,0,68,false,stim,false,0,692.8999998569489,1,0,2,69221,task2,877716,false,false,1041,image-keyboard-response,23
true,10,2,1,2,true,d,false,true,0.0-2.0-0.35-0.320-3.320,0,0,0,68,false,stim,false,0,765.2999999523163,1,0,2,69221,task2,880012,false,false,1044,image-keyboard-response,24
true,10,2,1,2,true,d,false,false,0.0-2.0-0.35-0.321-3.321,0,0,0,68,false,stim,false,0,625.0999999046326,1,0,0,69221,task2,882157,false,true,1047,image-keyboard-response,25
true,10,2,1,2,true,d,false,true,0.0-2.0-0.35-0.322-3.322,0,0,0,68,false,stim,false,0,650.0,1,0,0,69221,task2,884323,false,false,1050,image-keyboard-response,26
true,10,2,1,2,true,d,false,true,0.0-2.0-0.35-0.323-3.323,0,0,0,68,false,stim,false,0,843.5,1,0,2,69221,task2,886674,false,false,1053,image-keyboard-response,27
true,10,2,1,2,true,d,false,true,0.0-2.0-0.36-0.324-3.324,0,0,0,68,false,stim,false,0,1279.0999999046326,1,0,2,69221,task2,889471,false,false,1056,image-keyboard-response,28
true,10,2,1,2,true,d,false,true,0.0-2.0-0.36-0.325-3.325,0,0,0,68,false,stim,false,0,830.3999998569489,1,0,0,69221,task2,891828,false,false,1059,image-keyboard-response,29
true,10,2,1,2,true,d,false,false,0.0-2.0-0.36-0.326-3.326,0,0,0,68,false,stim,false,0,972.3000001907349,1,0,0,69221,task2,894329,false,true,1062,image-keyboard-response,30
true,10,1,1,1,true,z,false,true,0.0-2.0-0.36-0.327-3.327,0,0,0,90,false,stim,false,2,991.3999998569489,1,0,1,69221,task2,896848,false,false,1065,image-keyboard-response,31
true,10,2,1,2,true,d,false,false,0.0-2.0-0.36-0.328-3.328,0,0,0,68,false,stim,false,0,1270.0,1,0,2,69221,task2,899645,false,true,1068,image-keyboard-response,32
true,10,1,1,1,true,z,false,true,0.0-2.0-0.36-0.329-3.329,0,0,0,90,false,stim,false,2,804.5,1,0,1,69221,task2,901960,false,false,1071,image-keyboard-response,33
true,10,2,1,2,true,d,false,true,0.0-2.0-0.36-0.330-3.330,0,0,0,68,false,stim,false,0,935.0999999046326,1,0,0,69221,task2,904422,false,false,1074,image-keyboard-response,34
true,11,1,1,2,false,d,false,true,0.0-2.0-0.36-0.331-3.331,0,0,0,90,true,stim,true,1,574.0999999046326,1,0,1,69221,task2,906513,false,true,1077,image-keyboard-response,1
true,11,1,1,0,false,q,true,false,0.0-2.0-0.36-0.332-3.332,0,0,0,90,false,stim,false,2,477.60000014305115,1,0,2,69221,task2,908518,false,false,1080,image-keyboard-response,2
true,11,0,1,0,true,q,false,true,0.0-2.0-0.37-0.333-3.333,0,0,0,81,false,stim,false,2,837.2999999523163,1,0,2,69221,task2,910872,false,false,1083,image-keyboard-response,3
true,11,0,1,0,true,q,false,true,0.0-2.0-0.37-0.334-3.334,0,0,0,81,false,stim,false,2,1155.9000000953674,1,0,2,69221,task2,913554,false,false,1086,image-keyboard-response,4
true,11,1,1,2,false,d,false,false,0.0-2.0-0.37-0.335-3.335,0,0,0,90,false,stim,true,1,619.4000000953674,1,0,1,69221,task2,915698,false,false,1089,image-keyboard-response,5
true,11,1,1,2,false,d,false,false,0.0-2.0-0.37-0.336-3.336,0,0,0,90,false,stim,true,1,767.7000000476837,1,0,1,69221,task2,917993,false,false,1092,image-keyboard-response,6
true,11,1,1,2,false,d,false,false,0.0-2.0-0.37-0.337-3.337,0,0,0,90,false,stim,true,1,572.0999999046326,1,0,1,69221,task2,920096,false,false,1095,image-keyboard-response,7
true,11,0,1,0,true,q,false,true,0.0-2.0-0.37-0.338-3.338,0,0,0,81,false,stim,false,2,592.4000000953674,1,0,2,69221,task2,922216,false,false,1098,image-keyboard-response,8
true,11,2,1,1,false,z,false,false,0.0-2.0-0.37-0.339-3.339,0,0,0,68,false,stim,true,2,949.6999998092651,1,0,0,69221,task2,924696,false,false,1101,image-keyboard-response,9
true,11,2,1,1,false,z,false,false,0.0-2.0-0.37-0.340-3.340,0,0,0,68,false,stim,true,2,746.7000000476837,1,0,0,69221,task2,926969,false,false,1104,image-keyboard-response,10
true,11,1,1,1,true,z,false,true,0.0-2.0-0.37-0.341-3.341,0,0,0,90,false,stim,false,2,838.9000000953674,1,0,0,69221,task2,929346,false,false,1107,image-keyboard-response,11
true,11,2,1,2,true,d,false,true,0.0-2.0-0.38-0.342-3.342,0,0,0,68,false,stim,false,1,561.8999998569489,1,0,1,69221,task2,931425,false,false,1110,image-keyboard-response,12
true,11,1,1,1,true,z,false,true,0.0-2.0-0.38-0.343-3.343,0,0,0,90,false,stim,false,2,1664.9000000953674,1,0,0,69221,task2,934621,false,false,1113,image-keyboard-response,13
true,11,0,1,0,true,q,false,true,0.0-2.0-0.38-0.344-3.344,0,0,0,81,false,stim,false,2,1110.0,1,0,2,69221,task2,937268,false,false,1116,image-keyboard-response,14
true,11,1,1,1,true,z,false,true,0.0-2.0-0.38-0.345-3.345,0,0,0,90,false,stim,false,2,864.6000001430511,1,0,0,69221,task2,939657,false,false,1119,image-keyboard-response,15
true,11,2,1,2,true,d,false,true,0.0-2.0-0.38-0.346-3.346,0,0,0,68,false,stim,false,1,490.7999999523163,1,0,1,69221,task2,941678,false,false,1122,image-keyboard-response,16
true,11,0,1,0,true,q,false,true,0.0-2.0-0.38-0.347-3.347,0,0,0,81,false,stim,false,2,988.0,1,0,2,69221,task2,944200,false,false,1125,image-keyboard-response,17
true,11,1,1,1,true,z,false,true,0.0-2.0-0.38-0.348-3.348,0,0,0,90,false,stim,false,2,595.0,1,0,0,69221,task2,946305,false,false,1128,image-keyboard-response,18
true,11,2,1,2,true,d,false,false,0.0-2.0-0.38-0.349-3.349,0,0,0,68,false,stim,false,1,580.1000001430511,1,0,1,69221,task2,948423,false,true,1131,image-keyboard-response,19
true,11,0,1,0,true,q,false,false,0.0-2.0-0.38-0.350-3.350,0,0,0,81,false,stim,false,2,1207.9000000953674,1,0,2,69221,task2,951150,false,true,1134,image-keyboard-response,20
true,11,2,1,0,false,q,false,false,0.0-2.0-0.39-0.351-3.351,0,0,0,68,false,stim,true,2,850.5,1,0,2,69221,task2,953527,false,false,1137,image-keyboard-response,21
true,11,0,1,0,true,q,false,true,0.0-2.0-0.39-0.352-3.352,0,0,0,81,false,stim,false,2,1262.2000000476837,1,0,2,69221,task2,956319,false,false,1140,image-keyboard-response,22
true,11,0,1,0,true,q,false,true,0.0-2.0-0.39-0.353-3.353,0,0,0,81,false,stim,false,2,552.2000000476837,1,0,2,69221,task2,958397,false,false,1143,image-keyboard-response,23
true,11,1,1,1,true,z,false,true,0.0-2.0-0.39-0.354-3.354,0,0,0,90,false,stim,false,2,562.2999999523163,1,0,0,69221,task2,960483,false,false,1146,image-keyboard-response,24
true,11,2,1,2,true,d,false,true,0.0-2.0-0.39-0.355-3.355,0,0,0,68,false,stim,false,1,482.10000014305115,1,0,1,69221,task2,962503,false,false,1149,image-keyboard-response,25
true,11,2,1,2,true,d,false,true,0.0-2.0-0.39-0.356-3.356,0,0,0,68,false,stim,false,1,540.7000000476837,1,0,1,69221,task2,964569,false,false,1152,image-keyboard-response,26
true,11,1,1,1,true,z,false,true,0.0-2.0-0.39-0.357-3.357,0,0,0,90,false,stim,false,2,1232.7000000476837,1,0,0,69221,task2,967354,false,false,1155,image-keyboard-response,27
true,11,2,1,2,true,d,false,true,0.0-2.0-0.39-0.358-3.358,0,0,0,68,false,stim,false,1,711.4000000953674,1,0,1,69221,task2,969594,false,false,1158,image-keyboard-response,28
true,11,1,1,1,true,z,false,true,0.0-2.0-0.39-0.359-3.359,0,0,0,90,false,stim,false,2,1152.6000001430511,1,0,0,69221,task2,972265,false,false,1161,image-keyboard-response,29
true,11,1,1,1,true,z,false,true,0.0-2.0-0.40-0.360-3.360,0,0,0,90,false,stim,false,2,459.59999990463257,1,0,0,69221,task2,974243,false,false,1164,image-keyboard-response,30
true,11,1,1,1,true,z,false,true,0.0-2.0-0.40-0.361-3.361,0,0,0,90,false,stim,false,2,695.7999999523163,1,0,0,69221,task2,976449,false,false,1167,image-keyboard-response,31
true,11,2,1,2,true,d,false,true,0.0-2.0-0.40-0.362-3.362,0,0,0,68,false,stim,false,1,1072.0999999046326,1,0,1,69221,task2,979037,false,false,1170,image-keyboard-response,32
true,11,2,1,2,true,d,false,true,0.0-2.0-0.40-0.363-3.363,0,0,0,68,false,stim,false,1,638.3000001907349,1,0,1,69221,task2,981204,false,false,1173,image-keyboard-response,33
true,11,0,1,0,true,q,false,true,0.0-2.0-0.40-0.364-3.364,0,0,0,81,false,stim,false,2,533.5,1,0,2,69221,task2,983267,false,false,1176,image-keyboard-response,34
true,11,0,1,2,false,d,true,false,0.0-2.0-0.40-0.365-3.365,0,0,0,81,false,stim,false,1,518.0,1,1,1,69221,task2,985317,false,false,1179,image-keyboard-response,35
true,11,0,1,0,true,q,false,true,0.0-2.0-0.40-0.366-3.366,0,0,0,81,false,stim,false,2,1002.4000000953674,1,0,2,69221,task2,987848,false,false,1182,image-keyboard-response,36
true,11,2,1,0,false,q,false,false,0.0-2.0-0.40-0.367-3.367,0,0,0,68,false,stim,true,2,682.5999999046326,1,0,2,69221,task2,990054,false,false,1185,image-keyboard-response,37
true,11,1,1,1,true,z,false,true,0.0-2.0-0.40-0.368-3.368,0,0,0,90,false,stim,false,2,950.5999999046326,1,0,0,69221,task2,992534,false,false,1188,image-keyboard-response,38
true,12,2,2,2,true,d,false,true,0.0-2.0-0.41-0.369-3.369,0,1,0,68,true,stim,false,2,797.7000000476837,1,1,1,69221,task2,994863,false,false,1191,image-keyboard-response,1
true,12,0,2,2,false,d,false,false,0.0-2.0-0.41-0.370-3.370,0,1,0,81,false,stim,true,0,688.7000000476837,1,0,2,69221,task2,997070,false,false,1194,image-keyboard-response,2
true,12,1,2,0,false,q,false,false,0.0-2.0-0.41-0.371-3.371,0,1,0,90,false,stim,true,1,359.89999985694885,1,0,0,69221,task2,998947,false,false,1197,image-keyboard-response,3
true,12,1,2,0,false,q,false,false,0.0-2.0-0.41-0.372-3.372,0,1,0,90,false,stim,true,1,599.2000000476837,1,0,0,69221,task2,1001064,false,false,1200,image-keyboard-response,4
true,12,2,2,0,false,q,true,false,0.0-2.0-0.41-0.373-3.373,0,1,0,68,false,stim,false,1,659.7999999523163,1,0,0,69221,task2,1003260,false,false,1203,image-keyboard-response,5
true,12,0,2,2,false,d,false,false,0.0-2.0-0.41-0.374-3.374,0,1,0,81,false,stim,true,0,1033.9000000953674,1,0,2,69221,task2,1005805,false,false,1206,image-keyboard-response,6
true,12,2,2,2,true,d,false,true,0.0-2.0-0.41-0.375-3.375,0,1,0,68,false,stim,false,2,774.5999999046326,1,1,1,69221,task2,1008108,false,false,1209,image-keyboard-response,7
true,12,2,2,2,true,d,false,true,0.0-2.0-0.41-0.376-3.376,0,1,0,68,false,stim,false,2,574.3000001907349,1,1,1,69221,task2,1010207,false,false,1212,image-keyboard-response,8
true,12,1,2,2,false,d,true,false,0.0-2.0-0.41-0.377-3.377,0,1,0,90,false,stim,false,0,689.9000000953674,1,0,2,69221,task2,1012422,false,false,1215,image-keyboard-response,9
true,12,2,2,2,true,d,false,true,0.0-2.0-0.42-0.378-3.378,0,1,0,68,false,stim,false,2,455.19999980926514,1,1,1,69221,task2,1014407,false,false,1218,image-keyboard-response,10
true,12,2,2,2,true,d,false,true,0.0-2.0-0.42-0.379-3.379,0,1,0,68,false,stim,false,2,670.9000000953674,1,1,1,69221,task2,1016604,false,false,1221,image-keyboard-response,11
true,12,0,2,0,true,q,false,true,0.0-2.0-0.42-0.380-3.380,0,1,0,81,false,stim,false,1,628.5999999046326,1,0,0,69221,task2,1018762,false,false,1224,image-keyboard-response,12
true,12,2,2,2,true,d,false,true,0.0-2.0-0.42-0.381-3.381,0,1,0,68,false,stim,false,0,515.2999999523163,1,0,2,69221,task2,1020795,false,false,1227,image-keyboard-response,13
true,12,0,2,0,true,q,false,true,0.0-2.0-0.42-0.382-3.382,0,1,0,81,false,stim,false,1,543.1999998092651,1,0,0,69221,task2,1022862,false,false,1230,image-keyboard-response,14
true,12,2,2,2,true,d,false,true,0.0-2.0-0.42-0.383-3.383,0,1,0,68,false,stim,false,0,744.9000000953674,1,0,2,69221,task2,1025128,false,false,1233,image-keyboard-response,15
true,12,2,2,2,true,d,false,true,0.0-2.0-0.42-0.384-3.384,0,1,0,68,false,stim,false,2,681.9000000953674,1,1,1,69221,task2,1027318,false,false,1236,image-keyboard-response,16
true,12,0,2,0,true,q,false,true,0.0-2.0-0.42-0.385-3.385,0,1,0,81,false,stim,false,1,424.40000009536743,1,0,0,69221,task2,1029260,false,false,1239,image-keyboard-response,17
true,12,2,2,2,true,d,false,true,0.0-2.0-0.42-0.386-3.386,0,1,0,68,false,stim,false,0,639.7999999523163,1,0,2,69221,task2,1031423,false,false,1242,image-keyboard-response,18
true,12,2,2,2,true,d,false,true,0.0-2.0-0.43-0.387-3.387,0,1,0,68,false,stim,false,2,449.0,1,1,1,69221,task2,1033389,false,false,1245,image-keyboard-response,19
true,12,2,2,2,true,d,false,true,0.0-2.0-0.43-0.388-3.388,0,1,0,68,false,stim,false,0,674.7000000476837,1,0,2,69221,task2,1035593,false,false,1248,image-keyboard-response,20
true,12,0,2,0,true,q,false,true,0.0-2.0-0.43-0.389-3.389,0,1,0,81,false,stim,false,1,635.9000000953674,1,0,0,69221,task2,1037740,false,false,1251,image-keyboard-response,21
true,12,0,2,0,true,q,false,true,0.0-2.0-0.43-0.390-3.390,0,1,0,81,false,stim,false,1,374.09999990463257,1,0,0,69221,task2,1039638,false,false,1254,image-keyboard-response,22
true,12,0,2,0,true,q,false,true,0.0-2.0-0.43-0.391-3.391,0,1,0,81,false,stim,false,1,374.7000000476837,1,0,0,69221,task2,1041541,false,false,1257,image-keyboard-response,23
true,12,2,2,2,true,d,false,true,0.0-2.0-0.43-0.392-3.392,0,1,0,68,false,stim,false,2,459.40000009536743,1,1,1,69221,task2,1043524,false,false,1260,image-keyboard-response,24
true,12,2,2,2,true,d,false,true,0.0-2.0-0.43-0.393-3.393,0,1,0,68,false,stim,false,2,495.90000009536743,1,1,1,69221,task2,1045541,false,false,1263,image-keyboard-response,25
true,12,2,2,2,true,d,false,true,0.0-2.0-0.43-0.394-3.394,0,1,0,68,false,stim,false,0,642.5,1,0,2,69221,task2,1047693,false,false,1266,image-keyboard-response,26
true,12,2,2,2,true,d,false,true,0.0-2.0-0.43-0.395-3.395,0,1,0,68,false,stim,false,0,502.5,1,0,2,69221,task2,1049733,false,false,1269,image-keyboard-response,27
true,12,2,2,2,true,d,false,true,0.0-2.0-0.44-0.396-3.396,0,1,0,68,false,stim,false,0,424.90000009536743,1,0,2,69221,task2,1051690,false,false,1272,image-keyboard-response,28
true,12,2,2,2,true,d,false,true,0.0-2.0-0.44-0.397-3.397,0,1,0,68,false,stim,false,2,641.2999999523163,1,1,1,69221,task2,1053856,false,false,1275,image-keyboard-response,29
true,12,0,2,0,true,q,false,true,0.0-2.0-0.44-0.398-3.398,0,1,0,81,false,stim,false,1,497.2000000476837,1,0,0,69221,task2,1055879,false,false,1278,image-keyboard-response,30
true,12,2,2,2,true,d,false,false,0.0-2.0-0.44-0.399-3.399,0,1,0,68,false,stim,false,2,869.5,1,0,1,69221,task2,1058287,false,true,1281,image-keyboard-response,31
true,12,2,2,2,true,d,false,true,0.0-2.0-0.44-0.400-3.400,0,1,0,68,false,stim,false,0,752.5999999046326,1,0,2,69221,task2,1060565,false,false,1284,image-keyboard-response,32
true,12,0,2,0,true,q,false,true,0.0-2.0-0.44-0.401-3.401,0,1,0,81,false,stim,false,1,432.2000000476837,1,0,0,69221,task2,1062517,false,false,1287,image-keyboard-response,33
true,12,2,2,2,true,d,false,true,0.0-2.0-0.44-0.402-3.402,0,1,0,68,false,stim,false,0,638.7999999523163,1,0,2,69221,task2,1064686,false,false,1290,image-keyboard-response,34
true,13,0,1,1,false,z,false,true,0.0-2.0-0.44-0.403-3.403,0,0,0,81,true,stim,true,0,477.59999990463257,1,0,0,69221,task2,1066691,false,true,1293,image-keyboard-response,1
true,13,2,1,0,false,q,false,true,0.0-2.0-0.44-0.404-3.404,0,0,0,68,false,stim,true,2,398.0,1,0,1,69221,task2,1068612,false,true,1296,image-keyboard-response,2
true,13,0,1,1,false,z,false,false,0.0-2.0-0.45-0.405-3.405,0,0,0,81,false,stim,true,0,479.5,1,0,0,69221,task2,1070608,false,false,1299,image-keyboard-response,3
true,13,0,1,1,false,z,false,false,0.0-2.0-0.45-0.406-3.406,0,0,0,81,false,stim,true,0,483.60000014305115,1,0,0,69221,task2,1072613,false,false,1302,image-keyboard-response,4
true,13,2,1,0,false,q,false,true,0.0-2.0-0.45-0.407-3.407,0,0,0,68,false,stim,true,2,516.2999999523163,1,0,1,69221,task2,1074661,false,true,1305,image-keyboard-response,5
true,13,2,1,0,false,q,false,false,0.0-2.0-0.45-0.408-3.408,0,0,0,68,false,stim,true,2,757.7000000476837,1,0,2,69221,task2,1076936,false,false,1308,image-keyboard-response,6
true,13,2,1,0,false,q,false,false,0.0-2.0-0.45-0.409-3.409,0,0,0,68,false,stim,true,2,634.5,1,0,1,69221,task2,1079096,false,false,1311,image-keyboard-response,7
true,13,2,1,0,false,q,false,false,0.0-2.0-0.45-0.410-3.410,0,0,0,68,false,stim,true,2,544.3999998569489,1,0,1,69221,task2,1081158,false,false,1314,image-keyboard-response,8
true,13,2,1,0,false,q,false,false,0.0-2.0-0.45-0.411-3.411,0,0,0,68,false,stim,true,2,746.4000000953674,1,0,2,69221,task2,1083443,false,false,1317,image-keyboard-response,9
true,13,1,1,0,false,q,true,false,0.0-2.0-0.45-0.412-3.412,0,0,0,90,false,stim,false,2,579.5,1,0,2,69221,task2,1085542,false,false,1320,image-keyboard-response,10
true,13,1,1,1,true,z,false,false,0.0-2.0-0.45-0.413-3.413,0,0,0,90,false,stim,false,0,1172.5999999046326,1,0,0,69221,task2,1088234,false,true,1323,image-keyboard-response,11
true,13,1,1,0,false,q,true,false,0.0-2.0-0.46-0.414-3.414,0,0,0,90,false,stim,false,2,415.0,1,0,1,69221,task2,1090182,false,false,1326,image-keyboard-response,12
true,13,2,1,1,false,z,true,false,0.0-2.0-0.46-0.415-3.415,0,0,0,68,false,stim,false,0,696.7000000476837,1,0,0,69221,task2,1092398,false,false,1329,image-keyboard-response,13
true,13,2,1,1,false,z,true,false,0.0-2.0-0.46-0.416-3.416,0,0,0,68,false,stim,false,0,1102.2000000476837,1,0,0,69221,task2,1095028,false,false,1332,image-keyboard-response,14
true,13,0,1,0,true,q,false,true,0.0-2.0-0.46-0.417-3.417,0,0,0,81,false,stim,false,2,771.4000000953674,1,0,2,69221,task2,1097315,false,false,1335,image-keyboard-response,15
true,13,0,1,0,true,q,false,true,0.0-2.0-0.46-0.418-3.418,0,0,0,81,false,stim,false,2,467.7999999523163,1,0,2,69221,task2,1099303,false,false,1338,image-keyboard-response,16
true,13,0,1,0,true,q,false,true,0.0-2.0-0.46-0.419-3.419,0,0,0,81,false,stim,false,2,449.2999999523163,1,0,1,69221,task2,1101291,false,false,1341,image-keyboard-response,17
true,13,0,1,1,false,z,false,false,0.0-2.0-0.46-0.420-3.420,0,0,0,81,false,stim,true,0,930.5,1,0,0,69221,task2,1103760,false,false,1344,image-keyboard-response,18
true,13,0,1,0,true,q,false,true,0.0-2.0-0.46-0.421-3.421,0,0,0,81,false,stim,false,2,539.8999998569489,1,0,2,69221,task2,1105826,false,false,1347,image-keyboard-response,19
true,13,0,1,0,true,q,false,true,0.0-2.0-0.46-0.422-3.422,0,0,0,81,false,stim,false,2,916.3999998569489,1,0,1,69221,task2,1108279,false,false,1350,image-keyboard-response,20
true,13,0,1,0,true,q,false,true,0.0-2.0-0.47-0.423-3.423,0,0,0,81,false,stim,false,2,495.2000000476837,1,0,2,69221,task2,1110297,false,false,1353,image-keyboard-response,21
true,13,0,1,0,true,q,false,true,0.0-2.0-0.47-0.424-3.424,0,0,0,81,false,stim,false,2,445.69999980926514,1,0,1,69221,task2,1112261,false,false,1356,image-keyboard-response,22
true,13,2,1,1,false,z,true,false,0.0-2.0-0.47-0.425-3.425,0,0,0,68,false,stim,false,0,469.5,1,0,0,69221,task2,1114249,false,false,1359,image-keyboard-response,23
true,13,1,1,1,true,z,false,true,0.0-2.0-0.47-0.426-3.426,0,0,0,90,false,stim,false,0,656.5,1,0,0,69221,task2,1116441,false,false,1362,image-keyboard-response,24
true,13,1,1,1,true,z,false,true,0.0-2.0-0.47-0.427-3.427,0,0,0,90,false,stim,false,0,550.2999999523163,1,0,0,69221,task2,1118518,false,false,1365,image-keyboard-response,25
true,13,0,1,0,true,q,false,true,0.0-2.0-0.47-0.428-3.428,0,0,0,81,false,stim,false,2,467.0,1,0,2,69221,task2,1120512,false,false,1368,image-keyboard-response,26
true,13,0,1,0,true,q,false,true,0.0-2.0-0.47-0.429-3.429,0,0,0,81,false,stim,false,2,721.2999999523163,1,0,1,69221,task2,1122767,false,false,1371,image-keyboard-response,27
true,13,0,1,0,true,q,false,true,0.0-2.0-0.47-0.430-3.430,0,0,0,81,false,stim,false,2,971.7000000476837,1,0,2,69221,task2,1125268,false,false,1374,image-keyboard-response,28
true,13,0,1,0,true,q,false,false,0.0-2.0-0.47-0.431-3.431,0,0,0,81,false,stim,false,2,528.0,1,0,1,69221,task2,1127316,false,true,1377,image-keyboard-response,29
true,13,0,1,0,true,q,false,true,0.0-2.0-0.48-0.432-3.432,0,0,0,81,false,stim,false,2,453.0,1,0,1,69221,task2,1129295,false,false,1380,image-keyboard-response,30
true,13,1,1,1,true,z,false,true,0.0-2.0-0.48-0.433-3.433,0,0,0,90,false,stim,false,0,355.5,1,0,0,69221,task2,1131169,false,false,1383,image-keyboard-response,31
true,13,0,1,0,true,q,false,true,0.0-2.0-0.48-0.434-3.434,0,0,0,81,false,stim,false,2,436.30000019073486,1,0,1,69221,task2,1133131,false,false,1386,image-keyboard-response,32
true,13,0,1,0,true,q,false,true,0.0-2.0-0.48-0.435-3.435,0,0,0,81,false,stim,false,2,680.0,1,0,2,69221,task2,1135341,false,false,1389,image-keyboard-response,33
true,13,0,1,0,true,q,false,true,0.0-2.0-0.48-0.436-3.436,0,0,0,81,false,stim,false,2,443.60000014305115,1,0,1,69221,task2,1137302,false,false,1392,image-keyboard-response,34
true,13,1,1,1,true,z,false,true,0.0-2.0-0.48-0.437-3.437,0,0,0,90,false,stim,false,0,491.09999990463257,1,0,0,69221,task2,1139323,false,false,1395,image-keyboard-response,35
true,13,1,1,1,true,z,false,false,0.0-2.0-0.48-0.438-3.438,0,0,0,90,false,stim,false,0,1712.7999999523163,1,0,0,69221,task2,1142572,false,true,1398,image-keyboard-response,36
true,13,0,1,0,true,q,false,true,0.0-2.0-0.48-0.439-3.439,0,0,0,81,false,stim,false,2,554.9000000953674,1,0,2,69221,task2,1144668,false,false,1401,image-keyboard-response,37
true,14,0,1,1,false,z,false,false,0.0-2.0-0.48-0.440-3.440,0,0,0,81,true,stim,true,0,410.0,1,0,2,69221,task2,1146596,false,false,1404,image-keyboard-response,1
true,14,1,1,2,false,d,false,false,0.0-2.0-0.49-0.441-3.441,0,0,0,90,false,stim,true,1,609.3999998569489,1,0,0,69221,task2,1148724,false,false,1407,image-keyboard-response,2
true,14,0,1,2,false,d,true,false,0.0-2.0-0.49-0.442-3.442,0,0,0,81,false,stim,false,1,787.2999999523163,1,0,0,69221,task2,1151028,false,false,1410,image-keyboard-response,3
true,14,0,1,1,false,z,false,false,0.0-2.0-0.49-0.443-3.443,0,0,0,81,false,stim,true,0,1035.0,1,0,2,69221,task2,1153579,false,false,1413,image-keyboard-response,4
true,14,2,1,1,false,z,true,true,0.0-2.0-0.49-0.444-3.444,0,0,0,68,false,stim,false,0,589.7000000476837,1,0,2,69221,task2,1155702,false,true,1416,image-keyboard-response,5
true,14,2,1,1,false,z,true,false,0.0-2.0-0.49-0.445-3.445,0,0,0,68,false,stim,false,0,539.7999999523163,1,0,2,69221,task2,1157765,false,false,1419,image-keyboard-response,6
true,14,2,1,2,true,d,false,true,0.0-2.0-0.49-0.446-3.446,0,0,0,68,false,stim,false,1,665.4000000953674,1,0,0,69221,task2,1159955,false,false,1422,image-keyboard-response,7
true,14,0,1,2,false,d,false,false,0.0-2.0-0.49-0.447-3.447,0,0,0,81,false,stim,true,0,788.4000000953674,1,0,1,69221,task2,1162264,false,false,1425,image-keyboard-response,8
true,14,2,1,2,true,d,false,false,0.0-2.0-0.49-0.448-3.448,0,0,0,68,false,stim,false,0,544.6000001430511,1,0,1,69221,task2,1164338,false,true,1428,image-keyboard-response,9
true,14,1,1,2,false,d,true,false,0.0-2.0-0.49-0.449-3.449,0,0,0,90,false,stim,false,0,423.7999999523163,1,0,1,69221,task2,1166281,false,false,1431,image-keyboard-response,10
true,14,0,1,2,false,d,false,true,0.0-2.0-0.50-0.450-3.450,0,0,0,81,false,stim,true,0,356.2000000476837,1,0,1,69221,task2,1168148,false,true,1434,image-keyboard-response,11
true,14,2,1,1,false,z,true,false,0.0-2.0-0.50-0.451-3.451,0,0,0,68,false,stim,false,0,609.5,1,0,2,69221,task2,1170290,false,false,1437,image-keyboard-response,12
true,14,2,1,2,true,d,false,true,0.0-2.0-0.50-0.452-3.452,0,0,0,68,false,stim,false,1,810.0,1,0,0,69221,task2,1172617,false,false,1440,image-keyboard-response,13
true,14,0,1,2,false,d,false,true,0.0-2.0-0.50-0.453-3.453,0,0,0,81,false,stim,true,0,667.3000001907349,1,0,1,69221,task2,1174810,false,true,1443,image-keyboard-response,14
true,14,2,1,2,true,d,false,true,0.0-2.0-0.50-0.454-3.454,0,0,0,68,false,stim,false,1,702.9000000953674,1,0,0,69221,task2,1177031,false,false,1446,image-keyboard-response,15
true,14,1,1,1,true,z,false,true,0.0-2.0-0.50-0.455-3.455,0,0,0,90,false,stim,false,0,382.69999980926514,1,0,2,69221,task2,1178926,false,false,1449,image-keyboard-response,16
true,14,0,1,2,false,d,false,false,0.0-2.0-0.50-0.456-3.456,0,0,0,81,false,stim,true,0,601.2000000476837,1,0,1,69221,task2,1181062,false,false,1452,image-keyboard-response,17
true,14,2,1,2,true,d,false,false,0.0-2.0-0.50-0.457-3.457,0,0,0,68,false,stim,false,1,582.2000000476837,1,0,0,69221,task2,1183163,false,true,1455,image-keyboard-response,18
true,14,1,1,1,true,z,false,true,0.0-2.0-0.50-0.458-3.458,0,0,0,90,false,stim,false,0,711.2000000476837,1,0,2,69221,task2,1185393,false,false,1458,image-keyboard-response,19
true,14,1,1,1,true,z,false,true,0.0-2.0-0.51-0.459-3.459,0,0,0,90,false,stim,false,0,913.5999999046326,1,0,2,69221,task2,1187833,false,false,1461,image-keyboard-response,20
true,14,0,1,2,false,d,true,false,0.0-2.0-0.51-0.460-3.460,0,0,0,81,false,stim,false,1,393.89999985694885,1,0,0,69221,task2,1189755,false,false,1464,image-keyboard-response,21
true,14,0,1,2,false,d,false,false,0.0-2.0-0.51-0.461-3.461,0,0,0,81,false,stim,true,0,530.4000000953674,1,0,1,69221,task2,1191805,false,false,1467,image-keyboard-response,22
true,14,2,1,2,true,d,false,false,0.0-2.0-0.51-0.462-3.462,0,0,0,68,false,stim,false,1,717.1000001430511,1,0,0,69221,task2,1194055,false,true,1470,image-keyboard-response,23
true,14,1,1,1,true,z,false,false,0.0-2.0-0.51-0.463-3.463,0,0,0,90,false,stim,false,0,436.09999990463257,1,0,2,69221,task2,1196026,false,true,1473,image-keyboard-response,24
true,14,1,1,1,true,z,false,true,0.0-2.0-0.51-0.464-3.464,0,0,0,90,false,stim,false,0,410.0,1,0,2,69221,task2,1197969,false,false,1476,image-keyboard-response,25
true,14,1,1,2,false,d,true,false,0.0-2.0-0.51-0.465-3.465,0,0,0,90,false,stim,false,0,746.5999999046326,1,0,1,69221,task2,1200243,false,false,1479,image-keyboard-response,26
true,14,1,1,2,false,d,false,false,0.0-2.0-0.51-0.466-3.466,0,0,0,90,false,stim,true,1,444.09999990463257,1,0,0,69221,task2,1202219,false,false,1482,image-keyboard-response,27
true,14,0,1,2,false,d,false,false,0.0-2.0-0.51-0.467-3.467,0,0,0,81,false,stim,true,0,1125.0,1,0,1,69221,task2,1204871,false,false,1485,image-keyboard-response,28
true,14,0,1,2,false,d,false,false,0.0-2.0-0.52-0.468-3.468,0,0,0,81,false,stim,true,0,441.2999999523163,1,0,1,69221,task2,1206848,false,false,1488,image-keyboard-response,29
true,14,2,1,2,true,d,false,true,0.0-2.0-0.52-0.469-3.469,0,0,0,68,false,stim,false,1,923.6999998092651,1,1,0,69221,task2,1209287,false,false,1491,image-keyboard-response,30
true,14,2,1,2,true,d,false,true,0.0-2.0-0.52-0.470-3.470,0,0,0,68,false,stim,false,0,704.9000000953674,1,0,1,69221,task2,1211513,false,false,1494,image-keyboard-response,31
true,14,1,1,1,true,z,false,true,0.0-2.0-0.52-0.471-3.471,0,0,0,90,false,stim,false,0,678.3000001907349,1,0,2,69221,task2,1213718,false,false,1497,image-keyboard-response,32
true,14,2,1,2,true,d,false,true,0.0-2.0-0.52-0.472-3.472,0,0,0,68,false,stim,false,1,635.0,1,1,0,69221,task2,1215878,false,false,1500,image-keyboard-response,33
true,14,2,1,1,false,z,true,false,0.0-2.0-0.52-0.473-3.473,0,0,0,68,false,stim,false,0,717.0,1,0,2,69221,task2,1218122,false,false,1503,image-keyboard-response,34
true,15,1,2,2,false,d,false,false,0.0-2.0-0.52-0.474-3.474,1,0,0,90,true,stim,true,1,1147.2999999523163,1,0,2,69221,task2,1220792,false,false,1506,image-keyboard-response,1
true,15,2,2,0,false,q,false,false,0.0-2.0-0.52-0.475-3.475,1,0,0,68,false,stim,true,2,668.5,1,0,1,69221,task2,1222983,false,false,1509,image-keyboard-response,2
true,15,2,2,2,true,d,false,true,0.0-2.0-0.52-0.476-3.476,1,0,0,68,false,stim,false,2,693.5,1,1,0,69221,task2,1225201,false,false,1512,image-keyboard-response,3
true,15,2,2,2,true,d,false,true,0.0-2.0-0.53-0.477-3.477,1,0,0,68,false,stim,false,2,703.1000001430511,1,1,0,69221,task2,1227427,false,false,1515,image-keyboard-response,4
true,15,1,2,2,false,d,false,false,0.0-2.0-0.53-0.478-3.478,1,0,0,90,false,stim,true,1,649.8999998569489,1,0,2,69221,task2,1229594,false,false,1518,image-keyboard-response,5
true,15,1,2,2,false,d,false,false,0.0-2.0-0.53-0.479-3.479,1,0,0,90,false,stim,true,1,492.09999990463257,1,0,2,69221,task2,1231613,false,false,1521,image-keyboard-response,6
true,15,2,2,0,false,q,false,false,0.0-2.0-0.53-0.480-3.480,1,0,0,68,false,stim,true,2,638.7000000476837,1,0,1,69221,task2,1233777,false,false,1524,image-keyboard-response,7
true,15,0,2,0,true,q,false,false,0.0-2.0-0.53-0.481-3.481,1,0,0,81,false,stim,false,2,584.7999999523163,1,0,1,69221,task2,1235891,false,true,1527,image-keyboard-response,8
true,15,1,2,0,false,q,true,false,0.0-2.0-0.53-0.482-3.482,1,0,0,90,false,stim,false,2,1342.2000000476837,1,0,1,69221,task2,1238764,false,false,1530,image-keyboard-response,9
true,15,2,2,2,true,d,false,true,0.0-2.0-0.53-0.483-3.483,1,0,0,68,false,stim,false,2,1201.0,1,1,0,69221,task2,1241489,false,false,1533,image-keyboard-response,10
true,15,0,2,2,false,d,true,true,0.0-2.0-0.53-0.484-3.484,1,0,0,81,false,stim,false,1,811.2999999523163,1,0,2,69221,task2,1243832,false,true,1536,image-keyboard-response,11
true,15,2,2,2,true,d,false,true,0.0-2.0-0.53-0.485-3.485,1,0,0,68,false,stim,false,2,1323.2000000476837,1,1,0,69221,task2,1246678,false,false,1539,image-keyboard-response,12
true,15,0,2,2,false,d,true,false,0.0-2.0-0.54-0.486-3.486,1,0,0,81,false,stim,false,1,530.7999999523163,1,0,2,69221,task2,1248724,false,false,1542,image-keyboard-response,13
true,15,2,2,2,true,d,false,true,0.0-2.0-0.54-0.487-3.487,1,0,0,68,false,stim,false,2,839.5,1,1,0,69221,task2,1251079,false,false,1545,image-keyboard-response,14
true,15,1,2,2,false,d,false,false,0.0-2.0-0.54-0.488-3.488,1,0,0,90,false,stim,true,1,815.1999998092651,1,0,2,69221,task2,1253423,false,false,1548,image-keyboard-response,15
true,15,0,2,0,true,q,false,true,0.0-2.0-0.54-0.489-3.489,1,0,0,81,false,stim,false,2,756.0999999046326,1,0,1,69221,task2,1255695,false,false,1551,image-keyboard-response,16
true,15,2,2,2,true,d,false,true,0.0-2.0-0.54-0.490-3.490,1,0,0,68,false,stim,false,2,647.3999998569489,1,1,0,69221,task2,1257867,false,false,1554,image-keyboard-response,17
true,15,0,2,0,true,q,false,true,0.0-2.0-0.54-0.491-3.491,1,0,0,81,false,stim,false,2,414.09999990463257,1,0,1,69221,task2,1259804,false,false,1557,image-keyboard-response,18
true,15,1,2,2,false,d,false,false,0.0-2.0-0.54-0.492-3.492,1,0,0,90,false,stim,true,1,1256.5,1,0,2,69221,task2,1262581,false,false,1560,image-keyboard-response,19
true,15,0,2,0,true,q,false,true,0.0-2.0-0.54-0.493-3.493,1,0,0,81,false,stim,false,2,803.5999999046326,1,0,1,69221,task2,1264909,false,false,1563,image-keyboard-response,20
true,15,2,2,2,true,d,false,true,0.0-2.0-0.54-0.494-3.494,1,0,0,68,false,stim,false,2,584.1000001430511,1,1,0,69221,task2,1267011,false,false,1566,image-keyboard-response,21
true,15,0,2,2,false,d,true,false,0.0-2.0-0.55-0.495-3.495,1,0,0,81,false,stim,false,1,383.0,1,0,2,69221,task2,1268920,false,false,1569,image-keyboard-response,22
true,15,0,2,0,true,q,false,true,0.0-2.0-0.55-0.496-3.496,1,0,0,81,false,stim,false,2,416.5,1,0,1,69221,task2,1270858,false,false,1572,image-keyboard-response,23
true,15,2,2,2,true,d,false,true,0.0-2.0-0.55-0.497-3.497,1,0,0,68,false,stim,false,2,619.5999999046326,1,1,0,69221,task2,1273008,false,false,1575,image-keyboard-response,24
true,15,0,2,0,true,q,false,false,0.0-2.0-0.55-0.498-3.498,1,0,0,81,false,stim,false,2,856.8000001907349,1,0,1,69221,task2,1275392,false,true,1578,image-keyboard-response,25
true,15,0,2,2,false,d,true,true,0.0-2.0-0.55-0.499-3.499,1,0,0,81,false,stim,false,1,383.5,1,0,2,69221,task2,1277306,false,true,1581,image-keyboard-response,26
true,15,2,2,2,true,d,false,true,0.0-2.0-0.55-0.500-3.500,1,0,0,68,false,stim,false,2,452.10000014305115,1,1,0,69221,task2,1279284,false,false,1584,image-keyboard-response,27
true,15,0,2,2,false,d,true,false,0.0-2.0-0.55-0.501-3.501,1,0,0,81,false,stim,false,1,395.69999980926514,1,0,2,69221,task2,1281214,false,false,1587,image-keyboard-response,28
true,15,2,2,2,true,d,false,true,0.0-2.0-0.55-0.502-3.502,1,0,0,68,false,stim,false,2,635.1000001430511,1,1,0,69221,task2,1283371,false,false,1590,image-keyboard-response,29
true,15,0,2,0,true,q,false,true,0.0-2.0-0.55-0.503-3.503,1,0,0,81,false,stim,false,2,536.0,1,0,1,69221,task2,1285422,false,false,1593,image-keyboard-response,30
true,15,0,2,0,true,q,false,true,0.0-2.0-0.56-0.504-3.504,1,0,0,81,false,stim,false,2,424.19999980926514,1,1,1,69221,task2,1287367,false,false,1596,image-keyboard-response,31
true,15,2,2,2,true,d,false,true,0.0-2.0-0.56-0.505-3.505,1,0,0,68,false,stim,false,2,680.6000001430511,1,1,0,69221,task2,1289566,false,false,1599,image-keyboard-response,32
true,15,2,2,0,false,q,false,false,0.0-2.0-0.56-0.506-3.506,1,0,0,68,false,stim,true,2,487.89999985694885,1,1,1,69221,task2,1291591,false,false,1602,image-keyboard-response,33
true,15,2,2,2,true,d,false,true,0.0-2.0-0.56-0.507-3.507,1,0,0,68,false,stim,false,2,579.0999999046326,1,1,0,69221,task2,1293700,false,false,1605,image-keyboard-response,34
true,15,0,2,0,true,q,false,true,0.0-2.0-0.56-0.508-3.508,1,0,0,81,false,stim,false,2,440.7000000476837,1,1,1,69221,task2,1295660,false,false,1608,image-keyboard-response,35
true,16,1,0,2,false,d,true,true,0.0-2.0-0.56-0.509-3.509,1,1,1,90,true,stim,false,2,987.1000001430511,1,1,2,69221,task2,1419378,false,true,1731,image-keyboard-response,1
true,16,1,0,2,false,d,true,false,0.0-2.0-0.56-0.510-3.510,1,1,1,90,false,stim,false,2,727.2999999523163,1,1,2,69221,task2,1421626,false,false,1734,image-keyboard-response,2
true,16,1,0,2,false,d,true,true,0.0-2.0-0.56-0.511-3.511,1,1,1,90,false,stim,false,2,481.09999990463257,1,1,2,69221,task2,1423629,false,true,1737,image-keyboard-response,3
true,16,2,0,2,true,d,false,true,0.0-2.0-0.56-0.512-3.512,1,1,1,68,false,stim,false,2,764.4000000953674,1,1,0,69221,task2,1425926,false,false,1740,image-keyboard-response,4
true,16,1,0,2,false,d,true,false,0.0-2.0-0.57-0.513-3.513,1,1,1,90,false,stim,false,2,547.0999999046326,1,1,2,69221,task2,1427983,false,false,1743,image-keyboard-response,5
true,16,1,0,2,false,d,true,false,0.0-2.0-0.57-0.514-3.514,1,1,1,90,false,stim,false,2,397.2000000476837,1,1,2,69221,task2,1429909,false,false,1746,image-keyboard-response,6
true,16,2,0,2,true,d,false,true,0.0-2.0-0.57-0.515-3.515,1,1,1,68,false,stim,false,2,334.39999985694885,1,1,0,69221,task2,1431767,false,false,1749,image-keyboard-response,7
true,16,0,0,0,true,q,false,true,0.0-2.0-0.57-0.516-3.516,1,1,1,81,false,stim,false,0,630.2999999523163,1,1,1,69221,task2,1433929,false,false,1752,image-keyboard-response,8
true,16,2,0,2,true,d,false,true,0.0-2.0-0.57-0.517-3.517,1,1,1,68,false,stim,false,2,432.7000000476837,1,0,0,69221,task2,1435897,false,false,1755,image-keyboard-response,9
true,16,1,0,2,false,d,true,false,0.0-2.0-0.57-0.518-3.518,1,1,1,90,false,stim,false,2,657.4000000953674,1,0,2,69221,task2,1438077,false,false,1758,image-keyboard-response,10
true,16,0,0,0,true,q,false,true,0.0-2.0-0.57-0.519-3.519,1,1,1,81,false,stim,false,0,647.5,1,0,1,69221,task2,1440263,false,false,1761,image-keyboard-response,11
true,16,2,0,2,true,d,false,true,0.0-2.0-0.57-0.520-3.520,1,1,1,68,false,stim,false,2,622.7000000476837,1,0,0,69221,task2,1442409,false,false,1764,image-keyboard-response,12
true,16,0,0,0,true,q,false,false,0.0-2.0-0.57-0.521-3.521,1,1,1,81,false,stim,false,0,862.5999999046326,1,0,1,69221,task2,1444783,false,true,1767,image-keyboard-response,13
true,17,2,1,0,false,q,false,true,0.0-2.0-0.58-0.522-3.522,0,0,0,68,true,stim,true,2,746.2000000476837,1,0,0,69221,task2,1447053,false,true,1770,image-keyboard-response,1
true,17,2,1,1,false,z,false,false,0.0-2.0-0.58-0.523-3.523,0,0,0,68,false,stim,true,2,1092.0999999046326,1,0,2,69221,task2,1449669,false,false,1773,image-keyboard-response,2
true,17,2,1,0,false,q,false,true,0.0-2.0-0.58-0.524-3.524,0,0,0,68,false,stim,true,2,562.0999999046326,1,0,0,69221,task2,1451758,false,true,1776,image-keyboard-response,3
true,17,0,1,1,false,z,true,false,0.0-2.0-0.58-0.525-3.525,0,0,0,81,false,stim,false,2,851.5,1,0,2,69221,task2,1454145,false,false,1779,image-keyboard-response,4
true,17,0,1,1,false,z,false,true,0.0-2.0-0.58-0.526-3.526,0,0,0,81,false,stim,true,0,505.89999985694885,1,0,1,69221,task2,1456173,false,true,1782,image-keyboard-response,5
true,17,0,1,1,false,z,false,false,0.0-2.0-0.58-0.527-3.527,0,0,0,81,false,stim,true,0,534.2999999523163,1,0,1,69221,task2,1458247,false,false,1785,image-keyboard-response,6
true,17,0,1,1,false,z,false,false,0.0-2.0-0.58-0.528-3.528,0,0,0,81,false,stim,true,0,346.90000009536743,1,0,1,69221,task2,1460128,false,false,1788,image-keyboard-response,7
true,17,0,1,1,false,z,true,true,0.0-2.0-0.58-0.529-3.529,0,0,0,81,false,stim,false,2,398.7000000476837,1,0,2,69221,task2,1462058,false,true,1791,image-keyboard-response,8
true,17,2,1,0,false,q,false,false,0.0-2.0-0.58-0.530-3.530,0,0,0,68,false,stim,true,2,598.6999998092651,1,0,0,69221,task2,1464182,false,false,1794,image-keyboard-response,9
true,17,0,1,1,false,z,true,false,0.0-2.0-0.59-0.531-3.531,0,0,0,81,false,stim,false,2,651.7000000476837,1,0,2,69221,task2,1466363,false,false,1797,image-keyboard-response,10
true,17,2,1,0,false,q,false,false,0.0-2.0-0.59-0.532-3.532,0,0,0,68,false,stim,true,2,531.7000000476837,1,0,0,69221,task2,1468417,false,false,1800,image-keyboard-response,11
true,17,1,1,1,true,z,false,true,0.0-2.0-0.59-0.533-3.533,0,0,0,90,false,stim,false,0,936.7999999523163,1,0,1,69221,task2,1470883,false,false,1803,image-keyboard-response,12
true,17,0,1,1,false,z,true,false,0.0-2.0-0.59-0.534-3.534,0,0,0,81,false,stim,false,2,748.6999998092651,1,0,2,69221,task2,1473165,false,false,1806,image-keyboard-response,13
true,17,1,1,1,true,z,false,true,0.0-2.0-0.59-0.535-3.535,0,0,0,90,false,stim,false,0,426.60000014305115,1,0,1,69221,task2,1475114,false,false,1809,image-keyboard-response,14
true,17,1,1,0,false,q,true,false,0.0-2.0-0.59-0.536-3.536,0,0,0,90,false,stim,false,2,680.4000000953674,1,0,0,69221,task2,1477315,false,false,1812,image-keyboard-response,15
true,17,1,1,1,true,z,false,false,0.0-2.0-0.59-0.537-3.537,0,0,0,90,false,stim,false,0,415.7999999523163,1,0,1,69221,task2,1479249,false,true,1815,image-keyboard-response,16
true,17,2,1,1,false,z,false,false,0.0-2.0-0.59-0.538-3.538,0,0,0,68,false,stim,true,2,640.0,1,0,2,69221,task2,1481416,false,false,1818,image-keyboard-response,17
true,17,1,1,0,false,q,true,false,0.0-2.0-0.59-0.539-3.539,0,0,0,90,false,stim,false,2,776.8000001907349,1,0,0,69221,task2,1483709,false,false,1821,image-keyboard-response,18
true,17,0,1,1,false,z,true,false,0.0-2.0-0.60-0.540-3.540,0,0,0,81,false,stim,false,2,962.7999999523163,1,0,2,69221,task2,1486204,false,false,1824,image-keyboard-response,19
true,17,0,1,0,true,q,false,true,0.0-2.0-0.60-0.541-3.541,0,0,0,81,false,stim,false,2,1052.0,1,0,0,69221,task2,1488768,false,false,1827,image-keyboard-response,20
true,17,1,1,1,true,z,false,true,0.0-2.0-0.60-0.542-3.542,0,0,0,90,false,stim,false,0,686.0,1,0,1,69221,task2,1490986,false,false,1830,image-keyboard-response,21
true,17,2,1,1,false,z,false,false,0.0-2.0-0.60-0.543-3.543,0,0,0,68,false,stim,true,2,1249.0,1,0,2,69221,task2,1493758,false,false,1833,image-keyboard-response,22
true,17,1,1,1,true,z,false,true,0.0-2.0-0.60-0.544-3.544,0,0,0,90,false,stim,false,0,844.7999999523163,1,0,1,69221,task2,1496117,false,false,1836,image-keyboard-response,23
true,17,0,1,0,true,q,false,true,0.0-2.0-0.60-0.545-3.545,0,0,0,81,false,stim,false,2,535.8999998569489,1,0,0,69221,task2,1498176,false,false,1839,image-keyboard-response,24
true,17,1,1,1,true,z,false,true,0.0-2.0-0.60-0.546-3.546,0,0,0,90,false,stim,false,0,644.4000000953674,1,0,1,69221,task2,1500338,false,false,1842,image-keyboard-response,25
true,17,0,1,0,true,q,false,true,0.0-2.0-0.60-0.547-3.547,0,0,0,81,false,stim,false,2,474.7000000476837,1,0,0,69221,task2,1502336,false,false,1845,image-keyboard-response,26
true,17,1,1,1,true,z,false,false,0.0-2.0-0.60-0.548-3.548,0,0,0,90,false,stim,false,2,807.7999999523163,1,0,2,69221,task2,1504668,false,true,1848,image-keyboard-response,27
true,17,0,1,1,false,z,true,true,0.0-2.0-0.61-0.549-3.549,0,0,0,81,false,stim,false,2,819.9000000953674,1,0,2,69221,task2,1507012,false,true,1851,image-keyboard-response,28
true,17,0,1,0,true,q,false,true,0.0-2.0-0.61-0.550-3.550,0,0,0,81,false,stim,false,2,543.2999999523163,1,0,0,69221,task2,1509079,false,false,1854,image-keyboard-response,29
true,17,1,1,1,true,z,false,true,0.0-2.0-0.61-0.551-3.551,0,0,0,90,false,stim,false,0,423.5,1,0,1,69221,task2,1511015,false,false,1857,image-keyboard-response,30
true,17,1,1,1,true,z,false,true,0.0-2.0-0.61-0.552-3.552,0,0,0,90,false,stim,false,0,493.80000019073486,1,0,1,69221,task2,1513035,false,false,1860,image-keyboard-response,31
true,17,0,1,0,true,q,false,true,0.0-2.0-0.61-0.553-3.553,0,0,0,81,false,stim,false,2,523.5999999046326,1,0,0,69221,task2,1515073,false,false,1863,image-keyboard-response,32
true,17,1,1,1,true,z,false,true,0.0-2.0-0.61-0.554-3.554,0,0,0,90,false,stim,false,0,404.09999990463257,1,0,1,69221,task2,1516998,false,false,1866,image-keyboard-response,33
true,17,0,1,1,false,z,true,false,0.0-2.0-0.61-0.555-3.555,0,0,0,81,false,stim,false,2,397.7000000476837,1,1,2,69221,task2,1518919,false,false,1869,image-keyboard-response,34
true,17,0,1,0,true,q,false,false,0.0-2.0-0.61-0.556-3.556,0,0,0,81,false,stim,false,2,558.3000001907349,1,0,0,69221,task2,1520996,false,true,1872,image-keyboard-response,35
true,18,0,2,1,false,z,true,false,0.0-2.0-0.61-0.557-3.557,0,0,1,81,true,stim,false,1,730.2000000476837,1,1,2,69221,task2,1523256,false,false,1875,image-keyboard-response,1
true,18,1,2,0,false,q,false,false,0.0-2.0-0.62-0.558-3.558,0,0,1,90,false,stim,true,1,404.0,1,0,1,69221,task2,1525180,false,false,1878,image-keyboard-response,2
true,18,0,2,1,false,z,true,false,0.0-2.0-0.62-0.559-3.559,0,0,1,81,false,stim,false,1,805.5,1,1,2,69221,task2,1527514,false,false,1881,image-keyboard-response,3
true,18,2,2,0,false,q,true,false,0.0-2.0-0.62-0.560-3.560,0,0,1,68,false,stim,false,1,1090.7999999523163,1,0,1,69221,task2,1530133,false,false,1884,image-keyboard-response,4
true,18,1,2,2,false,d,true,false,0.0-2.0-0.62-0.561-3.561,0,0,1,90,false,stim,false,0,923.1000001430511,1,0,0,69221,task2,1532587,false,false,1887,image-keyboard-response,5
true,18,0,2,0,true,q,false,false,0.0-2.0-0.62-0.562-3.562,0,0,1,81,false,stim,false,1,394.0,1,0,1,69221,task2,1534502,false,true,1890,image-keyboard-response,6
true,18,1,2,1,true,z,false,false,0.0-2.0-0.62-0.563-3.563,0,0,1,90,false,stim,false,1,888.4000000953674,1,1,2,69221,task2,1536929,false,true,1893,image-keyboard-response,7
true,18,0,2,2,false,d,false,false,0.0-2.0-0.62-0.564-3.564,0,0,1,81,false,stim,true,0,1216.5999999046326,1,0,0,69221,task2,1539674,false,false,1896,image-keyboard-response,8
true,18,1,2,2,false,d,true,false,0.0-2.0-0.62-0.565-3.565,0,0,1,90,false,stim,false,0,881.2999999523163,1,0,0,69221,task2,1542077,false,false,1899,image-keyboard-response,9
true,18,0,2,1,false,z,true,false,0.0-2.0-0.62-0.566-3.566,0,0,1,81,false,stim,false,1,1060.0,1,1,2,69221,task2,1544682,false,false,1902,image-keyboard-response,10
true,18,2,2,1,false,z,true,false,0.0-2.0-0.63-0.567-3.567,0,0,1,68,false,stim,false,1,400.2000000476837,1,1,2,69221,task2,1546610,false,false,1905,image-keyboard-response,11
true,18,2,2,2,true,d,false,true,0.0-2.0-0.63-0.568-3.568,0,0,1,68,false,stim,false,0,755.9000000953674,1,0,0,69221,task2,1548894,false,false,1908,image-keyboard-response,12
true,18,2,2,2,true,d,false,true,0.0-2.0-0.63-0.569-3.569,0,0,1,68,false,stim,false,0,481.7000000476837,1,0,0,69221,task2,1550908,false,false,1911,image-keyboard-response,13
true,18,1,2,0,false,q,false,true,0.0-2.0-0.63-0.570-3.570,0,0,1,90,false,stim,true,1,468.0,1,0,1,69221,task2,1552905,false,true,1914,image-keyboard-response,14
true,18,0,2,1,false,z,true,false,0.0-2.0-0.63-0.571-3.571,0,0,1,81,false,stim,false,1,722.5,1,1,2,69221,task2,1555145,false,false,1917,image-keyboard-response,15
true,18,2,2,2,true,d,false,true,0.0-2.0-0.63-0.572-3.572,0,0,1,68,false,stim,false,0,676.2999999523163,1,0,0,69221,task2,1557338,false,false,1920,image-keyboard-response,16
true,18,1,2,1,true,z,false,true,0.0-2.0-0.63-0.573-3.573,0,0,1,90,false,stim,false,1,534.2000000476837,1,1,2,69221,task2,1559396,false,false,1923,image-keyboard-response,17
true,18,1,2,0,false,q,false,true,0.0-2.0-0.63-0.574-3.574,0,0,1,90,false,stim,true,1,467.19999980926514,1,0,1,69221,task2,1561388,false,true,1926,image-keyboard-response,18
true,18,1,2,0,false,q,false,false,0.0-2.0-0.63-0.575-3.575,0,0,1,90,false,stim,true,1,449.5,1,0,1,69221,task2,1563375,false,false,1929,image-keyboard-response,19
true,18,1,2,0,false,q,false,false,0.0-2.0-0.64-0.576-3.576,0,0,1,90,false,stim,true,1,558.2999999523163,1,0,1,69221,task2,1565450,false,false,1932,image-keyboard-response,20
true,18,2,2,1,false,z,true,false,0.0-2.0-0.64-0.577-3.577,0,0,1,68,false,stim,false,1,504.80000019073486,1,1,2,69221,task2,1567479,false,false,1935,image-keyboard-response,21
true,18,1,2,1,true,z,false,true,0.0-2.0-0.64-0.578-3.578,0,0,1,90,false,stim,false,1,358.09999990463257,1,1,2,69221,task2,1569365,false,false,1938,image-keyboard-response,22
true,18,2,2,2,true,d,false,true,0.0-2.0-0.64-0.579-3.579,0,0,1,68,false,stim,false,0,406.7000000476837,1,0,0,69221,task2,1571281,false,false,1941,image-keyboard-response,23
true,18,1,2,1,true,z,false,true,0.0-2.0-0.64-0.580-3.580,0,0,1,90,false,stim,false,1,380.90000009536743,1,1,2,69221,task2,1573189,false,false,1944,image-keyboard-response,24
true,18,2,2,2,true,d,false,true,0.0-2.0-0.64-0.581-3.581,0,0,1,68,false,stim,false,0,662.3999998569489,1,0,0,69221,task2,1575375,false,false,1947,image-keyboard-response,25
true,18,2,2,2,true,d,false,true,0.0-2.0-0.64-0.582-3.582,0,0,1,68,false,stim,false,0,426.7000000476837,1,0,0,69221,task2,1577333,false,false,1950,image-keyboard-response,26
true,18,1,2,0,false,q,false,false,0.0-2.0-0.64-0.583-3.583,0,0,1,90,false,stim,true,1,546.0,1,0,1,69221,task2,1579407,false,false,1953,image-keyboard-response,27
true,18,0,2,0,true,q,false,true,0.0-2.0-0.64-0.584-3.584,0,0,1,81,false,stim,false,1,1315.6000001430511,1,0,1,69221,task2,1582241,false,false,1956,image-keyboard-response,28
true,18,0,2,0,true,q,false,false,0.0-2.0-0.65-0.585-3.585,0,0,1,81,false,stim,false,1,424.2999999523163,1,0,1,69221,task2,1584184,false,true,1959,image-keyboard-response,29
true,18,2,2,2,true,d,false,true,0.0-2.0-0.65-0.586-3.586,0,0,1,68,false,stim,false,0,493.2000000476837,1,0,0,69221,task2,1586197,false,false,1962,image-keyboard-response,30
true,18,0,2,0,true,q,false,true,0.0-2.0-0.65-0.587-3.587,0,0,1,81,false,stim,false,1,341.2000000476837,1,0,1,69221,task2,1588061,false,false,1965,image-keyboard-response,31
true,18,2,2,2,true,d,false,true,0.0-2.0-0.65-0.588-3.588,0,0,1,68,false,stim,false,0,610.5,1,0,0,69221,task2,1590199,false,false,1968,image-keyboard-response,32
true,18,2,2,2,true,d,false,true,0.0-2.0-0.65-0.589-3.589,0,0,1,68,false,stim,false,0,652.7000000476837,1,0,0,69221,task2,1592381,false,false,1971,image-keyboard-response,33
true,19,0,1,2,false,d,false,true,0.0-2.0-0.65-0.590-3.590,0,0,0,81,true,stim,true,0,468.7000000476837,1,0,1,69221,task2,1594373,false,true,1974,image-keyboard-response,1
true,19,1,1,2,false,d,false,true,0.0-2.0-0.65-0.591-3.591,0,0,0,90,false,stim,true,1,529.1000001430511,1,0,2,69221,task2,1596433,false,true,1977,image-keyboard-response,2
