answered,blockNum,choice,condition,corResp,correct,correct_response,explo,fb,internal_node_id,isStable_1,isStable_2,isStable_3,key_press,newBlock,part,persev,persevResp,rt,sessNum,stableAS,stimulus,subject,task,time_elapsed,training,trap,trial_index,trial_type,trialsInBlock
true,1,1,0,0,false,q,true,false,0.0-2.0-0.0-0.0-3.0,0,0,0,90,true,stim,false,-1,1478.699999988079,0,0,1,69221,task3,305895,false,false,186,image-keyboard-response,1
true,1,0,0,1,false,z,true,false,0.0-2.0-0.0-0.1-3.1,0,0,0,81,false,stim,false,-1,631.0,0,0,0,69221,task3,308059,false,false,189,image-keyboard-response,2
true,1,2,0,1,false,z,true,false,0.0-2.0-0.0-0.2-3.2,0,0,0,68,false,stim,false,-1,1566.7999999970198,0,0,0,69221,task3,311151,false,false,192,image-keyboard-response,3
true,1,0,0,1,false,z,true,false,0.0-2.0-0.0-0.3-3.3,0,0,0,81,false,stim,false,-1,1645.5999999940395,0,0,2,69221,task3,314308,false,false,195,image-keyboard-response,4
true,1,1,0,1,true,z,false,true,0.0-2.0-0.0-0.4-3.4,0,0,0,90,false,stim,false,-1,895.5999999940395,0,0,2,69221,task3,316726,false,false,198,image-keyboard-response,5
true,1,1,0,0,false,q,true,false,0.0-2.0-0.0-0.5-3.5,0,0,0,90,false,stim,false,-1,975.4000000059605,0,0,1,69221,task3,319213,false,false,201,image-keyboard-response,6
true,1,1,0,1,true,z,false,true,0.0-2.0-0.0-0.6-3.6,0,0,0,90,false,stim,false,-1,765.9000000059605,0,0,2,69221,task3,321511,false,false,204,image-keyboard-response,7
true,1,0,0,1,false,z,true,false,0.0-2.0-0.0-0.7-3.7,0,0,0,81,false,stim,false,-1,1261.7000000029802,0,0,0,69221,task3,324296,false,false,207,image-keyboard-response,8
true,1,1,0,0,false,q,true,false,0.0-2.0-0.0-0.8-3.8,0,0,0,90,false,stim,false,-1,754.2000000029802,0,0,1,69221,task3,326580,false,false,210,image-keyboard-response,9
true,1,2,0,1,false,z,true,false,0.0-2.0-0.1-0.9-3.9,0,0,0,68,false,stim,false,-1,933.2999999970198,0,0,0,69221,task3,329034,false,false,213,image-keyboard-response,10
true,1,0,0,1,false,z,true,false,0.0-2.0-0.1-0.10-3.10,0,0,0,81,false,stim,false,-1,1972.9000000059605,0,0,2,69221,task3,332524,false,false,216,image-keyboard-response,11
true,1,1,0,1,true,z,false,true,0.0-2.0-0.1-0.11-3.11,0,0,0,90,false,stim,false,-1,1375.5,0,0,2,69221,task3,335420,false,false,219,image-keyboard-response,12
true,1,1,0,1,true,z,false,true,0.0-2.0-0.1-0.12-3.12,0,0,0,90,false,stim,false,-1,1988.699999988079,0,0,0,69221,task3,338919,false,false,222,image-keyboard-response,13
true,1,1,0,1,true,z,false,true,0.0-2.0-0.1-0.13-3.13,0,0,0,90,false,stim,false,-1,1188.4000000059605,0,0,2,69221,task3,341619,false,false,225,image-keyboard-response,14
true,1,0,0,0,true,q,false,true,0.0-2.0-0.1-0.14-3.14,0,0,0,81,false,stim,false,-1,1113.2999999970198,0,0,1,69221,task3,344259,false,false,228,image-keyboard-response,15
true,1,1,0,1,true,z,false,true,0.0-2.0-0.1-0.15-3.15,0,0,0,90,false,stim,false,-1,1400.2999999970198,0,0,0,69221,task3,347179,false,false,231,image-keyboard-response,16
true,1,0,0,0,true,q,false,true,0.0-2.0-0.1-0.16-3.16,0,0,0,81,false,stim,false,-1,1311.3999999910593,0,0,1,69221,task3,350004,false,false,234,image-keyboard-response,17
true,1,0,0,0,true,q,false,true,0.0-2.0-0.1-0.17-3.17,0,0,0,81,false,stim,false,-1,1410.5,0,0,1,69221,task3,352939,false,false,237,image-keyboard-response,18
true,1,1,0,1,true,z,false,false,0.0-2.0-0.2-0.18-3.18,0,0,0,90,false,stim,false,-1,833.9000000059605,0,0,0,69221,task3,355282,false,true,240,image-keyboard-response,19
true,1,0,0,0,true,q,false,true,0.0-2.0-0.2-0.19-3.19,0,0,0,81,false,stim,false,-1,2803.4000000059605,0,0,1,69221,task3,359595,false,false,243,image-keyboard-response,20
true,1,0,0,0,true,q,false,true,0.0-2.0-0.2-0.20-3.20,0,0,0,81,false,stim,false,-1,870.7999999970198,0,0,1,69221,task3,361981,false,false,246,image-keyboard-response,21
true,1,1,0,1,true,z,false,true,0.0-2.0-0.2-0.21-3.21,0,0,0,90,false,stim,false,-1,1117.5999999940395,0,0,2,69221,task3,364627,false,false,249,image-keyboard-response,22
true,1,1,0,1,true,z,false,true,0.0-2.0-0.2-0.22-3.22,0,0,0,90,false,stim,false,-1,1474.5,0,0,2,69221,task3,367618,false,false,252,image-keyboard-response,23
true,1,1,0,1,true,z,false,true,0.0-2.0-0.2-0.23-3.23,0,0,0,90,false,stim,false,-1,1560.6000000089407,0,1,2,69221,task3,370707,false,false,255,image-keyboard-response,24
true,1,0,0,0,true,q,false,true,0.0-2.0-0.2-0.24-3.24,0,0,0,81,false,stim,false,-1,2169.3999999910593,0,1,1,69221,task3,374392,false,false,258,image-keyboard-response,25
true,1,1,0,1,true,z,false,true,0.0-2.0-0.2-0.25-3.25,0,0,0,90,false,stim,false,-1,964.0,0,0,0,69221,task3,376874,false,false,261,image-keyboard-response,26
true,1,1,0,1,true,z,false,true,0.0-2.0-0.2-0.26-3.26,0,0,0,90,false,stim,false,-1,1065.0,0,0,0,69221,task3,379458,false,false,264,image-keyboard-response,27
true,1,0,0,0,true,q,false,false,0.0-2.0-0.3-0.27-3.27,0,0,0,81,false,stim,false,-1,2273.0,0,1,1,69221,task3,383247,false,true,267,image-keyboard-response,28
true,2,1,2,2,false,d,false,false,0.0-2.0-0.3-0.28-3.28,0,1,1,90,true,stim,true,1,898.8999999910593,0,0,0,69221,task3,385672,false,false,270,image-keyboard-response,1
true,2,1,2,1,true,z,false,true,0.0-2.0-0.3-0.29-3.29,0,1,1,90,false,stim,false,1,2810.5,0,1,2,69221,task3,390001,false,false,273,image-keyboard-response,2
true,2,0,2,2,false,d,true,false,0.0-2.0-0.3-0.30-3.30,0,1,1,81,false,stim,false,1,1553.0999999940395,0,0,0,69221,task3,393064,false,false,276,image-keyboard-response,3
true,2,0,2,0,true,q,false,true,0.0-2.0-0.3-0.31-3.31,0,1,1,81,false,stim,false,0,1526.800000011921,0,1,1,69221,task3,396107,false,false,279,image-keyboard-response,4
true,2,1,2,2,false,d,false,false,0.0-2.0-0.3-0.32-3.32,0,1,1,90,false,stim,true,1,1029.1000000089407,0,0,0,69221,task3,398665,false,false,282,image-keyboard-response,5
true,2,0,2,0,true,q,false,true,0.0-2.0-0.3-0.33-3.33,0,1,1,81,false,stim,false,0,1596.7000000029802,0,1,1,69221,task3,401784,false,false,285,image-keyboard-response,6
true,2,1,2,1,true,z,false,false,0.0-2.0-0.3-0.34-3.34,0,1,1,90,false,stim,false,1,673.1000000089407,0,1,2,69221,task3,403979,false,true,288,image-keyboard-response,7
true,2,1,2,1,true,z,false,true,0.0-2.0-0.3-0.35-3.35,0,1,1,90,false,stim,false,1,1198.1000000089407,0,1,2,69221,task3,406692,false,false,291,image-keyboard-response,8
true,2,0,2,2,false,d,true,false,0.0-2.0-0.4-0.36-3.36,0,1,1,81,false,stim,false,1,764.2999999970198,0,1,0,69221,task3,408974,false,false,294,image-keyboard-response,9
true,2,1,2,1,true,z,false,true,0.0-2.0-0.4-0.37-3.37,0,1,1,90,false,stim,false,1,1103.7000000029802,0,1,2,69221,task3,411596,false,false,297,image-keyboard-response,10
true,2,0,2,0,true,q,false,true,0.0-2.0-0.4-0.38-3.38,0,1,1,81,false,stim,false,0,1143.5999999940395,0,0,1,69221,task3,414266,false,false,300,image-keyboard-response,11
true,2,1,2,2,false,d,false,false,0.0-2.0-0.4-0.39-3.39,0,1,1,90,false,stim,true,1,1453.0,0,1,0,69221,task3,417242,false,false,303,image-keyboard-response,12
true,3,1,2,1,true,z,false,true,0.0-2.0-0.4-0.40-3.40,1,0,1,90,true,stim,false,1,1625.2000000029802,0,1,2,69221,task3,420382,false,false,306,image-keyboard-response,1
true,3,0,2,2,false,d,false,false,0.0-2.0-0.4-0.41-3.41,1,0,1,81,false,stim,true,0,2181.4000000059605,0,0,1,69221,task3,424074,false,false,309,image-keyboard-response,2
true,3,0,2,2,false,d,false,false,0.0-2.0-0.4-0.42-3.42,1,0,1,81,false,stim,true,0,967.2000000029802,0,0,1,69221,task3,426568,false,false,312,image-keyboard-response,3
true,3,1,2,1,true,z,false,true,0.0-2.0-0.4-0.43-3.43,1,0,1,90,false,stim,false,1,945.7999999970198,0,1,2,69221,task3,429031,false,false,315,image-keyboard-response,4
true,3,1,2,2,false,d,true,true,0.0-2.0-0.4-0.44-3.44,1,0,1,90,false,stim,false,2,1369.0,0,1,0,69221,task3,431919,false,true,318,image-keyboard-response,5
true,3,0,2,2,false,d,false,false,0.0-2.0-0.5-0.45-3.45,1,0,1,81,false,stim,true,0,1030.7000000029802,0,0,1,69221,task3,434466,false,false,321,image-keyboard-response,6
true,3,1,2,2,false,d,true,false,0.0-2.0-0.5-0.46-3.46,1,0,1,90,false,stim,false,0,974.8000000119209,0,0,1,69221,task3,436961,false,false,324,image-keyboard-response,7
true,3,1,2,2,false,d,true,false,0.0-2.0-0.5-0.47-3.47,1,0,1,90,false,stim,false,2,652.0,0,1,0,69221,task3,439131,false,false,327,image-keyboard-response,8
true,3,1,2,1,true,z,false,true,0.0-2.0-0.5-0.48-3.48,1,0,1,90,false,stim,false,1,1286.0,0,1,2,69221,task3,441934,false,false,330,image-keyboard-response,9
true,3,1,2,1,true,z,false,true,0.0-2.0-0.5-0.49-3.49,1,0,1,90,false,stim,false,1,1096.8999999910593,0,0,2,69221,task3,444546,false,false,333,image-keyboard-response,10
true,3,1,2,1,true,z,false,true,0.0-2.0-0.5-0.50-3.50,1,0,1,90,false,stim,false,1,1141.1000000089407,0,0,2,69221,task3,447204,false,false,336,image-keyboard-response,11
true,3,2,2,2,true,d,false,true,0.0-2.0-0.5-0.51-3.51,1,0,1,68,false,stim,false,0,1004.7000000029802,0,1,1,69221,task3,449737,false,false,339,image-keyboard-response,12
true,3,1,2,2,false,d,true,false,0.0-2.0-0.5-0.52-3.52,1,0,1,90,false,stim,false,2,2718.2999999970198,0,0,0,69221,task3,453981,false,false,342,image-keyboard-response,13
true,3,1,2,2,false,d,true,false,0.0-2.0-0.5-0.53-3.53,1,0,1,90,false,stim,false,2,1431.4000000059605,0,0,0,69221,task3,456944,false,false,345,image-keyboard-response,14
true,4,0,1,0,true,q,false,false,0.0-2.0-0.6-0.54-3.54,0,1,0,81,true,stim,false,2,480.79999999701977,0,0,0,69221,task3,458944,false,true,348,image-keyboard-response,1
true,4,1,1,2,false,d,true,false,0.0-2.0-0.6-0.55-3.55,0,1,0,90,false,stim,false,2,2269.2999999970198,0,1,1,69221,task3,462733,false,false,351,image-keyboard-response,2
true,4,2,1,2,true,d,false,true,0.0-2.0-0.6-0.56-3.56,0,1,0,68,false,stim,false,1,979.2999999970198,0,0,2,69221,task3,465230,false,false,354,image-keyboard-response,3
true,4,1,1,2,false,d,false,false,0.0-2.0-0.6-0.57-3.57,0,1,0,90,false,stim,true,1,2035.2999999970198,0,0,2,69221,task3,468780,false,false,357,image-keyboard-response,4
true,4,2,1,2,true,d,false,true,0.0-2.0-0.6-0.58-3.58,0,1,0,68,false,stim,false,2,893.2999999970198,0,1,1,69221,task3,471192,false,false,360,image-keyboard-response,5
true,4,0,1,0,true,q,false,false,0.0-2.0-0.6-0.59-3.59,0,1,0,81,false,stim,false,2,650.2000000029802,0,0,0,69221,task3,473363,false,true,363,image-keyboard-response,6
true,4,2,1,2,true,d,false,true,0.0-2.0-0.6-0.60-3.60,0,1,0,68,false,stim,false,2,937.4000000059605,0,1,1,69221,task3,475835,false,false,366,image-keyboard-response,7
true,4,1,1,0,false,q,true,false,0.0-2.0-0.6-0.61-3.61,0,1,0,90,false,stim,false,2,545.9000000059605,0,0,0,69221,task3,477899,false,false,369,image-keyboard-response,8
true,4,2,1,2,true,d,false,true,0.0-2.0-0.6-0.62-3.62,0,1,0,68,false,stim,false,1,577.7999999970198,0,0,2,69221,task3,479990,false,false,372,image-keyboard-response,9
true,4,2,1,2,true,d,false,true,0.0-2.0-0.7-0.63-3.63,0,1,0,68,false,stim,false,2,1534.5,0,1,1,69221,task3,483031,false,false,375,image-keyboard-response,10
true,4,2,1,0,false,q,false,false,0.0-2.0-0.7-0.64-3.64,0,1,0,68,false,stim,true,2,496.0,0,0,0,69221,task3,485044,false,false,378,image-keyboard-response,11
true,4,2,1,2,true,d,false,true,0.0-2.0-0.7-0.65-3.65,0,1,0,68,false,stim,false,1,1022.7999999970198,0,0,2,69221,task3,487586,false,false,381,image-keyboard-response,12
true,4,1,1,2,false,d,false,false,0.0-2.0-0.7-0.66-3.66,0,1,0,90,false,stim,true,1,1287.7000000029802,0,0,2,69221,task3,490386,false,false,384,image-keyboard-response,13
true,4,1,1,0,false,q,true,true,0.0-2.0-0.7-0.67-3.67,0,1,0,90,false,stim,false,2,2397.7000000029802,0,0,0,69221,task3,494311,false,true,387,image-keyboard-response,14
true,4,2,1,2,true,d,false,true,0.0-2.0-0.7-0.68-3.68,0,1,0,68,false,stim,false,2,1019.5,0,1,1,69221,task3,496851,false,false,390,image-keyboard-response,15
true,4,1,1,2,false,d,false,false,0.0-2.0-0.7-0.69-3.69,0,1,0,90,false,stim,true,1,947.8999999910593,0,0,2,69221,task3,499310,false,false,393,image-keyboard-response,16
true,4,2,1,2,true,d,false,true,0.0-2.0-0.7-0.70-3.70,0,1,0,68,false,stim,false,2,540.7999999970198,0,1,1,69221,task3,501374,false,false,396,image-keyboard-response,17
true,4,1,1,0,false,q,true,false,0.0-2.0-0.7-0.71-3.71,0,1,0,90,false,stim,false,2,935.1000000089407,0,0,0,69221,task3,503831,false,false,399,image-keyboard-response,18
true,4,2,1,2,true,d,false,true,0.0-2.0-0.8-0.72-3.72,0,1,0,68,false,stim,false,1,671.1000000089407,0,0,2,69221,task3,506032,false,false,402,image-keyboard-response,19
true,4,1,1,2,false,d,true,false,0.0-2.0-0.8-0.73-3.73,0,1,0,90,false,stim,false,2,1649.2999999970198,0,1,1,69221,task3,509202,false,false,405,image-keyboard-response,20
true,4,2,1,2,true,d,false,true,0.0-2.0-0.8-0.74-3.74,0,1,0,68,false,stim,false,1,831.9000000059605,0,0,2,69221,task3,511560,false,false,408,image-keyboard-response,21
true,4,0,1,2,false,d,true,false,0.0-2.0-0.8-0.75-3.75,0,1,0,81,false,stim,false,2,850.1999999880791,0,1,1,69221,task3,513927,false,false,411,image-keyboard-response,22
true,4,2,1,2,true,d,false,true,0.0-2.0-0.8-0.76-3.76,0,1,0,68,false,stim,false,1,1091.8999999910593,0,0,2,69221,task3,516536,false,false,414,image-keyboard-response,23
true,5,1,2,0,false,q,true,true,0.0-2.0-0.8-0.77-3.77,1,1,0,90,true,stim,false,0,754.6999999880791,0,1,0,69221,task3,518813,false,true,417,image-keyboard-response,1
true,5,1,2,0,false,q,true,false,0.0-2.0-0.8-0.78-3.78,1,1,0,90,false,stim,false,0,1204.2999999970198,0,1,0,69221,task3,521531,false,false,420,image-keyboard-response,2
true,5,2,2,0,false,q,true,true,0.0-2.0-0.8-0.79-3.79,1,1,0,68,false,stim,false,0,1084.0,0,1,0,69221,task3,524129,false,true,423,image-keyboard-response,3
true,5,2,2,2,true,d,false,true,0.0-2.0-0.8-0.80-3.80,1,1,0,68,false,stim,false,2,1264.2999999970198,0,1,1,69221,task3,526923,false,false,426,image-keyboard-response,4
true,5,2,2,2,true,d,false,true,0.0-2.0-0.9-0.81-3.81,1,1,0,68,false,stim,false,2,1015.8000000119209,0,1,1,69221,task3,529462,false,false,429,image-keyboard-response,5
true,5,1,2,0,false,q,true,false,0.0-2.0-0.9-0.82-3.82,1,1,0,90,false,stim,false,2,1084.7999999970198,0,0,2,69221,task3,532064,false,false,432,image-keyboard-response,6
true,5,0,2,0,true,q,false,true,0.0-2.0-0.9-0.83-3.83,1,1,0,81,false,stim,false,0,1781.6000000089407,0,1,0,69221,task3,535374,false,false,435,image-keyboard-response,7
true,5,2,2,2,true,d,false,true,0.0-2.0-0.9-0.84-3.84,1,1,0,68,false,stim,false,2,1967.7000000029802,0,1,1,69221,task3,538860,false,false,438,image-keyboard-response,8
true,5,2,2,0,false,q,true,false,0.0-2.0-0.9-0.85-3.85,1,1,0,68,false,stim,false,0,1566.5,0,1,0,69221,task3,541948,false,false,441,image-keyboard-response,9
true,5,2,2,0,false,q,false,false,0.0-2.0-0.9-0.86-3.86,1,1,0,68,false,stim,true,2,1242.7000000029802,0,1,2,69221,task3,544720,false,false,444,image-keyboard-response,10
true,5,1,2,0,false,q,true,true,0.0-2.0-0.9-0.87-3.87,1,1,0,90,false,stim,false,0,1019.3999999910593,0,1,0,69221,task3,547260,false,true,447,image-keyboard-response,11
true,5,2,2,2,true,d,false,true,0.0-2.0-0.9-0.88-3.88,1,1,0,68,false,stim,false,2,874.4000000059605,0,0,1,69221,task3,549671,false,false,450,image-keyboard-response,12
true,5,2,2,0,false,q,false,false,0.0-2.0-0.9-0.89-3.89,1,1,0,68,false,stim,true,2,1649.4000000059605,0,1,2,69221,task3,552842,false,false,453,image-keyboard-response,13
true,5,2,2,2,true,d,false,true,0.0-2.0-0.10-0.90-3.90,1,1,0,68,false,stim,false,2,1469.4000000059605,0,0,1,69221,task3,555827,false,false,456,image-keyboard-response,14
true,6,0,2,0,true,q,false,true,0.0-2.0-0.10-0.91-3.91,1,0,1,81,true,stim,false,0,1139.5,0,1,2,69221,task3,558499,false,false,459,image-keyboard-response,1
true,6,1,2,0,false,q,true,false,0.0-2.0-0.10-0.92-3.92,1,0,1,90,false,stim,false,0,1373.5999999940395,0,1,0,69221,task3,561398,false,false,462,image-keyboard-response,2
true,6,2,2,0,false,q,true,false,0.0-2.0-0.10-0.93-3.93,1,0,1,68,false,stim,false,0,775.5,0,1,2,69221,task3,563701,false,false,465,image-keyboard-response,3
true,6,1,2,0,false,q,true,false,0.0-2.0-0.10-0.94-3.94,1,0,1,90,false,stim,false,0,1034.5,0,1,0,69221,task3,566245,false,false,468,image-keyboard-response,4
true,6,0,2,1,false,z,true,false,0.0-2.0-0.10-0.95-3.95,1,0,1,81,false,stim,false,2,1031.800000011921,0,0,1,69221,task3,568806,false,false,471,image-keyboard-response,5
true,6,1,2,1,true,z,false,true,0.0-2.0-0.10-0.96-3.96,1,0,1,90,false,stim,false,2,1148.9000000059605,0,0,1,69221,task3,571473,false,false,474,image-keyboard-response,6
true,6,2,2,0,false,q,true,false,0.0-2.0-0.10-0.97-3.97,1,0,1,68,false,stim,false,0,2326.4000000059605,0,1,0,69221,task3,575323,false,false,477,image-keyboard-response,7
true,6,1,2,0,false,q,true,true,0.0-2.0-0.10-0.98-3.98,1,0,1,90,false,stim,false,0,1057.7000000029802,0,1,2,69221,task3,577900,false,true,480,image-keyboard-response,8
true,6,0,2,1,false,z,true,true,0.0-2.0-0.11-0.99-3.99,1,0,1,81,false,stim,false,2,1792.9000000059605,0,0,1,69221,task3,581219,false,true,483,image-keyboard-response,9
true,6,1,2,0,false,q,true,false,0.0-2.0-0.11-0.100-3.100,1,0,1,90,false,stim,false,0,1226.300000011921,0,1,2,69221,task3,583955,false,false,486,image-keyboard-response,10
true,6,2,2,0,false,q,true,false,0.0-2.0-0.11-0.101-3.101,1,0,1,68,false,stim,false,0,925.2000000029802,0,1,0,69221,task3,586387,false,false,489,image-keyboard-response,11
true,6,1,2,0,false,q,true,false,0.0-2.0-0.11-0.102-3.102,1,0,1,90,false,stim,false,0,866.7000000029802,0,1,0,69221,task3,588772,false,false,492,image-keyboard-response,12
true,6,0,2,0,true,q,false,true,0.0-2.0-0.11-0.103-3.103,1,0,1,81,false,stim,false,0,508.5,0,1,0,69221,task3,590800,false,false,495,image-keyboard-response,13
true,6,0,2,0,true,q,false,true,0.0-2.0-0.11-0.104-3.104,1,0,1,81,false,stim,false,0,1091.0,0,1,2,69221,task3,593414,false,false,498,image-keyboard-response,14
true,6,0,2,1,false,z,true,false,0.0-2.0-0.11-0.105-3.105,1,0,1,81,false,stim,false,2,2320.9000000059605,0,0,1,69221,task3,597265,false,false,501,image-keyboard-response,15
true,6,1,2,0,false,q,true,false,0.0-2.0-0.11-0.106-3.106,1,0,1,90,false,stim,false,0,919.8999999910593,0,1,2,69221,task3,599713,false,false,504,image-keyboard-response,16
true,6,2,2,1,false,z,false,false,0.0-2.0-0.11-0.107-3.107,1,0,1,68,false,stim,true,2,1100.2000000029802,0,0,1,69221,task3,602329,false,false,507,image-keyboard-response,17
true,6,1,2,0,false,q,true,false,0.0-2.0-0.12-0.108-3.108,1,0,1,90,false,stim,false,0,1453.2999999970198,0,1,2,69221,task3,605310,false,false,510,image-keyboard-response,18
true,6,0,2,1,false,z,true,true,0.0-2.0-0.12-0.109-3.109,1,0,1,81,false,stim,false,2,1147.0999999940395,0,0,1,69221,task3,607973,false,true,513,image-keyboard-response,19
true,6,0,2,0,true,q,false,true,0.0-2.0-0.12-0.110-3.110,1,0,1,81,false,stim,false,0,1262.5,0,0,0,69221,task3,610751,false,false,516,image-keyboard-response,20
true,6,0,2,1,false,z,true,false,0.0-2.0-0.12-0.111-3.111,1,0,1,81,false,stim,false,2,824.6000000089407,0,0,1,69221,task3,613100,false,false,519,image-keyboard-response,21
true,6,0,2,0,true,q,false,true,0.0-2.0-0.12-0.112-3.112,1,0,1,81,false,stim,false,0,1293.0,0,0,0,69221,task3,615916,false,false,522,image-keyboard-response,22
true,6,2,2,0,false,q,true,true,0.0-2.0-0.12-0.113-3.113,1,0,1,68,false,stim,false,0,1271.4000000059605,0,1,2,69221,task3,618710,false,true,525,image-keyboard-response,23
true,6,1,2,0,false,q,true,false,0.0-2.0-0.12-0.114-3.114,1,0,1,90,false,stim,false,0,987.3999999910593,0,1,2,69221,task3,621214,false,false,528,image-keyboard-response,24
true,7,0,1,1,false,z,false,false,0.0-2.0-0.12-0.115-3.115,0,0,1,81,true,stim,true,0,762.5,0,0,0,69221,task3,623502,false,false,531,image-keyboard-response,1
true,7,0,1,0,true,q,false,true,0.0-2.0-0.12-0.116-3.116,0,0,1,81,false,stim,false,1,1188.7000000029802,0,0,1,69221,task3,626216,false,false,534,image-keyboard-response,2
true,7,0,1,0,true,q,false,true,0.0-2.0-0.13-0.117-3.117,0,0,1,81,false,stim,false,1,745.5999999940395,0,0,1,69221,task3,628485,false,false,537,image-keyboard-response,3
true,7,1,1,1,true,z,false,true,0.0-2.0-0.13-0.118-3.118,0,0,1,90,false,stim,false,0,963.1000000089407,0,0,0,69221,task3,630986,false,false,540,image-keyboard-response,4
true,7,2,1,0,false,q,true,true,0.0-2.0-0.13-0.119-3.119,0,0,1,68,false,stim,false,0,462.3999999910593,0,1,2,69221,task3,632985,false,true,543,image-keyboard-response,5
true,7,0,1,0,true,q,false,true,0.0-2.0-0.13-0.120-3.120,0,0,1,81,false,stim,false,1,1178.5999999940395,0,0,1,69221,task3,635673,false,false,546,image-keyboard-response,6
true,7,1,1,1,true,z,false,true,0.0-2.0-0.13-0.121-3.121,0,0,1,90,false,stim,false,0,1216.1000000089407,0,0,0,69221,task3,638407,false,false,549,image-keyboard-response,7
true,7,2,1,0,false,q,true,true,0.0-2.0-0.13-0.122-3.122,0,0,1,68,false,stim,false,0,612.7999999970198,0,1,2,69221,task3,640532,false,true,552,image-keyboard-response,8
true,7,1,1,1,true,z,false,true,0.0-2.0-0.13-0.123-3.123,0,0,1,90,false,stim,false,0,815.7999999970198,0,0,0,69221,task3,642871,false,false,555,image-keyboard-response,9
true,7,2,1,0,false,q,true,false,0.0-2.0-0.13-0.124-3.124,0,0,1,68,false,stim,false,0,1272.3999999910593,0,1,2,69221,task3,645679,false,false,558,image-keyboard-response,10
true,7,0,1,0,true,q,false,true,0.0-2.0-0.13-0.125-3.125,0,0,1,81,false,stim,false,1,1188.8999999910593,0,0,1,69221,task3,648397,false,false,561,image-keyboard-response,11
true,7,0,1,0,true,q,false,false,0.0-2.0-0.14-0.126-3.126,0,0,1,81,false,stim,false,1,1534.0999999940395,0,0,1,69221,task3,651456,false,true,564,image-keyboard-response,12
true,7,1,1,0,false,q,false,false,0.0-2.0-0.14-0.127-3.127,0,0,1,90,false,stim,true,1,1262.1000000089407,0,0,1,69221,task3,654251,false,false,567,image-keyboard-response,13
true,7,1,1,0,false,q,true,true,0.0-2.0-0.14-0.128-3.128,0,0,1,90,false,stim,false,0,1711.1000000089407,0,1,2,69221,task3,657484,false,true,570,image-keyboard-response,14
true,7,0,1,1,false,z,false,false,0.0-2.0-0.14-0.129-3.129,0,0,1,81,false,stim,true,0,929.2999999970198,0,0,0,69221,task3,659941,false,false,573,image-keyboard-response,15
true,7,1,1,0,false,q,false,false,0.0-2.0-0.14-0.130-3.130,0,0,1,90,false,stim,true,1,1676.800000011921,0,0,1,69221,task3,663144,false,false,576,image-keyboard-response,16
true,7,1,1,1,true,z,false,true,0.0-2.0-0.14-0.131-3.131,0,0,1,90,false,stim,false,0,2150.2000000029802,0,0,0,69221,task3,666822,false,false,579,image-keyboard-response,17
true,7,2,1,0,false,q,true,true,0.0-2.0-0.14-0.132-3.132,0,0,1,68,false,stim,false,0,1496.699999988079,0,1,2,69221,task3,669840,false,true,582,image-keyboard-response,18
true,7,1,1,1,true,z,false,true,0.0-2.0-0.14-0.133-3.133,0,0,1,90,false,stim,false,0,936.5,0,0,0,69221,task3,672306,false,false,585,image-keyboard-response,19
true,7,2,1,0,false,q,true,true,0.0-2.0-0.14-0.134-3.134,0,0,1,68,false,stim,false,0,648.5999999940395,0,1,2,69221,task3,674472,false,true,588,image-keyboard-response,20
true,7,2,1,0,false,q,true,false,0.0-2.0-0.15-0.135-3.135,0,0,1,68,false,stim,false,0,844.9000000059605,0,1,2,69221,task3,676830,false,false,591,image-keyboard-response,21
true,7,1,1,1,true,z,false,true,0.0-2.0-0.15-0.136-3.136,0,0,1,90,false,stim,false,0,1010.5,0,0,0,69221,task3,679366,false,false,594,image-keyboard-response,22
true,7,2,1,0,false,q,true,false,0.0-2.0-0.15-0.137-3.137,0,0,1,68,false,stim,false,0,726.6999999880791,0,1,2,69221,task3,681616,false,false,597,image-keyboard-response,23
true,8,0,1,1,false,z,false,false,0.0-2.0-0.15-0.138-3.138,0,0,1,81,true,stim,true,0,1269.8999999910593,0,0,1,69221,task3,684403,false,false,600,image-keyboard-response,1
true,8,1,1,1,true,z,false,true,0.0-2.0-0.15-0.139-3.139,0,0,1,90,false,stim,false,0,1000.3000000119209,0,0,1,69221,task3,686941,false,false,603,image-keyboard-response,2
true,8,2,1,2,true,d,false,true,0.0-2.0-0.15-0.140-3.140,0,0,1,68,false,stim,false,1,967.1000000089407,0,0,0,69221,task3,689425,false,false,606,image-keyboard-response,3
true,8,2,1,0,false,q,true,false,0.0-2.0-0.15-0.141-3.141,0,0,1,68,false,stim,false,0,866.4000000059605,0,1,2,69221,task3,691820,false,false,609,image-keyboard-response,4
true,8,1,1,1,true,z,false,true,0.0-2.0-0.15-0.142-3.142,0,0,1,90,false,stim,false,0,853.0,0,0,1,69221,task3,694207,false,false,612,image-keyboard-response,5
true,8,1,1,2,false,d,false,false,0.0-2.0-0.15-0.143-3.143,0,0,1,90,false,stim,true,1,1295.5,0,1,0,69221,task3,697017,false,false,615,image-keyboard-response,6
true,8,0,1,2,false,d,true,false,0.0-2.0-0.16-0.144-3.144,0,0,1,81,false,stim,false,1,651.2999999970198,0,1,0,69221,task3,699177,false,false,618,image-keyboard-response,7
true,8,2,1,0,false,q,true,false,0.0-2.0-0.16-0.145-3.145,0,0,1,68,false,stim,false,0,769.9000000059605,0,0,2,69221,task3,701474,false,false,621,image-keyboard-response,8
true,8,1,1,1,true,z,false,true,0.0-2.0-0.16-0.146-3.146,0,0,1,90,false,stim,false,0,1334.7000000029802,0,1,1,69221,task3,704323,false,false,624,image-keyboard-response,9
true,8,0,1,1,false,z,false,false,0.0-2.0-0.16-0.147-3.147,0,0,1,81,false,stim,true,0,1704.9000000059605,0,1,1,69221,task3,707543,false,false,627,image-keyboard-response,10
true,9,1,2,2,false,d,true,true,0.0-2.0-0.16-0.148-3.148,1,1,0,90,true,stim,false,2,1386.5,0,1,0,69221,task3,710443,false,true,630,image-keyboard-response,1
true,9,2,2,1,false,z,true,true,0.0-2.0-0.16-0.149-3.149,1,1,0,68,false,stim,false,0,1020.5999999940395,0,0,2,69221,task3,712990,false,true,633,image-keyboard-response,2
true,9,2,2,1,false,z,true,false,0.0-2.0-0.16-0.150-3.150,1,1,0,68,false,stim,false,0,1127.9000000059605,0,0,2,69221,task3,715644,false,false,636,image-keyboard-response,3
true,9,0,2,1,false,z,true,false,0.0-2.0-0.16-0.151-3.151,1,1,0,81,false,stim,false,1,944.2000000029802,0,1,1,69221,task3,718110,false,false,639,image-keyboard-response,4
true,9,1,2,2,false,d,true,true,0.0-2.0-0.16-0.152-3.152,1,1,0,90,false,stim,false,2,1115.0,0,1,0,69221,task3,720756,false,true,642,image-keyboard-response,5
true,9,0,2,1,false,z,true,false,0.0-2.0-0.17-0.153-3.153,1,1,0,81,false,stim,false,1,1469.2999999970198,0,1,1,69221,task3,723755,false,false,645,image-keyboard-response,6
true,9,2,2,1,false,z,true,false,0.0-2.0-0.17-0.154-3.154,1,1,0,68,false,stim,false,0,761.6999999880791,0,0,2,69221,task3,726049,false,false,648,image-keyboard-response,7
true,9,1,2,1,true,z,false,true,0.0-2.0-0.17-0.155-3.155,1,1,0,90,false,stim,false,0,951.4000000059605,0,0,2,69221,task3,728525,false,false,651,image-keyboard-response,8
true,9,1,2,1,true,z,false,true,0.0-2.0-0.17-0.156-3.156,1,1,0,90,false,stim,false,1,1189.699999988079,0,1,1,69221,task3,731232,false,false,654,image-keyboard-response,9
true,9,0,2,2,false,d,true,false,0.0-2.0-0.17-0.157-3.157,1,1,0,81,false,stim,false,2,1220.2000000029802,0,1,0,69221,task3,733971,false,false,657,image-keyboard-response,10
true,9,2,2,1,false,z,true,false,0.0-2.0-0.17-0.158-3.158,1,1,0,68,false,stim,false,0,1149.2000000029802,0,0,2,69221,task3,736649,false,false,660,image-keyboard-response,11
true,9,1,2,2,false,d,true,false,0.0-2.0-0.17-0.159-3.159,1,1,0,90,false,stim,false,2,449.5,0,1,0,69221,task3,738634,false,false,663,image-keyboard-response,12
true,9,0,2,2,false,d,true,false,0.0-2.0-0.17-0.160-3.160,1,1,0,81,false,stim,false,2,660.8999999910593,0,1,0,69221,task3,740809,false,false,666,image-keyboard-response,13
true,9,1,2,1,true,z,false,true,0.0-2.0-0.17-0.161-3.161,1,1,0,90,false,stim,false,1,492.6000000089407,0,1,1,69221,task3,742827,false,false,669,image-keyboard-response,14
true,9,2,2,2,true,d,false,true,0.0-2.0-0.18-0.162-3.162,1,1,0,68,false,stim,false,2,1003.2999999970198,0,1,0,69221,task3,745352,false,false,672,image-keyboard-response,15
true,9,2,2,2,true,d,false,true,0.0-2.0-0.18-0.163-3.163,1,1,0,68,false,stim,false,2,877.7999999970198,0,1,0,69221,task3,747760,false,false,675,image-keyboard-response,16
true,9,1,2,1,true,z,false,true,0.0-2.0-0.18-0.164-3.164,1,1,0,90,false,stim,false,1,639.5,0,1,1,69221,task3,749909,false,false,678,image-keyboard-response,17
true,9,1,2,1,true,z,false,true,0.0-2.0-0.18-0.165-3.165,1,1,0,90,false,stim,false,1,763.0,0,1,1,69221,task3,752195,false,false,681,image-keyboard-response,18
true,9,2,2,1,false,z,true,false,0.0-2.0-0.18-0.166-3.166,1,1,0,68,false,stim,false,0,784.2999999970198,0,0,2,69221,task3,754488,false,false,684,image-keyboard-response,19
true,9,1,2,1,true,z,false,true,0.0-2.0-0.18-0.167-3.167,1,1,0,90,false,stim,false,0,946.7000000029802,0,0,2,69221,task3,756963,false,false,687,image-keyboard-response,20
true,9,1,2,1,true,z,false,true,0.0-2.0-0.18-0.168-3.168,1,1,0,90,false,stim,false,0,1341.4000000059605,0,0,2,69221,task3,759827,false,false,690,image-keyboard-response,21
true,9,0,2,1,false,z,true,false,0.0-2.0-0.18-0.169-3.169,1,1,0,81,false,stim,false,1,1575.0,0,1,1,69221,task3,762923,false,false,693,image-keyboard-response,22
true,9,1,2,2,false,d,true,false,0.0-2.0-0.18-0.170-3.170,1,1,0,90,false,stim,false,2,1187.0,0,1,0,69221,task3,765639,false,false,696,image-keyboard-response,23
true,9,2,2,2,true,d,false,true,0.0-2.0-0.19-0.171-3.171,1,1,0,68,false,stim,false,2,902.9000000059605,0,1,0,69221,task3,768071,false,false,699,image-keyboard-response,24
true,9,2,2,1,false,z,true,false,0.0-2.0-0.19-0.172-3.172,1,1,0,68,false,stim,false,1,1110.5,0,1,1,69221,task3,770715,false,false,702,image-keyboard-response,25
true,9,2,2,1,false,z,true,false,0.0-2.0-0.19-0.173-3.173,1,1,0,68,false,stim,false,0,866.3000000119209,0,0,2,69221,task3,773102,false,false,705,image-keyboard-response,26
true,9,2,2,1,false,z,true,false,0.0-2.0-0.19-0.174-3.174,1,1,0,68,false,stim,false,1,462.59999999403954,0,1,1,69221,task3,775086,false,false,708,image-keyboard-response,27
true,9,1,2,1,true,z,false,true,0.0-2.0-0.19-0.175-3.175,1,1,0,90,false,stim,false,0,1194.7000000029802,0,0,2,69221,task3,777809,false,false,711,image-keyboard-response,28
true,9,1,2,1,true,z,false,true,0.0-2.0-0.19-0.176-3.176,1,1,0,90,false,stim,false,0,735.3000000119209,0,0,2,69221,task3,780068,false,false,714,image-keyboard-response,29
true,10,2,1,1,false,z,true,false,0.0-2.0-0.19-0.177-3.177,0,1,0,68,true,stim,false,1,850.6000000089407,0,1,1,69221,task3,782448,false,false,717,image-keyboard-response,1
true,10,1,1,1,true,z,false,true,0.0-2.0-0.19-0.178-3.178,0,1,0,90,false,stim,false,2,1077.0,0,0,0,69221,task3,785058,false,false,720,image-keyboard-response,2
true,10,1,1,1,true,z,false,true,0.0-2.0-0.19-0.179-3.179,0,1,0,90,false,stim,false,2,510.5,0,0,0,69221,task3,787079,false,false,723,image-keyboard-response,3
true,10,1,1,1,true,z,false,true,0.0-2.0-0.20-0.180-3.180,0,1,0,90,false,stim,false,2,1341.7000000029802,0,0,0,69221,task3,789943,false,false,726,image-keyboard-response,4
true,10,1,1,0,false,q,false,false,0.0-2.0-0.20-0.181-3.181,0,1,0,90,false,stim,true,1,2235.1000000089407,0,0,2,69221,task3,793709,false,false,729,image-keyboard-response,5
true,10,1,1,1,true,z,false,true,0.0-2.0-0.20-0.182-3.182,0,1,0,90,false,stim,false,1,1704.7999999970198,0,1,1,69221,task3,796931,false,false,732,image-keyboard-response,6
true,10,1,1,0,false,q,false,false,0.0-2.0-0.20-0.183-3.183,0,1,0,90,false,stim,true,1,1001.7000000029802,0,0,2,69221,task3,799449,false,false,735,image-keyboard-response,7
true,10,1,1,1,true,z,false,true,0.0-2.0-0.20-0.184-3.184,0,1,0,90,false,stim,false,2,1329.0,0,0,0,69221,task3,802287,false,false,738,image-keyboard-response,8
true,10,2,1,0,false,q,true,false,0.0-2.0-0.20-0.185-3.185,0,1,0,68,false,stim,false,1,1042.2999999970198,0,0,2,69221,task3,804859,false,false,741,image-keyboard-response,9
true,10,1,1,1,true,z,false,true,0.0-2.0-0.20-0.186-3.186,0,1,0,90,false,stim,false,2,643.7999999970198,0,0,0,69221,task3,807022,false,false,744,image-keyboard-response,10
true,10,0,1,1,false,z,true,false,0.0-2.0-0.20-0.187-3.187,0,1,0,81,false,stim,false,1,407.69999998807907,0,0,1,69221,task3,808944,false,false,747,image-keyboard-response,11
true,10,1,1,1,true,z,false,true,0.0-2.0-0.20-0.188-3.188,0,1,0,90,false,stim,false,1,536.2999999970198,0,0,1,69221,task3,811006,false,false,750,image-keyboard-response,12
true,10,1,1,1,true,z,false,true,0.0-2.0-0.21-0.189-3.189,0,1,0,90,false,stim,false,1,425.20000000298023,0,0,1,69221,task3,812964,false,false,753,image-keyboard-response,13
true,10,1,1,1,true,z,false,true,0.0-2.0-0.21-0.190-3.190,0,1,0,90,false,stim,false,1,863.5,0,0,1,69221,task3,815352,false,false,756,image-keyboard-response,14
true,10,1,1,1,true,z,false,true,0.0-2.0-0.21-0.191-3.191,0,1,0,90,false,stim,false,1,529.0,0,0,1,69221,task3,817399,false,false,759,image-keyboard-response,15
true,11,1,2,0,false,q,true,false,0.0-2.0-0.21-0.192-3.192,1,0,1,90,true,stim,false,0,2294.5,0,1,2,69221,task3,821216,false,false,762,image-keyboard-response,1
true,11,1,2,1,true,z,false,true,0.0-2.0-0.21-0.193-3.193,1,0,1,90,false,stim,false,1,721.1000000089407,0,1,0,69221,task3,823446,false,false,765,image-keyboard-response,2
true,11,1,2,0,false,q,true,false,0.0-2.0-0.21-0.194-3.194,1,0,1,90,false,stim,false,0,326.3999999910593,0,1,2,69221,task3,825280,false,false,768,image-keyboard-response,3
true,11,1,2,0,false,q,true,false,0.0-2.0-0.21-0.195-3.195,1,0,1,90,false,stim,false,0,379.6000000089407,0,1,2,69221,task3,827183,false,false,771,image-keyboard-response,4
true,11,1,2,1,true,z,false,true,0.0-2.0-0.21-0.196-3.196,1,0,1,90,false,stim,false,1,523.0,0,1,0,69221,task3,829223,false,false,774,image-keyboard-response,5
true,11,1,2,1,true,z,false,true,0.0-2.0-0.21-0.197-3.197,1,0,1,90,false,stim,false,1,377.20000000298023,0,1,0,69221,task3,831129,false,false,777,image-keyboard-response,6
true,11,0,2,0,true,q,false,true,0.0-2.0-0.22-0.198-3.198,1,0,1,81,false,stim,false,0,844.2000000029802,0,1,2,69221,task3,833495,false,false,780,image-keyboard-response,7
true,11,1,2,1,true,z,false,true,0.0-2.0-0.22-0.199-3.199,1,0,1,90,false,stim,false,1,1566.3999999910593,0,1,0,69221,task3,836584,false,false,783,image-keyboard-response,8
true,11,0,2,1,false,z,true,false,0.0-2.0-0.22-0.200-3.200,1,0,1,81,false,stim,false,1,1742.7000000029802,0,1,0,69221,task3,839860,false,false,786,image-keyboard-response,9
true,11,1,2,2,false,d,false,false,0.0-2.0-0.22-0.201-3.201,1,0,1,90,false,stim,true,1,566.8999999910593,0,0,1,69221,task3,841954,false,false,789,image-keyboard-response,10
true,11,1,2,0,false,q,true,true,0.0-2.0-0.22-0.202-3.202,1,0,1,90,false,stim,false,0,708.4000000059605,0,1,2,69221,task3,844179,false,true,792,image-keyboard-response,11
true,11,1,2,1,true,z,false,true,0.0-2.0-0.22-0.203-3.203,1,0,1,90,false,stim,false,1,586.6999999880791,0,1,0,69221,task3,846276,false,false,795,image-keyboard-response,12
true,11,1,2,0,false,q,true,false,0.0-2.0-0.22-0.204-3.204,1,0,1,90,false,stim,false,0,632.1999999880791,0,1,2,69221,task3,848446,false,false,798,image-keyboard-response,13
true,11,2,2,2,true,d,false,true,0.0-2.0-0.22-0.205-3.205,1,0,1,68,false,stim,false,1,482.6000000089407,0,0,1,69221,task3,850453,false,false,801,image-keyboard-response,14
true,11,0,2,2,false,d,true,false,0.0-2.0-0.22-0.206-3.206,1,0,1,81,false,stim,false,1,1716.800000011921,0,0,1,69221,task3,853699,false,false,804,image-keyboard-response,15
true,11,1,2,0,false,q,true,false,0.0-2.0-0.23-0.207-3.207,1,0,1,90,false,stim,false,0,1297.4000000059605,0,1,2,69221,task3,856525,false,false,807,image-keyboard-response,16
true,11,2,2,2,true,d,false,true,0.0-2.0-0.23-0.208-3.208,1,0,1,68,false,stim,false,1,960.8999999910593,0,0,1,69221,task3,859023,false,false,810,image-keyboard-response,17
true,11,2,2,0,false,q,true,false,0.0-2.0-0.23-0.209-3.209,1,0,1,68,false,stim,false,0,1969.800000011921,0,1,2,69221,task3,862514,false,false,813,image-keyboard-response,18
true,11,1,2,1,true,z,false,true,0.0-2.0-0.23-0.210-3.210,1,0,1,90,false,stim,false,1,2877.2000000029802,0,0,0,69221,task3,866909,false,false,816,image-keyboard-response,19
true,11,0,2,2,false,d,true,false,0.0-2.0-0.23-0.211-3.211,1,0,1,81,false,stim,false,1,1358.0,0,0,1,69221,task3,869795,false,false,819,image-keyboard-response,20
true,11,1,2,1,true,z,false,false,0.0-2.0-0.23-0.212-3.212,1,0,1,90,false,stim,false,1,1422.0,0,0,0,69221,task3,872750,false,true,822,image-keyboard-response,21
true,11,2,2,1,false,z,true,false,0.0-2.0-0.23-0.213-3.213,1,0,1,68,false,stim,false,1,1157.2000000029802,0,0,0,69221,task3,875437,false,false,825,image-keyboard-response,22
true,11,0,2,0,true,q,false,true,0.0-2.0-0.23-0.214-3.214,1,0,1,81,false,stim,false,0,1319.7999999970198,0,1,2,69221,task3,878280,false,false,828,image-keyboard-response,23
true,12,1,1,0,false,q,true,false,0.0-2.0-0.23-0.215-3.215,0,0,1,90,true,stim,false,2,2842.2000000029802,0,0,1,69221,task3,882648,false,false,831,image-keyboard-response,1
true,12,2,1,2,true,d,false,true,0.0-2.0-0.24-0.216-3.216,0,0,1,68,false,stim,false,1,1139.0999999940395,0,0,0,69221,task3,885303,false,false,834,image-keyboard-response,2
true,12,0,1,0,true,q,false,true,0.0-2.0-0.24-0.217-3.217,0,0,1,81,false,stim,false,2,1672.1000000089407,0,0,1,69221,task3,888499,false,false,837,image-keyboard-response,3
true,12,1,1,0,false,q,true,true,0.0-2.0-0.24-0.218-3.218,0,0,1,90,false,stim,false,0,1274.800000011921,0,1,2,69221,task3,891309,false,true,840,image-keyboard-response,4
true,12,2,1,0,false,q,true,false,0.0-2.0-0.24-0.219-3.219,0,0,1,68,false,stim,false,0,824.9000000059605,0,1,2,69221,task3,893668,false,false,843,image-keyboard-response,5
true,12,1,1,2,false,d,false,false,0.0-2.0-0.24-0.220-3.220,0,0,1,90,false,stim,true,1,1264.2000000029802,0,0,0,69221,task3,896460,false,false,846,image-keyboard-response,6
true,12,0,1,0,true,q,false,false,0.0-2.0-0.24-0.221-3.221,0,0,1,81,false,stim,false,2,575.5999999940395,0,0,1,69221,task3,898553,false,true,849,image-keyboard-response,7
true,12,0,1,0,true,q,false,true,0.0-2.0-0.24-0.222-3.222,0,0,1,81,false,stim,false,0,1035.4000000059605,0,1,2,69221,task3,901116,false,false,852,image-keyboard-response,8
true,12,1,1,0,false,q,true,false,0.0-2.0-0.24-0.223-3.223,0,0,1,90,false,stim,false,2,905.4000000059605,0,0,1,69221,task3,903535,false,false,855,image-keyboard-response,9
true,12,2,1,2,true,d,false,true,0.0-2.0-0.24-0.224-3.224,0,0,1,68,false,stim,false,1,598.9000000059605,0,0,0,69221,task3,905657,false,false,858,image-keyboard-response,10
true,12,2,1,0,false,q,true,false,0.0-2.0-0.25-0.225-3.225,0,0,1,68,false,stim,false,0,1448.4000000059605,0,1,2,69221,task3,908633,false,false,861,image-keyboard-response,11
true,12,1,1,0,false,q,true,false,0.0-2.0-0.25-0.226-3.226,0,0,1,90,false,stim,false,2,690.5999999940395,0,0,1,69221,task3,910839,false,false,864,image-keyboard-response,12
true,12,2,1,0,false,q,true,false,0.0-2.0-0.25-0.227-3.227,0,0,1,68,false,stim,false,0,833.4000000059605,0,1,2,69221,task3,913195,false,false,867,image-keyboard-response,13
true,12,1,1,0,false,q,true,false,0.0-2.0-0.25-0.228-3.228,0,0,1,90,false,stim,false,2,690.8000000119209,0,0,1,69221,task3,915417,false,false,870,image-keyboard-response,14
true,12,0,1,2,false,d,true,false,0.0-2.0-0.25-0.229-3.229,0,0,1,81,false,stim,false,1,595.2999999970198,0,0,0,69221,task3,917539,false,false,873,image-keyboard-response,15
true,12,1,1,2,false,d,false,false,0.0-2.0-0.25-0.230-3.230,0,0,1,90,false,stim,true,1,798.0,0,0,0,69221,task3,919857,false,false,876,image-keyboard-response,16
true,12,1,1,0,false,q,true,true,0.0-2.0-0.25-0.231-3.231,0,0,1,90,false,stim,false,0,1220.2999999970198,0,1,2,69221,task3,922609,false,true,879,image-keyboard-response,17
true,12,0,1,2,false,d,true,false,0.0-2.0-0.25-0.232-3.232,0,0,1,81,false,stim,false,1,1218.4000000059605,0,0,0,69221,task3,925360,false,false,882,image-keyboard-response,18
true,12,1,1,0,false,q,true,false,0.0-2.0-0.25-0.233-3.233,0,0,1,90,false,stim,false,2,528.2000000029802,0,1,1,69221,task3,927405,false,false,885,image-keyboard-response,19
true,12,1,1,0,false,q,true,false,0.0-2.0-0.26-0.234-3.234,0,0,1,90,false,stim,false,0,320.40000000596046,0,0,2,69221,task3,929242,false,false,888,image-keyboard-response,20
true,12,2,1,2,true,d,false,true,0.0-2.0-0.26-0.235-3.235,0,0,1,68,false,stim,false,1,455.79999999701977,0,0,0,69221,task3,931227,false,false,891,image-keyboard-response,21
true,12,1,1,0,false,q,true,false,0.0-2.0-0.26-0.236-3.236,0,0,1,90,false,stim,false,2,2939.8999999910593,0,1,1,69221,task3,935700,false,false,894,image-keyboard-response,22
true,13,0,1,1,false,z,false,false,0.0-2.0-0.26-0.237-3.237,0,1,0,81,true,stim,true,0,795.0999999940395,0,0,2,69221,task3,938019,false,false,897,image-keyboard-response,1
true,13,2,1,0,false,q,false,false,0.0-2.0-0.26-0.238-3.238,0,1,0,68,false,stim,true,2,303.40000000596046,0,0,0,69221,task3,939860,false,false,900,image-keyboard-response,2
true,13,1,1,1,true,z,false,true,0.0-2.0-0.26-0.239-3.239,0,1,0,90,false,stim,false,0,1827.800000011921,0,0,2,69221,task3,943221,false,false,903,image-keyboard-response,3
true,13,0,1,0,true,q,false,true,0.0-2.0-0.26-0.240-3.240,0,1,0,81,false,stim,false,0,961.0999999940395,0,1,1,69221,task3,945722,false,false,906,image-keyboard-response,4
true,13,2,1,0,false,q,false,false,0.0-2.0-0.26-0.241-3.241,0,1,0,68,false,stim,true,2,1210.8999999910593,0,0,0,69221,task3,948468,false,false,909,image-keyboard-response,5
true,13,1,1,0,false,q,true,false,0.0-2.0-0.26-0.242-3.242,0,1,0,90,false,stim,false,0,1610.7999999970198,0,1,1,69221,task3,951600,false,false,912,image-keyboard-response,6
true,13,0,1,1,false,z,false,false,0.0-2.0-0.27-0.243-3.243,0,1,0,81,false,stim,true,0,850.4000000059605,0,0,2,69221,task3,953973,false,false,915,image-keyboard-response,7
true,13,1,1,0,false,q,true,false,0.0-2.0-0.27-0.244-3.244,0,1,0,90,false,stim,false,0,1332.0,0,1,1,69221,task3,956823,false,false,918,image-keyboard-response,8
true,13,0,1,0,true,q,false,false,0.0-2.0-0.27-0.245-3.245,0,1,0,81,false,stim,false,2,1752.7999999970198,0,0,0,69221,task3,960108,false,true,921,image-keyboard-response,9
true,13,1,1,1,true,z,false,true,0.0-2.0-0.27-0.246-3.246,0,1,0,90,false,stim,false,0,1315.7999999970198,0,0,2,69221,task3,962959,false,false,924,image-keyboard-response,10
true,13,2,1,0,false,q,false,false,0.0-2.0-0.27-0.247-3.247,0,1,0,68,false,stim,true,2,1728.1000000089407,0,0,0,69221,task3,966218,false,false,927,image-keyboard-response,11
true,13,1,1,0,false,q,true,false,0.0-2.0-0.27-0.248-3.248,0,1,0,90,false,stim,false,0,977.6999999880791,0,1,1,69221,task3,968706,false,false,930,image-keyboard-response,12
true,13,1,1,0,false,q,true,true,0.0-2.0-0.27-0.249-3.249,0,1,0,90,false,stim,false,2,381.79999999701977,0,0,0,69221,task3,970611,false,true,933,image-keyboard-response,13
true,13,1,1,1,true,z,false,true,0.0-2.0-0.27-0.250-3.250,0,1,0,90,false,stim,false,0,1300.7000000029802,0,0,2,69221,task3,973446,false,false,936,image-keyboard-response,14
true,13,1,1,0,false,q,true,false,0.0-2.0-0.27-0.251-3.251,0,1,0,90,false,stim,false,0,1041.0,0,1,1,69221,task3,976021,false,false,939,image-keyboard-response,15
true,13,0,1,0,true,q,false,true,0.0-2.0-0.28-0.252-3.252,0,1,0,81,false,stim,false,0,2119.199999988079,0,1,1,69221,task3,979668,false,false,942,image-keyboard-response,16
true,13,1,1,1,true,z,false,true,0.0-2.0-0.28-0.253-3.253,0,1,0,90,false,stim,false,0,1530.0999999940395,0,0,2,69221,task3,982727,false,false,945,image-keyboard-response,17
true,13,1,1,1,true,z,false,false,0.0-2.0-0.28-0.254-3.254,0,1,0,90,false,stim,false,0,1095.2000000029802,0,0,2,69221,task3,985345,false,true,948,image-keyboard-response,18
true,13,1,1,0,false,q,true,false,0.0-2.0-0.28-0.255-3.255,0,1,0,90,false,stim,false,2,1161.300000011921,0,0,0,69221,task3,988043,false,false,951,image-keyboard-response,19
true,13,1,1,1,true,z,false,true,0.0-2.0-0.28-0.256-3.256,0,1,0,90,false,stim,false,0,783.2000000029802,0,0,2,69221,task3,990345,false,false,954,image-keyboard-response,20
true,13,0,1,0,true,q,false,true,0.0-2.0-0.28-0.257-3.257,0,1,0,81,false,stim,false,0,799.4000000059605,0,1,1,69221,task3,992662,false,false,957,image-keyboard-response,21
true,13,1,1,0,false,q,true,false,0.0-2.0-0.28-0.258-3.258,0,1,0,90,false,stim,false,2,2357.7999999970198,0,0,0,69221,task3,996554,false,false,960,image-keyboard-response,22
true,13,2,1,0,false,q,false,false,0.0-2.0-0.28-0.259-3.259,0,1,0,68,false,stim,true,2,774.7999999970198,0,0,0,69221,task3,998853,false,false,963,image-keyboard-response,23
true,13,0,1,0,true,q,false,true,0.0-2.0-0.28-0.260-3.260,0,1,0,81,false,stim,false,0,1508.2999999970198,0,1,1,69221,task3,1001891,false,false,966,image-keyboard-response,24
true,13,0,1,0,true,q,false,true,0.0-2.0-0.29-0.261-3.261,0,1,0,81,false,stim,false,0,2161.1000000089407,0,1,1,69221,task3,1005589,false,false,969,image-keyboard-response,25
true,13,0,1,0,true,q,false,false,0.0-2.0-0.29-0.262-3.262,0,1,0,81,false,stim,false,0,1231.7999999970198,0,1,1,69221,task3,1008334,false,true,972,image-keyboard-response,26
true,13,1,1,0,false,q,true,false,0.0-2.0-0.29-0.263-3.263,0,1,0,90,false,stim,false,2,1171.4000000059605,0,0,0,69221,task3,1011035,false,false,975,image-keyboard-response,27
true,13,1,1,1,true,z,false,true,0.0-2.0-0.29-0.264-3.264,0,1,0,90,false,stim,false,0,2315.9000000059605,0,0,2,69221,task3,1014878,false,false,978,image-keyboard-response,28
true,13,1,1,1,true,z,false,true,0.0-2.0-0.29-0.265-3.265,0,1,0,90,false,stim,false,0,918.0,0,0,2,69221,task3,1017314,false,false,981,image-keyboard-response,29
true,14,0,1,2,false,d,false,false,0.0-2.0-0.29-0.266-3.266,0,1,0,81,true,stim,true,0,1332.199999988079,0,0,0,69221,task3,1020180,false,false,984,image-keyboard-response,1
true,14,2,1,2,true,d,false,true,0.0-2.0-0.29-0.267-3.267,0,1,0,68,false,stim,false,1,1951.7000000029802,0,0,2,69221,task3,1023661,false,false,987,image-keyboard-response,2
true,14,1,1,2,false,d,true,false,0.0-2.0-0.29-0.268-3.268,0,1,0,90,false,stim,false,0,2762.0,0,0,0,69221,task3,1027961,false,false,990,image-keyboard-response,3
true,14,0,1,0,true,q,false,true,0.0-2.0-0.29-0.269-3.269,0,1,0,81,false,stim,false,0,2294.0,0,1,1,69221,task3,1031800,false,false,993,image-keyboard-response,4
true,14,1,1,2,false,d,true,false,0.0-2.0-0.30-0.270-3.270,0,1,0,90,false,stim,false,0,2737.7000000029802,0,0,0,69221,task3,1036078,false,false,996,image-keyboard-response,5
true,14,0,1,2,false,d,true,false,0.0-2.0-0.30-0.271-3.271,0,1,0,81,false,stim,false,1,991.1999999880791,0,0,2,69221,task3,1038594,false,false,999,image-keyboard-response,6
true,14,2,1,2,true,d,false,true,0.0-2.0-0.30-0.272-3.272,0,1,0,68,false,stim,false,1,1579.5,0,0,2,69221,task3,1041699,false,false,1002,image-keyboard-response,7
true,14,1,1,0,false,q,true,false,0.0-2.0-0.30-0.273-3.273,0,1,0,90,false,stim,false,0,1612.7000000029802,0,1,1,69221,task3,1044835,false,false,1005,image-keyboard-response,8
true,14,2,1,2,true,d,false,false,0.0-2.0-0.30-0.274-3.274,0,1,0,68,false,stim,false,0,605.2000000029802,0,0,0,69221,task3,1046973,false,true,1008,image-keyboard-response,9
true,14,1,1,2,false,d,false,false,0.0-2.0-0.30-0.275-3.275,0,1,0,90,false,stim,true,1,1532.7999999970198,0,0,2,69221,task3,1050035,false,false,1011,image-keyboard-response,10
false,14,-1,1,0,false,q,true,true,0.0-2.0-0.30-0.276-3.276,0,1,0,,false,stim,false,0,,0,1,1,69221,task3,1054575,false,true,1014,image-keyboard-response,11
true,14,0,1,2,false,d,false,false,0.0-2.0-0.30-0.277-3.277,0,1,0,81,false,stim,true,0,1306.2000000029802,0,0,0,69221,task3,1057403,false,false,1017,image-keyboard-response,12
true,14,1,1,0,false,q,true,false,0.0-2.0-0.30-0.278-3.278,0,1,0,90,false,stim,false,0,797.2000000029802,0,1,1,69221,task3,1059724,false,false,1020,image-keyboard-response,13
true,14,1,1,0,false,q,true,false,0.0-2.0-0.31-0.279-3.279,0,1,0,90,false,stim,false,0,516.4000000059605,0,1,1,69221,task3,1061757,false,false,1023,image-keyboard-response,14
true,14,1,1,2,false,d,false,false,0.0-2.0-0.31-0.280-3.280,0,1,0,90,false,stim,true,1,722.0999999940395,0,0,2,69221,task3,1063996,false,false,1026,image-keyboard-response,15
true,14,1,1,2,false,d,true,false,0.0-2.0-0.31-0.281-3.281,0,1,0,90,false,stim,false,0,726.2000000029802,0,0,0,69221,task3,1066238,false,false,1029,image-keyboard-response,16
true,14,2,1,0,false,q,true,false,0.0-2.0-0.31-0.282-3.282,0,1,0,68,false,stim,false,0,494.8999999910593,0,1,1,69221,task3,1068253,false,false,1032,image-keyboard-response,17
true,14,0,1,2,false,d,false,true,0.0-2.0-0.31-0.283-3.283,0,1,0,81,false,stim,true,0,903.7000000029802,0,0,0,69221,task3,1070678,false,true,1035,image-keyboard-response,18
true,14,0,1,2,false,d,true,false,0.0-2.0-0.31-0.284-3.284,0,1,0,81,false,stim,false,1,839.4000000059605,0,0,2,69221,task3,1073043,false,false,1038,image-keyboard-response,19
true,14,1,1,2,false,d,false,false,0.0-2.0-0.31-0.285-3.285,0,1,0,90,false,stim,true,1,542.3999999910593,0,1,2,69221,task3,1075102,false,false,1041,image-keyboard-response,20
true,14,2,1,0,false,q,true,false,0.0-2.0-0.31-0.286-3.286,0,1,0,68,false,stim,false,0,1468.5,0,0,1,69221,task3,1078104,false,false,1044,image-keyboard-response,21
true,14,1,1,2,false,d,true,false,0.0-2.0-0.31-0.287-3.287,0,1,0,90,false,stim,false,0,1544.7000000029802,0,0,0,69221,task3,1081182,false,false,1047,image-keyboard-response,22
true,14,0,1,2,false,d,true,false,0.0-2.0-0.32-0.288-3.288,0,1,0,81,false,stim,false,1,1012.8000000119209,0,1,2,69221,task3,1083717,false,false,1050,image-keyboard-response,23
true,14,2,1,2,true,d,false,true,0.0-2.0-0.32-0.289-3.289,0,1,0,68,false,stim,false,0,994.6999999880791,0,0,0,69221,task3,1086242,false,false,1053,image-keyboard-response,24
true,15,1,1,2,false,d,true,false,0.0-2.0-0.32-0.290-3.290,0,0,1,90,true,stim,false,0,1179.7999999970198,0,0,1,69221,task3,1088946,false,false,1056,image-keyboard-response,1
true,15,2,1,2,true,d,false,true,0.0-2.0-0.32-0.291-3.291,0,0,1,68,false,stim,false,2,1067.5999999940395,0,1,2,69221,task3,1091526,false,false,1059,image-keyboard-response,2
true,15,0,1,1,false,z,true,false,0.0-2.0-0.32-0.292-3.292,0,0,1,81,false,stim,false,2,1314.4000000059605,0,0,0,69221,task3,1094362,false,false,1062,image-keyboard-response,3
true,15,2,1,2,true,d,false,true,0.0-2.0-0.32-0.293-3.293,0,0,1,68,false,stim,false,2,908.8000000119209,0,1,2,69221,task3,1096795,false,false,1065,image-keyboard-response,4
true,15,0,1,2,false,d,false,true,0.0-2.0-0.32-0.294-3.294,0,0,1,81,false,stim,true,0,914.6999999880791,0,0,1,69221,task3,1099233,false,true,1068,image-keyboard-response,5
true,15,0,1,2,false,d,false,false,0.0-2.0-0.32-0.295-3.295,0,0,1,81,false,stim,true,0,781.0999999940395,0,0,1,69221,task3,1101533,false,false,1071,image-keyboard-response,6
true,15,1,1,1,true,z,false,true,0.0-2.0-0.32-0.296-3.296,0,0,1,90,false,stim,false,2,1006.5,0,0,0,69221,task3,1104079,false,false,1074,image-keyboard-response,7
true,15,2,1,2,true,d,false,true,0.0-2.0-0.33-0.297-3.297,0,0,1,68,false,stim,false,2,786.7000000029802,0,1,2,69221,task3,1106399,false,false,1077,image-keyboard-response,8
true,15,0,1,2,false,d,false,false,0.0-2.0-0.33-0.298-3.298,0,0,1,81,false,stim,true,0,791.5,0,0,1,69221,task3,1108708,false,false,1080,image-keyboard-response,9
true,15,0,1,2,false,d,false,false,0.0-2.0-0.33-0.299-3.299,0,0,1,81,false,stim,true,0,1082.4000000059605,0,0,1,69221,task3,1111316,false,false,1083,image-keyboard-response,10
true,15,1,1,1,true,z,false,true,0.0-2.0-0.33-0.300-3.300,0,0,1,90,false,stim,false,2,1265.0,0,0,0,69221,task3,1114104,false,false,1086,image-keyboard-response,11
true,15,0,1,2,false,d,false,false,0.0-2.0-0.33-0.301-3.301,0,0,1,81,false,stim,true,0,934.7999999970198,0,0,1,69221,task3,1116558,false,false,1089,image-keyboard-response,12
true,15,1,1,1,true,z,false,true,0.0-2.0-0.33-0.302-3.302,0,0,1,90,false,stim,false,2,734.2000000029802,0,0,0,69221,task3,1118821,false,false,1092,image-keyboard-response,13
true,15,1,1,1,true,z,false,true,0.0-2.0-0.33-0.303-3.303,0,0,1,90,false,stim,false,2,1280.5,0,0,0,69221,task3,1121616,false,false,1095,image-keyboard-response,14
true,15,2,1,2,true,d,false,false,0.0-2.0-0.33-0.304-3.304,0,0,1,68,false,stim,false,2,969.7999999970198,0,1,2,69221,task3,1124103,false,true,1098,image-keyboard-response,15
true,15,2,1,2,true,d,false,true,0.0-2.0-0.33-0.305-3.305,0,0,1,68,false,stim,false,2,736.3000000119209,0,1,2,69221,task3,1126373,false,false,1101,image-keyboard-response,16
true,15,1,1,2,false,d,true,false,0.0-2.0-0.34-0.306-3.306,0,0,1,90,false,stim,false,2,673.2999999970198,0,1,2,69221,task3,1128573,false,false,1104,image-keyboard-response,17
true,15,1,1,1,true,z,false,true,0.0-2.0-0.34-0.307-3.307,0,0,1,90,false,stim,false,2,1383.2000000029802,0,0,0,69221,task3,1131483,false,false,1107,image-keyboard-response,18
true,15,0,1,2,false,d,false,true,0.0-2.0-0.34-0.308-3.308,0,0,1,81,false,stim,true,0,910.6000000089407,0,0,1,69221,task3,1133926,false,true,1110,image-keyboard-response,19
true,15,1,1,1,true,z,false,false,0.0-2.0-0.34-0.309-3.309,0,0,1,90,false,stim,false,2,730.2999999970198,0,0,0,69221,task3,1136166,false,true,1113,image-keyboard-response,20
true,15,2,1,2,true,d,false,true,0.0-2.0-0.34-0.310-3.310,0,0,1,68,false,stim,false,2,479.69999998807907,0,1,2,69221,task3,1138177,false,false,1116,image-keyboard-response,21
true,15,2,1,2,true,d,false,false,0.0-2.0-0.34-0.311-3.311,0,0,1,68,false,stim,false,2,631.0,0,1,2,69221,task3,1140330,false,true,1119,image-keyboard-response,22
true,15,0,1,2,false,d,false,false,0.0-2.0-0.34-0.312-3.312,0,0,1,81,false,stim,true,0,1287.3999999910593,0,1,1,69221,task3,1143154,false,false,1122,image-keyboard-response,23
true,15,0,1,2,false,d,false,false,0.0-2.0-0.34-0.313-3.313,0,0,1,81,false,stim,true,0,725.2999999970198,0,1,1,69221,task3,1145409,false,false,1125,image-keyboard-response,24
true,15,1,1,1,true,z,false,true,0.0-2.0-0.34-0.314-3.314,0,0,1,90,false,stim,false,2,815.5,0,0,0,69221,task3,1147750,false,false,1128,image-keyboard-response,25
true,15,2,1,2,true,d,false,true,0.0-2.0-0.35-0.315-3.315,0,0,1,68,false,stim,false,2,905.3999999910593,0,0,2,69221,task3,1150189,false,false,1131,image-keyboard-response,26
true,15,1,1,2,false,d,true,false,0.0-2.0-0.35-0.316-3.316,0,0,1,90,false,stim,false,0,679.8999999910593,0,1,1,69221,task3,1152393,false,false,1134,image-keyboard-response,27
true,16,2,1,2,true,d,false,true,0.0-2.0-0.35-0.317-3.317,0,1,0,68,true,stim,false,2,668.2000000029802,0,1,1,69221,task3,1154586,false,false,1137,image-keyboard-response,1
true,16,1,1,0,false,q,true,false,0.0-2.0-0.35-0.318-3.318,0,1,0,90,false,stim,false,2,1372.1000000089407,0,0,2,69221,task3,1157486,false,false,1140,image-keyboard-response,2
true,16,1,1,2,false,d,false,false,0.0-2.0-0.35-0.319-3.319,0,1,0,90,false,stim,true,1,1959.199999988079,0,0,0,69221,task3,1160972,false,false,1143,image-keyboard-response,3
true,16,0,1,2,false,d,true,false,0.0-2.0-0.35-0.320-3.320,0,1,0,81,false,stim,false,1,848.0,0,0,0,69221,task3,1163347,false,false,1146,image-keyboard-response,4
true,16,2,1,0,false,q,false,false,0.0-2.0-0.35-0.321-3.321,0,1,0,68,false,stim,true,2,653.3999999910593,0,0,2,69221,task3,1165517,false,false,1149,image-keyboard-response,5
true,16,0,1,2,false,d,true,false,0.0-2.0-0.35-0.322-3.322,0,1,0,81,false,stim,false,2,973.7999999970198,0,1,1,69221,task3,1168020,false,false,1152,image-keyboard-response,6
true,16,1,1,2,false,d,false,false,0.0-2.0-0.35-0.323-3.323,0,1,0,90,false,stim,true,1,647.0,0,0,0,69221,task3,1170195,false,false,1155,image-keyboard-response,7
true,16,2,1,0,false,q,false,false,0.0-2.0-0.36-0.324-3.324,0,1,0,68,false,stim,true,2,629.3999999910593,0,0,2,69221,task3,1172346,false,false,1158,image-keyboard-response,8
true,16,1,1,2,false,d,true,false,0.0-2.0-0.36-0.325-3.325,0,1,0,90,false,stim,false,2,1148.1000000089407,0,1,1,69221,task3,1175027,false,false,1161,image-keyboard-response,9
true,16,1,1,0,false,q,true,false,0.0-2.0-0.36-0.326-3.326,0,1,0,90,false,stim,false,2,541.2999999970198,0,0,2,69221,task3,1177102,false,false,1164,image-keyboard-response,10
true,16,1,1,2,false,d,true,true,0.0-2.0-0.36-0.327-3.327,0,1,0,90,false,stim,false,2,592.6000000089407,0,1,1,69221,task3,1179226,false,true,1167,image-keyboard-response,11
true,16,2,1,2,true,d,false,true,0.0-2.0-0.36-0.328-3.328,0,1,0,68,false,stim,false,2,504.0,0,1,1,69221,task3,1181249,false,false,1170,image-keyboard-response,12
true,16,0,1,2,false,d,true,false,0.0-2.0-0.36-0.329-3.329,0,1,0,81,false,stim,false,1,1501.5,0,0,0,69221,task3,1184284,false,false,1173,image-keyboard-response,13
true,16,1,1,0,false,q,true,false,0.0-2.0-0.36-0.330-3.330,0,1,0,90,false,stim,false,2,526.7999999970198,0,0,2,69221,task3,1186339,false,false,1176,image-keyboard-response,14
true,16,2,1,2,true,d,false,true,0.0-2.0-0.36-0.331-3.331,0,1,0,68,false,stim,false,1,733.2000000029802,0,0,0,69221,task3,1188596,false,false,1179,image-keyboard-response,15
true,16,2,1,2,true,d,false,true,0.0-2.0-0.36-0.332-3.332,0,1,0,68,false,stim,false,1,837.0,0,0,0,69221,task3,1190966,false,false,1182,image-keyboard-response,16
true,16,1,1,2,false,d,false,false,0.0-2.0-0.37-0.333-3.333,0,1,0,90,false,stim,true,1,1062.4000000059605,0,0,0,69221,task3,1193549,false,false,1185,image-keyboard-response,17
true,16,2,1,2,true,d,false,true,0.0-2.0-0.37-0.334-3.334,0,1,0,68,false,stim,false,2,477.5,0,1,1,69221,task3,1195556,false,false,1188,image-keyboard-response,18
true,16,2,1,2,true,d,false,true,0.0-2.0-0.37-0.335-3.335,0,1,0,68,false,stim,false,1,805.7999999970198,0,0,0,69221,task3,1197886,false,false,1191,image-keyboard-response,19
true,16,0,1,2,false,d,true,false,0.0-2.0-0.37-0.336-3.336,0,1,0,81,false,stim,false,1,828.9000000059605,0,0,0,69221,task3,1200247,false,false,1194,image-keyboard-response,20
true,16,1,1,0,false,q,true,false,0.0-2.0-0.37-0.337-3.337,0,1,0,90,false,stim,false,2,789.5,0,0,2,69221,task3,1202567,false,false,1197,image-keyboard-response,21
true,16,2,1,2,true,d,false,true,0.0-2.0-0.37-0.338-3.338,0,1,0,68,false,stim,false,2,538.3000000119209,0,1,1,69221,task3,1204635,false,false,1200,image-keyboard-response,22
true,16,2,1,0,false,q,false,false,0.0-2.0-0.37-0.339-3.339,0,1,0,68,false,stim,true,2,530.2999999970198,0,0,2,69221,task3,1206698,false,false,1203,image-keyboard-response,23
true,16,1,1,2,false,d,true,false,0.0-2.0-0.37-0.340-3.340,0,1,0,90,false,stim,false,2,917.0999999940395,0,1,1,69221,task3,1209145,false,false,1206,image-keyboard-response,24
true,16,0,1,0,true,q,false,true,0.0-2.0-0.37-0.341-3.341,0,1,0,81,false,stim,false,2,619.5,0,0,2,69221,task3,1211280,false,false,1209,image-keyboard-response,25
true,16,1,1,2,false,d,false,false,0.0-2.0-0.38-0.342-3.342,0,1,0,90,false,stim,true,1,980.7000000029802,0,1,0,69221,task3,1213796,false,false,1212,image-keyboard-response,26
true,16,2,1,2,true,d,false,true,0.0-2.0-0.38-0.343-3.343,0,1,0,68,false,stim,false,1,1156.8999999910593,0,1,0,69221,task3,1216468,false,false,1215,image-keyboard-response,27
true,16,0,1,0,true,q,false,true,0.0-2.0-0.38-0.344-3.344,0,1,0,81,false,stim,false,2,1406.2000000029802,0,0,2,69221,task3,1219403,false,false,1218,image-keyboard-response,28
true,16,2,1,2,true,d,false,true,0.0-2.0-0.38-0.345-3.345,0,1,0,68,false,stim,false,2,1417.1000000089407,0,0,1,69221,task3,1222344,false,false,1221,image-keyboard-response,29
true,17,0,1,2,false,d,true,true,0.0-2.0-0.38-0.346-3.346,1,0,0,81,true,stim,false,2,870.2999999970198,0,1,0,69221,task3,1224723,false,true,1224,image-keyboard-response,1
true,17,1,1,1,true,z,false,true,0.0-2.0-0.38-0.347-3.347,1,0,0,90,false,stim,false,2,1049.0999999940395,0,0,1,69221,task3,1227297,false,false,1227,image-keyboard-response,2
true,17,2,1,2,true,d,false,true,0.0-2.0-0.38-0.348-3.348,1,0,0,68,false,stim,false,0,757.4000000059605,0,0,2,69221,task3,1229585,false,false,1230,image-keyboard-response,3
true,17,0,1,2,false,d,false,false,0.0-2.0-0.38-0.349-3.349,1,0,0,81,false,stim,true,0,807.8999999910593,0,0,2,69221,task3,1231917,false,false,1233,image-keyboard-response,4
true,17,1,1,1,true,z,false,true,0.0-2.0-0.38-0.350-3.350,1,0,0,90,false,stim,false,2,799.0,0,0,1,69221,task3,1234243,false,false,1236,image-keyboard-response,5
true,17,1,1,1,true,z,false,true,0.0-2.0-0.39-0.351-3.351,1,0,0,90,false,stim,false,2,1274.0,0,0,1,69221,task3,1237036,false,false,1239,image-keyboard-response,6
true,17,2,1,2,true,d,false,true,0.0-2.0-0.39-0.352-3.352,1,0,0,68,false,stim,false,2,1049.0999999940395,0,1,0,69221,task3,1239613,false,false,1242,image-keyboard-response,7
true,17,0,1,2,false,d,false,false,0.0-2.0-0.39-0.353-3.353,1,0,0,81,false,stim,true,0,670.0,0,0,2,69221,task3,1241817,false,false,1245,image-keyboard-response,8
true,17,1,1,2,false,d,true,false,0.0-2.0-0.39-0.354-3.354,1,0,0,90,false,stim,false,0,1229.2000000029802,0,0,2,69221,task3,1244572,false,false,1248,image-keyboard-response,9
true,17,2,1,2,true,d,false,true,0.0-2.0-0.39-0.355-3.355,1,0,0,68,false,stim,false,0,1042.7000000029802,0,0,2,69221,task3,1247141,false,false,1251,image-keyboard-response,10
true,17,2,1,1,false,z,false,false,0.0-2.0-0.39-0.356-3.356,1,0,0,68,false,stim,true,2,1278.7000000029802,0,0,1,69221,task3,1249953,false,false,1254,image-keyboard-response,11
true,17,1,1,2,false,d,true,false,0.0-2.0-0.39-0.357-3.357,1,0,0,90,false,stim,false,2,1169.5,0,1,0,69221,task3,1252648,false,false,1257,image-keyboard-response,12
true,17,1,1,2,false,d,true,false,0.0-2.0-0.39-0.358-3.358,1,0,0,90,false,stim,false,2,1142.6000000089407,0,1,0,69221,task3,1255321,false,false,1260,image-keyboard-response,13
true,17,0,1,1,false,z,true,false,0.0-2.0-0.39-0.359-3.359,1,0,0,81,false,stim,false,2,853.7999999970198,0,0,1,69221,task3,1257706,false,false,1263,image-keyboard-response,14
true,17,2,1,2,true,d,false,true,0.0-2.0-0.40-0.360-3.360,1,0,0,68,false,stim,false,2,947.7000000029802,0,1,0,69221,task3,1260183,false,false,1266,image-keyboard-response,15
true,17,0,1,1,false,z,true,false,0.0-2.0-0.40-0.361-3.361,1,0,0,81,false,stim,false,2,1117.300000011921,0,0,1,69221,task3,1262824,false,false,1269,image-keyboard-response,16
true,17,1,1,2,false,d,true,false,0.0-2.0-0.40-0.362-3.362,1,0,0,90,false,stim,false,2,993.0,0,1,0,69221,task3,1265327,false,false,1272,image-keyboard-response,17
true,17,0,1,1,false,z,true,false,0.0-2.0-0.40-0.363-3.363,1,0,0,81,false,stim,false,2,951.5999999940395,0,0,1,69221,task3,1267800,false,false,1275,image-keyboard-response,18
true,17,2,1,2,true,d,false,true,0.0-2.0-0.40-0.364-3.364,1,0,0,68,false,stim,false,0,625.2999999970198,0,0,2,69221,task3,1269945,false,false,1278,image-keyboard-response,19
true,17,2,1,2,true,d,false,true,0.0-2.0-0.40-0.365-3.365,1,0,0,68,false,stim,false,2,1050.7000000029802,0,0,0,69221,task3,1272516,false,false,1281,image-keyboard-response,20
true,17,2,1,2,true,d,false,true,0.0-2.0-0.40-0.366-3.366,1,0,0,68,false,stim,false,0,1733.5999999940395,0,1,2,69221,task3,1275765,false,false,1284,image-keyboard-response,21
true,17,0,1,1,false,z,true,false,0.0-2.0-0.40-0.367-3.367,1,0,0,81,false,stim,false,2,801.5,0,0,1,69221,task3,1278095,false,false,1287,image-keyboard-response,22
true,17,1,1,2,false,d,true,false,0.0-2.0-0.40-0.368-3.368,1,0,0,90,false,stim,false,0,664.0,0,1,2,69221,task3,1280293,false,false,1290,image-keyboard-response,23
true,17,2,1,1,false,z,false,false,0.0-2.0-0.41-0.369-3.369,1,0,0,68,false,stim,true,2,457.40000000596046,0,0,1,69221,task3,1282284,false,false,1293,image-keyboard-response,24
true,18,1,1,0,false,q,true,false,0.0-2.0-0.41-0.370-3.370,0,0,1,90,true,stim,false,2,767.7000000029802,0,0,0,69221,task3,1284578,false,false,1296,image-keyboard-response,1
true,18,1,1,0,false,q,true,false,0.0-2.0-0.41-0.371-3.371,0,0,1,90,false,stim,false,2,756.5,0,0,0,69221,task3,1286866,false,false,1299,image-keyboard-response,2
true,18,2,1,2,true,d,false,false,0.0-2.0-0.41-0.372-3.372,0,0,1,68,false,stim,false,2,670.4000000059605,0,1,2,69221,task3,1289063,false,true,1302,image-keyboard-response,3
true,18,0,1,2,false,d,true,false,0.0-2.0-0.41-0.373-3.373,0,0,1,81,false,stim,false,2,794.7000000029802,0,1,2,69221,task3,1291388,false,false,1305,image-keyboard-response,4
true,18,1,1,0,false,q,false,false,0.0-2.0-0.41-0.374-3.374,0,0,1,90,false,stim,true,1,631.0,0,0,1,69221,task3,1293539,false,false,1308,image-keyboard-response,5
true,18,2,1,2,true,d,false,true,0.0-2.0-0.41-0.375-3.375,0,0,1,68,false,stim,false,2,856.5999999940395,0,1,2,69221,task3,1295915,false,false,1311,image-keyboard-response,6
true,18,0,1,0,true,q,false,false,0.0-2.0-0.41-0.376-3.376,0,0,1,81,false,stim,false,2,1529.5,0,0,0,69221,task3,1298971,false,true,1314,image-keyboard-response,7
true,18,1,1,0,false,q,false,false,0.0-2.0-0.41-0.377-3.377,0,0,1,90,false,stim,true,1,928.5999999940395,0,0,1,69221,task3,1301410,false,false,1317,image-keyboard-response,8
true,18,2,1,0,false,q,false,false,0.0-2.0-0.42-0.378-3.378,0,0,1,68,false,stim,true,2,1112.3999999910593,0,0,0,69221,task3,1304048,false,false,1320,image-keyboard-response,9
true,18,0,1,0,true,q,false,false,0.0-2.0-0.42-0.379-3.379,0,0,1,81,false,stim,false,1,1194.7000000029802,0,0,1,69221,task3,1306761,false,true,1323,image-keyboard-response,10
true,18,1,1,0,false,q,false,false,0.0-2.0-0.42-0.380-3.380,0,0,1,90,false,stim,true,1,1090.3999999910593,0,0,1,69221,task3,1309369,false,false,1326,image-keyboard-response,11
true,18,2,1,2,true,d,false,true,0.0-2.0-0.42-0.381-3.381,0,0,1,68,false,stim,false,2,516.2999999970198,0,1,2,69221,task3,1311423,false,false,1329,image-keyboard-response,12
true,18,1,1,0,false,q,false,false,0.0-2.0-0.42-0.382-3.382,0,0,1,90,false,stim,true,1,999.7000000029802,0,0,1,69221,task3,1313945,false,false,1332,image-keyboard-response,13
true,18,0,1,0,true,q,false,true,0.0-2.0-0.42-0.383-3.383,0,0,1,81,false,stim,false,2,972.5,0,0,0,69221,task3,1316446,false,false,1335,image-keyboard-response,14
true,18,1,1,2,false,d,true,true,0.0-2.0-0.42-0.384-3.384,0,0,1,90,false,stim,false,2,993.2000000029802,0,1,2,69221,task3,1318968,false,true,1338,image-keyboard-response,15
true,18,2,1,0,false,q,false,false,0.0-2.0-0.42-0.385-3.385,0,0,1,68,false,stim,true,2,751.0,0,0,0,69221,task3,1321242,false,false,1341,image-keyboard-response,16
true,18,1,1,2,false,d,true,false,0.0-2.0-0.42-0.386-3.386,0,0,1,90,false,stim,false,2,476.09999999403954,0,1,2,69221,task3,1323252,false,false,1344,image-keyboard-response,17
true,18,0,1,0,true,q,false,true,0.0-2.0-0.43-0.387-3.387,0,0,1,81,false,stim,false,2,514.7000000029802,0,0,0,69221,task3,1325292,false,false,1347,image-keyboard-response,18
true,18,0,1,0,true,q,false,true,0.0-2.0-0.43-0.388-3.388,0,0,1,81,false,stim,false,2,606.6999999880791,0,0,0,69221,task3,1327429,false,false,1350,image-keyboard-response,19
true,18,2,1,0,false,q,true,false,0.0-2.0-0.43-0.389-3.389,0,0,1,68,false,stim,false,1,664.7000000029802,0,0,1,69221,task3,1329612,false,false,1353,image-keyboard-response,20
true,18,1,1,2,false,d,true,false,0.0-2.0-0.43-0.390-3.390,0,0,1,90,false,stim,false,2,771.7999999970198,0,1,2,69221,task3,1331913,false,false,1356,image-keyboard-response,21
true,18,0,1,0,true,q,false,true,0.0-2.0-0.43-0.391-3.391,0,0,1,81,false,stim,false,1,563.7000000029802,0,0,1,69221,task3,1333994,false,false,1359,image-keyboard-response,22
true,18,2,1,2,true,d,false,true,0.0-2.0-0.43-0.392-3.392,0,0,1,68,false,stim,false,2,1313.199999988079,0,1,2,69221,task3,1336839,false,false,1362,image-keyboard-response,23
true,18,0,1,0,true,q,false,false,0.0-2.0-0.43-0.393-3.393,0,0,1,81,false,stim,false,1,840.0,0,1,1,69221,task3,1339196,false,true,1365,image-keyboard-response,24
true,18,2,1,2,true,d,false,true,0.0-2.0-0.43-0.394-3.394,0,0,1,68,false,stim,false,2,664.0,0,1,2,69221,task3,1341388,false,false,1368,image-keyboard-response,25
true,18,1,1,0,false,q,true,false,0.0-2.0-0.43-0.395-3.395,0,0,1,90,false,stim,false,2,845.2999999970198,0,0,0,69221,task3,1343752,false,false,1371,image-keyboard-response,26
true,18,1,1,0,false,q,true,false,0.0-2.0-0.44-0.396-3.396,0,0,1,90,false,stim,false,2,957.4000000059605,0,0,0,69221,task3,1346234,false,false,1374,image-keyboard-response,27
true,19,2,2,0,false,q,true,false,0.0-2.0-0.44-0.397-3.397,0,1,1,68,true,stim,false,0,1161.0,0,1,1,69221,task3,1348921,false,false,1377,image-keyboard-response,1
true,19,2,2,2,true,d,false,true,0.0-2.0-0.44-0.398-3.398,0,1,1,68,false,stim,false,2,731.7999999970198,0,1,2,69221,task3,1351172,false,false,1380,image-keyboard-response,2
true,19,1,2,0,false,q,true,false,0.0-2.0-0.44-0.399-3.399,0,1,1,90,false,stim,false,0,1399.7999999970198,0,1,1,69221,task3,1354110,false,false,1383,image-keyboard-response,3
true,19,2,2,2,true,d,false,true,0.0-2.0-0.44-0.400-3.400,0,1,1,68,false,stim,false,2,834.6000000089407,0,1,2,69221,task3,1356464,false,false,1386,image-keyboard-response,4
true,19,2,2,1,false,z,true,false,0.0-2.0-0.44-0.401-3.401,0,1,1,68,false,stim,false,0,901.9000000059605,0,0,0,69221,task3,1358893,false,false,1389,image-keyboard-response,5
true,19,0,2,1,false,z,false,false,0.0-2.0-0.44-0.402-3.402,0,1,1,81,false,stim,true,0,937.7999999970198,0,0,0,69221,task3,1361363,false,false,1392,image-keyboard-response,6
true,19,2,2,2,true,d,false,false,0.0-2.0-0.44-0.403-3.403,0,1,1,68,false,stim,false,2,870.2000000029802,0,1,2,69221,task3,1363763,false,true,1395,image-keyboard-response,7
true,19,1,2,0,false,q,true,false,0.0-2.0-0.44-0.404-3.404,0,1,1,90,false,stim,false,0,588.6000000089407,0,1,1,69221,task3,1365881,false,false,1398,image-keyboard-response,8
true,19,0,2,2,false,d,true,true,0.0-2.0-0.45-0.405-3.405,0,1,1,81,false,stim,false,2,603.2999999970198,0,1,2,69221,task3,1368024,false,true,1401,image-keyboard-response,9
true,19,2,2,1,false,z,true,false,0.0-2.0-0.45-0.406-3.406,0,1,1,68,false,stim,false,0,1115.0,0,1,0,69221,task3,1370677,false,false,1404,image-keyboard-response,10
true,19,1,2,1,true,z,false,true,0.0-2.0-0.45-0.407-3.407,0,1,1,90,false,stim,false,0,1054.7999999970198,0,1,0,69221,task3,1373251,false,false,1407,image-keyboard-response,11
true,19,0,2,2,false,d,true,false,0.0-2.0-0.45-0.408-3.408,0,1,1,81,false,stim,false,2,955.7000000029802,0,1,2,69221,task3,1375726,false,false,1410,image-keyboard-response,12
true,19,1,2,0,false,q,true,true,0.0-2.0-0.45-0.409-3.409,0,1,1,90,false,stim,false,0,882.5,0,0,1,69221,task3,1378137,false,true,1413,image-keyboard-response,13
true,19,2,2,1,false,z,true,false,0.0-2.0-0.45-0.410-3.410,0,1,1,68,false,stim,false,0,514.5,0,1,0,69221,task3,1380169,false,false,1416,image-keyboard-response,14
true,20,1,2,1,true,z,false,false,0.0-2.0-0.45-0.411-3.411,1,0,1,90,true,stim,false,0,690.2000000029802,0,0,1,69221,task3,1382383,false,true,1419,image-keyboard-response,1
true,20,0,2,1,false,z,false,false,0.0-2.0-0.45-0.412-3.412,1,0,1,81,false,stim,true,0,1226.5,0,0,1,69221,task3,1385132,false,false,1422,image-keyboard-response,2
true,20,2,2,2,true,d,false,true,0.0-2.0-0.45-0.413-3.413,1,0,1,68,false,stim,false,2,1197.4000000059605,0,1,2,69221,task3,1387842,false,false,1425,image-keyboard-response,3
true,20,2,2,2,true,d,false,true,0.0-2.0-0.46-0.414-3.414,1,0,1,68,false,stim,false,2,1082.0,0,1,2,69221,task3,1390453,false,false,1428,image-keyboard-response,4
true,20,0,2,1,false,z,false,false,0.0-2.0-0.46-0.415-3.415,1,0,1,81,false,stim,true,0,1062.2999999970198,0,0,1,69221,task3,1393054,false,false,1431,image-keyboard-response,5
true,20,2,2,2,true,d,false,true,0.0-2.0-0.46-0.416-3.416,1,0,1,68,false,stim,false,2,529.3000000119209,0,1,2,69221,task3,1395107,false,false,1434,image-keyboard-response,6
true,20,1,2,1,true,z,false,true,0.0-2.0-0.46-0.417-3.417,1,0,1,90,false,stim,false,1,655.7999999970198,0,1,0,69221,task3,1397280,false,false,1437,image-keyboard-response,7
true,20,1,2,1,true,z,false,true,0.0-2.0-0.46-0.418-3.418,1,0,1,90,false,stim,false,1,1256.0,0,1,0,69221,task3,1400064,false,false,1440,image-keyboard-response,8
true,20,2,2,2,true,d,false,true,0.0-2.0-0.46-0.419-3.419,1,0,1,68,false,stim,false,2,492.8999999910593,0,1,2,69221,task3,1402082,false,false,1443,image-keyboard-response,9
true,20,1,2,1,true,z,false,true,0.0-2.0-0.46-0.420-3.420,1,0,1,90,false,stim,false,1,603.7000000029802,0,0,0,69221,task3,1404224,false,false,1446,image-keyboard-response,10
true,20,0,2,1,false,z,false,false,0.0-2.0-0.46-0.421-3.421,1,0,1,81,false,stim,true,0,955.2000000029802,0,1,1,69221,task3,1406695,false,false,1449,image-keyboard-response,11
true,20,1,2,1,true,z,false,true,0.0-2.0-0.46-0.422-3.422,1,0,1,90,false,stim,false,0,1310.2000000029802,0,1,1,69221,task3,1409531,false,false,1452,image-keyboard-response,12
true,20,2,2,2,true,d,false,true,0.0-2.0-0.47-0.423-3.423,1,0,1,68,false,stim,false,2,522.0,0,1,2,69221,task3,1411590,false,false,1455,image-keyboard-response,13
true,20,1,2,1,true,z,false,true,0.0-2.0-0.47-0.424-3.424,1,0,1,90,false,stim,false,0,618.6999999880791,0,1,1,69221,task3,1413739,false,false,1458,image-keyboard-response,14
true,21,2,2,2,true,d,false,true,0.0-2.0-0.47-0.425-3.425,0,1,1,68,true,stim,false,2,705.5999999940395,0,1,2,69221,task3,1415978,false,false,1461,image-keyboard-response,1
true,21,1,2,0,false,q,false,false,0.0-2.0-0.47-0.426-3.426,0,1,1,90,false,stim,true,1,634.5,0,0,0,69221,task3,1418138,false,false,1464,image-keyboard-response,2
true,21,1,2,1,true,z,false,false,0.0-2.0-0.47-0.427-3.427,0,1,1,90,false,stim,false,1,1491.2000000029802,0,1,1,69221,task3,1421162,false,true,1467,image-keyboard-response,3
true,21,2,2,2,true,d,false,true,0.0-2.0-0.47-0.428-3.428,0,1,1,68,false,stim,false,2,524.1000000089407,0,1,2,69221,task3,1423209,false,false,1470,image-keyboard-response,4
true,21,0,2,1,false,z,true,false,0.0-2.0-0.47-0.429-3.429,0,1,1,81,false,stim,false,1,757.7000000029802,0,1,1,69221,task3,1425493,false,false,1473,image-keyboard-response,5
true,21,1,2,0,false,q,false,false,0.0-2.0-0.47-0.430-3.430,0,1,1,90,false,stim,true,1,1052.7000000029802,0,0,0,69221,task3,1428075,false,false,1476,image-keyboard-response,6
true,21,0,2,0,true,q,false,true,0.0-2.0-0.47-0.431-3.431,0,1,1,81,false,stim,false,1,1152.7000000029802,0,0,0,69221,task3,1430757,false,false,1479,image-keyboard-response,7
true,21,0,2,0,true,q,false,true,0.0-2.0-0.48-0.432-3.432,0,1,1,81,false,stim,false,1,762.2000000029802,0,0,0,69221,task3,1433038,false,false,1482,image-keyboard-response,8
true,21,2,2,2,true,d,false,true,0.0-2.0-0.48-0.433-3.433,0,1,1,68,false,stim,false,2,715.5,0,1,2,69221,task3,1435288,false,false,1485,image-keyboard-response,9
true,21,0,2,0,true,q,false,true,0.0-2.0-0.48-0.434-3.434,0,1,1,81,false,stim,false,1,710.8999999910593,0,0,0,69221,task3,1437516,false,false,1488,image-keyboard-response,10
true,21,2,2,2,true,d,false,true,0.0-2.0-0.48-0.435-3.435,0,1,1,68,false,stim,false,2,722.7000000029802,0,0,2,69221,task3,1439768,false,false,1491,image-keyboard-response,11
true,21,0,2,1,false,z,true,false,0.0-2.0-0.48-0.436-3.436,0,1,1,81,false,stim,false,1,1149.7999999970198,0,0,1,69221,task3,1442432,false,false,1494,image-keyboard-response,12
true,21,2,2,2,true,d,false,true,0.0-2.0-0.48-0.437-3.437,0,1,1,68,false,stim,false,2,874.5999999940395,0,0,2,69221,task3,1444828,false,false,1497,image-keyboard-response,13
true,21,1,2,1,true,z,false,true,0.0-2.0-0.48-0.438-3.438,0,1,1,90,false,stim,false,1,2871.1000000089407,0,0,1,69221,task3,1449225,false,false,1500,image-keyboard-response,14
true,21,1,2,1,true,z,false,true,0.0-2.0-0.48-0.439-3.439,0,1,1,90,false,stim,false,1,910.8000000119209,0,0,1,69221,task3,1451659,false,false,1503,image-keyboard-response,15
true,22,0,1,0,true,q,false,true,0.0-2.0-0.48-0.440-3.440,1,0,0,81,true,stim,false,0,720.9000000059605,0,1,0,69221,task3,1453894,false,false,1506,image-keyboard-response,1
true,22,0,1,0,true,q,false,true,0.0-2.0-0.49-0.441-3.441,1,0,0,81,false,stim,false,0,733.2000000029802,0,1,0,69221,task3,1456162,false,false,1509,image-keyboard-response,2
true,22,1,1,2,false,d,false,false,0.0-2.0-0.49-0.442-3.442,1,0,0,90,false,stim,true,1,1380.0999999940395,0,0,1,69221,task3,1459061,false,false,1512,image-keyboard-response,3
true,22,2,1,1,false,z,false,false,0.0-2.0-0.49-0.443-3.443,1,0,0,68,false,stim,true,2,1041.0,0,0,2,69221,task3,1461627,false,false,1515,image-keyboard-response,4
true,22,0,1,2,false,d,true,false,0.0-2.0-0.49-0.444-3.444,1,0,0,81,false,stim,false,1,1021.5,0,0,1,69221,task3,1464173,false,false,1518,image-keyboard-response,5
true,22,1,1,1,true,z,false,true,0.0-2.0-0.49-0.445-3.445,1,0,0,90,false,stim,false,2,830.9000000059605,0,0,2,69221,task3,1466523,false,false,1521,image-keyboard-response,6
true,22,0,1,1,false,z,true,false,0.0-2.0-0.49-0.446-3.446,1,0,0,81,false,stim,false,2,1442.199999988079,0,0,2,69221,task3,1469484,false,false,1524,image-keyboard-response,7
true,22,1,1,0,false,q,true,false,0.0-2.0-0.49-0.447-3.447,1,0,0,90,false,stim,false,0,1648.5999999940395,0,1,0,69221,task3,1472663,false,false,1527,image-keyboard-response,8
true,22,1,1,2,false,d,false,false,0.0-2.0-0.49-0.448-3.448,1,0,0,90,false,stim,true,1,729.5,0,0,1,69221,task3,1474924,false,false,1530,image-keyboard-response,9
true,22,0,1,0,true,q,false,false,0.0-2.0-0.49-0.449-3.449,1,0,0,81,false,stim,false,0,803.5999999940395,0,0,0,69221,task3,1477252,false,true,1533,image-keyboard-response,10
true,22,2,1,0,false,q,true,false,0.0-2.0-0.50-0.450-3.450,1,0,0,68,false,stim,false,0,666.2000000029802,0,0,0,69221,task3,1479442,false,false,1536,image-keyboard-response,11
true,22,1,1,1,true,z,false,true,0.0-2.0-0.50-0.451-3.451,1,0,0,90,false,stim,false,2,1213.0,0,1,2,69221,task3,1482193,false,false,1539,image-keyboard-response,12
true,22,2,1,2,true,d,false,true,0.0-2.0-0.50-0.452-3.452,1,0,0,68,false,stim,false,1,1121.0,0,1,1,69221,task3,1484830,false,false,1542,image-keyboard-response,13
true,22,2,1,2,true,d,false,true,0.0-2.0-0.50-0.453-3.453,1,0,0,68,false,stim,false,1,904.5999999940395,0,1,1,69221,task3,1487269,false,false,1545,image-keyboard-response,14
true,23,1,2,1,true,z,false,true,0.0-2.0-0.50-0.454-3.454,0,1,1,90,true,stim,false,1,1346.8999999910593,0,1,2,69221,task3,1490129,false,false,1548,image-keyboard-response,1
true,23,2,2,2,true,d,false,true,0.0-2.0-0.50-0.455-3.455,0,1,1,68,false,stim,false,2,768.5,0,1,1,69221,task3,1492416,false,false,1551,image-keyboard-response,2
true,23,1,2,1,true,z,false,true,0.0-2.0-0.50-0.456-3.456,0,1,1,90,false,stim,false,1,1002.2999999970198,0,1,2,69221,task3,1494950,false,false,1554,image-keyboard-response,3
true,23,0,2,1,false,z,false,false,0.0-2.0-0.50-0.457-3.457,0,1,1,81,false,stim,true,0,1377.4000000059605,0,0,0,69221,task3,1497856,false,false,1557,image-keyboard-response,4
true,23,2,2,1,false,z,true,false,0.0-2.0-0.50-0.458-3.458,0,1,1,68,false,stim,false,0,1388.3999999910593,0,0,0,69221,task3,1500770,false,false,1560,image-keyboard-response,5
true,23,1,2,1,true,z,false,true,0.0-2.0-0.51-0.459-3.459,0,1,1,90,false,stim,false,0,719.2000000029802,0,0,0,69221,task3,1503016,false,false,1563,image-keyboard-response,6
true,23,2,2,2,true,d,false,true,0.0-2.0-0.51-0.460-3.460,0,1,1,68,false,stim,false,2,1011.5,0,1,1,69221,task3,1505553,false,false,1566,image-keyboard-response,7
true,23,2,2,2,true,d,false,true,0.0-2.0-0.51-0.461-3.461,0,1,1,68,false,stim,false,2,2427.7000000029802,0,1,1,69221,task3,1509504,false,false,1569,image-keyboard-response,8
true,23,1,2,1,true,z,false,false,0.0-2.0-0.51-0.462-3.462,0,1,1,90,false,stim,false,0,1377.4000000059605,0,0,0,69221,task3,1512422,false,true,1572,image-keyboard-response,9
true,23,2,2,1,false,z,true,true,0.0-2.0-0.51-0.463-3.463,0,1,1,68,false,stim,false,1,850.0,0,1,2,69221,task3,1514810,false,true,1575,image-keyboard-response,10
true,23,2,2,1,false,z,true,false,0.0-2.0-0.51-0.464-3.464,0,1,1,68,false,stim,false,1,672.0,0,1,2,69221,task3,1517002,false,false,1578,image-keyboard-response,11
true,23,1,2,1,true,z,false,true,0.0-2.0-0.51-0.465-3.465,0,1,1,90,false,stim,false,1,486.20000000298023,0,1,2,69221,task3,1519012,false,false,1581,image-keyboard-response,12
true,23,1,2,2,false,d,true,false,0.0-2.0-0.51-0.466-3.466,0,1,1,90,false,stim,false,2,2152.2000000029802,0,1,1,69221,task3,1522698,false,false,1584,image-keyboard-response,13
true,23,1,2,1,true,z,false,true,0.0-2.0-0.51-0.467-3.467,0,1,1,90,false,stim,false,0,1376.8999999910593,0,0,0,69221,task3,1525605,false,false,1587,image-keyboard-response,14
true,23,1,2,1,true,z,false,true,0.0-2.0-0.52-0.468-3.468,0,1,1,90,false,stim,false,0,1017.7999999970198,0,0,0,69221,task3,1528140,false,false,1590,image-keyboard-response,15
true,23,1,2,1,true,z,false,true,0.0-2.0-0.52-0.469-3.469,0,1,1,90,false,stim,false,0,865.4000000059605,0,0,0,69221,task3,1530530,false,false,1593,image-keyboard-response,16
true,23,2,2,2,true,d,false,true,0.0-2.0-0.52-0.470-3.470,0,1,1,68,false,stim,false,2,465.6000000089407,0,1,1,69221,task3,1532526,false,false,1596,image-keyboard-response,17
true,23,2,2,2,true,d,false,true,0.0-2.0-0.52-0.471-3.471,0,1,1,68,false,stim,false,2,472.20000000298023,0,1,1,69221,task3,1534516,false,false,1599,image-keyboard-response,18
true,23,0,2,1,false,z,true,true,0.0-2.0-0.52-0.472-3.472,0,1,1,81,false,stim,false,1,1751.5999999940395,0,1,2,69221,task3,1537802,false,true,1602,image-keyboard-response,19
true,23,1,2,1,true,z,false,true,0.0-2.0-0.52-0.473-3.473,0,1,1,90,false,stim,false,0,818.3999999910593,0,0,0,69221,task3,1540145,false,false,1605,image-keyboard-response,20
true,23,2,2,2,true,d,false,true,0.0-2.0-0.52-0.474-3.474,0,1,1,68,false,stim,false,2,405.30000001192093,0,1,1,69221,task3,1542083,false,false,1608,image-keyboard-response,21
true,23,0,2,1,false,z,true,false,0.0-2.0-0.52-0.475-3.475,0,1,1,81,false,stim,false,1,764.0,0,1,2,69221,task3,1544374,false,false,1611,image-keyboard-response,22
true,23,1,2,1,true,z,false,true,0.0-2.0-0.52-0.476-3.476,0,1,1,90,false,stim,false,1,2815.7999999970198,0,1,2,69221,task3,1548729,false,false,1614,image-keyboard-response,23
true,23,2,2,2,true,d,false,true,0.0-2.0-0.53-0.477-3.477,0,1,1,68,false,stim,false,2,1169.9000000059605,0,1,1,69221,task3,1551419,false,false,1617,image-keyboard-response,24
true,23,1,2,1,true,z,false,true,0.0-2.0-0.53-0.478-3.478,0,1,1,90,false,stim,false,1,1721.5,0,1,2,69221,task3,1554670,false,false,1620,image-keyboard-response,25
true,23,1,2,1,true,z,false,true,0.0-2.0-0.53-0.479-3.479,0,1,1,90,false,stim,false,1,728.5999999940395,0,1,2,69221,task3,1556937,false,false,1623,image-keyboard-response,26
true,23,2,2,2,true,d,false,true,0.0-2.0-0.53-0.480-3.480,0,1,1,68,false,stim,false,2,1899.300000011921,0,1,1,69221,task3,1560351,false,false,1626,image-keyboard-response,27
true,23,1,2,1,true,z,false,true,0.0-2.0-0.53-0.481-3.481,0,1,1,90,false,stim,false,0,923.5,0,0,0,69221,task3,1562800,false,false,1629,image-keyboard-response,28
true,24,2,2,1,false,z,true,false,0.0-2.0-0.53-0.482-3.482,0,1,1,68,true,stim,false,1,769.5999999940395,0,1,2,69221,task3,1565097,false,false,1632,image-keyboard-response,1
true,24,1,2,2,false,d,true,false,0.0-2.0-0.53-0.483-3.483,0,1,1,90,false,stim,false,2,430.70000000298023,0,1,1,69221,task3,1567056,false,false,1635,image-keyboard-response,2
true,24,1,2,2,false,d,false,false,0.0-2.0-0.53-0.484-3.484,0,1,1,90,false,stim,true,1,784.0,0,0,0,69221,task3,1569358,false,false,1638,image-keyboard-response,3
true,24,0,2,2,false,d,true,true,0.0-2.0-0.53-0.485-3.485,0,1,1,81,false,stim,false,1,418.69999998807907,0,0,0,69221,task3,1571311,false,true,1641,image-keyboard-response,4
true,24,1,2,2,false,d,true,false,0.0-2.0-0.54-0.486-3.486,0,1,1,90,false,stim,false,2,1077.4000000059605,0,1,1,69221,task3,1573922,false,false,1644,image-keyboard-response,5
true,24,0,2,2,false,d,true,false,0.0-2.0-0.54-0.487-3.487,0,1,1,81,false,stim,false,1,452.0,0,0,0,69221,task3,1575900,false,false,1647,image-keyboard-response,6
true,24,1,2,2,false,d,false,false,0.0-2.0-0.54-0.488-3.488,0,1,1,90,false,stim,true,1,695.5,0,0,0,69221,task3,1578120,false,false,1650,image-keyboard-response,7
true,24,2,2,2,true,d,false,true,0.0-2.0-0.54-0.489-3.489,0,1,1,68,false,stim,false,2,1140.0,0,1,1,69221,task3,1580779,false,false,1653,image-keyboard-response,8
true,24,2,2,2,true,d,false,true,0.0-2.0-0.54-0.490-3.490,0,1,1,68,false,stim,false,2,1016.5,0,1,1,69221,task3,1583334,false,false,1656,image-keyboard-response,9
true,24,1,2,1,true,z,false,true,0.0-2.0-0.54-0.491-3.491,0,1,1,90,false,stim,false,1,1495.2000000029802,0,1,2,69221,task3,1586356,false,false,1659,image-keyboard-response,10
true,24,0,2,2,false,d,true,false,0.0-2.0-0.54-0.492-3.492,0,1,1,81,false,stim,false,1,1286.6000000089407,0,1,0,69221,task3,1589158,false,false,1662,image-keyboard-response,11
true,24,1,2,1,true,z,false,true,0.0-2.0-0.54-0.493-3.493,0,1,1,90,false,stim,false,1,1355.7000000029802,0,1,2,69221,task3,1592032,false,false,1665,image-keyboard-response,12
true,24,1,2,1,true,z,false,true,0.0-2.0-0.54-0.494-3.494,0,1,1,90,false,stim,false,1,1529.699999988079,0,1,2,69221,task3,1595082,false,false,1668,image-keyboard-response,13
true,24,2,2,2,true,d,false,true,0.0-2.0-0.55-0.495-3.495,0,1,1,68,false,stim,false,2,345.20000000298023,0,0,1,69221,task3,1596959,false,false,1671,image-keyboard-response,14
true,24,2,2,2,true,d,false,true,0.0-2.0-0.55-0.496-3.496,0,1,1,68,false,stim,false,1,1313.2999999970198,0,1,0,69221,task3,1599809,false,false,1674,image-keyboard-response,15
true,25,2,2,2,true,d,false,true,0.0-2.0-0.55-0.497-3.497,1,0,1,68,true,stim,false,2,2532.0,0,1,0,69221,task3,1603865,false,false,1677,image-keyboard-response,1
true,25,1,2,1,true,z,false,false,0.0-2.0-0.55-0.498-3.498,1,0,1,90,false,stim,false,1,1440.8999999910593,0,1,2,69221,task3,1606830,false,true,1680,image-keyboard-response,2
true,25,0,2,1,false,z,true,false,0.0-2.0-0.55-0.499-3.499,1,0,1,81,false,stim,false,1,723.5999999940395,0,1,2,69221,task3,1609087,false,false,1683,image-keyboard-response,3
true,25,2,2,0,false,q,false,false,0.0-2.0-0.55-0.500-3.500,1,0,1,68,false,stim,true,2,1410.3999999910593,0,0,1,69221,task3,1612009,false,false,1686,image-keyboard-response,4
true,25,1,2,0,false,q,true,false,0.0-2.0-0.55-0.501-3.501,1,0,1,90,false,stim,false,2,436.70000000298023,0,0,1,69221,task3,1613968,false,false,1689,image-keyboard-response,5
true,25,2,2,2,true,d,false,true,0.0-2.0-0.55-0.502-3.502,1,0,1,68,false,stim,false,2,1007.7000000029802,0,1,0,69221,task3,1616500,false,false,1692,image-keyboard-response,6
true,25,0,2,1,false,z,true,true,0.0-2.0-0.55-0.503-3.503,1,0,1,81,false,stim,false,1,884.5,0,1,2,69221,task3,1618899,false,true,1695,image-keyboard-response,7
true,25,1,2,2,false,d,true,false,0.0-2.0-0.56-0.504-3.504,1,0,1,90,false,stim,false,2,1316.2000000029802,0,1,0,69221,task3,1621735,false,false,1698,image-keyboard-response,8
true,25,0,2,0,true,q,false,true,0.0-2.0-0.56-0.505-3.505,1,0,1,81,false,stim,false,2,1045.2999999970198,0,1,1,69221,task3,1624314,false,false,1701,image-keyboard-response,9
true,25,1,2,1,true,z,false,false,0.0-2.0-0.56-0.506-3.506,1,0,1,90,false,stim,false,1,1471.0999999940395,0,1,2,69221,task3,1627315,false,true,1704,image-keyboard-response,10
true,26,0,0,0,true,q,false,true,0.0-2.0-0.56-0.507-3.507,1,1,1,81,true,stim,false,0,1412.0,0,1,1,69221,task3,1751450,false,false,1827,image-keyboard-response,1
true,26,2,0,1,false,z,true,false,0.0-2.0-0.56-0.508-3.508,1,1,1,68,false,stim,false,1,642.1999999880791,0,1,2,69221,task3,1753631,false,false,1830,image-keyboard-response,2
true,26,1,0,0,false,q,true,false,0.0-2.0-0.56-0.509-3.509,1,1,1,90,false,stim,false,0,585.5,0,1,1,69221,task3,1755740,false,false,1833,image-keyboard-response,3
true,26,1,0,2,false,d,true,false,0.0-2.0-0.56-0.510-3.510,1,1,1,90,false,stim,false,2,735.2000000029802,0,1,0,69221,task3,1757991,false,false,1836,image-keyboard-response,4
true,26,0,0,2,false,d,true,false,0.0-2.0-0.56-0.511-3.511,1,1,1,81,false,stim,false,2,1218.2999999970198,0,1,0,69221,task3,1760741,false,false,1839,image-keyboard-response,5
true,26,2,0,1,false,z,true,false,0.0-2.0-0.56-0.512-3.512,1,1,1,68,false,stim,false,1,676.7999999970198,0,1,2,69221,task3,1762949,false,false,1842,image-keyboard-response,6
true,26,1,0,1,true,z,false,true,0.0-2.0-0.57-0.513-3.513,1,1,1,90,false,stim,false,1,679.4000000059605,0,1,2,69221,task3,1765159,false,false,1845,image-keyboard-response,7
true,26,1,0,1,true,z,false,true,0.0-2.0-0.57-0.514-3.514,1,1,1,90,false,stim,false,1,706.5,0,1,2,69221,task3,1767395,false,false,1848,image-keyboard-response,8
true,26,2,0,2,true,d,false,true,0.0-2.0-0.57-0.515-3.515,1,1,1,68,false,stim,false,2,1115.6000000089407,0,1,0,69221,task3,1770036,false,false,1851,image-keyboard-response,9
true,26,0,0,0,true,q,false,true,0.0-2.0-0.57-0.516-3.516,1,1,1,81,false,stim,false,0,573.2999999970198,0,1,1,69221,task3,1772127,false,false,1854,image-keyboard-response,10
true,26,2,0,2,true,d,false,true,0.0-2.0-0.57-0.517-3.517,1,1,1,68,false,stim,false,2,1214.0999999940395,0,0,0,69221,task3,1774866,false,false,1857,image-keyboard-response,11
true,26,0,0,0,true,q,false,true,0.0-2.0-0.57-0.518-3.518,1,1,1,81,false,stim,false,0,776.7999999970198,0,1,1,69221,task3,1777152,false,false,1860,image-keyboard-response,12
true,26,0,0,0,true,q,false,true,0.0-2.0-0.57-0.519-3.519,1,1,1,81,false,stim,false,0,658.0,0,1,1,69221,task3,1779335,false,false,1863,image-keyboard-response,13
true,26,2,0,2,true,d,false,true,0.0-2.0-0.57-0.520-3.520,1,1,1,68,false,stim,false,2,1006.5,0,0,0,69221,task3,1781860,false,false,1866,image-keyboard-response,14
true,27,1,2,1,true,z,false,true,0.0-2.0-0.57-0.521-3.521,0,1,1,90,true,stim,false,1,930.5,0,1,2,69221,task3,1784316,false,false,1869,image-keyboard-response,1
true,27,2,2,1,false,z,false,false,0.0-2.0-0.58-0.522-3.522,0,1,1,68,false,stim,true,2,1013.7999999970198,0,0,0,69221,task3,1786850,false,false,1872,image-keyboard-response,2
true,27,1,2,1,true,z,false,true,0.0-2.0-0.58-0.523-3.523,0,1,1,90,false,stim,false,2,607.5,0,0,0,69221,task3,1788977,false,false,1875,image-keyboard-response,3
true,27,0,2,0,true,q,false,true,0.0-2.0-0.58-0.524-3.524,0,1,1,81,false,stim,false,0,1062.0,0,1,1,69221,task3,1791568,false,false,1878,image-keyboard-response,4
true,27,1,2,1,true,z,false,true,0.0-2.0-0.58-0.525-3.525,0,1,1,90,false,stim,false,2,1138.1000000089407,0,0,0,69221,task3,1794227,false,false,1881,image-keyboard-response,5
true,27,2,2,1,false,z,true,false,0.0-2.0-0.58-0.526-3.526,0,1,1,68,false,stim,false,1,611.7000000029802,0,1,2,69221,task3,1796368,false,false,1884,image-keyboard-response,6
true,27,0,2,0,true,q,false,true,0.0-2.0-0.58-0.527-3.527,0,1,1,81,false,stim,false,0,903.6999999880791,0,1,1,69221,task3,1798794,false,false,1887,image-keyboard-response,7
true,27,0,2,0,true,q,false,true,0.0-2.0-0.58-0.528-3.528,0,1,1,81,false,stim,false,0,556.6000000089407,0,1,1,69221,task3,1800873,false,false,1890,image-keyboard-response,8
true,27,2,2,1,false,z,true,false,0.0-2.0-0.58-0.529-3.529,0,1,1,68,false,stim,false,1,1140.2000000029802,0,1,2,69221,task3,1803533,false,false,1893,image-keyboard-response,9
true,27,0,2,1,false,z,true,false,0.0-2.0-0.58-0.530-3.530,0,1,1,81,false,stim,false,1,1254.2000000029802,0,1,2,69221,task3,1806304,false,false,1896,image-keyboard-response,10
true,27,0,2,0,true,q,false,true,0.0-2.0-0.59-0.531-3.531,0,1,1,81,false,stim,false,0,767.1999999880791,0,1,1,69221,task3,1808603,false,false,1899,image-keyboard-response,11
true,27,1,2,1,true,z,false,true,0.0-2.0-0.59-0.532-3.532,0,1,1,90,false,stim,false,1,1313.1000000089407,0,1,2,69221,task3,1811445,false,false,1902,image-keyboard-response,12
true,27,0,2,0,true,q,false,true,0.0-2.0-0.59-0.533-3.533,0,1,1,81,false,stim,false,0,1096.7999999970198,0,1,1,69221,task3,1814063,false,false,1905,image-keyboard-response,13
true,27,1,2,1,true,z,false,true,0.0-2.0-0.59-0.534-3.534,0,1,1,90,false,stim,false,1,648.2999999970198,0,1,2,69221,task3,1816237,false,false,1908,image-keyboard-response,14
true,27,1,2,1,true,z,false,true,0.0-2.0-0.59-0.535-3.535,0,1,1,90,false,stim,false,2,1157.2999999970198,0,0,0,69221,task3,1818927,false,false,1911,image-keyboard-response,15
true,27,1,2,1,true,z,false,true,0.0-2.0-0.59-0.536-3.536,0,1,1,90,false,stim,false,2,1277.2999999970198,0,0,0,69221,task3,1821732,false,false,1914,image-keyboard-response,16
true,27,0,2,0,true,q,false,true,0.0-2.0-0.59-0.537-3.537,0,1,1,81,false,stim,false,0,1011.4000000059605,0,1,1,69221,task3,1824262,false,false,1917,image-keyboard-response,17
true,27,1,2,1,true,z,false,true,0.0-2.0-0.59-0.538-3.538,0,1,1,90,false,stim,false,2,751.9000000059605,0,0,0,69221,task3,1826526,false,false,1920,image-keyboard-response,18
true,27,1,2,1,true,z,false,true,0.0-2.0-0.59-0.539-3.539,0,1,1,90,false,stim,false,1,756.2000000029802,0,1,2,69221,task3,1828808,false,false,1923,image-keyboard-response,19
true,27,1,2,1,true,z,false,true,0.0-2.0-0.60-0.540-3.540,0,1,1,90,false,stim,false,2,999.0,0,0,0,69221,task3,1831334,false,false,1926,image-keyboard-response,20
true,27,1,2,0,false,q,true,true,0.0-2.0-0.60-0.541-3.541,0,1,1,90,false,stim,false,0,911.7999999970198,0,0,1,69221,task3,1833759,false,true,1929,image-keyboard-response,21
true,27,1,2,1,true,z,false,true,0.0-2.0-0.60-0.542-3.542,0,1,1,90,false,stim,false,2,1893.5999999940395,0,0,0,69221,task3,1837177,false,false,1932,image-keyboard-response,22
true,27,1,2,1,true,z,false,true,0.0-2.0-0.60-0.543-3.543,0,1,1,90,false,stim,false,1,702.7000000029802,0,1,2,69221,task3,1839406,false,false,1935,image-keyboard-response,23
true,27,1,2,1,true,z,false,true,0.0-2.0-0.60-0.544-3.544,0,1,1,90,false,stim,false,1,889.7999999970198,0,1,2,69221,task3,1841824,false,false,1938,image-keyboard-response,24
true,27,1,2,1,true,z,false,true,0.0-2.0-0.60-0.545-3.545,0,1,1,90,false,stim,false,1,509.69999998807907,0,1,2,69221,task3,1843863,false,false,1941,image-keyboard-response,25
true,28,0,1,1,false,z,false,false,0.0-2.0-0.60-0.546-3.546,0,0,1,81,true,stim,true,0,409.20000000298023,0,0,1,69221,task3,1845810,false,false,1944,image-keyboard-response,1
true,28,1,1,1,true,z,false,true,0.0-2.0-0.60-0.547-3.547,0,0,1,90,false,stim,false,0,437.6000000089407,0,0,1,69221,task3,1847777,false,false,1947,image-keyboard-response,2
true,28,1,1,0,false,q,false,false,0.0-2.0-0.60-0.548-3.548,0,0,1,90,false,stim,true,1,1020.8000000119209,0,0,0,69221,task3,1850320,false,false,1950,image-keyboard-response,3
true,28,0,1,0,true,q,false,true,0.0-2.0-0.61-0.549-3.549,0,0,1,81,false,stim,false,1,1180.2000000029802,0,0,0,69221,task3,1853031,false,false,1953,image-keyboard-response,4
true,28,1,1,1,true,z,false,true,0.0-2.0-0.61-0.550-3.550,0,0,1,90,false,stim,false,1,1626.9000000059605,0,1,2,69221,task3,1856195,false,false,1956,image-keyboard-response,5
true,28,0,1,1,false,z,false,false,0.0-2.0-0.61-0.551-3.551,0,0,1,81,false,stim,true,0,2264.9000000059605,0,0,1,69221,task3,1859986,false,false,1959,image-keyboard-response,6
true,28,0,1,0,true,q,false,true,0.0-2.0-0.61-0.552-3.552,0,0,1,81,false,stim,false,1,1088.0999999940395,0,0,0,69221,task3,1862606,false,false,1962,image-keyboard-response,7
true,28,1,1,1,true,z,false,false,0.0-2.0-0.61-0.553-3.553,0,0,1,90,false,stim,false,0,532.9000000059605,0,0,1,69221,task3,1864668,false,true,1965,image-keyboard-response,8
true,28,2,1,1,false,z,true,false,0.0-2.0-0.61-0.554-3.554,0,0,1,68,false,stim,false,0,817.3000000119209,0,0,1,69221,task3,1867008,false,false,1968,image-keyboard-response,9
true,28,0,1,0,true,q,false,true,0.0-2.0-0.61-0.555-3.555,0,0,1,81,false,stim,false,1,981.9000000059605,0,0,0,69221,task3,1869515,false,false,1971,image-keyboard-response,10
true,28,1,1,1,true,z,false,true,0.0-2.0-0.61-0.556-3.556,0,0,1,90,false,stim,false,1,810.7999999970198,0,1,2,69221,task3,1871864,false,false,1974,image-keyboard-response,11
true,28,1,1,1,true,z,false,true,0.0-2.0-0.61-0.557-3.557,0,0,1,90,false,stim,false,1,2501.5999999940395,0,1,2,69221,task3,1875894,false,false,1977,image-keyboard-response,12
true,28,0,1,0,true,q,false,true,0.0-2.0-0.62-0.558-3.558,0,0,1,81,false,stim,false,1,694.5999999940395,0,0,0,69221,task3,1878120,false,false,1980,image-keyboard-response,13
true,28,0,1,1,false,z,false,false,0.0-2.0-0.62-0.559-3.559,0,0,1,81,false,stim,true,0,437.59999999403954,0,0,1,69221,task3,1880077,false,false,1983,image-keyboard-response,14
true,28,0,1,0,true,q,false,true,0.0-2.0-0.62-0.560-3.560,0,0,1,81,false,stim,false,1,1100.2999999970198,0,0,0,69221,task3,1882706,false,false,1986,image-keyboard-response,15
true,28,1,1,1,true,z,false,true,0.0-2.0-0.62-0.561-3.561,0,0,1,90,false,stim,false,0,560.7000000029802,0,0,1,69221,task3,1884804,false,false,1989,image-keyboard-response,16
true,28,1,1,1,true,z,false,true,0.0-2.0-0.62-0.562-3.562,0,0,1,90,false,stim,false,1,952.9000000059605,0,1,2,69221,task3,1887283,false,false,1992,image-keyboard-response,17
true,28,1,1,1,true,z,false,true,0.0-2.0-0.62-0.563-3.563,0,0,1,90,false,stim,false,1,609.2999999970198,0,1,2,69221,task3,1889419,false,false,1995,image-keyboard-response,18
true,28,1,1,1,true,z,false,true,0.0-2.0-0.62-0.564-3.564,0,0,1,90,false,stim,false,0,756.9000000059605,0,0,1,69221,task3,1891711,false,false,1998,image-keyboard-response,19
true,28,1,1,1,true,z,false,true,0.0-2.0-0.62-0.565-3.565,0,0,1,90,false,stim,false,1,989.3000000119209,0,1,2,69221,task3,1894238,false,false,2001,image-keyboard-response,20
true,28,0,1,0,true,q,false,true,0.0-2.0-0.62-0.566-3.566,0,0,1,81,false,stim,false,1,999.2999999970198,0,0,0,69221,task3,1896754,false,false,2004,image-keyboard-response,21
true,28,1,1,1,true,z,false,true,0.0-2.0-0.63-0.567-3.567,0,0,1,90,false,stim,false,0,695.0,0,0,1,69221,task3,1898988,false,false,2007,image-keyboard-response,22
true,28,1,1,1,true,z,false,false,0.0-2.0-0.63-0.568-3.568,0,0,1,90,false,stim,false,0,792.2000000029802,0,0,1,69221,task3,1901317,false,true,2010,image-keyboard-response,23
true,28,1,1,1,true,z,false,true,0.0-2.0-0.63-0.569-3.569,0,0,1,90,false,stim,false,1,1305.1000000089407,0,0,2,69221,task3,1904151,false,false,2013,image-keyboard-response,24
false,28,-1,1,1,false,z,true,false,0.0-2.0-0.63-0.570-3.570,0,0,1,,false,stim,false,1,,0,0,2,69221,task3,1908707,false,false,2016,image-keyboard-response,25
true,28,0,1,0,true,q,false,true,0.0-2.0-0.63-0.571-3.571,0,0,1,81,false,stim,false,1,715.0999999940395,0,1,0,69221,task3,1910955,false,false,2019,image-keyboard-response,26
true,29,0,1,0,true,q,false,true,0.0-2.0-0.63-0.572-3.572,1,0,0,81,true,stim,false,0,701.0999999940395,0,1,0,69221,task3,1913171,false,false,2022,image-keyboard-response,1
true,29,0,1,0,true,q,false,true,0.0-2.0-0.63-0.573-3.573,1,0,0,81,false,stim,false,0,581.2999999970198,0,1,0,69221,task3,1915273,false,false,2025,image-keyboard-response,2
true,29,0,1,2,false,d,true,false,0.0-2.0-0.63-0.574-3.574,1,0,0,81,false,stim,false,1,701.7000000029802,0,0,1,69221,task3,1917508,false,false,2028,image-keyboard-response,3
true,29,1,1,0,false,q,false,false,0.0-2.0-0.63-0.575-3.575,1,0,0,90,false,stim,true,1,539.0,0,0,2,69221,task3,1919580,false,false,2031,image-keyboard-response,4
true,29,1,1,2,false,d,false,false,0.0-2.0-0.64-0.576-3.576,1,0,0,90,false,stim,true,1,1247.4000000059605,0,0,1,69221,task3,1922350,false,false,2034,image-keyboard-response,5
true,29,2,1,0,false,q,true,false,0.0-2.0-0.64-0.577-3.577,1,0,0,68,false,stim,false,1,754.2999999970198,0,0,2,69221,task3,1924627,false,false,2037,image-keyboard-response,6
true,29,0,1,0,true,q,false,true,0.0-2.0-0.64-0.578-3.578,1,0,0,81,false,stim,false,0,628.0,0,1,0,69221,task3,1926788,false,false,2040,image-keyboard-response,7
true,29,2,1,2,true,d,false,true,0.0-2.0-0.64-0.579-3.579,1,0,0,68,false,stim,false,1,637.6000000089407,0,0,1,69221,task3,1928940,false,false,2043,image-keyboard-response,8
true,29,2,1,2,true,d,false,false,0.0-2.0-0.64-0.580-3.580,1,0,0,68,false,stim,false,1,943.3999999910593,0,0,1,69221,task3,1931417,false,true,2046,image-keyboard-response,9
true,29,1,1,0,false,q,false,false,0.0-2.0-0.64-0.581-3.581,1,0,0,90,false,stim,true,1,630.2999999970198,0,0,2,69221,task3,1933558,false,false,2049,image-keyboard-response,10
true,29,0,1,0,true,q,false,true,0.0-2.0-0.64-0.582-3.582,1,0,0,81,false,stim,false,0,752.2999999970198,0,1,0,69221,task3,1935840,false,false,2052,image-keyboard-response,11
true,29,0,1,0,true,q,false,true,0.0-2.0-0.64-0.583-3.583,1,0,0,81,false,stim,false,1,458.0,0,0,2,69221,task3,1937836,false,false,2055,image-keyboard-response,12
true,29,0,1,0,true,q,false,true,0.0-2.0-0.64-0.584-3.584,1,0,0,81,false,stim,false,0,678.5999999940395,0,1,0,69221,task3,1940040,false,false,2058,image-keyboard-response,13
true,29,0,1,2,false,d,true,false,0.0-2.0-0.65-0.585-3.585,1,0,0,81,false,stim,false,1,742.8999999910593,0,0,1,69221,task3,1942308,false,false,2061,image-keyboard-response,14
true,29,0,1,0,true,q,false,true,0.0-2.0-0.65-0.586-3.586,1,0,0,81,false,stim,false,0,745.4000000059605,0,1,0,69221,task3,1944582,false,false,2064,image-keyboard-response,15
true,29,1,1,0,false,q,false,false,0.0-2.0-0.65-0.587-3.587,1,0,0,90,false,stim,true,1,569.2999999970198,0,0,2,69221,task3,1946679,false,false,2067,image-keyboard-response,16
true,29,2,1,0,false,q,true,false,0.0-2.0-0.65-0.588-3.588,1,0,0,68,false,stim,false,1,669.0,0,0,2,69221,task3,1948881,false,false,2070,image-keyboard-response,17
