answered,blockNum,choice,condition,corResp,correct,correct_response,explo,fb,internal_node_id,isStable_1,isStable_2,isStable_3,key_press,newBlock,part,persev,persevResp,rt,sessNum,stableAS,stimulus,subject,task,time_elapsed,training,trap,trial_index,trial_type,trialsInBlock
true,1,1,0,2,false,d,true,false,0.0-2.0-0.0-0.0-3.0,0,0,0,90,true,stim,false,-1,2749.3999999910593,0,0,0,69313,task1,244307,false,false,116,image-keyboard-response,1
true,1,0,0,1,false,z,true,false,0.0-2.0-0.0-0.1-3.1,0,0,0,81,false,stim,false,-1,1773.699999988079,0,0,2,69313,task1,247591,false,false,119,image-keyboard-response,2
true,1,2,0,2,true,d,false,false,0.0-2.0-0.0-0.2-3.2,0,0,0,68,false,stim,false,-1,2022.4000000059605,0,0,0,69313,task1,251124,false,true,122,image-keyboard-response,3
true,1,1,0,0,false,q,true,false,0.0-2.0-0.0-0.3-3.3,0,0,0,90,false,stim,false,-1,1391.5,0,0,1,69313,task1,254026,false,false,125,image-keyboard-response,4
true,1,0,0,1,false,z,true,false,0.0-2.0-0.0-0.4-3.4,0,0,0,81,false,stim,false,-1,1076.2000000029802,0,0,2,69313,task1,256619,false,false,128,image-keyboard-response,5
true,1,0,0,0,true,q,false,true,0.0-2.0-0.0-0.5-3.5,0,0,0,81,false,stim,false,-1,1054.300000011921,0,0,1,69313,task1,259181,false,false,131,image-keyboard-response,6
true,1,1,0,1,true,z,false,true,0.0-2.0-0.0-0.6-3.6,0,0,0,90,false,stim,false,-1,1846.2999999970198,0,0,2,69313,task1,262538,false,false,134,image-keyboard-response,7
true,1,1,0,2,false,d,true,false,0.0-2.0-0.0-0.7-3.7,0,0,0,90,false,stim,false,-1,1066.5,0,0,0,69313,task1,265116,false,false,137,image-keyboard-response,8
true,1,0,0,0,true,q,false,false,0.0-2.0-0.0-0.8-3.8,0,0,0,81,false,stim,false,-1,719.0,0,0,1,69313,task1,267343,false,true,140,image-keyboard-response,9
true,1,0,0,1,false,z,true,false,0.0-2.0-0.1-0.9-3.9,0,0,0,81,false,stim,false,-1,1102.6000000089407,0,0,2,69313,task1,269957,false,false,143,image-keyboard-response,10
true,1,1,0,0,false,q,true,false,0.0-2.0-0.1-0.10-3.10,0,0,0,90,false,stim,false,-1,2314.4000000059605,0,0,1,69313,task1,273786,false,false,146,image-keyboard-response,11
true,1,0,0,0,true,q,false,true,0.0-2.0-0.1-0.11-3.11,0,0,0,81,false,stim,false,-1,1193.800000011921,0,0,1,69313,task1,276494,false,false,149,image-keyboard-response,12
true,1,1,0,1,true,z,false,true,0.0-2.0-0.1-0.12-3.12,0,0,0,90,false,stim,false,-1,1738.7000000029802,0,0,2,69313,task1,279744,false,false,152,image-keyboard-response,13
true,1,2,0,2,true,d,false,true,0.0-2.0-0.1-0.13-3.13,0,0,0,68,false,stim,false,-1,1983.7999999970198,0,0,0,69313,task1,283238,false,false,155,image-keyboard-response,14
true,1,2,0,2,true,d,false,true,0.0-2.0-0.1-0.14-3.14,0,0,0,68,false,stim,false,-1,1246.8999999910593,0,0,0,69313,task1,285997,false,false,158,image-keyboard-response,15
true,1,1,0,0,false,q,true,false,0.0-2.0-0.1-0.15-3.15,0,0,0,90,false,stim,false,-1,1697.9000000059605,0,0,1,69313,task1,289209,false,false,161,image-keyboard-response,16
true,1,1,0,2,false,d,true,false,0.0-2.0-0.1-0.16-3.16,0,0,0,90,false,stim,false,-1,1693.0,0,0,0,69313,task1,292415,false,false,164,image-keyboard-response,17
true,1,2,0,1,false,z,true,false,0.0-2.0-0.1-0.17-3.17,0,0,0,68,false,stim,false,-1,2020.0,0,0,2,69313,task1,295949,false,false,167,image-keyboard-response,18
true,1,1,0,1,true,z,false,true,0.0-2.0-0.2-0.18-3.18,0,0,0,90,false,stim,false,-1,2686.7999999970198,0,0,2,69313,task1,300151,false,false,170,image-keyboard-response,19
true,1,1,0,1,true,z,false,true,0.0-2.0-0.2-0.19-3.19,0,0,0,90,false,stim,false,-1,876.1000000089407,0,0,2,69313,task1,302539,false,false,173,image-keyboard-response,20
true,1,1,0,1,true,z,false,true,0.0-2.0-0.2-0.20-3.20,0,0,0,90,false,stim,false,-1,540.4000000059605,0,0,2,69313,task1,304589,false,false,176,image-keyboard-response,21
true,1,0,0,2,false,d,true,false,0.0-2.0-0.2-0.21-3.21,0,0,0,81,false,stim,false,-1,1278.8999999910593,0,0,0,69313,task1,307379,false,false,179,image-keyboard-response,22
true,1,0,0,0,true,q,false,true,0.0-2.0-0.2-0.22-3.22,0,0,0,81,false,stim,false,-1,1441.5,0,0,1,69313,task1,310335,false,false,182,image-keyboard-response,23
true,1,0,0,0,true,q,false,true,0.0-2.0-0.2-0.23-3.23,0,0,0,81,false,stim,false,-1,562.3999999910593,0,0,1,69313,task1,312406,false,false,185,image-keyboard-response,24
true,1,0,0,0,true,q,false,true,0.0-2.0-0.2-0.24-3.24,0,0,0,81,false,stim,false,-1,383.29999999701977,0,0,1,69313,task1,314301,false,false,188,image-keyboard-response,25
false,1,-1,0,2,false,d,false,false,0.0-2.0-0.2-0.25-3.25,0,0,0,,false,stim,true,-1,,0,0,0,69313,task1,318816,false,false,191,image-keyboard-response,26
true,2,2,1,1,false,z,false,false,0.0-2.0-0.2-0.26-3.26,0,0,0,68,true,stim,true,2,1539.7000000029802,0,0,0,69313,task1,321870,false,false,194,image-keyboard-response,1
true,2,1,1,2,false,d,false,false,0.0-2.0-0.3-0.27-3.27,0,0,0,90,false,stim,true,1,2063.3999999910593,0,0,2,69313,task1,325443,false,false,197,image-keyboard-response,2
true,2,0,1,2,false,d,true,false,0.0-2.0-0.3-0.28-3.28,0,0,0,81,false,stim,false,1,740.2999999970198,0,0,2,69313,task1,327696,false,false,200,image-keyboard-response,3
true,2,2,1,2,true,d,false,true,0.0-2.0-0.3-0.29-3.29,0,0,0,68,false,stim,false,1,895.7000000029802,0,0,2,69313,task1,330109,false,false,203,image-keyboard-response,4
true,2,0,1,2,false,d,false,false,0.0-2.0-0.3-0.30-3.30,0,0,0,81,false,stim,true,0,1115.0999999940395,0,0,1,69313,task1,332734,false,false,206,image-keyboard-response,5
true,2,0,1,1,false,z,true,false,0.0-2.0-0.3-0.31-3.31,0,0,0,81,false,stim,false,2,1412.9000000059605,0,0,0,69313,task1,335655,false,false,209,image-keyboard-response,6
true,2,2,1,1,false,z,false,false,0.0-2.0-0.3-0.32-3.32,0,0,0,68,false,stim,true,2,869.7000000029802,0,0,0,69313,task1,338033,false,false,212,image-keyboard-response,7
true,2,1,1,1,true,z,false,false,0.0-2.0-0.3-0.33-3.33,0,0,0,90,false,stim,false,2,982.9000000059605,0,0,0,69313,task1,340529,false,true,215,image-keyboard-response,8
true,2,1,1,2,false,d,true,false,0.0-2.0-0.3-0.34-3.34,0,0,0,90,false,stim,false,0,1664.7999999970198,0,0,1,69313,task1,343704,false,false,218,image-keyboard-response,9
true,2,0,1,2,false,d,false,false,0.0-2.0-0.3-0.35-3.35,0,0,0,81,false,stim,true,0,794.6999999880791,0,0,1,69313,task1,346011,false,false,221,image-keyboard-response,10
true,2,2,1,1,false,z,false,true,0.0-2.0-0.4-0.36-3.36,0,0,0,68,false,stim,true,2,821.5,0,0,0,69313,task1,348340,false,true,224,image-keyboard-response,11
true,2,2,1,2,true,d,false,true,0.0-2.0-0.4-0.37-3.37,0,0,0,68,false,stim,false,0,1101.199999988079,0,0,1,69313,task1,350956,false,false,227,image-keyboard-response,12
false,2,-1,1,2,false,d,true,false,0.0-2.0-0.4-0.38-3.38,0,0,0,,false,stim,false,1,,0,0,2,69313,task1,355469,false,false,230,image-keyboard-response,13
false,2,-1,1,2,false,d,true,false,0.0-2.0-0.4-0.39-3.39,0,0,0,,false,stim,false,0,,0,0,1,69313,task1,359986,false,false,233,image-keyboard-response,14
true,2,2,1,2,true,d,false,false,0.0-2.0-0.4-0.40-3.40,0,0,0,68,false,stim,false,0,632.8000000119209,0,0,1,69313,task1,362129,false,true,236,image-keyboard-response,15
true,2,1,1,2,false,d,false,false,0.0-2.0-0.4-0.41-3.41,0,0,0,90,false,stim,true,1,557.4000000059605,0,0,2,69313,task1,364196,false,false,239,image-keyboard-response,16
true,2,0,1,1,false,z,true,false,0.0-2.0-0.4-0.42-3.42,0,0,0,81,false,stim,false,2,321.0,0,0,0,69313,task1,366029,false,false,242,image-keyboard-response,17
false,2,-1,1,2,false,d,true,false,0.0-2.0-0.4-0.43-3.43,0,0,0,,false,stim,false,1,,0,0,2,69313,task1,370546,false,false,245,image-keyboard-response,18
true,2,0,1,1,false,z,true,false,0.0-2.0-0.4-0.44-3.44,0,0,0,81,false,stim,false,2,1477.2000000029802,0,0,0,69313,task1,373536,false,false,248,image-keyboard-response,19
true,2,1,1,2,false,d,false,false,0.0-2.0-0.5-0.45-3.45,0,0,0,90,false,stim,true,1,1988.9000000059605,0,0,2,69313,task1,377040,false,false,251,image-keyboard-response,20
true,2,0,1,1,false,z,true,false,0.0-2.0-0.5-0.46-3.46,0,0,0,81,false,stim,false,2,2000.7000000029802,0,0,0,69313,task1,380554,false,false,254,image-keyboard-response,21
true,2,2,1,1,false,z,false,false,0.0-2.0-0.5-0.47-3.47,0,0,0,68,false,stim,true,2,943.5,0,0,0,69313,task1,383009,false,false,257,image-keyboard-response,22
true,2,1,1,1,true,z,false,false,0.0-2.0-0.5-0.48-3.48,0,0,0,90,false,stim,false,2,2712.1000000089407,0,0,0,69313,task1,387232,false,true,260,image-keyboard-response,23
true,2,0,1,2,false,d,true,false,0.0-2.0-0.5-0.49-3.49,0,0,0,81,false,stim,false,1,2861.800000011921,0,0,2,69313,task1,391607,false,false,263,image-keyboard-response,24
true,2,1,1,2,false,d,false,false,0.0-2.0-0.5-0.50-3.50,0,0,0,90,false,stim,true,1,927.5999999940395,0,0,2,69313,task1,394051,false,false,266,image-keyboard-response,25
true,2,0,1,2,false,d,false,false,0.0-2.0-0.5-0.51-3.51,0,0,0,81,false,stim,true,0,1329.9000000059605,0,0,1,69313,task1,396896,false,false,269,image-keyboard-response,26
true,2,1,1,2,false,d,true,false,0.0-2.0-0.5-0.52-3.52,0,0,0,90,false,stim,false,0,1151.4000000059605,0,0,1,69313,task1,399558,false,false,272,image-keyboard-response,27
true,2,2,1,2,true,d,false,true,0.0-2.0-0.5-0.53-3.53,0,0,0,68,false,stim,false,0,1209.5,0,0,1,69313,task1,402278,false,false,275,image-keyboard-response,28
true,2,1,1,2,false,d,false,false,0.0-2.0-0.6-0.54-3.54,0,0,0,90,false,stim,true,1,2702.6000000089407,0,0,2,69313,task1,406492,false,false,278,image-keyboard-response,29
true,2,0,1,2,false,d,true,false,0.0-2.0-0.6-0.55-3.55,0,0,0,81,false,stim,false,1,872.7000000029802,0,0,2,69313,task1,408878,false,false,281,image-keyboard-response,30
true,2,2,1,2,true,d,false,false,0.0-2.0-0.6-0.56-3.56,0,0,0,68,false,stim,false,0,1377.4000000059605,0,0,1,69313,task1,411769,false,true,284,image-keyboard-response,31
true,2,0,1,2,false,d,false,false,0.0-2.0-0.6-0.57-3.57,0,0,0,81,false,stim,true,0,1030.2000000029802,0,0,1,69313,task1,414311,false,false,287,image-keyboard-response,32
true,2,1,1,1,true,z,false,true,0.0-2.0-0.6-0.58-3.58,0,0,0,90,false,stim,false,2,1081.2000000029802,0,0,0,69313,task1,416906,false,false,290,image-keyboard-response,33
true,2,1,1,1,true,z,false,true,0.0-2.0-0.6-0.59-3.59,0,0,0,90,false,stim,false,2,2268.4000000059605,0,0,0,69313,task1,420687,false,false,293,image-keyboard-response,34
true,2,1,1,1,true,z,false,true,0.0-2.0-0.6-0.60-3.60,0,0,0,90,false,stim,false,2,429.0,0,0,0,69313,task1,422629,false,false,296,image-keyboard-response,35
true,2,2,1,2,true,d,false,true,0.0-2.0-0.6-0.61-3.61,0,0,0,68,false,stim,false,0,2558.4000000059605,0,0,1,69313,task1,426698,false,false,299,image-keyboard-response,36
true,2,1,1,2,false,d,false,false,0.0-2.0-0.6-0.62-3.62,0,0,0,90,false,stim,true,1,1816.5,0,0,2,69313,task1,430032,false,false,302,image-keyboard-response,37
true,2,0,1,2,false,d,true,false,0.0-2.0-0.7-0.63-3.63,0,0,0,81,false,stim,false,1,1001.6000000089407,0,0,2,69313,task1,432549,false,false,305,image-keyboard-response,38
true,2,2,1,2,true,d,false,false,0.0-2.0-0.7-0.64-3.64,0,0,0,68,false,stim,false,1,404.29999999701977,0,0,2,69313,task1,434466,false,true,308,image-keyboard-response,39
true,2,2,1,2,true,d,false,true,0.0-2.0-0.7-0.65-3.65,0,0,0,68,false,stim,false,0,1106.300000011921,0,0,1,69313,task1,437087,false,false,311,image-keyboard-response,40
true,3,1,1,2,false,d,false,true,0.0-2.0-0.7-0.66-3.66,0,0,0,90,true,stim,true,1,1458.800000011921,0,0,0,69313,task1,440056,false,true,314,image-keyboard-response,1
true,3,2,1,0,false,q,false,false,0.0-2.0-0.7-0.67-3.67,0,0,0,68,false,stim,true,2,1139.7000000029802,0,0,2,69313,task1,442707,false,false,317,image-keyboard-response,2
true,3,2,1,1,false,z,false,true,0.0-2.0-0.7-0.68-3.68,0,0,0,68,false,stim,true,2,926.0,0,0,1,69313,task1,445142,false,true,320,image-keyboard-response,3
true,3,2,1,1,false,z,false,false,0.0-2.0-0.7-0.69-3.69,0,0,0,68,false,stim,true,2,716.2999999970198,0,0,1,69313,task1,447374,false,false,323,image-keyboard-response,4
true,3,0,1,2,false,d,true,false,0.0-2.0-0.7-0.70-3.70,0,0,0,81,false,stim,false,1,1983.2000000029802,0,0,0,69313,task1,450867,false,false,326,image-keyboard-response,5
true,3,1,1,2,false,d,false,false,0.0-2.0-0.7-0.71-3.71,0,0,0,90,false,stim,true,1,1331.4000000059605,0,0,0,69313,task1,453709,false,false,329,image-keyboard-response,6
true,3,2,1,1,false,z,false,false,0.0-2.0-0.8-0.72-3.72,0,0,0,68,false,stim,true,2,605.2999999970198,0,0,1,69313,task1,455830,false,false,332,image-keyboard-response,7
true,3,1,1,2,false,d,false,false,0.0-2.0-0.8-0.73-3.73,0,0,0,90,false,stim,true,1,437.59999999403954,0,0,0,69313,task1,457783,false,false,335,image-keyboard-response,8
false,3,-1,1,0,false,q,true,true,0.0-2.0-0.8-0.74-3.74,0,0,0,,false,stim,false,2,,0,0,2,69313,task1,462296,false,true,338,image-keyboard-response,9
true,3,0,1,2,false,d,true,false,0.0-2.0-0.8-0.75-3.75,0,0,0,81,false,stim,false,1,1146.2000000029802,0,0,0,69313,task1,464951,false,false,341,image-keyboard-response,10
true,3,1,1,0,false,q,true,false,0.0-2.0-0.8-0.76-3.76,0,0,0,90,false,stim,false,2,2084.2000000029802,0,0,2,69313,task1,468547,false,false,344,image-keyboard-response,11
true,3,2,1,1,false,z,false,false,0.0-2.0-0.8-0.77-3.77,0,0,0,68,false,stim,true,2,1402.5,0,0,1,69313,task1,471461,false,false,347,image-keyboard-response,12
true,3,0,1,1,false,z,true,false,0.0-2.0-0.8-0.78-3.78,0,0,0,81,false,stim,false,2,1103.7000000029802,0,0,1,69313,task1,474077,false,false,350,image-keyboard-response,13
true,3,1,1,2,false,d,false,false,0.0-2.0-0.8-0.79-3.79,0,0,0,90,false,stim,true,1,1556.0999999940395,0,0,0,69313,task1,477141,false,false,353,image-keyboard-response,14
false,3,-1,1,0,false,q,true,false,0.0-2.0-0.8-0.80-3.80,0,0,0,,false,stim,false,2,,0,0,2,69313,task1,481658,false,false,356,image-keyboard-response,15
true,3,1,1,0,false,q,true,false,0.0-2.0-0.9-0.81-3.81,0,0,0,90,false,stim,false,2,991.9000000059605,0,0,2,69313,task1,484165,false,false,359,image-keyboard-response,16
true,3,0,1,0,true,q,false,true,0.0-2.0-0.9-0.82-3.82,0,0,0,81,false,stim,false,2,949.0,0,0,2,69313,task1,486627,false,false,362,image-keyboard-response,17
true,3,2,1,1,false,z,false,true,0.0-2.0-0.9-0.83-3.83,0,0,0,68,false,stim,true,2,2348.3999999910593,0,0,1,69313,task1,490493,false,true,365,image-keyboard-response,18
true,3,1,1,2,false,d,false,false,0.0-2.0-0.9-0.84-3.84,0,0,0,90,false,stim,true,1,1388.8999999910593,0,0,0,69313,task1,493394,false,false,368,image-keyboard-response,19
true,3,0,1,2,false,d,true,false,0.0-2.0-0.9-0.85-3.85,0,0,0,81,false,stim,false,1,1602.0,0,0,0,69313,task1,496511,false,false,371,image-keyboard-response,20
true,3,2,1,1,false,z,false,false,0.0-2.0-0.9-0.86-3.86,0,0,0,68,false,stim,true,2,1611.2000000029802,0,0,1,69313,task1,499631,false,false,374,image-keyboard-response,21
true,3,0,1,1,false,z,true,true,0.0-2.0-0.9-0.87-3.87,0,0,0,81,false,stim,false,2,1416.7000000029802,0,0,1,69313,task1,502558,false,true,377,image-keyboard-response,22
true,3,2,1,0,false,q,false,false,0.0-2.0-0.9-0.88-3.88,0,0,0,68,false,stim,true,2,1162.8999999910593,0,0,2,69313,task1,505228,false,false,380,image-keyboard-response,23
true,3,1,1,2,false,d,false,false,0.0-2.0-0.9-0.89-3.89,0,0,0,90,false,stim,true,1,1656.1000000089407,0,0,0,69313,task1,508397,false,false,383,image-keyboard-response,24
true,3,1,1,0,false,q,true,false,0.0-2.0-0.10-0.90-3.90,0,0,0,90,false,stim,false,2,1628.5,0,0,2,69313,task1,511540,false,false,386,image-keyboard-response,25
true,3,0,1,1,false,z,true,true,0.0-2.0-0.10-0.91-3.91,0,0,0,81,false,stim,false,2,496.90000000596046,0,0,1,69313,task1,513550,false,true,389,image-keyboard-response,26
true,3,0,1,2,false,d,true,false,0.0-2.0-0.10-0.92-3.92,0,0,0,81,false,stim,false,1,1400.800000011921,0,0,0,69313,task1,516460,false,false,392,image-keyboard-response,27
true,3,0,1,0,true,q,false,true,0.0-2.0-0.10-0.93-3.93,0,0,0,81,false,stim,false,2,1702.0,0,0,2,69313,task1,519673,false,false,395,image-keyboard-response,28
true,3,0,1,1,false,z,true,false,0.0-2.0-0.10-0.94-3.94,0,0,0,81,false,stim,false,2,605.0999999940395,0,0,1,69313,task1,521789,false,false,398,image-keyboard-response,29
true,3,1,1,0,false,q,true,false,0.0-2.0-0.10-0.95-3.95,0,0,0,90,false,stim,false,2,813.7000000029802,0,0,2,69313,task1,524117,false,false,401,image-keyboard-response,30
true,3,2,1,1,false,z,false,false,0.0-2.0-0.10-0.96-3.96,0,0,0,68,false,stim,true,2,1123.1000000089407,0,0,1,69313,task1,526751,false,false,404,image-keyboard-response,31
true,3,1,1,2,false,d,false,false,0.0-2.0-0.10-0.97-3.97,0,0,0,90,false,stim,true,1,864.2999999970198,0,0,0,69313,task1,529130,false,false,407,image-keyboard-response,32
true,3,0,1,2,false,d,true,false,0.0-2.0-0.10-0.98-3.98,0,0,0,81,false,stim,false,1,582.2999999970198,0,0,0,69313,task1,531227,false,false,410,image-keyboard-response,33
true,3,2,1,1,false,z,false,false,0.0-2.0-0.11-0.99-3.99,0,0,0,68,false,stim,true,2,1489.2999999970198,0,0,1,69313,task1,534226,false,false,413,image-keyboard-response,34
true,3,1,1,2,false,d,false,false,0.0-2.0-0.11-0.100-3.100,0,0,0,90,false,stim,true,1,560.5999999940395,0,0,0,69313,task1,536302,false,false,416,image-keyboard-response,35
true,3,0,1,1,false,z,true,false,0.0-2.0-0.11-0.101-3.101,0,0,0,81,false,stim,false,2,644.7999999970198,0,0,1,69313,task1,538461,false,false,419,image-keyboard-response,36
true,3,0,1,1,false,z,true,true,0.0-2.0-0.11-0.102-3.102,0,0,0,81,false,stim,false,2,1450.7999999970198,0,0,1,69313,task1,541425,false,true,422,image-keyboard-response,37
false,3,-1,1,2,false,d,true,false,0.0-2.0-0.11-0.103-3.103,0,0,0,,false,stim,false,1,,0,0,0,69313,task1,545944,false,false,425,image-keyboard-response,38
true,3,0,1,0,true,q,false,true,0.0-2.0-0.11-0.104-3.104,0,0,0,81,false,stim,false,2,2835.1000000089407,0,0,2,69313,task1,550296,false,false,428,image-keyboard-response,39
true,3,0,1,0,true,q,false,true,0.0-2.0-0.11-0.105-3.105,0,0,0,81,false,stim,false,2,511.29999999701977,0,0,2,69313,task1,552319,false,false,431,image-keyboard-response,40
true,3,1,1,2,false,d,false,false,0.0-2.0-0.11-0.106-3.106,0,0,0,90,false,stim,true,1,1889.300000011921,0,0,0,69313,task1,555718,false,false,434,image-keyboard-response,41
true,4,0,2,2,false,d,false,false,0.0-2.0-0.11-0.107-3.107,0,0,0,81,true,stim,true,0,1157.5,0,0,2,69313,task1,558389,false,false,437,image-keyboard-response,1
true,4,2,2,1,false,z,false,false,0.0-2.0-0.12-0.108-3.108,0,0,0,68,false,stim,true,2,1788.0,0,0,0,69313,task1,561689,false,false,440,image-keyboard-response,2
true,4,0,2,2,false,d,true,false,0.0-2.0-0.12-0.109-3.109,0,0,0,81,false,stim,false,1,884.7999999970198,0,0,1,69313,task1,564086,false,false,443,image-keyboard-response,3
true,4,1,2,1,true,z,false,true,0.0-2.0-0.12-0.110-3.110,0,0,0,90,false,stim,false,2,1021.3999999910593,0,0,0,69313,task1,566622,false,false,446,image-keyboard-response,4
true,4,1,2,1,true,z,false,true,0.0-2.0-0.12-0.111-3.111,0,0,0,90,false,stim,false,2,852.8000000119209,0,0,0,69313,task1,568985,false,false,449,image-keyboard-response,5
true,4,0,2,2,false,d,true,false,0.0-2.0-0.12-0.112-3.112,0,0,0,81,false,stim,false,1,1133.2999999970198,0,0,1,69313,task1,571635,false,false,452,image-keyboard-response,6
true,4,1,2,2,false,d,false,false,0.0-2.0-0.12-0.113-3.113,0,0,0,90,false,stim,true,1,905.1999999880791,0,0,1,69313,task1,574051,false,false,455,image-keyboard-response,7
true,4,0,2,2,false,d,false,false,0.0-2.0-0.12-0.114-3.114,0,0,0,81,false,stim,true,0,1336.7000000029802,0,0,2,69313,task1,576902,false,false,458,image-keyboard-response,8
true,4,1,2,2,false,d,true,false,0.0-2.0-0.12-0.115-3.115,0,0,0,90,false,stim,false,0,795.4000000059605,0,0,2,69313,task1,579206,false,false,461,image-keyboard-response,9
true,4,2,2,2,true,d,false,true,0.0-2.0-0.12-0.116-3.116,0,0,0,68,false,stim,false,0,1078.7000000029802,0,0,2,69313,task1,581801,false,false,464,image-keyboard-response,10
true,4,2,2,2,true,d,false,true,0.0-2.0-0.13-0.117-3.117,0,0,0,68,false,stim,false,0,960.7000000029802,0,0,2,69313,task1,584277,false,false,467,image-keyboard-response,11
true,4,2,2,1,false,z,false,false,0.0-2.0-0.13-0.118-3.118,0,0,0,68,false,stim,true,2,1611.8999999910593,0,0,0,69313,task1,587400,false,false,470,image-keyboard-response,12
true,4,0,2,2,false,d,true,false,0.0-2.0-0.13-0.119-3.119,0,0,0,81,false,stim,false,1,1167.8999999910593,0,0,1,69313,task1,590083,false,false,473,image-keyboard-response,13
true,4,1,2,2,false,d,false,false,0.0-2.0-0.13-0.120-3.120,0,0,0,90,false,stim,true,1,1026.300000011921,0,0,1,69313,task1,592622,false,false,476,image-keyboard-response,14
true,4,2,2,2,true,d,false,true,0.0-2.0-0.13-0.121-3.121,0,0,0,68,false,stim,false,1,1172.7000000029802,0,0,1,69313,task1,595307,false,false,479,image-keyboard-response,15
true,4,2,2,2,true,d,false,true,0.0-2.0-0.13-0.122-3.122,0,0,0,68,false,stim,false,0,972.5,0,0,2,69313,task1,597794,false,false,482,image-keyboard-response,16
true,4,0,2,1,false,z,true,false,0.0-2.0-0.13-0.123-3.123,0,0,0,81,false,stim,false,2,1719.2000000029802,0,0,0,69313,task1,601026,false,false,485,image-keyboard-response,17
true,4,2,2,1,false,z,false,false,0.0-2.0-0.13-0.124-3.124,0,0,0,68,false,stim,true,2,990.5999999940395,0,0,0,69313,task1,603529,false,false,488,image-keyboard-response,18
true,4,2,2,2,true,d,false,false,0.0-2.0-0.13-0.125-3.125,0,0,0,68,false,stim,false,0,1579.2999999970198,0,0,2,69313,task1,606624,false,true,491,image-keyboard-response,19
true,4,2,2,2,true,d,false,true,0.0-2.0-0.14-0.126-3.126,0,0,0,68,false,stim,false,1,1213.7999999970198,0,0,1,69313,task1,609351,false,false,494,image-keyboard-response,20
true,4,2,2,2,true,d,false,true,0.0-2.0-0.14-0.127-3.127,0,0,0,68,false,stim,false,1,870.5999999940395,0,0,1,69313,task1,611737,false,false,497,image-keyboard-response,21
true,4,1,2,2,false,d,true,false,0.0-2.0-0.14-0.128-3.128,0,0,0,90,false,stim,false,0,1520.5,0,0,2,69313,task1,614772,false,false,500,image-keyboard-response,22
true,4,0,2,1,false,z,true,false,0.0-2.0-0.14-0.129-3.129,0,0,0,81,false,stim,false,2,1871.1000000089407,0,0,0,69313,task1,618158,false,false,503,image-keyboard-response,23
true,4,1,2,1,true,z,false,true,0.0-2.0-0.14-0.130-3.130,0,0,0,90,false,stim,false,2,1150.9000000059605,0,0,0,69313,task1,620823,false,false,506,image-keyboard-response,24
true,4,2,2,2,true,d,false,true,0.0-2.0-0.14-0.131-3.131,0,0,0,68,false,stim,false,0,1845.6000000089407,0,0,2,69313,task1,624183,false,false,509,image-keyboard-response,25
true,4,0,2,2,false,d,true,false,0.0-2.0-0.14-0.132-3.132,0,0,0,81,false,stim,false,1,2111.4000000059605,0,0,1,69313,task1,627807,false,false,512,image-keyboard-response,26
true,4,2,2,2,true,d,false,true,0.0-2.0-0.14-0.133-3.133,0,0,0,68,false,stim,false,0,1231.2999999970198,0,0,2,69313,task1,630553,false,false,515,image-keyboard-response,27
true,4,1,2,1,true,z,false,false,0.0-2.0-0.14-0.134-3.134,0,0,0,90,false,stim,false,2,1859.0,0,0,0,69313,task1,633925,false,true,518,image-keyboard-response,28
true,4,2,2,2,true,d,false,true,0.0-2.0-0.15-0.135-3.135,0,0,0,68,false,stim,false,0,1940.0999999940395,0,0,2,69313,task1,637379,false,false,521,image-keyboard-response,29
true,4,2,2,2,true,d,false,true,0.0-2.0-0.15-0.136-3.136,0,0,0,68,false,stim,false,0,787.5999999940395,0,0,2,69313,task1,639678,false,false,524,image-keyboard-response,30
true,4,1,2,1,true,z,false,true,0.0-2.0-0.15-0.137-3.137,0,0,0,90,false,stim,false,2,2042.1000000089407,0,0,0,69313,task1,643232,false,false,527,image-keyboard-response,31
true,4,1,2,1,true,z,false,true,0.0-2.0-0.15-0.138-3.138,0,0,0,90,false,stim,false,2,537.2999999970198,0,0,0,69313,task1,645279,false,false,530,image-keyboard-response,32
true,4,2,2,2,true,d,false,true,0.0-2.0-0.15-0.139-3.139,0,0,0,68,false,stim,false,1,2079.0,0,0,1,69313,task1,648871,false,false,533,image-keyboard-response,33
true,4,2,2,2,true,d,false,true,0.0-2.0-0.15-0.140-3.140,0,0,0,68,false,stim,false,0,905.9000000059605,0,0,2,69313,task1,651290,false,false,536,image-keyboard-response,34
true,4,2,2,2,true,d,false,true,0.0-2.0-0.15-0.141-3.141,0,0,0,68,false,stim,false,1,999.2000000029802,0,0,1,69313,task1,653801,false,false,539,image-keyboard-response,35
true,4,2,2,2,true,d,false,true,0.0-2.0-0.15-0.142-3.142,0,0,0,68,false,stim,false,1,711.6999999880791,0,0,1,69313,task1,656022,false,false,542,image-keyboard-response,36
true,4,1,2,1,true,z,false,true,0.0-2.0-0.15-0.143-3.143,0,0,0,90,false,stim,false,2,1204.4000000059605,0,0,0,69313,task1,658740,false,false,545,image-keyboard-response,37
true,4,2,2,2,true,d,false,true,0.0-2.0-0.16-0.144-3.144,0,0,0,68,false,stim,false,1,945.2999999970198,0,0,1,69313,task1,661195,false,false,548,image-keyboard-response,38
true,4,2,2,2,true,d,false,false,0.0-2.0-0.16-0.145-3.145,0,0,0,68,false,stim,false,0,975.6000000089407,0,0,2,69313,task1,663682,false,true,551,image-keyboard-response,39
true,4,1,2,2,false,d,true,false,0.0-2.0-0.16-0.146-3.146,0,0,0,90,false,stim,false,0,1296.0999999940395,0,0,2,69313,task1,666490,false,false,554,image-keyboard-response,40
true,4,1,2,1,true,z,false,true,0.0-2.0-0.16-0.147-3.147,0,0,0,90,false,stim,false,2,2510.3999999910593,0,0,0,69313,task1,670512,false,false,557,image-keyboard-response,41
true,4,2,2,2,true,d,false,true,0.0-2.0-0.16-0.148-3.148,0,0,0,68,false,stim,false,1,1874.2000000029802,0,0,1,69313,task1,673897,false,false,560,image-keyboard-response,42
true,4,0,2,2,false,d,false,false,0.0-2.0-0.16-0.149-3.149,0,0,0,81,false,stim,true,0,1323.7999999970198,0,0,2,69313,task1,676736,false,false,563,image-keyboard-response,43
true,4,1,2,1,true,z,false,true,0.0-2.0-0.16-0.150-3.150,0,0,0,90,false,stim,false,2,1855.2000000029802,0,0,0,69313,task1,680105,false,false,566,image-keyboard-response,44
true,5,2,2,1,false,z,false,false,0.0-2.0-0.16-0.151-3.151,0,0,0,68,true,stim,true,2,880.7000000029802,0,0,1,69313,task1,682500,false,false,569,image-keyboard-response,1
true,5,1,2,2,false,d,false,false,0.0-2.0-0.16-0.152-3.152,0,0,0,90,false,stim,true,1,1232.0,0,0,0,69313,task1,685240,false,false,572,image-keyboard-response,2
true,5,0,2,2,false,d,true,true,0.0-2.0-0.17-0.153-3.153,0,0,0,81,false,stim,false,1,1079.9000000059605,0,0,0,69313,task1,687836,false,true,575,image-keyboard-response,3
true,5,1,2,1,true,z,false,true,0.0-2.0-0.17-0.154-3.154,0,0,0,90,false,stim,false,2,2307.7000000029802,0,0,1,69313,task1,691656,false,false,578,image-keyboard-response,4
true,5,0,2,2,false,d,true,false,0.0-2.0-0.17-0.155-3.155,0,0,0,81,false,stim,false,1,1438.3999999910593,0,0,0,69313,task1,694612,false,false,581,image-keyboard-response,5
true,5,2,2,0,false,q,false,false,0.0-2.0-0.17-0.156-3.156,0,0,0,68,false,stim,true,2,1283.7999999970198,0,0,2,69313,task1,697410,false,false,584,image-keyboard-response,6
true,5,1,2,1,true,z,false,false,0.0-2.0-0.17-0.157-3.157,0,0,0,90,false,stim,false,2,2013.5,0,0,1,69313,task1,700935,false,true,587,image-keyboard-response,7
true,5,1,2,1,true,z,false,true,0.0-2.0-0.17-0.158-3.158,0,0,0,90,false,stim,false,2,684.1000000089407,0,0,1,69313,task1,703133,false,false,590,image-keyboard-response,8
true,5,1,2,0,false,q,true,true,0.0-2.0-0.17-0.159-3.159,0,0,0,90,false,stim,false,2,2764.2000000029802,0,0,2,69313,task1,707410,false,true,593,image-keyboard-response,9
true,5,1,2,0,false,q,true,false,0.0-2.0-0.17-0.160-3.160,0,0,0,90,false,stim,false,2,542.4000000059605,0,0,2,69313,task1,709464,false,false,596,image-keyboard-response,10
true,5,0,2,2,false,d,true,false,0.0-2.0-0.17-0.161-3.161,0,0,0,81,false,stim,false,1,1682.8999999910593,0,0,0,69313,task1,712656,false,false,599,image-keyboard-response,11
true,5,1,2,1,true,z,false,true,0.0-2.0-0.18-0.162-3.162,0,0,0,90,false,stim,false,2,2298.3999999910593,0,0,1,69313,task1,716472,false,false,602,image-keyboard-response,12
false,5,-1,2,0,false,q,true,false,0.0-2.0-0.18-0.163-3.163,0,0,0,,false,stim,false,2,,0,0,2,69313,task1,720986,false,false,605,image-keyboard-response,13
true,5,1,2,1,true,z,false,true,0.0-2.0-0.18-0.164-3.164,0,0,0,90,false,stim,false,2,1149.0999999940395,0,0,1,69313,task1,723648,false,false,608,image-keyboard-response,14
true,5,0,2,2,false,d,true,false,0.0-2.0-0.18-0.165-3.165,0,0,0,81,false,stim,false,1,1483.4000000059605,0,0,0,69313,task1,726648,false,false,611,image-keyboard-response,15
true,5,0,2,0,true,q,false,true,0.0-2.0-0.18-0.166-3.166,0,0,0,81,false,stim,false,2,2107.2000000029802,0,0,2,69313,task1,730265,false,false,614,image-keyboard-response,16
true,5,2,2,2,true,d,false,true,0.0-2.0-0.18-0.167-3.167,0,0,0,68,false,stim,false,1,2035.7999999970198,0,0,0,69313,task1,733818,false,false,617,image-keyboard-response,17
true,5,2,2,2,true,d,false,true,0.0-2.0-0.18-0.168-3.168,0,0,0,68,false,stim,false,1,901.2000000029802,0,0,0,69313,task1,736230,false,false,620,image-keyboard-response,18
true,5,1,2,0,false,q,true,false,0.0-2.0-0.18-0.169-3.169,0,0,0,90,false,stim,false,2,1414.0,0,0,2,69313,task1,739159,false,false,623,image-keyboard-response,19
true,5,0,2,1,false,z,true,true,0.0-2.0-0.18-0.170-3.170,0,0,0,81,false,stim,false,2,1326.6000000089407,0,0,1,69313,task1,742003,false,true,626,image-keyboard-response,20
true,5,0,2,1,false,z,true,false,0.0-2.0-0.19-0.171-3.171,0,0,0,81,false,stim,false,2,549.0999999940395,0,0,1,69313,task1,744066,false,false,629,image-keyboard-response,21
true,5,2,2,0,false,q,false,false,0.0-2.0-0.19-0.172-3.172,0,0,0,68,false,stim,true,2,2611.5,0,0,2,69313,task1,748189,false,false,632,image-keyboard-response,22
true,5,0,2,1,false,z,true,false,0.0-2.0-0.19-0.173-3.173,0,0,0,81,false,stim,false,2,1989.6000000089407,0,0,1,69313,task1,751693,false,false,635,image-keyboard-response,23
true,5,0,2,1,false,z,true,false,0.0-2.0-0.19-0.174-3.174,0,0,0,81,false,stim,false,2,1222.199999988079,0,0,1,69313,task1,754426,false,false,638,image-keyboard-response,24
true,5,1,2,0,false,q,true,false,0.0-2.0-0.19-0.175-3.175,0,0,0,90,false,stim,false,2,1176.2999999970198,0,0,2,69313,task1,757113,false,false,641,image-keyboard-response,25
true,5,0,2,2,false,d,true,true,0.0-2.0-0.19-0.176-3.176,0,0,0,81,false,stim,false,1,2005.300000011921,0,0,0,69313,task1,760630,false,true,644,image-keyboard-response,26
true,5,0,2,2,false,d,true,false,0.0-2.0-0.19-0.177-3.177,0,0,0,81,false,stim,false,1,758.8000000119209,0,0,0,69313,task1,762902,false,false,647,image-keyboard-response,27
true,5,2,2,0,false,q,false,false,0.0-2.0-0.19-0.178-3.178,0,0,0,68,false,stim,true,2,1244.3999999910593,0,0,2,69313,task1,765661,false,false,650,image-keyboard-response,28
true,5,1,2,2,false,d,false,false,0.0-2.0-0.19-0.179-3.179,0,0,0,90,false,stim,true,1,1718.2999999970198,0,0,0,69313,task1,768894,false,false,653,image-keyboard-response,29
true,5,2,2,1,false,z,false,false,0.0-2.0-0.20-0.180-3.180,0,0,0,68,false,stim,true,2,1623.7999999970198,0,0,1,69313,task1,772029,false,false,656,image-keyboard-response,30
true,5,2,2,0,false,q,false,false,0.0-2.0-0.20-0.181-3.181,0,0,0,68,false,stim,true,2,1006.7999999970198,0,0,2,69313,task1,774553,false,false,659,image-keyboard-response,31
false,5,-1,2,2,false,d,true,false,0.0-2.0-0.20-0.182-3.182,0,0,0,,false,stim,false,1,,0,0,0,69313,task1,779068,false,false,662,image-keyboard-response,32
true,5,1,2,2,false,d,false,false,0.0-2.0-0.20-0.183-3.183,0,0,0,90,false,stim,true,1,690.0,0,0,0,69313,task1,781272,false,false,665,image-keyboard-response,33
true,5,1,2,0,false,q,true,false,0.0-2.0-0.20-0.184-3.184,0,0,0,90,false,stim,false,2,1632.0,0,0,2,69313,task1,784417,false,false,668,image-keyboard-response,34
true,5,0,2,2,false,d,true,false,0.0-2.0-0.20-0.185-3.185,0,0,0,81,false,stim,false,1,963.2000000029802,0,0,0,69313,task1,786891,false,false,671,image-keyboard-response,35
true,5,0,2,1,false,z,true,false,0.0-2.0-0.20-0.186-3.186,0,0,0,81,false,stim,false,2,1177.5999999940395,0,0,1,69313,task1,789583,false,false,674,image-keyboard-response,36
true,5,0,2,1,false,z,true,false,0.0-2.0-0.20-0.187-3.187,0,0,0,81,false,stim,false,2,535.9000000059605,0,0,1,69313,task1,791633,false,false,677,image-keyboard-response,37
true,5,0,2,0,true,q,false,true,0.0-2.0-0.20-0.188-3.188,0,0,0,81,false,stim,false,2,566.8999999910593,0,0,2,69313,task1,793713,false,false,680,image-keyboard-response,38
true,5,0,2,0,true,q,false,true,0.0-2.0-0.21-0.189-3.189,0,0,0,81,false,stim,false,2,691.1999999880791,0,0,2,69313,task1,795921,false,false,683,image-keyboard-response,39
true,5,0,2,1,false,z,true,true,0.0-2.0-0.21-0.190-3.190,0,0,0,81,false,stim,false,2,673.0999999940395,0,0,1,69313,task1,798109,false,true,686,image-keyboard-response,40
true,5,0,2,0,true,q,false,true,0.0-2.0-0.21-0.191-3.191,0,0,0,81,false,stim,false,2,634.1000000089407,0,0,2,69313,task1,800253,false,false,689,image-keyboard-response,41
true,5,0,2,2,false,d,true,false,0.0-2.0-0.21-0.192-3.192,0,0,0,81,false,stim,false,1,749.9000000059605,0,0,0,69313,task1,802519,false,false,692,image-keyboard-response,42
true,5,0,2,0,true,q,false,true,0.0-2.0-0.21-0.193-3.193,0,0,0,81,false,stim,false,2,909.3999999910593,0,0,2,69313,task1,804938,false,false,695,image-keyboard-response,43
true,5,0,2,1,false,z,true,false,0.0-2.0-0.21-0.194-3.194,0,0,0,81,false,stim,false,2,745.7999999970198,0,0,1,69313,task1,807197,false,false,698,image-keyboard-response,44
true,5,1,2,1,true,z,false,false,0.0-2.0-0.21-0.195-3.195,0,0,0,90,false,stim,false,2,1189.0,0,0,1,69313,task1,809900,false,true,701,image-keyboard-response,45
true,6,0,2,1,false,z,true,false,0.0-2.0-0.21-0.196-3.196,0,0,0,81,true,stim,false,2,831.7000000029802,0,0,0,69313,task1,812244,false,false,704,image-keyboard-response,1
true,6,2,2,1,false,z,false,false,0.0-2.0-0.21-0.197-3.197,0,0,0,68,false,stim,true,2,1796.2999999970198,0,0,0,69313,task1,815555,false,false,707,image-keyboard-response,2
true,6,0,2,2,false,d,false,false,0.0-2.0-0.22-0.198-3.198,0,0,0,81,false,stim,true,0,1159.5,0,0,2,69313,task1,818227,false,false,710,image-keyboard-response,3
true,6,1,2,2,false,d,false,false,0.0-2.0-0.22-0.199-3.199,0,0,0,90,false,stim,true,1,1196.300000011921,0,0,1,69313,task1,820938,false,false,713,image-keyboard-response,4
true,6,1,2,2,false,d,true,false,0.0-2.0-0.22-0.200-3.200,0,0,0,90,false,stim,false,0,879.2999999970198,0,0,2,69313,task1,823332,false,false,716,image-keyboard-response,5
true,6,1,2,2,false,d,true,false,0.0-2.0-0.22-0.201-3.201,0,0,0,90,false,stim,false,0,451.3999999910593,0,0,2,69313,task1,825297,false,false,719,image-keyboard-response,6
true,6,1,2,2,false,d,false,false,0.0-2.0-0.22-0.202-3.202,0,0,0,90,false,stim,true,1,664.5,0,0,1,69313,task1,827477,false,false,722,image-keyboard-response,7
true,6,0,2,1,false,z,true,false,0.0-2.0-0.22-0.203-3.203,0,0,0,81,false,stim,false,2,833.7000000029802,0,0,0,69313,task1,829825,false,false,725,image-keyboard-response,8
true,6,2,2,2,true,d,false,true,0.0-2.0-0.22-0.204-3.204,0,0,0,68,false,stim,false,1,1267.7999999970198,0,0,1,69313,task1,832602,false,false,728,image-keyboard-response,9
false,6,-1,2,1,false,z,true,false,0.0-2.0-0.22-0.205-3.205,0,0,0,,false,stim,false,2,,0,0,0,69313,task1,837120,false,false,731,image-keyboard-response,10
true,6,0,2,1,false,z,true,true,0.0-2.0-0.22-0.206-3.206,0,0,0,81,false,stim,false,2,958.2000000029802,0,0,0,69313,task1,839591,false,true,734,image-keyboard-response,11
true,6,0,2,1,false,z,true,false,0.0-2.0-0.23-0.207-3.207,0,0,0,81,false,stim,false,2,551.1000000089407,0,0,0,69313,task1,841657,false,false,737,image-keyboard-response,12
true,6,1,2,2,false,d,false,false,0.0-2.0-0.23-0.208-3.208,0,0,0,90,false,stim,true,1,2067.7999999970198,0,0,1,69313,task1,845235,false,false,740,image-keyboard-response,13
true,6,2,2,2,true,d,false,true,0.0-2.0-0.23-0.209-3.209,0,0,0,68,false,stim,false,0,1897.2999999970198,0,0,2,69313,task1,848645,false,false,743,image-keyboard-response,14
true,6,2,2,2,true,d,false,true,0.0-2.0-0.23-0.210-3.210,0,0,0,68,false,stim,false,1,1261.2000000029802,0,0,1,69313,task1,851419,false,false,746,image-keyboard-response,15
true,6,2,2,2,true,d,false,true,0.0-2.0-0.23-0.211-3.211,0,0,0,68,false,stim,false,0,557.7999999970198,0,0,2,69313,task1,853489,false,false,749,image-keyboard-response,16
true,6,2,2,1,false,z,false,false,0.0-2.0-0.23-0.212-3.212,0,0,0,68,false,stim,true,2,1813.4000000059605,0,0,0,69313,task1,856814,false,false,752,image-keyboard-response,17
true,6,1,2,2,false,d,true,false,0.0-2.0-0.23-0.213-3.213,0,0,0,90,false,stim,false,0,917.6000000089407,0,0,2,69313,task1,859244,false,false,755,image-keyboard-response,18
true,6,2,2,1,false,z,false,false,0.0-2.0-0.23-0.214-3.214,0,0,0,68,false,stim,true,2,1205.5,0,0,0,69313,task1,861964,false,false,758,image-keyboard-response,19
true,6,0,2,2,false,d,true,false,0.0-2.0-0.23-0.215-3.215,0,0,0,81,false,stim,false,1,1760.8999999910593,0,0,1,69313,task1,865236,false,false,761,image-keyboard-response,20
true,6,1,2,1,true,z,false,true,0.0-2.0-0.24-0.216-3.216,0,0,0,90,false,stim,false,2,2392.5,0,0,0,69313,task1,869142,false,false,764,image-keyboard-response,21
true,6,1,2,2,false,d,false,false,0.0-2.0-0.24-0.217-3.217,0,0,0,90,false,stim,true,1,1659.6000000089407,0,0,1,69313,task1,872315,false,false,767,image-keyboard-response,22
true,6,1,2,1,true,z,false,true,0.0-2.0-0.24-0.218-3.218,0,0,0,90,false,stim,false,2,1916.9000000059605,0,0,0,69313,task1,875748,false,false,770,image-keyboard-response,23
true,6,1,2,2,false,d,false,false,0.0-2.0-0.24-0.219-3.219,0,0,0,90,false,stim,true,1,1679.2000000029802,0,0,1,69313,task1,878940,false,false,773,image-keyboard-response,24
true,6,0,2,1,false,z,true,false,0.0-2.0-0.24-0.220-3.220,0,0,0,81,false,stim,false,2,1636.4000000059605,0,0,0,69313,task1,882089,false,false,776,image-keyboard-response,25
true,6,2,2,2,true,d,false,false,0.0-2.0-0.24-0.221-3.221,0,0,0,68,false,stim,false,0,1777.199999988079,0,0,2,69313,task1,885379,false,true,779,image-keyboard-response,26
true,6,0,2,2,false,d,false,false,0.0-2.0-0.24-0.222-3.222,0,0,0,81,false,stim,true,0,882.5,0,0,2,69313,task1,887778,false,false,782,image-keyboard-response,27
true,6,1,2,2,false,d,true,true,0.0-2.0-0.24-0.223-3.223,0,0,0,90,false,stim,false,0,1205.2999999970198,0,0,2,69313,task1,890500,false,true,785,image-keyboard-response,28
true,6,1,2,2,false,d,false,false,0.0-2.0-0.24-0.224-3.224,0,0,0,90,false,stim,true,1,1075.5999999940395,0,0,1,69313,task1,893088,false,false,788,image-keyboard-response,29
true,6,2,2,2,true,d,false,true,0.0-2.0-0.25-0.225-3.225,0,0,0,68,false,stim,false,1,1356.699999988079,0,0,1,69313,task1,895956,false,false,791,image-keyboard-response,30
false,6,-1,2,2,false,d,true,false,0.0-2.0-0.25-0.226-3.226,0,0,0,,false,stim,false,0,,0,0,2,69313,task1,900477,false,false,794,image-keyboard-response,31
true,6,0,2,1,false,z,true,true,0.0-2.0-0.25-0.227-3.227,0,0,0,81,false,stim,false,2,1856.5,0,0,0,69313,task1,903842,false,true,797,image-keyboard-response,32
true,6,0,2,1,false,z,true,false,0.0-2.0-0.25-0.228-3.228,0,0,0,81,false,stim,false,2,693.9000000059605,0,0,0,69313,task1,906047,false,false,800,image-keyboard-response,33
true,6,1,2,2,false,d,true,false,0.0-2.0-0.25-0.229-3.229,0,0,0,90,false,stim,false,0,2464.0,0,0,2,69313,task1,910028,false,false,803,image-keyboard-response,34
true,6,2,2,2,true,d,false,true,0.0-2.0-0.25-0.230-3.230,0,0,0,68,false,stim,false,1,587.0999999940395,0,0,1,69313,task1,912133,false,false,806,image-keyboard-response,35
true,6,0,2,1,false,z,true,false,0.0-2.0-0.25-0.231-3.231,0,0,0,81,false,stim,false,2,2290.0,0,0,0,69313,task1,915938,false,false,809,image-keyboard-response,36
true,6,1,2,2,false,d,true,true,0.0-2.0-0.25-0.232-3.232,0,0,0,90,false,stim,false,0,1476.300000011921,0,0,2,69313,task1,918930,false,true,812,image-keyboard-response,37
true,6,2,2,2,true,d,false,true,0.0-2.0-0.25-0.233-3.233,0,0,0,68,false,stim,false,1,1444.4000000059605,0,0,1,69313,task1,921890,false,false,815,image-keyboard-response,38
true,6,1,2,2,false,d,true,false,0.0-2.0-0.26-0.234-3.234,0,0,0,90,false,stim,false,0,1793.1000000089407,0,0,2,69313,task1,925196,false,false,818,image-keyboard-response,39
true,6,1,2,2,false,d,false,false,0.0-2.0-0.26-0.235-3.235,0,0,0,90,false,stim,true,1,830.0,0,0,1,69313,task1,927539,false,false,821,image-keyboard-response,40
true,6,0,2,2,false,d,false,false,0.0-2.0-0.26-0.236-3.236,0,0,0,81,false,stim,true,0,366.29999999701977,0,0,2,69313,task1,929418,false,false,824,image-keyboard-response,41
true,6,0,2,2,false,d,false,false,0.0-2.0-0.26-0.237-3.237,0,0,0,81,false,stim,true,0,602.7000000029802,0,0,2,69313,task1,931537,false,false,827,image-keyboard-response,42
true,6,1,2,1,true,z,false,true,0.0-2.0-0.26-0.238-3.238,0,0,0,90,false,stim,false,2,298.20000000298023,0,0,0,69313,task1,933349,false,false,830,image-keyboard-response,43
true,6,2,2,2,true,d,false,true,0.0-2.0-0.26-0.239-3.239,0,0,0,68,false,stim,false,1,1111.5,0,0,1,69313,task1,935975,false,false,833,image-keyboard-response,44
true,6,0,2,2,false,d,true,false,0.0-2.0-0.26-0.240-3.240,0,0,0,81,false,stim,false,1,1284.7000000029802,0,0,1,69313,task1,938774,false,false,836,image-keyboard-response,45
true,7,1,2,2,false,d,false,false,0.0-2.0-0.26-0.241-3.241,0,0,0,90,true,stim,true,1,673.5999999940395,0,0,0,69313,task1,940959,false,false,839,image-keyboard-response,1
true,7,2,2,2,true,d,false,true,0.0-2.0-0.26-0.242-3.242,0,0,0,68,false,stim,false,1,299.5,0,0,0,69313,task1,942775,false,false,842,image-keyboard-response,2
true,7,2,2,2,true,d,false,false,0.0-2.0-0.27-0.243-3.243,0,0,0,68,false,stim,false,1,552.1000000089407,0,0,0,69313,task1,944844,false,true,845,image-keyboard-response,3
true,7,0,2,2,false,d,true,false,0.0-2.0-0.27-0.244-3.244,0,0,0,81,false,stim,false,1,1273.8999999910593,0,0,0,69313,task1,947632,false,false,848,image-keyboard-response,4
true,7,1,2,1,true,z,false,true,0.0-2.0-0.27-0.245-3.245,0,0,0,90,false,stim,false,2,1555.0,0,0,1,69313,task1,950697,false,false,851,image-keyboard-response,5
true,7,1,2,2,false,d,false,false,0.0-2.0-0.27-0.246-3.246,0,0,0,90,false,stim,true,1,1680.9000000059605,0,0,0,69313,task1,953892,false,false,854,image-keyboard-response,6
true,7,0,2,0,true,q,false,true,0.0-2.0-0.27-0.247-3.247,0,0,0,81,false,stim,false,2,1337.2999999970198,0,0,2,69313,task1,956743,false,false,857,image-keyboard-response,7
true,7,0,2,1,false,z,true,false,0.0-2.0-0.27-0.248-3.248,0,0,0,81,false,stim,false,2,2213.2000000029802,0,0,1,69313,task1,960470,false,false,860,image-keyboard-response,8
true,7,1,2,1,true,z,false,true,0.0-2.0-0.27-0.249-3.249,0,0,0,90,false,stim,false,2,1105.8999999910593,0,0,1,69313,task1,963094,false,false,863,image-keyboard-response,9
true,7,1,2,0,false,q,true,false,0.0-2.0-0.27-0.250-3.250,0,0,0,90,false,stim,false,2,1586.7999999970198,0,0,2,69313,task1,966196,false,false,866,image-keyboard-response,10
true,7,2,2,0,false,q,false,false,0.0-2.0-0.27-0.251-3.251,0,0,0,68,false,stim,true,2,1117.699999988079,0,0,2,69313,task1,968828,false,false,869,image-keyboard-response,11
true,7,0,2,0,true,q,false,true,0.0-2.0-0.28-0.252-3.252,0,0,0,81,false,stim,false,2,315.5,0,0,2,69313,task1,970654,false,false,872,image-keyboard-response,12
true,7,0,2,2,false,d,true,false,0.0-2.0-0.28-0.253-3.253,0,0,0,81,false,stim,false,1,1070.2999999970198,0,0,0,69313,task1,973239,false,false,875,image-keyboard-response,13
true,7,0,2,1,false,z,true,false,0.0-2.0-0.28-0.254-3.254,0,0,0,81,false,stim,false,2,1716.0999999940395,0,0,1,69313,task1,976472,false,false,878,image-keyboard-response,14
true,7,1,2,2,false,d,false,false,0.0-2.0-0.28-0.255-3.255,0,0,0,90,false,stim,true,1,2165.7999999970198,0,0,0,69313,task1,980152,false,false,881,image-keyboard-response,15
true,7,0,2,0,true,q,false,true,0.0-2.0-0.28-0.256-3.256,0,0,0,81,false,stim,false,2,1175.2000000029802,0,0,2,69313,task1,982845,false,false,884,image-keyboard-response,16
true,7,0,2,1,false,z,true,false,0.0-2.0-0.28-0.257-3.257,0,0,0,81,false,stim,false,2,1253.2000000029802,0,0,1,69313,task1,985609,false,false,887,image-keyboard-response,17
true,7,1,2,2,false,d,false,false,0.0-2.0-0.28-0.258-3.258,0,0,0,90,false,stim,true,1,965.1000000089407,0,0,0,69313,task1,988086,false,false,890,image-keyboard-response,18
true,7,2,2,1,false,z,false,false,0.0-2.0-0.28-0.259-3.259,0,0,0,68,false,stim,true,2,1437.7999999970198,0,0,1,69313,task1,991033,false,false,893,image-keyboard-response,19
true,7,0,2,0,true,q,false,true,0.0-2.0-0.28-0.260-3.260,0,0,0,81,false,stim,false,2,1685.1000000089407,0,0,2,69313,task1,994235,false,false,896,image-keyboard-response,20
true,7,0,2,2,false,d,true,false,0.0-2.0-0.29-0.261-3.261,0,0,0,81,false,stim,false,1,1723.0,0,0,0,69313,task1,997468,false,false,899,image-keyboard-response,21
true,7,1,2,2,false,d,false,false,0.0-2.0-0.29-0.262-3.262,0,0,0,90,false,stim,true,1,904.0999999940395,0,0,0,69313,task1,999892,false,false,902,image-keyboard-response,22
false,7,-1,2,0,false,q,true,false,0.0-2.0-0.29-0.263-3.263,0,0,0,,false,stim,false,2,,0,0,2,69313,task1,1004413,false,false,905,image-keyboard-response,23
true,7,2,2,1,false,z,false,false,0.0-2.0-0.29-0.264-3.264,0,0,0,68,false,stim,true,2,2190.5,0,0,1,69313,task1,1008120,false,false,908,image-keyboard-response,24
true,7,0,2,2,false,d,true,false,0.0-2.0-0.29-0.265-3.265,0,0,0,81,false,stim,false,1,1425.5,0,0,0,69313,task1,1011063,false,false,911,image-keyboard-response,25
true,7,1,2,1,true,z,false,false,0.0-2.0-0.29-0.266-3.266,0,0,0,90,false,stim,false,2,1693.6000000089407,0,0,1,69313,task1,1014271,false,true,914,image-keyboard-response,26
true,7,2,2,1,false,z,false,false,0.0-2.0-0.29-0.267-3.267,0,0,0,68,false,stim,true,2,1142.2999999970198,0,0,1,69313,task1,1016926,false,false,917,image-keyboard-response,27
true,7,0,2,0,true,q,false,true,0.0-2.0-0.29-0.268-3.268,0,0,0,81,false,stim,false,2,1638.699999988079,0,0,2,69313,task1,1020078,false,false,920,image-keyboard-response,28
true,7,0,2,0,true,q,false,false,0.0-2.0-0.29-0.269-3.269,0,0,0,81,false,stim,false,2,680.3999999910593,0,0,2,69313,task1,1022271,false,true,923,image-keyboard-response,29
true,7,1,2,2,false,d,false,true,0.0-2.0-0.30-0.270-3.270,0,0,0,90,false,stim,true,1,1605.4000000059605,0,0,0,69313,task1,1025392,false,true,926,image-keyboard-response,30
true,7,0,2,0,true,q,false,true,0.0-2.0-0.30-0.271-3.271,0,0,0,81,false,stim,false,2,1797.4000000059605,0,0,2,69313,task1,1028702,false,false,929,image-keyboard-response,31
true,7,2,2,1,false,z,false,false,0.0-2.0-0.30-0.272-3.272,0,0,0,68,false,stim,true,2,1883.0,0,0,1,69313,task1,1032098,false,false,932,image-keyboard-response,32
true,7,1,2,2,false,d,false,false,0.0-2.0-0.30-0.273-3.273,0,0,0,90,false,stim,true,1,2234.0999999940395,0,0,0,69313,task1,1035847,false,false,935,image-keyboard-response,33
true,7,0,2,1,false,z,true,false,0.0-2.0-0.30-0.274-3.274,0,0,0,81,false,stim,false,2,1363.0,0,0,1,69313,task1,1038724,false,false,938,image-keyboard-response,34
true,7,1,2,2,false,d,false,true,0.0-2.0-0.30-0.275-3.275,0,0,0,90,false,stim,true,1,1193.5999999940395,0,0,0,69313,task1,1041429,false,true,941,image-keyboard-response,35
true,7,2,2,0,false,q,false,false,0.0-2.0-0.30-0.276-3.276,0,0,0,68,false,stim,true,2,1199.6000000089407,0,0,2,69313,task1,1044142,false,false,944,image-keyboard-response,36
true,7,1,2,0,false,q,true,false,0.0-2.0-0.30-0.277-3.277,0,0,0,90,false,stim,false,2,924.2000000029802,0,0,2,69313,task1,1046577,false,false,947,image-keyboard-response,37
true,7,0,2,1,false,z,true,false,0.0-2.0-0.30-0.278-3.278,0,0,0,81,false,stim,false,2,548.7000000029802,0,0,1,69313,task1,1048643,false,false,950,image-keyboard-response,38
true,7,2,2,2,true,d,false,true,0.0-2.0-0.31-0.279-3.279,0,0,0,68,false,stim,false,1,1109.7999999970198,0,0,0,69313,task1,1051268,false,false,953,image-keyboard-response,39
true,7,1,2,0,false,q,true,false,0.0-2.0-0.31-0.280-3.280,0,0,0,90,false,stim,false,2,1216.5,0,0,2,69313,task1,1054000,false,false,956,image-keyboard-response,40
true,7,0,2,2,false,d,true,false,0.0-2.0-0.31-0.281-3.281,0,0,0,81,false,stim,false,1,617.5999999940395,0,0,0,69313,task1,1056127,false,false,959,image-keyboard-response,41
true,7,0,2,1,false,z,true,false,0.0-2.0-0.31-0.282-3.282,0,0,0,81,false,stim,false,2,1221.4000000059605,0,0,1,69313,task1,1058864,false,false,962,image-keyboard-response,42
true,8,2,2,2,true,d,false,true,0.0-2.0-0.31-0.283-3.283,0,0,0,68,true,stim,false,0,1307.2000000029802,0,0,2,69313,task1,1061687,false,false,965,image-keyboard-response,1
true,8,1,2,1,true,z,false,true,0.0-2.0-0.31-0.284-3.284,0,0,0,90,false,stim,false,2,1707.8999999910593,0,0,0,69313,task1,1064912,false,false,968,image-keyboard-response,2
true,8,0,2,2,false,d,true,false,0.0-2.0-0.31-0.285-3.285,0,0,0,81,false,stim,false,1,878.7999999970198,0,0,1,69313,task1,1067308,false,false,971,image-keyboard-response,3
true,8,1,2,2,false,d,true,false,0.0-2.0-0.31-0.286-3.286,0,0,0,90,false,stim,false,0,940.2999999970198,0,0,2,69313,task1,1069762,false,false,974,image-keyboard-response,4
true,8,2,2,2,true,d,false,true,0.0-2.0-0.31-0.287-3.287,0,0,0,68,false,stim,false,1,1659.199999988079,0,0,1,69313,task1,1072933,false,false,977,image-keyboard-response,5
true,8,2,2,1,false,z,false,false,0.0-2.0-0.32-0.288-3.288,0,0,0,68,false,stim,true,2,2223.0,0,0,0,69313,task1,1076665,false,false,980,image-keyboard-response,6
true,8,0,2,2,false,d,true,true,0.0-2.0-0.32-0.289-3.289,0,0,0,81,false,stim,false,1,1663.7999999970198,0,0,1,69313,task1,1079841,false,true,983,image-keyboard-response,7
true,8,0,2,1,false,z,true,false,0.0-2.0-0.32-0.290-3.290,0,0,0,81,false,stim,false,2,1021.9000000059605,0,0,0,69313,task1,1082379,false,false,986,image-keyboard-response,8
true,8,1,2,2,false,d,true,false,0.0-2.0-0.32-0.291-3.291,0,0,0,90,false,stim,false,0,47.900000005960464,0,0,2,69313,task1,1083940,false,false,989,image-keyboard-response,9
true,8,0,2,2,false,d,true,false,0.0-2.0-0.32-0.292-3.292,0,0,0,81,false,stim,false,1,2523.0999999940395,0,0,1,69313,task1,1087977,false,false,992,image-keyboard-response,10
true,8,1,2,1,true,z,false,true,0.0-2.0-0.32-0.293-3.293,0,0,0,90,false,stim,false,2,1158.0999999940395,0,0,0,69313,task1,1090648,false,false,995,image-keyboard-response,11
true,8,2,2,2,true,d,false,true,0.0-2.0-0.32-0.294-3.294,0,0,0,68,false,stim,false,0,1848.5,0,0,2,69313,task1,1094012,false,false,998,image-keyboard-response,12
true,8,0,2,2,false,d,false,false,0.0-2.0-0.32-0.295-3.295,0,0,0,81,false,stim,true,0,2145.7999999970198,0,0,2,69313,task1,1097678,false,false,1001,image-keyboard-response,13
true,8,2,2,2,true,d,false,true,0.0-2.0-0.32-0.296-3.296,0,0,0,68,false,stim,false,1,1870.5999999940395,0,0,1,69313,task1,1101066,false,false,1004,image-keyboard-response,14
true,8,1,2,1,true,z,false,true,0.0-2.0-0.33-0.297-3.297,0,0,0,90,false,stim,false,2,1985.9000000059605,0,0,0,69313,task1,1104565,false,false,1007,image-keyboard-response,15
true,8,0,2,2,false,d,false,false,0.0-2.0-0.33-0.298-3.298,0,0,0,81,false,stim,true,0,901.0,0,0,2,69313,task1,1106983,false,false,1010,image-keyboard-response,16
true,8,2,2,2,true,d,false,true,0.0-2.0-0.33-0.299-3.299,0,0,0,68,false,stim,false,0,1285.2999999970198,0,0,2,69313,task1,1109782,false,false,1013,image-keyboard-response,17
true,8,1,2,1,true,z,false,true,0.0-2.0-0.33-0.300-3.300,0,0,0,90,false,stim,false,2,1250.0999999940395,0,0,0,69313,task1,1112547,false,false,1016,image-keyboard-response,18
true,8,0,2,2,false,d,true,false,0.0-2.0-0.33-0.301-3.301,0,0,0,81,false,stim,false,1,1303.199999988079,0,0,1,69313,task1,1115366,false,false,1019,image-keyboard-response,19
true,8,1,2,2,false,d,true,true,0.0-2.0-0.33-0.302-3.302,0,0,0,90,false,stim,false,0,2077.1000000089407,0,0,2,69313,task1,1118956,false,true,1022,image-keyboard-response,20
true,8,2,2,2,true,d,false,true,0.0-2.0-0.33-0.303-3.303,0,0,0,68,false,stim,false,1,1093.0,0,0,1,69313,task1,1121564,false,false,1025,image-keyboard-response,21
true,8,0,2,1,false,z,true,false,0.0-2.0-0.33-0.304-3.304,0,0,0,81,false,stim,false,2,1023.5999999940395,0,0,0,69313,task1,1124099,false,false,1028,image-keyboard-response,22
true,8,1,2,2,false,d,false,true,0.0-2.0-0.33-0.305-3.305,0,0,0,90,false,stim,true,1,1326.7000000029802,0,0,1,69313,task1,1126943,false,true,1031,image-keyboard-response,23
true,8,2,2,2,true,d,false,true,0.0-2.0-0.34-0.306-3.306,0,0,0,68,false,stim,false,0,904.2000000029802,0,0,2,69313,task1,1129364,false,false,1034,image-keyboard-response,24
true,8,2,2,1,false,z,false,false,0.0-2.0-0.34-0.307-3.307,0,0,0,68,false,stim,true,2,491.70000000298023,0,0,0,69313,task1,1131374,false,false,1037,image-keyboard-response,25
true,8,0,2,2,false,d,false,true,0.0-2.0-0.34-0.308-3.308,0,0,0,81,false,stim,true,0,1252.3999999910593,0,0,2,69313,task1,1134142,false,true,1040,image-keyboard-response,26
true,8,1,2,2,false,d,false,false,0.0-2.0-0.34-0.309-3.309,0,0,0,90,false,stim,true,1,1754.0999999940395,0,0,1,69313,task1,1137410,false,false,1043,image-keyboard-response,27
true,8,0,2,1,false,z,true,false,0.0-2.0-0.34-0.310-3.310,0,0,0,81,false,stim,false,2,1075.699999988079,0,0,0,69313,task1,1139998,false,false,1046,image-keyboard-response,28
true,8,2,2,2,true,d,false,true,0.0-2.0-0.34-0.311-3.311,0,0,0,68,false,stim,false,1,830.5,0,0,1,69313,task1,1142344,false,false,1049,image-keyboard-response,29
true,8,1,2,2,false,d,true,false,0.0-2.0-0.34-0.312-3.312,0,0,0,90,false,stim,false,0,2387.9000000059605,0,0,2,69313,task1,1146246,false,false,1052,image-keyboard-response,30
true,8,2,2,1,false,z,false,false,0.0-2.0-0.34-0.313-3.313,0,0,0,68,false,stim,true,2,1843.2999999970198,0,0,0,69313,task1,1149608,false,false,1055,image-keyboard-response,31
true,8,1,2,2,false,d,false,false,0.0-2.0-0.34-0.314-3.314,0,0,0,90,false,stim,true,1,369.19999998807907,0,0,1,69313,task1,1151487,false,false,1058,image-keyboard-response,32
true,8,0,2,2,false,d,true,false,0.0-2.0-0.35-0.315-3.315,0,0,0,81,false,stim,false,1,499.0,0,0,1,69313,task1,1153500,false,false,1061,image-keyboard-response,33
true,8,1,2,1,true,z,false,true,0.0-2.0-0.35-0.316-3.316,0,0,0,90,false,stim,false,2,1826.2000000029802,0,0,0,69313,task1,1156836,false,false,1064,image-keyboard-response,34
true,8,2,2,2,true,d,false,true,0.0-2.0-0.35-0.317-3.317,0,0,0,68,false,stim,false,0,2454.0999999940395,0,0,2,69313,task1,1160805,false,false,1067,image-keyboard-response,35
true,8,2,2,2,true,d,false,true,0.0-2.0-0.35-0.318-3.318,0,0,0,68,false,stim,false,0,2089.1000000089407,0,0,2,69313,task1,1164409,false,false,1070,image-keyboard-response,36
true,8,2,2,2,true,d,false,true,0.0-2.0-0.35-0.319-3.319,0,0,0,68,false,stim,false,1,850.2999999970198,0,0,1,69313,task1,1166778,false,false,1073,image-keyboard-response,37
true,8,2,2,2,true,d,false,true,0.0-2.0-0.35-0.320-3.320,0,0,0,68,false,stim,false,0,491.90000000596046,0,0,2,69313,task1,1168783,false,false,1076,image-keyboard-response,38
true,8,1,2,1,true,z,false,true,0.0-2.0-0.35-0.321-3.321,0,0,0,90,false,stim,false,2,1524.8999999910593,0,0,0,69313,task1,1171822,false,false,1079,image-keyboard-response,39
true,8,0,2,2,false,d,true,false,0.0-2.0-0.35-0.322-3.322,0,0,0,81,false,stim,false,1,567.7000000029802,0,0,1,69313,task1,1173903,false,false,1082,image-keyboard-response,40
true,8,1,2,1,true,z,false,true,0.0-2.0-0.35-0.323-3.323,0,0,0,90,false,stim,false,2,1367.4000000059605,0,0,0,69313,task1,1176785,false,false,1085,image-keyboard-response,41
true,8,2,2,2,true,d,false,true,0.0-2.0-0.36-0.324-3.324,0,0,0,68,false,stim,false,0,912.4000000059605,0,0,2,69313,task1,1179216,false,false,1088,image-keyboard-response,42
true,9,1,1,0,false,q,true,false,0.0-2.0-0.36-0.325-3.325,0,0,0,90,true,stim,false,2,969.7999999970198,0,0,1,69313,task1,1181700,false,false,1091,image-keyboard-response,1
true,9,0,1,0,true,q,false,true,0.0-2.0-0.36-0.326-3.326,0,0,0,81,false,stim,false,2,720.7999999970198,0,0,2,69313,task1,1183935,false,false,1094,image-keyboard-response,2
true,9,1,1,2,false,d,false,false,0.0-2.0-0.36-0.327-3.327,0,0,0,90,false,stim,true,1,692.2000000029802,0,0,0,69313,task1,1186142,false,false,1097,image-keyboard-response,3
true,9,2,1,2,true,d,false,true,0.0-2.0-0.36-0.328-3.328,0,0,0,68,false,stim,false,1,990.5,0,0,0,69313,task1,1188646,false,false,1100,image-keyboard-response,4
true,9,0,1,0,true,q,false,true,0.0-2.0-0.36-0.329-3.329,0,0,0,81,false,stim,false,2,846.2999999970198,0,0,2,69313,task1,1191009,false,false,1103,image-keyboard-response,5
true,9,1,1,2,false,d,false,false,0.0-2.0-0.36-0.330-3.330,0,0,0,90,false,stim,true,1,740.2999999970198,0,0,0,69313,task1,1193263,false,false,1106,image-keyboard-response,6
true,9,2,1,0,false,q,false,false,0.0-2.0-0.36-0.331-3.331,0,0,0,68,false,stim,true,2,662.2000000029802,0,0,1,69313,task1,1195439,false,false,1109,image-keyboard-response,7
true,9,0,1,0,true,q,false,true,0.0-2.0-0.36-0.332-3.332,0,0,0,81,false,stim,false,2,540.4000000059605,0,0,1,69313,task1,1197489,false,false,1112,image-keyboard-response,8
true,9,1,1,0,false,q,true,false,0.0-2.0-0.37-0.333-3.333,0,0,0,90,false,stim,false,2,804.6000000089407,0,0,2,69313,task1,1199812,false,false,1115,image-keyboard-response,9
true,9,2,1,0,false,q,false,false,0.0-2.0-0.37-0.334-3.334,0,0,0,68,false,stim,true,2,832.9000000059605,0,0,2,69313,task1,1202159,false,false,1118,image-keyboard-response,10
true,9,0,1,0,true,q,false,true,0.0-2.0-0.37-0.335-3.335,0,0,0,81,false,stim,false,2,2727.5999999940395,0,0,1,69313,task1,1206397,false,false,1121,image-keyboard-response,11
true,9,1,1,2,false,d,false,false,0.0-2.0-0.37-0.336-3.336,0,0,0,90,false,stim,true,1,1647.5,0,0,0,69313,task1,1209558,false,false,1124,image-keyboard-response,12
true,9,2,1,0,false,q,false,false,0.0-2.0-0.37-0.337-3.337,0,0,0,68,false,stim,true,2,1226.9000000059605,0,0,2,69313,task1,1212303,false,false,1127,image-keyboard-response,13
true,9,0,1,2,false,d,true,false,0.0-2.0-0.37-0.338-3.338,0,0,0,81,false,stim,false,1,577.2000000029802,0,0,0,69313,task1,1214393,false,false,1130,image-keyboard-response,14
true,9,0,1,0,true,q,false,true,0.0-2.0-0.37-0.339-3.339,0,0,0,81,false,stim,false,2,1837.8999999910593,0,0,1,69313,task1,1217747,false,false,1133,image-keyboard-response,15
true,9,0,1,0,true,q,false,true,0.0-2.0-0.37-0.340-3.340,0,0,0,81,false,stim,false,2,518.6000000089407,0,0,1,69313,task1,1219783,false,false,1136,image-keyboard-response,16
true,9,1,1,2,false,d,false,false,0.0-2.0-0.37-0.341-3.341,0,0,0,90,false,stim,true,1,1436.0999999940395,0,0,0,69313,task1,1222737,false,false,1139,image-keyboard-response,17
true,9,0,1,0,true,q,false,true,0.0-2.0-0.38-0.342-3.342,0,0,0,81,false,stim,false,2,771.4000000059605,0,0,1,69313,task1,1225026,false,false,1142,image-keyboard-response,18
true,9,0,1,0,true,q,false,true,0.0-2.0-0.38-0.343-3.343,0,0,0,81,false,stim,false,2,1924.4000000059605,0,0,2,69313,task1,1228467,false,false,1145,image-keyboard-response,19
true,9,1,1,2,false,d,false,false,0.0-2.0-0.38-0.344-3.344,0,0,0,90,false,stim,true,1,2169.5999999940395,0,0,0,69313,task1,1232153,false,false,1148,image-keyboard-response,20
true,9,0,1,0,true,q,false,true,0.0-2.0-0.38-0.345-3.345,0,0,0,81,false,stim,false,2,1138.2999999970198,0,0,2,69313,task1,1234807,false,false,1151,image-keyboard-response,21
true,9,0,1,2,false,d,true,false,0.0-2.0-0.38-0.346-3.346,0,0,0,81,false,stim,false,1,754.7000000029802,0,0,0,69313,task1,1237078,false,false,1154,image-keyboard-response,22
true,9,0,1,0,true,q,false,true,0.0-2.0-0.38-0.347-3.347,0,0,0,81,false,stim,false,2,658.0,0,0,1,69313,task1,1239250,false,false,1157,image-keyboard-response,23
true,9,0,1,0,true,q,false,true,0.0-2.0-0.38-0.348-3.348,0,0,0,81,false,stim,false,2,461.69999998807907,0,0,2,69313,task1,1241222,false,false,1160,image-keyboard-response,24
true,9,2,1,2,true,d,false,false,0.0-2.0-0.38-0.349-3.349,0,0,0,68,false,stim,false,1,1077.300000011921,0,0,0,69313,task1,1243813,false,true,1163,image-keyboard-response,25
true,9,0,1,0,true,q,false,true,0.0-2.0-0.38-0.350-3.350,0,0,0,81,false,stim,false,2,615.9000000059605,0,0,1,69313,task1,1245946,false,false,1166,image-keyboard-response,26
true,9,1,1,2,false,d,false,false,0.0-2.0-0.39-0.351-3.351,0,0,0,90,false,stim,true,1,1243.2000000029802,0,0,0,69313,task1,1248703,false,false,1169,image-keyboard-response,27
true,9,0,1,0,true,q,false,true,0.0-2.0-0.39-0.352-3.352,0,0,0,81,false,stim,false,2,652.5,0,0,2,69313,task1,1250869,false,false,1172,image-keyboard-response,28
true,9,0,1,0,true,q,false,false,0.0-2.0-0.39-0.353-3.353,0,0,0,81,false,stim,false,2,477.09999999403954,0,0,1,69313,task1,1252861,false,true,1175,image-keyboard-response,29
true,9,1,1,0,false,q,true,true,0.0-2.0-0.39-0.354-3.354,0,0,0,90,false,stim,false,2,1120.8999999910593,0,0,1,69313,task1,1255495,false,true,1178,image-keyboard-response,30
true,9,0,1,2,false,d,true,false,0.0-2.0-0.39-0.355-3.355,0,0,0,81,false,stim,false,1,2054.3999999910593,0,0,0,69313,task1,1259062,false,false,1181,image-keyboard-response,31
true,9,0,1,0,true,q,false,true,0.0-2.0-0.39-0.356-3.356,0,0,0,81,false,stim,false,2,1237.2999999970198,0,0,2,69313,task1,1261816,false,false,1184,image-keyboard-response,32
true,9,2,1,2,true,d,false,true,0.0-2.0-0.39-0.357-3.357,0,0,0,68,false,stim,false,1,1628.0999999940395,0,0,0,69313,task1,1264959,false,false,1187,image-keyboard-response,33
true,9,1,1,0,false,q,true,false,0.0-2.0-0.39-0.358-3.358,0,0,0,90,false,stim,false,2,2118.199999988079,0,0,1,69313,task1,1268594,false,false,1190,image-keyboard-response,34
true,9,1,1,0,false,q,true,true,0.0-2.0-0.39-0.359-3.359,0,0,0,90,false,stim,false,2,866.5999999940395,0,0,2,69313,task1,1270974,false,true,1193,image-keyboard-response,35
true,9,2,1,2,true,d,false,true,0.0-2.0-0.40-0.360-3.360,0,0,0,68,false,stim,false,1,1620.300000011921,0,0,0,69313,task1,1274110,false,false,1196,image-keyboard-response,36
true,9,0,1,0,true,q,false,true,0.0-2.0-0.40-0.361-3.361,0,0,0,81,false,stim,false,2,1644.0999999940395,0,0,2,69313,task1,1277272,false,false,1199,image-keyboard-response,37
true,9,2,1,2,true,d,false,true,0.0-2.0-0.40-0.362-3.362,0,0,0,68,false,stim,false,1,2143.9000000059605,0,0,0,69313,task1,1280938,false,false,1202,image-keyboard-response,38
true,9,1,1,0,false,q,true,false,0.0-2.0-0.40-0.363-3.363,0,0,0,90,false,stim,false,2,1400.0999999940395,0,0,1,69313,task1,1283852,false,false,1205,image-keyboard-response,39
true,9,0,1,0,true,q,false,true,0.0-2.0-0.40-0.364-3.364,0,0,0,81,false,stim,false,2,2104.0999999940395,0,0,2,69313,task1,1287470,false,false,1208,image-keyboard-response,40
true,9,0,1,0,true,q,false,true,0.0-2.0-0.40-0.365-3.365,0,0,0,81,false,stim,false,2,691.2999999970198,0,0,2,69313,task1,1289679,false,false,1211,image-keyboard-response,41
true,9,2,1,2,true,d,false,true,0.0-2.0-0.40-0.366-3.366,0,0,0,68,false,stim,false,1,1004.5999999940395,0,0,0,69313,task1,1292200,false,false,1214,image-keyboard-response,42
true,9,1,1,0,false,q,true,false,0.0-2.0-0.40-0.367-3.367,0,0,0,90,false,stim,false,2,1176.0,0,0,1,69313,task1,1294891,false,false,1217,image-keyboard-response,43
true,10,1,1,2,false,d,true,false,0.0-2.0-0.40-0.368-3.368,0,0,0,90,true,stim,false,0,588.6999999880791,0,0,1,69313,task1,1296998,false,false,1220,image-keyboard-response,1
true,10,1,1,1,true,z,false,true,0.0-2.0-0.41-0.369-3.369,0,0,0,90,false,stim,false,0,605.0,0,0,2,69313,task1,1299118,false,false,1223,image-keyboard-response,2
true,10,2,1,1,false,z,false,true,0.0-2.0-0.41-0.370-3.370,0,0,0,68,false,stim,true,2,1040.7999999970198,0,0,0,69313,task1,1301673,false,true,1226,image-keyboard-response,3
true,10,2,1,1,false,z,false,false,0.0-2.0-0.41-0.371-3.371,0,0,0,68,false,stim,true,2,498.90000000596046,0,0,0,69313,task1,1303684,false,false,1229,image-keyboard-response,4
true,10,1,1,2,false,d,true,false,0.0-2.0-0.41-0.372-3.372,0,0,0,90,false,stim,false,0,1941.7999999970198,0,0,1,69313,task1,1307138,false,false,1232,image-keyboard-response,5
true,10,1,1,2,false,d,true,false,0.0-2.0-0.41-0.373-3.373,0,0,0,90,false,stim,false,0,330.09999999403954,0,0,1,69313,task1,1308986,false,false,1235,image-keyboard-response,6
true,10,1,1,1,true,z,false,true,0.0-2.0-0.41-0.374-3.374,0,0,0,90,false,stim,false,0,472.59999999403954,0,0,2,69313,task1,1310976,false,false,1238,image-keyboard-response,7
true,10,1,1,1,true,z,false,true,0.0-2.0-0.41-0.375-3.375,0,0,0,90,false,stim,false,0,507.40000000596046,0,0,2,69313,task1,1312999,false,false,1241,image-keyboard-response,8
true,10,2,1,1,false,z,false,false,0.0-2.0-0.41-0.376-3.376,0,0,0,68,false,stim,true,2,1031.7000000029802,0,0,0,69313,task1,1315544,false,false,1244,image-keyboard-response,9
true,10,1,1,2,false,d,true,false,0.0-2.0-0.41-0.377-3.377,0,0,0,90,false,stim,false,0,1251.7999999970198,0,0,1,69313,task1,1318313,false,false,1247,image-keyboard-response,10
true,10,2,1,1,false,z,false,false,0.0-2.0-0.42-0.378-3.378,0,0,0,68,false,stim,true,2,1273.5,0,0,0,69313,task1,1321100,false,false,1250,image-keyboard-response,11
true,10,1,1,2,false,d,true,false,0.0-2.0-0.42-0.379-3.379,0,0,0,90,false,stim,false,0,984.2000000029802,0,0,1,69313,task1,1323598,false,false,1253,image-keyboard-response,12
true,10,1,1,2,false,d,true,false,0.0-2.0-0.42-0.380-3.380,0,0,0,90,false,stim,false,0,408.70000000298023,0,0,1,69313,task1,1325518,false,false,1256,image-keyboard-response,13
true,10,1,1,2,false,d,true,false,0.0-2.0-0.42-0.381-3.381,0,0,0,90,false,stim,false,0,382.70000000298023,0,0,1,69313,task1,1327414,false,false,1259,image-keyboard-response,14
true,10,2,1,1,false,z,false,false,0.0-2.0-0.42-0.382-3.382,0,0,0,68,false,stim,true,2,926.9000000059605,0,0,0,69313,task1,1329856,false,false,1262,image-keyboard-response,15
true,10,0,1,1,false,z,false,true,0.0-2.0-0.42-0.383-3.383,0,0,0,81,false,stim,true,0,1606.2999999970198,0,0,2,69313,task1,1332974,false,true,1265,image-keyboard-response,16
true,10,0,1,1,false,z,false,false,0.0-2.0-0.42-0.384-3.384,0,0,0,81,false,stim,true,0,391.5,0,0,2,69313,task1,1334880,false,false,1268,image-keyboard-response,17
true,10,0,1,1,false,z,false,false,0.0-2.0-0.42-0.385-3.385,0,0,0,81,false,stim,true,0,365.70000000298023,0,0,2,69313,task1,1336757,false,false,1271,image-keyboard-response,18
true,10,2,1,1,false,z,false,false,0.0-2.0-0.42-0.386-3.386,0,0,0,68,false,stim,true,2,956.5999999940395,0,0,0,69313,task1,1339229,false,false,1274,image-keyboard-response,19
true,10,1,1,1,true,z,false,true,0.0-2.0-0.43-0.387-3.387,0,0,0,90,false,stim,false,0,1802.7000000029802,0,0,2,69313,task1,1342545,false,false,1277,image-keyboard-response,20
true,10,0,1,1,false,z,true,false,0.0-2.0-0.43-0.388-3.388,0,0,0,81,false,stim,false,2,2529.2999999970198,0,0,0,69313,task1,1346593,false,false,1280,image-keyboard-response,21
true,10,2,1,2,true,d,false,true,0.0-2.0-0.43-0.389-3.389,0,0,0,68,false,stim,false,0,2354.6000000089407,0,0,1,69313,task1,1350459,false,false,1283,image-keyboard-response,22
true,10,0,1,1,false,z,true,false,0.0-2.0-0.43-0.390-3.390,0,0,0,81,false,stim,false,2,1157.3999999910593,0,0,0,69313,task1,1353134,false,false,1286,image-keyboard-response,23
true,10,1,1,2,false,d,true,false,0.0-2.0-0.43-0.391-3.391,0,0,0,90,false,stim,false,0,1167.5,0,0,1,69313,task1,1355814,false,false,1289,image-keyboard-response,24
true,10,1,1,1,true,z,false,true,0.0-2.0-0.43-0.392-3.392,0,0,0,90,false,stim,false,2,1467.800000011921,0,0,0,69313,task1,1358795,false,false,1292,image-keyboard-response,25
true,10,0,1,1,false,z,false,false,0.0-2.0-0.43-0.393-3.393,0,0,0,81,false,stim,true,0,1093.3999999910593,0,0,2,69313,task1,1361406,false,false,1295,image-keyboard-response,26
true,10,1,1,1,true,z,false,true,0.0-2.0-0.43-0.394-3.394,0,0,0,90,false,stim,false,0,802.6000000089407,0,0,2,69313,task1,1363726,false,false,1298,image-keyboard-response,27
true,10,2,1,2,true,d,false,true,0.0-2.0-0.43-0.395-3.395,0,0,0,68,false,stim,false,0,2755.9000000059605,0,0,1,69313,task1,1368004,false,false,1301,image-keyboard-response,28
true,10,2,1,2,true,d,false,true,0.0-2.0-0.44-0.396-3.396,0,0,0,68,false,stim,false,0,842.0,0,0,1,69313,task1,1370358,false,false,1304,image-keyboard-response,29
true,10,1,1,1,true,z,false,true,0.0-2.0-0.44-0.397-3.397,0,0,0,90,false,stim,false,0,1189.300000011921,0,0,2,69313,task1,1373062,false,false,1307,image-keyboard-response,30
true,10,2,1,2,true,d,false,true,0.0-2.0-0.44-0.398-3.398,0,0,0,68,false,stim,false,0,896.2999999970198,0,0,1,69313,task1,1375470,false,false,1310,image-keyboard-response,31
true,10,1,1,1,true,z,false,true,0.0-2.0-0.44-0.399-3.399,0,0,0,90,false,stim,false,2,1011.5999999940395,0,0,0,69313,task1,1377996,false,false,1313,image-keyboard-response,32
true,10,2,1,1,false,z,true,false,0.0-2.0-0.44-0.400-3.400,0,0,0,68,false,stim,false,0,981.5,0,0,2,69313,task1,1380495,false,false,1316,image-keyboard-response,33
true,10,2,1,2,true,d,false,true,0.0-2.0-0.44-0.401-3.401,0,0,0,68,false,stim,false,0,1387.0,0,0,1,69313,task1,1383395,false,false,1319,image-keyboard-response,34
true,10,1,1,1,true,z,false,true,0.0-2.0-0.44-0.402-3.402,0,0,0,90,false,stim,false,0,1281.699999988079,0,0,2,69313,task1,1386194,false,false,1322,image-keyboard-response,35
true,10,1,1,1,true,z,false,true,0.0-2.0-0.44-0.403-3.403,0,0,0,90,false,stim,false,2,1437.7999999970198,0,0,0,69313,task1,1389150,false,false,1325,image-keyboard-response,36
true,10,1,1,1,true,z,false,true,0.0-2.0-0.44-0.404-3.404,0,0,0,90,false,stim,false,2,491.40000000596046,0,0,0,69313,task1,1391158,false,false,1328,image-keyboard-response,37
true,10,1,1,1,true,z,false,true,0.0-2.0-0.45-0.405-3.405,0,0,0,90,false,stim,false,0,1807.0999999940395,0,0,2,69313,task1,1394476,false,false,1331,image-keyboard-response,38
true,10,1,1,1,true,z,false,true,0.0-2.0-0.45-0.406-3.406,0,0,0,90,false,stim,false,2,776.9000000059605,0,0,0,69313,task1,1396764,false,false,1334,image-keyboard-response,39
true,10,1,1,1,true,z,false,true,0.0-2.0-0.45-0.407-3.407,0,0,0,90,false,stim,false,2,443.40000000596046,0,0,0,69313,task1,1398718,false,false,1337,image-keyboard-response,40
true,10,2,1,2,true,d,false,false,0.0-2.0-0.45-0.408-3.408,0,0,0,68,false,stim,false,0,1156.5,0,0,1,69313,task1,1401385,false,true,1340,image-keyboard-response,41
true,10,1,1,1,true,z,false,false,0.0-2.0-0.45-0.409-3.409,0,0,0,90,false,stim,false,0,912.5,0,0,2,69313,task1,1403815,false,true,1343,image-keyboard-response,42
true,10,0,1,1,false,z,false,false,0.0-2.0-0.45-0.410-3.410,0,0,0,81,false,stim,true,0,570.4000000059605,0,0,2,69313,task1,1405901,false,false,1346,image-keyboard-response,43
true,10,1,1,1,true,z,false,true,0.0-2.0-0.45-0.411-3.411,0,0,0,90,false,stim,false,2,1496.2000000029802,0,0,0,69313,task1,1408916,false,false,1349,image-keyboard-response,44
true,11,2,1,0,false,q,false,false,0.0-2.0-0.45-0.412-3.412,0,0,0,68,true,stim,true,2,1133.7999999970198,0,0,1,69313,task1,1411564,false,false,1352,image-keyboard-response,1
true,11,1,1,0,false,q,true,false,0.0-2.0-0.45-0.413-3.413,0,0,0,90,false,stim,false,2,929.7999999970198,0,0,1,69313,task1,1414006,false,false,1355,image-keyboard-response,2
true,11,1,1,2,false,d,false,false,0.0-2.0-0.46-0.414-3.414,0,0,0,90,false,stim,true,1,1339.1000000089407,0,0,0,69313,task1,1416860,false,false,1358,image-keyboard-response,3
true,11,1,1,2,false,d,false,false,0.0-2.0-0.46-0.415-3.415,0,0,0,90,false,stim,true,1,693.2999999970198,0,0,0,69313,task1,1419069,false,false,1361,image-keyboard-response,4
true,11,0,1,2,false,d,true,false,0.0-2.0-0.46-0.416-3.416,0,0,0,81,false,stim,false,1,1203.0,0,0,0,69313,task1,1421785,false,false,1364,image-keyboard-response,5
true,11,2,1,0,false,q,false,false,0.0-2.0-0.46-0.417-3.417,0,0,0,68,false,stim,true,2,1724.7000000029802,0,0,1,69313,task1,1425025,false,false,1367,image-keyboard-response,6
true,11,1,1,2,false,d,false,false,0.0-2.0-0.46-0.418-3.418,0,0,0,90,false,stim,true,1,1118.699999988079,0,0,2,69313,task1,1427658,false,false,1370,image-keyboard-response,7
true,11,0,1,2,false,d,true,false,0.0-2.0-0.46-0.419-3.419,0,0,0,81,false,stim,false,1,1313.7000000029802,0,0,2,69313,task1,1430486,false,false,1373,image-keyboard-response,8
true,11,1,1,0,false,q,true,true,0.0-2.0-0.46-0.420-3.420,0,0,0,90,false,stim,false,2,1105.2000000029802,0,0,1,69313,task1,1433105,false,true,1376,image-keyboard-response,9
true,11,1,1,0,false,q,true,false,0.0-2.0-0.46-0.421-3.421,0,0,0,90,false,stim,false,2,493.20000000298023,0,0,1,69313,task1,1435111,false,false,1379,image-keyboard-response,10
true,11,1,1,2,false,d,false,false,0.0-2.0-0.46-0.422-3.422,0,0,0,90,false,stim,true,1,409.40000000596046,0,0,2,69313,task1,1437035,false,false,1382,image-keyboard-response,11
true,11,2,1,2,true,d,false,true,0.0-2.0-0.47-0.423-3.423,0,0,0,68,false,stim,false,1,1568.0,0,0,0,69313,task1,1440121,false,false,1385,image-keyboard-response,12
true,11,0,1,0,true,q,false,true,0.0-2.0-0.47-0.424-3.424,0,0,0,81,false,stim,false,2,1576.9000000059605,0,0,1,69313,task1,1443217,false,false,1388,image-keyboard-response,13
true,11,0,1,0,true,q,false,true,0.0-2.0-0.47-0.425-3.425,0,0,0,81,false,stim,false,2,558.5,0,0,1,69313,task1,1445294,false,false,1391,image-keyboard-response,14
true,11,0,1,0,true,q,false,true,0.0-2.0-0.47-0.426-3.426,0,0,0,81,false,stim,false,2,377.8999999910593,0,0,1,69313,task1,1447187,false,false,1394,image-keyboard-response,15
true,11,1,1,2,false,d,false,false,0.0-2.0-0.47-0.427-3.427,0,0,0,90,false,stim,true,1,1446.7999999970198,0,0,2,69313,task1,1450148,false,false,1397,image-keyboard-response,16
true,11,0,1,2,false,d,true,false,0.0-2.0-0.47-0.428-3.428,0,0,0,81,false,stim,false,1,892.1999999880791,0,0,0,69313,task1,1452555,false,false,1400,image-keyboard-response,17
true,11,2,1,2,true,d,false,true,0.0-2.0-0.47-0.429-3.429,0,0,0,68,false,stim,false,1,2003.5999999940395,0,0,2,69313,task1,1456079,false,false,1403,image-keyboard-response,18
true,11,1,1,2,false,d,false,false,0.0-2.0-0.47-0.430-3.430,0,0,0,90,false,stim,true,1,1441.9000000059605,0,0,0,69313,task1,1459031,false,false,1406,image-keyboard-response,19
true,11,2,1,2,true,d,false,true,0.0-2.0-0.47-0.431-3.431,0,0,0,68,false,stim,false,1,1277.199999988079,0,0,2,69313,task1,1461820,false,false,1409,image-keyboard-response,20
false,11,-1,1,2,false,d,true,false,0.0-2.0-0.48-0.432-3.432,0,0,0,,false,stim,false,1,,0,0,0,69313,task1,1466339,false,false,1412,image-keyboard-response,21
true,11,2,1,0,false,q,false,false,0.0-2.0-0.48-0.433-3.433,0,0,0,68,false,stim,true,2,902.8000000119209,0,0,1,69313,task1,1468758,false,false,1415,image-keyboard-response,22
true,11,1,1,2,false,d,false,false,0.0-2.0-0.48-0.434-3.434,0,0,0,90,false,stim,true,1,1360.4000000059605,0,0,0,69313,task1,1471632,false,false,1418,image-keyboard-response,23
true,11,0,1,2,false,d,true,false,0.0-2.0-0.48-0.435-3.435,0,0,0,81,false,stim,false,1,2149.5,0,0,2,69313,task1,1475294,false,false,1421,image-keyboard-response,24
true,11,0,1,2,false,d,true,false,0.0-2.0-0.48-0.436-3.436,0,0,0,81,false,stim,false,1,961.1000000089407,0,0,0,69313,task1,1477772,false,false,1424,image-keyboard-response,25
true,11,2,1,2,true,d,false,true,0.0-2.0-0.48-0.437-3.437,0,0,0,68,false,stim,false,1,959.5,0,0,2,69313,task1,1480249,false,false,1427,image-keyboard-response,26
true,11,2,1,0,false,q,false,false,0.0-2.0-0.48-0.438-3.438,0,0,0,68,false,stim,true,2,817.1000000089407,0,0,1,69313,task1,1482585,false,false,1430,image-keyboard-response,27
true,11,2,1,2,true,d,false,true,0.0-2.0-0.48-0.439-3.439,0,0,0,68,false,stim,false,1,1167.0,0,0,2,69313,task1,1485266,false,false,1433,image-keyboard-response,28
true,11,1,1,0,false,q,true,false,0.0-2.0-0.48-0.440-3.440,0,0,0,90,false,stim,false,2,1065.5,0,0,1,69313,task1,1487845,false,false,1436,image-keyboard-response,29
true,11,0,1,2,false,d,true,false,0.0-2.0-0.49-0.441-3.441,0,0,0,81,false,stim,false,1,871.6000000089407,0,0,0,69313,task1,1490230,false,false,1439,image-keyboard-response,30
true,11,2,1,2,true,d,false,true,0.0-2.0-0.49-0.442-3.442,0,0,0,68,false,stim,false,1,1037.9000000059605,0,0,2,69313,task1,1492784,false,false,1442,image-keyboard-response,31
true,11,1,1,2,false,d,false,false,0.0-2.0-0.49-0.443-3.443,0,0,0,90,false,stim,true,1,1029.0,0,0,0,69313,task1,1495329,false,false,1445,image-keyboard-response,32
true,11,2,1,2,true,d,false,true,0.0-2.0-0.49-0.444-3.444,0,0,0,68,false,stim,false,1,637.0,0,0,2,69313,task1,1497481,false,false,1448,image-keyboard-response,33
true,11,2,1,2,true,d,false,true,0.0-2.0-0.49-0.445-3.445,0,0,0,68,false,stim,false,1,514.0999999940395,0,0,2,69313,task1,1499504,false,false,1451,image-keyboard-response,34
true,11,2,1,0,false,q,false,false,0.0-2.0-0.49-0.446-3.446,0,0,0,68,false,stim,true,2,1284.5999999940395,0,0,1,69313,task1,1502300,false,false,1454,image-keyboard-response,35
false,11,-1,1,0,false,q,true,false,0.0-2.0-0.49-0.447-3.447,0,0,0,,false,stim,false,2,,0,0,1,69313,task1,1506823,false,false,1457,image-keyboard-response,36
true,11,0,1,2,false,d,true,false,0.0-2.0-0.49-0.448-3.448,0,0,0,81,false,stim,false,1,1018.9000000059605,0,0,0,69313,task1,1509356,false,false,1460,image-keyboard-response,37
true,11,0,1,0,true,q,false,true,0.0-2.0-0.49-0.449-3.449,0,0,0,81,false,stim,false,2,868.2999999970198,0,0,1,69313,task1,1511740,false,false,1463,image-keyboard-response,38
true,11,0,1,0,true,q,false,true,0.0-2.0-0.50-0.450-3.450,0,0,0,81,false,stim,false,2,646.3000000119209,0,0,1,69313,task1,1513895,false,false,1466,image-keyboard-response,39
true,11,2,1,2,true,d,false,true,0.0-2.0-0.50-0.451-3.451,0,0,0,68,false,stim,false,1,1232.2000000029802,0,0,2,69313,task1,1516641,false,false,1469,image-keyboard-response,40
true,11,0,1,2,false,d,true,true,0.0-2.0-0.50-0.452-3.452,0,0,0,81,false,stim,false,1,1162.300000011921,0,0,0,69313,task1,1519317,false,true,1472,image-keyboard-response,41
true,11,0,1,0,true,q,false,true,0.0-2.0-0.50-0.453-3.453,0,0,0,81,false,stim,false,2,1732.8999999910593,0,0,1,69313,task1,1522566,false,false,1475,image-keyboard-response,42
true,11,0,1,2,false,d,true,false,0.0-2.0-0.50-0.454-3.454,0,0,0,81,false,stim,false,1,710.4000000059605,0,0,0,69313,task1,1524791,false,false,1478,image-keyboard-response,43
true,11,2,1,2,true,d,false,true,0.0-2.0-0.50-0.455-3.455,0,0,0,68,false,stim,false,1,899.4000000059605,0,0,2,69313,task1,1527205,false,false,1481,image-keyboard-response,44
true,12,0,1,2,false,d,false,false,0.0-2.0-0.50-0.456-3.456,0,0,0,81,true,stim,true,0,968.9000000059605,0,0,1,69313,task1,1529691,false,false,1484,image-keyboard-response,1
true,12,1,1,0,false,q,true,false,0.0-2.0-0.50-0.457-3.457,0,0,0,90,false,stim,false,2,1387.4000000059605,0,0,0,69313,task1,1532595,false,false,1487,image-keyboard-response,2
true,12,2,1,1,false,z,false,false,0.0-2.0-0.50-0.458-3.458,0,0,0,68,false,stim,true,2,1060.7000000029802,0,0,2,69313,task1,1535168,false,false,1490,image-keyboard-response,3
true,12,2,1,0,false,q,false,false,0.0-2.0-0.51-0.459-3.459,0,0,0,68,false,stim,true,2,2624.0,0,0,0,69313,task1,1539309,false,false,1493,image-keyboard-response,4
true,12,1,1,1,true,z,false,false,0.0-2.0-0.51-0.460-3.460,0,0,0,90,false,stim,false,2,1576.9000000059605,0,0,2,69313,task1,1542402,false,true,1496,image-keyboard-response,5
true,12,0,1,1,false,z,true,false,0.0-2.0-0.51-0.461-3.461,0,0,0,81,false,stim,false,2,753.7000000029802,0,0,2,69313,task1,1544667,false,false,1499,image-keyboard-response,6
true,12,0,1,0,true,q,false,true,0.0-2.0-0.51-0.462-3.462,0,0,0,81,false,stim,false,2,2177.2999999970198,0,0,0,69313,task1,1548363,false,false,1502,image-keyboard-response,7
true,12,1,1,2,false,d,true,false,0.0-2.0-0.51-0.463-3.463,0,0,0,90,false,stim,false,0,1628.5999999940395,0,0,1,69313,task1,1551510,false,false,1505,image-keyboard-response,8
true,12,2,1,2,true,d,false,true,0.0-2.0-0.51-0.464-3.464,0,0,0,68,false,stim,false,0,1479.5999999940395,0,0,1,69313,task1,1554504,false,false,1508,image-keyboard-response,9
true,12,0,1,0,true,q,false,true,0.0-2.0-0.51-0.465-3.465,0,0,0,81,false,stim,false,2,1128.0,0,0,0,69313,task1,1557149,false,false,1511,image-keyboard-response,10
true,12,2,1,1,false,z,false,false,0.0-2.0-0.51-0.466-3.466,0,0,0,68,false,stim,true,2,1721.7000000029802,0,0,2,69313,task1,1560387,false,false,1514,image-keyboard-response,11
true,12,2,1,2,true,d,false,false,0.0-2.0-0.51-0.467-3.467,0,0,0,68,false,stim,false,0,662.7000000029802,0,0,1,69313,task1,1562559,false,true,1517,image-keyboard-response,12
true,12,1,1,2,false,d,true,false,0.0-2.0-0.52-0.468-3.468,0,0,0,90,false,stim,false,0,1064.4000000059605,0,0,1,69313,task1,1565137,false,false,1520,image-keyboard-response,13
true,12,2,1,1,false,z,false,false,0.0-2.0-0.52-0.469-3.469,0,0,0,68,false,stim,true,2,2045.8999999910593,0,0,2,69313,task1,1568700,false,false,1523,image-keyboard-response,14
true,12,0,1,1,false,z,true,false,0.0-2.0-0.52-0.470-3.470,0,0,0,81,false,stim,false,2,1186.6000000089407,0,0,2,69313,task1,1571398,false,false,1526,image-keyboard-response,15
true,12,1,1,0,false,q,true,false,0.0-2.0-0.52-0.471-3.471,0,0,0,90,false,stim,false,2,2099.1000000089407,0,0,0,69313,task1,1575008,false,false,1529,image-keyboard-response,16
true,12,2,1,2,true,d,false,true,0.0-2.0-0.52-0.472-3.472,0,0,0,68,false,stim,false,0,1353.7000000029802,0,0,1,69313,task1,1577877,false,false,1532,image-keyboard-response,17
false,12,-1,1,2,false,d,true,false,0.0-2.0-0.52-0.473-3.473,0,0,0,,false,stim,false,0,,0,0,1,69313,task1,1582396,false,false,1535,image-keyboard-response,18
false,12,-1,1,1,false,z,true,false,0.0-2.0-0.52-0.474-3.474,0,0,0,,false,stim,false,2,,0,0,2,69313,task1,1586917,false,false,1538,image-keyboard-response,19
true,12,0,1,0,true,q,false,true,0.0-2.0-0.52-0.475-3.475,0,0,0,81,false,stim,false,2,393.3999999910593,0,0,0,69313,task1,1588826,false,false,1541,image-keyboard-response,20
true,12,0,1,0,true,q,false,true,0.0-2.0-0.52-0.476-3.476,0,0,0,81,false,stim,false,2,470.29999999701977,0,0,0,69313,task1,1590813,false,false,1544,image-keyboard-response,21
true,12,0,1,0,true,q,false,true,0.0-2.0-0.53-0.477-3.477,0,0,0,81,false,stim,false,2,448.70000000298023,0,0,0,69313,task1,1592776,false,false,1547,image-keyboard-response,22
true,12,0,1,2,false,d,false,false,0.0-2.0-0.53-0.478-3.478,0,0,0,81,false,stim,true,0,588.5,0,0,1,69313,task1,1594875,false,false,1550,image-keyboard-response,23
true,12,0,1,1,false,z,true,false,0.0-2.0-0.53-0.479-3.479,0,0,0,81,false,stim,false,2,1646.2000000029802,0,0,2,69313,task1,1598037,false,false,1553,image-keyboard-response,24
true,12,1,1,2,false,d,true,false,0.0-2.0-0.53-0.480-3.480,0,0,0,90,false,stim,false,0,1062.5,0,0,1,69313,task1,1600614,false,false,1556,image-keyboard-response,25
true,12,2,1,1,false,z,false,false,0.0-2.0-0.53-0.481-3.481,0,0,0,68,false,stim,true,2,1457.8999999910593,0,0,2,69313,task1,1603590,false,false,1559,image-keyboard-response,26
true,12,0,1,2,false,d,false,false,0.0-2.0-0.53-0.482-3.482,0,0,0,81,false,stim,true,0,1078.0,0,0,1,69313,task1,1606182,false,false,1562,image-keyboard-response,27
true,12,0,1,0,true,q,false,true,0.0-2.0-0.53-0.483-3.483,0,0,0,81,false,stim,false,2,771.2000000029802,0,0,0,69313,task1,1608469,false,false,1565,image-keyboard-response,28
true,12,0,1,0,true,q,false,true,0.0-2.0-0.53-0.484-3.484,0,0,0,81,false,stim,false,2,1084.9000000059605,0,0,0,69313,task1,1611071,false,false,1568,image-keyboard-response,29
true,12,0,1,1,false,z,true,false,0.0-2.0-0.53-0.485-3.485,0,0,0,81,false,stim,false,2,899.1000000089407,0,0,2,69313,task1,1613489,false,false,1571,image-keyboard-response,30
true,12,1,1,2,false,d,true,false,0.0-2.0-0.54-0.486-3.486,0,0,0,90,false,stim,false,0,1260.2999999970198,0,0,1,69313,task1,1616266,false,false,1574,image-keyboard-response,31
true,12,2,1,1,false,z,false,true,0.0-2.0-0.54-0.487-3.487,0,0,0,68,false,stim,true,2,931.2999999970198,0,0,2,69313,task1,1618711,false,true,1577,image-keyboard-response,32
true,12,0,1,0,true,q,false,true,0.0-2.0-0.54-0.488-3.488,0,0,0,81,false,stim,false,2,1034.7000000029802,0,0,0,69313,task1,1621266,false,false,1580,image-keyboard-response,33
true,12,2,1,2,true,d,false,true,0.0-2.0-0.54-0.489-3.489,0,0,0,68,false,stim,false,0,1849.5,0,0,1,69313,task1,1624629,false,false,1583,image-keyboard-response,34
true,12,0,1,0,true,q,false,true,0.0-2.0-0.54-0.490-3.490,0,0,0,81,false,stim,false,2,1035.2000000029802,0,0,0,69313,task1,1627181,false,false,1586,image-keyboard-response,35
true,12,2,1,1,false,z,false,false,0.0-2.0-0.54-0.491-3.491,0,0,0,68,false,stim,true,2,964.0,0,0,2,69313,task1,1629664,false,false,1589,image-keyboard-response,36
true,12,0,1,0,true,q,false,true,0.0-2.0-0.54-0.492-3.492,0,0,0,81,false,stim,false,2,962.0,0,0,0,69313,task1,1632139,false,false,1592,image-keyboard-response,37
true,12,2,1,2,true,d,false,true,0.0-2.0-0.54-0.493-3.493,0,0,0,68,false,stim,false,0,1079.1000000089407,0,0,1,69313,task1,1634732,false,false,1595,image-keyboard-response,38
true,12,1,1,1,true,z,false,true,0.0-2.0-0.54-0.494-3.494,0,0,0,90,false,stim,false,2,843.0,0,0,2,69313,task1,1637094,false,false,1598,image-keyboard-response,39
true,13,0,2,2,false,d,false,false,0.0-2.0-0.55-0.495-3.495,0,0,0,81,true,stim,true,0,933.0,0,0,0,69313,task1,1639553,false,false,1601,image-keyboard-response,1
true,13,1,2,1,true,z,false,true,0.0-2.0-0.55-0.496-3.496,0,0,0,90,false,stim,false,2,1457.5,0,0,1,69313,task1,1642528,false,false,1604,image-keyboard-response,2
true,13,2,2,2,true,d,false,true,0.0-2.0-0.55-0.497-3.497,0,0,0,68,false,stim,false,0,1636.199999988079,0,0,0,69313,task1,1645677,false,false,1607,image-keyboard-response,3
true,13,2,2,2,true,d,false,true,0.0-2.0-0.55-0.498-3.498,0,0,0,68,false,stim,false,0,759.9000000059605,0,0,0,69313,task1,1647955,false,false,1610,image-keyboard-response,4
true,13,2,2,0,false,q,true,false,0.0-2.0-0.55-0.499-3.499,0,0,0,68,false,stim,false,1,994.1999999880791,0,0,2,69313,task1,1650468,false,false,1613,image-keyboard-response,5
true,13,1,2,1,true,z,false,true,0.0-2.0-0.55-0.500-3.500,0,0,0,90,false,stim,false,2,2554.800000011921,0,0,1,69313,task1,1654539,false,false,1616,image-keyboard-response,6
true,13,1,2,1,true,z,false,true,0.0-2.0-0.55-0.501-3.501,0,0,0,90,false,stim,false,2,727.0999999940395,0,0,1,69313,task1,1656778,false,false,1619,image-keyboard-response,7
true,13,0,2,0,true,q,false,true,0.0-2.0-0.55-0.502-3.502,0,0,0,81,false,stim,false,1,1973.7000000029802,0,0,2,69313,task1,1660266,false,false,1622,image-keyboard-response,8
true,13,0,2,0,true,q,false,true,0.0-2.0-0.55-0.503-3.503,0,0,0,81,false,stim,false,1,556.4000000059605,0,0,2,69313,task1,1662342,false,false,1625,image-keyboard-response,9
true,13,0,2,0,true,q,false,true,0.0-2.0-0.56-0.504-3.504,0,0,0,81,false,stim,false,1,557.7000000029802,0,0,2,69313,task1,1664418,false,false,1628,image-keyboard-response,10
true,13,2,2,2,true,d,false,true,0.0-2.0-0.56-0.505-3.505,0,0,0,68,false,stim,false,0,1570.4000000059605,0,0,0,69313,task1,1667506,false,false,1631,image-keyboard-response,11
true,13,1,2,1,true,z,false,true,0.0-2.0-0.56-0.506-3.506,0,0,0,90,false,stim,false,2,1161.5,0,0,1,69313,task1,1670184,false,false,1634,image-keyboard-response,12
true,13,0,2,0,true,q,false,true,0.0-2.0-0.56-0.507-3.507,0,0,0,81,false,stim,false,1,985.2000000029802,0,0,2,69313,task1,1672684,false,false,1637,image-keyboard-response,13
true,13,0,2,0,true,q,false,true,0.0-2.0-0.56-0.508-3.508,0,0,0,81,false,stim,false,1,565.8999999910593,0,0,2,69313,task1,1674765,false,false,1640,image-keyboard-response,14
true,13,1,2,1,true,z,false,true,0.0-2.0-0.56-0.509-3.509,0,0,0,90,false,stim,false,2,1465.8999999910593,0,0,1,69313,task1,1677747,false,false,1643,image-keyboard-response,15
true,13,0,2,2,false,d,false,false,0.0-2.0-0.56-0.510-3.510,0,0,0,81,false,stim,true,0,2203.7999999970198,0,0,0,69313,task1,1681468,false,false,1646,image-keyboard-response,16
true,13,2,2,2,true,d,false,true,0.0-2.0-0.56-0.511-3.511,0,0,0,68,false,stim,false,0,1329.6000000089407,0,0,0,69313,task1,1684315,false,false,1649,image-keyboard-response,17
true,13,1,2,1,true,z,false,false,0.0-2.0-0.56-0.512-3.512,0,0,0,90,false,stim,false,2,1561.4000000059605,0,0,1,69313,task1,1687393,false,true,1652,image-keyboard-response,18
true,13,2,2,2,true,d,false,true,0.0-2.0-0.57-0.513-3.513,0,0,0,68,false,stim,false,0,1952.2000000029802,0,0,0,69313,task1,1690862,false,false,1655,image-keyboard-response,19
true,13,0,2,0,true,q,false,true,0.0-2.0-0.57-0.514-3.514,0,0,0,81,false,stim,false,1,1469.5,0,0,2,69313,task1,1693848,false,false,1658,image-keyboard-response,20
true,13,2,2,2,true,d,false,true,0.0-2.0-0.57-0.515-3.515,0,0,0,68,false,stim,false,0,1144.2000000029802,0,0,0,69313,task1,1696511,false,false,1661,image-keyboard-response,21
true,13,1,2,1,true,z,false,true,0.0-2.0-0.57-0.516-3.516,0,0,0,90,false,stim,false,2,1749.7999999970198,0,0,1,69313,task1,1699774,false,false,1664,image-keyboard-response,22
true,13,0,2,0,true,q,false,true,0.0-2.0-0.57-0.517-3.517,0,0,0,81,false,stim,false,1,2791.2999999970198,0,0,2,69313,task1,1704077,false,false,1667,image-keyboard-response,23
true,13,2,2,1,false,z,false,false,0.0-2.0-0.57-0.518-3.518,0,0,0,68,false,stim,true,2,1824.800000011921,0,0,1,69313,task1,1707420,false,false,1670,image-keyboard-response,24
true,13,1,2,1,true,z,false,false,0.0-2.0-0.57-0.519-3.519,0,0,0,90,false,stim,false,2,1337.9000000059605,0,0,1,69313,task1,1710279,false,true,1673,image-keyboard-response,25
true,13,0,2,2,false,d,false,false,0.0-2.0-0.57-0.520-3.520,0,0,0,81,false,stim,true,0,1335.8999999910593,0,0,0,69313,task1,1713128,false,false,1676,image-keyboard-response,26
true,13,0,2,0,true,q,false,true,0.0-2.0-0.57-0.521-3.521,0,0,0,81,false,stim,false,1,753.4000000059605,0,0,2,69313,task1,1715398,false,false,1679,image-keyboard-response,27
true,13,2,2,2,true,d,false,true,0.0-2.0-0.58-0.522-3.522,0,0,0,68,false,stim,false,0,2501.2999999970198,0,0,0,69313,task1,1719418,false,false,1682,image-keyboard-response,28
true,13,0,2,0,true,q,false,true,0.0-2.0-0.58-0.523-3.523,0,0,0,81,false,stim,false,1,1054.5999999940395,0,0,2,69313,task1,1721987,false,false,1685,image-keyboard-response,29
true,13,1,2,1,true,z,false,true,0.0-2.0-0.58-0.524-3.524,0,0,0,90,false,stim,false,2,1021.7999999970198,0,0,1,69313,task1,1724523,false,false,1688,image-keyboard-response,30
true,13,1,2,1,true,z,false,true,0.0-2.0-0.58-0.525-3.525,0,0,0,90,false,stim,false,2,915.0999999940395,0,0,1,69313,task1,1726952,false,false,1691,image-keyboard-response,31
true,13,1,2,1,true,z,false,true,0.0-2.0-0.58-0.526-3.526,0,0,0,90,false,stim,false,2,388.20000000298023,0,0,1,69313,task1,1728852,false,false,1694,image-keyboard-response,32
true,13,0,2,0,true,q,false,true,0.0-2.0-0.58-0.527-3.527,0,0,0,81,false,stim,false,1,1870.2000000029802,0,0,2,69313,task1,1732235,false,false,1697,image-keyboard-response,33
true,13,2,2,2,true,d,false,true,0.0-2.0-0.58-0.528-3.528,0,0,0,68,false,stim,false,0,1227.0,0,0,0,69313,task1,1734976,false,false,1700,image-keyboard-response,34
true,13,0,2,0,true,q,false,true,0.0-2.0-0.58-0.529-3.529,0,0,0,81,false,stim,false,1,1291.5999999940395,0,0,2,69313,task1,1737790,false,false,1703,image-keyboard-response,35
true,13,2,2,2,true,d,false,true,0.0-2.0-0.58-0.530-3.530,0,0,0,68,false,stim,false,0,1326.2999999970198,0,1,0,69313,task1,1740631,false,false,1706,image-keyboard-response,36
false,13,-1,2,1,false,z,true,false,0.0-2.0-0.59-0.531-3.531,0,0,0,,false,stim,false,2,,0,1,1,69313,task1,1745149,false,false,1709,image-keyboard-response,37
true,13,0,2,2,false,d,false,true,0.0-2.0-0.59-0.532-3.532,0,0,0,81,false,stim,true,0,723.7000000029802,0,1,0,69313,task1,1747390,false,true,1712,image-keyboard-response,38
true,13,0,2,0,true,q,false,true,0.0-2.0-0.59-0.533-3.533,0,0,0,81,false,stim,false,1,1260.2000000029802,0,1,2,69313,task1,1750169,false,false,1715,image-keyboard-response,39
true,13,2,2,2,true,d,false,true,0.0-2.0-0.59-0.534-3.534,0,0,0,68,false,stim,false,0,1113.5,0,1,0,69313,task1,1752797,false,false,1718,image-keyboard-response,40
true,14,0,0,2,false,d,true,false,0.0-2.0-0.59-0.535-3.535,1,1,1,81,true,stim,false,2,2103.5999999940395,0,1,0,69313,task1,1877041,false,false,1841,image-keyboard-response,1
true,14,1,0,0,false,q,true,false,0.0-2.0-0.59-0.536-3.536,1,1,1,90,false,stim,false,0,1276.5999999940395,0,1,2,69313,task1,1879836,false,false,1844,image-keyboard-response,2
true,14,2,0,0,false,q,true,false,0.0-2.0-0.59-0.537-3.537,1,1,1,68,false,stim,false,0,1054.5,0,1,2,69313,task1,1882406,false,false,1847,image-keyboard-response,3
true,14,0,0,1,false,z,true,false,0.0-2.0-0.59-0.538-3.538,1,1,1,81,false,stim,false,1,744.0,0,1,1,69313,task1,1884663,false,false,1850,image-keyboard-response,4
true,14,1,0,1,true,z,false,true,0.0-2.0-0.59-0.539-3.539,1,1,1,90,false,stim,false,1,896.7000000029802,0,1,1,69313,task1,1887075,false,false,1853,image-keyboard-response,5
true,14,2,0,0,false,q,true,false,0.0-2.0-0.60-0.540-3.540,1,1,1,68,false,stim,false,0,1221.5,0,1,2,69313,task1,1889817,false,false,1856,image-keyboard-response,6
true,14,0,0,0,true,q,false,true,0.0-2.0-0.60-0.541-3.541,1,1,1,81,false,stim,false,0,1026.7999999970198,0,1,2,69313,task1,1892358,false,false,1859,image-keyboard-response,7
true,14,1,0,2,false,d,true,false,0.0-2.0-0.60-0.542-3.542,1,1,1,90,false,stim,false,2,2440.6000000089407,0,1,0,69313,task1,1896309,false,false,1862,image-keyboard-response,8
true,14,1,0,1,true,z,false,true,0.0-2.0-0.60-0.543-3.543,1,1,1,90,false,stim,false,1,1697.699999988079,0,0,1,69313,task1,1899527,false,false,1865,image-keyboard-response,9
true,14,0,0,0,true,q,false,false,0.0-2.0-0.60-0.544-3.544,1,1,1,81,false,stim,false,0,1057.5,0,0,2,69313,task1,1902103,false,true,1868,image-keyboard-response,10
true,14,0,0,2,false,d,true,false,0.0-2.0-0.60-0.545-3.545,1,1,1,81,false,stim,false,2,527.0,0,0,0,69313,task1,1904143,false,false,1871,image-keyboard-response,11
true,14,1,0,1,true,z,false,true,0.0-2.0-0.60-0.546-3.546,1,1,1,90,false,stim,false,1,838.7999999970198,0,0,1,69313,task1,1906499,false,false,1874,image-keyboard-response,12
true,14,1,0,1,true,z,false,true,0.0-2.0-0.60-0.547-3.547,1,1,1,90,false,stim,false,1,1011.7000000029802,0,0,1,69313,task1,1909030,false,false,1877,image-keyboard-response,13
true,15,2,2,1,false,z,false,false,0.0-2.0-0.60-0.548-3.548,0,0,0,68,true,stim,true,2,1230.300000011921,0,0,0,69313,task1,1911781,false,false,1880,image-keyboard-response,1
true,15,0,2,1,false,z,true,false,0.0-2.0-0.61-0.549-3.549,0,0,0,81,false,stim,false,2,621.5999999940395,0,0,0,69313,task1,1913920,false,false,1883,image-keyboard-response,2
true,15,1,2,2,false,d,true,false,0.0-2.0-0.61-0.550-3.550,0,0,0,90,false,stim,false,0,534.8999999910593,0,0,2,69313,task1,1915974,false,false,1886,image-keyboard-response,3
true,15,0,2,1,false,z,true,false,0.0-2.0-0.61-0.551-3.551,0,0,0,81,false,stim,false,2,1282.5,0,0,0,69313,task1,1918776,false,false,1889,image-keyboard-response,4
true,15,1,2,1,true,z,false,true,0.0-2.0-0.61-0.552-3.552,0,0,0,90,false,stim,false,2,1352.9000000059605,0,0,0,69313,task1,1921638,false,false,1892,image-keyboard-response,5
true,15,2,2,2,true,d,false,true,0.0-2.0-0.61-0.553-3.553,0,0,0,68,false,stim,false,1,1525.5,0,0,1,69313,task1,1924678,false,false,1895,image-keyboard-response,6
true,15,2,2,2,true,d,false,true,0.0-2.0-0.61-0.554-3.554,0,0,0,68,false,stim,false,1,883.0,0,0,1,69313,task1,1927080,false,false,1898,image-keyboard-response,7
false,15,-1,2,2,false,d,true,false,0.0-2.0-0.61-0.555-3.555,0,0,0,,false,stim,false,0,,0,0,2,69313,task1,1931611,false,false,1901,image-keyboard-response,8
true,15,2,2,2,true,d,false,true,0.0-2.0-0.61-0.556-3.556,0,0,0,68,false,stim,false,1,525.2000000029802,0,0,1,69313,task1,1933651,false,false,1904,image-keyboard-response,9
false,15,-1,2,2,false,d,true,true,0.0-2.0-0.61-0.557-3.557,0,0,0,,false,stim,false,0,,0,0,2,69313,task1,1938171,false,true,1907,image-keyboard-response,10
true,15,1,2,2,false,d,false,true,0.0-2.0-0.62-0.558-3.558,0,0,0,90,false,stim,true,1,959.2999999970198,0,0,1,69313,task1,1940648,false,true,1910,image-keyboard-response,11
true,15,2,2,2,true,d,false,false,0.0-2.0-0.62-0.559-3.559,0,0,0,68,false,stim,false,0,1872.6000000089407,0,0,2,69313,task1,1944035,false,true,1913,image-keyboard-response,12
true,15,1,2,2,false,d,false,false,0.0-2.0-0.62-0.560-3.560,0,0,0,90,false,stim,true,1,1348.7999999970198,0,0,1,69313,task1,1946904,false,false,1916,image-keyboard-response,13
true,15,0,2,2,false,d,false,false,0.0-2.0-0.62-0.561-3.561,0,0,0,81,false,stim,true,0,1415.7999999970198,0,0,2,69313,task1,1949839,false,false,1919,image-keyboard-response,14
true,15,1,2,1,true,z,false,true,0.0-2.0-0.62-0.562-3.562,0,0,0,90,false,stim,false,2,1094.7000000029802,0,0,0,69313,task1,1952448,false,false,1922,image-keyboard-response,15
true,15,2,2,1,false,z,false,false,0.0-2.0-0.62-0.563-3.563,0,0,0,68,false,stim,true,2,1428.9000000059605,0,0,0,69313,task1,1955391,false,false,1925,image-keyboard-response,16
true,15,1,2,2,false,d,false,false,0.0-2.0-0.62-0.564-3.564,0,0,0,90,false,stim,true,1,1379.0,0,0,1,69313,task1,1958282,false,false,1928,image-keyboard-response,17
true,15,0,2,1,false,z,true,false,0.0-2.0-0.62-0.565-3.565,0,0,0,81,false,stim,false,2,317.79999999701977,0,0,0,69313,task1,1960115,false,false,1931,image-keyboard-response,18
true,15,1,2,2,false,d,true,false,0.0-2.0-0.62-0.566-3.566,0,0,0,90,false,stim,false,0,413.0,0,0,2,69313,task1,1962046,false,false,1934,image-keyboard-response,19
true,15,2,2,2,true,d,false,true,0.0-2.0-0.63-0.567-3.567,0,0,0,68,false,stim,false,1,474.40000000596046,0,0,1,69313,task1,1964037,false,false,1937,image-keyboard-response,20
true,15,2,2,2,true,d,false,true,0.0-2.0-0.63-0.568-3.568,0,0,0,68,false,stim,false,0,1793.5,0,0,2,69313,task1,1967346,false,false,1940,image-keyboard-response,21
true,15,1,2,2,false,d,false,false,0.0-2.0-0.63-0.569-3.569,0,0,0,90,false,stim,true,1,1349.8999999910593,0,0,1,69313,task1,1970212,false,false,1943,image-keyboard-response,22
true,15,0,2,1,false,z,true,false,0.0-2.0-0.63-0.570-3.570,0,0,0,81,false,stim,false,2,674.7999999970198,0,0,0,69313,task1,1972404,false,false,1946,image-keyboard-response,23
true,15,0,2,2,false,d,true,false,0.0-2.0-0.63-0.571-3.571,0,0,0,81,false,stim,false,1,786.7999999970198,0,0,1,69313,task1,1974709,false,false,1949,image-keyboard-response,24
true,15,2,2,2,true,d,false,true,0.0-2.0-0.63-0.572-3.572,0,0,0,68,false,stim,false,0,974.5,0,0,2,69313,task1,1977200,false,false,1952,image-keyboard-response,25
true,15,2,2,1,false,z,false,false,0.0-2.0-0.63-0.573-3.573,0,0,0,68,false,stim,true,2,1709.5,0,0,0,69313,task1,1980425,false,false,1955,image-keyboard-response,26
true,15,2,2,2,true,d,false,true,0.0-2.0-0.63-0.574-3.574,0,0,0,68,false,stim,false,0,380.0,0,0,2,69313,task1,1982320,false,false,1958,image-keyboard-response,27
true,15,1,2,1,true,z,false,false,0.0-2.0-0.63-0.575-3.575,0,0,0,90,false,stim,false,2,1977.9000000059605,0,0,0,69313,task1,1985810,false,true,1961,image-keyboard-response,28
true,15,0,2,2,false,d,true,false,0.0-2.0-0.64-0.576-3.576,0,0,0,81,false,stim,false,1,608.0,0,0,1,69313,task1,1987938,false,false,1964,image-keyboard-response,29
true,15,1,2,2,false,d,false,false,0.0-2.0-0.64-0.577-3.577,0,0,0,90,false,stim,true,1,1079.2000000029802,0,0,1,69313,task1,1990532,false,false,1967,image-keyboard-response,30
true,15,0,2,1,false,z,true,false,0.0-2.0-0.64-0.578-3.578,0,0,0,81,false,stim,false,2,539.8999999910593,0,0,0,69313,task1,1992587,false,false,1970,image-keyboard-response,31
true,15,0,2,2,false,d,false,true,0.0-2.0-0.64-0.579-3.579,0,0,0,81,false,stim,true,0,702.7999999970198,0,0,2,69313,task1,1994803,false,true,1973,image-keyboard-response,32
true,15,2,2,1,false,z,false,false,0.0-2.0-0.64-0.580-3.580,0,0,0,68,false,stim,true,2,1911.0,0,0,0,69313,task1,1998224,false,false,1976,image-keyboard-response,33
true,15,1,2,2,false,d,true,false,0.0-2.0-0.64-0.581-3.581,0,0,0,90,false,stim,false,0,389.3999999910593,0,0,2,69313,task1,2000130,false,false,1979,image-keyboard-response,34
true,15,0,2,1,false,z,true,true,0.0-2.0-0.64-0.582-3.582,0,0,0,81,false,stim,false,2,593.3999999910593,0,0,0,69313,task1,2002239,false,true,1982,image-keyboard-response,35
false,15,-1,2,2,false,d,true,false,0.0-2.0-0.64-0.583-3.583,0,0,0,,false,stim,false,0,,0,0,2,69313,task1,2006758,false,false,1985,image-keyboard-response,36
true,15,0,2,2,false,d,true,true,0.0-2.0-0.64-0.584-3.584,0,0,0,81,false,stim,false,1,774.4000000059605,0,0,1,69313,task1,2009049,false,true,1988,image-keyboard-response,37
true,15,0,2,1,false,z,true,false,0.0-2.0-0.65-0.585-3.585,0,0,0,81,false,stim,false,2,2266.2999999970198,0,0,0,69313,task1,2012829,false,false,1991,image-keyboard-response,38
true,15,0,2,2,false,d,false,false,0.0-2.0-0.65-0.586-3.586,0,0,0,81,false,stim,true,0,1421.8999999910593,0,0,2,69313,task1,2015767,false,false,1994,image-keyboard-response,39
true,15,2,2,1,false,z,false,false,0.0-2.0-0.65-0.587-3.587,0,0,0,68,false,stim,true,2,2956.5999999940395,0,0,0,69313,task1,2020244,false,false,1997,image-keyboard-response,40
true,15,0,2,2,false,d,true,false,0.0-2.0-0.65-0.588-3.588,0,0,0,81,false,stim,false,1,511.19999998807907,0,0,1,69313,task1,2022276,false,false,2000,image-keyboard-response,41
true,15,1,2,2,false,d,false,false,0.0-2.0-0.65-0.589-3.589,0,0,0,90,false,stim,true,1,1012.2999999970198,0,0,1,69313,task1,2024814,false,false,2003,image-keyboard-response,42
