answered,blockNum,choice,condition,corResp,correct,correct_response,explo,fb,internal_node_id,isStable_1,isStable_2,isStable_3,key_press,newBlock,part,persev,persevResp,rt,sessNum,stableAS,stimulus,subject,task,time_elapsed,training,trap,trial_index,trial_type,trialsInBlock
true,1,2,0,0,false,q,true,false,0.0-2.0-0.0-0.0-3.0,0,0,0,68,true,stim,false,-1,1237.2999999821186,1,0,2,69313,task3,451452,false,false,133,image-keyboard-response,1
true,1,0,0,2,false,d,true,false,0.0-2.0-0.0-0.1-3.1,0,0,0,81,false,stim,false,-1,1533.2000000178814,1,0,0,69313,task3,454499,false,false,136,image-keyboard-response,2
true,1,1,0,0,false,q,true,false,0.0-2.0-0.0-0.2-3.2,0,0,0,90,false,stim,false,-1,792.7000000178814,1,0,1,69313,task3,456798,false,false,139,image-keyboard-response,3
true,1,2,0,2,true,d,false,true,0.0-2.0-0.0-0.3-3.3,0,0,0,68,false,stim,false,-1,603.9000000059605,1,0,0,69313,task3,458916,false,false,142,image-keyboard-response,4
true,1,0,0,0,true,q,false,true,0.0-2.0-0.0-0.4-3.4,0,0,0,81,false,stim,false,-1,1343.0,1,0,1,69313,task3,461771,false,false,145,image-keyboard-response,5
true,1,1,0,0,false,q,true,false,0.0-2.0-0.0-0.5-3.5,0,0,0,90,false,stim,false,-1,762.9000000059605,1,0,2,69313,task3,464048,false,false,148,image-keyboard-response,6
true,1,2,0,0,false,q,true,false,0.0-2.0-0.0-0.6-3.6,0,0,0,68,false,stim,false,-1,606.7999999821186,1,0,1,69313,task3,466164,false,false,151,image-keyboard-response,7
true,1,0,0,2,false,d,true,false,0.0-2.0-0.0-0.7-3.7,0,0,0,81,false,stim,false,-1,1035.800000011921,1,0,0,69313,task3,468710,false,false,154,image-keyboard-response,8
true,1,1,0,0,false,q,true,false,0.0-2.0-0.0-0.8-3.8,0,0,0,90,false,stim,false,-1,1310.3999999761581,1,0,2,69313,task3,471532,false,false,157,image-keyboard-response,9
true,1,2,0,2,true,d,false,true,0.0-2.0-0.1-0.9-3.9,0,0,0,68,false,stim,false,-1,860.5,1,0,0,69313,task3,473905,false,false,160,image-keyboard-response,10
true,1,0,0,2,false,d,true,false,0.0-2.0-0.1-0.10-3.10,0,0,0,81,false,stim,false,-1,1237.0,1,0,0,69313,task3,476653,false,false,163,image-keyboard-response,11
true,1,2,0,0,false,q,true,true,0.0-2.0-0.1-0.11-3.11,0,0,0,68,false,stim,false,-1,1271.300000011921,1,0,1,69313,task3,479439,false,true,166,image-keyboard-response,12
true,1,2,0,0,false,q,true,false,0.0-2.0-0.1-0.12-3.12,0,0,0,68,false,stim,false,-1,2288.9000000059605,1,0,1,69313,task3,483240,false,false,169,image-keyboard-response,13
true,1,1,0,0,false,q,true,false,0.0-2.0-0.1-0.13-3.13,0,0,0,90,false,stim,false,-1,461.40000000596046,1,0,2,69313,task3,485216,false,false,172,image-keyboard-response,14
true,1,0,0,0,true,q,false,true,0.0-2.0-0.1-0.14-3.14,0,0,0,81,false,stim,false,-1,1323.9000000059605,1,0,2,69313,task3,488054,false,false,175,image-keyboard-response,15
true,1,0,0,0,true,q,false,true,0.0-2.0-0.1-0.15-3.15,0,0,0,81,false,stim,false,-1,2901.199999988079,1,0,2,69313,task3,492463,false,false,178,image-keyboard-response,16
true,1,1,0,0,false,q,true,false,0.0-2.0-0.1-0.16-3.16,0,0,0,90,false,stim,false,-1,851.5999999940395,1,0,1,69313,task3,494831,false,false,181,image-keyboard-response,17
true,1,2,0,2,true,d,false,true,0.0-2.0-0.1-0.17-3.17,0,0,0,68,false,stim,false,-1,684.5999999940395,1,0,0,69313,task3,497026,false,false,184,image-keyboard-response,18
true,1,0,0,0,true,q,false,true,0.0-2.0-0.2-0.18-3.18,0,0,0,81,false,stim,false,-1,1057.300000011921,1,0,1,69313,task3,499595,false,false,187,image-keyboard-response,19
true,1,2,0,0,false,q,true,false,0.0-2.0-0.2-0.19-3.19,0,0,0,68,false,stim,false,-1,805.0999999940395,1,1,2,69313,task3,501911,false,false,190,image-keyboard-response,20
true,1,2,0,2,true,d,false,true,0.0-2.0-0.2-0.20-3.20,0,0,0,68,false,stim,false,-1,916.1999999880791,1,1,0,69313,task3,504339,false,false,193,image-keyboard-response,21
true,1,0,0,0,true,q,false,true,0.0-2.0-0.2-0.21-3.21,0,0,0,81,false,stim,false,-1,530.8999999761581,1,1,2,69313,task3,506383,false,false,196,image-keyboard-response,22
true,1,0,0,2,false,d,true,false,0.0-2.0-0.2-0.22-3.22,0,0,0,81,false,stim,false,-1,2732.300000011921,1,1,0,69313,task3,510625,false,false,199,image-keyboard-response,23
true,2,0,2,2,false,d,false,false,0.0-2.0-0.2-0.23-3.23,1,0,1,81,true,stim,true,0,783.3000000119209,1,0,1,69313,task3,512922,false,false,202,image-keyboard-response,1
true,2,2,2,2,true,d,false,true,0.0-2.0-0.2-0.24-3.24,1,0,1,68,false,stim,false,0,1787.2000000178814,1,0,1,69313,task3,516221,false,false,205,image-keyboard-response,2
true,2,2,2,0,false,q,true,false,0.0-2.0-0.2-0.25-3.25,1,0,1,68,false,stim,false,0,1537.300000011921,1,1,2,69313,task3,519270,false,false,208,image-keyboard-response,3
true,2,1,2,2,false,d,true,false,0.0-2.0-0.2-0.26-3.26,1,0,1,90,false,stim,false,2,892.6999999880791,1,1,0,69313,task3,521674,false,false,211,image-keyboard-response,4
true,2,0,2,2,false,d,true,false,0.0-2.0-0.3-0.27-3.27,1,0,1,81,false,stim,false,2,840.2000000178814,1,1,0,69313,task3,524026,false,false,214,image-keyboard-response,5
false,2,-1,2,0,false,q,true,true,0.0-2.0-0.3-0.28-3.28,1,0,1,,false,stim,false,0,,1,1,2,69313,task3,528541,false,true,217,image-keyboard-response,6
true,2,0,2,2,false,d,false,false,0.0-2.0-0.3-0.29-3.29,1,0,1,81,false,stim,true,0,1191.699999988079,1,0,1,69313,task3,531247,false,false,220,image-keyboard-response,7
false,2,-1,2,2,false,d,true,false,0.0-2.0-0.3-0.30-3.30,1,0,1,,false,stim,false,0,,1,0,1,69313,task3,535764,false,false,223,image-keyboard-response,8
false,2,-1,2,2,false,d,true,false,0.0-2.0-0.3-0.31-3.31,1,0,1,,false,stim,false,2,,1,1,0,69313,task3,540283,false,false,226,image-keyboard-response,9
true,2,1,2,0,false,q,true,false,0.0-2.0-0.3-0.32-3.32,1,0,1,90,false,stim,false,0,654.5,1,1,2,69313,task3,542449,false,false,229,image-keyboard-response,10
true,2,0,2,2,false,d,false,false,0.0-2.0-0.3-0.33-3.33,1,0,1,81,false,stim,true,0,923.0999999940395,1,1,1,69313,task3,544883,false,false,232,image-keyboard-response,11
true,2,1,2,2,false,d,true,false,0.0-2.0-0.3-0.34-3.34,1,0,1,90,false,stim,false,2,2314.2999999821186,1,0,0,69313,task3,548706,false,false,235,image-keyboard-response,12
true,2,2,2,0,false,q,true,false,0.0-2.0-0.3-0.35-3.35,1,0,1,68,false,stim,false,0,645.8000000119209,1,1,2,69313,task3,550863,false,false,238,image-keyboard-response,13
true,2,0,2,2,false,d,true,false,0.0-2.0-0.4-0.36-3.36,1,0,1,81,false,stim,false,2,1301.0999999940395,1,0,0,69313,task3,553676,false,false,241,image-keyboard-response,14
true,2,1,2,2,false,d,true,false,0.0-2.0-0.4-0.37-3.37,1,0,1,90,false,stim,false,2,1731.9000000059605,1,0,0,69313,task3,556923,false,false,244,image-keyboard-response,15
true,3,2,2,0,false,q,true,true,0.0-2.0-0.4-0.38-3.38,0,1,1,68,true,stim,false,0,942.4000000059605,1,1,2,69313,task3,559376,false,true,247,image-keyboard-response,1
true,3,2,2,0,false,q,true,false,0.0-2.0-0.4-0.39-3.39,0,1,1,68,false,stim,false,0,1437.5999999940395,1,1,2,69313,task3,562327,false,false,250,image-keyboard-response,2
true,3,0,2,2,false,d,true,false,0.0-2.0-0.4-0.40-3.40,0,1,1,81,false,stim,false,2,2636.5999999940395,1,1,1,69313,task3,566479,false,false,253,image-keyboard-response,3
true,3,1,2,2,false,d,true,false,0.0-2.0-0.4-0.41-3.41,0,1,1,90,false,stim,false,2,2426.0999999940395,1,1,1,69313,task3,570420,false,false,256,image-keyboard-response,4
true,3,2,2,1,false,z,false,false,0.0-2.0-0.4-0.42-3.42,0,1,1,68,false,stim,true,2,682.1999999880791,1,0,0,69313,task3,572614,false,false,259,image-keyboard-response,5
true,3,0,2,0,true,q,false,true,0.0-2.0-0.4-0.43-3.43,0,1,1,81,false,stim,false,0,932.7999999821186,1,1,2,69313,task3,575059,false,false,262,image-keyboard-response,6
true,3,1,2,2,false,d,true,false,0.0-2.0-0.4-0.44-3.44,0,1,1,90,false,stim,false,2,1304.9000000059605,1,1,1,69313,task3,577875,false,false,265,image-keyboard-response,7
true,3,2,2,0,false,q,true,false,0.0-2.0-0.5-0.45-3.45,0,1,1,68,false,stim,false,0,862.5,1,1,2,69313,task3,580248,false,false,268,image-keyboard-response,8
true,3,0,2,2,false,d,true,false,0.0-2.0-0.5-0.46-3.46,0,1,1,81,false,stim,false,2,485.5,1,0,1,69313,task3,582243,false,false,271,image-keyboard-response,9
true,3,1,2,0,false,q,true,false,0.0-2.0-0.5-0.47-3.47,0,1,1,90,false,stim,false,0,796.5999999940395,1,1,2,69313,task3,584552,false,false,274,image-keyboard-response,10
true,3,2,2,1,false,z,false,false,0.0-2.0-0.5-0.48-3.48,0,1,1,68,false,stim,true,2,433.90000000596046,1,1,0,69313,task3,586497,false,false,277,image-keyboard-response,11
true,3,0,2,1,false,z,true,false,0.0-2.0-0.5-0.49-3.49,0,1,1,81,false,stim,false,2,1346.0,1,1,0,69313,task3,589356,false,false,280,image-keyboard-response,12
true,4,1,2,0,false,q,true,false,0.0-2.0-0.5-0.50-3.50,1,0,1,90,true,stim,false,0,696.9000000059605,1,1,2,69313,task3,591565,false,false,283,image-keyboard-response,1
true,4,2,2,1,false,z,true,false,0.0-2.0-0.5-0.51-3.51,1,0,1,68,false,stim,false,1,458.5,1,1,0,69313,task3,593539,false,false,286,image-keyboard-response,2
true,4,0,2,0,true,q,false,true,0.0-2.0-0.5-0.52-3.52,1,0,1,81,false,stim,false,2,439.59999999403954,1,0,1,69313,task3,595493,false,false,289,image-keyboard-response,3
true,4,1,2,0,false,q,true,false,0.0-2.0-0.5-0.53-3.53,1,0,1,90,false,stim,false,2,935.5,1,0,1,69313,task3,597941,false,false,292,image-keyboard-response,4
true,4,2,2,0,false,q,true,true,0.0-2.0-0.6-0.54-3.54,1,0,1,68,false,stim,false,0,844.2000000178814,1,1,2,69313,task3,600297,false,true,295,image-keyboard-response,5
false,4,-1,2,0,false,q,true,false,0.0-2.0-0.6-0.55-3.55,1,0,1,,false,stim,false,0,,1,1,2,69313,task3,604814,false,false,298,image-keyboard-response,6
true,4,0,2,0,true,q,false,true,0.0-2.0-0.6-0.56-3.56,1,0,1,81,false,stim,false,0,386.59999999403954,1,1,2,69313,task3,606715,false,false,301,image-keyboard-response,7
false,4,-1,2,1,false,z,true,true,0.0-2.0-0.6-0.57-3.57,1,0,1,,false,stim,false,1,,1,1,0,69313,task3,611235,false,true,304,image-keyboard-response,8
true,4,0,2,1,false,z,true,false,0.0-2.0-0.6-0.58-3.58,1,0,1,81,false,stim,false,1,884.4000000059605,1,1,0,69313,task3,613634,false,false,307,image-keyboard-response,9
true,4,1,2,0,false,q,true,false,0.0-2.0-0.6-0.59-3.59,1,0,1,90,false,stim,false,2,838.8000000119209,1,0,1,69313,task3,615988,false,false,310,image-keyboard-response,10
true,4,2,2,0,false,q,false,false,0.0-2.0-0.6-0.60-3.60,1,0,1,68,false,stim,true,2,1669.5,1,0,1,69313,task3,619171,false,false,313,image-keyboard-response,11
true,4,0,2,1,false,z,true,false,0.0-2.0-0.6-0.61-3.61,1,0,1,81,false,stim,false,1,903.2000000178814,1,1,0,69313,task3,621583,false,false,316,image-keyboard-response,12
true,4,0,2,0,true,q,false,true,0.0-2.0-0.6-0.62-3.62,1,0,1,81,false,stim,false,2,863.5,1,0,1,69313,task3,623958,false,false,319,image-keyboard-response,13
true,4,1,2,0,false,q,true,false,0.0-2.0-0.7-0.63-3.63,1,0,1,90,false,stim,false,2,926.4000000059605,1,0,1,69313,task3,626399,false,false,322,image-keyboard-response,14
true,4,2,2,0,false,q,true,false,0.0-2.0-0.7-0.64-3.64,1,0,1,68,false,stim,false,0,378.30000001192093,1,1,2,69313,task3,628286,false,false,325,image-keyboard-response,15
true,4,0,2,0,true,q,false,true,0.0-2.0-0.7-0.65-3.65,1,0,1,81,false,stim,false,2,1170.300000011921,1,0,1,69313,task3,630967,false,false,328,image-keyboard-response,16
true,4,0,2,0,true,q,false,true,0.0-2.0-0.7-0.66-3.66,1,0,1,81,false,stim,false,2,1912.5,1,0,1,69313,task3,634387,false,false,331,image-keyboard-response,17
true,4,1,2,0,false,q,true,false,0.0-2.0-0.7-0.67-3.67,1,0,1,90,false,stim,false,0,888.6999999880791,1,1,2,69313,task3,636786,false,false,334,image-keyboard-response,18
true,4,2,2,1,false,z,true,false,0.0-2.0-0.7-0.68-3.68,1,0,1,68,false,stim,false,1,1406.199999988079,1,1,0,69313,task3,639707,false,false,337,image-keyboard-response,19
true,4,0,2,1,false,z,true,false,0.0-2.0-0.7-0.69-3.69,1,0,1,81,false,stim,false,1,754.4000000059605,1,1,0,69313,task3,641971,false,false,340,image-keyboard-response,20
true,4,1,2,1,true,z,false,true,0.0-2.0-0.7-0.70-3.70,1,0,1,90,false,stim,false,1,316.89999997615814,1,1,0,69313,task3,643804,false,false,343,image-keyboard-response,21
true,4,2,2,0,false,q,true,false,0.0-2.0-0.7-0.71-3.71,1,0,1,68,false,stim,false,0,874.3000000119209,1,1,2,69313,task3,646192,false,false,346,image-keyboard-response,22
true,4,0,2,0,true,q,false,true,0.0-2.0-0.8-0.72-3.72,1,0,1,81,false,stim,false,2,326.09999999403954,1,0,1,69313,task3,648027,false,false,349,image-keyboard-response,23
true,4,0,2,0,true,q,false,true,0.0-2.0-0.8-0.73-3.73,1,0,1,81,false,stim,false,0,1117.5,1,0,2,69313,task3,650653,false,false,352,image-keyboard-response,24
true,4,0,2,1,false,z,true,false,0.0-2.0-0.8-0.74-3.74,1,0,1,81,false,stim,false,1,829.4000000059605,1,1,0,69313,task3,652997,false,false,355,image-keyboard-response,25
true,4,1,2,0,false,q,true,false,0.0-2.0-0.8-0.75-3.75,1,0,1,90,false,stim,false,0,370.5,1,0,2,69313,task3,654879,false,false,358,image-keyboard-response,26
true,4,2,2,0,false,q,false,false,0.0-2.0-0.8-0.76-3.76,1,0,1,68,false,stim,true,2,877.0999999940395,1,0,1,69313,task3,657266,false,false,361,image-keyboard-response,27
true,5,0,1,2,false,d,false,false,0.0-2.0-0.8-0.77-3.77,1,0,0,81,true,stim,true,0,1037.0,1,0,1,69313,task3,659812,false,false,364,image-keyboard-response,1
true,5,0,1,1,false,z,true,true,0.0-2.0-0.8-0.78-3.78,1,0,0,81,false,stim,false,1,982.5999999940395,1,1,0,69313,task3,662307,false,true,367,image-keyboard-response,2
true,5,0,1,1,false,z,true,true,0.0-2.0-0.8-0.79-3.79,1,0,0,81,false,stim,false,1,1503.300000011921,1,1,0,69313,task3,665321,false,true,370,image-keyboard-response,3
false,5,-1,1,1,false,z,true,false,0.0-2.0-0.8-0.80-3.80,1,0,0,,false,stim,false,0,,1,0,2,69313,task3,669833,false,false,373,image-keyboard-response,4
true,5,0,1,2,false,d,false,false,0.0-2.0-0.9-0.81-3.81,1,0,0,81,false,stim,true,0,765.3999999761581,1,0,1,69313,task3,672112,false,false,376,image-keyboard-response,5
true,5,1,1,2,false,d,true,false,0.0-2.0-0.9-0.82-3.82,1,0,0,90,false,stim,false,0,876.5,1,0,1,69313,task3,674505,false,false,379,image-keyboard-response,6
true,5,2,1,1,false,z,true,false,0.0-2.0-0.9-0.83-3.83,1,0,0,68,false,stim,false,0,717.4000000059605,1,0,2,69313,task3,676734,false,false,382,image-keyboard-response,7
true,5,0,1,1,false,z,true,false,0.0-2.0-0.9-0.84-3.84,1,0,0,81,false,stim,false,1,721.0999999940395,1,1,0,69313,task3,678967,false,false,385,image-keyboard-response,8
true,5,1,1,1,true,z,false,true,0.0-2.0-0.9-0.85-3.85,1,0,0,90,false,stim,false,0,949.5999999940395,1,0,2,69313,task3,681432,false,false,388,image-keyboard-response,9
true,5,2,1,1,false,z,true,false,0.0-2.0-0.9-0.86-3.86,1,0,0,68,false,stim,false,1,567.2000000178814,1,1,0,69313,task3,683513,false,false,391,image-keyboard-response,10
true,5,0,1,1,false,z,false,false,0.0-2.0-0.9-0.87-3.87,1,0,0,81,false,stim,true,0,864.0,1,0,2,69313,task3,685888,false,false,394,image-keyboard-response,11
true,5,1,1,1,true,z,false,true,0.0-2.0-0.9-0.88-3.88,1,0,0,90,false,stim,false,1,806.7999999821186,1,1,0,69313,task3,688210,false,false,397,image-keyboard-response,12
true,5,1,1,2,false,d,true,false,0.0-2.0-0.9-0.89-3.89,1,0,0,90,false,stim,false,0,1091.0,1,0,1,69313,task3,690816,false,false,400,image-keyboard-response,13
true,5,0,1,2,false,d,false,false,0.0-2.0-0.10-0.90-3.90,1,0,0,81,false,stim,true,0,1005.5,1,0,1,69313,task3,693339,false,false,403,image-keyboard-response,14
true,5,0,1,1,false,z,true,false,0.0-2.0-0.10-0.91-3.91,1,0,0,81,false,stim,false,1,1240.199999988079,1,1,0,69313,task3,696094,false,false,406,image-keyboard-response,15
true,5,0,1,1,false,z,false,false,0.0-2.0-0.10-0.92-3.92,1,0,0,81,false,stim,true,0,994.4000000059605,1,0,2,69313,task3,698598,false,false,409,image-keyboard-response,16
true,5,1,1,1,true,z,false,true,0.0-2.0-0.10-0.93-3.93,1,0,0,90,false,stim,false,1,1452.2000000178814,1,1,0,69313,task3,701564,false,false,412,image-keyboard-response,17
true,5,2,1,2,true,d,false,true,0.0-2.0-0.10-0.94-3.94,1,0,0,68,false,stim,false,0,1180.199999988079,1,0,1,69313,task3,704259,false,false,415,image-keyboard-response,18
true,5,0,1,1,false,z,true,false,0.0-2.0-0.10-0.95-3.95,1,0,0,81,false,stim,false,1,750.9000000059605,1,1,0,69313,task3,706524,false,false,418,image-keyboard-response,19
true,5,1,1,1,true,z,false,true,0.0-2.0-0.10-0.96-3.96,1,0,0,90,false,stim,false,0,1952.9000000059605,1,0,2,69313,task3,709993,false,false,421,image-keyboard-response,20
false,5,-1,1,1,false,z,true,true,0.0-2.0-0.10-0.97-3.97,1,0,0,,false,stim,false,0,,1,1,2,69313,task3,714512,false,true,424,image-keyboard-response,21
true,5,1,1,2,false,d,true,false,0.0-2.0-0.10-0.98-3.98,1,0,0,90,false,stim,false,0,1448.800000011921,1,0,1,69313,task3,717477,false,false,427,image-keyboard-response,22
true,5,0,1,1,false,z,false,false,0.0-2.0-0.11-0.99-3.99,1,0,0,81,false,stim,true,0,1178.4000000059605,1,1,2,69313,task3,720172,false,false,430,image-keyboard-response,23
true,5,2,1,2,true,d,false,true,0.0-2.0-0.11-0.100-3.100,1,0,0,68,false,stim,false,0,1129.199999988079,1,0,1,69313,task3,722812,false,false,433,image-keyboard-response,24
true,5,1,1,1,true,z,false,true,0.0-2.0-0.11-0.101-3.101,1,0,0,90,false,stim,false,1,1913.9000000059605,1,1,0,69313,task3,726238,false,false,436,image-keyboard-response,25
false,6,-1,2,1,false,z,true,false,0.0-2.0-0.11-0.102-3.102,1,0,1,,true,stim,false,1,,1,1,0,69313,task3,730754,false,false,439,image-keyboard-response,1
true,6,0,2,1,false,z,true,false,0.0-2.0-0.11-0.103-3.103,1,0,1,81,false,stim,false,1,830.4000000059605,1,1,0,69313,task3,733099,false,false,442,image-keyboard-response,2
false,6,-1,2,1,false,z,true,false,0.0-2.0-0.11-0.104-3.104,1,0,1,,false,stim,false,1,,1,1,2,69313,task3,737612,false,false,445,image-keyboard-response,3
true,6,0,2,0,true,q,false,false,0.0-2.0-0.11-0.105-3.105,1,0,1,81,false,stim,false,2,2470.4000000059605,1,0,1,69313,task3,741598,false,true,448,image-keyboard-response,4
false,6,-1,2,0,false,q,true,false,0.0-2.0-0.11-0.106-3.106,1,0,1,,false,stim,false,2,,1,0,1,69313,task3,746112,false,false,451,image-keyboard-response,5
false,6,-1,2,1,false,z,true,false,0.0-2.0-0.11-0.107-3.107,1,0,1,,false,stim,false,1,,1,1,2,69313,task3,750630,false,false,454,image-keyboard-response,6
true,6,0,2,0,true,q,false,true,0.0-2.0-0.12-0.108-3.108,1,0,1,81,false,stim,false,2,2931.7999999821186,1,0,1,69313,task3,755072,false,false,457,image-keyboard-response,7
true,6,1,2,1,true,z,false,true,0.0-2.0-0.12-0.109-3.109,1,0,1,90,false,stim,false,1,1095.300000011921,1,1,0,69313,task3,757682,false,false,460,image-keyboard-response,8
true,6,2,2,0,false,q,false,false,0.0-2.0-0.12-0.110-3.110,1,0,1,68,false,stim,true,2,1031.5999999940395,1,0,1,69313,task3,760225,false,false,463,image-keyboard-response,9
false,6,-1,2,1,false,z,true,false,0.0-2.0-0.12-0.111-3.111,1,0,1,,false,stim,false,1,,1,1,2,69313,task3,764736,false,false,466,image-keyboard-response,10
false,6,-1,2,1,false,z,true,false,0.0-2.0-0.12-0.112-3.112,1,0,1,,false,stim,false,1,,1,1,2,69313,task3,769251,false,false,469,image-keyboard-response,11
true,6,0,2,1,false,z,true,false,0.0-2.0-0.12-0.113-3.113,1,0,1,81,false,stim,false,1,348.0,1,1,0,69313,task3,771110,false,false,472,image-keyboard-response,12
true,6,1,2,0,false,q,true,false,0.0-2.0-0.12-0.114-3.114,1,0,1,90,false,stim,false,2,1437.2000000178814,1,0,1,69313,task3,774057,false,false,475,image-keyboard-response,13
true,6,2,2,1,false,z,true,false,0.0-2.0-0.12-0.115-3.115,1,0,1,68,false,stim,false,1,889.5,1,1,0,69313,task3,776458,false,false,478,image-keyboard-response,14
true,6,0,2,1,false,z,true,false,0.0-2.0-0.12-0.116-3.116,1,0,1,81,false,stim,false,1,823.7999999821186,1,1,2,69313,task3,778796,false,false,481,image-keyboard-response,15
true,6,1,2,0,false,q,true,false,0.0-2.0-0.13-0.117-3.117,1,0,1,90,false,stim,false,2,835.6000000238419,1,0,1,69313,task3,781143,false,false,484,image-keyboard-response,16
true,6,0,2,1,false,z,true,false,0.0-2.0-0.13-0.118-3.118,1,0,1,81,false,stim,false,1,378.0,1,1,0,69313,task3,783030,false,false,487,image-keyboard-response,17
true,6,1,2,0,false,q,true,false,0.0-2.0-0.13-0.119-3.119,1,0,1,90,false,stim,false,2,609.9000000059605,1,0,1,69313,task3,785155,false,false,490,image-keyboard-response,18
true,6,2,2,1,false,z,true,false,0.0-2.0-0.13-0.120-3.120,1,0,1,68,false,stim,false,1,913.5,1,1,2,69313,task3,787579,false,false,493,image-keyboard-response,19
true,6,0,2,1,false,z,true,false,0.0-2.0-0.13-0.121-3.121,1,0,1,81,false,stim,false,1,541.5999999940395,1,1,0,69313,task3,789630,false,false,496,image-keyboard-response,20
true,6,0,2,1,false,z,true,false,0.0-2.0-0.13-0.122-3.122,1,0,1,81,false,stim,false,1,1424.5,1,1,2,69313,task3,792564,false,false,499,image-keyboard-response,21
true,6,1,2,1,true,z,false,true,0.0-2.0-0.13-0.123-3.123,1,0,1,90,false,stim,false,1,412.7000000178814,1,1,0,69313,task3,794496,false,false,502,image-keyboard-response,22
true,6,1,2,1,true,z,false,true,0.0-2.0-0.13-0.124-3.124,1,0,1,90,false,stim,false,1,1806.0,1,1,2,69313,task3,797818,false,false,505,image-keyboard-response,23
true,6,1,2,0,false,q,true,false,0.0-2.0-0.13-0.125-3.125,1,0,1,90,false,stim,false,2,762.8000000119209,1,0,1,69313,task3,800094,false,false,508,image-keyboard-response,24
true,6,1,2,1,true,z,false,true,0.0-2.0-0.14-0.126-3.126,1,0,1,90,false,stim,false,1,792.0,1,1,2,69313,task3,802398,false,false,511,image-keyboard-response,25
true,6,1,2,1,true,z,false,true,0.0-2.0-0.14-0.127-3.127,1,0,1,90,false,stim,false,1,509.09999999403954,1,0,0,69313,task3,804423,false,false,514,image-keyboard-response,26
true,6,1,2,1,true,z,false,true,0.0-2.0-0.14-0.128-3.128,1,0,1,90,false,stim,false,1,1093.7999999821186,1,1,2,69313,task3,807027,false,false,517,image-keyboard-response,27
true,6,2,2,0,false,q,false,false,0.0-2.0-0.14-0.129-3.129,1,0,1,68,false,stim,true,2,1243.5999999940395,1,0,1,69313,task3,809783,false,false,520,image-keyboard-response,28
true,7,1,1,0,false,q,false,false,0.0-2.0-0.14-0.130-3.130,0,0,1,90,true,stim,true,1,919.6999999880791,1,0,0,69313,task3,812217,false,false,523,image-keyboard-response,1
true,7,0,1,1,false,z,true,false,0.0-2.0-0.14-0.131-3.131,0,0,1,81,false,stim,false,1,837.0,1,1,2,69313,task3,814569,false,false,526,image-keyboard-response,2
true,7,0,1,1,false,z,false,false,0.0-2.0-0.14-0.132-3.132,0,0,1,81,false,stim,true,0,752.8000000119209,1,0,1,69313,task3,816832,false,false,529,image-keyboard-response,3
true,7,1,1,0,false,q,false,false,0.0-2.0-0.14-0.133-3.133,0,0,1,90,false,stim,true,1,772.7999999821186,1,0,0,69313,task3,819115,false,false,532,image-keyboard-response,4
true,7,1,1,1,true,z,false,true,0.0-2.0-0.14-0.134-3.134,0,0,1,90,false,stim,false,0,582.8000000119209,1,0,1,69313,task3,821213,false,false,535,image-keyboard-response,5
true,7,1,1,1,true,z,false,true,0.0-2.0-0.15-0.135-3.135,0,0,1,90,false,stim,false,0,494.90000000596046,1,0,1,69313,task3,823224,false,false,538,image-keyboard-response,6
true,7,1,1,0,false,q,false,false,0.0-2.0-0.15-0.136-3.136,0,0,1,90,false,stim,true,1,621.0,1,0,0,69313,task3,825356,false,false,541,image-keyboard-response,7
true,7,2,1,1,false,z,true,false,0.0-2.0-0.15-0.137-3.137,0,0,1,68,false,stim,false,1,1103.7000000178814,1,1,2,69313,task3,827972,false,false,544,image-keyboard-response,8
true,7,2,1,1,false,z,true,false,0.0-2.0-0.15-0.138-3.138,0,0,1,68,false,stim,false,1,797.9000000059605,1,1,2,69313,task3,830285,false,false,547,image-keyboard-response,9
true,7,0,1,1,false,z,false,false,0.0-2.0-0.15-0.139-3.139,0,0,1,81,false,stim,true,0,511.0,1,0,1,69313,task3,832310,false,false,550,image-keyboard-response,10
true,7,1,1,1,true,z,false,true,0.0-2.0-0.15-0.140-3.140,0,0,1,90,false,stim,false,0,543.4000000059605,1,0,1,69313,task3,834365,false,false,553,image-keyboard-response,11
true,7,0,1,0,true,q,false,true,0.0-2.0-0.15-0.141-3.141,0,0,1,81,false,stim,false,1,856.6999999880791,1,0,0,69313,task3,836738,false,false,556,image-keyboard-response,12
true,7,0,1,0,true,q,false,true,0.0-2.0-0.15-0.142-3.142,0,0,1,81,false,stim,false,1,535.0999999940395,1,0,0,69313,task3,838785,false,false,559,image-keyboard-response,13
true,7,2,1,1,false,z,true,false,0.0-2.0-0.15-0.143-3.143,0,0,1,68,false,stim,false,1,1167.9000000059605,1,1,2,69313,task3,841469,false,false,562,image-keyboard-response,14
true,7,0,1,0,true,q,false,true,0.0-2.0-0.16-0.144-3.144,0,0,1,81,false,stim,false,1,1303.699999988079,1,0,0,69313,task3,844281,false,false,565,image-keyboard-response,15
true,7,1,1,1,true,z,false,true,0.0-2.0-0.16-0.145-3.145,0,0,1,90,false,stim,false,1,1373.3999999761581,1,1,2,69313,task3,847168,false,false,568,image-keyboard-response,16
true,7,1,1,1,true,z,false,true,0.0-2.0-0.16-0.146-3.146,0,0,1,90,false,stim,false,1,406.5,1,1,2,69313,task3,849083,false,false,571,image-keyboard-response,17
true,7,0,1,0,true,q,false,true,0.0-2.0-0.16-0.147-3.147,0,0,1,81,false,stim,false,1,507.0,1,0,0,69313,task3,851100,false,false,574,image-keyboard-response,18
true,7,1,1,1,true,z,false,false,0.0-2.0-0.16-0.148-3.148,0,0,1,90,false,stim,false,0,747.5,1,0,1,69313,task3,853358,false,true,577,image-keyboard-response,19
true,7,2,1,1,false,z,true,false,0.0-2.0-0.16-0.149-3.149,0,0,1,68,false,stim,false,0,846.3000000119209,1,0,1,69313,task3,855718,false,false,580,image-keyboard-response,20
true,7,1,1,1,true,z,false,true,0.0-2.0-0.16-0.150-3.150,0,0,1,90,false,stim,false,1,492.5,1,1,2,69313,task3,857722,false,false,583,image-keyboard-response,21
true,7,0,1,1,false,z,false,false,0.0-2.0-0.16-0.151-3.151,0,0,1,81,false,stim,true,0,652.9000000059605,1,0,1,69313,task3,859889,false,false,586,image-keyboard-response,22
true,7,0,1,0,true,q,false,true,0.0-2.0-0.16-0.152-3.152,0,0,1,81,false,stim,false,1,569.6999999880791,1,0,0,69313,task3,861971,false,false,589,image-keyboard-response,23
true,7,0,1,0,true,q,false,true,0.0-2.0-0.17-0.153-3.153,0,0,1,81,false,stim,false,1,588.5999999940395,1,0,0,69313,task3,864071,false,false,592,image-keyboard-response,24
true,7,1,1,1,true,z,false,true,0.0-2.0-0.17-0.154-3.154,0,0,1,90,false,stim,false,1,1099.5,1,1,2,69313,task3,866686,false,false,595,image-keyboard-response,25
true,7,0,1,0,true,q,false,true,0.0-2.0-0.17-0.155-3.155,0,0,1,81,false,stim,false,1,597.9000000059605,1,0,0,69313,task3,868793,false,false,598,image-keyboard-response,26
true,7,0,1,1,false,z,false,false,0.0-2.0-0.17-0.156-3.156,0,0,1,81,false,stim,true,0,480.59999999403954,1,0,1,69313,task3,870787,false,false,601,image-keyboard-response,27
true,8,1,1,0,false,q,false,false,0.0-2.0-0.17-0.157-3.157,0,0,1,90,true,stim,true,1,913.6999999880791,1,0,1,69313,task3,873214,false,false,604,image-keyboard-response,1
true,8,1,1,1,true,z,false,true,0.0-2.0-0.17-0.158-3.158,0,0,1,90,false,stim,false,1,848.5,1,1,2,69313,task3,875579,false,false,607,image-keyboard-response,2
true,8,0,1,2,false,d,false,false,0.0-2.0-0.17-0.159-3.159,0,0,1,81,false,stim,true,0,520.0999999940395,1,0,0,69313,task3,877615,false,false,610,image-keyboard-response,3
true,8,2,1,0,false,q,true,false,0.0-2.0-0.17-0.160-3.160,0,0,1,68,false,stim,false,1,858.0999999940395,1,0,1,69313,task3,879985,false,false,613,image-keyboard-response,4
true,8,1,1,1,true,z,false,true,0.0-2.0-0.17-0.161-3.161,0,0,1,90,false,stim,false,1,972.5,1,1,2,69313,task3,882469,false,false,616,image-keyboard-response,5
true,8,0,1,2,false,d,false,false,0.0-2.0-0.18-0.162-3.162,0,0,1,81,false,stim,true,0,1917.0,1,0,0,69313,task3,885901,false,false,619,image-keyboard-response,6
true,8,1,1,1,true,z,false,true,0.0-2.0-0.18-0.163-3.163,0,0,1,90,false,stim,false,1,832.0999999940395,1,1,2,69313,task3,888247,false,false,622,image-keyboard-response,7
true,8,2,1,0,false,q,true,false,0.0-2.0-0.18-0.164-3.164,0,0,1,68,false,stim,false,1,1344.7000000178814,1,0,1,69313,task3,891108,false,false,625,image-keyboard-response,8
true,8,1,1,2,false,d,true,false,0.0-2.0-0.18-0.165-3.165,0,0,1,90,false,stim,false,0,777.2999999821186,1,0,0,69313,task3,893399,false,false,628,image-keyboard-response,9
true,8,0,1,1,false,z,true,true,0.0-2.0-0.18-0.166-3.166,0,0,1,81,false,stim,false,1,336.39999997615814,1,1,2,69313,task3,895250,false,true,631,image-keyboard-response,10
true,8,1,1,0,false,q,false,false,0.0-2.0-0.18-0.167-3.167,0,0,1,90,false,stim,true,1,636.5,1,0,1,69313,task3,897400,false,false,634,image-keyboard-response,11
true,8,0,1,1,false,z,true,false,0.0-2.0-0.18-0.168-3.168,0,0,1,81,false,stim,false,1,502.09999999403954,1,1,2,69313,task3,899413,false,false,637,image-keyboard-response,12
true,8,0,1,2,false,d,false,false,0.0-2.0-0.18-0.169-3.169,0,0,1,81,false,stim,true,0,786.3000000119209,1,0,0,69313,task3,901712,false,false,640,image-keyboard-response,13
true,8,0,1,0,true,q,false,true,0.0-2.0-0.18-0.170-3.170,0,0,1,81,false,stim,false,1,433.5,1,0,1,69313,task3,903659,false,false,643,image-keyboard-response,14
true,8,0,1,0,true,q,false,true,0.0-2.0-0.19-0.171-3.171,0,0,1,81,false,stim,false,1,404.19999998807907,1,0,1,69313,task3,905573,false,false,646,image-keyboard-response,15
true,8,0,1,1,false,z,true,false,0.0-2.0-0.19-0.172-3.172,0,0,1,81,false,stim,false,1,619.1999999880791,1,1,2,69313,task3,907705,false,false,649,image-keyboard-response,16
true,8,0,1,2,false,d,false,false,0.0-2.0-0.19-0.173-3.173,0,0,1,81,false,stim,true,0,473.69999998807907,1,0,0,69313,task3,909695,false,false,652,image-keyboard-response,17
true,8,1,1,0,false,q,false,false,0.0-2.0-0.19-0.174-3.174,0,0,1,90,false,stim,true,1,733.5,1,0,1,69313,task3,911938,false,false,655,image-keyboard-response,18
true,8,2,1,2,true,d,false,false,0.0-2.0-0.19-0.175-3.175,0,0,1,68,false,stim,false,0,904.2000000178814,1,0,0,69313,task3,914354,false,true,658,image-keyboard-response,19
true,8,0,1,1,false,z,true,false,0.0-2.0-0.19-0.176-3.176,0,0,1,81,false,stim,false,1,695.7000000178814,1,1,2,69313,task3,916562,false,false,661,image-keyboard-response,20
true,8,1,1,0,false,q,false,false,0.0-2.0-0.19-0.177-3.177,0,0,1,90,false,stim,true,1,1088.4000000059605,1,0,1,69313,task3,919164,false,false,664,image-keyboard-response,21
false,8,-1,1,2,false,d,true,false,0.0-2.0-0.19-0.178-3.178,0,0,1,,false,stim,false,0,,1,0,0,69313,task3,923681,false,false,667,image-keyboard-response,22
true,8,0,1,1,false,z,true,false,0.0-2.0-0.19-0.179-3.179,0,0,1,81,false,stim,false,1,991.1999999880791,1,1,2,69313,task3,926183,false,false,670,image-keyboard-response,23
false,8,-1,1,0,false,q,true,false,0.0-2.0-0.20-0.180-3.180,0,0,1,,false,stim,false,1,,1,0,1,69313,task3,930695,false,false,673,image-keyboard-response,24
false,8,-1,1,0,false,q,true,false,0.0-2.0-0.20-0.181-3.181,0,0,1,,false,stim,false,1,,1,1,1,69313,task3,935209,false,false,676,image-keyboard-response,25
true,8,1,1,2,false,d,true,true,0.0-2.0-0.20-0.182-3.182,0,0,1,90,false,stim,false,0,475.89999997615814,1,0,0,69313,task3,937198,false,true,679,image-keyboard-response,26
false,8,-1,1,2,false,d,true,false,0.0-2.0-0.20-0.183-3.183,0,0,1,,false,stim,false,0,,1,0,0,69313,task3,941717,false,false,682,image-keyboard-response,27
true,8,1,1,1,true,z,false,true,0.0-2.0-0.20-0.184-3.184,0,0,1,90,false,stim,false,1,917.5999999940395,1,0,2,69313,task3,944147,false,false,685,image-keyboard-response,28
true,8,2,1,1,false,z,true,false,0.0-2.0-0.20-0.185-3.185,0,0,1,68,false,stim,false,1,1462.699999988079,1,0,2,69313,task3,947122,false,false,688,image-keyboard-response,29
true,9,1,1,0,false,q,true,false,0.0-2.0-0.20-0.186-3.186,0,1,0,90,true,stim,false,0,2059.699999988079,1,1,1,69313,task3,950697,false,false,691,image-keyboard-response,1
true,9,1,1,2,false,d,false,false,0.0-2.0-0.20-0.187-3.187,0,1,0,90,false,stim,true,1,709.4000000059605,1,0,2,69313,task3,952923,false,false,694,image-keyboard-response,2
true,9,1,1,0,false,q,true,false,0.0-2.0-0.20-0.188-3.188,0,1,0,90,false,stim,false,2,568.4000000059605,1,0,0,69313,task3,955004,false,false,697,image-keyboard-response,3
true,9,0,1,0,true,q,false,true,0.0-2.0-0.21-0.189-3.189,0,1,0,81,false,stim,false,0,1160.9000000059605,1,1,1,69313,task3,957681,false,false,700,image-keyboard-response,4
true,9,0,1,0,true,q,false,true,0.0-2.0-0.21-0.190-3.190,0,1,0,81,false,stim,false,0,365.80000001192093,1,1,1,69313,task3,959563,false,false,703,image-keyboard-response,5
true,9,0,1,0,true,q,false,false,0.0-2.0-0.21-0.191-3.191,0,1,0,81,false,stim,false,2,939.0999999940395,1,0,0,69313,task3,962015,false,true,706,image-keyboard-response,6
true,9,0,1,2,false,d,true,false,0.0-2.0-0.21-0.192-3.192,0,1,0,81,false,stim,false,1,649.0999999940395,1,0,2,69313,task3,964177,false,false,709,image-keyboard-response,7
true,9,0,1,0,true,q,false,true,0.0-2.0-0.21-0.193-3.193,0,1,0,81,false,stim,false,0,632.3000000119209,1,1,1,69313,task3,966325,false,false,712,image-keyboard-response,8
true,9,1,1,2,false,d,false,false,0.0-2.0-0.21-0.194-3.194,0,1,0,90,false,stim,true,1,1939.7999999821186,1,0,2,69313,task3,969777,false,false,715,image-keyboard-response,9
true,9,0,1,0,true,q,false,true,0.0-2.0-0.21-0.195-3.195,0,1,0,81,false,stim,false,2,1033.0999999940395,1,0,0,69313,task3,972326,false,false,718,image-keyboard-response,10
true,9,2,1,0,false,q,false,true,0.0-2.0-0.21-0.196-3.196,0,1,0,68,false,stim,true,2,990.3000000119209,1,0,0,69313,task3,974828,false,true,721,image-keyboard-response,11
true,9,1,1,2,false,d,false,false,0.0-2.0-0.21-0.197-3.197,0,1,0,90,false,stim,true,1,980.7999999821186,1,0,2,69313,task3,977321,false,false,724,image-keyboard-response,12
true,9,0,1,0,true,q,false,true,0.0-2.0-0.22-0.198-3.198,0,1,0,81,false,stim,false,2,328.90000000596046,1,0,0,69313,task3,979162,false,false,727,image-keyboard-response,13
true,9,0,1,2,false,d,true,false,0.0-2.0-0.22-0.199-3.199,0,1,0,81,false,stim,false,1,1736.4000000059605,1,0,2,69313,task3,982409,false,false,730,image-keyboard-response,14
true,9,1,1,0,false,q,true,false,0.0-2.0-0.22-0.200-3.200,0,1,0,90,false,stim,false,2,1289.7999999821186,1,0,0,69313,task3,985214,false,false,733,image-keyboard-response,15
true,9,1,1,0,false,q,true,false,0.0-2.0-0.22-0.201-3.201,0,1,0,90,false,stim,false,2,1622.800000011921,1,0,0,69313,task3,988347,false,false,736,image-keyboard-response,16
true,9,0,1,2,false,d,true,false,0.0-2.0-0.22-0.202-3.202,0,1,0,81,false,stim,false,1,2911.4000000059605,1,0,2,69313,task3,992771,false,false,739,image-keyboard-response,17
true,9,0,1,0,true,q,false,true,0.0-2.0-0.22-0.203-3.203,0,1,0,81,false,stim,false,0,641.3000000119209,1,1,1,69313,task3,994927,false,false,742,image-keyboard-response,18
true,9,0,1,0,true,q,false,true,0.0-2.0-0.22-0.204-3.204,0,1,0,81,false,stim,false,0,893.7000000178814,1,1,1,69313,task3,997334,false,false,745,image-keyboard-response,19
true,9,1,1,2,false,d,false,false,0.0-2.0-0.22-0.205-3.205,0,1,0,90,false,stim,true,1,1986.800000011921,1,0,2,69313,task3,1000833,false,false,748,image-keyboard-response,20
true,9,2,1,0,false,q,true,false,0.0-2.0-0.22-0.206-3.206,0,1,0,68,false,stim,false,0,507.90000000596046,1,1,1,69313,task3,1002852,false,false,751,image-keyboard-response,21
true,9,1,1,2,false,d,false,false,0.0-2.0-0.23-0.207-3.207,0,1,0,90,false,stim,true,1,668.0,1,1,2,69313,task3,1005030,false,false,754,image-keyboard-response,22
true,9,0,1,0,true,q,false,true,0.0-2.0-0.23-0.208-3.208,0,1,0,81,false,stim,false,2,558.7999999821186,1,0,0,69313,task3,1007101,false,false,757,image-keyboard-response,23
true,9,0,1,2,false,d,true,false,0.0-2.0-0.23-0.209-3.209,0,1,0,81,false,stim,false,1,489.09999999403954,1,1,2,69313,task3,1009107,false,false,760,image-keyboard-response,24
true,9,0,1,2,false,d,true,false,0.0-2.0-0.23-0.210-3.210,0,1,0,81,false,stim,false,1,474.5,1,1,2,69313,task3,1011095,false,false,763,image-keyboard-response,25
true,9,0,1,0,true,q,false,true,0.0-2.0-0.23-0.211-3.211,0,1,0,81,false,stim,false,0,409.60000002384186,1,0,1,69313,task3,1013021,false,false,766,image-keyboard-response,26
true,10,0,1,1,false,z,false,false,0.0-2.0-0.23-0.212-3.212,0,0,1,81,true,stim,true,0,1310.699999988079,1,0,1,69313,task3,1015844,false,false,769,image-keyboard-response,1
false,10,-1,1,1,false,z,true,false,0.0-2.0-0.23-0.213-3.213,0,0,1,,false,stim,false,0,,1,0,1,69313,task3,1020357,false,false,772,image-keyboard-response,2
true,10,1,1,2,false,d,true,false,0.0-2.0-0.23-0.214-3.214,0,0,1,90,false,stim,false,0,407.40000000596046,1,0,0,69313,task3,1022276,false,false,775,image-keyboard-response,3
true,10,2,1,2,true,d,false,true,0.0-2.0-0.23-0.215-3.215,0,0,1,68,false,stim,false,0,528.1999999880791,1,0,0,69313,task3,1024317,false,false,778,image-keyboard-response,4
true,10,0,1,2,false,d,false,false,0.0-2.0-0.24-0.216-3.216,0,0,1,81,false,stim,true,0,870.7999999821186,1,0,0,69313,task3,1026700,false,false,781,image-keyboard-response,5
true,10,1,1,2,false,d,true,false,0.0-2.0-0.24-0.217-3.217,0,0,1,90,false,stim,false,2,485.7999999821186,1,1,2,69313,task3,1028701,false,false,784,image-keyboard-response,6
false,10,-1,1,2,false,d,true,false,0.0-2.0-0.24-0.218-3.218,0,0,1,,false,stim,false,2,,1,1,2,69313,task3,1033217,false,false,787,image-keyboard-response,7
true,10,1,1,1,true,z,false,true,0.0-2.0-0.24-0.219-3.219,0,0,1,90,false,stim,false,0,1528.300000011921,1,0,1,69313,task3,1036260,false,false,790,image-keyboard-response,8
false,10,-1,1,1,false,z,true,false,0.0-2.0-0.24-0.220-3.220,0,0,1,,false,stim,false,0,,1,0,1,69313,task3,1040772,false,false,793,image-keyboard-response,9
true,10,0,1,2,false,d,false,false,0.0-2.0-0.24-0.221-3.221,0,0,1,81,false,stim,true,0,861.3000000119209,1,0,0,69313,task3,1043146,false,false,796,image-keyboard-response,10
true,10,1,1,1,true,z,false,true,0.0-2.0-0.24-0.222-3.222,0,0,1,90,false,stim,false,0,1028.699999988079,1,0,1,69313,task3,1045686,false,false,799,image-keyboard-response,11
true,10,0,1,2,false,d,true,false,0.0-2.0-0.24-0.223-3.223,0,0,1,81,false,stim,false,2,1384.4000000059605,1,1,2,69313,task3,1048590,false,false,802,image-keyboard-response,12
true,10,1,1,2,false,d,true,false,0.0-2.0-0.24-0.224-3.224,0,0,1,90,false,stim,false,0,1074.4000000059605,1,0,0,69313,task3,1051181,false,false,805,image-keyboard-response,13
true,10,2,1,2,true,d,false,false,0.0-2.0-0.25-0.225-3.225,0,0,1,68,false,stim,false,2,1381.7999999821186,1,1,2,69313,task3,1054080,false,true,808,image-keyboard-response,14
true,10,2,1,2,true,d,false,true,0.0-2.0-0.25-0.226-3.226,0,0,1,68,false,stim,false,0,1422.2999999821186,1,0,0,69313,task3,1057019,false,false,811,image-keyboard-response,15
true,10,2,1,2,true,d,false,true,0.0-2.0-0.25-0.227-3.227,0,0,1,68,false,stim,false,0,467.59999999403954,1,0,0,69313,task3,1059003,false,false,814,image-keyboard-response,16
true,10,1,1,2,false,d,true,false,0.0-2.0-0.25-0.228-3.228,0,0,1,90,false,stim,false,2,1332.5999999940395,1,1,2,69313,task3,1061849,false,false,817,image-keyboard-response,17
true,10,0,1,1,false,z,false,false,0.0-2.0-0.25-0.229-3.229,0,0,1,81,false,stim,true,0,1654.300000011921,1,0,1,69313,task3,1065019,false,false,820,image-keyboard-response,18
true,10,0,1,1,false,z,false,false,0.0-2.0-0.25-0.230-3.230,0,0,1,81,false,stim,true,0,656.6999999880791,1,0,1,69313,task3,1067188,false,false,823,image-keyboard-response,19
true,10,0,1,2,false,d,false,false,0.0-2.0-0.25-0.231-3.231,0,0,1,81,false,stim,true,0,1195.0,1,0,0,69313,task3,1069900,false,false,826,image-keyboard-response,20
true,10,0,1,1,false,z,false,true,0.0-2.0-0.25-0.232-3.232,0,0,1,81,false,stim,true,0,924.6999999880791,1,0,1,69313,task3,1072339,false,true,829,image-keyboard-response,21
true,10,2,1,2,true,d,false,true,0.0-2.0-0.25-0.233-3.233,0,0,1,68,false,stim,false,2,1322.5,1,1,2,69313,task3,1075173,false,false,832,image-keyboard-response,22
true,10,0,1,1,false,z,false,false,0.0-2.0-0.26-0.234-3.234,0,0,1,81,false,stim,true,0,778.6999999880791,1,1,1,69313,task3,1077467,false,false,835,image-keyboard-response,23
true,10,0,1,1,false,z,false,false,0.0-2.0-0.26-0.235-3.235,0,0,1,81,false,stim,true,0,853.5999999940395,1,1,1,69313,task3,1079834,false,false,838,image-keyboard-response,24
true,10,2,1,2,true,d,false,true,0.0-2.0-0.26-0.236-3.236,0,0,1,68,false,stim,false,2,582.4000000059605,1,0,2,69313,task3,1081930,false,false,841,image-keyboard-response,25
true,10,2,1,2,true,d,false,true,0.0-2.0-0.26-0.237-3.237,0,0,1,68,false,stim,false,2,669.0,1,0,2,69313,task3,1084111,false,false,844,image-keyboard-response,26
true,10,2,1,2,true,d,false,true,0.0-2.0-0.26-0.238-3.238,0,0,1,68,false,stim,false,0,673.8000000119209,1,0,0,69313,task3,1086300,false,false,847,image-keyboard-response,27
true,11,2,1,0,false,q,false,false,0.0-2.0-0.26-0.239-3.239,0,1,0,68,true,stim,true,2,585.3000000119209,1,0,2,69313,task3,1088395,false,false,850,image-keyboard-response,1
true,11,2,1,1,false,z,false,false,0.0-2.0-0.26-0.240-3.240,0,1,0,68,false,stim,true,2,1919.9000000059605,1,0,0,69313,task3,1091826,false,false,853,image-keyboard-response,2
true,11,0,1,1,false,z,true,true,0.0-2.0-0.26-0.241-3.241,0,1,0,81,false,stim,false,2,1201.4000000059605,1,0,0,69313,task3,1094542,false,true,856,image-keyboard-response,3
true,11,2,1,1,false,z,true,false,0.0-2.0-0.26-0.242-3.242,0,1,0,68,false,stim,false,1,2129.4000000059605,1,1,1,69313,task3,1098183,false,false,859,image-keyboard-response,4
true,11,2,1,1,false,z,true,false,0.0-2.0-0.27-0.243-3.243,0,1,0,68,false,stim,false,1,1972.800000011921,1,1,1,69313,task3,1101667,false,false,862,image-keyboard-response,5
true,11,1,1,1,true,z,false,true,0.0-2.0-0.27-0.244-3.244,0,1,0,90,false,stim,false,2,1013.5999999940395,1,0,0,69313,task3,1104196,false,false,865,image-keyboard-response,6
true,11,0,1,0,true,q,false,true,0.0-2.0-0.27-0.245-3.245,0,1,0,81,false,stim,false,2,715.4000000059605,1,0,2,69313,task3,1106424,false,false,868,image-keyboard-response,7
true,11,0,1,0,true,q,false,true,0.0-2.0-0.27-0.246-3.246,0,1,0,81,false,stim,false,2,1165.5999999940395,1,0,2,69313,task3,1109100,false,false,871,image-keyboard-response,8
true,11,0,1,1,false,z,true,false,0.0-2.0-0.27-0.247-3.247,0,1,0,81,false,stim,false,1,1094.7000000178814,1,1,1,69313,task3,1111702,false,false,874,image-keyboard-response,9
true,11,2,1,1,false,z,false,false,0.0-2.0-0.27-0.248-3.248,0,1,0,68,false,stim,true,2,1294.0,1,0,0,69313,task3,1114510,false,false,877,image-keyboard-response,10
true,11,0,1,1,false,z,true,false,0.0-2.0-0.27-0.249-3.249,0,1,0,81,false,stim,false,2,596.1999999880791,1,0,0,69313,task3,1116618,false,false,880,image-keyboard-response,11
false,11,-1,1,0,false,q,true,false,0.0-2.0-0.27-0.250-3.250,0,1,0,,false,stim,false,2,,1,0,2,69313,task3,1121136,false,false,883,image-keyboard-response,12
true,11,0,1,1,false,z,true,false,0.0-2.0-0.27-0.251-3.251,0,1,0,81,false,stim,false,1,540.4000000059605,1,1,1,69313,task3,1123195,false,false,886,image-keyboard-response,13
true,11,2,1,1,false,z,false,true,0.0-2.0-0.28-0.252-3.252,0,1,0,68,false,stim,true,2,559.0,1,0,0,69313,task3,1125265,false,true,889,image-keyboard-response,14
true,11,2,1,1,false,z,false,false,0.0-2.0-0.28-0.253-3.253,0,1,0,68,false,stim,true,2,711.0,1,0,0,69313,task3,1127490,false,false,892,image-keyboard-response,15
false,11,-1,1,0,false,q,true,false,0.0-2.0-0.28-0.254-3.254,0,1,0,,false,stim,false,2,,1,0,2,69313,task3,1132008,false,false,895,image-keyboard-response,16
true,11,2,1,1,false,z,true,false,0.0-2.0-0.28-0.255-3.255,0,1,0,68,false,stim,false,1,990.3000000119209,1,1,1,69313,task3,1134514,false,false,898,image-keyboard-response,17
true,11,1,1,0,false,q,true,false,0.0-2.0-0.28-0.256-3.256,0,1,0,90,false,stim,false,2,1248.7000000178814,1,0,2,69313,task3,1137279,false,false,901,image-keyboard-response,18
true,11,0,1,1,false,z,true,false,0.0-2.0-0.28-0.257-3.257,0,1,0,81,false,stim,false,1,977.0,1,1,1,69313,task3,1139773,false,false,904,image-keyboard-response,19
true,11,1,1,1,true,z,false,true,0.0-2.0-0.28-0.258-3.258,0,1,0,90,false,stim,false,1,1038.800000011921,1,1,1,69313,task3,1142319,false,false,907,image-keyboard-response,20
true,11,0,1,1,false,z,true,false,0.0-2.0-0.28-0.259-3.259,0,1,0,81,false,stim,false,2,626.5,1,0,0,69313,task3,1144459,false,false,910,image-keyboard-response,21
true,11,2,1,0,false,q,false,true,0.0-2.0-0.28-0.260-3.260,0,1,0,68,false,stim,true,2,927.4000000059605,1,0,2,69313,task3,1146903,false,true,913,image-keyboard-response,22
true,11,2,1,0,false,q,false,false,0.0-2.0-0.29-0.261-3.261,0,1,0,68,false,stim,true,2,682.6999999880791,1,0,2,69313,task3,1149099,false,false,916,image-keyboard-response,23
true,11,1,1,1,true,z,false,true,0.0-2.0-0.29-0.262-3.262,0,1,0,90,false,stim,false,2,1336.300000011921,1,0,0,69313,task3,1151949,false,false,919,image-keyboard-response,24
true,11,1,1,1,true,z,false,true,0.0-2.0-0.29-0.263-3.263,0,1,0,90,false,stim,false,1,776.5,1,1,1,69313,task3,1154241,false,false,922,image-keyboard-response,25
true,11,1,1,1,true,z,false,false,0.0-2.0-0.29-0.264-3.264,0,1,0,90,false,stim,false,2,744.9000000059605,1,0,0,69313,task3,1156503,false,true,925,image-keyboard-response,26
true,11,2,1,0,false,q,false,false,0.0-2.0-0.29-0.265-3.265,0,1,0,68,false,stim,true,2,925.2000000178814,1,1,2,69313,task3,1158943,false,false,928,image-keyboard-response,27
true,11,1,1,1,true,z,false,true,0.0-2.0-0.29-0.266-3.266,0,1,0,90,false,stim,false,1,1154.5,1,1,1,69313,task3,1161611,false,false,931,image-keyboard-response,28
true,12,1,2,0,false,q,false,false,0.0-2.0-0.29-0.267-3.267,0,1,1,90,true,stim,true,1,765.0,1,0,0,69313,task3,1163887,false,false,934,image-keyboard-response,1
true,12,1,2,1,true,z,false,true,0.0-2.0-0.29-0.268-3.268,0,1,1,90,false,stim,false,1,1185.4000000059605,1,1,1,69313,task3,1166583,false,false,937,image-keyboard-response,2
true,12,2,2,0,false,q,true,false,0.0-2.0-0.29-0.269-3.269,0,1,1,68,false,stim,false,0,688.8000000119209,1,1,2,69313,task3,1168784,false,false,940,image-keyboard-response,3
true,12,1,2,0,false,q,false,false,0.0-2.0-0.30-0.270-3.270,0,1,1,90,false,stim,true,1,499.90000000596046,1,0,0,69313,task3,1170794,false,false,943,image-keyboard-response,4
true,12,0,2,0,true,q,false,true,0.0-2.0-0.30-0.271-3.271,0,1,1,81,false,stim,false,0,864.5999999940395,1,1,2,69313,task3,1173172,false,false,946,image-keyboard-response,5
true,12,0,2,0,true,q,false,true,0.0-2.0-0.30-0.272-3.272,0,1,1,81,false,stim,false,0,607.8000000119209,1,1,2,69313,task3,1175289,false,false,949,image-keyboard-response,6
true,12,1,2,1,true,z,false,true,0.0-2.0-0.30-0.273-3.273,0,1,1,90,false,stim,false,1,1022.5,1,1,1,69313,task3,1177827,false,false,952,image-keyboard-response,7
true,12,0,2,0,true,q,false,true,0.0-2.0-0.30-0.274-3.274,0,1,1,81,false,stim,false,1,1152.5999999940395,1,0,0,69313,task3,1180498,false,false,955,image-keyboard-response,8
true,12,1,2,1,true,z,false,true,0.0-2.0-0.30-0.275-3.275,0,1,1,90,false,stim,false,1,1056.7000000178814,1,1,1,69313,task3,1183069,false,false,958,image-keyboard-response,9
true,12,1,2,1,true,z,false,true,0.0-2.0-0.30-0.276-3.276,0,1,1,90,false,stim,false,1,366.40000000596046,1,0,1,69313,task3,1184948,false,false,961,image-keyboard-response,10
true,12,0,2,0,true,q,false,true,0.0-2.0-0.30-0.277-3.277,0,1,1,81,false,stim,false,0,1077.2000000178814,1,1,2,69313,task3,1187540,false,false,964,image-keyboard-response,11
true,12,1,2,0,false,q,false,false,0.0-2.0-0.30-0.278-3.278,0,1,1,90,false,stim,true,1,642.0,1,1,0,69313,task3,1189698,false,false,967,image-keyboard-response,12
true,12,1,2,1,true,z,false,true,0.0-2.0-0.31-0.279-3.279,0,1,1,90,false,stim,false,1,1007.3000000119209,1,0,1,69313,task3,1192222,false,false,970,image-keyboard-response,13
true,12,0,2,0,true,q,false,true,0.0-2.0-0.31-0.280-3.280,0,1,1,81,false,stim,false,1,580.4000000059605,1,1,0,69313,task3,1194319,false,false,973,image-keyboard-response,14
true,13,0,2,0,true,q,false,true,0.0-2.0-0.31-0.281-3.281,1,0,1,81,true,stim,false,0,1081.5999999940395,1,1,2,69313,task3,1196916,false,false,976,image-keyboard-response,1
true,13,1,2,2,false,d,false,false,0.0-2.0-0.31-0.282-3.282,1,0,1,90,false,stim,true,1,765.1999999880791,1,0,1,69313,task3,1199194,false,false,979,image-keyboard-response,2
true,13,0,2,0,true,q,false,true,0.0-2.0-0.31-0.283-3.283,1,0,1,81,false,stim,false,0,508.90000000596046,1,1,0,69313,task3,1201215,false,false,982,image-keyboard-response,3
true,13,0,2,0,true,q,false,true,0.0-2.0-0.31-0.284-3.284,1,0,1,81,false,stim,false,0,885.1999999880791,1,1,2,69313,task3,1203612,false,false,985,image-keyboard-response,4
true,13,0,2,0,true,q,false,false,0.0-2.0-0.31-0.285-3.285,1,0,1,81,false,stim,false,0,836.4000000059605,1,1,0,69313,task3,1205963,false,true,988,image-keyboard-response,5
true,13,0,2,0,true,q,false,true,0.0-2.0-0.31-0.286-3.286,1,0,1,81,false,stim,false,0,313.59999999403954,1,1,2,69313,task3,1207793,false,false,991,image-keyboard-response,6
true,13,1,2,2,false,d,false,false,0.0-2.0-0.31-0.287-3.287,1,0,1,90,false,stim,true,1,600.0999999940395,1,0,1,69313,task3,1209903,false,false,994,image-keyboard-response,7
true,13,1,2,2,false,d,false,false,0.0-2.0-0.32-0.288-3.288,1,0,1,90,false,stim,true,1,364.59999999403954,1,1,1,69313,task3,1211782,false,false,997,image-keyboard-response,8
true,13,0,2,0,true,q,false,true,0.0-2.0-0.32-0.289-3.289,1,0,1,81,false,stim,false,0,695.5999999940395,1,1,0,69313,task3,1213995,false,false,1000,image-keyboard-response,9
true,13,2,2,0,false,q,true,false,0.0-2.0-0.32-0.290-3.290,1,0,1,68,false,stim,false,0,978.0999999940395,1,0,2,69313,task3,1216496,false,false,1003,image-keyboard-response,10
true,13,0,2,0,true,q,false,false,0.0-2.0-0.32-0.291-3.291,1,0,1,81,false,stim,false,0,710.6999999880791,1,1,0,69313,task3,1218721,false,true,1006,image-keyboard-response,11
true,13,1,2,2,false,d,false,false,0.0-2.0-0.32-0.292-3.292,1,0,1,90,false,stim,true,1,486.2000000178814,1,1,1,69313,task3,1220723,false,false,1009,image-keyboard-response,12
true,14,2,2,2,true,d,false,true,0.0-2.0-0.32-0.293-3.293,1,1,0,68,true,stim,false,2,742.0,1,1,1,69313,task3,1222978,false,false,1012,image-keyboard-response,1
true,14,1,2,2,false,d,true,false,0.0-2.0-0.32-0.294-3.294,1,1,0,90,false,stim,false,0,2303.4000000059605,1,0,2,69313,task3,1226796,false,false,1015,image-keyboard-response,2
true,14,0,2,0,true,q,false,true,0.0-2.0-0.32-0.295-3.295,1,1,0,81,false,stim,false,0,1140.0,1,1,0,69313,task3,1229451,false,false,1018,image-keyboard-response,3
true,14,2,2,2,true,d,false,true,0.0-2.0-0.32-0.296-3.296,1,1,0,68,false,stim,false,0,1096.9000000059605,1,0,2,69313,task3,1232065,false,false,1021,image-keyboard-response,4
true,14,0,2,2,false,d,true,true,0.0-2.0-0.33-0.297-3.297,1,1,0,81,false,stim,false,2,828.6999999880791,1,1,1,69313,task3,1234406,false,true,1024,image-keyboard-response,5
true,14,0,2,0,true,q,false,true,0.0-2.0-0.33-0.298-3.298,1,1,0,81,false,stim,false,0,676.7000000178814,1,1,0,69313,task3,1236599,false,false,1027,image-keyboard-response,6
true,14,0,2,0,true,q,false,false,0.0-2.0-0.33-0.299-3.299,1,1,0,81,false,stim,false,0,471.2000000178814,1,0,0,69313,task3,1238581,false,true,1030,image-keyboard-response,7
true,14,0,2,2,false,d,false,false,0.0-2.0-0.33-0.300-3.300,1,1,0,81,false,stim,true,0,373.2999999821186,1,1,2,69313,task3,1240470,false,false,1033,image-keyboard-response,8
true,14,0,2,0,true,q,false,true,0.0-2.0-0.33-0.301-3.301,1,1,0,81,false,stim,false,0,514.0,1,0,0,69313,task3,1242499,false,false,1036,image-keyboard-response,9
true,14,0,2,2,false,d,true,false,0.0-2.0-0.33-0.302-3.302,1,1,0,81,false,stim,false,2,305.09999999403954,1,1,1,69313,task3,1244316,false,false,1039,image-keyboard-response,10
true,14,1,2,2,false,d,true,false,0.0-2.0-0.33-0.303-3.303,1,1,0,90,false,stim,false,0,508.30000001192093,1,1,2,69313,task3,1246338,false,false,1042,image-keyboard-response,11
true,15,2,2,2,true,d,false,true,0.0-2.0-0.33-0.304-3.304,0,1,1,68,true,stim,false,2,437.7999999821186,1,1,2,69313,task3,1248292,false,false,1045,image-keyboard-response,1
true,15,2,2,2,true,d,false,true,0.0-2.0-0.33-0.305-3.305,0,1,1,68,false,stim,false,2,1533.9000000059605,1,1,1,69313,task3,1251341,false,false,1048,image-keyboard-response,2
true,15,0,2,1,false,z,false,false,0.0-2.0-0.34-0.306-3.306,0,1,1,81,false,stim,true,0,1177.5,1,0,0,69313,task3,1254029,false,false,1051,image-keyboard-response,3
true,15,2,2,2,true,d,false,true,0.0-2.0-0.34-0.307-3.307,0,1,1,68,false,stim,false,2,553.9000000059605,1,1,2,69313,task3,1256100,false,false,1054,image-keyboard-response,4
true,15,2,2,2,true,d,false,true,0.0-2.0-0.34-0.308-3.308,0,1,1,68,false,stim,false,2,406.7999999821186,1,1,2,69313,task3,1258022,false,false,1057,image-keyboard-response,5
true,15,2,2,2,true,d,false,true,0.0-2.0-0.34-0.309-3.309,0,1,1,68,false,stim,false,2,513.0999999940395,1,1,1,69313,task3,1260047,false,false,1060,image-keyboard-response,6
true,15,0,2,1,false,z,false,false,0.0-2.0-0.34-0.310-3.310,0,1,1,81,false,stim,true,0,1078.0,1,0,0,69313,task3,1262639,false,false,1063,image-keyboard-response,7
true,15,2,2,2,true,d,false,true,0.0-2.0-0.34-0.311-3.311,0,1,1,68,false,stim,false,2,446.09999999403954,1,1,2,69313,task3,1264599,false,false,1066,image-keyboard-response,8
true,15,2,2,2,true,d,false,true,0.0-2.0-0.34-0.312-3.312,0,1,1,68,false,stim,false,2,342.2000000178814,1,1,1,69313,task3,1266458,false,false,1069,image-keyboard-response,9
true,15,2,2,2,true,d,false,true,0.0-2.0-0.34-0.313-3.313,0,1,1,68,false,stim,false,2,401.2999999821186,1,1,1,69313,task3,1268378,false,false,1072,image-keyboard-response,10
true,15,1,2,1,true,z,false,true,0.0-2.0-0.34-0.314-3.314,0,1,1,90,false,stim,false,0,1747.0,1,0,0,69313,task3,1271637,false,false,1075,image-keyboard-response,11
true,15,2,2,2,true,d,false,true,0.0-2.0-0.35-0.315-3.315,0,1,1,68,false,stim,false,2,577.8000000119209,1,1,2,69313,task3,1273725,false,false,1078,image-keyboard-response,12
true,15,1,2,2,false,d,true,false,0.0-2.0-0.35-0.316-3.316,0,1,1,90,false,stim,false,2,379.7999999821186,1,1,1,69313,task3,1275620,false,false,1081,image-keyboard-response,13
true,15,1,2,1,true,z,false,true,0.0-2.0-0.35-0.317-3.317,0,1,1,90,false,stim,false,0,327.60000002384186,1,0,0,69313,task3,1277462,false,false,1084,image-keyboard-response,14
true,15,2,2,2,true,d,false,true,0.0-2.0-0.35-0.318-3.318,0,1,1,68,false,stim,false,2,328.0,1,1,1,69313,task3,1279303,false,false,1087,image-keyboard-response,15
true,15,2,2,2,true,d,false,true,0.0-2.0-0.35-0.319-3.319,0,1,1,68,false,stim,false,2,312.5,1,1,1,69313,task3,1281129,false,false,1090,image-keyboard-response,16
true,15,1,2,1,true,z,false,false,0.0-2.0-0.35-0.320-3.320,0,1,1,90,false,stim,false,0,714.5999999940395,1,0,0,69313,task3,1283357,false,true,1093,image-keyboard-response,17
true,15,2,2,2,true,d,false,true,0.0-2.0-0.35-0.321-3.321,0,1,1,68,false,stim,false,2,341.5,1,1,2,69313,task3,1285215,false,false,1096,image-keyboard-response,18
true,15,2,2,1,false,z,true,false,0.0-2.0-0.35-0.322-3.322,0,1,1,68,false,stim,false,0,334.5,1,0,0,69313,task3,1287066,false,false,1099,image-keyboard-response,19
true,15,2,2,2,true,d,false,true,0.0-2.0-0.35-0.323-3.323,0,1,1,68,false,stim,false,2,1186.4000000059605,1,1,2,69313,task3,1289771,false,false,1102,image-keyboard-response,20
true,15,0,2,2,false,d,true,false,0.0-2.0-0.36-0.324-3.324,0,1,1,81,false,stim,false,2,1076.2000000178814,1,1,1,69313,task3,1292362,false,false,1105,image-keyboard-response,21
true,15,2,2,2,true,d,false,true,0.0-2.0-0.36-0.325-3.325,0,1,1,68,false,stim,false,2,572.1999999880791,1,1,2,69313,task3,1294450,false,false,1108,image-keyboard-response,22
true,15,1,2,1,true,z,false,true,0.0-2.0-0.36-0.326-3.326,0,1,1,90,false,stim,false,0,732.8000000119209,1,0,0,69313,task3,1296696,false,false,1111,image-keyboard-response,23
true,15,1,2,2,false,d,true,true,0.0-2.0-0.36-0.327-3.327,0,1,1,90,false,stim,false,2,1116.3999999761581,1,1,1,69313,task3,1299328,false,true,1114,image-keyboard-response,24
true,15,1,2,1,true,z,false,true,0.0-2.0-0.36-0.328-3.328,0,1,1,90,false,stim,false,0,917.2999999821186,1,0,0,69313,task3,1301759,false,false,1117,image-keyboard-response,25
true,15,2,2,2,true,d,false,true,0.0-2.0-0.36-0.329-3.329,0,1,1,68,false,stim,false,2,735.0,1,0,2,69313,task3,1304010,false,false,1120,image-keyboard-response,26
true,15,1,2,1,true,z,false,true,0.0-2.0-0.36-0.330-3.330,0,1,1,90,false,stim,false,0,446.7000000178814,1,0,0,69313,task3,1305970,false,false,1123,image-keyboard-response,27
true,15,1,2,2,false,d,true,true,0.0-2.0-0.36-0.331-3.331,0,1,1,90,false,stim,false,2,518.7000000178814,1,1,1,69313,task3,1308003,false,true,1126,image-keyboard-response,28
true,16,1,1,1,true,z,false,true,0.0-2.0-0.36-0.332-3.332,0,1,0,90,true,stim,false,2,907.2999999821186,1,0,2,69313,task3,1310424,false,false,1129,image-keyboard-response,1
true,16,1,1,1,true,z,false,true,0.0-2.0-0.37-0.333-3.333,0,1,0,90,false,stim,false,2,1012.1999999880791,1,0,2,69313,task3,1312951,false,false,1132,image-keyboard-response,2
true,16,1,1,2,false,d,true,false,0.0-2.0-0.37-0.334-3.334,0,1,0,90,false,stim,false,2,516.5,1,1,1,69313,task3,1314976,false,false,1135,image-keyboard-response,3
true,16,1,1,2,false,d,false,true,0.0-2.0-0.37-0.335-3.335,0,1,0,90,false,stim,true,1,750.9000000059605,1,0,0,69313,task3,1317242,false,true,1138,image-keyboard-response,4
true,16,2,1,2,true,d,false,true,0.0-2.0-0.37-0.336-3.336,0,1,0,68,false,stim,false,2,1279.5,1,1,1,69313,task3,1320034,false,false,1141,image-keyboard-response,5
true,16,1,1,2,false,d,false,false,0.0-2.0-0.37-0.337-3.337,0,1,0,90,false,stim,true,1,484.09999999403954,1,0,0,69313,task3,1322033,false,false,1144,image-keyboard-response,6
true,16,1,1,2,false,d,false,false,0.0-2.0-0.37-0.338-3.338,0,1,0,90,false,stim,true,1,652.5,1,0,0,69313,task3,1324197,false,false,1147,image-keyboard-response,7
true,16,1,1,1,true,z,false,true,0.0-2.0-0.37-0.339-3.339,0,1,0,90,false,stim,false,2,1489.0,1,0,2,69313,task3,1327202,false,false,1150,image-keyboard-response,8
true,16,2,1,2,true,d,false,true,0.0-2.0-0.37-0.340-3.340,0,1,0,68,false,stim,false,2,858.2999999821186,1,1,1,69313,task3,1329571,false,false,1153,image-keyboard-response,9
true,16,1,1,1,true,z,false,true,0.0-2.0-0.37-0.341-3.341,0,1,0,90,false,stim,false,2,884.6999999880791,1,1,2,69313,task3,1331974,false,false,1156,image-keyboard-response,10
true,16,2,1,2,true,d,false,true,0.0-2.0-0.38-0.342-3.342,0,1,0,68,false,stim,false,2,1089.2999999821186,1,0,1,69313,task3,1334577,false,false,1159,image-keyboard-response,11
true,16,1,1,1,true,z,false,true,0.0-2.0-0.38-0.343-3.343,0,1,0,90,false,stim,false,2,842.7000000178814,1,1,2,69313,task3,1336931,false,false,1162,image-keyboard-response,12
true,16,0,1,2,false,d,true,false,0.0-2.0-0.38-0.344-3.344,0,1,0,81,false,stim,false,1,1256.699999988079,1,1,0,69313,task3,1339704,false,false,1165,image-keyboard-response,13
true,16,2,1,2,true,d,false,true,0.0-2.0-0.38-0.345-3.345,0,1,0,68,false,stim,false,2,977.9000000059605,1,0,1,69313,task3,1342196,false,false,1168,image-keyboard-response,14
true,17,2,2,1,false,z,false,false,0.0-2.0-0.38-0.346-3.346,1,0,1,68,true,stim,true,2,569.8000000119209,1,0,1,69313,task3,1344280,false,false,1171,image-keyboard-response,1
true,17,2,2,2,true,d,false,true,0.0-2.0-0.38-0.347-3.347,1,0,1,68,false,stim,false,2,758.7000000178814,1,1,0,69313,task3,1346550,false,false,1174,image-keyboard-response,2
true,17,1,2,1,true,z,false,true,0.0-2.0-0.38-0.348-3.348,1,0,1,90,false,stim,false,1,780.1999999880791,1,1,2,69313,task3,1348840,false,false,1177,image-keyboard-response,3
true,17,1,2,1,true,z,false,true,0.0-2.0-0.38-0.349-3.349,1,0,1,90,false,stim,false,1,511.09999999403954,1,1,2,69313,task3,1350864,false,false,1180,image-keyboard-response,4
true,17,2,2,2,true,d,false,true,0.0-2.0-0.38-0.350-3.350,1,0,1,68,false,stim,false,2,634.6999999880791,1,1,0,69313,task3,1353012,false,false,1183,image-keyboard-response,5
true,17,2,2,2,true,d,false,false,0.0-2.0-0.39-0.351-3.351,1,0,1,68,false,stim,false,2,449.39999997615814,1,1,0,69313,task3,1354977,false,true,1186,image-keyboard-response,6
true,17,1,2,1,true,z,false,false,0.0-2.0-0.39-0.352-3.352,1,0,1,90,false,stim,false,2,1103.6000000238419,1,0,1,69313,task3,1357595,false,true,1189,image-keyboard-response,7
true,17,2,2,2,true,d,false,false,0.0-2.0-0.39-0.353-3.353,1,0,1,68,false,stim,false,2,1688.199999988079,1,1,0,69313,task3,1360799,false,true,1192,image-keyboard-response,8
true,17,2,2,1,false,z,true,false,0.0-2.0-0.39-0.354-3.354,1,0,1,68,false,stim,false,1,936.8000000119209,1,1,2,69313,task3,1363252,false,false,1195,image-keyboard-response,9
true,17,2,2,1,false,z,false,false,0.0-2.0-0.39-0.355-3.355,1,0,1,68,false,stim,true,2,1022.8000000119209,1,0,1,69313,task3,1365788,false,false,1198,image-keyboard-response,10
true,17,1,2,1,true,z,false,true,0.0-2.0-0.39-0.356-3.356,1,0,1,90,false,stim,false,1,904.9000000059605,1,1,2,69313,task3,1368215,false,false,1201,image-keyboard-response,11
true,17,1,2,1,true,z,false,true,0.0-2.0-0.39-0.357-3.357,1,0,1,90,false,stim,false,2,2002.3999999761581,1,0,1,69313,task3,1371732,false,false,1204,image-keyboard-response,12
true,17,1,2,1,true,z,false,true,0.0-2.0-0.39-0.358-3.358,1,0,1,90,false,stim,false,1,730.2000000178814,1,1,2,69313,task3,1373976,false,false,1207,image-keyboard-response,13
true,17,1,2,2,false,d,true,false,0.0-2.0-0.39-0.359-3.359,1,0,1,90,false,stim,false,2,878.3000000119209,1,1,0,69313,task3,1376369,false,false,1210,image-keyboard-response,14
true,17,1,2,1,true,z,false,true,0.0-2.0-0.40-0.360-3.360,1,0,1,90,false,stim,false,2,562.0,1,0,1,69313,task3,1378442,false,false,1213,image-keyboard-response,15
true,17,1,2,1,true,z,false,true,0.0-2.0-0.40-0.361-3.361,1,0,1,90,false,stim,false,2,407.2000000178814,1,0,1,69313,task3,1380362,false,false,1216,image-keyboard-response,16
true,17,0,2,2,false,d,true,true,0.0-2.0-0.40-0.362-3.362,1,0,1,81,false,stim,false,2,968.6999999880791,1,1,0,69313,task3,1382844,false,true,1219,image-keyboard-response,17
true,17,0,2,2,false,d,true,false,0.0-2.0-0.40-0.363-3.363,1,0,1,81,false,stim,false,2,338.09999999403954,1,1,0,69313,task3,1384696,false,false,1222,image-keyboard-response,18
true,17,1,2,1,true,z,false,true,0.0-2.0-0.40-0.364-3.364,1,0,1,90,false,stim,false,1,511.90000000596046,1,1,2,69313,task3,1386718,false,false,1225,image-keyboard-response,19
true,17,1,2,1,true,z,false,false,0.0-2.0-0.40-0.365-3.365,1,0,1,90,false,stim,false,1,491.40000000596046,1,1,2,69313,task3,1388726,false,true,1228,image-keyboard-response,20
true,17,1,2,1,true,z,false,false,0.0-2.0-0.40-0.366-3.366,1,0,1,90,false,stim,false,2,328.69999998807907,1,0,1,69313,task3,1390571,false,true,1231,image-keyboard-response,21
true,17,1,2,2,false,d,true,false,0.0-2.0-0.40-0.367-3.367,1,0,1,90,false,stim,false,2,626.1999999880791,1,0,0,69313,task3,1392715,false,false,1234,image-keyboard-response,22
true,17,1,2,1,true,z,false,true,0.0-2.0-0.40-0.368-3.368,1,0,1,90,false,stim,false,1,478.40000000596046,1,1,2,69313,task3,1394706,false,false,1237,image-keyboard-response,23
true,17,1,2,1,true,z,false,true,0.0-2.0-0.41-0.369-3.369,1,0,1,90,false,stim,false,2,436.0,1,0,1,69313,task3,1396651,false,false,1240,image-keyboard-response,24
true,17,0,2,2,false,d,true,true,0.0-2.0-0.41-0.370-3.370,1,0,1,81,false,stim,false,2,804.2000000178814,1,0,0,69313,task3,1398967,false,true,1243,image-keyboard-response,25
true,18,1,1,0,false,q,false,false,0.0-2.0-0.41-0.371-3.371,0,0,1,90,true,stim,true,1,603.8000000119209,1,0,1,69313,task3,1401086,false,false,1246,image-keyboard-response,1
true,18,1,1,1,true,z,false,true,0.0-2.0-0.41-0.372-3.372,0,0,1,90,false,stim,false,1,1346.7999999821186,1,1,2,69313,task3,1403950,false,false,1249,image-keyboard-response,2
true,18,1,1,1,true,z,false,true,0.0-2.0-0.41-0.373-3.373,0,0,1,90,false,stim,false,1,519.8000000119209,1,1,2,69313,task3,1405987,false,false,1252,image-keyboard-response,3
true,18,0,1,0,true,q,false,true,0.0-2.0-0.41-0.374-3.374,0,0,1,81,false,stim,false,2,519.2999999821186,1,0,0,69313,task3,1408022,false,false,1255,image-keyboard-response,4
true,18,1,1,1,true,z,false,true,0.0-2.0-0.41-0.375-3.375,0,0,1,90,false,stim,false,1,1327.7999999821186,1,1,2,69313,task3,1410863,false,false,1258,image-keyboard-response,5
true,18,2,1,0,false,q,true,false,0.0-2.0-0.41-0.376-3.376,0,0,1,68,false,stim,false,1,438.40000000596046,1,0,1,69313,task3,1412813,false,false,1261,image-keyboard-response,6
true,18,0,1,0,true,q,false,true,0.0-2.0-0.41-0.377-3.377,0,0,1,81,false,stim,false,2,910.5999999940395,1,0,0,69313,task3,1415237,false,false,1264,image-keyboard-response,7
true,18,1,1,1,true,z,false,true,0.0-2.0-0.42-0.378-3.378,0,0,1,90,false,stim,false,1,654.3999999761581,1,1,2,69313,task3,1417408,false,false,1267,image-keyboard-response,8
true,18,0,1,0,true,q,false,true,0.0-2.0-0.42-0.379-3.379,0,0,1,81,false,stim,false,2,594.8999999761581,1,0,0,69313,task3,1419517,false,false,1270,image-keyboard-response,9
true,18,0,1,0,true,q,false,true,0.0-2.0-0.42-0.380-3.380,0,0,1,81,false,stim,false,2,726.5,1,0,0,69313,task3,1421756,false,false,1273,image-keyboard-response,10
true,18,1,1,1,true,z,false,true,0.0-2.0-0.42-0.381-3.381,0,0,1,90,false,stim,false,1,572.5999999940395,1,1,2,69313,task3,1423844,false,false,1276,image-keyboard-response,11
true,18,0,1,0,true,q,false,true,0.0-2.0-0.42-0.382-3.382,0,0,1,81,false,stim,false,2,542.0,1,0,0,69313,task3,1425897,false,false,1279,image-keyboard-response,12
true,18,1,1,0,false,q,false,false,0.0-2.0-0.42-0.383-3.383,0,0,1,90,false,stim,true,1,794.1999999880791,1,0,1,69313,task3,1428201,false,false,1282,image-keyboard-response,13
true,18,0,1,0,true,q,false,true,0.0-2.0-0.42-0.384-3.384,0,0,1,81,false,stim,false,1,577.0,1,0,1,69313,task3,1430294,false,false,1285,image-keyboard-response,14
true,18,0,1,0,true,q,false,true,0.0-2.0-0.42-0.385-3.385,0,0,1,81,false,stim,false,1,600.9000000059605,1,0,1,69313,task3,1432409,false,false,1288,image-keyboard-response,15
true,18,1,1,1,true,z,false,true,0.0-2.0-0.42-0.386-3.386,0,0,1,90,false,stim,false,1,615.5,1,1,2,69313,task3,1434540,false,false,1291,image-keyboard-response,16
true,18,0,1,0,true,q,false,false,0.0-2.0-0.43-0.387-3.387,0,0,1,81,false,stim,false,2,773.6999999880791,1,0,0,69313,task3,1436825,false,true,1294,image-keyboard-response,17
true,18,0,1,0,true,q,false,false,0.0-2.0-0.43-0.388-3.388,0,0,1,81,false,stim,false,1,774.4000000059605,1,0,1,69313,task3,1439116,false,true,1297,image-keyboard-response,18
true,18,0,1,0,true,q,false,true,0.0-2.0-0.43-0.389-3.389,0,0,1,81,false,stim,false,1,390.59999999403954,1,0,1,69313,task3,1441022,false,false,1300,image-keyboard-response,19
true,18,1,1,1,true,z,false,false,0.0-2.0-0.43-0.390-3.390,0,0,1,90,false,stim,false,1,795.7000000178814,1,1,2,69313,task3,1443338,false,true,1303,image-keyboard-response,20
true,18,1,1,1,true,z,false,true,0.0-2.0-0.43-0.391-3.391,0,0,1,90,false,stim,false,1,401.2000000178814,1,1,2,69313,task3,1445255,false,false,1306,image-keyboard-response,21
true,18,0,1,0,true,q,false,true,0.0-2.0-0.43-0.392-3.392,0,0,1,81,false,stim,false,2,582.9000000059605,1,0,0,69313,task3,1447350,false,false,1309,image-keyboard-response,22
true,18,0,1,0,true,q,false,true,0.0-2.0-0.43-0.393-3.393,0,0,1,81,false,stim,false,2,605.0,1,0,0,69313,task3,1449468,false,false,1312,image-keyboard-response,23
true,18,0,1,1,false,z,true,false,0.0-2.0-0.43-0.394-3.394,0,0,1,81,false,stim,false,1,1260.5,1,1,2,69313,task3,1452244,false,false,1315,image-keyboard-response,24
true,18,0,1,0,true,q,false,true,0.0-2.0-0.43-0.395-3.395,0,0,1,81,false,stim,false,1,748.5,1,0,1,69313,task3,1454507,false,false,1318,image-keyboard-response,25
true,18,0,1,0,true,q,false,false,0.0-2.0-0.44-0.396-3.396,0,0,1,81,false,stim,false,2,539.3000000119209,1,1,0,69313,task3,1456560,false,true,1321,image-keyboard-response,26
true,18,0,1,1,false,z,true,false,0.0-2.0-0.44-0.397-3.397,0,0,1,81,false,stim,false,1,1247.0,1,1,2,69313,task3,1459321,false,false,1324,image-keyboard-response,27
true,18,1,1,1,true,z,false,true,0.0-2.0-0.44-0.398-3.398,0,0,1,90,false,stim,false,1,617.4000000059605,1,1,2,69313,task3,1461452,false,false,1327,image-keyboard-response,28
true,18,0,1,0,true,q,false,true,0.0-2.0-0.44-0.399-3.399,0,0,1,81,false,stim,false,2,525.6999999880791,1,1,0,69313,task3,1463490,false,false,1330,image-keyboard-response,29
true,19,1,2,1,true,z,false,true,0.0-2.0-0.44-0.400-3.400,1,0,1,90,true,stim,false,1,674.0999999940395,1,1,2,69313,task3,1465677,false,false,1333,image-keyboard-response,1
true,19,0,2,2,false,d,false,false,0.0-2.0-0.44-0.401-3.401,1,0,1,81,false,stim,true,0,605.5,1,0,1,69313,task3,1467798,false,false,1336,image-keyboard-response,2
true,19,0,2,2,false,d,false,true,0.0-2.0-0.44-0.402-3.402,1,0,1,81,false,stim,true,0,404.30000001192093,1,0,1,69313,task3,1469719,false,true,1339,image-keyboard-response,3
true,19,0,2,2,false,d,false,false,0.0-2.0-0.44-0.403-3.403,1,0,1,81,false,stim,true,0,437.40000000596046,1,0,1,69313,task3,1471668,false,false,1342,image-keyboard-response,4
true,19,0,2,0,true,q,false,true,0.0-2.0-0.44-0.404-3.404,1,0,1,81,false,stim,false,0,209.0,1,1,0,69313,task3,1473388,false,false,1345,image-keyboard-response,5
true,19,0,2,0,true,q,false,true,0.0-2.0-0.45-0.405-3.405,1,0,1,81,false,stim,false,0,355.30000001192093,1,1,0,69313,task3,1475258,false,false,1348,image-keyboard-response,6
true,19,0,2,0,true,q,false,false,0.0-2.0-0.45-0.406-3.406,1,0,1,81,false,stim,false,0,363.2999999821186,1,1,0,69313,task3,1477139,false,true,1351,image-keyboard-response,7
true,19,1,2,1,true,z,false,true,0.0-2.0-0.45-0.407-3.407,1,0,1,90,false,stim,false,1,954.3000000119209,1,1,2,69313,task3,1479606,false,false,1354,image-keyboard-response,8
true,19,0,2,2,false,d,false,false,0.0-2.0-0.45-0.408-3.408,1,0,1,81,false,stim,true,0,564.5,1,0,1,69313,task3,1481686,false,false,1357,image-keyboard-response,9
true,19,0,2,0,true,q,false,true,0.0-2.0-0.45-0.409-3.409,1,0,1,81,false,stim,false,0,470.90000000596046,1,1,0,69313,task3,1483670,false,false,1360,image-keyboard-response,10
true,19,0,2,2,false,d,false,false,0.0-2.0-0.45-0.410-3.410,1,0,1,81,false,stim,true,0,409.40000000596046,1,0,1,69313,task3,1485594,false,false,1363,image-keyboard-response,11
true,19,1,2,1,true,z,false,true,0.0-2.0-0.45-0.411-3.411,1,0,1,90,false,stim,false,1,550.6999999880791,1,1,2,69313,task3,1487661,false,false,1366,image-keyboard-response,12
true,19,1,2,2,false,d,true,false,0.0-2.0-0.45-0.412-3.412,1,0,1,90,false,stim,false,0,693.8999999761581,1,0,1,69313,task3,1489869,false,false,1369,image-keyboard-response,13
true,19,1,2,1,true,z,false,true,0.0-2.0-0.45-0.413-3.413,1,0,1,90,false,stim,false,1,693.0999999940395,1,1,2,69313,task3,1492073,false,false,1372,image-keyboard-response,14
true,19,1,2,1,true,z,false,true,0.0-2.0-0.46-0.414-3.414,1,0,1,90,false,stim,false,1,494.39999997615814,1,1,2,69313,task3,1494080,false,false,1375,image-keyboard-response,15
true,19,0,2,0,true,q,false,true,0.0-2.0-0.46-0.415-3.415,1,0,1,81,false,stim,false,0,703.4000000059605,1,1,0,69313,task3,1496294,false,false,1378,image-keyboard-response,16
true,19,0,2,0,true,q,false,true,0.0-2.0-0.46-0.416-3.416,1,0,1,81,false,stim,false,0,356.10000002384186,1,1,0,69313,task3,1498164,false,false,1381,image-keyboard-response,17
true,19,2,2,2,true,d,false,true,0.0-2.0-0.46-0.417-3.417,1,0,1,68,false,stim,false,0,1184.5999999940395,1,0,1,69313,task3,1500859,false,false,1384,image-keyboard-response,18
true,19,2,2,2,true,d,false,true,0.0-2.0-0.46-0.418-3.418,1,0,1,68,false,stim,false,0,451.5,1,0,1,69313,task3,1502827,false,false,1387,image-keyboard-response,19
true,19,1,2,1,true,z,false,true,0.0-2.0-0.46-0.419-3.419,1,0,1,90,false,stim,false,1,572.7000000178814,1,1,2,69313,task3,1504916,false,false,1390,image-keyboard-response,20
true,19,2,2,2,true,d,false,true,0.0-2.0-0.46-0.420-3.420,1,0,1,68,false,stim,false,0,832.7999999821186,1,0,1,69313,task3,1507262,false,false,1393,image-keyboard-response,21
true,19,0,2,0,true,q,false,true,0.0-2.0-0.46-0.421-3.421,1,0,1,81,false,stim,false,0,811.8000000119209,1,1,0,69313,task3,1509588,false,false,1396,image-keyboard-response,22
true,19,1,2,1,true,z,false,true,0.0-2.0-0.46-0.422-3.422,1,0,1,90,false,stim,false,1,2043.4000000059605,1,0,2,69313,task3,1513143,false,false,1399,image-keyboard-response,23
true,19,1,2,1,true,z,false,true,0.0-2.0-0.47-0.423-3.423,1,0,1,90,false,stim,false,1,448.69999998807907,1,0,2,69313,task3,1515114,false,false,1402,image-keyboard-response,24
true,19,2,2,2,true,d,false,false,0.0-2.0-0.47-0.424-3.424,1,0,1,68,false,stim,false,0,660.5,1,0,1,69313,task3,1517291,false,true,1405,image-keyboard-response,25
true,20,1,1,2,false,d,false,false,0.0-2.0-0.47-0.425-3.425,1,0,0,90,true,stim,true,1,493.0,1,0,2,69313,task3,1519301,false,false,1408,image-keyboard-response,1
true,20,2,1,1,false,z,false,false,0.0-2.0-0.47-0.426-3.426,1,0,0,68,false,stim,true,2,333.90000000596046,1,0,1,69313,task3,1521150,false,false,1411,image-keyboard-response,2
true,20,2,1,1,false,z,false,false,0.0-2.0-0.47-0.427-3.427,1,0,0,68,false,stim,true,2,450.7999999821186,1,0,1,69313,task3,1523117,false,false,1414,image-keyboard-response,3
true,20,0,1,0,true,q,false,true,0.0-2.0-0.47-0.428-3.428,1,0,0,81,false,stim,false,0,718.0,1,1,0,69313,task3,1525350,false,false,1417,image-keyboard-response,4
true,20,0,1,0,true,q,false,true,0.0-2.0-0.47-0.429-3.429,1,0,0,81,false,stim,false,0,468.7000000178814,1,1,0,69313,task3,1527336,false,false,1420,image-keyboard-response,5
true,20,1,1,2,false,d,false,false,0.0-2.0-0.47-0.430-3.430,1,0,0,90,false,stim,true,1,702.8000000119209,1,0,2,69313,task3,1529552,false,false,1423,image-keyboard-response,6
true,20,0,1,0,true,q,false,true,0.0-2.0-0.47-0.431-3.431,1,0,0,81,false,stim,false,0,587.9000000059605,1,1,0,69313,task3,1531656,false,false,1426,image-keyboard-response,7
true,20,1,1,1,true,z,false,true,0.0-2.0-0.48-0.432-3.432,1,0,0,90,false,stim,false,2,738.6999999880791,1,0,1,69313,task3,1533907,false,false,1429,image-keyboard-response,8
true,20,2,1,2,true,d,false,false,0.0-2.0-0.48-0.433-3.433,1,0,0,68,false,stim,false,1,763.9000000059605,1,0,2,69313,task3,1536182,false,true,1432,image-keyboard-response,9
true,20,0,1,0,true,q,false,true,0.0-2.0-0.48-0.434-3.434,1,0,0,81,false,stim,false,0,744.4000000059605,1,0,0,69313,task3,1538442,false,false,1435,image-keyboard-response,10
true,20,0,1,2,false,d,true,false,0.0-2.0-0.48-0.435-3.435,1,0,0,81,false,stim,false,1,534.6999999880791,1,1,2,69313,task3,1540487,false,false,1438,image-keyboard-response,11
true,20,0,1,0,true,q,false,true,0.0-2.0-0.48-0.436-3.436,1,0,0,81,false,stim,false,0,607.9000000059605,1,0,0,69313,task3,1542613,false,false,1441,image-keyboard-response,12
true,20,1,1,1,true,z,false,true,0.0-2.0-0.48-0.437-3.437,1,0,0,90,false,stim,false,2,809.9000000059605,1,1,1,69313,task3,1544934,false,false,1444,image-keyboard-response,13
true,20,1,1,1,true,z,false,true,0.0-2.0-0.48-0.438-3.438,1,0,0,90,false,stim,false,2,475.2999999821186,1,1,1,69313,task3,1546925,false,false,1447,image-keyboard-response,14
true,21,0,2,1,false,z,false,false,0.0-2.0-0.48-0.439-3.439,0,1,1,81,true,stim,true,0,592.7999999821186,1,0,0,69313,task3,1549034,false,false,1450,image-keyboard-response,1
true,21,1,2,2,false,d,true,false,0.0-2.0-0.48-0.440-3.440,0,1,1,90,false,stim,false,2,1125.4000000059605,1,1,2,69313,task3,1551675,false,false,1453,image-keyboard-response,2
true,21,1,2,1,true,z,false,true,0.0-2.0-0.49-0.441-3.441,0,1,1,90,false,stim,false,1,764.0999999940395,1,1,1,69313,task3,1553957,false,false,1456,image-keyboard-response,3
true,21,1,2,1,true,z,false,true,0.0-2.0-0.49-0.442-3.442,0,1,1,90,false,stim,false,1,424.0,1,1,1,69313,task3,1555893,false,false,1459,image-keyboard-response,4
true,21,0,2,1,false,z,false,false,0.0-2.0-0.49-0.443-3.443,0,1,1,81,false,stim,true,0,730.0999999940395,1,0,0,69313,task3,1558139,false,false,1462,image-keyboard-response,5
true,21,1,2,2,false,d,true,false,0.0-2.0-0.49-0.444-3.444,0,1,1,90,false,stim,false,2,782.6999999880791,1,1,2,69313,task3,1560439,false,false,1465,image-keyboard-response,6
true,21,1,2,1,true,z,false,true,0.0-2.0-0.49-0.445-3.445,0,1,1,90,false,stim,false,0,814.6999999880791,1,0,0,69313,task3,1562772,false,false,1468,image-keyboard-response,7
true,21,1,2,1,true,z,false,true,0.0-2.0-0.49-0.446-3.446,0,1,1,90,false,stim,false,1,337.5,1,1,1,69313,task3,1564625,false,false,1471,image-keyboard-response,8
true,21,1,2,1,true,z,false,true,0.0-2.0-0.49-0.447-3.447,0,1,1,90,false,stim,false,0,762.0999999940395,1,0,0,69313,task3,1566902,false,false,1474,image-keyboard-response,9
true,21,1,2,2,false,d,true,false,0.0-2.0-0.49-0.448-3.448,0,1,1,90,false,stim,false,2,779.2999999821186,1,1,2,69313,task3,1569196,false,false,1477,image-keyboard-response,10
true,21,2,2,2,true,d,false,true,0.0-2.0-0.49-0.449-3.449,0,1,1,68,false,stim,false,2,725.3000000119209,1,1,2,69313,task3,1571431,false,false,1480,image-keyboard-response,11
true,21,2,2,2,true,d,false,true,0.0-2.0-0.50-0.450-3.450,0,1,1,68,false,stim,false,2,440.19999998807907,1,1,2,69313,task3,1573387,false,false,1483,image-keyboard-response,12
true,21,1,2,1,true,z,false,true,0.0-2.0-0.50-0.451-3.451,0,1,1,90,false,stim,false,0,496.40000000596046,1,0,0,69313,task3,1575394,false,false,1486,image-keyboard-response,13
true,21,1,2,1,true,z,false,true,0.0-2.0-0.50-0.452-3.452,0,1,1,90,false,stim,false,0,377.19999998807907,1,0,0,69313,task3,1577289,false,false,1489,image-keyboard-response,14
true,21,1,2,2,false,d,true,false,0.0-2.0-0.50-0.453-3.453,0,1,1,90,false,stim,false,2,555.5999999940395,1,1,2,69313,task3,1579358,false,false,1492,image-keyboard-response,15
true,21,1,2,1,true,z,false,false,0.0-2.0-0.50-0.454-3.454,0,1,1,90,false,stim,false,0,477.80000001192093,1,0,0,69313,task3,1581350,false,true,1495,image-keyboard-response,16
true,21,1,2,2,false,d,true,false,0.0-2.0-0.50-0.455-3.455,0,1,1,90,false,stim,false,2,474.2000000178814,1,1,2,69313,task3,1583342,false,false,1498,image-keyboard-response,17
true,21,1,2,1,true,z,false,true,0.0-2.0-0.50-0.456-3.456,0,1,1,90,false,stim,false,1,568.7999999821186,1,1,1,69313,task3,1585432,false,false,1501,image-keyboard-response,18
true,21,1,2,1,true,z,false,true,0.0-2.0-0.50-0.457-3.457,0,1,1,90,false,stim,false,1,463.40000000596046,1,1,1,69313,task3,1587409,false,false,1504,image-keyboard-response,19
true,21,1,2,1,true,z,false,true,0.0-2.0-0.50-0.458-3.458,0,1,1,90,false,stim,false,1,480.40000000596046,1,1,1,69313,task3,1589400,false,false,1507,image-keyboard-response,20
true,21,1,2,1,true,z,false,true,0.0-2.0-0.51-0.459-3.459,0,1,1,90,false,stim,false,1,391.7999999821186,1,1,1,69313,task3,1591306,false,false,1510,image-keyboard-response,21
true,21,2,2,1,false,z,true,false,0.0-2.0-0.51-0.460-3.460,0,1,1,68,false,stim,false,0,1008.5,1,0,0,69313,task3,1593827,false,false,1513,image-keyboard-response,22
true,21,0,2,1,false,z,false,false,0.0-2.0-0.51-0.461-3.461,0,1,1,81,false,stim,true,0,713.6999999880791,1,0,0,69313,task3,1596057,false,false,1516,image-keyboard-response,23
true,21,2,2,2,true,d,false,true,0.0-2.0-0.51-0.462-3.462,0,1,1,68,false,stim,false,2,627.9000000059605,1,0,2,69313,task3,1598204,false,false,1519,image-keyboard-response,24
true,21,2,2,2,true,d,false,true,0.0-2.0-0.51-0.463-3.463,0,1,1,68,false,stim,false,2,557.0,1,0,2,69313,task3,1600277,false,false,1522,image-keyboard-response,25
true,21,1,2,1,true,z,false,true,0.0-2.0-0.51-0.464-3.464,0,1,1,90,false,stim,false,1,673.2999999821186,1,1,1,69313,task3,1602460,false,false,1525,image-keyboard-response,26
true,21,1,2,1,true,z,false,true,0.0-2.0-0.51-0.465-3.465,0,1,1,90,false,stim,false,0,959.3000000119209,1,0,0,69313,task3,1604934,false,false,1528,image-keyboard-response,27
true,21,1,2,1,true,z,false,true,0.0-2.0-0.51-0.466-3.466,0,1,1,90,false,stim,false,1,1533.0999999940395,1,1,1,69313,task3,1607984,false,false,1531,image-keyboard-response,28
true,22,2,1,0,false,q,false,true,0.0-2.0-0.51-0.467-3.467,0,1,0,68,true,stim,true,2,657.2000000178814,1,0,2,69313,task3,1610156,false,true,1534,image-keyboard-response,1
true,22,1,1,2,false,d,false,false,0.0-2.0-0.52-0.468-3.468,0,1,0,90,false,stim,true,1,570.3000000119209,1,0,0,69313,task3,1612244,false,false,1537,image-keyboard-response,2
true,22,2,1,0,false,q,false,false,0.0-2.0-0.52-0.469-3.469,0,1,0,68,false,stim,true,2,972.9000000059605,1,0,2,69313,task3,1614730,false,false,1540,image-keyboard-response,3
true,22,1,1,1,true,z,false,true,0.0-2.0-0.52-0.470-3.470,0,1,0,90,false,stim,false,1,831.7000000178814,1,1,1,69313,task3,1617081,false,false,1543,image-keyboard-response,4
true,22,1,1,2,false,d,false,false,0.0-2.0-0.52-0.471-3.471,0,1,0,90,false,stim,true,1,723.4000000059605,1,0,0,69313,task3,1619320,false,false,1546,image-keyboard-response,5
true,22,1,1,1,true,z,false,true,0.0-2.0-0.52-0.472-3.472,0,1,0,90,false,stim,false,1,650.6999999880791,1,1,1,69313,task3,1621490,false,false,1549,image-keyboard-response,6
true,22,1,1,2,false,d,false,false,0.0-2.0-0.52-0.473-3.473,0,1,0,90,false,stim,true,1,830.6000000238419,1,0,0,69313,task3,1623834,false,false,1552,image-keyboard-response,7
true,22,1,1,1,true,z,false,true,0.0-2.0-0.52-0.474-3.474,0,1,0,90,false,stim,false,1,1102.0,1,1,1,69313,task3,1626446,false,false,1555,image-keyboard-response,8
true,22,2,1,0,false,q,false,false,0.0-2.0-0.52-0.475-3.475,0,1,0,68,false,stim,true,2,647.5,1,0,2,69313,task3,1628609,false,false,1558,image-keyboard-response,9
true,22,2,1,0,false,q,false,true,0.0-2.0-0.52-0.476-3.476,0,1,0,68,false,stim,true,2,434.59999999403954,1,0,2,69313,task3,1630560,false,true,1561,image-keyboard-response,10
true,22,1,1,1,true,z,false,true,0.0-2.0-0.53-0.477-3.477,0,1,0,90,false,stim,false,1,790.4000000059605,1,1,1,69313,task3,1632867,false,false,1564,image-keyboard-response,11
true,22,1,1,2,false,d,false,false,0.0-2.0-0.53-0.478-3.478,0,1,0,90,false,stim,true,1,550.9000000059605,1,0,0,69313,task3,1634933,false,false,1567,image-keyboard-response,12
true,22,1,1,1,true,z,false,true,0.0-2.0-0.53-0.479-3.479,0,1,0,90,false,stim,false,1,827.5999999940395,1,1,1,69313,task3,1637278,false,false,1570,image-keyboard-response,13
true,22,2,1,2,true,d,false,true,0.0-2.0-0.53-0.480-3.480,0,1,0,68,false,stim,false,1,788.5999999940395,1,0,0,69313,task3,1639580,false,false,1573,image-keyboard-response,14
true,22,2,1,0,false,q,false,false,0.0-2.0-0.53-0.481-3.481,0,1,0,68,false,stim,true,2,546.5999999940395,1,0,2,69313,task3,1641644,false,false,1576,image-keyboard-response,15
true,22,1,1,1,true,z,false,true,0.0-2.0-0.53-0.482-3.482,0,1,0,90,false,stim,false,1,640.0999999940395,1,1,1,69313,task3,1643801,false,false,1579,image-keyboard-response,16
true,22,2,1,0,false,q,false,false,0.0-2.0-0.53-0.483-3.483,0,1,0,68,false,stim,true,2,657.3000000119209,1,0,2,69313,task3,1645971,false,false,1582,image-keyboard-response,17
true,22,2,1,0,false,q,false,false,0.0-2.0-0.53-0.484-3.484,0,1,0,68,false,stim,true,2,464.0,1,0,2,69313,task3,1647949,false,false,1585,image-keyboard-response,18
true,22,1,1,2,false,d,false,false,0.0-2.0-0.53-0.485-3.485,0,1,0,90,false,stim,true,1,661.8000000119209,1,1,0,69313,task3,1650129,false,false,1588,image-keyboard-response,19
true,22,2,1,2,true,d,false,false,0.0-2.0-0.54-0.486-3.486,0,1,0,68,false,stim,false,1,406.80000001192093,1,1,0,69313,task3,1652050,false,true,1591,image-keyboard-response,20
true,22,0,1,2,false,d,true,false,0.0-2.0-0.54-0.487-3.487,0,1,0,81,false,stim,false,1,997.2000000178814,1,1,0,69313,task3,1654562,false,false,1594,image-keyboard-response,21
true,22,2,1,0,false,q,false,false,0.0-2.0-0.54-0.488-3.488,0,1,0,68,false,stim,true,2,977.2999999821186,1,0,2,69313,task3,1657058,false,false,1597,image-keyboard-response,22
true,22,1,1,0,false,q,true,false,0.0-2.0-0.54-0.489-3.489,0,1,0,90,false,stim,false,2,520.8000000119209,1,0,2,69313,task3,1659099,false,false,1600,image-keyboard-response,23
true,23,1,1,0,false,q,false,false,0.0-2.0-0.54-0.490-3.490,1,0,0,90,true,stim,true,1,711.0,1,0,1,69313,task3,1661331,false,false,1603,image-keyboard-response,1
true,23,0,1,0,true,q,false,true,0.0-2.0-0.54-0.491-3.491,1,0,0,81,false,stim,false,1,382.80000001192093,1,0,1,69313,task3,1663232,false,false,1606,image-keyboard-response,2
true,23,0,1,2,false,d,true,false,0.0-2.0-0.54-0.492-3.492,1,0,0,81,false,stim,false,2,722.4000000059605,1,1,0,69313,task3,1665471,false,false,1609,image-keyboard-response,3
true,23,0,1,0,true,q,false,true,0.0-2.0-0.54-0.493-3.493,1,0,0,81,false,stim,false,1,832.0,1,0,1,69313,task3,1667821,false,false,1612,image-keyboard-response,4
true,23,1,1,2,false,d,true,true,0.0-2.0-0.54-0.494-3.494,1,0,0,90,false,stim,false,0,823.3999999761581,1,0,2,69313,task3,1670162,false,true,1615,image-keyboard-response,5
true,23,2,1,2,true,d,false,true,0.0-2.0-0.55-0.495-3.495,1,0,0,68,false,stim,false,2,1231.0,1,1,0,69313,task3,1672911,false,false,1618,image-keyboard-response,6
true,23,1,1,2,false,d,true,false,0.0-2.0-0.55-0.496-3.496,1,0,0,90,false,stim,false,0,1451.4000000059605,1,1,2,69313,task3,1675879,false,false,1621,image-keyboard-response,7
true,23,0,1,0,true,q,false,true,0.0-2.0-0.55-0.497-3.497,1,0,0,81,false,stim,false,1,1392.5999999940395,1,1,1,69313,task3,1678787,false,false,1624,image-keyboard-response,8
true,23,2,1,2,true,d,false,true,0.0-2.0-0.55-0.498-3.498,1,0,0,68,false,stim,false,2,1240.300000011921,1,0,0,69313,task3,1681542,false,false,1627,image-keyboard-response,9
true,23,0,1,0,true,q,false,true,0.0-2.0-0.55-0.499-3.499,1,0,0,81,false,stim,false,1,975.2000000178814,1,1,1,69313,task3,1684034,false,false,1630,image-keyboard-response,10
true,23,0,1,0,true,q,false,true,0.0-2.0-0.55-0.500-3.500,1,0,0,81,false,stim,false,1,773.0,1,1,1,69313,task3,1686324,false,false,1633,image-keyboard-response,11
true,24,1,2,2,false,d,true,false,0.0-2.0-0.55-0.501-3.501,0,1,1,90,true,stim,false,2,1384.699999988079,1,1,2,69313,task3,1689226,false,false,1636,image-keyboard-response,1
true,24,2,2,2,true,d,false,true,0.0-2.0-0.55-0.502-3.502,0,1,1,68,false,stim,false,2,598.2999999821186,1,1,2,69313,task3,1691342,false,false,1639,image-keyboard-response,2
true,24,0,2,1,false,z,true,false,0.0-2.0-0.55-0.503-3.503,0,1,1,81,false,stim,false,2,974.3000000119209,1,0,0,69313,task3,1693833,false,false,1642,image-keyboard-response,3
true,24,0,2,0,true,q,false,true,0.0-2.0-0.56-0.504-3.504,0,1,1,81,false,stim,false,0,1065.5,1,1,1,69313,task3,1696415,false,false,1645,image-keyboard-response,4
true,24,2,2,2,true,d,false,false,0.0-2.0-0.56-0.505-3.505,0,1,1,68,false,stim,false,2,690.1999999880791,1,1,2,69313,task3,1698619,false,true,1648,image-keyboard-response,5
true,24,0,2,0,true,q,false,true,0.0-2.0-0.56-0.506-3.506,0,1,1,81,false,stim,false,0,1393.0,1,1,1,69313,task3,1701526,false,false,1651,image-keyboard-response,6
true,24,2,2,1,false,z,false,false,0.0-2.0-0.56-0.507-3.507,0,1,1,68,false,stim,true,2,692.4000000059605,1,0,0,69313,task3,1703735,false,false,1654,image-keyboard-response,7
true,24,2,2,1,false,z,false,false,0.0-2.0-0.56-0.508-3.508,0,1,1,68,false,stim,true,2,449.09999999403954,1,0,0,69313,task3,1705701,false,false,1657,image-keyboard-response,8
true,24,2,2,2,true,d,false,true,0.0-2.0-0.56-0.509-3.509,0,1,1,68,false,stim,false,2,581.8000000119209,1,1,2,69313,task3,1707797,false,false,1660,image-keyboard-response,9
true,24,2,2,1,false,z,false,true,0.0-2.0-0.56-0.510-3.510,0,1,1,68,false,stim,true,2,1319.0,1,1,0,69313,task3,1710631,false,true,1663,image-keyboard-response,10
true,24,0,2,0,true,q,false,true,0.0-2.0-0.56-0.511-3.511,0,1,1,81,false,stim,false,0,867.1999999880791,1,0,1,69313,task3,1713018,false,false,1666,image-keyboard-response,11
true,24,2,2,2,true,d,false,true,0.0-2.0-0.56-0.512-3.512,0,1,1,68,false,stim,false,2,685.2000000178814,1,0,2,69313,task3,1715219,false,false,1669,image-keyboard-response,12
true,24,2,2,2,true,d,false,false,0.0-2.0-0.57-0.513-3.513,0,1,1,68,false,stim,false,2,510.69999998807907,1,0,2,69313,task3,1717247,false,true,1672,image-keyboard-response,13
true,24,0,2,0,true,q,false,true,0.0-2.0-0.57-0.514-3.514,0,1,1,81,false,stim,false,0,1031.199999988079,1,0,1,69313,task3,1719796,false,false,1675,image-keyboard-response,14
true,25,2,1,0,false,q,false,false,0.0-2.0-0.57-0.515-3.515,1,0,0,68,true,stim,true,2,480.09999999403954,1,0,2,69313,task3,1721789,false,false,1678,image-keyboard-response,1
true,25,0,1,0,true,q,false,true,0.0-2.0-0.57-0.516-3.516,1,0,0,81,false,stim,false,2,638.7000000178814,1,0,2,69313,task3,1723937,false,false,1681,image-keyboard-response,2
true,25,2,1,1,false,z,true,true,0.0-2.0-0.57-0.517-3.517,1,0,0,68,false,stim,false,1,859.8000000119209,1,1,0,69313,task3,1726309,false,true,1684,image-keyboard-response,3
true,25,0,1,2,false,d,false,false,0.0-2.0-0.57-0.518-3.518,1,0,0,81,false,stim,true,0,1067.800000011921,1,0,1,69313,task3,1728893,false,false,1687,image-keyboard-response,4
true,25,2,1,1,false,z,true,false,0.0-2.0-0.57-0.519-3.519,1,0,0,68,false,stim,false,1,609.7999999821186,1,1,0,69313,task3,1731022,false,false,1690,image-keyboard-response,5
true,25,0,1,2,false,d,false,false,0.0-2.0-0.57-0.520-3.520,1,0,0,81,false,stim,true,0,1060.7999999821186,1,0,1,69313,task3,1733598,false,false,1693,image-keyboard-response,6
true,25,2,1,1,false,z,true,false,0.0-2.0-0.57-0.521-3.521,1,0,0,68,false,stim,false,1,485.30000001192093,1,1,0,69313,task3,1735599,false,false,1696,image-keyboard-response,7
true,25,0,1,0,true,q,false,true,0.0-2.0-0.58-0.522-3.522,1,0,0,81,false,stim,false,2,529.2000000178814,1,0,2,69313,task3,1737645,false,false,1699,image-keyboard-response,8
true,25,0,1,0,true,q,false,true,0.0-2.0-0.58-0.523-3.523,1,0,0,81,false,stim,false,2,607.0,1,0,2,69313,task3,1739776,false,false,1702,image-keyboard-response,9
true,25,1,1,1,true,z,false,true,0.0-2.0-0.58-0.524-3.524,1,0,0,90,false,stim,false,1,1281.2999999821186,1,1,0,69313,task3,1742576,false,false,1705,image-keyboard-response,10
true,25,2,1,2,true,d,false,true,0.0-2.0-0.58-0.525-3.525,1,0,0,68,false,stim,false,0,936.1000000238419,1,1,1,69313,task3,1745028,false,false,1708,image-keyboard-response,11
true,25,2,1,2,true,d,false,true,0.0-2.0-0.58-0.526-3.526,1,0,0,68,false,stim,false,0,581.9000000059605,1,1,1,69313,task3,1747123,false,false,1711,image-keyboard-response,12
true,25,0,1,0,true,q,false,true,0.0-2.0-0.58-0.527-3.527,1,0,0,81,false,stim,false,2,788.5999999940395,1,1,2,69313,task3,1749422,false,false,1714,image-keyboard-response,13
true,25,2,1,2,true,d,false,true,0.0-2.0-0.58-0.528-3.528,1,0,0,68,false,stim,false,0,1775.199999988079,1,1,1,69313,task3,1752712,false,false,1717,image-keyboard-response,14
true,25,1,1,1,true,z,false,true,0.0-2.0-0.58-0.529-3.529,1,0,0,90,false,stim,false,1,675.7000000178814,1,1,0,69313,task3,1754903,false,false,1720,image-keyboard-response,15
false,26,-1,0,1,false,z,true,true,0.0-2.0-0.58-0.530-3.530,1,1,1,,true,stim,false,1,,1,1,0,69313,task3,1880050,false,true,1843,image-keyboard-response,1
true,26,0,0,0,true,q,false,true,0.0-2.0-0.59-0.531-3.531,1,1,1,81,false,stim,false,0,1404.5,1,1,2,69313,task3,1882973,false,false,1846,image-keyboard-response,2
true,26,1,0,0,false,q,true,false,0.0-2.0-0.59-0.532-3.532,1,1,1,90,false,stim,false,0,2223.2000000178814,1,1,2,69313,task3,1886708,false,false,1849,image-keyboard-response,3
true,26,2,0,2,true,d,false,true,0.0-2.0-0.59-0.533-3.533,1,1,1,68,false,stim,false,2,797.7999999821186,1,1,1,69313,task3,1889025,false,false,1852,image-keyboard-response,4
true,26,0,0,1,false,z,true,false,0.0-2.0-0.59-0.534-3.534,1,1,1,81,false,stim,false,1,1146.300000011921,1,1,0,69313,task3,1891688,false,false,1855,image-keyboard-response,5
true,26,2,0,2,true,d,false,true,0.0-2.0-0.59-0.535-3.535,1,1,1,68,false,stim,false,2,1163.2000000178814,1,1,1,69313,task3,1894368,false,false,1858,image-keyboard-response,6
true,26,2,0,0,false,q,true,false,0.0-2.0-0.59-0.536-3.536,1,1,1,68,false,stim,false,0,639.0999999940395,1,1,2,69313,task3,1896521,false,false,1861,image-keyboard-response,7
true,26,2,0,2,true,d,false,true,0.0-2.0-0.59-0.537-3.537,1,1,1,68,false,stim,false,2,1518.6000000238419,1,1,1,69313,task3,1899556,false,false,1864,image-keyboard-response,8
true,26,1,0,1,true,z,false,true,0.0-2.0-0.59-0.538-3.538,1,1,1,90,false,stim,false,1,814.5999999940395,1,0,0,69313,task3,1901886,false,false,1867,image-keyboard-response,9
true,26,0,0,1,false,z,true,false,0.0-2.0-0.59-0.539-3.539,1,1,1,81,false,stim,false,1,299.2999999821186,1,0,0,69313,task3,1903699,false,false,1870,image-keyboard-response,10
true,26,1,0,2,false,d,true,true,0.0-2.0-0.60-0.540-3.540,1,1,1,90,false,stim,false,2,433.59999999403954,1,1,1,69313,task3,1905647,false,true,1873,image-keyboard-response,11
true,27,2,2,0,false,q,true,false,0.0-2.0-0.60-0.541-3.541,0,1,1,68,true,stim,false,0,663.0,1,1,2,69313,task3,1907824,false,false,1876,image-keyboard-response,1
true,27,1,2,2,false,d,true,false,0.0-2.0-0.60-0.542-3.542,0,1,1,90,false,stim,false,2,529.1999999880791,1,1,1,69313,task3,1909870,false,false,1879,image-keyboard-response,2
true,27,0,2,2,false,d,true,false,0.0-2.0-0.60-0.543-3.543,0,1,1,81,false,stim,false,1,854.2999999821186,1,0,0,69313,task3,1912242,false,false,1882,image-keyboard-response,3
true,27,1,2,2,false,d,true,false,0.0-2.0-0.60-0.544-3.544,0,1,1,90,false,stim,false,2,464.0,1,1,1,69313,task3,1914224,false,false,1885,image-keyboard-response,4
true,27,1,2,2,false,d,false,false,0.0-2.0-0.60-0.545-3.545,0,1,1,90,false,stim,true,1,960.8999999761581,1,0,0,69313,task3,1916698,false,false,1888,image-keyboard-response,5
true,27,2,2,0,false,q,true,false,0.0-2.0-0.60-0.546-3.546,0,1,1,68,false,stim,false,0,281.0,1,1,2,69313,task3,1918495,false,false,1891,image-keyboard-response,6
true,27,0,2,0,true,q,false,false,0.0-2.0-0.60-0.547-3.547,0,1,1,81,false,stim,false,0,327.30000001192093,1,1,2,69313,task3,1920336,false,true,1894,image-keyboard-response,7
true,27,1,2,2,false,d,false,false,0.0-2.0-0.60-0.548-3.548,0,1,1,90,false,stim,true,1,591.5999999940395,1,0,0,69313,task3,1922445,false,false,1897,image-keyboard-response,8
true,27,2,2,2,true,d,false,true,0.0-2.0-0.61-0.549-3.549,0,1,1,68,false,stim,false,1,232.19999998807907,1,1,0,69313,task3,1924196,false,false,1900,image-keyboard-response,9
true,27,1,2,2,false,d,true,false,0.0-2.0-0.61-0.550-3.550,0,1,1,90,false,stim,false,2,675.0999999940395,1,0,1,69313,task3,1926396,false,false,1903,image-keyboard-response,10
true,27,0,2,2,false,d,true,false,0.0-2.0-0.61-0.551-3.551,0,1,1,81,false,stim,false,2,898.5999999940395,1,0,1,69313,task3,1928813,false,false,1906,image-keyboard-response,11
true,27,2,2,2,true,d,false,true,0.0-2.0-0.61-0.552-3.552,0,1,1,68,false,stim,false,1,948.1999999880791,1,1,0,69313,task3,1931273,false,false,1909,image-keyboard-response,12
true,27,1,2,0,false,q,true,false,0.0-2.0-0.61-0.553-3.553,0,1,1,90,false,stim,false,0,939.8000000119209,1,1,2,69313,task3,1933726,false,false,1912,image-keyboard-response,13
true,28,2,2,2,true,d,false,true,0.0-2.0-0.61-0.554-3.554,1,0,1,68,true,stim,false,2,1937.7999999821186,1,1,0,69313,task3,1937180,false,false,1915,image-keyboard-response,1
true,28,1,2,0,false,q,true,false,0.0-2.0-0.61-0.555-3.555,1,0,1,90,false,stim,false,0,1081.4000000059605,1,1,2,69313,task3,1939776,false,false,1918,image-keyboard-response,2
true,28,0,2,0,true,q,false,true,0.0-2.0-0.61-0.556-3.556,1,0,1,81,false,stim,false,2,1201.5999999940395,1,0,1,69313,task3,1942493,false,false,1921,image-keyboard-response,3
true,28,1,2,0,false,q,true,false,0.0-2.0-0.61-0.557-3.557,1,0,1,90,false,stim,false,0,1808.0,1,1,2,69313,task3,1945818,false,false,1924,image-keyboard-response,4
true,28,2,2,2,true,d,false,true,0.0-2.0-0.62-0.558-3.558,1,0,1,68,false,stim,false,2,1128.2000000178814,1,1,0,69313,task3,1948467,false,false,1927,image-keyboard-response,5
true,28,1,2,0,false,q,true,false,0.0-2.0-0.62-0.559-3.559,1,0,1,90,false,stim,false,0,1037.0999999940395,1,1,2,69313,task3,1951022,false,false,1930,image-keyboard-response,6
true,28,0,2,0,true,q,false,true,0.0-2.0-0.62-0.560-3.560,1,0,1,81,false,stim,false,2,1064.300000011921,1,0,1,69313,task3,1953606,false,false,1933,image-keyboard-response,7
true,28,0,2,0,true,q,false,true,0.0-2.0-0.62-0.561-3.561,1,0,1,81,false,stim,false,0,720.7999999821186,1,1,2,69313,task3,1955844,false,false,1936,image-keyboard-response,8
true,28,2,2,2,true,d,false,false,0.0-2.0-0.62-0.562-3.562,1,0,1,68,false,stim,false,2,899.5,1,1,0,69313,task3,1958263,false,true,1939,image-keyboard-response,9
true,28,0,2,0,true,q,false,true,0.0-2.0-0.62-0.563-3.563,1,0,1,81,false,stim,false,2,613.9000000059605,1,0,1,69313,task3,1960393,false,false,1942,image-keyboard-response,10
true,28,0,2,0,true,q,false,true,0.0-2.0-0.62-0.564-3.564,1,0,1,81,false,stim,false,0,520.8000000119209,1,0,2,69313,task3,1962430,false,false,1945,image-keyboard-response,11
true,28,2,2,2,true,d,false,true,0.0-2.0-0.62-0.565-3.565,1,0,1,68,false,stim,false,2,1038.5999999940395,1,0,0,69313,task3,1964984,false,false,1948,image-keyboard-response,12
true,28,2,2,0,false,q,false,false,0.0-2.0-0.62-0.566-3.566,1,0,1,68,false,stim,true,2,1037.9000000059605,1,1,1,69313,task3,1967540,false,false,1951,image-keyboard-response,13
true,28,0,2,2,false,d,true,false,0.0-2.0-0.63-0.567-3.567,1,0,1,81,false,stim,false,2,1021.5,1,0,0,69313,task3,1970077,false,false,1954,image-keyboard-response,14
true,28,0,2,0,true,q,false,true,0.0-2.0-0.63-0.568-3.568,1,0,1,81,false,stim,false,2,690.7000000178814,1,1,1,69313,task3,1972284,false,false,1957,image-keyboard-response,15
true,29,1,1,1,true,z,false,true,0.0-2.0-0.63-0.569-3.569,0,1,0,90,true,stim,false,2,1123.5,1,0,0,69313,task3,1974923,false,false,1960,image-keyboard-response,1
true,29,2,1,1,false,z,true,false,0.0-2.0-0.63-0.570-3.570,0,1,0,68,false,stim,false,0,1319.2999999821186,1,0,2,69313,task3,1977762,false,false,1963,image-keyboard-response,2
true,29,0,1,1,false,z,true,true,0.0-2.0-0.63-0.571-3.571,0,1,0,81,false,stim,false,2,998.5,1,0,0,69313,task3,1980277,false,true,1966,image-keyboard-response,3
true,29,2,1,1,false,z,true,false,0.0-2.0-0.63-0.572-3.572,0,1,0,68,false,stim,false,0,1044.4000000059605,1,0,2,69313,task3,1982839,false,false,1969,image-keyboard-response,4
true,29,1,1,1,true,z,false,true,0.0-2.0-0.63-0.573-3.573,0,1,0,90,false,stim,false,0,861.7999999821186,1,0,2,69313,task3,1985220,false,false,1972,image-keyboard-response,5
true,29,0,1,0,true,q,false,true,0.0-2.0-0.63-0.574-3.574,0,1,0,81,false,stim,false,0,461.60000002384186,1,1,1,69313,task3,1987198,false,false,1975,image-keyboard-response,6
true,29,0,1,0,true,q,false,true,0.0-2.0-0.63-0.575-3.575,0,1,0,81,false,stim,false,0,609.0,1,1,1,69313,task3,1989323,false,false,1978,image-keyboard-response,7
true,29,0,1,1,false,z,true,true,0.0-2.0-0.64-0.576-3.576,0,1,0,81,false,stim,false,2,430.59999999403954,1,0,0,69313,task3,1991272,false,true,1981,image-keyboard-response,8
false,29,-1,1,0,false,q,true,false,0.0-2.0-0.64-0.577-3.577,0,1,0,,false,stim,false,0,,1,1,1,69313,task3,1995785,false,false,1984,image-keyboard-response,9
false,29,-1,1,0,false,q,true,false,0.0-2.0-0.64-0.578-3.578,0,1,0,,false,stim,false,0,,1,1,1,69313,task3,2000307,false,false,1987,image-keyboard-response,10
true,29,0,1,1,false,z,true,false,0.0-2.0-0.64-0.579-3.579,0,1,0,81,false,stim,false,2,263.5,1,0,0,69313,task3,2002084,false,false,1990,image-keyboard-response,11
true,29,0,1,1,false,z,true,false,0.0-2.0-0.64-0.580-3.580,0,1,0,81,false,stim,false,2,687.6999999880791,1,0,0,69313,task3,2004289,false,false,1993,image-keyboard-response,12
true,29,1,1,1,true,z,false,true,0.0-2.0-0.64-0.581-3.581,0,1,0,90,false,stim,false,0,1101.5999999940395,1,0,2,69313,task3,2006906,false,false,1996,image-keyboard-response,13
true,29,2,1,1,false,z,true,false,0.0-2.0-0.64-0.582-3.582,0,1,0,68,false,stim,false,0,711.7000000178814,1,0,2,69313,task3,2009137,false,false,1999,image-keyboard-response,14
true,29,0,1,1,false,z,false,false,0.0-2.0-0.64-0.583-3.583,0,1,0,81,false,stim,true,0,786.3000000119209,1,0,2,69313,task3,2011449,false,false,2002,image-keyboard-response,15
true,29,1,1,0,false,q,true,false,0.0-2.0-0.64-0.584-3.584,0,1,0,90,false,stim,false,0,31.599999994039536,1,1,1,69313,task3,2012995,false,false,2005,image-keyboard-response,16
true,29,0,1,1,false,z,true,false,0.0-2.0-0.65-0.585-3.585,0,1,0,81,false,stim,false,2,450.19999998807907,1,0,0,69313,task3,2014961,false,false,2008,image-keyboard-response,17
true,29,2,1,1,false,z,true,false,0.0-2.0-0.65-0.586-3.586,0,1,0,68,false,stim,false,0,948.0,1,0,2,69313,task3,2017429,false,false,2011,image-keyboard-response,18
true,29,1,1,1,true,z,false,true,0.0-2.0-0.65-0.587-3.587,0,1,0,90,false,stim,false,2,765.7999999821186,1,0,0,69313,task3,2019713,false,false,2014,image-keyboard-response,19
true,29,0,1,1,false,z,false,false,0.0-2.0-0.65-0.588-3.588,0,1,0,81,false,stim,true,0,443.5,1,0,2,69313,task3,2021669,false,false,2017,image-keyboard-response,20
true,29,1,1,0,false,q,true,false,0.0-2.0-0.65-0.589-3.589,0,1,0,90,false,stim,false,0,968.6000000238419,1,1,1,69313,task3,2024158,false,false,2020,image-keyboard-response,21
true,29,2,1,1,false,z,true,false,0.0-2.0-0.65-0.590-3.590,0,1,0,68,false,stim,false,0,442.69999998807907,1,0,2,69313,task3,2026116,false,false,2023,image-keyboard-response,22
