answered,blockNum,choice,condition,corResp,correct,correct_response,explo,fb,internal_node_id,isStable_1,isStable_2,isStable_3,key_press,newBlock,part,persev,persevResp,rt,sessNum,stableAS,stimulus,subject,task,time_elapsed,training,trap,trial_index,trial_type,trialsInBlock
true,1,0,0,2,false,d,true,false,0.0-2.0-0.0-0.0-3.0,0,0,0,81,true,stim,false,-1,965.3000000119209,0,0,2,69444,task1,242184,false,false,170,image-keyboard-response,1
true,1,1,0,2,false,d,true,false,0.0-2.0-0.0-0.1-3.1,0,0,0,90,false,stim,false,-1,1024.2999999821186,0,0,2,69444,task1,244733,false,false,173,image-keyboard-response,2
true,1,0,0,1,false,z,true,false,0.0-2.0-0.0-0.2-3.2,0,0,0,81,false,stim,false,-1,1421.3999999761581,0,0,1,69444,task1,247675,false,false,176,image-keyboard-response,3
true,1,2,0,2,true,d,false,true,0.0-2.0-0.0-0.3-3.3,0,0,0,68,false,stim,false,-1,841.0,0,0,2,69444,task1,250040,false,false,179,image-keyboard-response,4
true,1,1,0,2,false,d,true,false,0.0-2.0-0.0-0.4-3.4,0,0,0,90,false,stim,false,-1,1676.5999999940395,0,0,0,69444,task1,253234,false,false,182,image-keyboard-response,5
true,1,2,0,1,false,z,true,false,0.0-2.0-0.0-0.5-3.5,0,0,0,68,false,stim,false,-1,2014.5999999940395,0,0,1,69444,task1,256765,false,false,185,image-keyboard-response,6
true,1,0,0,2,false,d,true,false,0.0-2.0-0.0-0.6-3.6,0,0,0,81,false,stim,false,-1,2093.0999999940395,0,0,0,69444,task1,260383,false,false,188,image-keyboard-response,7
true,1,1,0,1,true,z,false,true,0.0-2.0-0.0-0.7-3.7,0,0,0,90,false,stim,false,-1,1061.9000000059605,0,0,1,69444,task1,262967,false,false,191,image-keyboard-response,8
true,1,1,0,2,false,d,true,false,0.0-2.0-0.0-0.8-3.8,0,0,0,90,false,stim,false,-1,1677.4000000059605,0,0,0,69444,task1,266189,false,false,194,image-keyboard-response,9
true,1,2,0,2,true,d,false,true,0.0-2.0-0.1-0.9-3.9,0,0,0,68,false,stim,false,-1,1081.6000000238419,0,0,2,69444,task1,268789,false,false,197,image-keyboard-response,10
true,1,1,0,1,true,z,false,true,0.0-2.0-0.1-0.10-3.10,0,0,0,90,false,stim,false,-1,2248.399999976158,0,0,1,69444,task1,272559,false,false,200,image-keyboard-response,11
true,1,2,0,2,true,d,false,true,0.0-2.0-0.1-0.11-3.11,0,0,0,68,false,stim,false,-1,872.7999999821186,0,0,2,69444,task1,274944,false,false,203,image-keyboard-response,12
true,1,2,0,2,true,d,false,true,0.0-2.0-0.1-0.12-3.12,0,0,0,68,false,stim,false,-1,909.8999999761581,0,0,0,69444,task1,277366,false,false,206,image-keyboard-response,13
true,1,2,0,2,true,d,false,true,0.0-2.0-0.1-0.13-3.13,0,0,0,68,false,stim,false,-1,1060.5,0,0,2,69444,task1,279944,false,false,209,image-keyboard-response,14
true,1,2,0,2,true,d,false,true,0.0-2.0-0.1-0.14-3.14,0,0,0,68,false,stim,false,-1,870.6999999880791,0,0,0,69444,task1,282336,false,false,212,image-keyboard-response,15
true,1,1,0,1,true,z,false,false,0.0-2.0-0.1-0.15-3.15,0,0,0,90,false,stim,false,-1,616.7000000178814,0,0,1,69444,task1,284474,false,true,215,image-keyboard-response,16
true,1,2,0,2,true,d,false,true,0.0-2.0-0.1-0.16-3.16,0,0,0,68,false,stim,false,-1,749.0,0,0,0,69444,task1,286740,false,false,218,image-keyboard-response,17
true,1,0,0,1,false,z,true,true,0.0-2.0-0.1-0.17-3.17,0,0,0,81,false,stim,false,-1,1347.5999999940395,0,0,1,69444,task1,289608,false,true,221,image-keyboard-response,18
true,1,0,0,1,false,z,true,false,0.0-2.0-0.2-0.18-3.18,0,0,0,81,false,stim,false,-1,1049.9000000059605,0,0,1,69444,task1,292192,false,false,224,image-keyboard-response,19
true,1,2,0,2,true,d,false,true,0.0-2.0-0.2-0.19-3.19,0,0,0,68,false,stim,false,-1,1216.699999988079,0,0,0,69444,task1,294925,false,false,227,image-keyboard-response,20
true,1,2,0,2,true,d,false,true,0.0-2.0-0.2-0.20-3.20,0,0,0,68,false,stim,false,-1,568.5999999940395,0,0,0,69444,task1,297014,false,false,230,image-keyboard-response,21
true,1,1,0,1,true,z,false,true,0.0-2.0-0.2-0.21-3.21,0,0,0,90,false,stim,false,-1,1107.300000011921,0,0,1,69444,task1,299631,false,false,233,image-keyboard-response,22
true,1,2,0,2,true,d,false,true,0.0-2.0-0.2-0.22-3.22,0,0,0,68,false,stim,false,-1,901.9000000059605,0,0,0,69444,task1,302046,false,false,236,image-keyboard-response,23
true,1,1,0,1,true,z,false,true,0.0-2.0-0.2-0.23-3.23,0,0,0,90,false,stim,false,-1,639.7999999821186,0,0,1,69444,task1,304203,false,false,239,image-keyboard-response,24
true,1,2,0,2,true,d,false,true,0.0-2.0-0.2-0.24-3.24,0,0,0,68,false,stim,false,-1,1060.199999988079,0,0,2,69444,task1,306787,false,false,242,image-keyboard-response,25
true,1,2,0,2,true,d,false,true,0.0-2.0-0.2-0.25-3.25,0,0,0,68,false,stim,false,-1,651.2999999821186,0,0,2,69444,task1,308952,false,false,245,image-keyboard-response,26
true,2,2,1,0,false,q,false,false,0.0-2.0-0.2-0.26-3.26,0,0,0,68,true,stim,true,2,833.6000000238419,0,0,2,69444,task1,311306,false,false,248,image-keyboard-response,1
true,2,1,1,2,false,d,false,false,0.0-2.0-0.3-0.27-3.27,0,0,0,90,false,stim,true,1,1331.7999999821186,0,0,1,69444,task1,314186,false,false,251,image-keyboard-response,2
true,2,1,1,0,false,q,true,true,0.0-2.0-0.3-0.28-3.28,0,0,0,90,false,stim,false,2,1595.2000000178814,0,0,2,69444,task1,317299,false,true,254,image-keyboard-response,3
true,2,2,1,1,false,z,false,false,0.0-2.0-0.3-0.29-3.29,0,0,0,68,false,stim,true,2,1462.5,0,0,0,69444,task1,320281,false,false,257,image-keyboard-response,4
true,2,1,1,0,false,q,true,false,0.0-2.0-0.3-0.30-3.30,0,0,0,90,false,stim,false,2,1475.300000011921,0,0,2,69444,task1,323282,false,false,260,image-keyboard-response,5
true,2,1,1,2,false,d,false,false,0.0-2.0-0.3-0.31-3.31,0,0,0,90,false,stim,true,1,2577.300000011921,0,0,1,69444,task1,327379,false,false,263,image-keyboard-response,6
true,2,0,1,0,true,q,false,true,0.0-2.0-0.3-0.32-3.32,0,0,0,81,false,stim,false,2,1276.4000000059605,0,0,2,69444,task1,330176,false,false,266,image-keyboard-response,7
true,2,2,1,1,false,z,false,true,0.0-2.0-0.3-0.33-3.33,0,0,0,68,false,stim,true,2,1099.2000000178814,0,0,0,69444,task1,332806,false,true,269,image-keyboard-response,8
true,2,2,1,1,false,z,false,false,0.0-2.0-0.3-0.34-3.34,0,0,0,68,false,stim,true,2,1012.5999999940395,0,0,0,69444,task1,335332,false,false,272,image-keyboard-response,9
true,2,0,1,2,false,d,true,false,0.0-2.0-0.3-0.35-3.35,0,0,0,81,false,stim,false,1,1912.800000011921,0,0,1,69444,task1,338767,false,false,275,image-keyboard-response,10
true,2,0,1,1,false,z,true,false,0.0-2.0-0.4-0.36-3.36,0,0,0,81,false,stim,false,2,1761.699999988079,0,0,0,69444,task1,342035,false,false,278,image-keyboard-response,11
true,2,0,1,0,true,q,false,true,0.0-2.0-0.4-0.37-3.37,0,0,0,81,false,stim,false,2,1501.5,0,0,2,69444,task1,345063,false,false,281,image-keyboard-response,12
true,2,2,1,2,true,d,false,true,0.0-2.0-0.4-0.38-3.38,0,0,0,68,false,stim,false,1,2616.899999976158,0,0,1,69444,task1,349206,false,false,284,image-keyboard-response,13
true,2,2,1,2,true,d,false,true,0.0-2.0-0.4-0.39-3.39,0,0,0,68,false,stim,false,1,642.7000000178814,0,0,1,69444,task1,351362,false,false,287,image-keyboard-response,14
true,2,1,1,1,true,z,false,false,0.0-2.0-0.4-0.40-3.40,0,0,0,90,false,stim,false,2,2033.800000011921,0,0,0,69444,task1,354930,false,true,290,image-keyboard-response,15
true,2,2,1,2,true,d,false,true,0.0-2.0-0.4-0.41-3.41,0,0,0,68,false,stim,false,1,857.9000000059605,0,0,1,69444,task1,357312,false,false,293,image-keyboard-response,16
true,2,0,1,0,true,q,false,true,0.0-2.0-0.4-0.42-3.42,0,0,0,81,false,stim,false,2,2216.0999999940395,0,0,2,69444,task1,361040,false,false,296,image-keyboard-response,17
true,2,2,1,1,false,z,false,false,0.0-2.0-0.4-0.43-3.43,0,0,0,68,false,stim,true,2,943.4000000059605,0,0,0,69444,task1,363508,false,false,299,image-keyboard-response,18
true,2,0,1,0,true,q,false,true,0.0-2.0-0.4-0.44-3.44,0,0,0,81,false,stim,false,2,1047.699999988079,0,0,2,69444,task1,366084,false,false,302,image-keyboard-response,19
true,2,1,1,1,true,z,false,true,0.0-2.0-0.5-0.45-3.45,0,0,0,90,false,stim,false,2,463.90000000596046,0,0,0,69444,task1,368096,false,false,305,image-keyboard-response,20
true,2,0,1,0,true,q,false,true,0.0-2.0-0.5-0.46-3.46,0,0,0,81,false,stim,false,2,1418.7999999821186,0,0,2,69444,task1,371036,false,false,308,image-keyboard-response,21
true,2,2,1,2,true,d,false,true,0.0-2.0-0.5-0.47-3.47,0,0,0,68,false,stim,false,1,2515.2999999821186,0,0,1,69444,task1,375071,false,false,311,image-keyboard-response,22
true,2,2,1,2,true,d,false,true,0.0-2.0-0.5-0.48-3.48,0,0,0,68,false,stim,false,1,600.5999999940395,0,0,1,69444,task1,377186,false,false,314,image-keyboard-response,23
true,2,0,1,0,true,q,false,true,0.0-2.0-0.5-0.49-3.49,0,0,0,81,false,stim,false,2,1058.0999999940395,0,0,2,69444,task1,379763,false,false,317,image-keyboard-response,24
true,2,2,1,2,true,d,false,true,0.0-2.0-0.5-0.50-3.50,0,0,0,68,false,stim,false,1,968.3000000119209,0,0,1,69444,task1,382260,false,false,320,image-keyboard-response,25
true,2,0,1,0,true,q,false,true,0.0-2.0-0.5-0.51-3.51,0,0,0,81,false,stim,false,2,1471.0999999940395,0,0,2,69444,task1,385260,false,false,323,image-keyboard-response,26
true,2,1,1,1,true,z,false,true,0.0-2.0-0.5-0.52-3.52,0,0,0,90,false,stim,false,2,743.8000000119209,0,0,0,69444,task1,387525,false,false,326,image-keyboard-response,27
true,2,1,1,1,true,z,false,true,0.0-2.0-0.5-0.53-3.53,0,0,0,90,false,stim,false,2,679.5,0,0,0,69444,task1,389732,false,false,329,image-keyboard-response,28
true,2,1,1,1,true,z,false,true,0.0-2.0-0.6-0.54-3.54,0,0,0,90,false,stim,false,2,1050.4000000059605,0,0,0,69444,task1,392306,false,false,332,image-keyboard-response,29
true,2,2,1,2,true,d,false,true,0.0-2.0-0.6-0.55-3.55,0,0,0,68,false,stim,false,1,1516.5999999940395,0,0,1,69444,task1,395352,false,false,335,image-keyboard-response,30
true,2,2,1,2,true,d,false,true,0.0-2.0-0.6-0.56-3.56,0,0,0,68,false,stim,false,1,568.6999999880791,0,0,1,69444,task1,397444,false,false,338,image-keyboard-response,31
true,2,0,1,0,true,q,false,true,0.0-2.0-0.6-0.57-3.57,0,0,0,81,false,stim,false,2,978.9000000059605,0,0,2,69444,task1,399949,false,false,341,image-keyboard-response,32
true,2,1,1,1,true,z,false,true,0.0-2.0-0.6-0.58-3.58,0,0,0,90,false,stim,false,2,927.3000000119209,0,0,0,69444,task1,402397,false,false,344,image-keyboard-response,33
true,2,2,1,2,true,d,false,true,0.0-2.0-0.6-0.59-3.59,0,0,0,68,false,stim,false,1,1350.0999999940395,0,0,1,69444,task1,405274,false,false,347,image-keyboard-response,34
true,2,0,1,0,true,q,false,true,0.0-2.0-0.6-0.60-3.60,0,0,0,81,false,stim,false,2,1293.800000011921,0,0,2,69444,task1,408085,false,false,350,image-keyboard-response,35
true,2,1,1,1,true,z,false,false,0.0-2.0-0.6-0.61-3.61,0,0,0,90,false,stim,false,2,553.5,0,0,0,69444,task1,410179,false,true,353,image-keyboard-response,36
true,2,0,1,0,true,q,false,true,0.0-2.0-0.6-0.62-3.62,0,0,0,81,false,stim,false,2,946.9000000059605,0,0,2,69444,task1,412653,false,false,356,image-keyboard-response,37
true,2,0,1,1,false,z,true,false,0.0-2.0-0.7-0.63-3.63,0,0,0,81,false,stim,false,2,1123.9000000059605,0,0,0,69444,task1,415316,false,false,359,image-keyboard-response,38
true,2,2,1,2,true,d,false,true,0.0-2.0-0.7-0.64-3.64,0,0,0,68,false,stim,false,1,1575.2000000178814,0,0,1,69444,task1,418416,false,false,362,image-keyboard-response,39
true,2,0,1,0,true,q,false,true,0.0-2.0-0.7-0.65-3.65,0,0,0,81,false,stim,false,2,765.0999999940395,0,0,2,69444,task1,420713,false,false,365,image-keyboard-response,40
true,2,2,1,1,false,z,false,false,0.0-2.0-0.7-0.66-3.66,0,0,0,68,false,stim,true,2,723.0,0,0,0,69444,task1,422958,false,false,368,image-keyboard-response,41
true,3,2,1,1,false,z,false,false,0.0-2.0-0.7-0.67-3.67,0,0,0,68,true,stim,true,2,1627.6000000238419,0,0,1,69444,task1,426108,false,false,371,image-keyboard-response,1
true,3,0,1,1,false,z,false,false,0.0-2.0-0.7-0.68-3.68,0,0,0,81,false,stim,true,0,1403.199999988079,0,0,2,69444,task1,429022,false,false,374,image-keyboard-response,2
true,3,1,1,1,true,z,false,true,0.0-2.0-0.7-0.69-3.69,0,0,0,90,false,stim,false,2,1577.300000011921,0,0,1,69444,task1,432133,false,false,377,image-keyboard-response,3
true,3,2,1,2,true,d,false,false,0.0-2.0-0.7-0.70-3.70,0,0,0,68,false,stim,false,1,1853.5,0,0,0,69444,task1,435518,false,true,380,image-keyboard-response,4
true,3,1,1,1,true,z,false,true,0.0-2.0-0.7-0.71-3.71,0,0,0,90,false,stim,false,0,1268.5,0,0,2,69444,task1,438324,false,false,383,image-keyboard-response,5
true,3,1,1,2,false,d,false,false,0.0-2.0-0.8-0.72-3.72,0,0,0,90,false,stim,true,1,774.7999999821186,0,0,0,69444,task1,440634,false,false,386,image-keyboard-response,6
true,3,0,1,2,false,d,true,false,0.0-2.0-0.8-0.73-3.73,0,0,0,81,false,stim,false,1,678.0999999940395,0,0,0,69444,task1,442832,false,false,389,image-keyboard-response,7
true,3,1,1,1,true,z,false,true,0.0-2.0-0.8-0.74-3.74,0,0,0,90,false,stim,false,0,784.4000000059605,0,0,2,69444,task1,445136,false,false,392,image-keyboard-response,8
true,3,1,1,1,true,z,false,true,0.0-2.0-0.8-0.75-3.75,0,0,0,90,false,stim,false,0,575.2999999821186,0,0,2,69444,task1,447236,false,false,395,image-keyboard-response,9
true,3,2,1,2,true,d,false,true,0.0-2.0-0.8-0.76-3.76,0,0,0,68,false,stim,false,1,977.8000000119209,0,0,0,69444,task1,449754,false,false,398,image-keyboard-response,10
true,3,1,1,1,true,z,false,true,0.0-2.0-0.8-0.77-3.77,0,0,0,90,false,stim,false,0,952.7000000178814,0,0,2,69444,task1,452228,false,false,401,image-keyboard-response,11
true,3,1,1,1,true,z,false,false,0.0-2.0-0.8-0.78-3.78,0,0,0,90,false,stim,false,2,690.4000000059605,0,0,1,69444,task1,454445,false,true,404,image-keyboard-response,12
true,3,2,1,1,false,z,false,false,0.0-2.0-0.8-0.79-3.79,0,0,0,68,false,stim,true,2,1425.4000000059605,0,0,1,69444,task1,457404,false,false,407,image-keyboard-response,13
true,3,0,1,1,false,z,true,false,0.0-2.0-0.8-0.80-3.80,0,0,0,81,false,stim,false,2,592.1000000238419,0,0,1,69444,task1,459523,false,false,410,image-keyboard-response,14
true,3,1,1,1,true,z,false,true,0.0-2.0-0.9-0.81-3.81,0,0,0,90,false,stim,false,0,1528.699999988079,0,0,2,69444,task1,462574,false,false,413,image-keyboard-response,15
true,3,2,1,2,true,d,false,true,0.0-2.0-0.9-0.82-3.82,0,0,0,68,false,stim,false,1,1837.9000000059605,0,0,0,69444,task1,465940,false,false,416,image-keyboard-response,16
true,3,1,1,1,true,z,false,true,0.0-2.0-0.9-0.83-3.83,0,0,0,90,false,stim,false,0,1178.2999999821186,0,0,2,69444,task1,468649,false,false,419,image-keyboard-response,17
true,3,0,1,1,false,z,true,false,0.0-2.0-0.9-0.84-3.84,0,0,0,81,false,stim,false,2,1865.9000000059605,0,0,1,69444,task1,472036,false,false,422,image-keyboard-response,18
true,3,1,1,2,false,d,false,false,0.0-2.0-0.9-0.85-3.85,0,0,0,90,false,stim,true,1,2358.0999999940395,0,0,0,69444,task1,475937,false,false,425,image-keyboard-response,19
true,3,1,1,1,true,z,false,true,0.0-2.0-0.9-0.86-3.86,0,0,0,90,false,stim,false,0,1765.699999988079,0,0,2,69444,task1,479222,false,false,428,image-keyboard-response,20
true,3,2,1,1,false,z,false,false,0.0-2.0-0.9-0.87-3.87,0,0,0,68,false,stim,true,2,1220.5999999940395,0,0,1,69444,task1,481977,false,false,431,image-keyboard-response,21
true,3,2,1,2,true,d,false,true,0.0-2.0-0.9-0.88-3.88,0,0,0,68,false,stim,false,1,1223.2999999821186,0,0,0,69444,task1,484740,false,false,434,image-keyboard-response,22
true,3,0,1,1,false,z,true,false,0.0-2.0-0.9-0.89-3.89,0,0,0,81,false,stim,false,2,872.0999999940395,0,0,1,69444,task1,487150,false,false,437,image-keyboard-response,23
true,3,1,1,1,true,z,false,true,0.0-2.0-0.10-0.90-3.90,0,0,0,90,false,stim,false,0,1093.5,0,0,2,69444,task1,489764,false,false,440,image-keyboard-response,24
true,3,1,1,1,true,z,false,true,0.0-2.0-0.10-0.91-3.91,0,0,0,90,false,stim,false,0,1621.0999999940395,0,0,2,69444,task1,492923,false,false,443,image-keyboard-response,25
true,3,2,1,2,true,d,false,true,0.0-2.0-0.10-0.92-3.92,0,0,0,68,false,stim,false,1,1940.2000000178814,0,0,0,69444,task1,496376,false,false,446,image-keyboard-response,26
true,3,1,1,1,true,z,false,true,0.0-2.0-0.10-0.93-3.93,0,0,0,90,false,stim,false,2,1823.4000000059605,0,0,1,69444,task1,499716,false,false,449,image-keyboard-response,27
true,3,1,1,1,true,z,false,true,0.0-2.0-0.10-0.94-3.94,0,0,0,90,false,stim,false,2,673.5,0,0,1,69444,task1,501919,false,false,452,image-keyboard-response,28
true,3,1,1,1,true,z,false,false,0.0-2.0-0.10-0.95-3.95,0,0,0,90,false,stim,false,0,1129.800000011921,0,0,2,69444,task1,504583,false,true,455,image-keyboard-response,29
true,3,2,1,2,true,d,false,true,0.0-2.0-0.10-0.96-3.96,0,0,0,68,false,stim,false,1,980.5999999940395,0,0,0,69444,task1,507088,false,false,458,image-keyboard-response,30
true,3,2,1,2,true,d,false,true,0.0-2.0-0.10-0.97-3.97,0,0,0,68,false,stim,false,1,1098.8999999761581,0,0,0,69444,task1,509710,false,false,461,image-keyboard-response,31
true,3,1,1,1,true,z,false,true,0.0-2.0-0.10-0.98-3.98,0,0,0,90,false,stim,false,2,937.5,0,0,1,69444,task1,512161,false,false,464,image-keyboard-response,32
true,3,2,1,2,true,d,false,true,0.0-2.0-0.11-0.99-3.99,0,0,0,68,false,stim,false,1,1257.7999999821186,0,0,0,69444,task1,514943,false,false,467,image-keyboard-response,33
true,3,0,1,1,false,z,false,false,0.0-2.0-0.11-0.100-3.100,0,0,0,81,false,stim,true,0,1089.699999988079,0,0,2,69444,task1,517559,false,false,470,image-keyboard-response,34
true,3,1,1,1,true,z,false,true,0.0-2.0-0.11-0.101-3.101,0,0,0,90,false,stim,false,2,1058.300000011921,0,0,1,69444,task1,520135,false,false,473,image-keyboard-response,35
true,3,1,1,1,true,z,false,true,0.0-2.0-0.11-0.102-3.102,0,0,0,90,false,stim,false,2,637.4000000059605,0,0,1,69444,task1,522302,false,false,476,image-keyboard-response,36
true,3,2,1,2,true,d,false,true,0.0-2.0-0.11-0.103-3.103,0,0,0,68,false,stim,false,1,687.9000000059605,0,0,0,69444,task1,524510,false,false,479,image-keyboard-response,37
true,3,1,1,1,true,z,false,true,0.0-2.0-0.11-0.104-3.104,0,0,0,90,false,stim,false,0,1497.300000011921,0,0,2,69444,task1,527522,false,false,482,image-keyboard-response,38
true,3,1,1,2,false,d,false,true,0.0-2.0-0.11-0.105-3.105,0,0,0,90,false,stim,true,1,1665.5,0,0,0,69444,task1,530720,false,true,485,image-keyboard-response,39
true,4,1,1,2,false,d,false,false,0.0-2.0-0.11-0.106-3.106,0,0,0,90,true,stim,true,1,959.7999999821186,0,0,2,69444,task1,533199,false,false,488,image-keyboard-response,1
true,4,2,1,2,true,d,false,true,0.0-2.0-0.11-0.107-3.107,0,0,0,68,false,stim,false,1,954.0,0,0,1,69444,task1,535673,false,false,491,image-keyboard-response,2
true,4,2,1,2,true,d,false,true,0.0-2.0-0.12-0.108-3.108,0,0,0,68,false,stim,false,1,1145.1000000238419,0,0,2,69444,task1,538343,false,false,494,image-keyboard-response,3
true,4,0,1,2,false,d,true,false,0.0-2.0-0.12-0.109-3.109,0,0,0,81,false,stim,false,1,992.5,0,0,2,69444,task1,540856,false,false,497,image-keyboard-response,4
true,4,2,1,2,true,d,false,true,0.0-2.0-0.12-0.110-3.110,0,0,0,68,false,stim,false,1,756.7999999821186,0,0,1,69444,task1,543135,false,false,500,image-keyboard-response,5
true,4,2,1,2,true,d,false,true,0.0-2.0-0.12-0.111-3.111,0,0,0,68,false,stim,false,1,1272.199999988079,0,0,2,69444,task1,545926,false,false,503,image-keyboard-response,6
true,4,1,1,1,true,z,false,false,0.0-2.0-0.12-0.112-3.112,0,0,0,90,false,stim,false,2,568.3999999761581,0,0,0,69444,task1,548023,false,true,506,image-keyboard-response,7
true,4,2,1,2,true,d,false,true,0.0-2.0-0.12-0.113-3.113,0,0,0,68,false,stim,false,1,804.2999999821186,0,0,1,69444,task1,550346,false,false,509,image-keyboard-response,8
true,4,2,1,2,true,d,false,false,0.0-2.0-0.12-0.114-3.114,0,0,0,68,false,stim,false,1,953.5999999940395,0,0,1,69444,task1,552815,false,true,512,image-keyboard-response,9
true,4,1,1,1,true,z,false,true,0.0-2.0-0.12-0.115-3.115,0,0,0,90,false,stim,false,2,1665.199999988079,0,0,0,69444,task1,556003,false,false,515,image-keyboard-response,10
true,4,1,1,1,true,z,false,true,0.0-2.0-0.12-0.116-3.116,0,0,0,90,false,stim,false,2,739.0,0,0,0,69444,task1,558270,false,false,518,image-keyboard-response,11
true,4,1,1,1,true,z,false,true,0.0-2.0-0.13-0.117-3.117,0,0,0,90,false,stim,false,2,564.6999999880791,0,0,0,69444,task1,560353,false,false,521,image-keyboard-response,12
true,4,1,1,1,true,z,false,true,0.0-2.0-0.13-0.118-3.118,0,0,0,90,false,stim,false,2,614.0999999940395,0,0,0,69444,task1,562500,false,false,524,image-keyboard-response,13
true,4,0,1,2,false,d,true,true,0.0-2.0-0.13-0.119-3.119,0,0,0,81,false,stim,false,1,591.5,0,0,1,69444,task1,564646,false,true,527,image-keyboard-response,14
true,4,1,1,2,false,d,false,false,0.0-2.0-0.13-0.120-3.120,0,0,0,90,false,stim,true,1,2084.300000011921,0,0,2,69444,task1,568256,false,false,530,image-keyboard-response,15
true,4,0,1,2,false,d,true,false,0.0-2.0-0.13-0.121-3.121,0,0,0,81,false,stim,false,1,1150.2000000178814,0,0,1,69444,task1,570927,false,false,533,image-keyboard-response,16
true,4,1,1,2,false,d,false,false,0.0-2.0-0.13-0.122-3.122,0,0,0,90,false,stim,true,1,1800.4000000059605,0,0,1,69444,task1,574257,false,false,536,image-keyboard-response,17
true,4,1,1,2,false,d,false,false,0.0-2.0-0.13-0.123-3.123,0,0,0,90,false,stim,true,1,1499.4000000059605,0,0,2,69444,task1,577263,false,false,539,image-keyboard-response,18
true,4,1,1,1,true,z,false,true,0.0-2.0-0.13-0.124-3.124,0,0,0,90,false,stim,false,2,2379.5999999940395,0,0,0,69444,task1,581165,false,false,542,image-keyboard-response,19
true,4,2,1,2,true,d,false,true,0.0-2.0-0.13-0.125-3.125,0,0,0,68,false,stim,false,1,1156.0,0,0,2,69444,task1,583846,false,false,545,image-keyboard-response,20
true,4,1,1,1,true,z,false,true,0.0-2.0-0.14-0.126-3.126,0,0,0,90,false,stim,false,2,877.8999999761581,0,0,0,69444,task1,586257,false,false,548,image-keyboard-response,21
true,4,2,1,2,true,d,false,true,0.0-2.0-0.14-0.127-3.127,0,0,0,68,false,stim,false,1,880.5999999940395,0,0,2,69444,task1,588685,false,false,551,image-keyboard-response,22
true,4,2,1,2,true,d,false,true,0.0-2.0-0.14-0.128-3.128,0,0,0,68,false,stim,false,1,902.5,0,0,2,69444,task1,591105,false,false,554,image-keyboard-response,23
true,4,1,1,1,true,z,false,true,0.0-2.0-0.14-0.129-3.129,0,0,0,90,false,stim,false,2,1067.5999999940395,0,0,0,69444,task1,593694,false,false,557,image-keyboard-response,24
true,4,1,1,2,false,d,false,false,0.0-2.0-0.14-0.130-3.130,0,0,0,90,false,stim,true,1,2103.199999988079,0,0,1,69444,task1,597320,false,false,560,image-keyboard-response,25
true,4,2,1,2,true,d,false,true,0.0-2.0-0.14-0.131-3.131,0,0,0,68,false,stim,false,1,696.4000000059605,0,0,1,69444,task1,599530,false,false,563,image-keyboard-response,26
true,4,2,1,2,true,d,false,true,0.0-2.0-0.14-0.132-3.132,0,0,0,68,false,stim,false,1,1013.6999999880791,0,0,1,69444,task1,602068,false,false,566,image-keyboard-response,27
true,4,2,1,2,true,d,false,true,0.0-2.0-0.14-0.133-3.133,0,0,0,68,false,stim,false,1,1126.5999999940395,0,0,2,69444,task1,604715,false,false,569,image-keyboard-response,28
true,4,1,1,1,true,z,false,true,0.0-2.0-0.14-0.134-3.134,0,0,0,90,false,stim,false,2,683.8000000119209,0,0,0,69444,task1,606918,false,false,572,image-keyboard-response,29
true,4,1,1,1,true,z,false,true,0.0-2.0-0.15-0.135-3.135,0,0,0,90,false,stim,false,2,767.2000000178814,0,0,0,69444,task1,609221,false,false,575,image-keyboard-response,30
true,4,2,1,2,true,d,false,true,0.0-2.0-0.15-0.136-3.136,0,0,0,68,false,stim,false,1,642.6000000238419,0,0,2,69444,task1,611396,false,false,578,image-keyboard-response,31
true,4,2,1,2,true,d,false,true,0.0-2.0-0.15-0.137-3.137,0,0,0,68,false,stim,false,1,510.0,0,0,2,69444,task1,613429,false,false,581,image-keyboard-response,32
true,4,2,1,2,true,d,false,true,0.0-2.0-0.15-0.138-3.138,0,0,0,68,false,stim,false,1,1335.7999999821186,0,0,1,69444,task1,616299,false,false,584,image-keyboard-response,33
true,4,2,1,2,true,d,false,true,0.0-2.0-0.15-0.139-3.139,0,0,0,68,false,stim,false,1,712.5999999940395,0,0,1,69444,task1,618519,false,false,587,image-keyboard-response,34
true,4,1,1,1,true,z,false,true,0.0-2.0-0.15-0.140-3.140,0,0,0,90,false,stim,false,2,709.7000000178814,0,0,0,69444,task1,620748,false,false,590,image-keyboard-response,35
true,4,1,1,1,true,z,false,true,0.0-2.0-0.15-0.141-3.141,0,0,0,90,false,stim,false,2,665.2000000178814,0,0,0,69444,task1,622945,false,false,593,image-keyboard-response,36
true,4,2,1,2,true,d,false,true,0.0-2.0-0.15-0.142-3.142,0,0,0,68,false,stim,false,1,788.6999999880791,0,0,2,69444,task1,625260,false,false,596,image-keyboard-response,37
true,4,2,1,2,true,d,false,true,0.0-2.0-0.15-0.143-3.143,0,0,0,68,false,stim,false,1,635.0,0,0,1,69444,task1,627432,false,false,599,image-keyboard-response,38
true,4,1,1,1,true,z,false,true,0.0-2.0-0.16-0.144-3.144,0,0,0,90,false,stim,false,2,593.5999999940395,0,0,0,69444,task1,629560,false,false,602,image-keyboard-response,39
true,4,1,1,1,true,z,false,true,0.0-2.0-0.16-0.145-3.145,0,0,0,90,false,stim,false,2,493.59999999403954,0,0,0,69444,task1,631580,false,false,605,image-keyboard-response,40
true,4,2,1,2,true,d,false,true,0.0-2.0-0.16-0.146-3.146,0,0,0,68,false,stim,false,1,718.5999999940395,0,0,1,69444,task1,633829,false,false,608,image-keyboard-response,41
true,4,2,1,2,true,d,false,true,0.0-2.0-0.16-0.147-3.147,0,0,0,68,false,stim,false,1,546.1000000238419,0,0,2,69444,task1,635900,false,false,611,image-keyboard-response,42
true,5,1,1,2,false,d,false,true,0.0-2.0-0.16-0.148-3.148,0,0,0,90,true,stim,true,1,491.0,0,0,0,69444,task1,637928,false,true,614,image-keyboard-response,1
true,5,2,1,0,false,q,false,false,0.0-2.0-0.16-0.149-3.149,0,0,0,68,false,stim,true,2,718.5999999940395,0,0,2,69444,task1,640166,false,false,617,image-keyboard-response,2
true,5,2,1,1,false,z,false,false,0.0-2.0-0.16-0.150-3.150,0,0,0,68,false,stim,true,2,1023.1999999880791,0,0,1,69444,task1,642715,false,false,620,image-keyboard-response,3
true,5,1,1,0,false,q,true,false,0.0-2.0-0.16-0.151-3.151,0,0,0,90,false,stim,false,2,1304.800000011921,0,0,2,69444,task1,645552,false,false,623,image-keyboard-response,4
true,5,0,1,1,false,z,true,true,0.0-2.0-0.16-0.152-3.152,0,0,0,81,false,stim,false,2,705.1999999880791,0,0,1,69444,task1,647790,false,true,626,image-keyboard-response,5
true,5,1,1,2,false,d,false,false,0.0-2.0-0.17-0.153-3.153,0,0,0,90,false,stim,true,1,772.3999999761581,0,0,0,69444,task1,650096,false,false,629,image-keyboard-response,6
true,5,2,1,2,true,d,false,true,0.0-2.0-0.17-0.154-3.154,0,0,0,68,false,stim,false,1,632.9000000059605,0,0,0,69444,task1,652254,false,false,632,image-keyboard-response,7
true,5,0,1,0,true,q,false,true,0.0-2.0-0.17-0.155-3.155,0,0,0,81,false,stim,false,2,860.0999999940395,0,0,2,69444,task1,654653,false,false,635,image-keyboard-response,8
true,5,0,1,1,false,z,true,false,0.0-2.0-0.17-0.156-3.156,0,0,0,81,false,stim,false,2,655.5,0,0,1,69444,task1,656839,false,false,638,image-keyboard-response,9
true,5,0,1,0,true,q,false,true,0.0-2.0-0.17-0.157-3.157,0,0,0,81,false,stim,false,2,979.1000000238419,0,0,2,69444,task1,659352,false,false,641,image-keyboard-response,10
true,5,1,1,0,false,q,true,false,0.0-2.0-0.17-0.158-3.158,0,0,0,90,false,stim,false,2,644.9000000059605,0,0,2,69444,task1,661538,false,false,644,image-keyboard-response,11
true,5,0,1,1,false,z,true,true,0.0-2.0-0.17-0.159-3.159,0,0,0,81,false,stim,false,2,1238.0999999940395,0,0,1,69444,task1,664286,false,true,647,image-keyboard-response,12
true,5,0,1,1,false,z,true,false,0.0-2.0-0.17-0.160-3.160,0,0,0,81,false,stim,false,2,978.5999999940395,0,0,1,69444,task1,666789,false,false,650,image-keyboard-response,13
true,5,1,1,2,false,d,false,false,0.0-2.0-0.17-0.161-3.161,0,0,0,90,false,stim,true,1,1682.5,0,0,0,69444,task1,670010,false,false,653,image-keyboard-response,14
true,5,2,1,2,true,d,false,true,0.0-2.0-0.18-0.162-3.162,0,0,0,68,false,stim,false,1,506.90000000596046,0,0,0,69444,task1,672039,false,false,656,image-keyboard-response,15
true,5,1,1,1,true,z,false,true,0.0-2.0-0.18-0.163-3.163,0,0,0,90,false,stim,false,2,1556.300000011921,0,0,1,69444,task1,675127,false,false,659,image-keyboard-response,16
true,5,1,1,0,false,q,true,false,0.0-2.0-0.18-0.164-3.164,0,0,0,90,false,stim,false,2,2105.0999999940395,0,0,2,69444,task1,678757,false,false,662,image-keyboard-response,17
true,5,1,1,1,true,z,false,true,0.0-2.0-0.18-0.165-3.165,0,0,0,90,false,stim,false,2,1238.0,0,0,1,69444,task1,681521,false,false,665,image-keyboard-response,18
true,5,2,1,0,false,q,false,false,0.0-2.0-0.18-0.166-3.166,0,0,0,68,false,stim,true,2,1480.4000000059605,0,0,2,69444,task1,684532,false,false,668,image-keyboard-response,19
true,5,2,1,2,true,d,false,true,0.0-2.0-0.18-0.167-3.167,0,0,0,68,false,stim,false,1,1022.7000000178814,0,0,0,69444,task1,687085,false,false,671,image-keyboard-response,20
true,5,1,1,1,true,z,false,true,0.0-2.0-0.18-0.168-3.168,0,0,0,90,false,stim,false,2,551.5,0,0,1,69444,task1,689165,false,false,674,image-keyboard-response,21
true,5,0,1,0,true,q,false,true,0.0-2.0-0.18-0.169-3.169,0,0,0,81,false,stim,false,2,718.3000000119209,0,0,2,69444,task1,691402,false,false,677,image-keyboard-response,22
true,5,2,1,2,true,d,false,true,0.0-2.0-0.18-0.170-3.170,0,0,0,68,false,stim,false,1,1408.0,0,0,0,69444,task1,694331,false,false,680,image-keyboard-response,23
true,5,1,1,1,true,z,false,true,0.0-2.0-0.19-0.171-3.171,0,0,0,90,false,stim,false,2,833.0,0,0,1,69444,task1,696688,false,false,683,image-keyboard-response,24
true,5,1,1,1,true,z,false,true,0.0-2.0-0.19-0.172-3.172,0,0,0,90,false,stim,false,2,753.7999999821186,0,0,1,69444,task1,698953,false,false,686,image-keyboard-response,25
true,5,0,1,0,true,q,false,true,0.0-2.0-0.19-0.173-3.173,0,0,0,81,false,stim,false,2,1184.9000000059605,0,0,2,69444,task1,701654,false,false,689,image-keyboard-response,26
true,5,0,1,0,true,q,false,true,0.0-2.0-0.19-0.174-3.174,0,0,0,81,false,stim,false,2,785.5,0,0,2,69444,task1,703969,false,false,692,image-keyboard-response,27
true,5,1,1,1,true,z,false,true,0.0-2.0-0.19-0.175-3.175,0,0,0,90,false,stim,false,2,781.9000000059605,0,0,1,69444,task1,706281,false,false,695,image-keyboard-response,28
true,5,0,1,0,true,q,false,true,0.0-2.0-0.19-0.176-3.176,0,0,0,81,false,stim,false,2,1134.0999999940395,0,0,2,69444,task1,708953,false,false,698,image-keyboard-response,29
true,5,2,1,2,true,d,false,true,0.0-2.0-0.19-0.177-3.177,0,0,0,68,false,stim,false,1,494.19999998807907,0,0,0,69444,task1,710971,false,false,701,image-keyboard-response,30
true,5,2,1,2,true,d,false,true,0.0-2.0-0.19-0.178-3.178,0,0,0,68,false,stim,false,1,498.40000000596046,0,0,0,69444,task1,713011,false,false,704,image-keyboard-response,31
true,5,2,1,2,true,d,false,true,0.0-2.0-0.19-0.179-3.179,0,0,0,68,false,stim,false,1,462.10000002384186,0,0,0,69444,task1,715007,false,false,707,image-keyboard-response,32
true,5,2,1,2,true,d,false,false,0.0-2.0-0.20-0.180-3.180,0,0,0,68,false,stim,false,1,1055.0,0,0,0,69444,task1,717585,false,true,710,image-keyboard-response,33
true,5,0,1,0,true,q,false,true,0.0-2.0-0.20-0.181-3.181,0,0,0,81,false,stim,false,2,1134.9000000059605,0,0,2,69444,task1,720245,false,false,713,image-keyboard-response,34
true,5,0,1,0,true,q,false,true,0.0-2.0-0.20-0.182-3.182,0,0,0,81,false,stim,false,2,831.4000000059605,0,0,2,69444,task1,722587,false,false,716,image-keyboard-response,35
true,5,1,1,1,true,z,false,true,0.0-2.0-0.20-0.183-3.183,0,0,0,90,false,stim,false,2,2011.300000011921,0,0,1,69444,task1,726109,false,false,719,image-keyboard-response,36
true,5,0,1,0,true,q,false,true,0.0-2.0-0.20-0.184-3.184,0,0,0,81,false,stim,false,2,929.5999999940395,0,0,2,69444,task1,728566,false,false,722,image-keyboard-response,37
true,5,1,1,2,false,d,false,false,0.0-2.0-0.20-0.185-3.185,0,0,0,90,false,stim,true,1,772.5999999940395,0,0,0,69444,task1,730874,false,false,725,image-keyboard-response,38
true,5,1,1,1,true,z,false,true,0.0-2.0-0.20-0.186-3.186,0,0,0,90,false,stim,false,2,1633.300000011921,0,0,1,69444,task1,734043,false,false,728,image-keyboard-response,39
true,5,2,1,2,true,d,false,true,0.0-2.0-0.20-0.187-3.187,0,0,0,68,false,stim,false,1,1364.4000000059605,0,0,0,69444,task1,736929,false,false,731,image-keyboard-response,40
true,5,1,1,1,true,z,false,false,0.0-2.0-0.20-0.188-3.188,0,0,0,90,false,stim,false,2,998.2000000178814,0,0,1,69444,task1,739463,false,true,734,image-keyboard-response,41
true,5,0,1,0,true,q,false,true,0.0-2.0-0.21-0.189-3.189,0,0,0,81,false,stim,false,2,898.1999999880791,0,0,2,69444,task1,741901,false,false,737,image-keyboard-response,42
true,6,2,1,0,false,q,true,false,0.0-2.0-0.21-0.190-3.190,0,0,0,68,true,stim,false,1,503.19999998807907,0,0,1,69444,task1,743921,false,false,740,image-keyboard-response,1
true,6,0,1,0,true,q,false,true,0.0-2.0-0.21-0.191-3.191,0,0,0,81,false,stim,false,1,715.7999999821186,0,0,1,69444,task1,746158,false,false,743,image-keyboard-response,2
true,6,2,1,1,false,z,false,false,0.0-2.0-0.21-0.192-3.192,0,0,0,68,false,stim,true,2,1087.7000000178814,0,0,0,69444,task1,748771,false,false,746,image-keyboard-response,3
true,6,0,1,0,true,q,false,false,0.0-2.0-0.21-0.193-3.193,0,0,0,81,false,stim,false,1,928.8999999761581,0,0,1,69444,task1,751222,false,true,749,image-keyboard-response,4
true,6,1,1,1,true,z,false,true,0.0-2.0-0.21-0.194-3.194,0,0,0,90,false,stim,false,2,1782.199999988079,0,0,0,69444,task1,754518,false,false,752,image-keyboard-response,5
true,6,0,1,2,false,d,false,false,0.0-2.0-0.21-0.195-3.195,0,0,0,81,false,stim,true,0,1240.7000000178814,0,0,2,69444,task1,757282,false,false,755,image-keyboard-response,6
true,6,1,1,1,true,z,false,true,0.0-2.0-0.21-0.196-3.196,0,0,0,90,false,stim,false,2,722.8999999761581,0,0,0,69444,task1,759536,false,false,758,image-keyboard-response,7
true,6,1,1,2,false,d,true,false,0.0-2.0-0.21-0.197-3.197,0,0,0,90,false,stim,false,0,523.1999999880791,0,0,2,69444,task1,761575,false,false,761,image-keyboard-response,8
true,6,1,1,0,false,q,false,false,0.0-2.0-0.22-0.198-3.198,0,0,0,90,false,stim,true,1,970.9000000059605,0,0,1,69444,task1,764072,false,false,764,image-keyboard-response,9
true,6,2,1,2,true,d,false,true,0.0-2.0-0.22-0.199-3.199,0,0,0,68,false,stim,false,0,1036.0999999940395,0,0,2,69444,task1,766625,false,false,767,image-keyboard-response,10
true,6,2,1,2,true,d,false,true,0.0-2.0-0.22-0.200-3.200,0,0,0,68,false,stim,false,0,770.3999999761581,0,0,2,69444,task1,768930,false,false,770,image-keyboard-response,11
true,6,1,1,1,true,z,false,true,0.0-2.0-0.22-0.201-3.201,0,0,0,90,false,stim,false,2,774.1999999880791,0,0,0,69444,task1,771230,false,false,773,image-keyboard-response,12
true,6,0,1,0,true,q,false,true,0.0-2.0-0.22-0.202-3.202,0,0,0,81,false,stim,false,1,1331.5,0,0,1,69444,task1,774083,false,false,776,image-keyboard-response,13
true,6,1,1,1,true,z,false,true,0.0-2.0-0.22-0.203-3.203,0,0,0,90,false,stim,false,2,703.2999999821186,0,0,0,69444,task1,776307,false,false,779,image-keyboard-response,14
true,6,1,1,1,true,z,false,true,0.0-2.0-0.22-0.204-3.204,0,0,0,90,false,stim,false,2,626.0,0,0,0,69444,task1,778462,false,false,782,image-keyboard-response,15
true,6,0,1,0,true,q,false,true,0.0-2.0-0.22-0.205-3.205,0,0,0,81,false,stim,false,1,1512.300000011921,0,0,1,69444,task1,781510,false,false,785,image-keyboard-response,16
true,6,2,1,2,true,d,false,true,0.0-2.0-0.22-0.206-3.206,0,0,0,68,false,stim,false,0,1299.5,0,0,2,69444,task1,784334,false,false,788,image-keyboard-response,17
true,6,1,1,1,true,z,false,true,0.0-2.0-0.23-0.207-3.207,0,0,0,90,false,stim,false,2,1272.7000000178814,0,0,0,69444,task1,787123,false,false,791,image-keyboard-response,18
true,6,2,1,2,true,d,false,true,0.0-2.0-0.23-0.208-3.208,0,0,0,68,false,stim,false,0,1049.4000000059605,0,0,2,69444,task1,789695,false,false,794,image-keyboard-response,19
true,6,0,1,0,true,q,false,true,0.0-2.0-0.23-0.209-3.209,0,0,0,81,false,stim,false,1,775.3000000119209,0,0,1,69444,task1,792003,false,false,797,image-keyboard-response,20
true,6,1,1,1,true,z,false,true,0.0-2.0-0.23-0.210-3.210,0,0,0,90,false,stim,false,2,875.0,0,0,0,69444,task1,794393,false,false,800,image-keyboard-response,21
true,6,1,1,1,true,z,false,true,0.0-2.0-0.23-0.211-3.211,0,0,0,90,false,stim,false,2,651.0999999940395,0,0,0,69444,task1,796569,false,false,803,image-keyboard-response,22
true,6,2,1,2,true,d,false,true,0.0-2.0-0.23-0.212-3.212,0,0,0,68,false,stim,false,0,787.2999999821186,0,0,2,69444,task1,798897,false,false,806,image-keyboard-response,23
true,6,2,1,2,true,d,false,false,0.0-2.0-0.23-0.213-3.213,0,0,0,68,false,stim,false,0,734.8000000119209,0,0,2,69444,task1,801150,false,true,809,image-keyboard-response,24
true,6,0,1,0,true,q,false,true,0.0-2.0-0.23-0.214-3.214,0,0,0,81,false,stim,false,1,1114.7000000178814,0,0,1,69444,task1,803802,false,false,812,image-keyboard-response,25
true,6,0,1,0,true,q,false,true,0.0-2.0-0.23-0.215-3.215,0,0,0,81,false,stim,false,1,723.4000000059605,0,0,1,69444,task1,806039,false,false,815,image-keyboard-response,26
true,6,1,1,2,false,d,true,false,0.0-2.0-0.24-0.216-3.216,0,0,0,90,false,stim,false,0,1695.5,0,0,2,69444,task1,809265,false,false,818,image-keyboard-response,27
true,6,1,1,1,true,z,false,true,0.0-2.0-0.24-0.217-3.217,0,0,0,90,false,stim,false,2,1271.2999999821186,0,0,0,69444,task1,812049,false,false,821,image-keyboard-response,28
true,6,0,1,0,true,q,false,true,0.0-2.0-0.24-0.218-3.218,0,0,0,81,false,stim,false,1,774.4000000059605,0,0,1,69444,task1,814335,false,false,824,image-keyboard-response,29
true,6,1,1,1,true,z,false,true,0.0-2.0-0.24-0.219-3.219,0,0,0,90,false,stim,false,2,726.1999999880791,0,0,0,69444,task1,816597,false,false,827,image-keyboard-response,30
true,6,0,1,2,false,d,false,false,0.0-2.0-0.24-0.220-3.220,0,0,0,81,false,stim,true,0,466.30000001192093,0,0,2,69444,task1,818589,false,false,830,image-keyboard-response,31
true,6,1,1,1,true,z,false,true,0.0-2.0-0.24-0.221-3.221,0,0,0,90,false,stim,false,2,903.0999999940395,0,0,0,69444,task1,821016,false,false,833,image-keyboard-response,32
true,6,0,1,0,true,q,false,true,0.0-2.0-0.24-0.222-3.222,0,0,0,81,false,stim,false,1,1183.2000000178814,0,0,1,69444,task1,823716,false,false,836,image-keyboard-response,33
true,6,1,1,0,false,q,false,false,0.0-2.0-0.24-0.223-3.223,0,0,0,90,false,stim,true,1,530.5999999940395,0,0,1,69444,task1,825776,false,false,839,image-keyboard-response,34
true,6,0,1,2,false,d,false,true,0.0-2.0-0.24-0.224-3.224,0,0,0,81,false,stim,true,0,1879.0999999940395,0,0,2,69444,task1,829176,false,true,842,image-keyboard-response,35
true,6,0,1,1,false,z,true,false,0.0-2.0-0.25-0.225-3.225,0,0,0,81,false,stim,false,2,2518.399999976158,0,0,0,69444,task1,833216,false,false,845,image-keyboard-response,36
true,6,0,1,2,false,d,false,false,0.0-2.0-0.25-0.226-3.226,0,0,0,81,false,stim,true,0,1072.5,0,0,2,69444,task1,835797,false,false,848,image-keyboard-response,37
true,6,2,1,2,true,d,false,true,0.0-2.0-0.25-0.227-3.227,0,0,0,68,false,stim,false,0,1732.2000000178814,0,0,2,69444,task1,839053,false,false,851,image-keyboard-response,38
true,6,1,1,0,false,q,false,false,0.0-2.0-0.25-0.228-3.228,0,0,0,90,false,stim,true,1,2068.699999988079,0,0,1,69444,task1,842634,false,false,854,image-keyboard-response,39
true,6,2,1,0,false,q,true,false,0.0-2.0-0.25-0.229-3.229,0,0,0,68,false,stim,false,1,550.5,0,0,1,69444,task1,844719,false,false,857,image-keyboard-response,40
true,6,0,1,1,false,z,true,false,0.0-2.0-0.25-0.230-3.230,0,0,0,81,false,stim,false,2,2089.4000000059605,0,0,0,69444,task1,848328,false,false,860,image-keyboard-response,41
true,6,1,1,1,true,z,false,true,0.0-2.0-0.25-0.231-3.231,0,0,0,90,false,stim,false,2,995.8999999761581,0,0,0,69444,task1,850842,false,false,863,image-keyboard-response,42
true,6,2,1,2,true,d,false,true,0.0-2.0-0.25-0.232-3.232,0,0,0,68,false,stim,false,0,708.5,0,0,2,69444,task1,853078,false,false,866,image-keyboard-response,43
true,6,2,1,0,false,q,true,false,0.0-2.0-0.25-0.233-3.233,0,0,0,68,false,stim,false,1,1354.9000000059605,0,0,1,69444,task1,855966,false,false,869,image-keyboard-response,44
true,6,1,1,1,true,z,false,true,0.0-2.0-0.26-0.234-3.234,0,0,0,90,false,stim,false,2,1421.7999999821186,0,0,0,69444,task1,858904,false,false,872,image-keyboard-response,45
true,7,0,1,2,false,d,false,false,0.0-2.0-0.26-0.235-3.235,0,0,0,81,true,stim,true,0,1279.4000000059605,0,0,1,69444,task1,861717,false,false,875,image-keyboard-response,1
true,7,1,1,2,false,d,true,false,0.0-2.0-0.26-0.236-3.236,0,0,0,90,false,stim,false,0,729.9000000059605,0,0,1,69444,task1,863985,false,false,878,image-keyboard-response,2
true,7,2,1,1,false,z,false,false,0.0-2.0-0.26-0.237-3.237,0,0,0,68,false,stim,true,2,2064.5,0,0,2,69444,task1,867584,false,false,881,image-keyboard-response,3
true,7,1,1,0,false,q,false,true,0.0-2.0-0.26-0.238-3.238,0,0,0,90,false,stim,true,1,652.0999999940395,0,0,0,69444,task1,869767,false,true,884,image-keyboard-response,4
true,7,0,1,1,false,z,true,false,0.0-2.0-0.26-0.239-3.239,0,0,0,81,false,stim,false,2,721.9000000059605,0,0,2,69444,task1,872033,false,false,887,image-keyboard-response,5
true,7,1,1,0,false,q,false,false,0.0-2.0-0.26-0.240-3.240,0,0,0,90,false,stim,true,1,456.2999999821186,0,0,0,69444,task1,874011,false,false,890,image-keyboard-response,6
true,7,2,1,1,false,z,false,false,0.0-2.0-0.26-0.241-3.241,0,0,0,68,false,stim,true,2,1103.5,0,0,2,69444,task1,876651,false,false,893,image-keyboard-response,7
true,7,1,1,2,false,d,true,false,0.0-2.0-0.26-0.242-3.242,0,0,0,90,false,stim,false,0,1551.5999999940395,0,0,1,69444,task1,879724,false,false,896,image-keyboard-response,8
true,7,1,1,1,true,z,false,false,0.0-2.0-0.27-0.243-3.243,0,0,0,90,false,stim,false,2,2248.0,0,0,2,69444,task1,883498,false,true,899,image-keyboard-response,9
true,7,0,1,0,true,q,false,true,0.0-2.0-0.27-0.244-3.244,0,0,0,81,false,stim,false,1,1508.0,0,0,0,69444,task1,886549,false,false,902,image-keyboard-response,10
true,7,0,1,2,false,d,false,false,0.0-2.0-0.27-0.245-3.245,0,0,0,81,false,stim,true,0,2195.600000023842,0,0,1,69444,task1,890273,false,false,905,image-keyboard-response,11
true,7,1,1,1,true,z,false,true,0.0-2.0-0.27-0.246-3.246,0,0,0,90,false,stim,false,2,1099.7999999821186,0,0,2,69444,task1,892913,false,false,908,image-keyboard-response,12
true,7,0,1,0,true,q,false,true,0.0-2.0-0.27-0.247-3.247,0,0,0,81,false,stim,false,1,921.9000000059605,0,0,0,69444,task1,895348,false,false,911,image-keyboard-response,13
true,7,1,1,1,true,z,false,true,0.0-2.0-0.27-0.248-3.248,0,0,0,90,false,stim,false,2,786.0,0,0,2,69444,task1,897657,false,false,914,image-keyboard-response,14
true,7,2,1,2,true,d,false,true,0.0-2.0-0.27-0.249-3.249,0,0,0,68,false,stim,false,0,1459.7999999821186,0,0,1,69444,task1,900649,false,false,917,image-keyboard-response,15
true,7,2,1,2,true,d,false,true,0.0-2.0-0.27-0.250-3.250,0,0,0,68,false,stim,false,0,704.9000000059605,0,0,1,69444,task1,902871,false,false,920,image-keyboard-response,16
true,7,0,1,0,true,q,false,true,0.0-2.0-0.27-0.251-3.251,0,0,0,81,false,stim,false,1,878.4000000059605,0,0,0,69444,task1,905272,false,false,923,image-keyboard-response,17
true,7,2,1,2,true,d,false,true,0.0-2.0-0.28-0.252-3.252,0,0,0,68,false,stim,false,0,1056.800000011921,0,0,1,69444,task1,907848,false,false,926,image-keyboard-response,18
true,7,1,1,1,true,z,false,true,0.0-2.0-0.28-0.253-3.253,0,0,0,90,false,stim,false,2,628.3000000119209,0,0,2,69444,task1,909988,false,false,929,image-keyboard-response,19
true,7,1,1,1,true,z,false,true,0.0-2.0-0.28-0.254-3.254,0,0,0,90,false,stim,false,2,722.8000000119209,0,0,2,69444,task1,912226,false,false,932,image-keyboard-response,20
true,7,0,1,0,true,q,false,false,0.0-2.0-0.28-0.255-3.255,0,0,0,81,false,stim,false,1,694.0999999940395,0,0,0,69444,task1,914448,false,true,935,image-keyboard-response,21
true,7,2,1,2,true,d,false,true,0.0-2.0-0.28-0.256-3.256,0,0,0,68,false,stim,false,0,2041.7999999821186,0,0,1,69444,task1,918023,false,false,938,image-keyboard-response,22
true,7,1,1,0,false,q,false,false,0.0-2.0-0.28-0.257-3.257,0,0,0,90,false,stim,true,1,1553.800000011921,0,0,0,69444,task1,921114,false,false,941,image-keyboard-response,23
true,7,2,1,2,true,d,false,true,0.0-2.0-0.28-0.258-3.258,0,0,0,68,false,stim,false,0,953.5,0,0,1,69444,task1,923586,false,false,944,image-keyboard-response,24
true,7,2,1,0,false,q,true,false,0.0-2.0-0.28-0.259-3.259,0,0,0,68,false,stim,false,1,1109.6000000238419,0,0,0,69444,task1,926211,false,false,947,image-keyboard-response,25
true,7,1,1,1,true,z,false,true,0.0-2.0-0.28-0.260-3.260,0,0,0,90,false,stim,false,2,1762.0999999940395,0,0,2,69444,task1,929503,false,false,950,image-keyboard-response,26
true,7,2,1,2,true,d,false,true,0.0-2.0-0.29-0.261-3.261,0,0,0,68,false,stim,false,0,1332.699999988079,0,0,1,69444,task1,932371,false,false,953,image-keyboard-response,27
true,7,0,1,0,true,q,false,true,0.0-2.0-0.29-0.262-3.262,0,0,0,81,false,stim,false,1,1668.199999988079,0,0,0,69444,task1,935570,false,false,956,image-keyboard-response,28
true,7,1,1,1,true,z,false,false,0.0-2.0-0.29-0.263-3.263,0,0,0,90,false,stim,false,2,1119.1000000238419,0,0,2,69444,task1,938223,false,true,959,image-keyboard-response,29
true,7,0,1,0,true,q,false,true,0.0-2.0-0.29-0.264-3.264,0,0,0,81,false,stim,false,1,786.7000000178814,0,0,0,69444,task1,940530,false,false,962,image-keyboard-response,30
true,7,2,1,1,false,z,false,false,0.0-2.0-0.29-0.265-3.265,0,0,0,68,false,stim,true,2,1339.5,0,0,2,69444,task1,943410,false,false,965,image-keyboard-response,31
true,7,2,1,2,true,d,false,true,0.0-2.0-0.29-0.266-3.266,0,0,0,68,false,stim,false,0,1491.0,0,0,1,69444,task1,946427,false,false,968,image-keyboard-response,32
true,7,1,1,1,true,z,false,true,0.0-2.0-0.29-0.267-3.267,0,0,0,90,false,stim,false,2,742.8000000119209,0,0,2,69444,task1,948709,false,false,971,image-keyboard-response,33
true,7,2,1,2,true,d,false,false,0.0-2.0-0.29-0.268-3.268,0,0,0,68,false,stim,false,0,1009.0999999940395,0,0,1,69444,task1,951243,false,true,974,image-keyboard-response,34
true,7,0,1,0,true,q,false,true,0.0-2.0-0.29-0.269-3.269,0,0,0,81,false,stim,false,1,761.3000000119209,0,0,0,69444,task1,953539,false,false,977,image-keyboard-response,35
true,7,0,1,0,true,q,false,true,0.0-2.0-0.30-0.270-3.270,0,0,0,81,false,stim,false,1,974.6000000238419,0,0,0,69444,task1,956035,false,false,980,image-keyboard-response,36
true,7,0,1,0,true,q,false,true,0.0-2.0-0.30-0.271-3.271,0,0,0,81,false,stim,false,1,648.2000000178814,0,0,0,69444,task1,958213,false,false,983,image-keyboard-response,37
true,7,1,1,1,true,z,false,true,0.0-2.0-0.30-0.272-3.272,0,0,0,90,false,stim,false,2,999.1000000238419,0,0,2,69444,task1,960730,false,false,986,image-keyboard-response,38
true,7,1,1,2,false,d,true,false,0.0-2.0-0.30-0.273-3.273,0,0,0,90,false,stim,false,0,1581.0999999940395,0,0,1,69444,task1,963838,false,false,989,image-keyboard-response,39
true,7,1,1,1,true,z,false,true,0.0-2.0-0.30-0.274-3.274,0,0,0,90,false,stim,false,2,1155.5,0,0,2,69444,task1,966509,false,false,992,image-keyboard-response,40
true,7,0,1,0,true,q,false,true,0.0-2.0-0.30-0.275-3.275,0,0,0,81,false,stim,false,1,921.0999999940395,0,0,0,69444,task1,968969,false,false,995,image-keyboard-response,41
true,7,1,1,2,false,d,true,false,0.0-2.0-0.30-0.276-3.276,0,0,0,90,false,stim,false,0,1441.5,0,0,1,69444,task1,971939,false,false,998,image-keyboard-response,42
true,7,0,1,1,false,z,true,false,0.0-2.0-0.30-0.277-3.277,0,0,0,81,false,stim,false,2,2026.5999999940395,0,0,2,69444,task1,975496,false,false,1001,image-keyboard-response,43
true,7,2,1,2,true,d,false,true,0.0-2.0-0.30-0.278-3.278,0,0,0,68,false,stim,false,0,1576.5999999940395,0,0,1,69444,task1,978604,false,false,1004,image-keyboard-response,44
true,7,1,1,1,true,z,false,true,0.0-2.0-0.31-0.279-3.279,0,0,0,90,false,stim,false,2,776.5,0,0,2,69444,task1,980902,false,false,1007,image-keyboard-response,45
true,8,2,2,1,false,z,false,true,0.0-2.0-0.31-0.280-3.280,0,0,0,68,true,stim,true,2,487.40000000596046,0,0,1,69444,task1,982923,false,true,1010,image-keyboard-response,1
true,8,0,2,2,false,d,false,true,0.0-2.0-0.31-0.281-3.281,0,0,0,81,false,stim,true,0,998.6000000238419,0,0,0,69444,task1,985451,false,true,1013,image-keyboard-response,2
true,8,0,2,2,false,d,false,false,0.0-2.0-0.31-0.282-3.282,0,0,0,81,false,stim,true,0,701.7999999821186,0,0,0,69444,task1,987671,false,false,1016,image-keyboard-response,3
true,8,1,2,0,false,q,false,false,0.0-2.0-0.31-0.283-3.283,0,0,0,90,false,stim,true,1,644.4000000059605,0,0,2,69444,task1,989839,false,false,1019,image-keyboard-response,4
true,8,2,2,1,false,z,false,false,0.0-2.0-0.31-0.284-3.284,0,0,0,68,false,stim,true,2,407.09999999403954,0,0,1,69444,task1,991778,false,false,1022,image-keyboard-response,5
true,8,1,2,1,true,z,false,true,0.0-2.0-0.31-0.285-3.285,0,0,0,90,false,stim,false,2,681.9000000059605,0,0,1,69444,task1,993994,false,false,1025,image-keyboard-response,6
true,8,0,2,2,false,d,false,false,0.0-2.0-0.31-0.286-3.286,0,0,0,81,false,stim,true,0,788.5999999940395,0,0,0,69444,task1,996311,false,false,1028,image-keyboard-response,7
true,8,1,2,0,false,q,false,true,0.0-2.0-0.31-0.287-3.287,0,0,0,90,false,stim,true,1,730.5999999940395,0,0,2,69444,task1,998568,false,true,1031,image-keyboard-response,8
true,8,1,2,2,false,d,true,true,0.0-2.0-0.32-0.288-3.288,0,0,0,90,false,stim,false,0,180.19999998807907,0,0,0,69444,task1,1000290,false,true,1034,image-keyboard-response,9
true,8,1,2,1,true,z,false,true,0.0-2.0-0.32-0.289-3.289,0,0,0,90,false,stim,false,2,684.1000000238419,0,0,1,69444,task1,1002500,false,false,1037,image-keyboard-response,10
true,8,1,2,0,false,q,false,false,0.0-2.0-0.32-0.290-3.290,0,0,0,90,false,stim,true,1,798.7000000178814,0,0,2,69444,task1,1004807,false,false,1040,image-keyboard-response,11
true,8,2,2,0,false,q,true,false,0.0-2.0-0.32-0.291-3.291,0,0,0,68,false,stim,false,1,1602.199999988079,0,0,2,69444,task1,1007938,false,false,1043,image-keyboard-response,12
true,8,1,2,2,false,d,true,false,0.0-2.0-0.32-0.292-3.292,0,0,0,90,false,stim,false,0,522.8000000119209,0,0,0,69444,task1,1009999,false,false,1046,image-keyboard-response,13
true,8,0,2,2,false,d,false,true,0.0-2.0-0.32-0.293-3.293,0,0,0,81,false,stim,true,0,1254.800000011921,0,0,0,69444,task1,1012786,false,true,1049,image-keyboard-response,14
true,8,0,2,0,true,q,false,true,0.0-2.0-0.32-0.294-3.294,0,0,0,81,false,stim,false,1,976.0,0,0,2,69444,task1,1015291,false,false,1052,image-keyboard-response,15
true,8,2,2,1,false,z,false,false,0.0-2.0-0.32-0.295-3.295,0,0,0,68,false,stim,true,2,1235.7999999821186,0,0,1,69444,task1,1018055,false,false,1055,image-keyboard-response,16
true,8,0,2,1,false,z,true,false,0.0-2.0-0.32-0.296-3.296,0,0,0,81,false,stim,false,2,767.1999999880791,0,0,1,69444,task1,1020341,false,false,1058,image-keyboard-response,17
true,8,0,2,2,false,d,false,false,0.0-2.0-0.33-0.297-3.297,0,0,0,81,false,stim,true,0,808.6999999880791,0,0,0,69444,task1,1022686,false,false,1061,image-keyboard-response,18
true,8,0,2,0,true,q,false,true,0.0-2.0-0.33-0.298-3.298,0,0,0,81,false,stim,false,1,1829.0999999940395,0,0,2,69444,task1,1026034,false,false,1064,image-keyboard-response,19
true,8,0,2,0,true,q,false,true,0.0-2.0-0.33-0.299-3.299,0,0,0,81,false,stim,false,1,879.1000000238419,0,0,2,69444,task1,1028448,false,false,1067,image-keyboard-response,20
true,8,1,2,1,true,z,false,true,0.0-2.0-0.33-0.300-3.300,0,0,0,90,false,stim,false,2,1074.3999999761581,0,0,1,69444,task1,1031051,false,false,1070,image-keyboard-response,21
true,8,1,2,2,false,d,true,false,0.0-2.0-0.33-0.301-3.301,0,0,0,90,false,stim,false,0,1454.0999999940395,0,0,0,69444,task1,1034036,false,false,1073,image-keyboard-response,22
true,8,0,2,0,true,q,false,true,0.0-2.0-0.33-0.302-3.302,0,0,0,81,false,stim,false,1,1206.0999999940395,0,0,2,69444,task1,1036758,false,false,1076,image-keyboard-response,23
true,8,1,2,1,true,z,false,true,0.0-2.0-0.33-0.303-3.303,0,0,0,90,false,stim,false,2,509.5,0,0,1,69444,task1,1038794,false,false,1079,image-keyboard-response,24
true,8,1,2,1,true,z,false,false,0.0-2.0-0.33-0.304-3.304,0,0,0,90,false,stim,false,2,887.6999999880791,0,0,1,69444,task1,1041207,false,true,1082,image-keyboard-response,25
true,8,2,2,2,true,d,false,true,0.0-2.0-0.33-0.305-3.305,0,0,0,68,false,stim,false,0,1375.800000011921,0,0,0,69444,task1,1044124,false,false,1085,image-keyboard-response,26
true,8,1,2,1,true,z,false,true,0.0-2.0-0.34-0.306-3.306,0,0,0,90,false,stim,false,2,1121.800000011921,0,0,1,69444,task1,1046783,false,false,1088,image-keyboard-response,27
true,8,2,2,0,false,q,true,false,0.0-2.0-0.34-0.307-3.307,0,0,0,68,false,stim,false,1,1246.4000000059605,0,0,2,69444,task1,1049550,false,false,1091,image-keyboard-response,28
true,8,1,2,2,false,d,true,false,0.0-2.0-0.34-0.308-3.308,0,0,0,90,false,stim,false,0,1989.4000000059605,0,0,0,69444,task1,1053082,false,false,1094,image-keyboard-response,29
true,8,0,2,1,false,z,true,true,0.0-2.0-0.34-0.309-3.309,0,0,0,81,false,stim,false,2,981.2999999821186,0,0,1,69444,task1,1055585,false,true,1097,image-keyboard-response,30
true,8,1,2,0,false,q,false,false,0.0-2.0-0.34-0.310-3.310,0,0,0,90,false,stim,true,1,1495.9000000059605,0,0,2,69444,task1,1058607,false,false,1100,image-keyboard-response,31
true,8,2,2,1,false,z,false,false,0.0-2.0-0.34-0.311-3.311,0,0,0,68,false,stim,true,2,643.5999999940395,0,0,1,69444,task1,1060771,false,false,1103,image-keyboard-response,32
true,8,0,2,2,false,d,false,false,0.0-2.0-0.34-0.312-3.312,0,0,0,81,false,stim,true,0,841.0999999940395,0,0,0,69444,task1,1063140,false,false,1106,image-keyboard-response,33
true,8,1,2,0,false,q,false,false,0.0-2.0-0.34-0.313-3.313,0,0,0,90,false,stim,true,1,900.0999999940395,0,0,2,69444,task1,1065559,false,false,1109,image-keyboard-response,34
true,8,1,2,2,false,d,true,false,0.0-2.0-0.34-0.314-3.314,0,0,0,90,false,stim,false,0,218.10000002384186,0,0,0,69444,task1,1067304,false,false,1112,image-keyboard-response,35
true,8,0,2,2,false,d,false,false,0.0-2.0-0.35-0.315-3.315,0,0,0,81,false,stim,true,0,527.6999999880791,0,0,0,69444,task1,1069370,false,false,1115,image-keyboard-response,36
true,8,2,2,0,false,q,true,true,0.0-2.0-0.35-0.316-3.316,0,0,0,68,false,stim,false,1,1694.7999999821186,0,0,2,69444,task1,1072594,false,true,1118,image-keyboard-response,37
true,8,1,2,1,true,z,false,true,0.0-2.0-0.35-0.317-3.317,0,0,0,90,false,stim,false,2,1327.5,0,0,1,69444,task1,1075454,false,false,1121,image-keyboard-response,38
true,8,2,2,0,false,q,true,false,0.0-2.0-0.35-0.318-3.318,0,0,0,68,false,stim,false,1,518.5999999940395,0,0,2,69444,task1,1077507,false,false,1124,image-keyboard-response,39
true,8,1,2,1,true,z,false,true,0.0-2.0-0.35-0.319-3.319,0,0,0,90,false,stim,false,2,884.0999999940395,0,0,1,69444,task1,1079900,false,false,1127,image-keyboard-response,40
true,8,1,2,1,true,z,false,true,0.0-2.0-0.35-0.320-3.320,0,0,0,90,false,stim,false,2,903.9000000059605,0,0,1,69444,task1,1082331,false,false,1130,image-keyboard-response,41
true,8,2,2,2,true,d,false,true,0.0-2.0-0.35-0.321-3.321,0,0,0,68,false,stim,false,0,1638.800000011921,0,0,0,69444,task1,1085499,false,false,1133,image-keyboard-response,42
true,8,0,2,0,true,q,false,true,0.0-2.0-0.35-0.322-3.322,0,0,0,81,false,stim,false,1,876.3000000119209,0,0,2,69444,task1,1087902,false,false,1136,image-keyboard-response,43
true,8,2,2,2,true,d,false,true,0.0-2.0-0.35-0.323-3.323,0,0,0,68,false,stim,false,0,679.0999999940395,0,0,0,69444,task1,1090109,false,false,1139,image-keyboard-response,44
true,9,0,2,2,false,d,false,false,0.0-2.0-0.36-0.324-3.324,0,0,0,81,true,stim,true,0,481.7000000178814,0,0,2,69444,task1,1092120,false,false,1142,image-keyboard-response,1
true,9,1,2,2,false,d,false,false,0.0-2.0-0.36-0.325-3.325,0,0,0,90,false,stim,true,1,826.2000000178814,0,0,1,69444,task1,1094478,false,false,1145,image-keyboard-response,2
true,9,2,2,2,true,d,false,true,0.0-2.0-0.36-0.326-3.326,0,0,0,68,false,stim,false,1,999.2000000178814,0,0,1,69444,task1,1097001,false,false,1148,image-keyboard-response,3
true,9,2,2,2,true,d,false,true,0.0-2.0-0.36-0.327-3.327,0,0,0,68,false,stim,false,0,937.8000000119209,0,0,2,69444,task1,1099465,false,false,1151,image-keyboard-response,4
true,9,2,2,2,true,d,false,true,0.0-2.0-0.36-0.328-3.328,0,0,0,68,false,stim,false,1,745.9000000059605,0,0,1,69444,task1,1101740,false,false,1154,image-keyboard-response,5
true,9,2,2,2,true,d,false,true,0.0-2.0-0.36-0.329-3.329,0,0,0,68,false,stim,false,0,1053.199999988079,0,0,2,69444,task1,1104307,false,false,1157,image-keyboard-response,6
true,9,2,2,1,false,z,false,false,0.0-2.0-0.36-0.330-3.330,0,0,0,68,false,stim,true,2,1262.7999999821186,0,0,0,69444,task1,1107097,false,false,1160,image-keyboard-response,7
true,9,0,2,1,false,z,true,false,0.0-2.0-0.36-0.331-3.331,0,0,0,81,false,stim,false,2,1597.9000000059605,0,0,0,69444,task1,1110215,false,false,1163,image-keyboard-response,8
true,9,2,2,1,false,z,false,false,0.0-2.0-0.36-0.332-3.332,0,0,0,68,false,stim,true,2,803.8000000119209,0,0,0,69444,task1,1112556,false,false,1166,image-keyboard-response,9
true,9,0,2,2,false,d,true,false,0.0-2.0-0.37-0.333-3.333,0,0,0,81,false,stim,false,1,315.69999998807907,0,0,1,69444,task1,1114398,false,false,1169,image-keyboard-response,10
true,9,1,2,1,true,z,false,true,0.0-2.0-0.37-0.334-3.334,0,0,0,90,false,stim,false,2,1309.0,0,0,0,69444,task1,1117238,false,false,1172,image-keyboard-response,11
true,9,2,2,2,true,d,false,true,0.0-2.0-0.37-0.335-3.335,0,0,0,68,false,stim,false,0,1455.4000000059605,0,0,2,69444,task1,1120226,false,false,1175,image-keyboard-response,12
true,9,1,2,2,false,d,false,false,0.0-2.0-0.37-0.336-3.336,0,0,0,90,false,stim,true,1,1491.0999999940395,0,0,1,69444,task1,1123237,false,false,1178,image-keyboard-response,13
true,9,0,2,2,false,d,true,false,0.0-2.0-0.37-0.337-3.337,0,0,0,81,false,stim,false,1,679.0,0,0,1,69444,task1,1125457,false,false,1181,image-keyboard-response,14
true,9,2,2,2,true,d,false,true,0.0-2.0-0.37-0.338-3.338,0,0,0,68,false,stim,false,0,1083.699999988079,0,0,2,69444,task1,1128072,false,false,1184,image-keyboard-response,15
true,9,1,2,1,true,z,false,true,0.0-2.0-0.37-0.339-3.339,0,0,0,90,false,stim,false,2,670.9000000059605,0,0,0,69444,task1,1130271,false,false,1187,image-keyboard-response,16
true,9,2,2,2,true,d,false,true,0.0-2.0-0.37-0.340-3.340,0,0,0,68,false,stim,false,0,1070.300000011921,0,0,2,69444,task1,1132875,false,false,1190,image-keyboard-response,17
true,9,1,2,1,true,z,false,false,0.0-2.0-0.37-0.341-3.341,0,0,0,90,false,stim,false,2,1568.0999999940395,0,0,0,69444,task1,1135951,false,true,1193,image-keyboard-response,18
true,9,2,2,2,true,d,false,true,0.0-2.0-0.38-0.342-3.342,0,0,0,68,false,stim,false,0,706.3999999761581,0,0,2,69444,task1,1138190,false,false,1196,image-keyboard-response,19
true,9,0,2,1,false,z,true,false,0.0-2.0-0.38-0.343-3.343,0,0,0,81,false,stim,false,2,1305.4000000059605,0,0,0,69444,task1,1141037,false,false,1199,image-keyboard-response,20
true,9,2,2,2,true,d,false,false,0.0-2.0-0.38-0.344-3.344,0,0,0,68,false,stim,false,0,735.6999999880791,0,0,2,69444,task1,1143312,false,true,1202,image-keyboard-response,21
true,9,2,2,1,false,z,false,false,0.0-2.0-0.38-0.345-3.345,0,0,0,68,false,stim,true,2,502.0,0,0,0,69444,task1,1145353,false,false,1205,image-keyboard-response,22
true,9,2,2,2,true,d,false,false,0.0-2.0-0.38-0.346-3.346,0,0,0,68,false,stim,false,1,1879.199999988079,0,0,1,69444,task1,1148765,false,true,1208,image-keyboard-response,23
true,9,1,2,2,false,d,false,false,0.0-2.0-0.38-0.347-3.347,0,0,0,90,false,stim,true,1,828.5,0,0,1,69444,task1,1151129,false,false,1211,image-keyboard-response,24
true,9,1,2,2,false,d,true,true,0.0-2.0-0.38-0.348-3.348,0,0,0,90,false,stim,false,0,1320.0,0,0,2,69444,task1,1153976,false,true,1214,image-keyboard-response,25
true,9,0,2,2,false,d,true,false,0.0-2.0-0.38-0.349-3.349,0,0,0,81,false,stim,false,1,1068.8999999761581,0,0,1,69444,task1,1156558,false,false,1217,image-keyboard-response,26
true,9,1,2,1,true,z,false,true,0.0-2.0-0.38-0.350-3.350,0,0,0,90,false,stim,false,2,1290.5999999940395,0,0,0,69444,task1,1159365,false,false,1220,image-keyboard-response,27
true,9,1,2,2,false,d,true,true,0.0-2.0-0.39-0.351-3.351,0,0,0,90,false,stim,false,0,397.2999999821186,0,0,2,69444,task1,1161281,false,true,1223,image-keyboard-response,28
true,9,1,2,1,true,z,false,true,0.0-2.0-0.39-0.352-3.352,0,0,0,90,false,stim,false,2,420.59999999403954,0,0,0,69444,task1,1163231,false,false,1226,image-keyboard-response,29
true,9,1,2,2,false,d,true,false,0.0-2.0-0.39-0.353-3.353,0,0,0,90,false,stim,false,0,532.5999999940395,0,0,2,69444,task1,1165300,false,false,1229,image-keyboard-response,30
true,9,0,2,2,false,d,true,false,0.0-2.0-0.39-0.354-3.354,0,0,0,81,false,stim,false,1,2302.2000000178814,0,0,1,69444,task1,1169143,false,false,1232,image-keyboard-response,31
true,9,1,2,2,false,d,true,false,0.0-2.0-0.39-0.355-3.355,0,0,0,90,false,stim,false,0,753.0,0,0,2,69444,task1,1171413,false,false,1235,image-keyboard-response,32
true,9,2,2,2,true,d,false,true,0.0-2.0-0.39-0.356-3.356,0,0,0,68,false,stim,false,1,977.3999999761581,0,0,1,69444,task1,1173927,false,false,1238,image-keyboard-response,33
true,9,2,2,2,true,d,false,true,0.0-2.0-0.39-0.357-3.357,0,0,0,68,false,stim,false,1,821.2999999821186,0,0,1,69444,task1,1176279,false,false,1241,image-keyboard-response,34
true,9,1,2,1,true,z,false,true,0.0-2.0-0.39-0.358-3.358,0,0,0,90,false,stim,false,2,667.9000000059605,0,0,0,69444,task1,1178457,false,false,1244,image-keyboard-response,35
true,9,1,2,1,true,z,false,true,0.0-2.0-0.39-0.359-3.359,0,0,0,90,false,stim,false,2,859.7000000178814,0,0,0,69444,task1,1180852,false,false,1247,image-keyboard-response,36
true,9,2,2,2,true,d,false,true,0.0-2.0-0.40-0.360-3.360,0,0,0,68,false,stim,false,0,1032.5999999940395,0,0,2,69444,task1,1183425,false,false,1250,image-keyboard-response,37
true,9,0,2,2,false,d,true,false,0.0-2.0-0.40-0.361-3.361,0,0,0,81,false,stim,false,1,1670.4000000059605,0,0,1,69444,task1,1186637,false,false,1253,image-keyboard-response,38
true,9,2,2,2,true,d,false,true,0.0-2.0-0.40-0.362-3.362,0,0,0,68,false,stim,false,0,787.0,0,0,2,69444,task1,1188955,false,false,1256,image-keyboard-response,39
true,9,2,2,2,true,d,false,true,0.0-2.0-0.40-0.363-3.363,0,0,0,68,false,stim,false,0,939.4000000059605,0,0,2,69444,task1,1191413,false,false,1259,image-keyboard-response,40
true,9,1,2,1,true,z,false,true,0.0-2.0-0.40-0.364-3.364,0,0,0,90,false,stim,false,2,949.0,0,0,0,69444,task1,1193879,false,false,1262,image-keyboard-response,41
true,9,1,2,2,false,d,false,false,0.0-2.0-0.40-0.365-3.365,0,0,0,90,false,stim,true,1,1632.699999988079,0,0,1,69444,task1,1197041,false,false,1265,image-keyboard-response,42
true,9,1,2,1,true,z,false,true,0.0-2.0-0.40-0.366-3.366,0,0,0,90,false,stim,false,2,1048.9000000059605,0,0,0,69444,task1,1199622,false,false,1268,image-keyboard-response,43
true,9,1,2,1,true,z,false,true,0.0-2.0-0.40-0.367-3.367,0,0,0,90,false,stim,false,2,584.5,0,0,0,69444,task1,1201734,false,false,1271,image-keyboard-response,44
true,10,2,2,1,false,z,false,false,0.0-2.0-0.40-0.368-3.368,0,0,0,68,true,stim,true,2,1575.9000000059605,0,0,1,69444,task1,1204833,false,false,1274,image-keyboard-response,1
true,10,2,2,0,false,q,false,false,0.0-2.0-0.41-0.369-3.369,0,0,0,68,false,stim,true,2,1792.0,0,0,2,69444,task1,1208146,false,false,1277,image-keyboard-response,2
true,10,1,2,0,false,q,true,true,0.0-2.0-0.41-0.370-3.370,0,0,0,90,false,stim,false,2,923.0999999940395,0,0,2,69444,task1,1210594,false,true,1280,image-keyboard-response,3
true,10,2,2,2,true,d,false,true,0.0-2.0-0.41-0.371-3.371,0,0,0,68,false,stim,false,1,609.5999999940395,0,0,0,69444,task1,1212745,false,false,1283,image-keyboard-response,4
true,10,0,2,1,false,z,true,false,0.0-2.0-0.41-0.372-3.372,0,0,0,81,false,stim,false,2,2286.100000023842,0,0,1,69444,task1,1216548,false,false,1286,image-keyboard-response,5
true,10,1,2,2,false,d,false,false,0.0-2.0-0.41-0.373-3.373,0,0,0,90,false,stim,true,1,1624.800000011921,0,0,0,69444,task1,1219696,false,false,1289,image-keyboard-response,6
true,10,2,2,0,false,q,false,false,0.0-2.0-0.41-0.374-3.374,0,0,0,68,false,stim,true,2,1059.199999988079,0,0,2,69444,task1,1222272,false,false,1292,image-keyboard-response,7
true,10,2,2,2,true,d,false,true,0.0-2.0-0.41-0.375-3.375,0,0,0,68,false,stim,false,1,1698.2000000178814,0,0,0,69444,task1,1225506,false,false,1295,image-keyboard-response,8
true,10,2,2,1,false,z,false,false,0.0-2.0-0.41-0.376-3.376,0,0,0,68,false,stim,true,2,1449.2999999821186,0,0,1,69444,task1,1228490,false,false,1298,image-keyboard-response,9
true,10,1,2,1,true,z,false,true,0.0-2.0-0.41-0.377-3.377,0,0,0,90,false,stim,false,2,806.8000000119209,0,0,1,69444,task1,1230818,false,false,1301,image-keyboard-response,10
true,10,1,2,1,true,z,false,true,0.0-2.0-0.42-0.378-3.378,0,0,0,90,false,stim,false,2,738.5999999940395,0,0,1,69444,task1,1233072,false,false,1304,image-keyboard-response,11
true,10,2,2,2,true,d,false,true,0.0-2.0-0.42-0.379-3.379,0,0,0,68,false,stim,false,1,750.0999999940395,0,0,0,69444,task1,1235363,false,false,1307,image-keyboard-response,12
true,10,1,2,0,false,q,true,false,0.0-2.0-0.42-0.380-3.380,0,0,0,90,false,stim,false,2,776.0999999940395,0,0,2,69444,task1,1237675,false,false,1310,image-keyboard-response,13
true,10,1,2,1,true,z,false,true,0.0-2.0-0.42-0.381-3.381,0,0,0,90,false,stim,false,2,1835.0999999940395,0,0,1,69444,task1,1241036,false,false,1313,image-keyboard-response,14
true,10,1,2,2,false,d,false,false,0.0-2.0-0.42-0.382-3.382,0,0,0,90,false,stim,true,1,1205.3999999761581,0,0,0,69444,task1,1243761,false,false,1316,image-keyboard-response,15
true,10,0,2,0,true,q,false,true,0.0-2.0-0.42-0.383-3.383,0,0,0,81,false,stim,false,2,1277.699999988079,0,0,2,69444,task1,1246574,false,false,1319,image-keyboard-response,16
true,10,2,2,2,true,d,false,true,0.0-2.0-0.42-0.384-3.384,0,0,0,68,false,stim,false,1,751.9000000059605,0,0,0,69444,task1,1248854,false,false,1322,image-keyboard-response,17
true,10,1,2,1,true,z,false,true,0.0-2.0-0.42-0.385-3.385,0,0,0,90,false,stim,false,2,438.80000001192093,0,0,1,69444,task1,1250806,false,false,1325,image-keyboard-response,18
true,10,0,2,0,true,q,false,true,0.0-2.0-0.42-0.386-3.386,0,0,0,81,false,stim,false,2,782.7999999821186,0,0,2,69444,task1,1253103,false,false,1328,image-keyboard-response,19
true,10,1,2,1,true,z,false,true,0.0-2.0-0.43-0.387-3.387,0,0,0,90,false,stim,false,2,1096.0,0,0,1,69444,task1,1255725,false,false,1331,image-keyboard-response,20
true,10,2,2,2,true,d,false,false,0.0-2.0-0.43-0.388-3.388,0,0,0,68,false,stim,false,1,786.8000000119209,0,0,0,69444,task1,1258048,false,true,1334,image-keyboard-response,21
true,10,1,2,2,false,d,false,false,0.0-2.0-0.43-0.389-3.389,0,0,0,90,false,stim,true,1,942.6999999880791,0,0,0,69444,task1,1260526,false,false,1337,image-keyboard-response,22
true,10,1,2,1,true,z,false,true,0.0-2.0-0.43-0.390-3.390,0,0,0,90,false,stim,false,2,762.7999999821186,0,0,1,69444,task1,1262815,false,false,1340,image-keyboard-response,23
true,10,0,2,0,true,q,false,true,0.0-2.0-0.43-0.391-3.391,0,0,0,81,false,stim,false,2,1075.9000000059605,0,0,2,69444,task1,1265414,false,false,1343,image-keyboard-response,24
true,10,0,2,0,true,q,false,true,0.0-2.0-0.43-0.392-3.392,0,0,0,81,false,stim,false,2,692.6000000238419,0,0,2,69444,task1,1267638,false,false,1346,image-keyboard-response,25
true,10,0,2,0,true,q,false,false,0.0-2.0-0.43-0.393-3.393,0,0,0,81,false,stim,false,2,698.2999999821186,0,0,2,69444,task1,1269871,false,true,1349,image-keyboard-response,26
true,10,0,2,2,false,d,true,false,0.0-2.0-0.43-0.394-3.394,0,0,0,81,false,stim,false,1,791.5,0,0,0,69444,task1,1272177,false,false,1352,image-keyboard-response,27
true,10,2,2,1,false,z,false,true,0.0-2.0-0.43-0.395-3.395,0,0,0,68,false,stim,true,2,1035.4000000059605,0,0,1,69444,task1,1274734,false,true,1355,image-keyboard-response,28
true,10,0,2,2,false,d,true,false,0.0-2.0-0.44-0.396-3.396,0,0,0,81,false,stim,false,1,1078.7999999821186,0,0,0,69444,task1,1277354,false,false,1358,image-keyboard-response,29
true,10,1,2,2,false,d,false,true,0.0-2.0-0.44-0.397-3.397,0,0,0,90,false,stim,true,1,409.2000000178814,0,0,0,69444,task1,1279292,false,true,1361,image-keyboard-response,30
true,10,1,2,2,false,d,false,true,0.0-2.0-0.44-0.398-3.398,0,0,0,90,false,stim,true,1,690.8000000119209,0,0,0,69444,task1,1281500,false,true,1364,image-keyboard-response,31
true,10,2,2,1,false,z,false,false,0.0-2.0-0.44-0.399-3.399,0,0,0,68,false,stim,true,2,1689.0999999940395,0,0,1,69444,task1,1284724,false,false,1367,image-keyboard-response,32
true,10,0,2,1,false,z,true,false,0.0-2.0-0.44-0.400-3.400,0,0,0,81,false,stim,false,2,1998.300000011921,0,0,1,69444,task1,1288246,false,false,1370,image-keyboard-response,33
true,10,1,2,1,true,z,false,true,0.0-2.0-0.44-0.401-3.401,0,0,0,90,false,stim,false,2,516.0999999940395,0,0,1,69444,task1,1290291,false,false,1373,image-keyboard-response,34
true,10,1,2,0,false,q,true,false,0.0-2.0-0.44-0.402-3.402,0,0,0,90,false,stim,false,2,824.9000000059605,0,0,2,69444,task1,1292646,false,false,1376,image-keyboard-response,35
true,10,0,2,0,true,q,false,true,0.0-2.0-0.44-0.403-3.403,0,0,0,81,false,stim,false,2,409.40000000596046,0,0,2,69444,task1,1294583,false,false,1379,image-keyboard-response,36
true,10,0,2,0,true,q,false,false,0.0-2.0-0.44-0.404-3.404,0,0,0,81,false,stim,false,2,438.80000001192093,0,0,2,69444,task1,1296550,false,true,1382,image-keyboard-response,37
true,10,1,2,2,false,d,false,false,0.0-2.0-0.45-0.405-3.405,0,0,0,90,false,stim,true,1,1476.0999999940395,0,0,0,69444,task1,1299561,false,false,1385,image-keyboard-response,38
true,10,2,2,2,true,d,false,false,0.0-2.0-0.45-0.406-3.406,0,0,0,68,false,stim,false,1,1490.0999999940395,0,0,0,69444,task1,1302587,false,true,1388,image-keyboard-response,39
true,10,1,2,1,true,z,false,true,0.0-2.0-0.45-0.407-3.407,0,0,0,90,false,stim,false,2,975.5,0,0,1,69444,task1,1305087,false,false,1391,image-keyboard-response,40
true,10,1,2,0,false,q,true,false,0.0-2.0-0.45-0.408-3.408,0,0,0,90,false,stim,false,2,1555.8999999761581,0,0,2,69444,task1,1308170,false,false,1394,image-keyboard-response,41
true,10,1,2,0,false,q,true,false,0.0-2.0-0.45-0.409-3.409,0,0,0,90,false,stim,false,2,547.5,0,0,2,69444,task1,1310256,false,false,1397,image-keyboard-response,42
true,10,1,2,1,true,z,false,true,0.0-2.0-0.45-0.410-3.410,0,0,0,90,false,stim,false,2,1071.2000000178814,0,0,1,69444,task1,1312850,false,false,1400,image-keyboard-response,43
true,11,1,2,2,false,d,false,false,0.0-2.0-0.45-0.411-3.411,0,0,0,90,true,stim,true,1,565.6999999880791,0,0,1,69444,task1,1314945,false,false,1403,image-keyboard-response,1
true,11,0,2,1,false,z,true,false,0.0-2.0-0.45-0.412-3.412,0,0,0,81,false,stim,false,2,1525.9000000059605,0,0,0,69444,task1,1317982,false,false,1406,image-keyboard-response,2
true,11,0,2,2,false,d,false,false,0.0-2.0-0.45-0.413-3.413,0,0,0,81,false,stim,true,0,1380.7000000178814,0,0,2,69444,task1,1320888,false,false,1409,image-keyboard-response,3
true,11,1,2,1,true,z,false,true,0.0-2.0-0.46-0.414-3.414,0,0,0,90,false,stim,false,2,1752.199999988079,0,0,0,69444,task1,1324163,false,false,1412,image-keyboard-response,4
true,11,1,2,2,false,d,false,false,0.0-2.0-0.46-0.415-3.415,0,0,0,90,false,stim,true,1,765.1999999880791,0,0,1,69444,task1,1326445,false,false,1415,image-keyboard-response,5
true,11,1,2,2,false,d,true,false,0.0-2.0-0.46-0.416-3.416,0,0,0,90,false,stim,false,0,676.5999999940395,0,0,2,69444,task1,1328662,false,false,1418,image-keyboard-response,6
true,11,2,2,2,true,d,false,true,0.0-2.0-0.46-0.417-3.417,0,0,0,68,false,stim,false,1,744.0999999940395,0,0,1,69444,task1,1330941,false,false,1421,image-keyboard-response,7
true,11,1,2,1,true,z,false,true,0.0-2.0-0.46-0.418-3.418,0,0,0,90,false,stim,false,2,1391.5,0,0,0,69444,task1,1333858,false,false,1424,image-keyboard-response,8
true,11,2,2,2,true,d,false,true,0.0-2.0-0.46-0.419-3.419,0,0,0,68,false,stim,false,1,1500.199999988079,0,0,1,69444,task1,1336896,false,false,1427,image-keyboard-response,9
true,11,2,2,2,true,d,false,true,0.0-2.0-0.46-0.420-3.420,0,0,0,68,false,stim,false,0,1270.0,0,0,2,69444,task1,1339699,false,false,1430,image-keyboard-response,10
true,11,2,2,2,true,d,false,true,0.0-2.0-0.46-0.421-3.421,0,0,0,68,false,stim,false,0,558.4000000059605,0,0,2,69444,task1,1341798,false,false,1433,image-keyboard-response,11
true,11,1,2,1,true,z,false,true,0.0-2.0-0.46-0.422-3.422,0,0,0,90,false,stim,false,2,1051.0,0,0,0,69444,task1,1344360,false,false,1436,image-keyboard-response,12
true,11,2,2,2,true,d,false,true,0.0-2.0-0.47-0.423-3.423,0,0,0,68,false,stim,false,1,944.6999999880791,0,0,1,69444,task1,1346829,false,false,1439,image-keyboard-response,13
true,11,1,2,1,true,z,false,false,0.0-2.0-0.47-0.424-3.424,0,0,0,90,false,stim,false,2,1098.0,0,0,0,69444,task1,1349450,false,true,1442,image-keyboard-response,14
true,11,1,2,2,false,d,false,false,0.0-2.0-0.47-0.425-3.425,0,0,0,90,false,stim,true,1,1369.699999988079,0,0,1,69444,task1,1352352,false,false,1445,image-keyboard-response,15
true,11,2,2,1,false,z,false,false,0.0-2.0-0.47-0.426-3.426,0,0,0,68,false,stim,true,2,1691.5,0,0,0,69444,task1,1355558,false,false,1448,image-keyboard-response,16
true,11,2,2,2,true,d,false,true,0.0-2.0-0.47-0.427-3.427,0,0,0,68,false,stim,false,0,1100.9000000059605,0,0,2,69444,task1,1358184,false,false,1451,image-keyboard-response,17
true,11,2,2,2,true,d,false,true,0.0-2.0-0.47-0.428-3.428,0,0,0,68,false,stim,false,0,461.0,0,0,2,69444,task1,1360176,false,false,1454,image-keyboard-response,18
true,11,2,2,2,true,d,false,true,0.0-2.0-0.47-0.429-3.429,0,0,0,68,false,stim,false,0,432.80000001192093,0,0,2,69444,task1,1362131,false,false,1457,image-keyboard-response,19
true,11,2,2,2,true,d,false,true,0.0-2.0-0.47-0.430-3.430,0,0,0,68,false,stim,false,1,729.7000000178814,0,0,1,69444,task1,1364378,false,false,1460,image-keyboard-response,20
true,11,1,2,1,true,z,false,true,0.0-2.0-0.47-0.431-3.431,0,0,0,90,false,stim,false,2,620.8000000119209,0,0,0,69444,task1,1366523,false,false,1463,image-keyboard-response,21
true,11,2,2,2,true,d,false,true,0.0-2.0-0.48-0.432-3.432,0,0,0,68,false,stim,false,1,839.9000000059605,0,0,1,69444,task1,1368890,false,false,1466,image-keyboard-response,22
true,11,2,2,2,true,d,false,true,0.0-2.0-0.48-0.433-3.433,0,0,0,68,false,stim,false,0,512.2000000178814,0,0,2,69444,task1,1370924,false,false,1469,image-keyboard-response,23
true,11,1,2,1,true,z,false,true,0.0-2.0-0.48-0.434-3.434,0,0,0,90,false,stim,false,2,567.8999999761581,0,0,0,69444,task1,1373035,false,false,1472,image-keyboard-response,24
true,11,1,2,1,true,z,false,true,0.0-2.0-0.48-0.435-3.435,0,0,0,90,false,stim,false,2,1025.6000000238419,0,0,0,69444,task1,1375597,false,false,1475,image-keyboard-response,25
true,11,2,2,2,true,d,false,true,0.0-2.0-0.48-0.436-3.436,0,0,0,68,false,stim,false,0,696.3000000119209,0,0,2,69444,task1,1377827,false,false,1478,image-keyboard-response,26
true,11,1,2,1,true,z,false,true,0.0-2.0-0.48-0.437-3.437,0,0,0,90,false,stim,false,2,985.3000000119209,0,0,0,69444,task1,1380336,false,false,1481,image-keyboard-response,27
true,11,2,2,2,true,d,false,true,0.0-2.0-0.48-0.438-3.438,0,0,0,68,false,stim,false,1,944.2000000178814,0,0,1,69444,task1,1382807,false,false,1484,image-keyboard-response,28
true,11,2,2,2,true,d,false,true,0.0-2.0-0.48-0.439-3.439,0,0,0,68,false,stim,false,0,1516.4000000059605,0,0,2,69444,task1,1385860,false,false,1487,image-keyboard-response,29
true,11,2,2,2,true,d,false,true,0.0-2.0-0.48-0.440-3.440,0,0,0,68,false,stim,false,1,706.0999999940395,0,0,1,69444,task1,1388101,false,false,1490,image-keyboard-response,30
true,11,2,2,2,true,d,false,true,0.0-2.0-0.49-0.441-3.441,0,0,0,68,false,stim,false,1,556.5,0,0,1,69444,task1,1390194,false,false,1493,image-keyboard-response,31
true,11,2,2,2,true,d,false,true,0.0-2.0-0.49-0.442-3.442,0,0,0,68,false,stim,false,1,579.5,0,0,1,69444,task1,1392302,false,false,1496,image-keyboard-response,32
true,11,2,2,2,true,d,false,true,0.0-2.0-0.49-0.443-3.443,0,0,0,68,false,stim,false,0,1105.5,0,0,2,69444,task1,1394932,false,false,1499,image-keyboard-response,33
true,11,1,2,1,true,z,false,true,0.0-2.0-0.49-0.444-3.444,0,0,0,90,false,stim,false,2,719.5999999940395,0,0,0,69444,task1,1397195,false,false,1502,image-keyboard-response,34
true,11,1,2,1,true,z,false,true,0.0-2.0-0.49-0.445-3.445,0,0,0,90,false,stim,false,2,678.6000000238419,0,0,0,69444,task1,1399394,false,false,1505,image-keyboard-response,35
true,11,2,2,2,true,d,false,true,0.0-2.0-0.49-0.446-3.446,0,0,0,68,false,stim,false,1,1117.4000000059605,0,0,1,69444,task1,1402046,false,false,1508,image-keyboard-response,36
true,11,2,2,2,true,d,false,true,0.0-2.0-0.49-0.447-3.447,0,0,0,68,false,stim,false,0,1256.2000000178814,0,0,2,69444,task1,1404844,false,false,1511,image-keyboard-response,37
true,11,1,2,1,true,z,false,false,0.0-2.0-0.49-0.448-3.448,0,0,0,90,false,stim,false,2,860.9000000059605,0,0,0,69444,task1,1407221,false,true,1514,image-keyboard-response,38
true,11,2,2,2,true,d,false,true,0.0-2.0-0.49-0.449-3.449,0,0,0,68,false,stim,false,0,751.0,0,0,2,69444,task1,1409499,false,false,1517,image-keyboard-response,39
true,11,2,2,1,false,z,false,false,0.0-2.0-0.50-0.450-3.450,0,0,0,68,false,stim,true,2,1601.9000000059605,0,0,0,69444,task1,1412616,false,false,1520,image-keyboard-response,40
true,11,1,2,2,false,d,false,true,0.0-2.0-0.50-0.451-3.451,0,0,0,90,false,stim,true,1,2216.300000011921,0,0,1,69444,task1,1416360,false,true,1523,image-keyboard-response,41
true,11,1,2,2,false,d,false,false,0.0-2.0-0.50-0.452-3.452,0,0,0,90,false,stim,true,1,1832.800000011921,0,0,1,69444,task1,1419735,false,false,1526,image-keyboard-response,42
true,11,0,2,1,false,z,true,false,0.0-2.0-0.50-0.453-3.453,0,0,0,81,false,stim,false,2,1687.199999988079,0,0,0,69444,task1,1422949,false,false,1529,image-keyboard-response,43
true,12,2,2,0,false,q,false,false,0.0-2.0-0.50-0.454-3.454,0,0,0,68,true,stim,true,2,1045.699999988079,0,0,2,69444,task1,1425533,false,false,1532,image-keyboard-response,1
true,12,1,2,0,false,q,true,false,0.0-2.0-0.50-0.455-3.455,0,0,0,90,false,stim,false,2,489.0,0,0,2,69444,task1,1427545,false,false,1535,image-keyboard-response,2
true,12,1,2,2,false,d,false,false,0.0-2.0-0.50-0.456-3.456,0,0,0,90,false,stim,true,1,1412.5999999940395,0,0,0,69444,task1,1430497,false,false,1538,image-keyboard-response,3
true,12,0,2,1,false,z,true,false,0.0-2.0-0.50-0.457-3.457,0,0,0,81,false,stim,false,2,1252.300000011921,0,0,1,69444,task1,1433274,false,false,1541,image-keyboard-response,4
true,12,0,2,0,true,q,false,true,0.0-2.0-0.50-0.458-3.458,0,0,0,81,false,stim,false,2,2076.600000023842,0,0,2,69444,task1,1436875,false,false,1544,image-keyboard-response,5
true,12,2,2,2,true,d,false,false,0.0-2.0-0.51-0.459-3.459,0,0,0,68,false,stim,false,1,1040.0,0,0,0,69444,task1,1439432,false,true,1547,image-keyboard-response,6
true,12,0,2,0,true,q,false,true,0.0-2.0-0.51-0.460-3.460,0,0,0,81,false,stim,false,2,834.0999999940395,0,0,2,69444,task1,1441801,false,false,1550,image-keyboard-response,7
true,12,1,2,2,false,d,false,false,0.0-2.0-0.51-0.461-3.461,0,0,0,90,false,stim,true,1,1591.2000000178814,0,0,0,69444,task1,1444932,false,false,1553,image-keyboard-response,8
true,12,0,2,0,true,q,false,true,0.0-2.0-0.51-0.462-3.462,0,0,0,81,false,stim,false,2,674.0,0,0,2,69444,task1,1447138,false,false,1556,image-keyboard-response,9
true,12,0,2,2,false,d,true,false,0.0-2.0-0.51-0.463-3.463,0,0,0,81,false,stim,false,1,468.80000001192093,0,0,0,69444,task1,1449142,false,false,1559,image-keyboard-response,10
true,12,1,2,1,true,z,false,true,0.0-2.0-0.51-0.464-3.464,0,0,0,90,false,stim,false,2,1636.300000011921,0,0,1,69444,task1,1452315,false,false,1562,image-keyboard-response,11
true,12,0,2,0,true,q,false,true,0.0-2.0-0.51-0.465-3.465,0,0,0,81,false,stim,false,2,1149.4000000059605,0,0,2,69444,task1,1454982,false,false,1565,image-keyboard-response,12
true,12,1,2,1,true,z,false,true,0.0-2.0-0.51-0.466-3.466,0,0,0,90,false,stim,false,2,692.3000000119209,0,0,1,69444,task1,1457190,false,false,1568,image-keyboard-response,13
true,12,1,2,1,true,z,false,true,0.0-2.0-0.51-0.467-3.467,0,0,0,90,false,stim,false,2,1529.5,0,0,1,69444,task1,1460251,false,false,1571,image-keyboard-response,14
true,12,0,2,0,true,q,false,true,0.0-2.0-0.52-0.468-3.468,0,0,0,81,false,stim,false,2,1035.4000000059605,0,0,2,69444,task1,1462830,false,false,1574,image-keyboard-response,15
true,12,1,2,2,false,d,false,false,0.0-2.0-0.52-0.469-3.469,0,0,0,90,false,stim,true,1,1465.4000000059605,0,0,0,69444,task1,1465812,false,false,1577,image-keyboard-response,16
true,12,1,2,1,true,z,false,true,0.0-2.0-0.52-0.470-3.470,0,0,0,90,false,stim,false,2,1390.0,0,0,1,69444,task1,1468734,false,false,1580,image-keyboard-response,17
true,12,0,2,2,false,d,true,false,0.0-2.0-0.52-0.471-3.471,0,0,0,81,false,stim,false,1,2012.7000000178814,0,0,0,69444,task1,1472258,false,false,1583,image-keyboard-response,18
true,12,0,2,0,true,q,false,true,0.0-2.0-0.52-0.472-3.472,0,0,0,81,false,stim,false,2,1686.5,0,0,2,69444,task1,1475469,false,false,1586,image-keyboard-response,19
true,12,1,2,1,true,z,false,true,0.0-2.0-0.52-0.473-3.473,0,0,0,90,false,stim,false,2,564.5999999940395,0,0,1,69444,task1,1477558,false,false,1589,image-keyboard-response,20
true,12,1,2,1,true,z,false,true,0.0-2.0-0.52-0.474-3.474,0,0,0,90,false,stim,false,2,978.0999999940395,0,0,1,69444,task1,1480061,false,false,1592,image-keyboard-response,21
true,12,2,2,2,true,d,false,true,0.0-2.0-0.52-0.475-3.475,0,0,0,68,false,stim,false,1,1156.0999999940395,0,0,0,69444,task1,1482745,false,false,1595,image-keyboard-response,22
true,12,0,2,0,true,q,false,true,0.0-2.0-0.52-0.476-3.476,0,0,0,81,false,stim,false,2,766.4000000059605,0,0,2,69444,task1,1485038,false,false,1598,image-keyboard-response,23
true,12,2,2,2,true,d,false,true,0.0-2.0-0.53-0.477-3.477,0,0,0,68,false,stim,false,1,946.0,0,0,0,69444,task1,1487513,false,false,1601,image-keyboard-response,24
true,12,0,2,0,true,q,false,true,0.0-2.0-0.53-0.478-3.478,0,0,0,81,false,stim,false,2,1696.300000011921,0,0,2,69444,task1,1490748,false,false,1604,image-keyboard-response,25
true,12,2,2,2,true,d,false,true,0.0-2.0-0.53-0.479-3.479,0,0,0,68,false,stim,false,1,824.1999999880791,0,0,0,69444,task1,1493104,false,false,1607,image-keyboard-response,26
true,12,1,2,1,true,z,false,true,0.0-2.0-0.53-0.480-3.480,0,0,0,90,false,stim,false,2,540.5999999940395,0,0,1,69444,task1,1495176,false,false,1610,image-keyboard-response,27
true,12,1,2,1,true,z,false,true,0.0-2.0-0.53-0.481-3.481,0,0,0,90,false,stim,false,2,671.0,0,0,1,69444,task1,1497370,false,false,1613,image-keyboard-response,28
true,12,0,2,0,true,q,false,true,0.0-2.0-0.53-0.482-3.482,0,0,0,81,false,stim,false,2,1299.5,0,0,2,69444,task1,1500206,false,false,1616,image-keyboard-response,29
true,12,2,2,2,true,d,false,true,0.0-2.0-0.53-0.483-3.483,0,0,0,68,false,stim,false,1,1129.0,0,0,0,69444,task1,1502861,false,false,1619,image-keyboard-response,30
true,12,0,2,0,true,q,false,true,0.0-2.0-0.53-0.484-3.484,0,0,0,81,false,stim,false,2,870.9000000059605,0,0,2,69444,task1,1505259,false,false,1622,image-keyboard-response,31
true,12,1,2,1,true,z,false,true,0.0-2.0-0.53-0.485-3.485,0,0,0,90,false,stim,false,2,1071.8999999761581,0,0,1,69444,task1,1507855,false,false,1625,image-keyboard-response,32
true,12,1,2,1,true,z,false,true,0.0-2.0-0.54-0.486-3.486,0,0,0,90,false,stim,false,2,610.7000000178814,0,0,1,69444,task1,1510001,false,false,1628,image-keyboard-response,33
true,12,1,2,1,true,z,false,true,0.0-2.0-0.54-0.487-3.487,0,0,0,90,false,stim,false,2,549.4000000059605,0,0,1,69444,task1,1512083,false,false,1631,image-keyboard-response,34
true,12,2,2,2,true,d,false,true,0.0-2.0-0.54-0.488-3.488,0,0,0,68,false,stim,false,1,1567.4000000059605,0,0,0,69444,task1,1515183,false,false,1634,image-keyboard-response,35
true,12,0,2,0,true,q,false,false,0.0-2.0-0.54-0.489-3.489,0,0,0,81,false,stim,false,2,799.5,0,0,2,69444,task1,1517512,false,true,1637,image-keyboard-response,36
true,12,2,2,2,true,d,false,true,0.0-2.0-0.54-0.490-3.490,0,0,0,68,false,stim,false,1,1185.699999988079,0,0,0,69444,task1,1520236,false,false,1640,image-keyboard-response,37
true,12,2,2,0,false,q,false,false,0.0-2.0-0.54-0.491-3.491,0,0,0,68,false,stim,true,2,649.3000000119209,0,0,2,69444,task1,1522426,false,false,1643,image-keyboard-response,38
true,12,1,2,0,false,q,true,true,0.0-2.0-0.54-0.492-3.492,0,0,0,90,false,stim,false,2,493.2999999821186,0,0,2,69444,task1,1524458,false,true,1646,image-keyboard-response,39
true,12,1,2,1,true,z,false,true,0.0-2.0-0.54-0.493-3.493,0,0,0,90,false,stim,false,2,565.0,0,0,1,69444,task1,1526540,false,false,1649,image-keyboard-response,40
true,12,2,2,2,true,d,false,true,0.0-2.0-0.54-0.494-3.494,0,0,0,68,false,stim,false,1,702.1000000238419,0,0,0,69444,task1,1528760,false,false,1652,image-keyboard-response,41
true,13,1,2,2,false,d,false,false,0.0-2.0-0.55-0.495-3.495,0,0,0,90,true,stim,true,1,1133.4000000059605,0,0,1,69444,task1,1531433,false,false,1655,image-keyboard-response,1
true,13,1,2,2,false,d,false,false,0.0-2.0-0.55-0.496-3.496,0,0,0,90,false,stim,true,1,453.40000000596046,0,0,1,69444,task1,1533419,false,false,1658,image-keyboard-response,2
true,13,1,2,1,true,z,false,true,0.0-2.0-0.55-0.497-3.497,0,0,0,90,false,stim,false,2,710.5,0,0,0,69444,task1,1535659,false,false,1661,image-keyboard-response,3
true,13,1,2,2,false,d,true,false,0.0-2.0-0.55-0.498-3.498,0,0,0,90,false,stim,false,0,1806.0999999940395,0,0,2,69444,task1,1539001,false,false,1664,image-keyboard-response,4
true,13,2,2,2,true,d,false,true,0.0-2.0-0.55-0.499-3.499,0,0,0,68,false,stim,false,0,599.5,0,0,2,69444,task1,1541118,false,false,1667,image-keyboard-response,5
true,13,1,2,1,true,z,false,true,0.0-2.0-0.55-0.500-3.500,0,0,0,90,false,stim,false,2,1783.4000000059605,0,0,0,69444,task1,1544444,false,false,1670,image-keyboard-response,6
true,13,2,2,2,true,d,false,true,0.0-2.0-0.55-0.501-3.501,0,0,0,68,false,stim,false,0,582.6999999880791,0,0,2,69444,task1,1546553,false,false,1673,image-keyboard-response,7
true,13,1,2,2,false,d,false,true,0.0-2.0-0.55-0.502-3.502,0,0,0,90,false,stim,true,1,1118.4000000059605,0,0,1,69444,task1,1549210,false,true,1676,image-keyboard-response,8
true,13,1,2,1,true,z,false,true,0.0-2.0-0.55-0.503-3.503,0,0,0,90,false,stim,false,2,1507.7999999821186,0,0,0,69444,task1,1552240,false,false,1679,image-keyboard-response,9
true,13,1,2,1,true,z,false,true,0.0-2.0-0.56-0.504-3.504,0,0,0,90,false,stim,false,2,801.5999999940395,0,0,0,69444,task1,1554575,false,false,1682,image-keyboard-response,10
true,13,1,2,2,false,d,false,false,0.0-2.0-0.56-0.505-3.505,0,0,0,90,false,stim,true,1,1017.3000000119209,0,0,1,69444,task1,1557131,false,false,1685,image-keyboard-response,11
true,13,0,2,1,false,z,true,false,0.0-2.0-0.56-0.506-3.506,0,0,0,81,false,stim,false,2,1204.5,0,0,0,69444,task1,1559867,false,false,1688,image-keyboard-response,12
true,13,1,2,2,false,d,false,false,0.0-2.0-0.56-0.507-3.507,0,0,0,90,false,stim,true,1,415.0,0,0,1,69444,task1,1561823,false,false,1691,image-keyboard-response,13
true,13,1,2,1,true,z,false,true,0.0-2.0-0.56-0.508-3.508,0,0,0,90,false,stim,false,2,783.5,0,0,0,69444,task1,1564141,false,false,1694,image-keyboard-response,14
true,13,2,2,2,true,d,false,true,0.0-2.0-0.56-0.509-3.509,0,0,0,68,false,stim,false,1,950.5,0,0,1,69444,task1,1566618,false,false,1697,image-keyboard-response,15
true,13,2,2,2,true,d,false,true,0.0-2.0-0.56-0.510-3.510,0,0,0,68,false,stim,false,0,1293.1000000238419,0,0,2,69444,task1,1569448,false,false,1700,image-keyboard-response,16
true,13,2,2,2,true,d,false,true,0.0-2.0-0.56-0.511-3.511,0,0,0,68,false,stim,false,0,827.7000000178814,0,0,2,69444,task1,1571822,false,false,1703,image-keyboard-response,17
true,13,2,2,2,true,d,false,true,0.0-2.0-0.56-0.512-3.512,0,0,0,68,false,stim,false,0,523.6999999880791,0,0,2,69444,task1,1573877,false,false,1706,image-keyboard-response,18
true,13,1,2,1,true,z,false,true,0.0-2.0-0.57-0.513-3.513,0,0,0,90,false,stim,false,2,686.3000000119209,0,0,0,69444,task1,1576091,false,false,1709,image-keyboard-response,19
true,13,2,2,2,true,d,false,true,0.0-2.0-0.57-0.514-3.514,0,0,0,68,false,stim,false,1,1050.0,0,0,1,69444,task1,1578658,false,false,1712,image-keyboard-response,20
true,13,2,2,2,true,d,false,true,0.0-2.0-0.57-0.515-3.515,0,0,0,68,false,stim,false,0,1298.0,0,0,2,69444,task1,1581480,false,false,1715,image-keyboard-response,21
true,13,2,2,2,true,d,false,true,0.0-2.0-0.57-0.516-3.516,0,0,0,68,false,stim,false,0,660.1999999880791,0,0,2,69444,task1,1583665,false,false,1718,image-keyboard-response,22
true,13,2,2,2,true,d,false,true,0.0-2.0-0.57-0.517-3.517,0,0,0,68,false,stim,false,1,1065.7000000178814,0,0,1,69444,task1,1586249,false,false,1721,image-keyboard-response,23
true,13,2,2,2,true,d,false,true,0.0-2.0-0.57-0.518-3.518,0,0,0,68,false,stim,false,1,519.7000000178814,0,0,1,69444,task1,1588306,false,false,1724,image-keyboard-response,24
true,13,1,2,1,true,z,false,true,0.0-2.0-0.57-0.519-3.519,0,0,0,90,false,stim,false,2,1434.199999988079,0,0,0,69444,task1,1591265,false,false,1727,image-keyboard-response,25
true,13,1,2,1,true,z,false,true,0.0-2.0-0.57-0.520-3.520,0,0,0,90,false,stim,false,2,645.5,0,0,0,69444,task1,1593453,false,false,1730,image-keyboard-response,26
true,13,2,2,2,true,d,false,true,0.0-2.0-0.57-0.521-3.521,0,0,0,68,false,stim,false,0,677.5,0,0,2,69444,task1,1595654,false,false,1733,image-keyboard-response,27
true,13,2,2,2,true,d,false,true,0.0-2.0-0.58-0.522-3.522,0,0,0,68,false,stim,false,1,998.6999999880791,0,0,1,69444,task1,1598178,false,false,1736,image-keyboard-response,28
true,13,2,2,2,true,d,false,true,0.0-2.0-0.58-0.523-3.523,0,0,0,68,false,stim,false,1,514.9000000059605,0,0,1,69444,task1,1600234,false,false,1739,image-keyboard-response,29
true,13,2,2,2,true,d,false,true,0.0-2.0-0.58-0.524-3.524,0,0,0,68,false,stim,false,1,430.09999999403954,0,0,1,69444,task1,1602186,false,false,1742,image-keyboard-response,30
true,13,1,2,1,true,z,false,true,0.0-2.0-0.58-0.525-3.525,0,0,0,90,false,stim,false,2,759.8000000119209,0,0,0,69444,task1,1604461,false,false,1745,image-keyboard-response,31
true,13,2,2,2,true,d,false,false,0.0-2.0-0.58-0.526-3.526,0,0,0,68,false,stim,false,0,545.1999999880791,0,0,2,69444,task1,1606532,false,true,1748,image-keyboard-response,32
true,13,1,2,2,false,d,true,false,0.0-2.0-0.58-0.527-3.527,0,0,0,90,false,stim,false,0,1084.2000000178814,0,0,2,69444,task1,1609147,false,false,1751,image-keyboard-response,33
true,13,1,2,1,true,z,false,false,0.0-2.0-0.58-0.528-3.528,0,0,0,90,false,stim,false,2,1155.0999999940395,0,0,0,69444,task1,1611838,false,true,1754,image-keyboard-response,34
true,13,2,2,2,true,d,false,true,0.0-2.0-0.58-0.529-3.529,0,0,0,68,false,stim,false,0,1051.9000000059605,0,0,2,69444,task1,1614423,false,false,1757,image-keyboard-response,35
true,13,0,2,1,false,z,true,false,0.0-2.0-0.58-0.530-3.530,0,0,0,81,false,stim,false,2,801.8000000119209,0,0,0,69444,task1,1616760,false,false,1760,image-keyboard-response,36
true,13,1,2,2,false,d,true,false,0.0-2.0-0.59-0.531-3.531,0,0,0,90,false,stim,false,0,700.2999999821186,0,0,2,69444,task1,1618993,false,false,1763,image-keyboard-response,37
true,13,2,2,2,true,d,false,true,0.0-2.0-0.59-0.532-3.532,0,0,0,68,false,stim,false,0,428.5,0,1,2,69444,task1,1620958,false,false,1766,image-keyboard-response,38
true,13,1,2,1,true,z,false,true,0.0-2.0-0.59-0.533-3.533,0,0,0,90,false,stim,false,2,1225.300000011921,0,1,0,69444,task1,1623716,false,false,1769,image-keyboard-response,39
true,13,2,2,2,true,d,false,true,0.0-2.0-0.59-0.534-3.534,0,0,0,68,false,stim,false,1,1213.800000011921,0,1,1,69444,task1,1626456,false,false,1772,image-keyboard-response,40
true,13,2,2,2,true,d,false,true,0.0-2.0-0.59-0.535-3.535,0,0,0,68,false,stim,false,1,698.6000000238419,0,1,1,69444,task1,1628685,false,false,1775,image-keyboard-response,41
true,13,1,2,1,true,z,false,true,0.0-2.0-0.59-0.536-3.536,0,0,0,90,false,stim,false,2,627.5999999940395,0,1,0,69444,task1,1630849,false,false,1778,image-keyboard-response,42
true,14,1,0,1,true,z,false,true,0.0-2.0-0.59-0.537-3.537,1,1,1,90,true,stim,false,1,914.2000000178814,0,1,0,69444,task1,1695548,false,false,1843,image-keyboard-response,1
true,14,2,0,2,true,d,false,false,0.0-2.0-0.59-0.538-3.538,1,1,1,68,false,stim,false,2,1257.699999988079,0,1,2,69444,task1,1698347,false,true,1846,image-keyboard-response,2
true,14,1,0,2,false,d,true,false,0.0-2.0-0.59-0.539-3.539,1,1,1,90,false,stim,false,2,1208.800000011921,0,1,1,69444,task1,1701088,false,false,1849,image-keyboard-response,3
true,14,2,0,2,true,d,false,true,0.0-2.0-0.60-0.540-3.540,1,1,1,68,false,stim,false,2,732.0,0,1,1,69444,task1,1703352,false,false,1852,image-keyboard-response,4
true,14,0,0,2,false,d,true,false,0.0-2.0-0.60-0.541-3.541,1,1,1,81,false,stim,false,2,885.0999999940395,0,1,2,69444,task1,1705762,false,false,1855,image-keyboard-response,5
true,14,2,0,2,true,d,false,true,0.0-2.0-0.60-0.542-3.542,1,1,1,68,false,stim,false,2,1003.5999999940395,0,1,1,69444,task1,1708298,false,false,1858,image-keyboard-response,6
true,14,1,0,2,false,d,true,false,0.0-2.0-0.60-0.543-3.543,1,1,1,90,false,stim,false,2,859.7999999821186,0,1,2,69444,task1,1710686,false,false,1861,image-keyboard-response,7
true,14,2,0,2,true,d,false,true,0.0-2.0-0.60-0.544-3.544,1,1,1,68,false,stim,false,2,849.1999999880791,0,1,1,69444,task1,1713057,false,false,1864,image-keyboard-response,8
true,14,2,0,2,true,d,false,true,0.0-2.0-0.60-0.545-3.545,1,1,1,68,false,stim,false,2,462.40000000596046,0,0,2,69444,task1,1715042,false,false,1867,image-keyboard-response,9
true,14,1,0,1,true,z,false,false,0.0-2.0-0.60-0.546-3.546,1,1,1,90,false,stim,false,1,749.0,0,0,0,69444,task1,1717325,false,true,1870,image-keyboard-response,10
true,14,0,0,1,false,z,true,false,0.0-2.0-0.60-0.547-3.547,1,1,1,81,false,stim,false,1,962.6999999880791,0,0,0,69444,task1,1719829,false,false,1873,image-keyboard-response,11
true,14,2,0,1,false,z,true,false,0.0-2.0-0.60-0.548-3.548,1,1,1,68,false,stim,false,1,477.19999998807907,0,0,0,69444,task1,1721817,false,false,1876,image-keyboard-response,12
true,14,2,0,2,true,d,false,false,0.0-2.0-0.61-0.549-3.549,1,1,1,68,false,stim,false,2,823.5999999940395,0,0,1,69444,task1,1724154,false,true,1879,image-keyboard-response,13
true,15,2,2,0,false,q,false,false,0.0-2.0-0.61-0.550-3.550,0,0,0,68,true,stim,true,2,1028.300000011921,0,0,2,69444,task1,1726721,false,false,1882,image-keyboard-response,1
true,15,1,2,1,true,z,false,true,0.0-2.0-0.61-0.551-3.551,0,0,0,90,false,stim,false,2,1325.4000000059605,0,0,1,69444,task1,1729564,false,false,1885,image-keyboard-response,2
true,15,2,2,2,true,d,false,true,0.0-2.0-0.61-0.552-3.552,0,0,0,68,false,stim,false,1,1566.199999988079,0,0,0,69444,task1,1732659,false,false,1888,image-keyboard-response,3
true,15,1,2,0,false,q,true,false,0.0-2.0-0.61-0.553-3.553,0,0,0,90,false,stim,false,2,1083.4000000059605,0,0,2,69444,task1,1735268,false,false,1891,image-keyboard-response,4
true,15,0,2,0,true,q,false,true,0.0-2.0-0.61-0.554-3.554,0,0,0,81,false,stim,false,2,519.5999999940395,0,0,2,69444,task1,1737314,false,false,1894,image-keyboard-response,5
true,15,2,2,2,true,d,false,true,0.0-2.0-0.61-0.555-3.555,0,0,0,68,false,stim,false,1,738.3000000119209,0,0,0,69444,task1,1739599,false,false,1897,image-keyboard-response,6
true,15,1,2,1,true,z,false,true,0.0-2.0-0.61-0.556-3.556,0,0,0,90,false,stim,false,2,795.1000000238419,0,0,1,69444,task1,1741936,false,false,1900,image-keyboard-response,7
true,15,2,2,2,true,d,false,true,0.0-2.0-0.61-0.557-3.557,0,0,0,68,false,stim,false,1,1293.300000011921,0,0,0,69444,task1,1744767,false,false,1903,image-keyboard-response,8
true,15,1,2,1,true,z,false,true,0.0-2.0-0.62-0.558-3.558,0,0,0,90,false,stim,false,2,775.2999999821186,0,0,1,69444,task1,1747065,false,false,1906,image-keyboard-response,9
true,15,2,2,2,true,d,false,true,0.0-2.0-0.62-0.559-3.559,0,0,0,68,false,stim,false,1,741.3000000119209,0,0,0,69444,task1,1749331,false,false,1909,image-keyboard-response,10
true,15,1,2,0,false,q,true,false,0.0-2.0-0.62-0.560-3.560,0,0,0,90,false,stim,false,2,1134.7999999821186,0,0,2,69444,task1,1751994,false,false,1912,image-keyboard-response,11
true,15,2,2,2,true,d,false,true,0.0-2.0-0.62-0.561-3.561,0,0,0,68,false,stim,false,1,741.1000000238419,0,0,0,69444,task1,1754263,false,false,1915,image-keyboard-response,12
true,15,1,2,1,true,z,false,true,0.0-2.0-0.62-0.562-3.562,0,0,0,90,false,stim,false,2,760.9000000059605,0,0,1,69444,task1,1756552,false,false,1918,image-keyboard-response,13
true,15,0,2,0,true,q,false,true,0.0-2.0-0.62-0.563-3.563,0,0,0,81,false,stim,false,2,512.5999999940395,0,0,2,69444,task1,1758587,false,false,1921,image-keyboard-response,14
true,15,0,2,0,true,q,false,true,0.0-2.0-0.62-0.564-3.564,0,0,0,81,false,stim,false,2,439.0,0,0,2,69444,task1,1760549,false,false,1924,image-keyboard-response,15
true,15,2,2,2,true,d,false,true,0.0-2.0-0.62-0.565-3.565,0,0,0,68,false,stim,false,1,1050.0,0,0,0,69444,task1,1763121,false,false,1927,image-keyboard-response,16
true,15,1,2,1,true,z,false,true,0.0-2.0-0.62-0.566-3.566,0,0,0,90,false,stim,false,2,868.5,0,0,1,69444,task1,1765512,false,false,1930,image-keyboard-response,17
true,15,2,2,2,true,d,false,true,0.0-2.0-0.63-0.567-3.567,0,0,0,68,false,stim,false,1,1241.2000000178814,0,0,0,69444,task1,1768287,false,false,1933,image-keyboard-response,18
true,15,1,2,1,true,z,false,true,0.0-2.0-0.63-0.568-3.568,0,0,0,90,false,stim,false,2,1569.5999999940395,0,0,1,69444,task1,1771379,false,false,1936,image-keyboard-response,19
true,15,1,2,1,true,z,false,true,0.0-2.0-0.63-0.569-3.569,0,0,0,90,false,stim,false,2,729.4000000059605,0,0,1,69444,task1,1773625,false,false,1939,image-keyboard-response,20
true,15,2,2,2,true,d,false,true,0.0-2.0-0.63-0.570-3.570,0,0,0,68,false,stim,false,1,1325.0,0,0,0,69444,task1,1776477,false,false,1942,image-keyboard-response,21
true,15,0,2,0,true,q,false,true,0.0-2.0-0.63-0.571-3.571,0,0,0,81,false,stim,false,2,665.2000000178814,0,0,2,69444,task1,1778677,false,false,1945,image-keyboard-response,22
true,15,0,2,0,true,q,false,true,0.0-2.0-0.63-0.572-3.572,0,0,0,81,false,stim,false,2,817.0,0,0,2,69444,task1,1781013,false,false,1948,image-keyboard-response,23
true,15,1,2,1,true,z,false,true,0.0-2.0-0.63-0.573-3.573,0,0,0,90,false,stim,false,2,912.5,0,0,1,69444,task1,1783463,false,false,1951,image-keyboard-response,24
true,15,2,2,2,true,d,false,true,0.0-2.0-0.63-0.574-3.574,0,0,0,68,false,stim,false,1,837.5999999940395,0,0,0,69444,task1,1785834,false,false,1954,image-keyboard-response,25
true,15,0,2,0,true,q,false,true,0.0-2.0-0.63-0.575-3.575,0,0,0,81,false,stim,false,2,1309.7999999821186,0,0,2,69444,task1,1788673,false,false,1957,image-keyboard-response,26
true,15,0,2,0,true,q,false,true,0.0-2.0-0.64-0.576-3.576,0,0,0,81,false,stim,false,2,656.7999999821186,0,0,2,69444,task1,1790863,false,false,1960,image-keyboard-response,27
true,15,1,2,1,true,z,false,true,0.0-2.0-0.64-0.577-3.577,0,0,0,90,false,stim,false,2,1084.7000000178814,0,0,1,69444,task1,1793472,false,false,1963,image-keyboard-response,28
true,15,0,2,0,true,q,false,true,0.0-2.0-0.64-0.578-3.578,0,0,0,81,false,stim,false,2,1633.2000000178814,0,0,2,69444,task1,1796649,false,false,1966,image-keyboard-response,29
true,15,0,2,0,true,q,false,false,0.0-2.0-0.64-0.579-3.579,0,0,0,81,false,stim,false,2,637.1999999880791,0,0,2,69444,task1,1798815,false,true,1969,image-keyboard-response,30
true,15,1,2,1,true,z,false,true,0.0-2.0-0.64-0.580-3.580,0,0,0,90,false,stim,false,2,827.2000000178814,0,0,1,69444,task1,1801179,false,false,1972,image-keyboard-response,31
true,15,2,2,2,true,d,false,true,0.0-2.0-0.64-0.581-3.581,0,0,0,68,false,stim,false,1,688.7000000178814,0,0,0,69444,task1,1803399,false,false,1975,image-keyboard-response,32
true,15,2,2,2,true,d,false,true,0.0-2.0-0.64-0.582-3.582,0,0,0,68,false,stim,false,1,940.5,0,0,0,69444,task1,1805873,false,false,1978,image-keyboard-response,33
true,15,1,2,1,true,z,false,true,0.0-2.0-0.64-0.583-3.583,0,0,0,90,false,stim,false,2,1395.9000000059605,0,0,1,69444,task1,1808793,false,false,1981,image-keyboard-response,34
true,15,2,2,2,true,d,false,true,0.0-2.0-0.64-0.584-3.584,0,0,0,68,false,stim,false,1,987.2000000178814,0,0,0,69444,task1,1811317,false,false,1984,image-keyboard-response,35
true,15,2,2,0,false,q,false,false,0.0-2.0-0.65-0.585-3.585,0,0,0,68,false,stim,true,2,1071.0,0,0,2,69444,task1,1813913,false,false,1987,image-keyboard-response,36
true,15,1,2,1,true,z,false,true,0.0-2.0-0.65-0.586-3.586,0,0,0,90,false,stim,false,2,725.9000000059605,0,0,1,69444,task1,1816164,false,false,1990,image-keyboard-response,37
true,15,1,2,0,false,q,true,true,0.0-2.0-0.65-0.587-3.587,0,0,0,90,false,stim,false,2,1064.3999999761581,0,0,2,69444,task1,1818760,false,true,1993,image-keyboard-response,38
true,15,2,2,2,true,d,false,true,0.0-2.0-0.65-0.588-3.588,0,0,0,68,false,stim,false,1,448.80000001192093,0,0,0,69444,task1,1820740,false,false,1996,image-keyboard-response,39
