answered,blockNum,choice,condition,corResp,correct,correct_response,explo,fb,internal_node_id,isStable_1,isStable_2,isStable_3,key_press,newBlock,part,persev,persevResp,rt,sessNum,stableAS,stimulus,subject,task,time_elapsed,training,trap,trial_index,trial_type,trialsInBlock
true,1,0,0,1,false,z,true,false,0.0-2.0-0.0-0.0-3.0,0,0,0,81,true,stim,false,-1,809.3999999985099,2,0,2,69444,task3,85408,false,false,82,image-keyboard-response,1
true,1,0,0,2,false,d,true,false,0.0-2.0-0.0-0.1-3.1,0,0,0,81,false,stim,false,-1,1125.1000000014901,2,0,0,69444,task3,88065,false,false,85,image-keyboard-response,2
true,1,0,0,0,true,q,false,true,0.0-2.0-0.0-0.2-3.2,0,0,0,81,false,stim,false,-1,846.7000000029802,2,0,1,69444,task3,90447,false,false,88,image-keyboard-response,3
true,1,1,0,2,false,d,true,false,0.0-2.0-0.0-0.3-3.3,0,0,0,90,false,stim,false,-1,550.7000000029802,2,0,0,69444,task3,92509,false,false,91,image-keyboard-response,4
true,1,0,0,0,true,q,false,true,0.0-2.0-0.0-0.4-3.4,0,0,0,81,false,stim,false,-1,735.9000000059605,2,0,1,69444,task3,94753,false,false,94,image-keyboard-response,5
true,1,2,0,2,true,d,false,true,0.0-2.0-0.0-0.5-3.5,0,0,0,68,false,stim,false,-1,604.3999999985099,2,0,0,69444,task3,96886,false,false,97,image-keyboard-response,6
true,1,1,0,1,true,z,false,false,0.0-2.0-0.0-0.6-3.6,0,0,0,90,false,stim,false,-1,884.0,2,0,2,69444,task3,99280,false,true,100,image-keyboard-response,7
true,1,2,0,1,false,z,true,false,0.0-2.0-0.0-0.7-3.7,0,0,0,68,false,stim,false,-1,766.7999999970198,2,0,2,69444,task3,101566,false,false,103,image-keyboard-response,8
true,1,0,0,0,true,q,false,false,0.0-2.0-0.0-0.8-3.8,0,0,0,81,false,stim,false,-1,586.3000000044703,2,0,1,69444,task3,103664,false,true,106,image-keyboard-response,9
true,1,1,0,0,false,q,true,false,0.0-2.0-0.1-0.9-3.9,0,0,0,90,false,stim,false,-1,1074.8000000044703,2,0,1,69444,task3,106272,false,false,109,image-keyboard-response,10
true,1,2,0,2,true,d,false,true,0.0-2.0-0.1-0.10-3.10,0,0,0,68,false,stim,false,-1,1273.6999999955297,2,0,0,69444,task3,109077,false,false,112,image-keyboard-response,11
true,1,0,0,1,false,z,true,false,0.0-2.0-0.1-0.11-3.11,0,0,0,81,false,stim,false,-1,1870.8999999985099,2,0,2,69444,task3,112479,false,false,115,image-keyboard-response,12
true,1,1,0,0,false,q,true,false,0.0-2.0-0.1-0.12-3.12,0,0,0,90,false,stim,false,-1,1762.5,2,0,1,69444,task3,115774,false,false,118,image-keyboard-response,13
true,1,2,0,1,false,z,true,false,0.0-2.0-0.1-0.13-3.13,0,0,0,68,false,stim,false,-1,1327.7999999970198,2,0,2,69444,task3,118624,false,false,121,image-keyboard-response,14
true,1,2,0,0,false,q,true,false,0.0-2.0-0.1-0.14-3.14,0,0,0,68,false,stim,false,-1,866.2000000029802,2,0,1,69444,task3,121023,false,false,124,image-keyboard-response,15
true,1,2,0,2,true,d,false,true,0.0-2.0-0.1-0.15-3.15,0,0,0,68,false,stim,false,-1,1897.2000000029802,2,0,0,69444,task3,124444,false,false,127,image-keyboard-response,16
true,1,0,0,1,false,z,true,false,0.0-2.0-0.1-0.16-3.16,0,0,0,81,false,stim,false,-1,1333.0,2,0,2,69444,task3,127311,false,false,130,image-keyboard-response,17
true,1,2,0,2,true,d,false,true,0.0-2.0-0.1-0.17-3.17,0,0,0,68,false,stim,false,-1,972.5,2,0,0,69444,task3,129808,false,false,133,image-keyboard-response,18
true,1,1,0,0,false,q,true,false,0.0-2.0-0.2-0.18-3.18,0,0,0,90,false,stim,false,-1,980.0,2,1,1,69444,task3,132313,false,false,136,image-keyboard-response,19
true,1,2,0,2,true,d,false,false,0.0-2.0-0.2-0.19-3.19,0,0,0,68,false,stim,false,-1,613.0999999940395,2,0,0,69444,task3,134442,false,true,139,image-keyboard-response,20
true,1,0,0,1,false,z,true,true,0.0-2.0-0.2-0.20-3.20,0,0,0,81,false,stim,false,-1,1263.1000000014901,2,1,2,69444,task3,137227,false,true,142,image-keyboard-response,21
true,1,0,0,0,true,q,false,true,0.0-2.0-0.2-0.21-3.21,0,0,0,81,false,stim,false,-1,1432.3999999985099,2,1,1,69444,task3,140188,false,false,145,image-keyboard-response,22
true,1,0,0,0,true,q,false,true,0.0-2.0-0.2-0.22-3.22,0,0,0,81,false,stim,false,-1,592.6999999955297,2,1,1,69444,task3,142294,false,false,148,image-keyboard-response,23
true,2,0,2,1,false,z,true,false,0.0-2.0-0.2-0.23-3.23,0,1,1,81,true,stim,false,2,980.2000000029802,2,0,0,69444,task3,144796,false,false,151,image-keyboard-response,1
true,2,0,2,1,false,z,true,false,0.0-2.0-0.2-0.24-3.24,0,1,1,81,false,stim,false,1,843.3999999985099,2,1,2,69444,task3,147165,false,false,154,image-keyboard-response,2
true,2,1,2,1,true,z,false,true,0.0-2.0-0.2-0.25-3.25,0,1,1,90,false,stim,false,1,1146.2999999970198,2,1,2,69444,task3,149845,false,false,157,image-keyboard-response,3
true,2,0,2,1,false,z,true,false,0.0-2.0-0.2-0.26-3.26,0,1,1,81,false,stim,false,2,1340.5,2,0,0,69444,task3,152708,false,false,160,image-keyboard-response,4
true,2,1,2,1,true,z,false,true,0.0-2.0-0.3-0.27-3.27,0,1,1,90,false,stim,false,1,639.0,2,1,2,69444,task3,154860,false,false,163,image-keyboard-response,5
true,2,2,2,0,false,q,true,false,0.0-2.0-0.3-0.28-3.28,0,1,1,68,false,stim,false,0,1193.1000000014901,2,1,1,69444,task3,157586,false,false,166,image-keyboard-response,6
true,2,1,2,1,true,z,false,true,0.0-2.0-0.3-0.29-3.29,0,1,1,90,false,stim,false,2,1790.6999999955297,2,0,0,69444,task3,160909,false,false,169,image-keyboard-response,7
true,2,1,2,1,true,z,false,true,0.0-2.0-0.3-0.30-3.30,0,1,1,90,false,stim,false,1,415.3999999985099,2,1,2,69444,task3,162852,false,false,172,image-keyboard-response,8
true,2,1,2,1,true,z,false,true,0.0-2.0-0.3-0.31-3.31,0,1,1,90,false,stim,false,2,557.5,2,0,0,69444,task3,164928,false,false,175,image-keyboard-response,9
true,2,1,2,1,true,z,false,true,0.0-2.0-0.3-0.32-3.32,0,1,1,90,false,stim,false,2,443.3999999985099,2,0,0,69444,task3,166896,false,false,178,image-keyboard-response,10
true,2,1,2,0,false,q,true,false,0.0-2.0-0.3-0.33-3.33,0,1,1,90,false,stim,false,0,1082.2000000029802,2,1,1,69444,task3,169506,false,false,181,image-keyboard-response,11
true,2,1,2,1,true,z,false,true,0.0-2.0-0.3-0.34-3.34,0,1,1,90,false,stim,false,1,488.6000000014901,2,1,2,69444,task3,171512,false,false,184,image-keyboard-response,12
true,2,0,2,0,true,q,false,true,0.0-2.0-0.3-0.35-3.35,0,1,1,81,false,stim,false,0,1568.2000000029802,2,1,1,69444,task3,174600,false,false,187,image-keyboard-response,13
true,2,1,2,1,true,z,false,true,0.0-2.0-0.4-0.36-3.36,0,1,1,90,false,stim,false,1,488.3999999985099,2,1,2,69444,task3,176627,false,false,190,image-keyboard-response,14
true,2,1,2,1,true,z,false,true,0.0-2.0-0.4-0.37-3.37,0,1,1,90,false,stim,false,1,475.1000000014901,2,1,2,69444,task3,178623,false,false,193,image-keyboard-response,15
true,2,0,2,0,true,q,false,true,0.0-2.0-0.4-0.38-3.38,0,1,1,81,false,stim,false,0,818.8999999985099,2,1,1,69444,task3,180971,false,false,196,image-keyboard-response,16
true,2,1,2,1,true,z,false,true,0.0-2.0-0.4-0.39-3.39,0,1,1,90,false,stim,false,2,774.5999999940395,2,0,0,69444,task3,183262,false,false,199,image-keyboard-response,17
true,2,1,2,1,true,z,false,true,0.0-2.0-0.4-0.40-3.40,0,1,1,90,false,stim,false,2,612.0,2,0,0,69444,task3,185411,false,false,202,image-keyboard-response,18
true,2,1,2,1,true,z,false,true,0.0-2.0-0.4-0.41-3.41,0,1,1,90,false,stim,false,2,562.1000000014901,2,0,0,69444,task3,187486,false,false,205,image-keyboard-response,19
true,2,0,2,0,true,q,false,true,0.0-2.0-0.4-0.42-3.42,0,1,1,81,false,stim,false,0,1057.8999999985099,2,1,1,69444,task3,190053,false,false,208,image-keyboard-response,20
true,2,1,2,1,true,z,false,true,0.0-2.0-0.4-0.43-3.43,0,1,1,90,false,stim,false,1,863.6000000014901,2,1,2,69444,task3,192434,false,false,211,image-keyboard-response,21
true,2,0,2,0,true,q,false,true,0.0-2.0-0.4-0.44-3.44,0,1,1,81,false,stim,false,0,661.6000000014901,2,1,1,69444,task3,194625,false,false,214,image-keyboard-response,22
true,2,0,2,0,true,q,false,true,0.0-2.0-0.5-0.45-3.45,0,1,1,81,false,stim,false,0,702.2000000029802,2,1,1,69444,task3,196864,false,false,217,image-keyboard-response,23
true,2,1,2,1,true,z,false,false,0.0-2.0-0.5-0.46-3.46,0,1,1,90,false,stim,false,1,628.6000000014901,2,1,2,69444,task3,199023,false,true,220,image-keyboard-response,24
true,2,1,2,1,true,z,false,true,0.0-2.0-0.5-0.47-3.47,0,1,1,90,false,stim,false,2,926.5,2,0,0,69444,task3,201475,false,false,223,image-keyboard-response,25
true,3,1,2,0,false,q,false,true,0.0-2.0-0.5-0.48-3.48,0,1,1,90,true,stim,true,1,639.0,2,0,0,69444,task3,203641,false,true,226,image-keyboard-response,1
true,3,0,2,0,true,q,false,true,0.0-2.0-0.5-0.49-3.49,0,1,1,81,false,stim,false,0,418.0,2,1,1,69444,task3,205592,false,false,229,image-keyboard-response,2
true,3,2,2,1,false,z,true,false,0.0-2.0-0.5-0.50-3.50,0,1,1,68,false,stim,false,1,948.7000000029802,2,1,2,69444,task3,208064,false,false,232,image-keyboard-response,3
true,3,0,2,0,true,q,false,true,0.0-2.0-0.5-0.51-3.51,0,1,1,81,false,stim,false,0,761.6000000014901,2,1,1,69444,task3,210354,false,false,235,image-keyboard-response,4
true,3,1,2,1,true,z,false,true,0.0-2.0-0.5-0.52-3.52,0,1,1,90,false,stim,false,1,1156.4000000059605,2,1,2,69444,task3,213043,false,false,238,image-keyboard-response,5
true,3,1,2,0,false,q,false,false,0.0-2.0-0.5-0.53-3.53,0,1,1,90,false,stim,true,1,1489.2000000029802,2,0,0,69444,task3,216051,false,false,241,image-keyboard-response,6
true,3,1,2,0,false,q,true,false,0.0-2.0-0.6-0.54-3.54,0,1,1,90,false,stim,false,0,1628.7000000029802,2,1,1,69444,task3,219219,false,false,244,image-keyboard-response,7
true,3,0,2,0,true,q,false,true,0.0-2.0-0.6-0.55-3.55,0,1,1,81,false,stim,false,0,579.6999999955297,2,1,1,69444,task3,221315,false,false,247,image-keyboard-response,8
true,3,0,2,0,true,q,false,true,0.0-2.0-0.6-0.56-3.56,0,1,1,81,false,stim,false,0,425.3999999985099,2,1,1,69444,task3,223255,false,false,250,image-keyboard-response,9
true,3,2,2,0,false,q,true,false,0.0-2.0-0.6-0.57-3.57,0,1,1,68,false,stim,false,1,1545.7999999970198,2,0,0,69444,task3,226324,false,false,253,image-keyboard-response,10
true,3,1,2,1,true,z,false,true,0.0-2.0-0.6-0.58-3.58,0,1,1,90,false,stim,false,1,1345.9000000059605,2,1,2,69444,task3,229191,false,false,256,image-keyboard-response,11
true,3,1,2,1,true,z,false,true,0.0-2.0-0.6-0.59-3.59,0,1,1,90,false,stim,false,1,393.79999999701977,2,0,2,69444,task3,231098,false,false,259,image-keyboard-response,12
true,3,1,2,1,true,z,false,false,0.0-2.0-0.6-0.60-3.60,0,1,1,90,false,stim,false,1,404.1000000014901,2,0,2,69444,task3,233028,false,true,262,image-keyboard-response,13
true,3,1,2,0,false,q,false,false,0.0-2.0-0.6-0.61-3.61,0,1,1,90,false,stim,true,1,1352.1000000014901,2,1,0,69444,task3,235926,false,false,265,image-keyboard-response,14
true,3,2,2,0,false,q,true,false,0.0-2.0-0.6-0.62-3.62,0,1,1,68,false,stim,false,1,499.0,2,1,0,69444,task3,237954,false,false,268,image-keyboard-response,15
true,3,1,2,1,true,z,false,true,0.0-2.0-0.7-0.63-3.63,0,1,1,90,false,stim,false,1,711.0,2,0,2,69444,task3,240189,false,false,271,image-keyboard-response,16
true,4,1,1,2,false,d,false,false,0.0-2.0-0.7-0.64-3.64,1,0,0,90,true,stim,true,1,636.5,2,0,2,69444,task3,242353,false,false,274,image-keyboard-response,1
true,4,0,1,2,false,d,false,false,0.0-2.0-0.7-0.65-3.65,1,0,0,81,false,stim,true,0,972.1000000014901,2,0,1,69444,task3,244851,false,false,277,image-keyboard-response,2
true,4,2,1,2,true,d,false,true,0.0-2.0-0.7-0.66-3.66,1,0,0,68,false,stim,false,1,1772.2999999970198,2,0,2,69444,task3,248138,false,false,280,image-keyboard-response,3
true,4,1,1,0,false,q,true,false,0.0-2.0-0.7-0.67-3.67,1,0,0,90,false,stim,false,0,1346.9000000059605,2,1,0,69444,task3,251017,false,false,283,image-keyboard-response,4
true,4,0,1,2,false,d,false,false,0.0-2.0-0.7-0.68-3.68,1,0,0,81,false,stim,true,0,1463.3999999985099,2,0,1,69444,task3,254009,false,false,286,image-keyboard-response,5
true,4,0,1,0,true,q,false,true,0.0-2.0-0.7-0.69-3.69,1,0,0,81,false,stim,false,0,1290.7999999970198,2,1,0,69444,task3,256823,false,false,289,image-keyboard-response,6
true,4,0,1,0,true,q,false,true,0.0-2.0-0.7-0.70-3.70,1,0,0,81,false,stim,false,0,602.9000000059605,2,1,0,69444,task3,258953,false,false,292,image-keyboard-response,7
true,4,2,1,2,true,d,false,true,0.0-2.0-0.7-0.71-3.71,1,0,0,68,false,stim,false,0,1293.2999999970198,2,0,1,69444,task3,261782,false,false,295,image-keyboard-response,8
true,4,2,1,2,true,d,false,true,0.0-2.0-0.8-0.72-3.72,1,0,0,68,false,stim,false,1,370.8999999985099,2,1,2,69444,task3,263679,false,false,298,image-keyboard-response,9
true,4,0,1,0,true,q,false,true,0.0-2.0-0.8-0.73-3.73,1,0,0,81,false,stim,false,0,754.3999999985099,2,0,0,69444,task3,265948,false,false,301,image-keyboard-response,10
true,4,2,1,2,true,d,false,true,0.0-2.0-0.8-0.74-3.74,1,0,0,68,false,stim,false,0,567.2000000029802,2,1,1,69444,task3,268052,false,false,304,image-keyboard-response,11
true,4,2,1,2,true,d,false,true,0.0-2.0-0.8-0.75-3.75,1,0,0,68,false,stim,false,1,380.59999999403954,2,1,2,69444,task3,269970,false,false,307,image-keyboard-response,12
true,4,0,1,0,true,q,false,true,0.0-2.0-0.8-0.76-3.76,1,0,0,81,false,stim,false,0,413.1000000014901,2,0,0,69444,task3,271908,false,false,310,image-keyboard-response,13
true,5,2,2,2,true,d,false,true,0.0-2.0-0.8-0.77-3.77,0,1,1,68,true,stim,false,2,733.5,2,1,1,69444,task3,274156,false,false,313,image-keyboard-response,1
true,5,2,2,1,false,z,true,false,0.0-2.0-0.8-0.78-3.78,0,1,1,68,false,stim,false,0,715.8999999985099,2,0,0,69444,task3,276408,false,false,316,image-keyboard-response,2
true,5,2,2,2,true,d,false,true,0.0-2.0-0.8-0.79-3.79,0,1,1,68,false,stim,false,2,1262.1000000014901,2,1,1,69444,task3,279192,false,false,319,image-keyboard-response,3
true,5,2,2,2,true,d,false,true,0.0-2.0-0.8-0.80-3.80,0,1,1,68,false,stim,false,2,579.3999999985099,2,1,2,69444,task3,281286,false,false,322,image-keyboard-response,4
true,5,2,2,2,true,d,false,true,0.0-2.0-0.9-0.81-3.81,0,1,1,68,false,stim,false,2,616.7000000029802,2,1,2,69444,task3,283444,false,false,325,image-keyboard-response,5
true,5,2,2,2,true,d,false,true,0.0-2.0-0.9-0.82-3.82,0,1,1,68,false,stim,false,2,450.0,2,1,2,69444,task3,285409,false,false,328,image-keyboard-response,6
true,5,0,2,1,false,z,false,true,0.0-2.0-0.9-0.83-3.83,0,1,1,81,false,stim,true,0,588.6000000014901,2,0,0,69444,task3,287516,false,true,331,image-keyboard-response,7
true,5,2,2,2,true,d,false,true,0.0-2.0-0.9-0.84-3.84,0,1,1,68,false,stim,false,2,421.19999999552965,2,1,1,69444,task3,289456,false,false,334,image-keyboard-response,8
true,5,0,2,1,false,z,false,false,0.0-2.0-0.9-0.85-3.85,0,1,1,81,false,stim,true,0,696.4000000059605,2,0,0,69444,task3,291675,false,false,337,image-keyboard-response,9
true,5,2,2,2,true,d,false,true,0.0-2.0-0.9-0.86-3.86,0,1,1,68,false,stim,false,2,456.6000000014901,2,1,1,69444,task3,293659,false,false,340,image-keyboard-response,10
true,5,2,2,2,true,d,false,false,0.0-2.0-0.9-0.87-3.87,0,1,1,68,false,stim,false,2,437.5,2,1,1,69444,task3,295612,false,true,343,image-keyboard-response,11
true,5,1,2,1,true,z,false,true,0.0-2.0-0.9-0.88-3.88,0,1,1,90,false,stim,false,0,748.5,2,0,0,69444,task3,297886,false,false,346,image-keyboard-response,12
true,5,2,2,2,true,d,false,true,0.0-2.0-0.9-0.89-3.89,0,1,1,68,false,stim,false,2,1897.3000000044703,2,1,2,69444,task3,301307,false,false,349,image-keyboard-response,13
true,5,2,2,2,true,d,false,true,0.0-2.0-0.10-0.90-3.90,0,1,1,68,false,stim,false,2,617.8999999985099,2,1,2,69444,task3,303460,false,false,352,image-keyboard-response,14
true,5,1,2,2,false,d,true,false,0.0-2.0-0.10-0.91-3.91,0,1,1,90,false,stim,false,2,1073.0,2,1,1,69444,task3,306059,false,false,355,image-keyboard-response,15
true,5,2,2,2,true,d,false,true,0.0-2.0-0.10-0.92-3.92,0,1,1,68,false,stim,false,2,513.5,2,1,1,69444,task3,308100,false,false,358,image-keyboard-response,16
true,5,1,2,1,true,z,false,true,0.0-2.0-0.10-0.93-3.93,0,1,1,90,false,stim,false,0,844.6999999955297,2,0,0,69444,task3,310459,false,false,361,image-keyboard-response,17
true,5,2,2,2,true,d,false,true,0.0-2.0-0.10-0.94-3.94,0,1,1,68,false,stim,false,2,566.1000000014901,2,1,2,69444,task3,312551,false,false,364,image-keyboard-response,18
true,5,1,2,1,true,z,false,true,0.0-2.0-0.10-0.95-3.95,0,1,1,90,false,stim,false,0,684.1999999955297,2,0,0,69444,task3,314758,false,false,367,image-keyboard-response,19
true,5,2,2,2,true,d,false,true,0.0-2.0-0.10-0.96-3.96,0,1,1,68,false,stim,false,2,1505.1000000014901,2,1,1,69444,task3,317798,false,false,370,image-keyboard-response,20
true,5,1,2,1,true,z,false,true,0.0-2.0-0.10-0.97-3.97,0,1,1,90,false,stim,false,0,727.8999999985099,2,0,0,69444,task3,320047,false,false,373,image-keyboard-response,21
true,5,2,2,2,true,d,false,true,0.0-2.0-0.10-0.98-3.98,0,1,1,68,false,stim,false,2,612.0,2,1,2,69444,task3,322182,false,false,376,image-keyboard-response,22
true,5,2,2,2,true,d,false,true,0.0-2.0-0.11-0.99-3.99,0,1,1,68,false,stim,false,2,823.8999999985099,2,0,1,69444,task3,324535,false,false,379,image-keyboard-response,23
true,5,2,2,2,true,d,false,true,0.0-2.0-0.11-0.100-3.100,0,1,1,68,false,stim,false,2,655.2000000029802,2,1,2,69444,task3,326696,false,false,382,image-keyboard-response,24
true,5,2,2,1,false,z,true,false,0.0-2.0-0.11-0.101-3.101,0,1,1,68,false,stim,false,0,1422.5,2,0,0,69444,task3,329645,false,false,385,image-keyboard-response,25
true,6,2,1,1,false,z,false,false,0.0-2.0-0.11-0.102-3.102,0,0,1,68,true,stim,true,2,481.19999999552965,2,0,1,69444,task3,331644,false,false,388,image-keyboard-response,1
true,6,1,1,1,true,z,false,true,0.0-2.0-0.11-0.103-3.103,0,0,1,90,false,stim,false,2,862.1000000014901,2,0,1,69444,task3,334031,false,false,391,image-keyboard-response,2
true,6,2,1,2,true,d,false,true,0.0-2.0-0.11-0.104-3.104,0,0,1,68,false,stim,false,2,809.7000000029802,2,1,2,69444,task3,336368,false,false,394,image-keyboard-response,3
true,6,1,1,0,false,q,false,true,0.0-2.0-0.11-0.105-3.105,0,0,1,90,false,stim,true,1,546.1000000014901,2,0,0,69444,task3,338434,false,true,397,image-keyboard-response,4
true,6,1,1,0,false,q,false,false,0.0-2.0-0.11-0.106-3.106,0,0,1,90,false,stim,true,1,455.29999999701977,2,0,0,69444,task3,340418,false,false,400,image-keyboard-response,5
true,6,2,1,2,true,d,false,false,0.0-2.0-0.11-0.107-3.107,0,0,1,68,false,stim,false,2,893.1000000014901,2,1,2,69444,task3,342849,false,true,403,image-keyboard-response,6
true,6,1,1,2,false,d,true,false,0.0-2.0-0.12-0.108-3.108,0,0,1,90,false,stim,false,2,1394.7000000029802,2,1,2,69444,task3,345766,false,false,406,image-keyboard-response,7
true,6,1,1,1,true,z,false,true,0.0-2.0-0.12-0.109-3.109,0,0,1,90,false,stim,false,2,1090.3000000044703,2,0,1,69444,task3,348391,false,false,409,image-keyboard-response,8
true,6,2,1,0,false,q,true,false,0.0-2.0-0.12-0.110-3.110,0,0,1,68,false,stim,false,1,1071.5,2,0,0,69444,task3,350997,false,false,412,image-keyboard-response,9
true,6,2,1,2,true,d,false,true,0.0-2.0-0.12-0.111-3.111,0,0,1,68,false,stim,false,2,1274.2000000029802,2,1,2,69444,task3,353792,false,false,415,image-keyboard-response,10
true,6,1,1,1,true,z,false,true,0.0-2.0-0.12-0.112-3.112,0,0,1,90,false,stim,false,2,512.5999999940395,2,0,1,69444,task3,355840,false,false,418,image-keyboard-response,11
true,6,1,1,1,true,z,false,true,0.0-2.0-0.12-0.113-3.113,0,0,1,90,false,stim,false,2,721.6000000014901,2,0,1,69444,task3,358093,false,false,421,image-keyboard-response,12
true,6,1,1,0,false,q,false,false,0.0-2.0-0.12-0.114-3.114,0,0,1,90,false,stim,true,1,548.6999999955297,2,0,0,69444,task3,360164,false,false,424,image-keyboard-response,13
true,6,0,1,0,true,q,false,true,0.0-2.0-0.12-0.115-3.115,0,0,1,81,false,stim,false,1,1217.3999999985099,2,0,0,69444,task3,362906,false,false,427,image-keyboard-response,14
true,6,2,1,2,true,d,false,true,0.0-2.0-0.12-0.116-3.116,0,0,1,68,false,stim,false,2,688.6999999955297,2,1,2,69444,task3,365118,false,false,430,image-keyboard-response,15
true,6,1,1,1,true,z,false,true,0.0-2.0-0.13-0.117-3.117,0,0,1,90,false,stim,false,2,428.1000000014901,2,0,1,69444,task3,367064,false,false,433,image-keyboard-response,16
true,6,0,1,0,true,q,false,false,0.0-2.0-0.13-0.118-3.118,0,0,1,81,false,stim,false,1,709.3000000044703,2,0,0,69444,task3,369301,false,true,436,image-keyboard-response,17
true,6,2,1,1,false,z,false,false,0.0-2.0-0.13-0.119-3.119,0,0,1,68,false,stim,true,2,1631.7999999970198,2,0,1,69444,task3,372469,false,false,439,image-keyboard-response,18
true,6,1,1,0,false,q,false,false,0.0-2.0-0.13-0.120-3.120,0,0,1,90,false,stim,true,1,1280.1999999955297,2,0,0,69444,task3,375282,false,false,442,image-keyboard-response,19
true,6,2,1,1,false,z,false,false,0.0-2.0-0.13-0.121-3.121,0,0,1,68,false,stim,true,2,1099.1000000014901,2,0,1,69444,task3,377911,false,false,445,image-keyboard-response,20
true,6,2,1,0,false,q,true,true,0.0-2.0-0.13-0.122-3.122,0,0,1,68,false,stim,false,1,1601.1999999955297,2,0,0,69444,task3,381038,false,true,448,image-keyboard-response,21
true,6,2,1,2,true,d,false,true,0.0-2.0-0.13-0.123-3.123,0,0,1,68,false,stim,false,2,678.1000000014901,2,1,2,69444,task3,383234,false,false,451,image-keyboard-response,22
true,6,2,1,2,true,d,false,true,0.0-2.0-0.13-0.124-3.124,0,0,1,68,false,stim,false,2,566.2999999970198,2,1,2,69444,task3,385334,false,false,454,image-keyboard-response,23
true,6,2,1,2,true,d,false,true,0.0-2.0-0.13-0.125-3.125,0,0,1,68,false,stim,false,2,468.8999999985099,2,0,2,69444,task3,387324,false,false,457,image-keyboard-response,24
true,6,2,1,2,true,d,false,true,0.0-2.0-0.14-0.126-3.126,0,0,1,68,false,stim,false,2,397.70000000298023,2,0,2,69444,task3,389235,false,false,460,image-keyboard-response,25
true,6,2,1,2,true,d,false,true,0.0-2.0-0.14-0.127-3.127,0,0,1,68,false,stim,false,2,465.79999999701977,2,0,2,69444,task3,391212,false,false,463,image-keyboard-response,26
true,6,1,1,0,false,q,false,false,0.0-2.0-0.14-0.128-3.128,0,0,1,90,false,stim,true,1,1123.0,2,1,0,69444,task3,393848,false,false,466,image-keyboard-response,27
true,6,2,1,2,true,d,false,true,0.0-2.0-0.14-0.129-3.129,0,0,1,68,false,stim,false,2,512.6000000014901,2,0,2,69444,task3,395895,false,false,469,image-keyboard-response,28
true,7,1,1,2,false,d,false,true,0.0-2.0-0.14-0.130-3.130,1,0,0,90,true,stim,true,1,771.6000000014901,2,0,1,69444,task3,398194,false,true,472,image-keyboard-response,1
true,7,2,1,0,false,q,true,false,0.0-2.0-0.14-0.131-3.131,1,0,0,68,false,stim,false,0,417.20000000298023,2,1,0,69444,task3,400130,false,false,475,image-keyboard-response,2
true,7,1,1,2,false,d,false,false,0.0-2.0-0.14-0.132-3.132,1,0,0,90,false,stim,true,1,793.1999999955297,2,0,1,69444,task3,402451,false,false,478,image-keyboard-response,3
true,7,0,1,2,false,d,true,false,0.0-2.0-0.14-0.133-3.133,1,0,0,81,false,stim,false,1,755.6999999955297,2,0,1,69444,task3,404735,false,false,481,image-keyboard-response,4
true,7,0,1,0,true,q,false,true,0.0-2.0-0.14-0.134-3.134,1,0,0,81,false,stim,false,0,1748.1000000014901,2,1,0,69444,task3,408015,false,false,484,image-keyboard-response,5
true,7,2,1,0,false,q,false,false,0.0-2.0-0.15-0.135-3.135,1,0,0,68,false,stim,true,2,1088.4000000059605,2,0,2,69444,task3,410628,false,false,487,image-keyboard-response,6
true,7,0,1,0,true,q,false,true,0.0-2.0-0.15-0.136-3.136,1,0,0,81,false,stim,false,0,913.5,2,1,0,69444,task3,413074,false,false,490,image-keyboard-response,7
true,7,1,1,0,false,q,true,false,0.0-2.0-0.15-0.137-3.137,1,0,0,90,false,stim,false,2,1149.6000000014901,2,0,2,69444,task3,415756,false,false,493,image-keyboard-response,8
true,7,0,1,0,true,q,false,false,0.0-2.0-0.15-0.138-3.138,1,0,0,81,false,stim,false,0,771.5,2,1,0,69444,task3,418066,false,true,496,image-keyboard-response,9
true,7,2,1,2,true,d,false,false,0.0-2.0-0.15-0.139-3.139,1,0,0,68,false,stim,false,1,1097.8000000044703,2,0,1,69444,task3,420698,false,true,499,image-keyboard-response,10
true,7,2,1,0,false,q,false,false,0.0-2.0-0.15-0.140-3.140,1,0,0,68,false,stim,true,2,1449.8000000044703,2,0,2,69444,task3,423674,false,false,502,image-keyboard-response,11
true,7,1,1,2,false,d,false,false,0.0-2.0-0.15-0.141-3.141,1,0,0,90,false,stim,true,1,1442.1000000014901,2,0,1,69444,task3,426636,false,false,505,image-keyboard-response,12
true,7,2,1,0,false,q,true,true,0.0-2.0-0.15-0.142-3.142,1,0,0,68,false,stim,false,0,1119.7999999970198,2,1,0,69444,task3,429266,false,true,508,image-keyboard-response,13
true,7,0,1,2,false,d,true,false,0.0-2.0-0.15-0.143-3.143,1,0,0,81,false,stim,false,1,1285.0,2,0,1,69444,task3,432078,false,false,511,image-keyboard-response,14
true,7,1,1,2,false,d,false,false,0.0-2.0-0.16-0.144-3.144,1,0,0,90,false,stim,true,1,692.6999999955297,2,0,1,69444,task3,434302,false,false,514,image-keyboard-response,15
true,7,2,1,0,false,q,true,true,0.0-2.0-0.16-0.145-3.145,1,0,0,68,false,stim,false,0,546.1999999955297,2,1,0,69444,task3,436360,false,true,517,image-keyboard-response,16
true,7,1,1,0,false,q,true,false,0.0-2.0-0.16-0.146-3.146,1,0,0,90,false,stim,false,2,1542.8999999985099,2,0,2,69444,task3,439438,false,false,520,image-keyboard-response,17
true,7,2,1,0,false,q,true,false,0.0-2.0-0.16-0.147-3.147,1,0,0,68,false,stim,false,0,630.5,2,1,0,69444,task3,441600,false,false,523,image-keyboard-response,18
true,7,1,1,0,false,q,true,false,0.0-2.0-0.16-0.148-3.148,1,0,0,90,false,stim,false,0,1266.5,2,1,0,69444,task3,444394,false,false,526,image-keyboard-response,19
true,7,2,1,0,false,q,false,false,0.0-2.0-0.16-0.149-3.149,1,0,0,68,false,stim,true,2,1910.8000000044703,2,0,2,69444,task3,447821,false,false,529,image-keyboard-response,20
true,7,2,1,2,true,d,false,true,0.0-2.0-0.16-0.150-3.150,1,0,0,68,false,stim,false,1,2545.60000000149,2,0,1,69444,task3,451877,false,false,532,image-keyboard-response,21
true,7,2,1,2,true,d,false,true,0.0-2.0-0.16-0.151-3.151,1,0,0,68,false,stim,false,1,508.40000000596046,2,0,1,69444,task3,453907,false,false,535,image-keyboard-response,22
true,7,0,1,0,true,q,false,true,0.0-2.0-0.16-0.152-3.152,1,0,0,81,false,stim,false,2,1175.2999999970198,2,0,2,69444,task3,456609,false,false,538,image-keyboard-response,23
true,7,0,1,0,true,q,false,true,0.0-2.0-0.17-0.153-3.153,1,0,0,81,false,stim,false,0,1216.6000000014901,2,1,0,69444,task3,459359,false,false,541,image-keyboard-response,24
true,7,0,1,0,true,q,false,true,0.0-2.0-0.17-0.154-3.154,1,0,0,81,false,stim,false,2,1057.8000000044703,2,1,2,69444,task3,461958,false,false,544,image-keyboard-response,25
true,7,2,1,2,true,d,false,false,0.0-2.0-0.17-0.155-3.155,1,0,0,68,false,stim,false,1,922.1000000014901,2,0,1,69444,task3,464395,false,true,547,image-keyboard-response,26
true,7,0,1,0,true,q,false,true,0.0-2.0-0.17-0.156-3.156,1,0,0,81,false,stim,false,0,333.6000000014901,2,0,0,69444,task3,466267,false,false,550,image-keyboard-response,27
true,7,2,1,0,false,q,false,false,0.0-2.0-0.17-0.157-3.157,1,0,0,68,false,stim,true,2,1516.8999999985099,2,1,2,69444,task3,469294,false,false,553,image-keyboard-response,28
true,7,0,1,2,false,d,true,false,0.0-2.0-0.17-0.158-3.158,1,0,0,81,false,stim,false,1,549.7000000029802,2,0,1,69444,task3,471386,false,false,556,image-keyboard-response,29
true,8,0,1,1,false,z,false,false,0.0-2.0-0.17-0.159-3.159,0,0,1,81,true,stim,true,0,627.3999999985099,2,0,0,69444,task3,473546,false,false,559,image-keyboard-response,1
true,8,2,1,0,false,q,true,false,0.0-2.0-0.17-0.160-3.160,0,0,1,68,false,stim,false,0,1723.8000000044703,2,1,2,69444,task3,476791,false,false,562,image-keyboard-response,2
true,8,1,1,1,true,z,false,true,0.0-2.0-0.17-0.161-3.161,0,0,1,90,false,stim,false,2,1530.5,2,0,1,69444,task3,479854,false,false,565,image-keyboard-response,3
true,8,2,1,1,false,z,true,false,0.0-2.0-0.18-0.162-3.162,0,0,1,68,false,stim,false,0,1484.3000000044703,2,0,0,69444,task3,482875,false,false,568,image-keyboard-response,4
true,8,1,1,1,true,z,false,true,0.0-2.0-0.18-0.163-3.163,0,0,1,90,false,stim,false,2,713.8000000044703,2,0,1,69444,task3,485117,false,false,571,image-keyboard-response,5
true,8,1,1,1,true,z,false,true,0.0-2.0-0.18-0.164-3.164,0,0,1,90,false,stim,false,2,626.8000000044703,2,0,1,69444,task3,487274,false,false,574,image-keyboard-response,6
true,8,0,1,1,false,z,false,false,0.0-2.0-0.18-0.165-3.165,0,0,1,81,false,stim,true,0,508.5,2,0,0,69444,task3,489303,false,false,577,image-keyboard-response,7
true,8,2,1,1,false,z,true,false,0.0-2.0-0.18-0.166-3.166,0,0,1,68,false,stim,false,0,1563.3000000044703,2,0,0,69444,task3,492383,false,false,580,image-keyboard-response,8
true,8,0,1,0,true,q,false,true,0.0-2.0-0.18-0.167-3.167,0,0,1,81,false,stim,false,0,1042.3999999985099,2,1,2,69444,task3,494940,false,false,583,image-keyboard-response,9
true,8,0,1,0,true,q,false,false,0.0-2.0-0.18-0.168-3.168,0,0,1,81,false,stim,false,0,884.5,2,1,2,69444,task3,497349,false,true,586,image-keyboard-response,10
true,8,1,1,1,true,z,false,true,0.0-2.0-0.18-0.169-3.169,0,0,1,90,false,stim,false,2,442.59999999403954,2,0,1,69444,task3,499332,false,false,589,image-keyboard-response,11
true,8,0,1,0,true,q,false,true,0.0-2.0-0.18-0.170-3.170,0,0,1,81,false,stim,false,0,1552.2999999970198,2,1,2,69444,task3,502408,false,false,592,image-keyboard-response,12
true,8,1,1,1,true,z,false,true,0.0-2.0-0.19-0.171-3.171,0,0,1,90,false,stim,false,2,858.5,2,0,1,69444,task3,504799,false,false,595,image-keyboard-response,13
true,8,1,1,1,true,z,false,true,0.0-2.0-0.19-0.172-3.172,0,0,1,90,false,stim,false,0,694.0,2,0,0,69444,task3,507017,false,false,598,image-keyboard-response,14
true,8,1,1,1,true,z,false,true,0.0-2.0-0.19-0.173-3.173,0,0,1,90,false,stim,false,0,507.8999999985099,2,0,0,69444,task3,509051,false,false,601,image-keyboard-response,15
true,8,1,1,0,false,q,true,false,0.0-2.0-0.19-0.174-3.174,0,0,1,90,false,stim,false,0,1350.3000000044703,2,1,2,69444,task3,511916,false,false,604,image-keyboard-response,16
true,8,1,1,1,true,z,false,true,0.0-2.0-0.19-0.175-3.175,0,0,1,90,false,stim,false,0,686.1999999955297,2,0,0,69444,task3,514136,false,false,607,image-keyboard-response,17
true,8,0,1,0,true,q,false,true,0.0-2.0-0.19-0.176-3.176,0,0,1,81,false,stim,false,0,831.5999999940395,2,1,2,69444,task3,516495,false,false,610,image-keyboard-response,18
true,8,1,1,1,true,z,false,true,0.0-2.0-0.19-0.177-3.177,0,0,1,90,false,stim,false,2,559.6000000014901,2,0,1,69444,task3,518579,false,false,613,image-keyboard-response,19
true,8,0,1,0,true,q,false,false,0.0-2.0-0.19-0.178-3.178,0,0,1,81,false,stim,false,0,777.6000000014901,2,1,2,69444,task3,520879,false,true,616,image-keyboard-response,20
true,8,1,1,1,true,z,false,true,0.0-2.0-0.19-0.179-3.179,0,0,1,90,false,stim,false,2,1816.9000000059605,2,0,1,69444,task3,524224,false,false,619,image-keyboard-response,21
true,8,1,1,1,true,z,false,false,0.0-2.0-0.20-0.180-3.180,0,0,1,90,false,stim,false,0,577.8999999985099,2,0,0,69444,task3,526327,false,true,622,image-keyboard-response,22
true,8,2,1,1,false,z,false,false,0.0-2.0-0.20-0.181-3.181,0,0,1,68,false,stim,true,2,982.3999999985099,2,0,1,69444,task3,528830,false,false,625,image-keyboard-response,23
true,8,0,1,0,true,q,false,true,0.0-2.0-0.20-0.182-3.182,0,0,1,81,false,stim,false,0,1682.2000000029802,2,1,2,69444,task3,532039,false,false,628,image-keyboard-response,24
true,8,2,1,1,false,z,true,false,0.0-2.0-0.20-0.183-3.183,0,0,1,68,false,stim,false,0,1633.3999999985099,2,0,0,69444,task3,535184,false,false,631,image-keyboard-response,25
true,8,0,1,1,false,z,true,false,0.0-2.0-0.20-0.184-3.184,0,0,1,81,false,stim,false,2,1380.8000000044703,2,0,1,69444,task3,538095,false,false,634,image-keyboard-response,26
true,8,0,1,0,true,q,false,false,0.0-2.0-0.20-0.185-3.185,0,0,1,81,false,stim,false,0,1095.1000000014901,2,1,2,69444,task3,540697,false,true,637,image-keyboard-response,27
true,8,1,1,1,true,z,false,true,0.0-2.0-0.20-0.186-3.186,0,0,1,90,false,stim,false,2,1065.3999999985099,2,0,1,69444,task3,543284,false,false,640,image-keyboard-response,28
true,9,1,1,2,false,d,false,false,0.0-2.0-0.20-0.187-3.187,0,0,1,90,true,stim,true,1,1931.0,2,0,0,69444,task3,546747,false,false,643,image-keyboard-response,1
true,9,1,1,0,false,q,true,false,0.0-2.0-0.20-0.188-3.188,0,0,1,90,false,stim,false,0,1279.7999999970198,2,1,2,69444,task3,549557,false,false,646,image-keyboard-response,2
true,9,0,1,2,false,d,true,false,0.0-2.0-0.21-0.189-3.189,0,0,1,81,false,stim,false,1,849.9000000059605,2,0,0,69444,task3,551923,false,false,649,image-keyboard-response,3
true,9,2,1,0,false,q,true,false,0.0-2.0-0.21-0.190-3.190,0,0,1,68,false,stim,false,0,827.9000000059605,2,1,2,69444,task3,554279,false,false,652,image-keyboard-response,4
true,9,0,1,0,true,q,false,true,0.0-2.0-0.21-0.191-3.191,0,0,1,81,false,stim,false,0,1237.6000000014901,2,1,2,69444,task3,557036,false,false,655,image-keyboard-response,5
true,9,0,1,2,false,d,true,false,0.0-2.0-0.21-0.192-3.192,0,0,1,81,false,stim,false,1,2133.39999999851,2,0,0,69444,task3,560684,false,false,658,image-keyboard-response,6
true,9,2,1,2,true,d,false,true,0.0-2.0-0.21-0.193-3.193,0,0,1,68,false,stim,false,1,1790.0999999940395,2,0,0,69444,task3,564010,false,false,661,image-keyboard-response,7
true,9,0,1,0,true,q,false,true,0.0-2.0-0.21-0.194-3.194,0,0,1,81,false,stim,false,1,1717.3999999985099,2,0,1,69444,task3,567267,false,false,664,image-keyboard-response,8
true,9,0,1,0,true,q,false,true,0.0-2.0-0.21-0.195-3.195,0,0,1,81,false,stim,false,1,463.30000000447035,2,0,1,69444,task3,569244,false,false,667,image-keyboard-response,9
true,9,0,1,0,true,q,false,true,0.0-2.0-0.21-0.196-3.196,0,0,1,81,false,stim,false,1,432.90000000596046,2,0,1,69444,task3,571210,false,false,670,image-keyboard-response,10
true,9,2,1,0,false,q,true,false,0.0-2.0-0.21-0.197-3.197,0,0,1,68,false,stim,false,0,1602.8999999985099,2,1,2,69444,task3,574333,false,false,673,image-keyboard-response,11
true,9,1,1,2,false,d,false,false,0.0-2.0-0.22-0.198-3.198,0,0,1,90,false,stim,true,1,970.7000000029802,2,0,0,69444,task3,576814,false,false,676,image-keyboard-response,12
true,9,2,1,0,false,q,true,false,0.0-2.0-0.22-0.199-3.199,0,0,1,68,false,stim,false,0,1149.8000000044703,2,1,2,69444,task3,579480,false,false,679,image-keyboard-response,13
true,9,0,1,0,true,q,false,true,0.0-2.0-0.22-0.200-3.200,0,0,1,81,false,stim,false,1,1235.0,2,0,1,69444,task3,582238,false,false,682,image-keyboard-response,14
true,9,1,1,2,false,d,false,false,0.0-2.0-0.22-0.201-3.201,0,0,1,90,false,stim,true,1,1783.8000000044703,2,0,0,69444,task3,585552,false,false,685,image-keyboard-response,15
true,9,0,1,0,true,q,false,true,0.0-2.0-0.22-0.202-3.202,0,0,1,81,false,stim,false,0,1047.2999999970198,2,1,2,69444,task3,588119,false,false,688,image-keyboard-response,16
true,9,0,1,2,false,d,true,false,0.0-2.0-0.22-0.203-3.203,0,0,1,81,false,stim,false,1,1248.0,2,0,0,69444,task3,590887,false,false,691,image-keyboard-response,17
true,9,1,1,0,false,q,false,false,0.0-2.0-0.22-0.204-3.204,0,0,1,90,false,stim,true,1,1184.0,2,0,1,69444,task3,593594,false,false,694,image-keyboard-response,18
true,9,2,1,0,false,q,true,false,0.0-2.0-0.22-0.205-3.205,0,0,1,68,false,stim,false,0,723.3999999985099,2,1,2,69444,task3,595841,false,false,697,image-keyboard-response,19
true,9,0,1,0,true,q,false,true,0.0-2.0-0.22-0.206-3.206,0,0,1,81,false,stim,false,1,2314.6999999955297,2,0,1,69444,task3,599672,false,false,700,image-keyboard-response,20
true,9,0,1,0,true,q,false,true,0.0-2.0-0.23-0.207-3.207,0,0,1,81,false,stim,false,1,850.6000000014901,2,0,1,69444,task3,602068,false,false,703,image-keyboard-response,21
true,9,2,1,2,true,d,false,true,0.0-2.0-0.23-0.208-3.208,0,0,1,68,false,stim,false,1,2922.9000000059605,2,1,0,69444,task3,606504,false,false,706,image-keyboard-response,22
true,9,2,1,2,true,d,false,true,0.0-2.0-0.23-0.209-3.209,0,0,1,68,false,stim,false,1,448.70000000298023,2,1,0,69444,task3,608481,false,false,709,image-keyboard-response,23
true,9,2,1,2,true,d,false,true,0.0-2.0-0.23-0.210-3.210,0,0,1,68,false,stim,false,1,546.2000000029802,2,1,0,69444,task3,610556,false,false,712,image-keyboard-response,24
true,10,0,2,1,false,z,false,false,0.0-2.0-0.23-0.211-3.211,1,0,1,81,true,stim,true,0,718.2000000029802,2,0,1,69444,task3,612809,false,false,715,image-keyboard-response,1
true,10,0,2,0,true,q,false,true,0.0-2.0-0.23-0.212-3.212,1,0,1,81,false,stim,false,0,1840.0,2,1,2,69444,task3,616174,false,false,718,image-keyboard-response,2
true,10,0,2,0,true,q,false,true,0.0-2.0-0.23-0.213-3.213,1,0,1,81,false,stim,false,0,604.0,2,1,2,69444,task3,618311,false,false,721,image-keyboard-response,3
true,10,0,2,0,true,q,false,true,0.0-2.0-0.23-0.214-3.214,1,0,1,81,false,stim,false,0,423.6000000014901,2,1,2,69444,task3,620261,false,false,724,image-keyboard-response,4
true,10,2,2,1,false,z,true,false,0.0-2.0-0.23-0.215-3.215,1,0,1,68,false,stim,false,0,1990.8000000044703,2,0,1,69444,task3,623781,false,false,727,image-keyboard-response,5
true,10,2,2,2,true,d,false,true,0.0-2.0-0.24-0.216-3.216,1,0,1,68,false,stim,false,2,529.0,2,1,0,69444,task3,625831,false,false,730,image-keyboard-response,6
true,10,2,2,2,true,d,false,true,0.0-2.0-0.24-0.217-3.217,1,0,1,68,false,stim,false,2,770.5,2,1,0,69444,task3,628127,false,false,733,image-keyboard-response,7
true,10,2,2,2,true,d,false,true,0.0-2.0-0.24-0.218-3.218,1,0,1,68,false,stim,false,2,433.69999999552965,2,0,0,69444,task3,630095,false,false,736,image-keyboard-response,8
true,10,0,2,0,true,q,false,false,0.0-2.0-0.24-0.219-3.219,1,0,1,81,false,stim,false,0,415.0,2,0,2,69444,task3,632039,false,true,739,image-keyboard-response,9
true,10,1,2,0,false,q,true,false,0.0-2.0-0.24-0.220-3.220,1,0,1,90,false,stim,false,0,658.6000000014901,2,0,2,69444,task3,634220,false,false,742,image-keyboard-response,10
true,10,0,2,1,false,z,false,false,0.0-2.0-0.24-0.221-3.221,1,0,1,81,false,stim,true,0,1738.7999999970198,2,1,1,69444,task3,637491,false,false,745,image-keyboard-response,11
true,10,2,2,0,false,q,true,false,0.0-2.0-0.24-0.222-3.222,1,0,1,68,false,stim,false,0,1385.2000000029802,2,0,2,69444,task3,640414,false,false,748,image-keyboard-response,12
true,11,2,1,1,false,z,true,false,0.0-2.0-0.24-0.223-3.223,0,1,0,68,true,stim,false,1,2094.39999999851,2,1,1,69444,task3,644030,false,false,751,image-keyboard-response,1
true,11,1,1,1,true,z,false,true,0.0-2.0-0.24-0.224-3.224,0,1,0,90,false,stim,false,1,884.0,2,1,1,69444,task3,646446,false,false,754,image-keyboard-response,2
true,11,1,1,1,true,z,false,true,0.0-2.0-0.25-0.225-3.225,0,1,0,90,false,stim,false,1,447.0,2,1,1,69444,task3,648418,false,false,757,image-keyboard-response,3
true,11,2,1,1,false,z,false,true,0.0-2.0-0.25-0.226-3.226,0,1,0,68,false,stim,true,2,798.0,2,0,0,69444,task3,650727,false,true,760,image-keyboard-response,4
true,11,1,1,1,true,z,false,true,0.0-2.0-0.25-0.227-3.227,0,1,0,90,false,stim,false,1,662.8000000044703,2,1,1,69444,task3,652931,false,false,763,image-keyboard-response,5
true,11,2,1,1,false,z,true,false,0.0-2.0-0.25-0.228-3.228,0,1,0,68,false,stim,false,1,2112.7999999970198,2,1,1,69444,task3,656586,false,false,766,image-keyboard-response,6
true,11,0,1,2,false,d,false,false,0.0-2.0-0.25-0.229-3.229,0,1,0,81,false,stim,true,0,1777.0,2,0,2,69444,task3,659883,false,false,769,image-keyboard-response,7
true,11,1,1,2,false,d,true,false,0.0-2.0-0.25-0.230-3.230,0,1,0,90,false,stim,false,0,432.6000000014901,2,0,2,69444,task3,661847,false,false,772,image-keyboard-response,8
true,11,2,1,1,false,z,false,false,0.0-2.0-0.25-0.231-3.231,0,1,0,68,false,stim,true,2,1044.1000000014901,2,0,0,69444,task3,664412,false,false,775,image-keyboard-response,9
true,11,2,1,2,true,d,false,true,0.0-2.0-0.25-0.232-3.232,0,1,0,68,false,stim,false,0,890.0,2,0,2,69444,task3,666826,false,false,778,image-keyboard-response,10
true,11,1,1,1,true,z,false,true,0.0-2.0-0.25-0.233-3.233,0,1,0,90,false,stim,false,2,498.8999999985099,2,0,0,69444,task3,668841,false,false,781,image-keyboard-response,11
true,11,2,1,1,false,z,true,false,0.0-2.0-0.26-0.234-3.234,0,1,0,68,false,stim,false,1,486.5,2,1,1,69444,task3,670834,false,false,784,image-keyboard-response,12
true,11,2,1,2,true,d,false,true,0.0-2.0-0.26-0.235-3.235,0,1,0,68,false,stim,false,0,868.8000000044703,2,0,2,69444,task3,673228,false,false,787,image-keyboard-response,13
true,11,1,1,1,true,z,false,true,0.0-2.0-0.26-0.236-3.236,0,1,0,90,false,stim,false,2,477.5,2,0,0,69444,task3,675232,false,false,790,image-keyboard-response,14
true,11,2,1,2,true,d,false,true,0.0-2.0-0.26-0.237-3.237,0,1,0,68,false,stim,false,0,664.7000000029802,2,0,2,69444,task3,677424,false,false,793,image-keyboard-response,15
true,11,1,1,1,true,z,false,true,0.0-2.0-0.26-0.238-3.238,0,1,0,90,false,stim,false,1,449.59999999403954,2,1,1,69444,task3,679404,false,false,796,image-keyboard-response,16
true,11,1,1,1,true,z,false,true,0.0-2.0-0.26-0.239-3.239,0,1,0,90,false,stim,false,1,870.7999999970198,2,1,1,69444,task3,681805,false,false,799,image-keyboard-response,17
true,11,2,1,1,false,z,false,false,0.0-2.0-0.26-0.240-3.240,0,1,0,68,false,stim,true,2,1937.7999999970198,2,0,0,69444,task3,685279,false,false,802,image-keyboard-response,18
true,11,1,1,1,true,z,false,true,0.0-2.0-0.26-0.241-3.241,0,1,0,90,false,stim,false,2,502.69999999552965,2,0,0,69444,task3,687316,false,false,805,image-keyboard-response,19
true,11,2,1,2,true,d,false,true,0.0-2.0-0.26-0.242-3.242,0,1,0,68,false,stim,false,0,2106.0,2,0,2,69444,task3,690942,false,false,808,image-keyboard-response,20
true,11,1,1,1,true,z,false,true,0.0-2.0-0.27-0.243-3.243,0,1,0,90,false,stim,false,1,443.3999999985099,2,1,1,69444,task3,692914,false,false,811,image-keyboard-response,21
true,11,1,1,1,true,z,false,true,0.0-2.0-0.27-0.244-3.244,0,1,0,90,false,stim,false,2,579.6999999955297,2,0,0,69444,task3,695006,false,false,814,image-keyboard-response,22
true,11,2,1,2,true,d,false,true,0.0-2.0-0.27-0.245-3.245,0,1,0,68,false,stim,false,0,671.1000000014901,2,1,2,69444,task3,697191,false,false,817,image-keyboard-response,23
true,11,1,1,1,true,z,false,false,0.0-2.0-0.27-0.246-3.246,0,1,0,90,false,stim,false,2,627.8999999985099,2,0,0,69444,task3,699353,false,true,820,image-keyboard-response,24
true,11,2,1,2,true,d,false,true,0.0-2.0-0.27-0.247-3.247,0,1,0,68,false,stim,false,0,1931.2999999970198,2,1,2,69444,task3,702816,false,false,823,image-keyboard-response,25
true,12,1,2,1,true,z,false,true,0.0-2.0-0.27-0.248-3.248,0,1,1,90,true,stim,false,1,1352.4000000059605,2,1,1,69444,task3,705693,false,false,826,image-keyboard-response,1
true,12,1,2,1,true,z,false,true,0.0-2.0-0.27-0.249-3.249,0,1,1,90,false,stim,false,1,610.7999999970198,2,1,1,69444,task3,707832,false,false,829,image-keyboard-response,2
true,12,2,2,2,true,d,false,true,0.0-2.0-0.27-0.250-3.250,0,1,1,68,false,stim,false,2,947.3999999985099,2,1,2,69444,task3,710310,false,false,832,image-keyboard-response,3
true,12,1,2,2,false,d,false,true,0.0-2.0-0.27-0.251-3.251,0,1,1,90,false,stim,true,1,917.3999999985099,2,0,0,69444,task3,712758,false,true,835,image-keyboard-response,4
true,12,1,2,2,false,d,false,false,0.0-2.0-0.28-0.252-3.252,0,1,1,90,false,stim,true,1,465.3999999985099,2,0,0,69444,task3,714750,false,false,838,image-keyboard-response,5
true,12,1,2,1,true,z,false,true,0.0-2.0-0.28-0.253-3.253,0,1,1,90,false,stim,false,1,1833.1999999955297,2,1,1,69444,task3,718104,false,false,841,image-keyboard-response,6
true,12,2,2,2,true,d,false,true,0.0-2.0-0.28-0.254-3.254,0,1,1,68,false,stim,false,1,1206.5,2,1,0,69444,task3,720837,false,false,844,image-keyboard-response,7
true,12,2,2,2,true,d,false,true,0.0-2.0-0.28-0.255-3.255,0,1,1,68,false,stim,false,2,580.0,2,0,2,69444,task3,722952,false,false,847,image-keyboard-response,8
true,12,2,2,2,true,d,false,true,0.0-2.0-0.28-0.256-3.256,0,1,1,68,false,stim,false,2,572.6999999955297,2,0,2,69444,task3,725048,false,false,850,image-keyboard-response,9
true,12,1,2,1,true,z,false,true,0.0-2.0-0.28-0.257-3.257,0,1,1,90,false,stim,false,1,1009.0,2,0,1,69444,task3,727587,false,false,853,image-keyboard-response,10
true,12,2,2,2,true,d,false,false,0.0-2.0-0.28-0.258-3.258,0,1,1,68,false,stim,false,1,395.5,2,1,0,69444,task3,729521,false,true,856,image-keyboard-response,11
true,13,1,1,0,false,q,true,false,0.0-2.0-0.28-0.259-3.259,1,0,0,90,true,stim,false,2,1254.6999999955297,2,0,2,69444,task3,732293,false,false,859,image-keyboard-response,1
true,13,1,1,2,false,d,false,false,0.0-2.0-0.28-0.260-3.260,1,0,0,90,false,stim,true,1,862.7999999970198,2,0,1,69444,task3,734686,false,false,862,image-keyboard-response,2
true,13,2,1,2,true,d,false,true,0.0-2.0-0.29-0.261-3.261,1,0,0,68,false,stim,false,1,312.80000000447035,2,0,1,69444,task3,736527,false,false,865,image-keyboard-response,3
true,13,2,1,0,false,q,false,false,0.0-2.0-0.29-0.262-3.262,1,0,0,68,false,stim,true,2,481.30000000447035,2,0,2,69444,task3,738542,false,false,868,image-keyboard-response,4
true,13,2,1,2,true,d,false,true,0.0-2.0-0.29-0.263-3.263,1,0,0,68,false,stim,false,2,503.70000000298023,2,1,0,69444,task3,740578,false,false,871,image-keyboard-response,5
true,13,2,1,2,true,d,false,true,0.0-2.0-0.29-0.264-3.264,1,0,0,68,false,stim,false,2,458.30000000447035,2,1,0,69444,task3,742570,false,false,874,image-keyboard-response,6
true,13,2,1,2,true,d,false,true,0.0-2.0-0.29-0.265-3.265,1,0,0,68,false,stim,false,2,505.8999999985099,2,1,0,69444,task3,744614,false,false,877,image-keyboard-response,7
true,13,2,1,2,true,d,false,true,0.0-2.0-0.29-0.266-3.266,1,0,0,68,false,stim,false,1,767.2000000029802,2,0,1,69444,task3,746896,false,false,880,image-keyboard-response,8
true,13,1,1,0,false,q,true,false,0.0-2.0-0.29-0.267-3.267,1,0,0,90,false,stim,false,2,1226.9000000059605,2,0,2,69444,task3,749631,false,false,883,image-keyboard-response,9
true,13,0,1,0,true,q,false,false,0.0-2.0-0.29-0.268-3.268,1,0,0,81,false,stim,false,2,627.2999999970198,2,0,2,69444,task3,751795,false,true,886,image-keyboard-response,10
true,13,2,1,2,true,d,false,true,0.0-2.0-0.29-0.269-3.269,1,0,0,68,false,stim,false,1,791.4000000059605,2,0,1,69444,task3,754118,false,false,889,image-keyboard-response,11
true,13,2,1,2,true,d,false,true,0.0-2.0-0.30-0.270-3.270,1,0,0,68,false,stim,false,1,482.20000000298023,2,0,1,69444,task3,756137,false,false,892,image-keyboard-response,12
true,13,2,1,2,true,d,false,true,0.0-2.0-0.30-0.271-3.271,1,0,0,68,false,stim,false,1,515.3999999985099,2,0,1,69444,task3,758178,false,false,895,image-keyboard-response,13
true,13,1,1,2,false,d,true,false,0.0-2.0-0.30-0.272-3.272,1,0,0,90,false,stim,false,2,625.8999999985099,2,1,0,69444,task3,760326,false,false,898,image-keyboard-response,14
true,13,2,1,2,true,d,false,true,0.0-2.0-0.30-0.273-3.273,1,0,0,68,false,stim,false,2,378.40000000596046,2,1,0,69444,task3,762241,false,false,901,image-keyboard-response,15
true,13,2,1,0,false,q,false,false,0.0-2.0-0.30-0.274-3.274,1,0,0,68,false,stim,true,2,1963.6999999955297,2,0,2,69444,task3,765727,false,false,904,image-keyboard-response,16
true,13,2,1,2,true,d,false,true,0.0-2.0-0.30-0.275-3.275,1,0,0,68,false,stim,false,2,867.7999999970198,2,1,0,69444,task3,768121,false,false,907,image-keyboard-response,17
true,13,1,1,0,false,q,true,false,0.0-2.0-0.30-0.276-3.276,1,0,0,90,false,stim,false,2,2105.60000000149,2,0,2,69444,task3,771749,false,false,910,image-keyboard-response,18
true,13,0,1,0,true,q,false,true,0.0-2.0-0.30-0.277-3.277,1,0,0,81,false,stim,false,2,658.5,2,0,2,69444,task3,773932,false,false,913,image-keyboard-response,19
true,13,2,1,2,true,d,false,true,0.0-2.0-0.30-0.278-3.278,1,0,0,68,false,stim,false,1,1330.2000000029802,2,1,1,69444,task3,776782,false,false,916,image-keyboard-response,20
true,13,0,1,0,true,q,false,true,0.0-2.0-0.31-0.279-3.279,1,0,0,81,false,stim,false,2,1010.1000000014901,2,0,2,69444,task3,779317,false,false,919,image-keyboard-response,21
true,13,0,1,0,true,q,false,true,0.0-2.0-0.31-0.280-3.280,1,0,0,81,false,stim,false,2,876.5,2,0,2,69444,task3,781709,false,false,922,image-keyboard-response,22
true,13,2,1,2,true,d,false,true,0.0-2.0-0.31-0.281-3.281,1,0,0,68,false,stim,false,1,455.0,2,1,1,69444,task3,783692,false,false,925,image-keyboard-response,23
true,13,1,1,2,false,d,true,false,0.0-2.0-0.31-0.282-3.282,1,0,0,90,false,stim,false,2,1170.6000000014901,2,1,0,69444,task3,786381,false,false,928,image-keyboard-response,24
true,14,0,2,1,false,z,false,false,0.0-2.0-0.31-0.283-3.283,1,1,0,81,true,stim,true,0,802.9000000059605,2,0,2,69444,task3,788719,false,false,931,image-keyboard-response,1
true,14,2,2,2,true,d,false,true,0.0-2.0-0.31-0.284-3.284,1,1,0,68,false,stim,false,2,1855.7999999970198,2,1,1,69444,task3,792091,false,false,934,image-keyboard-response,2
true,14,2,2,2,true,d,false,true,0.0-2.0-0.31-0.285-3.285,1,1,0,68,false,stim,false,2,1277.8999999985099,2,1,0,69444,task3,794891,false,false,937,image-keyboard-response,3
true,14,2,2,2,true,d,false,true,0.0-2.0-0.31-0.286-3.286,1,1,0,68,false,stim,false,2,1481.0,2,1,1,69444,task3,797902,false,false,940,image-keyboard-response,4
true,14,2,2,2,true,d,false,true,0.0-2.0-0.31-0.287-3.287,1,1,0,68,false,stim,false,2,812.8999999985099,2,1,0,69444,task3,800225,false,false,943,image-keyboard-response,5
true,14,2,2,2,true,d,false,true,0.0-2.0-0.32-0.288-3.288,1,1,0,68,false,stim,false,2,1043.6000000014901,2,1,1,69444,task3,802811,false,false,946,image-keyboard-response,6
true,14,1,2,1,true,z,false,true,0.0-2.0-0.32-0.289-3.289,1,1,0,90,false,stim,false,0,2615.60000000149,2,0,2,69444,task3,806947,false,false,949,image-keyboard-response,7
true,14,2,2,2,true,d,false,true,0.0-2.0-0.32-0.290-3.290,1,1,0,68,false,stim,false,2,506.5,2,1,0,69444,task3,808983,false,false,952,image-keyboard-response,8
true,14,2,2,2,true,d,false,true,0.0-2.0-0.32-0.291-3.291,1,1,0,68,false,stim,false,2,539.3999999985099,2,1,1,69444,task3,811042,false,false,955,image-keyboard-response,9
true,14,2,2,2,true,d,false,true,0.0-2.0-0.32-0.292-3.292,1,1,0,68,false,stim,false,2,609.0,2,1,1,69444,task3,813170,false,false,958,image-keyboard-response,10
true,14,1,2,1,true,z,false,true,0.0-2.0-0.32-0.293-3.293,1,1,0,90,false,stim,false,0,507.1000000014901,2,1,2,69444,task3,815191,false,false,961,image-keyboard-response,11
true,14,1,2,1,true,z,false,true,0.0-2.0-0.32-0.294-3.294,1,1,0,90,false,stim,false,0,1003.9000000059605,2,1,2,69444,task3,817704,false,false,964,image-keyboard-response,12
true,14,2,2,2,true,d,false,true,0.0-2.0-0.32-0.295-3.295,1,1,0,68,false,stim,false,2,589.7999999970198,2,0,0,69444,task3,819821,false,false,967,image-keyboard-response,13
true,14,2,2,2,true,d,false,true,0.0-2.0-0.32-0.296-3.296,1,1,0,68,false,stim,false,2,619.0,2,0,0,69444,task3,821969,false,false,970,image-keyboard-response,14
true,15,2,2,2,true,d,false,true,0.0-2.0-0.33-0.297-3.297,0,1,1,68,true,stim,false,2,1640.1000000014901,2,1,1,69444,task3,825129,false,false,973,image-keyboard-response,1
true,15,2,2,1,false,z,true,false,0.0-2.0-0.33-0.298-3.298,0,1,1,68,false,stim,false,1,1556.5999999940395,2,1,2,69444,task3,828223,false,false,976,image-keyboard-response,2
true,15,0,2,1,false,z,true,false,0.0-2.0-0.33-0.299-3.299,0,1,1,81,false,stim,false,1,1495.6000000014901,2,1,2,69444,task3,831254,false,false,979,image-keyboard-response,3
true,15,2,2,2,true,d,false,true,0.0-2.0-0.33-0.300-3.300,0,1,1,68,false,stim,false,2,1220.1999999955297,2,1,1,69444,task3,834003,false,false,982,image-keyboard-response,4
true,15,2,2,2,true,d,false,true,0.0-2.0-0.33-0.301-3.301,0,1,1,68,false,stim,false,2,621.1999999955297,2,1,1,69444,task3,836158,false,false,985,image-keyboard-response,5
true,15,2,2,0,false,q,false,false,0.0-2.0-0.33-0.302-3.302,0,1,1,68,false,stim,true,2,1504.7999999970198,2,0,0,69444,task3,839189,false,false,988,image-keyboard-response,6
true,15,1,2,0,false,q,true,false,0.0-2.0-0.33-0.303-3.303,0,1,1,90,false,stim,false,2,820.3000000044703,2,0,0,69444,task3,841540,false,false,991,image-keyboard-response,7
true,15,0,2,0,true,q,false,true,0.0-2.0-0.33-0.304-3.304,0,1,1,81,false,stim,false,2,1026.1000000014901,2,0,0,69444,task3,844092,false,false,994,image-keyboard-response,8
true,15,2,2,1,false,z,true,false,0.0-2.0-0.33-0.305-3.305,0,1,1,68,false,stim,false,1,1148.7000000029802,2,0,2,69444,task3,846768,false,false,997,image-keyboard-response,9
true,15,1,2,1,true,z,false,true,0.0-2.0-0.34-0.306-3.306,0,1,1,90,false,stim,false,1,398.70000000298023,2,0,2,69444,task3,848690,false,false,1000,image-keyboard-response,10
true,15,1,2,1,true,z,false,true,0.0-2.0-0.34-0.307-3.307,0,1,1,90,false,stim,false,1,393.30000000447035,2,0,2,69444,task3,850615,false,false,1003,image-keyboard-response,11
true,15,0,2,2,false,d,true,false,0.0-2.0-0.34-0.308-3.308,0,1,1,81,false,stim,false,2,1482.7000000029802,2,0,1,69444,task3,853631,false,false,1006,image-keyboard-response,12
true,15,0,2,0,true,q,false,true,0.0-2.0-0.34-0.309-3.309,0,1,1,81,false,stim,false,2,2014.8000000044703,2,1,0,69444,task3,857170,false,false,1009,image-keyboard-response,13
true,16,0,1,0,true,q,false,true,0.0-2.0-0.34-0.310-3.310,1,0,0,81,true,stim,false,0,595.5,2,1,0,69444,task3,859288,false,false,1012,image-keyboard-response,1
true,16,0,1,0,true,q,false,false,0.0-2.0-0.34-0.311-3.311,1,0,0,81,false,stim,false,2,694.9000000059605,2,0,1,69444,task3,861513,false,true,1015,image-keyboard-response,2
true,16,1,1,2,false,d,false,false,0.0-2.0-0.34-0.312-3.312,1,0,0,90,false,stim,true,1,856.5,2,0,2,69444,task3,863900,false,false,1018,image-keyboard-response,3
true,16,0,1,0,true,q,false,true,0.0-2.0-0.34-0.313-3.313,1,0,0,81,false,stim,false,0,648.7000000029802,2,1,0,69444,task3,866067,false,false,1021,image-keyboard-response,4
true,16,0,1,0,true,q,false,true,0.0-2.0-0.34-0.314-3.314,1,0,0,81,false,stim,false,2,749.1000000014901,2,0,1,69444,task3,868331,false,false,1024,image-keyboard-response,5
true,16,1,1,2,false,d,false,false,0.0-2.0-0.35-0.315-3.315,1,0,0,90,false,stim,true,1,448.1000000014901,2,0,2,69444,task3,870314,false,false,1027,image-keyboard-response,6
true,16,0,1,0,true,q,false,true,0.0-2.0-0.35-0.316-3.316,1,0,0,81,false,stim,false,2,652.8000000044703,2,0,1,69444,task3,872489,false,false,1030,image-keyboard-response,7
true,16,0,1,0,true,q,false,true,0.0-2.0-0.35-0.317-3.317,1,0,0,81,false,stim,false,2,465.70000000298023,2,0,1,69444,task3,874490,false,false,1033,image-keyboard-response,8
true,16,0,1,2,false,d,true,true,0.0-2.0-0.35-0.318-3.318,1,0,0,81,false,stim,false,1,472.3999999985099,2,0,2,69444,task3,876484,false,true,1036,image-keyboard-response,9
true,16,0,1,0,true,q,false,true,0.0-2.0-0.35-0.319-3.319,1,0,0,81,false,stim,false,0,363.20000000298023,2,1,0,69444,task3,878379,false,false,1039,image-keyboard-response,10
true,16,0,1,0,true,q,false,true,0.0-2.0-0.35-0.320-3.320,1,0,0,81,false,stim,false,0,526.8999999985099,2,1,0,69444,task3,880426,false,false,1042,image-keyboard-response,11
true,16,0,1,0,true,q,false,false,0.0-2.0-0.35-0.321-3.321,1,0,0,81,false,stim,false,0,515.1000000014901,2,1,0,69444,task3,882471,false,true,1045,image-keyboard-response,12
true,16,0,1,0,true,q,false,false,0.0-2.0-0.35-0.322-3.322,1,0,0,81,false,stim,false,2,387.70000000298023,2,0,1,69444,task3,884385,false,true,1048,image-keyboard-response,13
true,16,0,1,2,false,d,true,false,0.0-2.0-0.35-0.323-3.323,1,0,0,81,false,stim,false,1,400.1000000014901,2,0,2,69444,task3,886318,false,false,1051,image-keyboard-response,14
true,16,1,1,0,false,q,true,false,0.0-2.0-0.36-0.324-3.324,1,0,0,90,false,stim,false,0,479.80000000447035,2,1,0,69444,task3,888313,false,false,1054,image-keyboard-response,15
true,16,2,1,0,false,q,true,false,0.0-2.0-0.36-0.325-3.325,1,0,0,68,false,stim,false,0,896.0,2,1,0,69444,task3,890738,false,false,1057,image-keyboard-response,16
true,16,0,1,0,true,q,false,true,0.0-2.0-0.36-0.326-3.326,1,0,0,81,false,stim,false,0,548.1000000014901,2,1,0,69444,task3,892805,false,false,1060,image-keyboard-response,17
true,16,1,1,0,false,q,true,false,0.0-2.0-0.36-0.327-3.327,1,0,0,90,false,stim,false,2,1497.0,2,0,1,69444,task3,895838,false,false,1063,image-keyboard-response,18
true,16,2,1,2,true,d,false,true,0.0-2.0-0.36-0.328-3.328,1,0,0,68,false,stim,false,1,591.6999999955297,2,0,2,69444,task3,897966,false,false,1066,image-keyboard-response,19
true,16,2,1,0,false,q,false,false,0.0-2.0-0.36-0.329-3.329,1,0,0,68,false,stim,true,2,764.7999999970198,2,0,1,69444,task3,900249,false,false,1069,image-keyboard-response,20
true,16,0,1,0,true,q,false,true,0.0-2.0-0.36-0.330-3.330,1,0,0,81,false,stim,false,2,640.0,2,0,1,69444,task3,902430,false,false,1072,image-keyboard-response,21
true,16,2,1,2,true,d,false,true,0.0-2.0-0.36-0.331-3.331,1,0,0,68,false,stim,false,1,717.5,2,0,2,69444,task3,904668,false,false,1075,image-keyboard-response,22
true,16,2,1,2,true,d,false,true,0.0-2.0-0.36-0.332-3.332,1,0,0,68,false,stim,false,1,548.6000000014901,2,0,2,69444,task3,906742,false,false,1078,image-keyboard-response,23
true,16,2,1,2,true,d,false,true,0.0-2.0-0.37-0.333-3.333,1,0,0,68,false,stim,false,1,415.1000000014901,2,0,2,69444,task3,908685,false,false,1081,image-keyboard-response,24
true,16,2,1,2,true,d,false,true,0.0-2.0-0.37-0.334-3.334,1,0,0,68,false,stim,false,1,528.2000000029802,2,0,2,69444,task3,910755,false,false,1084,image-keyboard-response,25
true,16,0,1,0,true,q,false,true,0.0-2.0-0.37-0.335-3.335,1,0,0,81,false,stim,false,2,1078.1000000014901,2,1,1,69444,task3,913360,false,false,1087,image-keyboard-response,26
true,16,0,1,0,true,q,false,true,0.0-2.0-0.37-0.336-3.336,1,0,0,81,false,stim,false,0,652.5,2,0,0,69444,task3,915539,false,false,1090,image-keyboard-response,27
true,16,2,1,2,true,d,false,true,0.0-2.0-0.37-0.337-3.337,1,0,0,68,false,stim,false,1,711.1000000014901,2,0,2,69444,task3,917771,false,false,1093,image-keyboard-response,28
true,17,0,1,1,false,z,false,false,0.0-2.0-0.37-0.338-3.338,0,1,0,81,true,stim,true,0,637.5,2,0,0,69444,task3,919922,false,false,1096,image-keyboard-response,1
true,17,0,1,0,true,q,false,true,0.0-2.0-0.37-0.339-3.339,0,1,0,81,false,stim,false,0,461.8999999985099,2,1,1,69444,task3,921926,false,false,1099,image-keyboard-response,2
true,17,0,1,0,true,q,false,true,0.0-2.0-0.37-0.340-3.340,0,1,0,81,false,stim,false,0,520.3999999985099,2,1,1,69444,task3,923978,false,false,1102,image-keyboard-response,3
true,17,1,1,1,true,z,false,true,0.0-2.0-0.37-0.341-3.341,0,1,0,90,false,stim,false,0,1040.7000000029802,2,0,0,69444,task3,926541,false,false,1105,image-keyboard-response,4
true,17,1,1,1,true,z,false,false,0.0-2.0-0.38-0.342-3.342,0,1,0,90,false,stim,false,0,658.7000000029802,2,0,0,69444,task3,928718,false,true,1108,image-keyboard-response,5
true,17,0,1,0,true,q,false,true,0.0-2.0-0.38-0.343-3.343,0,1,0,81,false,stim,false,0,550.2999999970198,2,1,1,69444,task3,930789,false,false,1111,image-keyboard-response,6
true,17,0,1,0,true,q,false,true,0.0-2.0-0.38-0.344-3.344,0,1,0,81,false,stim,false,0,694.3999999985099,2,1,1,69444,task3,933015,false,false,1114,image-keyboard-response,7
true,17,2,1,0,false,q,false,false,0.0-2.0-0.38-0.345-3.345,0,1,0,68,false,stim,true,2,854.6999999955297,2,0,2,69444,task3,935384,false,false,1117,image-keyboard-response,8
true,17,2,1,1,false,z,true,false,0.0-2.0-0.38-0.346-3.346,0,1,0,68,false,stim,false,0,1579.3000000044703,2,0,0,69444,task3,938480,false,false,1120,image-keyboard-response,9
true,17,1,1,1,true,z,false,true,0.0-2.0-0.38-0.347-3.347,0,1,0,90,false,stim,false,0,536.6000000014901,2,0,0,69444,task3,940540,false,false,1123,image-keyboard-response,10
true,17,2,1,0,false,q,false,false,0.0-2.0-0.38-0.348-3.348,0,1,0,68,false,stim,true,2,836.8999999985099,2,0,2,69444,task3,942898,false,false,1126,image-keyboard-response,11
true,17,0,1,0,true,q,false,true,0.0-2.0-0.38-0.349-3.349,0,1,0,81,false,stim,false,2,741.6999999955297,2,0,2,69444,task3,945169,false,false,1129,image-keyboard-response,12
true,17,2,1,0,false,q,true,false,0.0-2.0-0.38-0.350-3.350,0,1,0,68,false,stim,false,0,1694.8999999985099,2,1,1,69444,task3,948396,false,false,1132,image-keyboard-response,13
true,17,0,1,0,true,q,false,false,0.0-2.0-0.39-0.351-3.351,0,1,0,81,false,stim,false,0,453.69999999552965,2,1,1,69444,task3,950380,false,true,1135,image-keyboard-response,14
true,17,1,1,1,true,z,false,true,0.0-2.0-0.39-0.352-3.352,0,1,0,90,false,stim,false,0,1151.1000000014901,2,0,0,69444,task3,953069,false,false,1138,image-keyboard-response,15
true,17,0,1,0,true,q,false,true,0.0-2.0-0.39-0.353-3.353,0,1,0,81,false,stim,false,2,721.3000000044703,2,0,2,69444,task3,955325,false,false,1141,image-keyboard-response,16
true,17,0,1,0,true,q,false,true,0.0-2.0-0.39-0.354-3.354,0,1,0,81,false,stim,false,2,612.3999999985099,2,0,2,69444,task3,957462,false,false,1144,image-keyboard-response,17
true,17,1,1,0,false,q,true,false,0.0-2.0-0.39-0.355-3.355,0,1,0,90,false,stim,false,0,627.9000000059605,2,1,1,69444,task3,959634,false,false,1147,image-keyboard-response,18
true,17,2,1,0,false,q,true,false,0.0-2.0-0.39-0.356-3.356,0,1,0,68,false,stim,false,0,1073.5,2,1,1,69444,task3,962237,false,false,1150,image-keyboard-response,19
true,17,0,1,0,true,q,false,true,0.0-2.0-0.39-0.357-3.357,0,1,0,81,false,stim,false,2,735.1000000014901,2,1,2,69444,task3,964509,false,false,1153,image-keyboard-response,20
true,17,0,1,1,false,z,false,false,0.0-2.0-0.39-0.358-3.358,0,1,0,81,false,stim,true,0,397.6000000014901,2,0,0,69444,task3,966436,false,false,1156,image-keyboard-response,21
true,17,1,1,1,true,z,false,true,0.0-2.0-0.39-0.359-3.359,0,1,0,90,false,stim,false,0,875.5,2,0,0,69444,task3,968836,false,false,1159,image-keyboard-response,22
true,17,1,1,1,true,z,false,false,0.0-2.0-0.40-0.360-3.360,0,1,0,90,false,stim,false,0,521.2999999970198,2,0,0,69444,task3,970890,false,true,1162,image-keyboard-response,23
true,17,0,1,0,true,q,false,true,0.0-2.0-0.40-0.361-3.361,0,1,0,81,false,stim,false,2,506.5,2,1,2,69444,task3,972927,false,false,1165,image-keyboard-response,24
true,18,0,1,0,true,q,false,true,0.0-2.0-0.40-0.362-3.362,0,0,1,81,true,stim,false,0,419.29999999701977,2,1,2,69444,task3,974864,false,false,1168,image-keyboard-response,1
true,18,2,1,0,false,q,true,false,0.0-2.0-0.40-0.363-3.363,0,0,1,68,false,stim,false,1,879.3000000044703,2,0,0,69444,task3,977273,false,false,1171,image-keyboard-response,2
true,18,0,1,0,true,q,false,true,0.0-2.0-0.40-0.364-3.364,0,0,1,81,false,stim,false,1,1029.3999999985099,2,0,0,69444,task3,979829,false,false,1174,image-keyboard-response,3
true,18,0,1,1,false,z,false,false,0.0-2.0-0.40-0.365-3.365,0,0,1,81,false,stim,true,0,882.0,2,0,1,69444,task3,982246,false,false,1177,image-keyboard-response,4
true,18,2,1,0,false,q,true,false,0.0-2.0-0.40-0.366-3.366,0,0,1,68,false,stim,false,0,1407.1999999955297,2,1,2,69444,task3,985168,false,false,1180,image-keyboard-response,5
true,18,0,1,1,false,z,false,true,0.0-2.0-0.40-0.367-3.367,0,0,1,81,false,stim,true,0,706.8000000044703,2,0,1,69444,task3,987399,false,true,1183,image-keyboard-response,6
true,18,0,1,1,false,z,false,false,0.0-2.0-0.40-0.368-3.368,0,0,1,81,false,stim,true,0,605.1000000014901,2,0,1,69444,task3,989528,false,false,1186,image-keyboard-response,7
true,18,1,1,1,true,z,false,true,0.0-2.0-0.41-0.369-3.369,0,0,1,90,false,stim,false,0,1185.7999999970198,2,1,1,69444,task3,992234,false,false,1189,image-keyboard-response,8
true,18,0,1,0,true,q,false,true,0.0-2.0-0.41-0.370-3.370,0,0,1,81,false,stim,false,0,1088.2000000029802,2,0,2,69444,task3,994847,false,false,1192,image-keyboard-response,9
true,18,0,1,0,true,q,false,true,0.0-2.0-0.41-0.371-3.371,0,0,1,81,false,stim,false,0,606.3000000044703,2,0,2,69444,task3,996977,false,false,1195,image-keyboard-response,10
true,18,0,1,0,true,q,false,true,0.0-2.0-0.41-0.372-3.372,0,0,1,81,false,stim,false,1,1625.8999999985099,2,1,0,69444,task3,1000122,false,false,1198,image-keyboard-response,11
true,18,1,1,1,true,z,false,true,0.0-2.0-0.41-0.373-3.373,0,0,1,90,false,stim,false,0,852.8000000044703,2,1,1,69444,task3,1002516,false,false,1201,image-keyboard-response,12
true,19,0,2,1,false,z,false,false,0.0-2.0-0.41-0.374-3.374,1,1,0,81,true,stim,true,0,412.80000000447035,2,0,2,69444,task3,1004453,false,false,1204,image-keyboard-response,1
true,19,1,2,1,true,z,false,true,0.0-2.0-0.41-0.375-3.375,1,1,0,90,false,stim,false,1,538.5,2,1,1,69444,task3,1006504,false,false,1207,image-keyboard-response,2
true,19,0,2,0,true,q,false,false,0.0-2.0-0.41-0.376-3.376,1,1,0,81,false,stim,false,0,408.5,2,1,0,69444,task3,1008443,false,true,1210,image-keyboard-response,3
true,19,1,2,0,false,q,true,false,0.0-2.0-0.41-0.377-3.377,1,1,0,90,false,stim,false,0,1257.0,2,1,0,69444,task3,1011219,false,false,1213,image-keyboard-response,4
true,19,1,2,1,true,z,false,true,0.0-2.0-0.42-0.378-3.378,1,1,0,90,false,stim,false,0,2272.7000000029802,2,0,2,69444,task3,1015032,false,false,1216,image-keyboard-response,5
true,19,1,2,1,true,z,false,true,0.0-2.0-0.42-0.379-3.379,1,1,0,90,false,stim,false,1,383.69999999552965,2,1,1,69444,task3,1016936,false,false,1219,image-keyboard-response,6
true,19,1,2,0,false,q,true,true,0.0-2.0-0.42-0.380-3.380,1,1,0,90,false,stim,false,0,522.2000000029802,2,1,0,69444,task3,1018975,false,true,1222,image-keyboard-response,7
true,19,1,2,0,false,q,true,false,0.0-2.0-0.42-0.381-3.381,1,1,0,90,false,stim,false,0,423.5,2,1,0,69444,task3,1020919,false,false,1225,image-keyboard-response,8
true,19,1,2,1,true,z,false,true,0.0-2.0-0.42-0.382-3.382,1,1,0,90,false,stim,false,0,876.8999999985099,2,0,2,69444,task3,1023316,false,false,1228,image-keyboard-response,9
true,19,1,2,1,true,z,false,true,0.0-2.0-0.42-0.383-3.383,1,1,0,90,false,stim,false,1,601.8999999985099,2,1,1,69444,task3,1025452,false,false,1231,image-keyboard-response,10
true,19,2,2,0,false,q,true,false,0.0-2.0-0.42-0.384-3.384,1,1,0,68,false,stim,false,0,438.0,2,0,0,69444,task3,1027423,false,false,1234,image-keyboard-response,11
true,19,1,2,1,true,z,false,true,0.0-2.0-0.42-0.385-3.385,1,1,0,90,false,stim,false,1,377.5,2,1,1,69444,task3,1029332,false,false,1237,image-keyboard-response,12
true,19,1,2,1,true,z,false,true,0.0-2.0-0.42-0.386-3.386,1,1,0,90,false,stim,false,0,438.6000000014901,2,1,2,69444,task3,1031317,false,false,1240,image-keyboard-response,13
true,19,0,2,0,true,q,false,true,0.0-2.0-0.43-0.387-3.387,1,1,0,81,false,stim,false,0,1069.3999999985099,2,0,0,69444,task3,1033919,false,false,1243,image-keyboard-response,14
true,19,0,2,0,true,q,false,true,0.0-2.0-0.43-0.388-3.388,1,1,0,81,false,stim,false,0,625.3000000044703,2,0,0,69444,task3,1036077,false,false,1246,image-keyboard-response,15
true,20,0,2,2,false,d,false,false,0.0-2.0-0.43-0.389-3.389,0,1,1,81,true,stim,true,0,559.5,2,0,0,69444,task3,1038159,false,false,1249,image-keyboard-response,1
true,20,1,2,1,true,z,false,true,0.0-2.0-0.43-0.390-3.390,0,1,1,90,false,stim,false,1,564.8000000044703,2,1,2,69444,task3,1040256,false,false,1252,image-keyboard-response,2
true,20,1,2,1,true,z,false,true,0.0-2.0-0.43-0.391-3.391,0,1,1,90,false,stim,false,1,398.79999999701977,2,1,2,69444,task3,1042182,false,false,1255,image-keyboard-response,3
true,20,1,2,1,true,z,false,false,0.0-2.0-0.43-0.392-3.392,0,1,1,90,false,stim,false,1,573.5,2,1,1,69444,task3,1044285,false,true,1258,image-keyboard-response,4
true,20,2,2,1,false,z,true,false,0.0-2.0-0.43-0.393-3.393,0,1,1,68,false,stim,false,1,893.6000000014901,2,1,1,69444,task3,1046708,false,false,1261,image-keyboard-response,5
true,20,1,2,1,true,z,false,true,0.0-2.0-0.43-0.394-3.394,0,1,1,90,false,stim,false,1,997.1999999955297,2,1,2,69444,task3,1049226,false,false,1264,image-keyboard-response,6
true,20,1,2,1,true,z,false,true,0.0-2.0-0.43-0.395-3.395,0,1,1,90,false,stim,false,1,1198.1999999955297,2,1,1,69444,task3,1051956,false,false,1267,image-keyboard-response,7
true,20,0,2,2,false,d,false,false,0.0-2.0-0.44-0.396-3.396,0,1,1,81,false,stim,true,0,1255.7999999970198,2,0,0,69444,task3,1054739,false,false,1270,image-keyboard-response,8
true,20,1,2,2,false,d,true,false,0.0-2.0-0.44-0.397-3.397,0,1,1,90,false,stim,false,0,992.6000000014901,2,0,0,69444,task3,1057257,false,false,1273,image-keyboard-response,9
true,20,1,2,1,true,z,false,true,0.0-2.0-0.44-0.398-3.398,0,1,1,90,false,stim,false,1,1198.6999999955297,2,0,2,69444,task3,1059985,false,false,1276,image-keyboard-response,10
true,20,1,2,1,true,z,false,true,0.0-2.0-0.44-0.399-3.399,0,1,1,90,false,stim,false,1,481.0,2,0,2,69444,task3,1061993,false,false,1279,image-keyboard-response,11
true,20,1,2,1,true,z,false,true,0.0-2.0-0.44-0.400-3.400,0,1,1,90,false,stim,false,1,427.0,2,0,1,69444,task3,1063934,false,false,1282,image-keyboard-response,12
true,20,1,2,1,true,z,false,true,0.0-2.0-0.44-0.401-3.401,0,1,1,90,false,stim,false,1,1538.6000000014901,2,0,2,69444,task3,1066996,false,false,1285,image-keyboard-response,13
true,20,1,2,1,true,z,false,true,0.0-2.0-0.44-0.402-3.402,0,1,1,90,false,stim,false,1,1286.5,2,0,1,69444,task3,1069808,false,false,1288,image-keyboard-response,14
true,21,2,1,2,true,d,false,true,0.0-2.0-0.44-0.403-3.403,1,0,0,68,true,stim,false,2,1072.2000000029802,2,1,0,69444,task3,1072403,false,false,1291,image-keyboard-response,1
true,21,1,1,0,false,q,false,false,0.0-2.0-0.44-0.404-3.404,1,0,0,90,false,stim,true,1,402.80000000447035,2,0,1,69444,task3,1074330,false,false,1294,image-keyboard-response,2
true,21,2,1,2,true,d,false,true,0.0-2.0-0.45-0.405-3.405,1,0,0,68,false,stim,false,2,716.0,2,1,0,69444,task3,1076568,false,false,1297,image-keyboard-response,3
true,21,2,1,2,true,d,false,true,0.0-2.0-0.45-0.406-3.406,1,0,0,68,false,stim,false,2,664.0,2,1,0,69444,task3,1078756,false,false,1300,image-keyboard-response,4
true,21,0,1,0,true,q,false,false,0.0-2.0-0.45-0.407-3.407,1,0,0,81,false,stim,false,1,501.8999999985099,2,0,1,69444,task3,1080794,false,true,1303,image-keyboard-response,5
true,21,2,1,0,false,q,true,false,0.0-2.0-0.45-0.408-3.408,1,0,0,68,false,stim,false,1,1029.6000000014901,2,0,1,69444,task3,1083343,false,false,1306,image-keyboard-response,6
true,21,2,1,2,true,d,false,true,0.0-2.0-0.45-0.409-3.409,1,0,0,68,false,stim,false,2,897.1999999955297,2,1,0,69444,task3,1085770,false,false,1309,image-keyboard-response,7
true,21,1,1,2,false,d,false,false,0.0-2.0-0.45-0.410-3.410,1,0,0,90,false,stim,true,1,1799.1000000014901,2,0,2,69444,task3,1089100,false,false,1312,image-keyboard-response,8
true,21,0,1,2,false,d,true,false,0.0-2.0-0.45-0.411-3.411,1,0,0,81,false,stim,false,1,562.8999999985099,2,0,2,69444,task3,1091187,false,false,1315,image-keyboard-response,9
true,21,2,1,2,true,d,false,true,0.0-2.0-0.45-0.412-3.412,1,0,0,68,false,stim,false,1,464.70000000298023,2,0,2,69444,task3,1093179,false,false,1318,image-keyboard-response,10
true,21,2,1,0,false,q,true,false,0.0-2.0-0.45-0.413-3.413,1,0,0,68,false,stim,false,1,1520.6000000014901,2,0,1,69444,task3,1096238,false,false,1321,image-keyboard-response,11
true,21,1,1,0,false,q,false,false,0.0-2.0-0.46-0.414-3.414,1,0,0,90,false,stim,true,1,777.6000000014901,2,0,1,69444,task3,1098537,false,false,1324,image-keyboard-response,12
true,21,2,1,2,true,d,false,true,0.0-2.0-0.46-0.415-3.415,1,0,0,68,false,stim,false,1,860.6000000014901,2,0,2,69444,task3,1100924,false,false,1327,image-keyboard-response,13
true,21,2,1,2,true,d,false,true,0.0-2.0-0.46-0.416-3.416,1,0,0,68,false,stim,false,1,576.6000000014901,2,0,2,69444,task3,1103032,false,false,1330,image-keyboard-response,14
true,21,1,1,2,false,d,true,false,0.0-2.0-0.46-0.417-3.417,1,0,0,90,false,stim,false,2,1693.0999999940395,2,1,0,69444,task3,1106251,false,false,1333,image-keyboard-response,15
true,21,2,1,0,false,q,true,false,0.0-2.0-0.46-0.418-3.418,1,0,0,68,false,stim,false,1,1378.7999999970198,2,0,1,69444,task3,1109166,false,false,1336,image-keyboard-response,16
true,21,2,1,2,true,d,false,true,0.0-2.0-0.46-0.419-3.419,1,0,0,68,false,stim,false,1,832.1000000014901,2,0,2,69444,task3,1111522,false,false,1339,image-keyboard-response,17
true,21,0,1,2,false,d,true,false,0.0-2.0-0.46-0.420-3.420,1,0,0,81,false,stim,false,2,1737.1000000014901,2,1,0,69444,task3,1114777,false,false,1342,image-keyboard-response,18
true,21,1,1,2,false,d,true,false,0.0-2.0-0.46-0.421-3.421,1,0,0,90,false,stim,false,2,720.3000000044703,2,1,0,69444,task3,1117019,false,false,1345,image-keyboard-response,19
true,21,2,1,0,false,q,true,true,0.0-2.0-0.46-0.422-3.422,1,0,0,68,false,stim,false,1,1776.0,2,0,1,69444,task3,1120322,false,true,1348,image-keyboard-response,20
true,21,2,1,0,false,q,true,false,0.0-2.0-0.47-0.423-3.423,1,0,0,68,false,stim,false,1,562.1000000014901,2,0,1,69444,task3,1122404,false,false,1351,image-keyboard-response,21
true,21,2,1,2,true,d,false,true,0.0-2.0-0.47-0.424-3.424,1,0,0,68,false,stim,false,1,428.0,2,0,2,69444,task3,1124375,false,false,1354,image-keyboard-response,22
true,21,2,1,2,true,d,false,true,0.0-2.0-0.47-0.425-3.425,1,0,0,68,false,stim,false,1,618.4000000059605,2,0,2,69444,task3,1126520,false,false,1357,image-keyboard-response,23
true,21,2,1,2,true,d,false,false,0.0-2.0-0.47-0.426-3.426,1,0,0,68,false,stim,false,1,559.6999999955297,2,0,2,69444,task3,1128606,false,true,1360,image-keyboard-response,24
true,21,1,1,2,false,d,true,false,0.0-2.0-0.47-0.427-3.427,1,0,0,90,false,stim,false,2,1833.2000000029802,2,1,0,69444,task3,1131968,false,false,1363,image-keyboard-response,25
true,21,0,1,2,false,d,true,true,0.0-2.0-0.47-0.428-3.428,1,0,0,81,false,stim,false,2,655.6000000014901,2,1,0,69444,task3,1134153,false,true,1366,image-keyboard-response,26
true,21,0,1,0,true,q,false,true,0.0-2.0-0.47-0.429-3.429,1,0,0,81,false,stim,false,1,876.3999999985099,2,1,1,69444,task3,1136567,false,false,1369,image-keyboard-response,27
true,21,0,1,2,false,d,true,false,0.0-2.0-0.47-0.430-3.430,1,0,0,81,false,stim,false,2,438.70000000298023,2,1,0,69444,task3,1138536,false,false,1372,image-keyboard-response,28
true,22,0,2,0,true,q,false,true,0.0-2.0-0.47-0.431-3.431,1,1,0,81,true,stim,false,0,366.79999999701977,2,1,1,69444,task3,1140417,false,false,1375,image-keyboard-response,1
true,22,0,2,1,false,z,true,false,0.0-2.0-0.48-0.432-3.432,1,1,0,81,false,stim,false,2,1359.6999999955297,2,0,2,69444,task3,1143313,false,false,1378,image-keyboard-response,2
true,22,1,2,1,true,z,false,true,0.0-2.0-0.48-0.433-3.433,1,1,0,90,false,stim,false,2,682.7000000029802,2,0,2,69444,task3,1145534,false,false,1381,image-keyboard-response,3
true,22,0,2,0,true,q,false,true,0.0-2.0-0.48-0.434-3.434,1,1,0,81,false,stim,false,0,823.0,2,1,1,69444,task3,1147883,false,false,1384,image-keyboard-response,4
true,22,0,2,0,true,q,false,true,0.0-2.0-0.48-0.435-3.435,1,1,0,81,false,stim,false,0,516.7999999970198,2,1,1,69444,task3,1149928,false,false,1387,image-keyboard-response,5
true,22,0,2,2,false,d,true,false,0.0-2.0-0.48-0.436-3.436,1,1,0,81,false,stim,false,2,786.2000000029802,2,1,0,69444,task3,1152255,false,false,1390,image-keyboard-response,6
true,22,1,2,1,true,z,false,true,0.0-2.0-0.48-0.437-3.437,1,1,0,90,false,stim,false,2,869.8999999985099,2,0,2,69444,task3,1154649,false,false,1393,image-keyboard-response,7
true,22,0,2,0,true,q,false,true,0.0-2.0-0.48-0.438-3.438,1,1,0,81,false,stim,false,0,633.6000000014901,2,1,1,69444,task3,1156816,false,false,1396,image-keyboard-response,8
true,22,2,2,2,true,d,false,true,0.0-2.0-0.48-0.439-3.439,1,1,0,68,false,stim,false,2,1042.6999999955297,2,1,0,69444,task3,1159386,false,false,1399,image-keyboard-response,9
true,22,2,2,2,true,d,false,true,0.0-2.0-0.48-0.440-3.440,1,1,0,68,false,stim,false,2,630.5,2,1,0,69444,task3,1161554,false,false,1402,image-keyboard-response,10
true,22,0,2,1,false,z,true,true,0.0-2.0-0.49-0.441-3.441,1,1,0,81,false,stim,false,2,1381.1000000014901,2,1,2,69444,task3,1164455,false,true,1405,image-keyboard-response,11
true,22,2,2,2,true,d,false,true,0.0-2.0-0.49-0.442-3.442,1,1,0,68,false,stim,false,2,508.3999999985099,2,0,0,69444,task3,1166489,false,false,1408,image-keyboard-response,12
true,22,0,2,1,false,z,true,false,0.0-2.0-0.49-0.443-3.443,1,1,0,81,false,stim,false,2,900.8999999985099,2,1,2,69444,task3,1168923,false,false,1411,image-keyboard-response,13
true,22,1,2,1,true,z,false,true,0.0-2.0-0.49-0.444-3.444,1,1,0,90,false,stim,false,2,1094.3999999985099,2,1,2,69444,task3,1171542,false,false,1414,image-keyboard-response,14
true,22,2,2,2,true,d,false,false,0.0-2.0-0.49-0.445-3.445,1,1,0,68,false,stim,false,2,962.3999999985099,2,0,0,69444,task3,1174029,false,true,1417,image-keyboard-response,15
true,23,0,1,1,false,z,true,false,0.0-2.0-0.49-0.446-3.446,0,0,1,81,true,stim,false,2,460.90000000596046,2,0,0,69444,task3,1176023,false,false,1420,image-keyboard-response,1
true,23,2,1,2,true,d,false,true,0.0-2.0-0.49-0.447-3.447,0,0,1,68,false,stim,false,0,1491.1000000014901,2,0,1,69444,task3,1179042,false,false,1423,image-keyboard-response,2
true,23,2,1,2,true,d,false,true,0.0-2.0-0.49-0.448-3.448,0,0,1,68,false,stim,false,0,605.4000000059605,2,0,1,69444,task3,1181178,false,false,1426,image-keyboard-response,3
true,23,2,1,2,true,d,false,true,0.0-2.0-0.49-0.449-3.449,0,0,1,68,false,stim,false,0,547.1000000014901,2,0,1,69444,task3,1183246,false,false,1429,image-keyboard-response,4
true,23,2,1,2,true,d,false,true,0.0-2.0-0.50-0.450-3.450,0,0,1,68,false,stim,false,0,453.09999999403954,2,0,1,69444,task3,1185231,false,false,1432,image-keyboard-response,5
true,23,1,1,1,true,z,false,true,0.0-2.0-0.50-0.451-3.451,0,0,1,90,false,stim,false,1,997.1999999955297,2,1,2,69444,task3,1187744,false,false,1435,image-keyboard-response,6
true,23,2,1,2,true,d,false,true,0.0-2.0-0.50-0.452-3.452,0,0,1,68,false,stim,false,0,534.8999999985099,2,0,1,69444,task3,1189802,false,false,1438,image-keyboard-response,7
true,23,1,1,1,true,z,false,false,0.0-2.0-0.50-0.453-3.453,0,0,1,90,false,stim,false,2,1431.7999999970198,2,0,0,69444,task3,1192759,false,true,1441,image-keyboard-response,8
true,23,1,1,1,true,z,false,true,0.0-2.0-0.50-0.454-3.454,0,0,1,90,false,stim,false,1,1384.0,2,1,2,69444,task3,1195674,false,false,1444,image-keyboard-response,9
true,23,0,1,1,false,z,true,false,0.0-2.0-0.50-0.455-3.455,0,0,1,81,false,stim,false,2,1667.9000000059605,2,0,0,69444,task3,1198869,false,false,1447,image-keyboard-response,10
true,23,2,1,2,true,d,false,false,0.0-2.0-0.50-0.456-3.456,0,0,1,68,false,stim,false,0,1382.8999999985099,2,0,1,69444,task3,1201765,false,true,1450,image-keyboard-response,11
true,23,2,1,1,false,z,false,false,0.0-2.0-0.50-0.457-3.457,0,0,1,68,false,stim,true,2,1759.5,2,0,0,69444,task3,1205037,false,false,1453,image-keyboard-response,12
true,23,1,1,1,true,z,false,true,0.0-2.0-0.50-0.458-3.458,0,0,1,90,false,stim,false,1,1435.2000000029802,2,1,2,69444,task3,1207999,false,false,1456,image-keyboard-response,13
true,23,1,1,1,true,z,false,true,0.0-2.0-0.51-0.459-3.459,0,0,1,90,false,stim,false,1,749.2999999970198,2,1,2,69444,task3,1210275,false,false,1459,image-keyboard-response,14
true,23,2,1,2,true,d,false,true,0.0-2.0-0.51-0.460-3.460,0,0,1,68,false,stim,false,0,431.19999999552965,2,0,1,69444,task3,1212224,false,false,1462,image-keyboard-response,15
true,23,1,1,1,true,z,false,true,0.0-2.0-0.51-0.461-3.461,0,0,1,90,false,stim,false,2,1196.2000000029802,2,0,0,69444,task3,1214947,false,false,1465,image-keyboard-response,16
true,23,1,1,1,true,z,false,true,0.0-2.0-0.51-0.462-3.462,0,0,1,90,false,stim,false,1,1860.3999999985099,2,1,2,69444,task3,1218342,false,false,1468,image-keyboard-response,17
true,23,1,1,1,true,z,false,true,0.0-2.0-0.51-0.463-3.463,0,0,1,90,false,stim,false,1,566.0,2,1,2,69444,task3,1220430,false,false,1471,image-keyboard-response,18
true,23,1,1,1,true,z,false,true,0.0-2.0-0.51-0.464-3.464,0,0,1,90,false,stim,false,2,2148.6999999955297,2,0,0,69444,task3,1224094,false,false,1474,image-keyboard-response,19
true,23,2,1,2,true,d,false,true,0.0-2.0-0.51-0.465-3.465,0,0,1,68,false,stim,false,0,474.40000000596046,2,0,1,69444,task3,1226095,false,false,1477,image-keyboard-response,20
true,23,1,1,1,true,z,false,true,0.0-2.0-0.51-0.466-3.466,0,0,1,90,false,stim,false,2,521.8000000044703,2,0,0,69444,task3,1228144,false,false,1480,image-keyboard-response,21
true,23,1,1,2,false,d,true,false,0.0-2.0-0.51-0.467-3.467,0,0,1,90,false,stim,false,0,478.8999999985099,2,0,1,69444,task3,1230157,false,false,1483,image-keyboard-response,22
true,23,2,1,2,true,d,false,true,0.0-2.0-0.52-0.468-3.468,0,0,1,68,false,stim,false,0,699.1999999955297,2,0,1,69444,task3,1232397,false,false,1486,image-keyboard-response,23
true,23,1,1,1,true,z,false,true,0.0-2.0-0.52-0.469-3.469,0,0,1,90,false,stim,false,1,555.3999999985099,2,1,2,69444,task3,1234477,false,false,1489,image-keyboard-response,24
true,23,1,1,1,true,z,false,true,0.0-2.0-0.52-0.470-3.470,0,0,1,90,false,stim,false,2,1140.3999999985099,2,0,0,69444,task3,1237155,false,false,1492,image-keyboard-response,25
true,23,1,1,1,true,z,false,true,0.0-2.0-0.52-0.471-3.471,0,0,1,90,false,stim,false,2,1173.6000000014901,2,1,0,69444,task3,1239861,false,false,1495,image-keyboard-response,26
true,23,1,1,1,true,z,false,true,0.0-2.0-0.52-0.472-3.472,0,0,1,90,false,stim,false,1,1779.7000000029802,2,1,2,69444,task3,1243173,false,false,1498,image-keyboard-response,27
true,23,2,1,2,true,d,false,true,0.0-2.0-0.52-0.473-3.473,0,0,1,68,false,stim,false,0,659.2000000029802,2,0,1,69444,task3,1245375,false,false,1501,image-keyboard-response,28
true,23,1,1,1,true,z,false,true,0.0-2.0-0.52-0.474-3.474,0,0,1,90,false,stim,false,2,552.6000000014901,2,1,0,69444,task3,1247451,false,false,1504,image-keyboard-response,29
true,23,1,1,1,true,z,false,true,0.0-2.0-0.52-0.475-3.475,0,0,1,90,false,stim,false,1,1329.0,2,1,2,69444,task3,1250309,false,false,1507,image-keyboard-response,30
true,24,2,2,0,false,q,false,true,0.0-2.0-0.52-0.476-3.476,1,0,1,68,true,stim,true,2,674.6000000014901,2,0,1,69444,task3,1252510,false,true,1510,image-keyboard-response,1
true,24,1,2,1,true,z,false,true,0.0-2.0-0.53-0.477-3.477,1,0,1,90,false,stim,false,1,1613.1000000014901,2,1,0,69444,task3,1255654,false,false,1513,image-keyboard-response,2
true,24,1,2,1,true,z,false,true,0.0-2.0-0.53-0.478-3.478,1,0,1,90,false,stim,false,1,817.1000000014901,2,1,0,69444,task3,1258002,false,false,1516,image-keyboard-response,3
true,24,1,2,1,true,z,false,false,0.0-2.0-0.53-0.479-3.479,1,0,1,90,false,stim,false,1,574.1000000014901,2,1,0,69444,task3,1260112,false,true,1519,image-keyboard-response,4
true,24,2,2,0,false,q,false,false,0.0-2.0-0.53-0.480-3.480,1,0,1,68,false,stim,true,2,1356.0,2,0,1,69444,task3,1262991,false,false,1522,image-keyboard-response,5
true,24,1,2,0,false,q,true,true,0.0-2.0-0.53-0.481-3.481,1,0,1,90,false,stim,false,2,1023.8999999985099,2,0,1,69444,task3,1265542,false,true,1525,image-keyboard-response,6
true,24,1,2,1,true,z,false,true,0.0-2.0-0.53-0.482-3.482,1,0,1,90,false,stim,false,1,1878.7999999970198,2,1,2,69444,task3,1268948,false,false,1528,image-keyboard-response,7
true,24,1,2,0,false,q,true,false,0.0-2.0-0.53-0.483-3.483,1,0,1,90,false,stim,false,2,500.6000000014901,2,0,1,69444,task3,1270980,false,false,1531,image-keyboard-response,8
true,24,1,2,1,true,z,false,true,0.0-2.0-0.53-0.484-3.484,1,0,1,90,false,stim,false,1,639.6999999955297,2,1,2,69444,task3,1273162,false,false,1534,image-keyboard-response,9
true,24,1,2,1,true,z,false,true,0.0-2.0-0.53-0.485-3.485,1,0,1,90,false,stim,false,1,511.6000000014901,2,1,2,69444,task3,1275203,false,false,1537,image-keyboard-response,10
true,24,1,2,1,true,z,false,true,0.0-2.0-0.54-0.486-3.486,1,0,1,90,false,stim,false,1,349.5,2,1,2,69444,task3,1277083,false,false,1540,image-keyboard-response,11
true,24,0,2,1,false,z,true,false,0.0-2.0-0.54-0.487-3.487,1,0,1,81,false,stim,false,1,1043.0,2,0,0,69444,task3,1279659,false,false,1543,image-keyboard-response,12
true,24,1,2,1,true,z,false,true,0.0-2.0-0.54-0.488-3.488,1,0,1,90,false,stim,false,1,1391.7000000029802,2,1,2,69444,task3,1282573,false,false,1546,image-keyboard-response,13
true,24,1,2,0,false,q,true,false,0.0-2.0-0.54-0.489-3.489,1,0,1,90,false,stim,false,2,2059.0,2,1,1,69444,task3,1286164,false,false,1549,image-keyboard-response,14
true,24,1,2,1,true,z,false,true,0.0-2.0-0.54-0.490-3.490,1,0,1,90,false,stim,false,1,654.0999999940395,2,1,2,69444,task3,1288341,false,false,1552,image-keyboard-response,15
true,24,1,2,1,true,z,false,true,0.0-2.0-0.54-0.491-3.491,1,0,1,90,false,stim,false,1,1252.2000000029802,2,0,0,69444,task3,1291128,false,false,1555,image-keyboard-response,16
true,25,1,2,0,false,q,false,false,0.0-2.0-0.54-0.492-3.492,0,1,1,90,true,stim,true,1,527.5,2,0,0,69444,task3,1293164,false,false,1558,image-keyboard-response,1
true,25,2,2,0,false,q,true,false,0.0-2.0-0.54-0.493-3.493,0,1,1,68,false,stim,false,0,1276.7999999970198,2,1,1,69444,task3,1295956,false,false,1561,image-keyboard-response,2
true,25,0,2,0,true,q,false,true,0.0-2.0-0.54-0.494-3.494,0,1,1,81,false,stim,false,0,488.69999999552965,2,1,1,69444,task3,1297980,false,false,1564,image-keyboard-response,3
true,25,1,2,0,false,q,false,false,0.0-2.0-0.55-0.495-3.495,0,1,1,90,false,stim,true,1,530.8000000044703,2,0,0,69444,task3,1300043,false,false,1567,image-keyboard-response,4
true,25,2,2,0,false,q,true,false,0.0-2.0-0.55-0.496-3.496,0,1,1,68,false,stim,false,1,1257.7000000029802,2,0,0,69444,task3,1302826,false,false,1570,image-keyboard-response,5
true,25,1,2,1,true,z,false,true,0.0-2.0-0.55-0.497-3.497,0,1,1,90,false,stim,false,1,656.0,2,1,2,69444,task3,1305013,false,false,1573,image-keyboard-response,6
true,25,0,2,0,true,q,false,true,0.0-2.0-0.55-0.498-3.498,0,1,1,81,false,stim,false,0,674.3999999985099,2,1,1,69444,task3,1307207,false,false,1576,image-keyboard-response,7
true,25,1,2,1,true,z,false,true,0.0-2.0-0.55-0.499-3.499,0,1,1,90,false,stim,false,1,592.5,2,1,2,69444,task3,1309325,false,false,1579,image-keyboard-response,8
true,25,0,2,0,true,q,false,true,0.0-2.0-0.55-0.500-3.500,0,1,1,81,false,stim,false,0,1035.8000000044703,2,1,1,69444,task3,1311887,false,false,1582,image-keyboard-response,9
true,25,0,2,0,true,q,false,true,0.0-2.0-0.55-0.501-3.501,0,1,1,81,false,stim,false,0,505.1000000014901,2,1,1,69444,task3,1313907,false,false,1585,image-keyboard-response,10
true,25,1,2,1,true,z,false,true,0.0-2.0-0.55-0.502-3.502,0,1,1,90,false,stim,false,1,827.2999999970198,2,1,2,69444,task3,1316258,false,false,1588,image-keyboard-response,11
true,25,0,2,0,true,q,false,true,0.0-2.0-0.55-0.503-3.503,0,1,1,81,false,stim,false,1,982.0,2,1,0,69444,task3,1318769,false,false,1591,image-keyboard-response,12
true,26,1,0,0,false,q,true,false,0.0-2.0-0.56-0.504-3.504,1,1,1,90,true,stim,false,0,1855.0999999940395,2,1,0,69444,task3,1364555,false,false,1637,image-keyboard-response,1
true,26,0,0,0,true,q,false,true,0.0-2.0-0.56-0.505-3.505,1,1,1,81,false,stim,false,0,1258.5,2,1,1,69444,task3,1367344,false,false,1640,image-keyboard-response,2
true,26,1,0,1,true,z,false,true,0.0-2.0-0.56-0.506-3.506,1,1,1,90,false,stim,false,1,1060.5,2,1,2,69444,task3,1369933,false,false,1643,image-keyboard-response,3
true,26,0,0,0,true,q,false,true,0.0-2.0-0.56-0.507-3.507,1,1,1,81,false,stim,false,0,481.90000000596046,2,1,1,69444,task3,1371935,false,false,1646,image-keyboard-response,4
true,26,0,0,0,true,q,false,true,0.0-2.0-0.56-0.508-3.508,1,1,1,81,false,stim,false,0,377.80000000447035,2,1,0,69444,task3,1373837,false,false,1649,image-keyboard-response,5
true,26,0,0,0,true,q,false,true,0.0-2.0-0.56-0.509-3.509,1,1,1,81,false,stim,false,0,587.1000000014901,2,1,1,69444,task3,1375954,false,false,1652,image-keyboard-response,6
true,26,1,0,1,true,z,false,false,0.0-2.0-0.56-0.510-3.510,1,1,1,90,false,stim,false,1,403.3999999985099,2,1,2,69444,task3,1377895,false,true,1655,image-keyboard-response,7
true,26,2,0,1,false,z,true,false,0.0-2.0-0.56-0.511-3.511,1,1,1,68,false,stim,false,1,947.8999999985099,2,0,2,69444,task3,1380377,false,false,1658,image-keyboard-response,8
true,26,0,0,0,true,q,false,true,0.0-2.0-0.56-0.512-3.512,1,1,1,81,false,stim,false,0,413.29999999701977,2,1,0,69444,task3,1382320,false,false,1661,image-keyboard-response,9
true,26,0,0,0,true,q,false,true,0.0-2.0-0.57-0.513-3.513,1,1,1,81,false,stim,false,0,481.8999999985099,2,0,1,69444,task3,1384336,false,false,1664,image-keyboard-response,10
true,26,0,0,0,true,q,false,true,0.0-2.0-0.57-0.514-3.514,1,1,1,81,false,stim,false,0,440.29999999701977,2,0,1,69444,task3,1386312,false,false,1667,image-keyboard-response,11
true,26,0,0,0,true,q,false,true,0.0-2.0-0.57-0.515-3.515,1,1,1,81,false,stim,false,0,360.3999999985099,2,0,1,69444,task3,1388208,false,false,1670,image-keyboard-response,12
true,27,0,1,2,false,d,true,true,0.0-2.0-0.57-0.516-3.516,1,0,0,81,true,stim,false,1,684.3000000044703,2,0,2,69444,task3,1390422,false,true,1673,image-keyboard-response,1
true,27,0,1,0,true,q,false,true,0.0-2.0-0.57-0.517-3.517,1,0,0,81,false,stim,false,0,351.6000000014901,2,1,0,69444,task3,1392298,false,false,1676,image-keyboard-response,2
true,27,0,1,0,true,q,false,true,0.0-2.0-0.57-0.518-3.518,1,0,0,81,false,stim,false,0,346.29999999701977,2,1,0,69444,task3,1394168,false,false,1679,image-keyboard-response,3
true,27,0,1,2,false,d,true,false,0.0-2.0-0.57-0.519-3.519,1,0,0,81,false,stim,false,1,366.0,2,0,2,69444,task3,1396051,false,false,1682,image-keyboard-response,4
true,27,1,1,2,false,d,false,false,0.0-2.0-0.57-0.520-3.520,1,0,0,90,false,stim,true,1,1106.6000000014901,2,0,2,69444,task3,1398684,false,false,1685,image-keyboard-response,5
true,27,0,1,0,true,q,false,true,0.0-2.0-0.57-0.521-3.521,1,0,0,81,false,stim,false,0,347.69999999552965,2,1,0,69444,task3,1400569,false,false,1688,image-keyboard-response,6
true,27,0,1,0,true,q,false,true,0.0-2.0-0.58-0.522-3.522,1,0,0,81,false,stim,false,0,552.7000000029802,2,1,0,69444,task3,1402659,false,false,1691,image-keyboard-response,7
true,27,2,1,2,true,d,false,true,0.0-2.0-0.58-0.523-3.523,1,0,0,68,false,stim,false,1,640.6000000014901,2,0,2,69444,task3,1404829,false,false,1694,image-keyboard-response,8
true,27,0,1,0,true,q,false,true,0.0-2.0-0.58-0.524-3.524,1,0,0,81,false,stim,false,0,739.0,2,1,0,69444,task3,1407091,false,false,1697,image-keyboard-response,9
true,27,2,1,2,true,d,false,true,0.0-2.0-0.58-0.525-3.525,1,0,0,68,false,stim,false,1,598.2999999970198,2,0,2,69444,task3,1409223,false,false,1700,image-keyboard-response,10
true,27,0,1,0,true,q,false,true,0.0-2.0-0.58-0.526-3.526,1,0,0,81,false,stim,false,0,643.2000000029802,2,1,0,69444,task3,1411410,false,false,1703,image-keyboard-response,11
true,27,0,1,1,false,z,false,false,0.0-2.0-0.58-0.527-3.527,1,0,0,81,false,stim,true,0,774.8999999985099,2,0,1,69444,task3,1413716,false,false,1706,image-keyboard-response,12
true,27,1,1,1,true,z,false,true,0.0-2.0-0.58-0.528-3.528,1,0,0,90,false,stim,false,0,1377.5,2,0,1,69444,task3,1416624,false,false,1709,image-keyboard-response,13
true,27,0,1,2,false,d,true,false,0.0-2.0-0.58-0.529-3.529,1,0,0,81,false,stim,false,1,1224.5,2,0,2,69444,task3,1419377,false,false,1712,image-keyboard-response,14
true,27,1,1,1,true,z,false,true,0.0-2.0-0.58-0.530-3.530,1,0,0,90,false,stim,false,0,651.1000000014901,2,0,1,69444,task3,1421565,false,false,1715,image-keyboard-response,15
true,27,2,1,2,true,d,false,true,0.0-2.0-0.59-0.531-3.531,1,0,0,68,false,stim,false,1,1016.5,2,0,2,69444,task3,1424102,false,false,1718,image-keyboard-response,16
true,27,0,1,0,true,q,false,true,0.0-2.0-0.59-0.532-3.532,1,0,0,81,false,stim,false,0,1133.5,2,1,0,69444,task3,1426773,false,false,1721,image-keyboard-response,17
true,27,0,1,1,false,z,false,false,0.0-2.0-0.59-0.533-3.533,1,0,0,81,false,stim,true,0,1191.9000000059605,2,0,1,69444,task3,1429488,false,false,1724,image-keyboard-response,18
true,27,1,1,1,true,z,false,true,0.0-2.0-0.59-0.534-3.534,1,0,0,90,false,stim,false,0,545.2999999970198,2,0,1,69444,task3,1431563,false,false,1727,image-keyboard-response,19
true,27,1,1,1,true,z,false,true,0.0-2.0-0.59-0.535-3.535,1,0,0,90,false,stim,false,0,423.5,2,0,1,69444,task3,1433511,false,false,1730,image-keyboard-response,20
true,27,2,1,2,true,d,false,true,0.0-2.0-0.59-0.536-3.536,1,0,0,68,false,stim,false,1,786.7999999970198,2,1,2,69444,task3,1435829,false,false,1733,image-keyboard-response,21
true,27,0,1,0,true,q,false,true,0.0-2.0-0.59-0.537-3.537,1,0,0,81,false,stim,false,0,1006.5,2,1,0,69444,task3,1438362,false,false,1736,image-keyboard-response,22
true,27,2,1,2,true,d,false,true,0.0-2.0-0.59-0.538-3.538,1,0,0,68,false,stim,false,1,695.1999999955297,2,1,2,69444,task3,1440586,false,false,1739,image-keyboard-response,23
true,27,0,1,0,true,q,false,true,0.0-2.0-0.59-0.539-3.539,1,0,0,81,false,stim,false,0,660.2999999970198,2,1,0,69444,task3,1442761,false,false,1742,image-keyboard-response,24
true,27,1,1,1,true,z,false,true,0.0-2.0-0.60-0.540-3.540,1,0,0,90,false,stim,false,0,438.40000000596046,2,0,1,69444,task3,1444729,false,false,1745,image-keyboard-response,25
true,28,0,2,0,true,q,false,true,0.0-2.0-0.60-0.541-3.541,1,0,1,81,true,stim,false,0,1103.5,2,1,0,69444,task3,1447367,false,false,1748,image-keyboard-response,1
true,28,0,2,0,true,q,false,true,0.0-2.0-0.60-0.542-3.542,1,0,1,81,false,stim,false,0,442.1000000014901,2,1,0,69444,task3,1449334,false,false,1751,image-keyboard-response,2
true,28,2,2,2,true,d,false,true,0.0-2.0-0.60-0.543-3.543,1,0,1,68,false,stim,false,2,707.1000000014901,2,1,2,69444,task3,1451573,false,false,1754,image-keyboard-response,3
true,28,2,2,2,true,d,false,true,0.0-2.0-0.60-0.544-3.544,1,0,1,68,false,stim,false,2,533.0,2,1,2,69444,task3,1453644,false,false,1757,image-keyboard-response,4
true,28,0,2,2,false,d,true,false,0.0-2.0-0.60-0.545-3.545,1,0,1,81,false,stim,false,1,827.8999999985099,2,0,1,69444,task3,1455992,false,false,1760,image-keyboard-response,5
true,28,2,2,2,true,d,false,true,0.0-2.0-0.60-0.546-3.546,1,0,1,68,false,stim,false,2,1572.5,2,1,2,69444,task3,1459081,false,false,1763,image-keyboard-response,6
true,28,1,2,2,false,d,false,false,0.0-2.0-0.60-0.547-3.547,1,0,1,90,false,stim,true,1,869.8999999985099,2,0,1,69444,task3,1461479,false,false,1766,image-keyboard-response,7
true,28,0,2,0,true,q,false,true,0.0-2.0-0.60-0.548-3.548,1,0,1,81,false,stim,false,0,1351.0,2,1,0,69444,task3,1464364,false,false,1769,image-keyboard-response,8
true,28,1,2,2,false,d,true,false,0.0-2.0-0.61-0.549-3.549,1,0,1,90,false,stim,false,2,1463.5,2,1,2,69444,task3,1467368,false,false,1772,image-keyboard-response,9
true,28,2,2,2,true,d,false,true,0.0-2.0-0.61-0.550-3.550,1,0,1,68,false,stim,false,2,527.7000000029802,2,1,2,69444,task3,1469416,false,false,1775,image-keyboard-response,10
true,28,0,2,2,false,d,true,false,0.0-2.0-0.61-0.551-3.551,1,0,1,81,false,stim,false,1,1080.6000000014901,2,0,1,69444,task3,1472015,false,false,1778,image-keyboard-response,11
true,28,0,2,0,true,q,false,false,0.0-2.0-0.61-0.552-3.552,1,0,1,81,false,stim,false,0,641.0,2,1,0,69444,task3,1474184,false,true,1781,image-keyboard-response,12
true,28,2,2,2,true,d,false,true,0.0-2.0-0.61-0.553-3.553,1,0,1,68,false,stim,false,2,949.0,2,0,2,69444,task3,1476664,false,false,1784,image-keyboard-response,13
true,28,0,2,0,true,q,false,true,0.0-2.0-0.61-0.554-3.554,1,0,1,81,false,stim,false,0,1113.0,2,1,0,69444,task3,1479303,false,false,1787,image-keyboard-response,14
true,28,2,2,2,true,d,false,true,0.0-2.0-0.61-0.555-3.555,1,0,1,68,false,stim,false,1,930.1000000014901,2,1,1,69444,task3,1481755,false,false,1790,image-keyboard-response,15
true,28,2,2,2,true,d,false,true,0.0-2.0-0.61-0.556-3.556,1,0,1,68,false,stim,false,1,482.3999999985099,2,1,1,69444,task3,1483770,false,false,1793,image-keyboard-response,16
true,29,0,2,0,true,q,false,true,0.0-2.0-0.61-0.557-3.557,1,1,0,81,true,stim,false,0,749.6000000014901,2,1,0,69444,task3,1486061,false,false,1796,image-keyboard-response,1
true,29,0,2,0,true,q,false,true,0.0-2.0-0.62-0.558-3.558,1,1,0,81,false,stim,false,0,548.9000000059605,2,1,0,69444,task3,1488146,false,false,1799,image-keyboard-response,2
true,29,2,2,0,false,q,false,false,0.0-2.0-0.62-0.559-3.559,1,1,0,68,false,stim,true,2,967.1000000014901,2,0,2,69444,task3,1490649,false,false,1802,image-keyboard-response,3
true,29,2,2,0,false,q,false,false,0.0-2.0-0.62-0.560-3.560,1,1,0,68,false,stim,true,2,1542.0,2,0,2,69444,task3,1493715,false,false,1805,image-keyboard-response,4
true,29,2,2,2,true,d,false,true,0.0-2.0-0.62-0.561-3.561,1,1,0,68,false,stim,false,2,1074.8999999985099,2,1,1,69444,task3,1496327,false,false,1808,image-keyboard-response,5
true,29,0,2,0,true,q,false,true,0.0-2.0-0.62-0.562-3.562,1,1,0,81,false,stim,false,0,825.7000000029802,2,1,0,69444,task3,1498673,false,false,1811,image-keyboard-response,6
true,29,0,2,0,true,q,false,true,0.0-2.0-0.62-0.563-3.563,1,1,0,81,false,stim,false,0,513.7999999970198,2,1,0,69444,task3,1500714,false,false,1814,image-keyboard-response,7
true,29,2,2,2,true,d,false,false,0.0-2.0-0.62-0.564-3.564,1,1,0,68,false,stim,false,2,1693.0,2,1,1,69444,task3,1503933,false,true,1817,image-keyboard-response,8
true,29,1,2,2,false,d,true,true,0.0-2.0-0.62-0.565-3.565,1,1,0,90,false,stim,false,2,604.7999999970198,2,1,1,69444,task3,1506076,false,true,1820,image-keyboard-response,9
true,29,1,2,0,false,q,true,false,0.0-2.0-0.62-0.566-3.566,1,1,0,90,false,stim,false,2,1477.6000000014901,2,0,2,69444,task3,1509086,false,false,1823,image-keyboard-response,10
true,29,0,2,0,true,q,false,true,0.0-2.0-0.63-0.567-3.567,1,1,0,81,false,stim,false,0,672.2000000029802,2,1,0,69444,task3,1511294,false,false,1826,image-keyboard-response,11
true,29,2,2,0,false,q,false,false,0.0-2.0-0.63-0.568-3.568,1,1,0,68,false,stim,true,2,968.7999999970198,2,1,2,69444,task3,1513790,false,false,1829,image-keyboard-response,12
true,29,0,2,0,true,q,false,false,0.0-2.0-0.63-0.569-3.569,1,1,0,81,false,stim,false,0,739.3999999985099,2,0,0,69444,task3,1516066,false,true,1832,image-keyboard-response,13
true,29,1,2,2,false,d,true,false,0.0-2.0-0.63-0.570-3.570,1,1,0,90,false,stim,false,2,903.0999999940395,2,1,1,69444,task3,1518496,false,false,1835,image-keyboard-response,14
true,29,0,2,0,true,q,false,true,0.0-2.0-0.63-0.571-3.571,1,1,0,81,false,stim,false,0,1704.2000000029802,2,0,0,69444,task3,1521742,false,false,1838,image-keyboard-response,15
true,29,2,2,2,true,d,false,true,0.0-2.0-0.63-0.572-3.572,1,1,0,68,false,stim,false,2,1099.1000000014901,2,1,1,69444,task3,1524377,false,false,1841,image-keyboard-response,16
true,30,2,2,2,true,d,false,true,0.0-2.0-0.63-0.573-3.573,0,1,1,68,true,stim,false,2,1233.7999999970198,2,1,1,69444,task3,1527133,false,false,1844,image-keyboard-response,1
true,30,2,2,0,false,q,true,true,0.0-2.0-0.63-0.574-3.574,0,1,1,68,false,stim,false,0,1647.0,2,1,2,69444,task3,1530307,false,true,1847,image-keyboard-response,2
true,30,2,2,0,false,q,true,false,0.0-2.0-0.63-0.575-3.575,0,1,1,68,false,stim,false,0,485.1000000014901,2,1,2,69444,task3,1532335,false,false,1850,image-keyboard-response,3
true,30,0,2,1,false,z,false,false,0.0-2.0-0.64-0.576-3.576,0,1,1,81,false,stim,true,0,1767.8000000044703,2,0,0,69444,task3,1535631,false,false,1853,image-keyboard-response,4
true,30,1,2,2,false,d,true,false,0.0-2.0-0.64-0.577-3.577,0,1,1,90,false,stim,false,2,1191.2000000029802,2,1,1,69444,task3,1538345,false,false,1856,image-keyboard-response,5
true,30,2,2,0,false,q,true,false,0.0-2.0-0.64-0.578-3.578,0,1,1,68,false,stim,false,0,855.8999999985099,2,1,2,69444,task3,1540741,false,false,1859,image-keyboard-response,6
true,30,1,2,0,false,q,true,false,0.0-2.0-0.64-0.579-3.579,0,1,1,90,false,stim,false,0,391.0,2,1,2,69444,task3,1542657,false,false,1862,image-keyboard-response,7
true,30,0,2,2,false,d,true,false,0.0-2.0-0.64-0.580-3.580,0,1,1,81,false,stim,false,2,1408.9000000059605,2,1,1,69444,task3,1545601,false,false,1865,image-keyboard-response,8
true,30,0,2,1,false,z,false,false,0.0-2.0-0.64-0.581-3.581,0,1,1,81,false,stim,true,0,897.1999999955297,2,0,0,69444,task3,1548036,false,false,1868,image-keyboard-response,9
true,30,1,2,0,false,q,true,false,0.0-2.0-0.64-0.582-3.582,0,1,1,90,false,stim,false,0,1441.9000000059605,2,1,2,69444,task3,1550998,false,false,1871,image-keyboard-response,10
true,30,2,2,1,false,z,true,false,0.0-2.0-0.64-0.583-3.583,0,1,1,68,false,stim,false,0,369.5,2,1,0,69444,task3,1552884,false,false,1874,image-keyboard-response,11
true,30,0,2,2,false,d,true,true,0.0-2.0-0.64-0.584-3.584,0,1,1,81,false,stim,false,2,784.3999999985099,2,0,1,69444,task3,1555200,false,true,1877,image-keyboard-response,12
true,30,0,2,1,false,z,false,false,0.0-2.0-0.65-0.585-3.585,0,1,1,81,false,stim,true,0,1235.0999999940395,2,1,0,69444,task3,1557977,false,false,1880,image-keyboard-response,13
true,30,1,2,1,true,z,false,true,0.0-2.0-0.65-0.586-3.586,0,1,1,90,false,stim,false,0,744.5,2,1,0,69444,task3,1560244,false,false,1883,image-keyboard-response,14
true,30,1,2,1,true,z,false,true,0.0-2.0-0.65-0.587-3.587,0,1,1,90,false,stim,false,0,352.79999999701977,2,1,0,69444,task3,1562130,false,false,1886,image-keyboard-response,15
true,31,0,2,1,false,z,true,false,0.0-2.0-0.65-0.588-3.588,1,0,1,81,true,stim,false,2,657.5,2,0,1,69444,task3,1564307,false,false,1889,image-keyboard-response,1
true,31,0,2,0,true,q,false,true,0.0-2.0-0.65-0.589-3.589,1,0,1,81,false,stim,false,0,1328.8000000044703,2,1,2,69444,task3,1567159,false,false,1892,image-keyboard-response,2
true,31,0,2,0,true,q,false,true,0.0-2.0-0.65-0.590-3.590,1,0,1,81,false,stim,false,0,432.79999999701977,2,1,2,69444,task3,1569125,false,false,1895,image-keyboard-response,3
