answered,blockNum,choice,condition,corResp,correct,correct_response,explo,fb,internal_node_id,isStable_1,isStable_2,isStable_3,key_press,newBlock,part,persev,persevResp,rt,sessNum,stableAS,stimulus,subject,task,time_elapsed,training,trap,trial_index,trial_type,trialsInBlock
true,1,1,0,0,false,q,true,false,0.0-2.0-0.0-0.0-3.0,0,0,0,90,true,stim,false,-1,373.9000005722046,2,0,2,69478,task2,152825,false,false,184,image-keyboard-response,1
true,1,0,0,1,false,z,true,false,0.0-2.0-0.0-0.1-3.1,0,0,0,81,false,stim,false,-1,82.89999961853027,2,0,0,69478,task2,154411,false,false,187,image-keyboard-response,2
true,1,0,0,1,false,z,true,false,0.0-2.0-0.0-0.2-3.2,0,0,0,81,false,stim,false,-1,294.19999980926514,2,0,0,69478,task2,156209,false,false,190,image-keyboard-response,3
true,1,1,0,1,true,z,false,true,0.0-2.0-0.0-0.3-3.3,0,0,0,90,false,stim,false,-1,381.1000003814697,2,0,0,69478,task2,158093,false,false,193,image-keyboard-response,4
true,1,2,0,0,false,q,true,false,0.0-2.0-0.0-0.4-3.4,0,0,0,68,false,stim,false,-1,510.6000003814697,2,0,2,69478,task2,160108,false,false,196,image-keyboard-response,5
true,1,2,0,2,true,d,false,true,0.0-2.0-0.0-0.5-3.5,0,0,0,68,false,stim,false,-1,244.80000019073486,2,0,1,69478,task2,161857,false,false,199,image-keyboard-response,6
true,1,2,0,2,true,d,false,true,0.0-2.0-0.0-0.6-3.6,0,0,0,68,false,stim,false,-1,302.0,2,0,1,69478,task2,163663,false,false,202,image-keyboard-response,7
true,1,2,0,2,true,d,false,true,0.0-2.0-0.0-0.7-3.7,0,0,0,68,false,stim,false,-1,307.30000019073486,2,0,1,69478,task2,165475,false,false,205,image-keyboard-response,8
true,1,2,0,0,false,q,true,false,0.0-2.0-0.0-0.8-3.8,0,0,0,68,false,stim,false,-1,603.3000001907349,2,0,2,69478,task2,167582,false,false,208,image-keyboard-response,9
true,1,1,0,0,false,q,true,false,0.0-2.0-0.1-0.9-3.9,0,0,0,90,false,stim,false,-1,342.8999996185303,2,0,2,69478,task2,169428,false,false,211,image-keyboard-response,10
true,1,2,0,2,true,d,false,true,0.0-2.0-0.1-0.10-3.10,0,0,0,68,false,stim,false,-1,1025.5999994277954,2,0,1,69478,task2,171958,false,false,214,image-keyboard-response,11
true,1,0,0,1,false,z,true,true,0.0-2.0-0.1-0.11-3.11,0,0,0,81,false,stim,false,-1,753.1999998092651,2,0,0,69478,task2,174215,false,true,217,image-keyboard-response,12
true,1,0,0,1,false,z,true,false,0.0-2.0-0.1-0.12-3.12,0,0,0,81,false,stim,false,-1,427.5,2,0,0,69478,task2,176146,false,false,220,image-keyboard-response,13
true,1,1,0,1,true,z,false,true,0.0-2.0-0.1-0.13-3.13,0,0,0,90,false,stim,false,-1,796.2999992370605,2,0,0,69478,task2,178445,false,false,223,image-keyboard-response,14
true,1,1,0,0,false,q,true,false,0.0-2.0-0.1-0.14-3.14,0,0,0,90,false,stim,false,-1,301.8999996185303,2,0,2,69478,task2,180250,false,false,226,image-keyboard-response,15
true,1,0,0,0,true,q,false,true,0.0-2.0-0.1-0.15-3.15,0,0,0,81,false,stim,false,-1,1649.0,2,0,2,69478,task2,183403,false,false,229,image-keyboard-response,16
true,1,2,0,2,true,d,false,true,0.0-2.0-0.1-0.16-3.16,0,0,0,68,false,stim,false,-1,446.79999923706055,2,0,1,69478,task2,185355,false,false,232,image-keyboard-response,17
true,1,2,0,2,true,d,false,true,0.0-2.0-0.1-0.17-3.17,0,0,0,68,false,stim,false,-1,369.4000005722046,2,0,1,69478,task2,187227,false,false,235,image-keyboard-response,18
true,1,1,0,0,false,q,true,false,0.0-2.0-0.2-0.18-3.18,0,0,0,90,false,stim,false,-1,500.1000003814697,2,0,2,69478,task2,189231,false,false,238,image-keyboard-response,19
true,1,2,0,2,true,d,false,true,0.0-2.0-0.2-0.19-3.19,0,0,0,68,false,stim,false,-1,275.3999996185303,2,0,1,69478,task2,191009,false,false,241,image-keyboard-response,20
true,1,2,0,2,true,d,false,true,0.0-2.0-0.2-0.20-3.20,0,0,0,68,false,stim,false,-1,219.30000019073486,2,0,1,69478,task2,192731,false,false,244,image-keyboard-response,21
true,1,2,0,1,false,z,true,false,0.0-2.0-0.2-0.21-3.21,0,0,0,68,false,stim,false,-1,541.5999994277954,2,0,0,69478,task2,194776,false,false,247,image-keyboard-response,22
true,1,1,0,1,true,z,false,true,0.0-2.0-0.2-0.22-3.22,0,0,0,90,false,stim,false,-1,337.8999996185303,2,0,0,69478,task2,196618,false,false,250,image-keyboard-response,23
true,1,1,0,1,true,z,false,true,0.0-2.0-0.2-0.23-3.23,0,0,0,90,false,stim,false,-1,352.19999980926514,2,0,0,69478,task2,198473,false,false,253,image-keyboard-response,24
true,1,2,0,2,true,d,false,true,0.0-2.0-0.2-0.24-3.24,0,0,0,68,false,stim,false,-1,701.0,2,0,1,69478,task2,200678,false,false,256,image-keyboard-response,25
true,1,0,0,0,true,q,false,true,0.0-2.0-0.2-0.25-3.25,0,0,0,81,false,stim,false,-1,634.8999996185303,2,0,2,69478,task2,202815,false,false,259,image-keyboard-response,26
true,2,0,1,1,false,z,false,false,0.0-2.0-0.2-0.26-3.26,0,0,0,81,true,stim,true,0,270.69999980926514,2,0,2,69478,task2,204589,false,false,262,image-keyboard-response,1
true,2,1,1,0,false,q,true,false,0.0-2.0-0.3-0.27-3.27,0,0,0,90,false,stim,false,2,654.1000003814697,2,0,1,69478,task2,206746,false,false,265,image-keyboard-response,2
true,2,1,1,0,false,q,false,false,0.0-2.0-0.3-0.28-3.28,0,0,0,90,false,stim,true,1,563.8999996185303,2,0,0,69478,task2,208813,false,false,268,image-keyboard-response,3
true,2,2,1,1,false,z,true,false,0.0-2.0-0.3-0.29-3.29,0,0,0,68,false,stim,false,0,534.9000005722046,2,0,2,69478,task2,210850,false,false,271,image-keyboard-response,4
true,2,2,1,0,false,q,false,false,0.0-2.0-0.3-0.30-3.30,0,0,0,68,false,stim,true,2,357.8999996185303,2,0,1,69478,task2,212711,false,false,274,image-keyboard-response,5
true,2,2,1,1,false,z,true,false,0.0-2.0-0.3-0.31-3.31,0,0,0,68,false,stim,false,0,316.3999996185303,2,0,2,69478,task2,214531,false,false,277,image-keyboard-response,6
true,2,2,1,0,false,q,true,false,0.0-2.0-0.3-0.32-3.32,0,0,0,68,false,stim,false,1,1559.1000003814697,2,0,0,69478,task2,217594,false,false,280,image-keyboard-response,7
true,2,1,1,0,false,q,true,false,0.0-2.0-0.3-0.33-3.33,0,0,0,90,false,stim,false,2,514.8000001907349,2,0,1,69478,task2,219612,false,false,283,image-keyboard-response,8
true,2,0,1,0,true,q,false,true,0.0-2.0-0.3-0.34-3.34,0,0,0,81,false,stim,false,1,2040.6000003814697,2,0,0,69478,task2,223156,false,false,286,image-keyboard-response,9
true,2,0,1,1,false,z,false,false,0.0-2.0-0.3-0.35-3.35,0,0,0,81,false,stim,true,0,541.3999996185303,2,0,2,69478,task2,225201,false,false,289,image-keyboard-response,10
true,2,1,1,0,false,q,true,false,0.0-2.0-0.4-0.36-3.36,0,0,0,90,false,stim,false,2,1163.0,2,0,1,69478,task2,227868,false,false,292,image-keyboard-response,11
true,2,1,1,0,false,q,true,true,0.0-2.0-0.4-0.37-3.37,0,0,0,90,false,stim,false,2,379.5999994277954,2,0,1,69478,task2,229751,false,true,295,image-keyboard-response,12
true,2,2,1,0,false,q,true,false,0.0-2.0-0.4-0.38-3.38,0,0,0,68,false,stim,false,1,295.0,2,0,0,69478,task2,231549,false,false,298,image-keyboard-response,13
true,2,1,1,1,true,z,false,true,0.0-2.0-0.4-0.39-3.39,0,0,0,90,false,stim,false,0,1059.1000003814697,2,0,2,69478,task2,234112,false,false,301,image-keyboard-response,14
true,2,0,1,1,false,z,false,false,0.0-2.0-0.4-0.40-3.40,0,0,0,81,false,stim,true,0,384.80000019073486,2,0,2,69478,task2,236000,false,false,304,image-keyboard-response,15
true,2,1,1,0,false,q,true,false,0.0-2.0-0.4-0.41-3.41,0,0,0,90,false,stim,false,2,501.30000019073486,2,0,1,69478,task2,238004,false,false,307,image-keyboard-response,16
true,2,1,1,1,true,z,false,true,0.0-2.0-0.4-0.42-3.42,0,0,0,90,false,stim,false,0,502.6000003814697,2,0,2,69478,task2,240011,false,false,310,image-keyboard-response,17
true,2,1,1,0,false,q,false,false,0.0-2.0-0.4-0.43-3.43,0,0,0,90,false,stim,true,1,563.9000005722046,2,0,0,69478,task2,242079,false,false,313,image-keyboard-response,18
true,2,1,1,0,false,q,false,false,0.0-2.0-0.4-0.44-3.44,0,0,0,90,false,stim,true,1,401.4000005722046,2,0,0,69478,task2,243983,false,false,316,image-keyboard-response,19
true,2,2,1,0,false,q,false,false,0.0-2.0-0.5-0.45-3.45,0,0,0,68,false,stim,true,2,389.30000019073486,2,0,1,69478,task2,245877,false,false,319,image-keyboard-response,20
true,2,2,1,1,false,z,true,false,0.0-2.0-0.5-0.46-3.46,0,0,0,68,false,stim,false,0,551.0,2,0,2,69478,task2,247931,false,false,322,image-keyboard-response,21
true,2,0,1,0,true,q,false,false,0.0-2.0-0.5-0.47-3.47,0,0,0,81,false,stim,false,2,464.80000019073486,2,0,1,69478,task2,249899,false,true,325,image-keyboard-response,22
true,2,1,1,0,false,q,false,false,0.0-2.0-0.5-0.48-3.48,0,0,0,90,false,stim,true,1,917.4000005722046,2,0,0,69478,task2,252320,false,false,328,image-keyboard-response,23
true,2,1,1,1,true,z,false,true,0.0-2.0-0.5-0.49-3.49,0,0,0,90,false,stim,false,0,770.0,2,0,2,69478,task2,254595,false,false,331,image-keyboard-response,24
true,2,2,1,0,false,q,false,false,0.0-2.0-0.5-0.50-3.50,0,0,0,68,false,stim,true,2,1299.6000003814697,2,0,1,69478,task2,257398,false,false,334,image-keyboard-response,25
true,2,1,1,1,true,z,false,true,0.0-2.0-0.5-0.51-3.51,0,0,0,90,false,stim,false,0,374.29999923706055,2,0,2,69478,task2,259276,false,false,337,image-keyboard-response,26
true,2,1,1,0,false,q,false,false,0.0-2.0-0.5-0.52-3.52,0,0,0,90,false,stim,true,1,681.6999998092651,2,0,0,69478,task2,261461,false,false,340,image-keyboard-response,27
true,2,0,1,0,true,q,false,true,0.0-2.0-0.5-0.53-3.53,0,0,0,81,false,stim,false,1,384.5,2,0,0,69478,task2,263349,false,false,343,image-keyboard-response,28
true,2,0,1,0,true,q,false,true,0.0-2.0-0.6-0.54-3.54,0,0,0,81,false,stim,false,1,242.9000005722046,2,0,0,69478,task2,265096,false,false,346,image-keyboard-response,29
true,2,2,1,1,false,z,true,false,0.0-2.0-0.6-0.55-3.55,0,0,0,68,false,stim,false,0,1016.5,2,0,2,69478,task2,267615,false,false,349,image-keyboard-response,30
true,2,1,1,0,false,q,false,false,0.0-2.0-0.6-0.56-3.56,0,0,0,90,false,stim,true,1,488.3999996185303,2,0,0,69478,task2,269607,false,false,352,image-keyboard-response,31
true,2,2,1,1,false,z,true,false,0.0-2.0-0.6-0.57-3.57,0,0,0,68,false,stim,false,0,761.2999992370605,2,0,2,69478,task2,271872,false,false,355,image-keyboard-response,32
true,2,1,1,0,false,q,false,true,0.0-2.0-0.6-0.58-3.58,0,0,0,90,false,stim,true,1,543.6999998092651,2,0,0,69478,task2,273920,false,true,358,image-keyboard-response,33
true,2,0,1,1,false,z,false,false,0.0-2.0-0.6-0.59-3.59,0,0,0,81,false,stim,true,0,562.3000001907349,2,0,2,69478,task2,275986,false,false,361,image-keyboard-response,34
true,2,2,1,0,false,q,false,false,0.0-2.0-0.6-0.60-3.60,0,0,0,68,false,stim,true,2,379.80000019073486,2,0,1,69478,task2,277868,false,false,364,image-keyboard-response,35
true,3,1,1,2,false,d,true,false,0.0-2.0-0.6-0.61-3.61,0,0,0,90,true,stim,false,0,271.5999994277954,2,0,1,69478,task2,279644,false,false,367,image-keyboard-response,1
true,3,0,1,2,false,d,false,false,0.0-2.0-0.6-0.62-3.62,0,0,0,81,false,stim,true,0,614.9000005722046,2,0,1,69478,task2,281763,false,false,370,image-keyboard-response,2
true,3,2,1,0,false,q,true,false,0.0-2.0-0.7-0.63-3.63,0,0,0,68,false,stim,false,1,586.3999996185303,2,0,2,69478,task2,283853,false,false,373,image-keyboard-response,3
true,3,1,1,0,false,q,false,true,0.0-2.0-0.7-0.64-3.64,0,0,0,90,false,stim,true,1,403.3999996185303,2,0,2,69478,task2,285760,false,true,376,image-keyboard-response,4
true,3,0,1,2,false,d,false,false,0.0-2.0-0.7-0.65-3.65,0,0,0,81,false,stim,true,0,653.6999998092651,2,0,1,69478,task2,287917,false,false,379,image-keyboard-response,5
true,3,1,1,2,false,d,true,false,0.0-2.0-0.7-0.66-3.66,0,0,0,90,false,stim,false,0,377.70000076293945,2,0,0,69478,task2,289800,false,false,382,image-keyboard-response,6
true,3,1,1,2,false,d,true,false,0.0-2.0-0.7-0.67-3.67,0,0,0,90,false,stim,false,0,349.0,2,0,0,69478,task2,291652,false,false,385,image-keyboard-response,7
true,3,2,1,2,true,d,false,false,0.0-2.0-0.7-0.68-3.68,0,0,0,68,false,stim,false,0,402.3999996185303,2,0,1,69478,task2,293560,false,true,388,image-keyboard-response,8
true,3,2,1,2,true,d,false,true,0.0-2.0-0.7-0.69-3.69,0,0,0,68,false,stim,false,0,384.6000003814697,2,0,0,69478,task2,295450,false,false,391,image-keyboard-response,9
true,3,2,1,0,false,q,true,false,0.0-2.0-0.7-0.70-3.70,0,0,0,68,false,stim,false,1,344.0,2,0,2,69478,task2,297298,false,false,394,image-keyboard-response,10
true,3,0,1,2,false,d,false,false,0.0-2.0-0.7-0.71-3.71,0,0,0,81,false,stim,true,0,489.3999996185303,2,0,1,69478,task2,299291,false,false,397,image-keyboard-response,11
true,3,2,1,2,true,d,false,true,0.0-2.0-0.8-0.72-3.72,0,0,0,68,false,stim,false,0,1356.1999998092651,2,0,1,69478,task2,302151,false,false,400,image-keyboard-response,12
true,3,2,1,2,true,d,false,true,0.0-2.0-0.8-0.73-3.73,0,0,0,68,false,stim,false,0,378.19999980926514,2,0,0,69478,task2,304033,false,false,403,image-keyboard-response,13
true,3,2,1,2,true,d,false,true,0.0-2.0-0.8-0.74-3.74,0,0,0,68,false,stim,false,0,639.3000001907349,2,0,1,69478,task2,306175,false,false,406,image-keyboard-response,14
true,3,1,1,0,false,q,false,false,0.0-2.0-0.8-0.75-3.75,0,0,0,90,false,stim,true,1,872.7999992370605,2,0,2,69478,task2,308552,false,false,409,image-keyboard-response,15
true,3,2,1,2,true,d,false,true,0.0-2.0-0.8-0.76-3.76,0,0,0,68,false,stim,false,0,2835.1000003814697,2,0,0,69478,task2,312892,false,false,412,image-keyboard-response,16
true,3,2,1,0,false,q,true,false,0.0-2.0-0.8-0.77-3.77,0,0,0,68,false,stim,false,1,290.0,2,0,2,69478,task2,314685,false,false,415,image-keyboard-response,17
true,3,1,1,2,false,d,true,false,0.0-2.0-0.8-0.78-3.78,0,0,0,90,false,stim,false,0,638.6999998092651,2,0,1,69478,task2,316827,false,false,418,image-keyboard-response,18
true,3,0,1,2,false,d,false,false,0.0-2.0-0.8-0.79-3.79,0,0,0,81,false,stim,true,0,1255.1000003814697,2,0,0,69478,task2,319586,false,false,421,image-keyboard-response,19
true,3,0,1,0,true,q,false,true,0.0-2.0-0.8-0.80-3.80,0,0,0,81,false,stim,false,1,295.6000003814697,2,0,2,69478,task2,321386,false,false,424,image-keyboard-response,20
true,3,2,1,2,true,d,false,true,0.0-2.0-0.9-0.81-3.81,0,0,0,68,false,stim,false,0,1753.6999998092651,2,0,0,69478,task2,324644,false,false,427,image-keyboard-response,21
true,3,2,1,2,true,d,false,false,0.0-2.0-0.9-0.82-3.82,0,0,0,68,false,stim,false,0,2344.5,2,0,1,69478,task2,328492,false,true,430,image-keyboard-response,22
true,3,2,1,2,true,d,false,true,0.0-2.0-0.9-0.83-3.83,0,0,0,68,false,stim,false,0,1006.6999998092651,2,0,1,69478,task2,331004,false,false,433,image-keyboard-response,23
true,3,2,1,2,true,d,false,false,0.0-2.0-0.9-0.84-3.84,0,0,0,68,false,stim,false,0,541.6999998092651,2,0,0,69478,task2,333049,false,true,436,image-keyboard-response,24
true,3,2,1,0,false,q,true,false,0.0-2.0-0.9-0.85-3.85,0,0,0,68,false,stim,false,1,393.70000076293945,2,0,2,69478,task2,334947,false,false,439,image-keyboard-response,25
true,3,1,1,2,false,d,true,true,0.0-2.0-0.9-0.86-3.86,0,0,0,90,false,stim,false,0,354.8999996185303,2,0,1,69478,task2,336804,false,true,442,image-keyboard-response,26
true,3,1,1,0,false,q,false,false,0.0-2.0-0.9-0.87-3.87,0,0,0,90,false,stim,true,1,511.19999980926514,2,0,2,69478,task2,338819,false,false,445,image-keyboard-response,27
true,3,2,1,0,false,q,true,false,0.0-2.0-0.9-0.88-3.88,0,0,0,68,false,stim,false,1,586.6999998092651,2,0,2,69478,task2,340909,false,false,448,image-keyboard-response,28
true,3,2,1,2,true,d,false,true,0.0-2.0-0.9-0.89-3.89,0,0,0,68,false,stim,false,0,702.8000001907349,2,0,0,69478,task2,343116,false,false,451,image-keyboard-response,29
true,3,2,1,2,true,d,false,true,0.0-2.0-0.10-0.90-3.90,0,0,0,68,false,stim,false,0,338.5,2,0,0,69478,task2,344959,false,false,454,image-keyboard-response,30
true,3,2,1,2,true,d,false,true,0.0-2.0-0.10-0.91-3.91,0,0,0,68,false,stim,false,0,330.5,2,0,0,69478,task2,346792,false,false,457,image-keyboard-response,31
true,3,2,1,2,true,d,false,true,0.0-2.0-0.10-0.92-3.92,0,0,0,68,false,stim,false,0,365.30000019073486,2,0,0,69478,task2,348661,false,false,460,image-keyboard-response,32
true,3,2,1,2,true,d,false,true,0.0-2.0-0.10-0.93-3.93,0,0,0,68,false,stim,false,0,692.6000003814697,2,0,1,69478,task2,350857,false,false,463,image-keyboard-response,33
true,3,1,1,0,false,q,false,false,0.0-2.0-0.10-0.94-3.94,0,0,0,90,false,stim,true,1,556.1000003814697,2,0,2,69478,task2,352918,false,false,466,image-keyboard-response,34
true,3,2,1,0,false,q,true,false,0.0-2.0-0.10-0.95-3.95,0,0,0,68,false,stim,false,1,505.30000019073486,2,0,2,69478,task2,354926,false,false,469,image-keyboard-response,35
true,3,2,1,2,true,d,false,true,0.0-2.0-0.10-0.96-3.96,0,0,0,68,false,stim,false,0,646.5,2,0,1,69478,task2,357077,false,false,472,image-keyboard-response,36
true,3,2,1,0,false,q,true,true,0.0-2.0-0.10-0.97-3.97,0,0,0,68,false,stim,false,1,368.79999923706055,2,0,2,69478,task2,358950,false,true,475,image-keyboard-response,37
true,3,2,1,2,true,d,false,true,0.0-2.0-0.10-0.98-3.98,0,0,0,68,false,stim,false,0,398.8999996185303,2,0,1,69478,task2,360853,false,false,478,image-keyboard-response,38
true,4,2,2,2,true,d,false,true,0.0-2.0-0.11-0.99-3.99,1,0,0,68,true,stim,false,2,531.8999996185303,2,1,0,69478,task2,362890,false,false,481,image-keyboard-response,1
true,4,2,2,2,true,d,false,true,0.0-2.0-0.11-0.100-3.100,1,0,0,68,false,stim,false,2,226.9000005722046,2,1,0,69478,task2,364622,false,false,484,image-keyboard-response,2
true,4,2,2,2,true,d,false,true,0.0-2.0-0.11-0.101-3.101,1,0,0,68,false,stim,false,2,847.9000005722046,2,1,0,69478,task2,366974,false,false,487,image-keyboard-response,3
true,4,2,2,2,true,d,false,true,0.0-2.0-0.11-0.102-3.102,1,0,0,68,false,stim,false,0,864.1999998092651,2,0,2,69478,task2,369342,false,false,490,image-keyboard-response,4
true,4,2,2,0,false,q,false,false,0.0-2.0-0.11-0.103-3.103,1,0,0,68,false,stim,true,2,716.0999994277954,2,0,1,69478,task2,371564,false,false,493,image-keyboard-response,5
true,4,1,2,0,false,q,true,false,0.0-2.0-0.11-0.104-3.104,1,0,0,90,false,stim,false,2,357.19999980926514,2,0,1,69478,task2,373425,false,false,496,image-keyboard-response,6
true,4,0,2,0,true,q,false,true,0.0-2.0-0.11-0.105-3.105,1,0,0,81,false,stim,false,2,373.1000003814697,2,0,1,69478,task2,375301,false,false,499,image-keyboard-response,7
true,4,1,2,2,false,d,true,false,0.0-2.0-0.11-0.106-3.106,1,0,0,90,false,stim,false,0,499.5,2,0,2,69478,task2,377305,false,false,502,image-keyboard-response,8
true,4,2,2,2,true,d,false,true,0.0-2.0-0.11-0.107-3.107,1,0,0,68,false,stim,false,0,805.5,2,0,2,69478,task2,379615,false,false,505,image-keyboard-response,9
true,4,2,2,2,true,d,false,true,0.0-2.0-0.12-0.108-3.108,1,0,0,68,false,stim,false,0,945.8999996185303,2,0,2,69478,task2,382065,false,false,508,image-keyboard-response,10
true,4,1,2,2,false,d,true,false,0.0-2.0-0.12-0.109-3.109,1,0,0,90,false,stim,false,0,2009.8999996185303,2,0,2,69478,task2,385579,false,false,511,image-keyboard-response,11
true,4,2,2,0,false,q,false,false,0.0-2.0-0.12-0.110-3.110,1,0,0,68,false,stim,true,2,1367.2000007629395,2,0,1,69478,task2,388451,false,false,514,image-keyboard-response,12
true,4,2,2,2,true,d,false,true,0.0-2.0-0.12-0.111-3.111,1,0,0,68,false,stim,false,2,691.1999998092651,2,1,0,69478,task2,390647,false,false,517,image-keyboard-response,13
true,4,2,2,0,false,q,false,false,0.0-2.0-0.12-0.112-3.112,1,0,0,68,false,stim,true,2,782.7999992370605,2,0,1,69478,task2,392934,false,false,520,image-keyboard-response,14
true,4,1,2,0,false,q,true,true,0.0-2.0-0.12-0.113-3.113,1,0,0,90,false,stim,false,2,1566.4000005722046,2,0,1,69478,task2,396004,false,true,523,image-keyboard-response,15
true,4,1,2,2,false,d,true,false,0.0-2.0-0.12-0.114-3.114,1,0,0,90,false,stim,false,2,1603.5,2,1,0,69478,task2,399112,false,false,526,image-keyboard-response,16
true,4,1,2,2,false,d,true,false,0.0-2.0-0.12-0.115-3.115,1,0,0,90,false,stim,false,2,732.3000001907349,2,1,0,69478,task2,401348,false,false,529,image-keyboard-response,17
true,4,0,2,2,false,d,false,false,0.0-2.0-0.12-0.116-3.116,1,0,0,81,false,stim,true,0,736.5,2,0,2,69478,task2,403587,false,false,532,image-keyboard-response,18
true,4,2,2,2,true,d,false,true,0.0-2.0-0.13-0.117-3.117,1,0,0,68,false,stim,false,2,2205.800000190735,2,1,0,69478,task2,407297,false,false,535,image-keyboard-response,19
true,4,2,2,2,true,d,false,true,0.0-2.0-0.13-0.118-3.118,1,0,0,68,false,stim,false,0,984.9000005722046,2,0,2,69478,task2,409786,false,false,538,image-keyboard-response,20
true,4,0,2,2,false,d,true,false,0.0-2.0-0.13-0.119-3.119,1,0,0,81,false,stim,false,2,1617.1000003814697,2,1,0,69478,task2,412906,false,false,541,image-keyboard-response,21
true,4,2,2,2,true,d,false,true,0.0-2.0-0.13-0.120-3.120,1,0,0,68,false,stim,false,0,1937.8999996185303,2,0,2,69478,task2,416347,false,false,544,image-keyboard-response,22
true,4,2,2,0,false,q,false,false,0.0-2.0-0.13-0.121-3.121,1,0,0,68,false,stim,true,2,376.69999980926514,2,0,1,69478,task2,418227,false,false,547,image-keyboard-response,23
true,4,2,2,0,false,q,false,false,0.0-2.0-0.13-0.122-3.122,1,0,0,68,false,stim,true,2,136.19999980926514,2,0,1,69478,task2,419867,false,false,550,image-keyboard-response,24
true,4,1,2,0,false,q,true,false,0.0-2.0-0.13-0.123-3.123,1,0,0,90,false,stim,false,2,495.6000003814697,2,0,1,69478,task2,421866,false,false,553,image-keyboard-response,25
true,4,0,2,2,false,d,true,false,0.0-2.0-0.13-0.124-3.124,1,0,0,81,false,stim,false,2,271.3999996185303,2,1,0,69478,task2,423640,false,false,556,image-keyboard-response,26
true,4,1,2,2,false,d,true,false,0.0-2.0-0.13-0.125-3.125,1,0,0,90,false,stim,false,0,731.8000001907349,2,0,2,69478,task2,425877,false,false,559,image-keyboard-response,27
false,4,-1,2,0,false,q,true,false,0.0-2.0-0.14-0.126-3.126,1,0,0,,false,stim,false,2,,2,0,1,69478,task2,430381,false,false,562,image-keyboard-response,28
true,4,2,2,2,true,d,false,true,0.0-2.0-0.14-0.127-3.127,1,0,0,68,false,stim,false,0,751.3999996185303,2,0,2,69478,task2,432636,false,false,565,image-keyboard-response,29
true,4,2,2,0,false,q,false,false,0.0-2.0-0.14-0.128-3.128,1,0,0,68,false,stim,true,2,1066.7999992370605,2,0,1,69478,task2,435208,false,false,568,image-keyboard-response,30
true,4,2,2,2,true,d,false,true,0.0-2.0-0.14-0.129-3.129,1,0,0,68,false,stim,false,2,833.3999996185303,2,1,0,69478,task2,437545,false,false,571,image-keyboard-response,31
true,4,2,2,2,true,d,false,true,0.0-2.0-0.14-0.130-3.130,1,0,0,68,false,stim,false,0,1283.2000007629395,2,0,2,69478,task2,440332,false,false,574,image-keyboard-response,32
true,4,0,2,2,false,d,true,false,0.0-2.0-0.14-0.131-3.131,1,0,0,81,false,stim,false,2,1398.6999998092651,2,1,0,69478,task2,443235,false,false,577,image-keyboard-response,33
true,5,0,2,1,false,z,false,false,0.0-2.0-0.14-0.132-3.132,1,0,0,81,true,stim,true,0,152.39999961853027,2,0,1,69478,task2,444890,false,false,580,image-keyboard-response,1
false,5,-1,2,0,false,q,true,false,0.0-2.0-0.14-0.133-3.133,1,0,0,,false,stim,false,2,,2,0,2,69478,task2,449394,false,false,583,image-keyboard-response,2
true,5,0,2,2,false,d,true,false,0.0-2.0-0.14-0.134-3.134,1,0,0,81,false,stim,false,2,225.5,2,1,0,69478,task2,451125,false,false,586,image-keyboard-response,3
true,5,1,2,0,false,q,true,false,0.0-2.0-0.15-0.135-3.135,1,0,0,90,false,stim,false,2,524.3000001907349,2,0,2,69478,task2,453153,false,false,589,image-keyboard-response,4
true,5,1,2,1,true,z,false,true,0.0-2.0-0.15-0.136-3.136,1,0,0,90,false,stim,false,0,289.30000019073486,2,0,1,69478,task2,454945,false,false,592,image-keyboard-response,5
true,5,1,2,0,false,q,true,false,0.0-2.0-0.15-0.137-3.137,1,0,0,90,false,stim,false,2,282.0,2,0,2,69478,task2,456731,false,false,595,image-keyboard-response,6
true,5,2,2,1,false,z,true,false,0.0-2.0-0.15-0.138-3.138,1,0,0,68,false,stim,false,0,245.19999980926514,2,0,1,69478,task2,458480,false,false,598,image-keyboard-response,7
true,5,1,2,2,false,d,true,false,0.0-2.0-0.15-0.139-3.139,1,0,0,90,false,stim,false,2,519.1000003814697,2,1,0,69478,task2,460506,false,false,601,image-keyboard-response,8
true,5,1,2,2,false,d,true,false,0.0-2.0-0.15-0.140-3.140,1,0,0,90,false,stim,false,2,554.6999998092651,2,1,0,69478,task2,462563,false,false,604,image-keyboard-response,9
true,5,2,2,0,false,q,false,false,0.0-2.0-0.15-0.141-3.141,1,0,0,68,false,stim,true,2,234.19999980926514,2,0,2,69478,task2,464302,false,false,607,image-keyboard-response,10
true,5,2,2,2,true,d,false,true,0.0-2.0-0.15-0.142-3.142,1,0,0,68,false,stim,false,2,362.69999980926514,2,1,0,69478,task2,466169,false,false,610,image-keyboard-response,11
true,5,1,2,1,true,z,false,false,0.0-2.0-0.15-0.143-3.143,1,0,0,90,false,stim,false,0,481.5,2,0,1,69478,task2,468154,false,true,613,image-keyboard-response,12
true,5,0,2,0,true,q,false,true,0.0-2.0-0.16-0.144-3.144,1,0,0,81,false,stim,false,2,277.0999994277954,2,0,2,69478,task2,469936,false,false,616,image-keyboard-response,13
true,5,2,2,2,true,d,false,false,0.0-2.0-0.16-0.145-3.145,1,0,0,68,false,stim,false,2,517.6000003814697,2,1,0,69478,task2,471958,false,true,619,image-keyboard-response,14
true,5,2,2,0,false,q,false,false,0.0-2.0-0.16-0.146-3.146,1,0,0,68,false,stim,true,2,888.3999996185303,2,0,2,69478,task2,474349,false,false,622,image-keyboard-response,15
true,5,2,2,1,false,z,true,false,0.0-2.0-0.16-0.147-3.147,1,0,0,68,false,stim,false,0,463.0999994277954,2,0,1,69478,task2,476315,false,false,625,image-keyboard-response,16
true,5,2,2,2,true,d,false,false,0.0-2.0-0.16-0.148-3.148,1,0,0,68,false,stim,false,2,342.5,2,1,0,69478,task2,478161,false,true,628,image-keyboard-response,17
true,5,0,2,1,false,z,false,false,0.0-2.0-0.16-0.149-3.149,1,0,0,81,false,stim,true,0,408.30000019073486,2,0,1,69478,task2,480075,false,false,631,image-keyboard-response,18
true,5,0,2,1,false,z,false,false,0.0-2.0-0.16-0.150-3.150,1,0,0,81,false,stim,true,0,291.0999994277954,2,0,1,69478,task2,481871,false,false,634,image-keyboard-response,19
true,5,0,2,0,true,q,false,true,0.0-2.0-0.16-0.151-3.151,1,0,0,81,false,stim,false,2,411.5999994277954,2,0,2,69478,task2,483786,false,false,637,image-keyboard-response,20
true,5,1,2,2,false,d,true,false,0.0-2.0-0.16-0.152-3.152,1,0,0,90,false,stim,false,2,482.5,2,1,0,69478,task2,485772,false,false,640,image-keyboard-response,21
true,5,0,2,0,true,q,false,true,0.0-2.0-0.17-0.153-3.153,1,0,0,81,false,stim,false,2,489.5,2,0,2,69478,task2,487765,false,false,643,image-keyboard-response,22
true,5,0,2,1,false,z,false,false,0.0-2.0-0.17-0.154-3.154,1,0,0,81,false,stim,true,0,411.5999994277954,2,0,1,69478,task2,489683,false,false,646,image-keyboard-response,23
true,5,0,2,0,true,q,false,true,0.0-2.0-0.17-0.155-3.155,1,0,0,81,false,stim,false,2,691.0,2,0,2,69478,task2,491877,false,false,649,image-keyboard-response,24
true,5,0,2,0,true,q,false,true,0.0-2.0-0.17-0.156-3.156,1,0,0,81,false,stim,false,2,321.6000003814697,2,0,2,69478,task2,493702,false,false,652,image-keyboard-response,25
true,5,1,2,1,true,z,false,true,0.0-2.0-0.17-0.157-3.157,1,0,0,90,false,stim,false,0,742.3000001907349,2,0,1,69478,task2,495948,false,false,655,image-keyboard-response,26
true,5,2,2,2,true,d,false,true,0.0-2.0-0.17-0.158-3.158,1,0,0,68,false,stim,false,2,1180.5,2,0,0,69478,task2,498632,false,false,658,image-keyboard-response,27
true,5,1,2,1,true,z,false,true,0.0-2.0-0.17-0.159-3.159,1,0,0,90,false,stim,false,0,550.7000007629395,2,0,1,69478,task2,500686,false,false,661,image-keyboard-response,28
true,5,2,2,2,true,d,false,true,0.0-2.0-0.17-0.160-3.160,1,0,0,68,false,stim,false,2,829.3000001907349,2,0,0,69478,task2,503020,false,false,664,image-keyboard-response,29
true,5,2,2,2,true,d,false,true,0.0-2.0-0.17-0.161-3.161,1,0,0,68,false,stim,false,2,328.30000019073486,2,0,0,69478,task2,504852,false,false,667,image-keyboard-response,30
true,5,1,2,0,false,q,true,false,0.0-2.0-0.18-0.162-3.162,1,0,0,90,false,stim,false,2,686.0,2,0,2,69478,task2,507042,false,false,670,image-keyboard-response,31
true,6,0,1,2,false,d,false,false,0.0-2.0-0.18-0.163-3.163,0,0,0,81,true,stim,true,0,393.5,2,0,2,69478,task2,508940,false,false,673,image-keyboard-response,1
true,6,0,1,2,false,d,true,false,0.0-2.0-0.18-0.164-3.164,0,0,0,81,false,stim,false,1,556.3999996185303,2,0,1,69478,task2,511000,false,false,676,image-keyboard-response,2
true,6,1,1,2,false,d,false,false,0.0-2.0-0.18-0.165-3.165,0,0,0,90,false,stim,true,1,360.5,2,0,1,69478,task2,512864,false,false,679,image-keyboard-response,3
true,6,2,1,0,false,q,false,false,0.0-2.0-0.18-0.166-3.166,0,0,0,68,false,stim,true,2,301.70000076293945,2,0,0,69478,task2,514668,false,false,682,image-keyboard-response,4
true,6,1,1,2,false,d,false,true,0.0-2.0-0.18-0.167-3.167,0,0,0,90,false,stim,true,1,1007.5,2,0,1,69478,task2,517179,false,true,685,image-keyboard-response,5
true,6,0,1,2,false,d,false,false,0.0-2.0-0.18-0.168-3.168,0,0,0,81,false,stim,true,0,563.6999998092651,2,0,2,69478,task2,519247,false,false,688,image-keyboard-response,6
true,6,1,1,0,false,q,true,true,0.0-2.0-0.18-0.169-3.169,0,0,0,90,false,stim,false,2,667.8000001907349,2,0,0,69478,task2,521418,false,true,691,image-keyboard-response,7
true,6,1,1,0,false,q,true,false,0.0-2.0-0.18-0.170-3.170,0,0,0,90,false,stim,false,2,405.20000076293945,2,0,0,69478,task2,523328,false,false,694,image-keyboard-response,8
true,6,1,1,0,false,q,true,false,0.0-2.0-0.19-0.171-3.171,0,0,0,90,false,stim,false,2,436.19999980926514,2,0,0,69478,task2,525268,false,false,697,image-keyboard-response,9
true,6,0,1,2,false,d,false,false,0.0-2.0-0.19-0.172-3.172,0,0,0,81,false,stim,true,0,247.30000019073486,2,0,2,69478,task2,527020,false,false,700,image-keyboard-response,10
true,6,2,1,0,false,q,false,false,0.0-2.0-0.19-0.173-3.173,0,0,0,68,false,stim,true,2,176.5,2,0,0,69478,task2,528704,false,false,703,image-keyboard-response,11
true,6,2,1,2,true,d,false,false,0.0-2.0-0.19-0.174-3.174,0,0,0,68,false,stim,false,0,211.0999994277954,2,0,2,69478,task2,530418,false,true,706,image-keyboard-response,12
true,6,1,1,0,false,q,true,false,0.0-2.0-0.19-0.175-3.175,0,0,0,90,false,stim,false,2,566.0,2,0,0,69478,task2,532487,false,false,709,image-keyboard-response,13
true,6,0,1,2,false,d,true,true,0.0-2.0-0.19-0.176-3.176,0,0,0,81,false,stim,false,1,243.5,2,0,1,69478,task2,534234,false,true,712,image-keyboard-response,14
true,6,0,1,2,false,d,true,false,0.0-2.0-0.19-0.177-3.177,0,0,0,81,false,stim,false,1,290.30000019073486,2,0,1,69478,task2,536028,false,false,715,image-keyboard-response,15
true,6,0,1,2,false,d,true,true,0.0-2.0-0.19-0.178-3.178,0,0,0,81,false,stim,false,1,407.0,2,0,1,69478,task2,537939,false,true,718,image-keyboard-response,16
true,6,0,1,2,false,d,false,false,0.0-2.0-0.19-0.179-3.179,0,0,0,81,false,stim,true,0,321.1000003814697,2,0,2,69478,task2,539765,false,false,721,image-keyboard-response,17
true,6,2,1,2,true,d,false,true,0.0-2.0-0.20-0.180-3.180,0,0,0,68,false,stim,false,1,555.3999996185303,2,0,1,69478,task2,541825,false,false,724,image-keyboard-response,18
true,6,2,1,2,true,d,false,true,0.0-2.0-0.20-0.181-3.181,0,0,0,68,false,stim,false,0,213.5,2,0,2,69478,task2,543543,false,false,727,image-keyboard-response,19
true,6,2,1,0,false,q,false,false,0.0-2.0-0.20-0.182-3.182,0,0,0,68,false,stim,true,2,312.0,2,0,0,69478,task2,545357,false,false,730,image-keyboard-response,20
true,6,2,1,2,true,d,false,true,0.0-2.0-0.20-0.183-3.183,0,0,0,68,false,stim,false,1,371.4000005722046,2,0,1,69478,task2,547232,false,false,733,image-keyboard-response,21
true,6,2,1,2,true,d,false,true,0.0-2.0-0.20-0.184-3.184,0,0,0,68,false,stim,false,1,363.69999980926514,2,0,1,69478,task2,549101,false,false,736,image-keyboard-response,22
true,6,2,1,2,true,d,false,true,0.0-2.0-0.20-0.185-3.185,0,0,0,68,false,stim,false,0,309.70000076293945,2,0,2,69478,task2,550914,false,false,739,image-keyboard-response,23
true,6,2,1,2,true,d,false,true,0.0-2.0-0.20-0.186-3.186,0,0,0,68,false,stim,false,0,255.89999961853027,2,0,2,69478,task2,552673,false,false,742,image-keyboard-response,24
true,6,2,1,0,false,q,false,false,0.0-2.0-0.20-0.187-3.187,0,0,0,68,false,stim,true,2,289.3999996185303,2,0,0,69478,task2,554467,false,false,745,image-keyboard-response,25
true,6,2,1,0,false,q,false,false,0.0-2.0-0.20-0.188-3.188,0,0,0,68,false,stim,true,2,582.2000007629395,2,0,0,69478,task2,556553,false,false,748,image-keyboard-response,26
true,6,1,1,2,false,d,true,false,0.0-2.0-0.21-0.189-3.189,0,0,0,90,false,stim,false,0,392.0999994277954,2,0,2,69478,task2,558451,false,false,751,image-keyboard-response,27
true,6,0,1,0,true,q,false,true,0.0-2.0-0.21-0.190-3.190,0,0,0,81,false,stim,false,2,286.5,2,0,0,69478,task2,560242,false,false,754,image-keyboard-response,28
true,6,0,1,2,false,d,false,false,0.0-2.0-0.21-0.191-3.191,0,0,0,81,false,stim,true,0,456.19999980926514,2,0,2,69478,task2,562202,false,false,757,image-keyboard-response,29
true,6,1,1,2,false,d,false,false,0.0-2.0-0.21-0.192-3.192,0,0,0,90,false,stim,true,1,466.69999980926514,2,0,1,69478,task2,564173,false,false,760,image-keyboard-response,30
true,6,2,1,0,false,q,false,false,0.0-2.0-0.21-0.193-3.193,0,0,0,68,false,stim,true,2,304.80000019073486,2,0,0,69478,task2,565980,false,false,763,image-keyboard-response,31
true,6,0,1,2,false,d,true,true,0.0-2.0-0.21-0.194-3.194,0,0,0,81,false,stim,false,1,344.9000005722046,2,0,1,69478,task2,567829,false,true,766,image-keyboard-response,32
true,6,0,1,2,false,d,false,false,0.0-2.0-0.21-0.195-3.195,0,0,0,81,false,stim,true,0,479.0,2,0,2,69478,task2,569812,false,false,769,image-keyboard-response,33
true,6,0,1,2,false,d,true,false,0.0-2.0-0.21-0.196-3.196,0,0,0,81,false,stim,false,1,461.9000005722046,2,0,1,69478,task2,571777,false,false,772,image-keyboard-response,34
true,6,1,1,0,false,q,true,false,0.0-2.0-0.21-0.197-3.197,0,0,0,90,false,stim,false,2,449.30000019073486,2,0,0,69478,task2,573731,false,false,775,image-keyboard-response,35
true,6,2,1,0,false,q,false,false,0.0-2.0-0.22-0.198-3.198,0,0,0,68,false,stim,true,2,391.8999996185303,2,0,0,69478,task2,575628,false,false,778,image-keyboard-response,36
true,6,0,1,2,false,d,true,false,0.0-2.0-0.22-0.199-3.199,0,0,0,81,false,stim,false,1,321.5,2,0,1,69478,task2,577453,false,false,781,image-keyboard-response,37
true,6,0,1,0,true,q,false,true,0.0-2.0-0.22-0.200-3.200,0,0,0,81,false,stim,false,2,390.30000019073486,2,0,0,69478,task2,579347,false,false,784,image-keyboard-response,38
true,7,0,1,1,false,z,false,true,0.0-2.0-0.22-0.201-3.201,0,0,0,81,true,stim,true,0,305.5,2,0,0,69478,task2,581156,false,true,787,image-keyboard-response,1
true,7,0,1,1,false,z,true,false,0.0-2.0-0.22-0.202-3.202,0,0,0,81,false,stim,false,2,250.69999980926514,2,0,1,69478,task2,582911,false,false,790,image-keyboard-response,2
true,7,1,1,0,false,q,true,false,0.0-2.0-0.22-0.203-3.203,0,0,0,90,false,stim,false,2,453.4000005722046,2,0,2,69478,task2,584869,false,false,793,image-keyboard-response,3
true,7,2,1,1,false,z,false,false,0.0-2.0-0.22-0.204-3.204,0,0,0,68,false,stim,true,2,327.4000005722046,2,0,1,69478,task2,586701,false,false,796,image-keyboard-response,4
true,7,2,1,0,false,q,false,false,0.0-2.0-0.22-0.205-3.205,0,0,0,68,false,stim,true,2,201.70000076293945,2,0,2,69478,task2,588407,false,false,799,image-keyboard-response,5
true,7,2,1,0,false,q,false,false,0.0-2.0-0.22-0.206-3.206,0,0,0,68,false,stim,true,2,178.30000019073486,2,0,2,69478,task2,590092,false,false,802,image-keyboard-response,6
true,7,2,1,1,false,z,false,false,0.0-2.0-0.23-0.207-3.207,0,0,0,68,false,stim,true,2,418.79999923706055,2,0,1,69478,task2,592016,false,false,805,image-keyboard-response,7
true,7,2,1,0,false,q,false,false,0.0-2.0-0.23-0.208-3.208,0,0,0,68,false,stim,true,2,369.4000005722046,2,0,2,69478,task2,593890,false,false,808,image-keyboard-response,8
true,7,1,1,1,true,z,false,true,0.0-2.0-0.23-0.209-3.209,0,0,0,90,false,stim,false,2,313.5999994277954,2,0,1,69478,task2,595707,false,false,811,image-keyboard-response,9
true,7,1,1,0,false,q,true,false,0.0-2.0-0.23-0.210-3.210,0,0,0,90,false,stim,false,2,508.8999996185303,2,0,2,69478,task2,597720,false,false,814,image-keyboard-response,10
true,7,1,1,0,false,q,true,false,0.0-2.0-0.23-0.211-3.211,0,0,0,90,false,stim,false,2,424.6000003814697,2,0,2,69478,task2,599649,false,false,817,image-keyboard-response,11
true,7,1,1,1,true,z,false,false,0.0-2.0-0.23-0.212-3.212,0,0,0,90,false,stim,false,2,657.3000001907349,2,0,1,69478,task2,601811,false,true,820,image-keyboard-response,12
true,7,0,1,1,false,z,false,false,0.0-2.0-0.23-0.213-3.213,0,0,0,81,false,stim,true,0,372.8999996185303,2,0,0,69478,task2,603688,false,false,823,image-keyboard-response,13
true,7,0,1,1,false,z,false,false,0.0-2.0-0.23-0.214-3.214,0,0,0,81,false,stim,true,0,374.0,2,0,0,69478,task2,605566,false,false,826,image-keyboard-response,14
true,7,0,1,1,false,z,false,false,0.0-2.0-0.23-0.215-3.215,0,0,0,81,false,stim,true,0,440.1000003814697,2,0,0,69478,task2,607510,false,false,829,image-keyboard-response,15
true,7,0,1,0,true,q,false,true,0.0-2.0-0.24-0.216-3.216,0,0,0,81,false,stim,false,2,615.9000005722046,2,0,2,69478,task2,609630,false,false,832,image-keyboard-response,16
true,7,0,1,1,false,z,false,false,0.0-2.0-0.24-0.217-3.217,0,0,0,81,false,stim,true,0,563.6999998092651,2,0,0,69478,task2,611697,false,false,835,image-keyboard-response,17
true,7,0,1,0,true,q,false,true,0.0-2.0-0.24-0.218-3.218,0,0,0,81,false,stim,false,2,315.19999980926514,2,0,2,69478,task2,613516,false,false,838,image-keyboard-response,18
true,7,0,1,1,false,z,true,false,0.0-2.0-0.24-0.219-3.219,0,0,0,81,false,stim,false,2,390.3999996185303,2,0,1,69478,task2,615411,false,false,841,image-keyboard-response,19
true,7,1,1,1,true,z,false,true,0.0-2.0-0.24-0.220-3.220,0,0,0,90,false,stim,false,0,474.4000005722046,2,0,0,69478,task2,617390,false,false,844,image-keyboard-response,20
true,7,2,1,1,false,z,false,false,0.0-2.0-0.24-0.221-3.221,0,0,0,68,false,stim,true,2,394.5,2,0,1,69478,task2,619287,false,false,847,image-keyboard-response,21
true,7,2,1,1,false,z,true,false,0.0-2.0-0.24-0.222-3.222,0,0,0,68,false,stim,false,0,315.5,2,0,0,69478,task2,621107,false,false,850,image-keyboard-response,22
true,7,1,1,1,true,z,false,true,0.0-2.0-0.24-0.223-3.223,0,0,0,90,false,stim,false,2,225.0,2,0,1,69478,task2,622836,false,false,853,image-keyboard-response,23
true,7,1,1,0,false,q,true,false,0.0-2.0-0.24-0.224-3.224,0,0,0,90,false,stim,false,2,665.0,2,0,2,69478,task2,625006,false,false,856,image-keyboard-response,24
true,7,2,1,0,false,q,false,false,0.0-2.0-0.25-0.225-3.225,0,0,0,68,false,stim,true,2,524.1999998092651,2,0,2,69478,task2,627035,false,false,859,image-keyboard-response,25
true,7,0,1,1,false,z,false,false,0.0-2.0-0.25-0.226-3.226,0,0,0,81,false,stim,true,0,297.5,2,0,0,69478,task2,628837,false,false,862,image-keyboard-response,26
true,7,0,1,0,true,q,false,true,0.0-2.0-0.25-0.227-3.227,0,0,0,81,false,stim,false,2,471.0999994277954,2,0,2,69478,task2,630813,false,false,865,image-keyboard-response,27
true,7,1,1,1,true,z,false,true,0.0-2.0-0.25-0.228-3.228,0,0,0,90,false,stim,false,2,913.0,2,0,1,69478,task2,633229,false,false,868,image-keyboard-response,28
true,7,1,1,1,true,z,false,true,0.0-2.0-0.25-0.229-3.229,0,0,0,90,false,stim,false,2,366.0,2,0,1,69478,task2,635099,false,false,871,image-keyboard-response,29
true,7,0,1,0,true,q,false,true,0.0-2.0-0.25-0.230-3.230,0,0,0,81,false,stim,false,2,519.5,2,0,2,69478,task2,637124,false,false,874,image-keyboard-response,30
true,7,1,1,1,true,z,false,true,0.0-2.0-0.25-0.231-3.231,0,0,0,90,false,stim,false,0,1308.0999994277954,2,0,0,69478,task2,639936,false,false,877,image-keyboard-response,31
true,7,1,1,1,true,z,false,false,0.0-2.0-0.25-0.232-3.232,0,0,0,90,false,stim,false,2,856.5,2,0,1,69478,task2,642296,false,true,880,image-keyboard-response,32
true,7,1,1,1,true,z,false,true,0.0-2.0-0.25-0.233-3.233,0,0,0,90,false,stim,false,0,1198.9000005722046,2,0,0,69478,task2,644998,false,false,883,image-keyboard-response,33
true,7,1,1,1,true,z,false,true,0.0-2.0-0.26-0.234-3.234,0,0,0,90,false,stim,false,2,775.1999998092651,2,0,1,69478,task2,647277,false,false,886,image-keyboard-response,34
true,8,1,1,0,false,q,false,false,0.0-2.0-0.26-0.235-3.235,0,0,0,90,true,stim,true,1,480.5,2,0,0,69478,task2,649262,false,false,889,image-keyboard-response,1
true,8,1,1,2,false,d,false,false,0.0-2.0-0.26-0.236-3.236,0,0,0,90,false,stim,true,1,1769.4000005722046,2,0,1,69478,task2,652536,false,false,892,image-keyboard-response,2
true,8,0,1,1,false,z,false,false,0.0-2.0-0.26-0.237-3.237,0,0,0,81,false,stim,true,0,347.29999923706055,2,0,2,69478,task2,654387,false,false,895,image-keyboard-response,3
true,8,2,1,1,false,z,true,true,0.0-2.0-0.26-0.238-3.238,0,0,0,68,false,stim,false,0,325.69999980926514,2,0,2,69478,task2,656216,false,true,898,image-keyboard-response,4
true,8,2,1,2,true,d,false,false,0.0-2.0-0.26-0.239-3.239,0,0,0,68,false,stim,false,1,446.30000019073486,2,0,1,69478,task2,658169,false,true,901,image-keyboard-response,5
true,8,1,1,0,false,q,false,false,0.0-2.0-0.26-0.240-3.240,0,0,0,90,false,stim,true,1,220.30000019073486,2,0,0,69478,task2,659893,false,false,904,image-keyboard-response,6
true,8,0,1,1,false,z,false,false,0.0-2.0-0.26-0.241-3.241,0,0,0,81,false,stim,true,0,366.0,2,0,2,69478,task2,661763,false,false,907,image-keyboard-response,7
true,8,1,1,0,false,q,false,false,0.0-2.0-0.26-0.242-3.242,0,0,0,90,false,stim,true,1,807.5,2,0,0,69478,task2,664074,false,false,910,image-keyboard-response,8
true,8,2,1,2,true,d,false,true,0.0-2.0-0.27-0.243-3.243,0,0,0,68,false,stim,false,1,305.30000019073486,2,0,1,69478,task2,665883,false,false,913,image-keyboard-response,9
true,8,2,1,2,true,d,false,true,0.0-2.0-0.27-0.244-3.244,0,0,0,68,false,stim,false,1,143.80000019073486,2,0,1,69478,task2,667530,false,false,916,image-keyboard-response,10
true,8,1,1,1,true,z,false,true,0.0-2.0-0.27-0.245-3.245,0,0,0,90,false,stim,false,0,505.69999980926514,2,0,2,69478,task2,669541,false,false,919,image-keyboard-response,11
true,8,1,1,0,false,q,false,false,0.0-2.0-0.27-0.246-3.246,0,0,0,90,false,stim,true,1,689.0,2,0,0,69478,task2,671733,false,false,922,image-keyboard-response,12
true,8,1,1,1,true,z,false,true,0.0-2.0-0.27-0.247-3.247,0,0,0,90,false,stim,false,0,584.3999996185303,2,0,2,69478,task2,673821,false,false,925,image-keyboard-response,13
true,8,1,1,0,false,q,false,false,0.0-2.0-0.27-0.248-3.248,0,0,0,90,false,stim,true,1,571.0,2,0,0,69478,task2,675898,false,false,928,image-keyboard-response,14
true,8,2,1,2,true,d,false,true,0.0-2.0-0.27-0.249-3.249,0,0,0,68,false,stim,false,1,827.0,2,0,1,69478,task2,678229,false,false,931,image-keyboard-response,15
true,8,1,1,1,true,z,false,true,0.0-2.0-0.27-0.250-3.250,0,0,0,90,false,stim,false,0,792.5,2,0,2,69478,task2,680526,false,false,934,image-keyboard-response,16
true,8,0,1,0,true,q,false,true,0.0-2.0-0.27-0.251-3.251,0,0,0,81,false,stim,false,1,957.9000005722046,2,0,0,69478,task2,682987,false,false,937,image-keyboard-response,17
true,8,0,1,0,true,q,false,true,0.0-2.0-0.28-0.252-3.252,0,0,0,81,false,stim,false,1,316.3999996185303,2,0,0,69478,task2,684806,false,false,940,image-keyboard-response,18
true,8,0,1,0,true,q,false,true,0.0-2.0-0.28-0.253-3.253,0,0,0,81,false,stim,false,1,371.0,2,0,0,69478,task2,686681,false,false,943,image-keyboard-response,19
true,8,1,1,1,true,z,false,true,0.0-2.0-0.28-0.254-3.254,0,0,0,90,false,stim,false,0,502.1000003814697,2,0,2,69478,task2,688688,false,false,946,image-keyboard-response,20
true,8,1,1,1,true,z,false,true,0.0-2.0-0.28-0.255-3.255,0,0,0,90,false,stim,false,0,648.3999996185303,2,0,2,69478,task2,690840,false,false,949,image-keyboard-response,21
true,8,2,1,2,true,d,false,true,0.0-2.0-0.28-0.256-3.256,0,0,0,68,false,stim,false,1,390.6000003814697,2,0,1,69478,task2,692735,false,false,952,image-keyboard-response,22
true,8,2,1,2,true,d,false,true,0.0-2.0-0.28-0.257-3.257,0,0,0,68,false,stim,false,1,357.30000019073486,2,0,1,69478,task2,694595,false,false,955,image-keyboard-response,23
true,8,1,1,1,true,z,false,true,0.0-2.0-0.28-0.258-3.258,0,0,0,90,false,stim,false,0,421.0,2,0,2,69478,task2,696520,false,false,958,image-keyboard-response,24
true,8,0,1,0,true,q,false,true,0.0-2.0-0.28-0.259-3.259,0,0,0,81,false,stim,false,1,358.0,2,0,0,69478,task2,698383,false,false,961,image-keyboard-response,25
true,8,1,1,2,false,d,false,false,0.0-2.0-0.28-0.260-3.260,0,0,0,90,false,stim,true,1,409.5999994277954,2,0,1,69478,task2,700297,false,false,964,image-keyboard-response,26
true,8,1,1,1,true,z,false,false,0.0-2.0-0.29-0.261-3.261,0,0,0,90,false,stim,false,0,561.3000001907349,2,0,2,69478,task2,702363,false,true,967,image-keyboard-response,27
true,8,0,1,0,true,q,false,true,0.0-2.0-0.29-0.262-3.262,0,0,0,81,false,stim,false,1,604.6999998092651,2,0,0,69478,task2,704473,false,false,970,image-keyboard-response,28
true,8,2,1,1,false,z,true,false,0.0-2.0-0.29-0.263-3.263,0,0,0,68,false,stim,false,0,737.9000005722046,2,0,2,69478,task2,706716,false,false,973,image-keyboard-response,29
true,8,0,1,2,false,d,true,false,0.0-2.0-0.29-0.264-3.264,0,0,0,81,false,stim,false,1,610.5,2,0,1,69478,task2,708831,false,false,976,image-keyboard-response,30
true,8,1,1,0,false,q,false,false,0.0-2.0-0.29-0.265-3.265,0,0,0,90,false,stim,true,1,484.69999980926514,2,0,0,69478,task2,710821,false,false,979,image-keyboard-response,31
true,8,1,1,2,false,d,false,false,0.0-2.0-0.29-0.266-3.266,0,0,0,90,false,stim,true,1,585.9000005722046,2,0,1,69478,task2,712911,false,false,982,image-keyboard-response,32
true,8,1,1,1,true,z,false,true,0.0-2.0-0.29-0.267-3.267,0,0,0,90,false,stim,false,0,823.2000007629395,2,0,2,69478,task2,715237,false,false,985,image-keyboard-response,33
true,8,2,1,2,true,d,false,false,0.0-2.0-0.29-0.268-3.268,0,0,0,68,false,stim,false,1,1444.0,2,0,1,69478,task2,718186,false,true,988,image-keyboard-response,34
true,8,0,1,0,true,q,false,true,0.0-2.0-0.29-0.269-3.269,0,0,0,81,false,stim,false,1,541.1000003814697,2,0,0,69478,task2,720231,false,false,991,image-keyboard-response,35
true,8,0,1,2,false,d,true,false,0.0-2.0-0.30-0.270-3.270,0,0,0,81,false,stim,false,1,778.5999994277954,2,0,1,69478,task2,722515,false,false,994,image-keyboard-response,36
true,9,2,1,0,false,q,false,false,0.0-2.0-0.30-0.271-3.271,0,0,0,68,true,stim,true,2,1057.3999996185303,2,0,1,69478,task2,725075,false,false,997,image-keyboard-response,1
true,9,0,1,2,false,d,false,true,0.0-2.0-0.30-0.272-3.272,0,0,0,81,false,stim,true,0,629.6999998092651,2,0,0,69478,task2,727208,false,true,1000,image-keyboard-response,2
true,9,1,1,0,false,q,false,false,0.0-2.0-0.30-0.273-3.273,0,0,0,90,false,stim,true,1,564.6999998092651,2,0,2,69478,task2,729280,false,false,1003,image-keyboard-response,3
true,9,0,1,2,false,d,false,false,0.0-2.0-0.30-0.274-3.274,0,0,0,81,false,stim,true,0,751.1000003814697,2,0,0,69478,task2,731535,false,false,1006,image-keyboard-response,4
true,9,2,1,0,false,q,true,false,0.0-2.0-0.30-0.275-3.275,0,0,0,68,false,stim,false,1,470.0999994277954,2,0,2,69478,task2,733509,false,false,1009,image-keyboard-response,5
true,9,1,1,0,false,q,false,false,0.0-2.0-0.30-0.276-3.276,0,0,0,90,false,stim,true,1,210.80000019073486,2,0,2,69478,task2,735225,false,false,1012,image-keyboard-response,6
true,9,0,1,2,false,d,false,false,0.0-2.0-0.30-0.277-3.277,0,0,0,81,false,stim,true,0,332.79999923706055,2,0,0,69478,task2,737063,false,false,1015,image-keyboard-response,7
true,9,1,1,0,false,q,true,true,0.0-2.0-0.30-0.278-3.278,0,0,0,90,false,stim,false,2,553.3000001907349,2,0,1,69478,task2,739120,false,true,1018,image-keyboard-response,8
true,9,2,1,0,false,q,false,false,0.0-2.0-0.31-0.279-3.279,0,0,0,68,false,stim,true,2,397.3999996185303,2,0,1,69478,task2,741021,false,false,1021,image-keyboard-response,9
true,9,1,1,2,false,d,true,false,0.0-2.0-0.31-0.280-3.280,0,0,0,90,false,stim,false,0,418.5999994277954,2,0,0,69478,task2,742944,false,false,1024,image-keyboard-response,10
true,9,1,1,0,false,q,false,false,0.0-2.0-0.31-0.281-3.281,0,0,0,90,false,stim,true,1,586.7000007629395,2,0,2,69478,task2,745033,false,false,1027,image-keyboard-response,11
true,9,0,1,0,true,q,false,true,0.0-2.0-0.31-0.282-3.282,0,0,0,81,false,stim,false,2,605.1000003814697,2,0,1,69478,task2,747142,false,false,1030,image-keyboard-response,12
true,9,0,1,0,true,q,false,true,0.0-2.0-0.31-0.283-3.283,0,0,0,81,false,stim,false,1,391.5999994277954,2,0,2,69478,task2,749039,false,false,1033,image-keyboard-response,13
true,9,0,1,0,true,q,false,true,0.0-2.0-0.31-0.284-3.284,0,0,0,81,false,stim,false,1,504.3999996185303,2,0,2,69478,task2,751048,false,false,1036,image-keyboard-response,14
true,9,0,1,2,false,d,false,false,0.0-2.0-0.31-0.285-3.285,0,0,0,81,false,stim,true,0,289.69999980926514,2,0,0,69478,task2,752841,false,false,1039,image-keyboard-response,15
true,9,0,1,0,true,q,false,true,0.0-2.0-0.31-0.286-3.286,0,0,0,81,false,stim,false,2,566.1000003814697,2,0,1,69478,task2,754911,false,false,1042,image-keyboard-response,16
true,9,0,1,2,false,d,false,false,0.0-2.0-0.31-0.287-3.287,0,0,0,81,false,stim,true,0,288.30000019073486,2,0,0,69478,task2,756704,false,false,1045,image-keyboard-response,17
true,9,1,1,0,false,q,true,false,0.0-2.0-0.32-0.288-3.288,0,0,0,90,false,stim,false,2,386.4000005722046,2,0,1,69478,task2,758595,false,false,1048,image-keyboard-response,18
true,9,0,1,2,false,d,false,false,0.0-2.0-0.32-0.289-3.289,0,0,0,81,false,stim,true,0,799.5999994277954,2,0,0,69478,task2,760900,false,false,1051,image-keyboard-response,19
true,9,1,1,0,false,q,true,false,0.0-2.0-0.32-0.290-3.290,0,0,0,90,false,stim,false,2,482.5999994277954,2,0,1,69478,task2,762887,false,false,1054,image-keyboard-response,20
true,9,0,1,0,true,q,false,true,0.0-2.0-0.32-0.291-3.291,0,0,0,81,false,stim,false,1,438.30000019073486,2,0,2,69478,task2,764830,false,false,1057,image-keyboard-response,21
true,9,0,1,0,true,q,false,false,0.0-2.0-0.32-0.292-3.292,0,0,0,81,false,stim,false,1,303.69999980926514,2,0,2,69478,task2,766637,false,true,1060,image-keyboard-response,22
true,9,2,1,2,true,d,false,true,0.0-2.0-0.32-0.293-3.293,0,0,0,68,false,stim,false,0,225.79999923706055,2,0,0,69478,task2,768367,false,false,1063,image-keyboard-response,23
true,9,2,1,0,false,q,false,false,0.0-2.0-0.32-0.294-3.294,0,0,0,68,false,stim,true,2,246.39999961853027,2,0,1,69478,task2,770118,false,false,1066,image-keyboard-response,24
true,9,1,1,2,false,d,true,false,0.0-2.0-0.32-0.295-3.295,0,0,0,90,false,stim,false,0,304.8999996185303,2,0,0,69478,task2,771925,false,false,1069,image-keyboard-response,25
true,9,1,1,0,false,q,false,false,0.0-2.0-0.32-0.296-3.296,0,0,0,90,false,stim,true,1,759.3000001907349,2,0,2,69478,task2,774188,false,false,1072,image-keyboard-response,26
true,9,2,1,2,true,d,false,false,0.0-2.0-0.33-0.297-3.297,0,0,0,68,false,stim,false,0,484.3999996185303,2,0,0,69478,task2,776177,false,true,1075,image-keyboard-response,27
true,9,2,1,0,false,q,false,false,0.0-2.0-0.33-0.298-3.298,0,0,0,68,false,stim,true,2,796.3999996185303,2,0,1,69478,task2,778478,false,false,1078,image-keyboard-response,28
true,9,0,1,0,true,q,false,true,0.0-2.0-0.33-0.299-3.299,0,0,0,81,false,stim,false,2,947.4000005722046,2,0,1,69478,task2,780929,false,false,1081,image-keyboard-response,29
true,9,1,1,2,false,d,true,false,0.0-2.0-0.33-0.300-3.300,0,0,0,90,false,stim,false,0,273.70000076293945,2,0,0,69478,task2,782706,false,false,1084,image-keyboard-response,30
true,9,1,1,0,false,q,false,false,0.0-2.0-0.33-0.301-3.301,0,0,0,90,false,stim,true,1,887.0,2,0,2,69478,task2,785096,false,false,1087,image-keyboard-response,31
true,9,0,1,0,true,q,false,true,0.0-2.0-0.33-0.302-3.302,0,0,0,81,false,stim,false,1,1457.1999998092651,2,0,2,69478,task2,788056,false,false,1090,image-keyboard-response,32
true,9,0,1,0,true,q,false,true,0.0-2.0-0.33-0.303-3.303,0,0,0,81,false,stim,false,1,245.60000038146973,2,0,2,69478,task2,789806,false,false,1093,image-keyboard-response,33
true,9,0,1,0,true,q,false,true,0.0-2.0-0.33-0.304-3.304,0,0,0,81,false,stim,false,2,327.80000019073486,2,0,1,69478,task2,791639,false,false,1096,image-keyboard-response,34
true,9,0,1,2,false,d,false,true,0.0-2.0-0.33-0.305-3.305,0,0,0,81,false,stim,true,0,274.9000005722046,2,1,0,69478,task2,793418,false,true,1099,image-keyboard-response,35
true,9,0,1,0,true,q,false,true,0.0-2.0-0.34-0.306-3.306,0,0,0,81,false,stim,false,2,285.0,2,0,1,69478,task2,795209,false,false,1102,image-keyboard-response,36
true,10,0,2,2,false,d,true,false,0.0-2.0-0.34-0.307-3.307,1,0,0,81,true,stim,false,2,147.70000076293945,2,1,0,69478,task2,796860,false,false,1105,image-keyboard-response,1
true,10,0,2,1,false,z,false,false,0.0-2.0-0.34-0.308-3.308,1,0,0,81,false,stim,true,0,27.200000762939453,2,0,1,69478,task2,798390,false,false,1108,image-keyboard-response,2
true,10,1,2,2,false,d,true,false,0.0-2.0-0.34-0.309-3.309,1,0,0,90,false,stim,false,0,489.6000003814697,2,0,2,69478,task2,800384,false,false,1111,image-keyboard-response,3
true,10,1,2,2,false,d,true,false,0.0-2.0-0.34-0.310-3.310,1,0,0,90,false,stim,false,2,451.5,2,1,0,69478,task2,802340,false,false,1114,image-keyboard-response,4
true,10,0,2,2,false,d,false,false,0.0-2.0-0.34-0.311-3.311,1,0,0,81,false,stim,true,0,336.19999980926514,2,0,2,69478,task2,804180,false,false,1117,image-keyboard-response,5
true,10,2,2,2,true,d,false,false,0.0-2.0-0.34-0.312-3.312,1,0,0,68,false,stim,false,0,344.0,2,0,2,69478,task2,806028,false,true,1120,image-keyboard-response,6
true,10,1,2,2,false,d,true,false,0.0-2.0-0.34-0.313-3.313,1,0,0,90,false,stim,false,2,277.4000005722046,2,1,0,69478,task2,807810,false,false,1123,image-keyboard-response,7
true,10,2,2,1,false,z,true,false,0.0-2.0-0.34-0.314-3.314,1,0,0,68,false,stim,false,0,296.5,2,0,1,69478,task2,809610,false,false,1126,image-keyboard-response,8
true,10,2,2,1,false,z,true,false,0.0-2.0-0.35-0.315-3.315,1,0,0,68,false,stim,false,0,284.30000019073486,2,0,1,69478,task2,811398,false,false,1129,image-keyboard-response,9
true,10,1,2,1,true,z,false,true,0.0-2.0-0.35-0.316-3.316,1,0,0,90,false,stim,false,0,319.9000005722046,2,0,1,69478,task2,813222,false,false,1132,image-keyboard-response,10
true,10,1,2,2,false,d,true,false,0.0-2.0-0.35-0.317-3.317,1,0,0,90,false,stim,false,2,572.5999994277954,2,1,0,69478,task2,815299,false,false,1135,image-keyboard-response,11
true,10,2,2,2,true,d,false,true,0.0-2.0-0.35-0.318-3.318,1,0,0,68,false,stim,false,0,501.70000076293945,2,0,2,69478,task2,817305,false,false,1138,image-keyboard-response,12
true,10,2,2,2,true,d,false,true,0.0-2.0-0.35-0.319-3.319,1,0,0,68,false,stim,false,2,282.19999980926514,2,1,0,69478,task2,819091,false,false,1141,image-keyboard-response,13
true,10,2,2,2,true,d,false,true,0.0-2.0-0.35-0.320-3.320,1,0,0,68,false,stim,false,0,364.5,2,0,2,69478,task2,820960,false,false,1144,image-keyboard-response,14
true,10,2,2,2,true,d,false,false,0.0-2.0-0.35-0.321-3.321,1,0,0,68,false,stim,false,0,237.5999994277954,2,0,2,69478,task2,822703,false,true,1147,image-keyboard-response,15
true,10,2,2,1,false,z,true,false,0.0-2.0-0.35-0.322-3.322,1,0,0,68,false,stim,false,0,521.3000001907349,2,0,1,69478,task2,824728,false,false,1150,image-keyboard-response,16
true,10,2,2,2,true,d,false,true,0.0-2.0-0.35-0.323-3.323,1,0,0,68,false,stim,false,2,657.0,2,1,0,69478,task2,826889,false,false,1153,image-keyboard-response,17
true,10,1,2,1,true,z,false,true,0.0-2.0-0.36-0.324-3.324,1,0,0,90,false,stim,false,0,565.7999992370605,2,0,1,69478,task2,828960,false,false,1156,image-keyboard-response,18
true,10,1,2,2,false,d,true,false,0.0-2.0-0.36-0.325-3.325,1,0,0,90,false,stim,false,0,364.80000019073486,2,0,2,69478,task2,830829,false,false,1159,image-keyboard-response,19
true,10,0,2,1,false,z,false,false,0.0-2.0-0.36-0.326-3.326,1,0,0,81,false,stim,true,0,411.80000019073486,2,0,1,69478,task2,832745,false,false,1162,image-keyboard-response,20
true,10,2,2,2,true,d,false,true,0.0-2.0-0.36-0.327-3.327,1,0,0,68,false,stim,false,2,610.0999994277954,2,1,0,69478,task2,834861,false,false,1165,image-keyboard-response,21
true,10,1,2,2,false,d,true,false,0.0-2.0-0.36-0.328-3.328,1,0,0,90,false,stim,false,0,331.5,2,0,2,69478,task2,836697,false,false,1168,image-keyboard-response,22
true,10,2,2,2,true,d,false,true,0.0-2.0-0.36-0.329-3.329,1,0,0,68,false,stim,false,0,156.30000019073486,2,0,2,69478,task2,838357,false,false,1171,image-keyboard-response,23
true,10,2,2,1,false,z,true,false,0.0-2.0-0.36-0.330-3.330,1,0,0,68,false,stim,false,0,210.30000019073486,2,0,1,69478,task2,840071,false,false,1174,image-keyboard-response,24
true,10,1,2,2,false,d,true,false,0.0-2.0-0.36-0.331-3.331,1,0,0,90,false,stim,false,2,448.9000005722046,2,1,0,69478,task2,842024,false,false,1177,image-keyboard-response,25
true,10,2,2,2,true,d,false,false,0.0-2.0-0.36-0.332-3.332,1,0,0,68,false,stim,false,2,146.30000019073486,2,1,0,69478,task2,843675,false,true,1180,image-keyboard-response,26
true,10,1,2,1,true,z,false,true,0.0-2.0-0.37-0.333-3.333,1,0,0,90,false,stim,false,0,551.1999998092651,2,0,1,69478,task2,845730,false,false,1183,image-keyboard-response,27
true,10,1,2,2,false,d,true,false,0.0-2.0-0.37-0.334-3.334,1,0,0,90,false,stim,false,0,288.4000005722046,2,0,2,69478,task2,847523,false,false,1186,image-keyboard-response,28
true,10,1,2,2,false,d,true,false,0.0-2.0-0.37-0.335-3.335,1,0,0,90,false,stim,false,0,342.80000019073486,2,0,2,69478,task2,849371,false,false,1189,image-keyboard-response,29
true,10,1,2,2,false,d,true,false,0.0-2.0-0.37-0.336-3.336,1,0,0,90,false,stim,false,2,380.29999923706055,2,1,0,69478,task2,851256,false,false,1192,image-keyboard-response,30
true,10,1,2,2,false,d,true,false,0.0-2.0-0.37-0.337-3.337,1,0,0,90,false,stim,false,2,427.70000076293945,2,0,0,69478,task2,853188,false,false,1195,image-keyboard-response,31
true,10,0,2,1,false,z,false,false,0.0-2.0-0.37-0.338-3.338,1,0,0,81,false,stim,true,0,480.5999994277954,2,0,1,69478,task2,855174,false,false,1198,image-keyboard-response,32
true,10,0,2,2,false,d,true,false,0.0-2.0-0.37-0.339-3.339,1,0,0,81,false,stim,false,2,576.5,2,0,0,69478,task2,857258,false,false,1201,image-keyboard-response,33
true,10,1,2,1,true,z,false,true,0.0-2.0-0.37-0.340-3.340,1,0,0,90,false,stim,false,0,434.0999994277954,2,0,1,69478,task2,859196,false,false,1204,image-keyboard-response,34
true,10,1,2,2,false,d,true,false,0.0-2.0-0.37-0.341-3.341,1,0,0,90,false,stim,false,0,510.69999980926514,2,1,2,69478,task2,861212,false,false,1207,image-keyboard-response,35
true,11,2,2,2,true,d,false,true,0.0-2.0-0.38-0.342-3.342,0,0,1,68,true,stim,false,2,433.8999996185303,2,1,2,69478,task2,863151,false,false,1210,image-keyboard-response,1
true,11,1,2,0,false,q,false,false,0.0-2.0-0.38-0.343-3.343,0,0,1,90,false,stim,true,1,478.80000019073486,2,0,1,69478,task2,865133,false,false,1213,image-keyboard-response,2
true,11,1,2,0,false,q,false,false,0.0-2.0-0.38-0.344-3.344,0,0,1,90,false,stim,true,1,593.0,2,0,1,69478,task2,867230,false,false,1216,image-keyboard-response,3
true,11,2,2,2,true,d,false,true,0.0-2.0-0.38-0.345-3.345,0,0,1,68,false,stim,false,2,373.69999980926514,2,1,2,69478,task2,869110,false,false,1219,image-keyboard-response,4
true,11,0,2,1,false,z,true,false,0.0-2.0-0.38-0.346-3.346,0,0,1,81,false,stim,false,2,1122.0,2,0,0,69478,task2,871735,false,false,1222,image-keyboard-response,5
true,11,2,2,0,false,q,true,true,0.0-2.0-0.38-0.347-3.347,0,0,1,68,false,stim,false,1,607.0,2,0,1,69478,task2,873846,false,true,1225,image-keyboard-response,6
true,11,2,2,1,false,z,false,false,0.0-2.0-0.38-0.348-3.348,0,0,1,68,false,stim,true,2,546.3000001907349,2,0,0,69478,task2,875895,false,false,1228,image-keyboard-response,7
true,11,2,2,2,true,d,false,true,0.0-2.0-0.38-0.349-3.349,0,0,1,68,false,stim,false,2,982.8999996185303,2,1,2,69478,task2,878383,false,false,1231,image-keyboard-response,8
true,11,2,2,1,false,z,false,false,0.0-2.0-0.38-0.350-3.350,0,0,1,68,false,stim,true,2,480.70000076293945,2,0,0,69478,task2,880367,false,false,1234,image-keyboard-response,9
true,11,1,2,1,true,z,false,true,0.0-2.0-0.39-0.351-3.351,0,0,1,90,false,stim,false,2,352.19999980926514,2,0,0,69478,task2,882223,false,false,1237,image-keyboard-response,10
true,11,2,2,0,false,q,true,false,0.0-2.0-0.39-0.352-3.352,0,0,1,68,false,stim,false,1,469.5,2,0,1,69478,task2,884198,false,false,1240,image-keyboard-response,11
true,11,2,2,0,false,q,true,false,0.0-2.0-0.39-0.353-3.353,0,0,1,68,false,stim,false,1,354.1000003814697,2,0,1,69478,task2,886057,false,false,1243,image-keyboard-response,12
true,11,2,2,2,true,d,false,true,0.0-2.0-0.39-0.354-3.354,0,0,1,68,false,stim,false,2,345.70000076293945,2,1,2,69478,task2,887906,false,false,1246,image-keyboard-response,13
true,11,1,2,1,true,z,false,true,0.0-2.0-0.39-0.355-3.355,0,0,1,90,false,stim,false,2,583.1999998092651,2,0,0,69478,task2,889994,false,false,1249,image-keyboard-response,14
true,11,1,2,0,false,q,false,false,0.0-2.0-0.39-0.356-3.356,0,0,1,90,false,stim,true,1,438.4000005722046,2,0,1,69478,task2,891937,false,false,1252,image-keyboard-response,15
true,11,1,2,2,false,d,true,false,0.0-2.0-0.39-0.357-3.357,0,0,1,90,false,stim,false,2,544.9000005722046,2,1,2,69478,task2,893985,false,false,1255,image-keyboard-response,16
true,11,2,2,2,true,d,false,true,0.0-2.0-0.39-0.358-3.358,0,0,1,68,false,stim,false,2,464.30000019073486,2,1,2,69478,task2,895954,false,false,1258,image-keyboard-response,17
true,11,1,2,1,true,z,false,true,0.0-2.0-0.39-0.359-3.359,0,0,1,90,false,stim,false,2,530.0,2,0,0,69478,task2,897988,false,false,1261,image-keyboard-response,18
true,11,2,2,2,true,d,false,true,0.0-2.0-0.40-0.360-3.360,0,0,1,68,false,stim,false,2,861.8000001907349,2,1,2,69478,task2,900355,false,false,1264,image-keyboard-response,19
true,11,1,2,1,true,z,false,true,0.0-2.0-0.40-0.361-3.361,0,0,1,90,false,stim,false,2,982.5999994277954,2,0,0,69478,task2,902842,false,false,1267,image-keyboard-response,20
true,11,1,2,1,true,z,false,true,0.0-2.0-0.40-0.362-3.362,0,0,1,90,false,stim,false,2,317.0,2,0,0,69478,task2,904665,false,false,1270,image-keyboard-response,21
true,11,0,2,0,true,q,false,true,0.0-2.0-0.40-0.363-3.363,0,0,1,81,false,stim,false,1,354.3999996185303,2,0,1,69478,task2,906523,false,false,1273,image-keyboard-response,22
true,11,1,2,2,false,d,true,false,0.0-2.0-0.40-0.364-3.364,0,0,1,90,false,stim,false,2,460.0999994277954,2,1,2,69478,task2,908488,false,false,1276,image-keyboard-response,23
true,11,0,2,0,true,q,false,true,0.0-2.0-0.40-0.365-3.365,0,0,1,81,false,stim,false,1,679.4000005722046,2,0,1,69478,task2,910671,false,false,1279,image-keyboard-response,24
true,11,1,2,1,true,z,false,true,0.0-2.0-0.40-0.366-3.366,0,0,1,90,false,stim,false,2,707.5,2,0,0,69478,task2,912882,false,false,1282,image-keyboard-response,25
true,11,2,2,2,true,d,false,true,0.0-2.0-0.40-0.367-3.367,0,0,1,68,false,stim,false,2,949.0,2,1,2,69478,task2,915336,false,false,1285,image-keyboard-response,26
true,11,0,2,0,true,q,false,true,0.0-2.0-0.40-0.368-3.368,0,0,1,81,false,stim,false,1,651.6000003814697,2,0,1,69478,task2,917492,false,false,1288,image-keyboard-response,27
true,11,1,2,0,false,q,false,false,0.0-2.0-0.41-0.369-3.369,0,0,1,90,false,stim,true,1,490.0,2,0,1,69478,task2,919487,false,false,1291,image-keyboard-response,28
true,11,2,2,2,true,d,false,true,0.0-2.0-0.41-0.370-3.370,0,0,1,68,false,stim,false,2,859.6999998092651,2,0,2,69478,task2,921852,false,false,1294,image-keyboard-response,29
true,11,2,2,2,true,d,false,true,0.0-2.0-0.41-0.371-3.371,0,0,1,68,false,stim,false,2,334.19999980926514,2,0,2,69478,task2,923690,false,false,1297,image-keyboard-response,30
true,11,1,2,1,true,z,false,true,0.0-2.0-0.41-0.372-3.372,0,0,1,90,false,stim,false,2,715.1999998092651,2,1,0,69478,task2,925911,false,false,1300,image-keyboard-response,31
true,12,1,2,1,true,z,false,true,0.0-2.0-0.41-0.373-3.373,1,0,0,90,true,stim,false,1,348.9000005722046,2,1,0,69478,task2,927767,false,false,1303,image-keyboard-response,1
true,12,1,2,1,true,z,false,true,0.0-2.0-0.41-0.374-3.374,1,0,0,90,false,stim,false,1,402.69999980926514,2,1,0,69478,task2,929674,false,false,1306,image-keyboard-response,2
true,12,0,2,2,false,d,false,false,0.0-2.0-0.41-0.375-3.375,1,0,0,81,false,stim,true,0,495.0999994277954,2,0,1,69478,task2,931674,false,false,1309,image-keyboard-response,3
true,12,2,2,1,false,z,false,false,0.0-2.0-0.41-0.376-3.376,1,0,0,68,false,stim,true,2,901.1000003814697,2,0,2,69478,task2,934080,false,false,1312,image-keyboard-response,4
true,12,1,2,2,false,d,true,false,0.0-2.0-0.41-0.377-3.377,1,0,0,90,false,stim,false,0,597.9000005722046,2,0,1,69478,task2,936182,false,false,1315,image-keyboard-response,5
true,12,1,2,1,true,z,false,true,0.0-2.0-0.42-0.378-3.378,1,0,0,90,false,stim,false,1,820.7000007629395,2,1,0,69478,task2,938508,false,false,1318,image-keyboard-response,6
true,12,1,2,1,true,z,false,true,0.0-2.0-0.42-0.379-3.379,1,0,0,90,false,stim,false,1,349.19999980926514,2,1,0,69478,task2,940360,false,false,1321,image-keyboard-response,7
true,12,1,2,2,false,d,true,true,0.0-2.0-0.42-0.380-3.380,1,0,0,90,false,stim,false,0,587.1000003814697,2,0,1,69478,task2,942451,false,true,1324,image-keyboard-response,8
true,12,1,2,1,true,z,false,true,0.0-2.0-0.42-0.381-3.381,1,0,0,90,false,stim,false,2,1054.6999998092651,2,0,2,69478,task2,945013,false,false,1327,image-keyboard-response,9
true,12,1,2,1,true,z,false,true,0.0-2.0-0.42-0.382-3.382,1,0,0,90,false,stim,false,2,123.5,2,0,2,69478,task2,946641,false,false,1330,image-keyboard-response,10
true,12,1,2,1,true,z,false,true,0.0-2.0-0.42-0.383-3.383,1,0,0,90,false,stim,false,1,1289.5,2,1,0,69478,task2,949436,false,false,1333,image-keyboard-response,11
true,12,1,2,2,false,d,true,false,0.0-2.0-0.42-0.384-3.384,1,0,0,90,false,stim,false,0,243.5,2,0,1,69478,task2,951184,false,false,1336,image-keyboard-response,12
true,12,1,2,2,false,d,true,false,0.0-2.0-0.42-0.385-3.385,1,0,0,90,false,stim,false,0,290.80000019073486,2,0,1,69478,task2,952980,false,false,1339,image-keyboard-response,13
true,12,1,2,1,true,z,false,true,0.0-2.0-0.42-0.386-3.386,1,0,0,90,false,stim,false,2,200.0,2,0,2,69478,task2,954684,false,false,1342,image-keyboard-response,14
true,12,1,2,2,false,d,true,false,0.0-2.0-0.43-0.387-3.387,1,0,0,90,false,stim,false,0,243.80000019073486,2,0,1,69478,task2,956433,false,false,1345,image-keyboard-response,15
true,12,1,2,2,false,d,true,false,0.0-2.0-0.43-0.388-3.388,1,0,0,90,false,stim,false,0,213.80000019073486,2,0,1,69478,task2,958152,false,false,1348,image-keyboard-response,16
true,12,0,2,2,false,d,false,false,0.0-2.0-0.43-0.389-3.389,1,0,0,81,false,stim,true,0,412.6000003814697,2,0,1,69478,task2,960068,false,false,1351,image-keyboard-response,17
true,12,1,2,1,true,z,false,true,0.0-2.0-0.43-0.390-3.390,1,0,0,90,false,stim,false,2,688.0,2,0,2,69478,task2,962260,false,false,1354,image-keyboard-response,18
true,12,1,2,1,true,z,false,true,0.0-2.0-0.43-0.391-3.391,1,0,0,90,false,stim,false,1,513.8000001907349,2,1,0,69478,task2,964279,false,false,1357,image-keyboard-response,19
true,12,1,2,1,true,z,false,true,0.0-2.0-0.43-0.392-3.392,1,0,0,90,false,stim,false,1,324.79999923706055,2,1,0,69478,task2,966109,false,false,1360,image-keyboard-response,20
true,12,1,2,1,true,z,false,true,0.0-2.0-0.43-0.393-3.393,1,0,0,90,false,stim,false,2,412.8999996185303,2,0,2,69478,task2,968026,false,false,1363,image-keyboard-response,21
true,12,1,2,1,true,z,false,true,0.0-2.0-0.43-0.394-3.394,1,0,0,90,false,stim,false,1,366.20000076293945,2,1,0,69478,task2,969896,false,false,1366,image-keyboard-response,22
true,12,1,2,1,true,z,false,true,0.0-2.0-0.43-0.395-3.395,1,0,0,90,false,stim,false,2,349.30000019073486,2,0,2,69478,task2,971751,false,false,1369,image-keyboard-response,23
true,12,1,2,1,true,z,false,true,0.0-2.0-0.44-0.396-3.396,1,0,0,90,false,stim,false,1,284.4000005722046,2,1,0,69478,task2,973541,false,false,1372,image-keyboard-response,24
true,12,2,2,1,false,z,false,false,0.0-2.0-0.44-0.397-3.397,1,0,0,68,false,stim,true,2,265.69999980926514,2,0,2,69478,task2,975310,false,false,1375,image-keyboard-response,25
true,12,2,2,2,true,d,false,true,0.0-2.0-0.44-0.398-3.398,1,0,0,68,false,stim,false,0,399.3999996185303,2,0,1,69478,task2,977213,false,false,1378,image-keyboard-response,26
true,12,2,2,1,false,z,false,false,0.0-2.0-0.44-0.399-3.399,1,0,0,68,false,stim,true,2,292.0,2,0,2,69478,task2,979010,false,false,1381,image-keyboard-response,27
true,12,1,2,1,true,z,false,true,0.0-2.0-0.44-0.400-3.400,1,0,0,90,false,stim,false,2,360.29999923706055,2,0,2,69478,task2,980875,false,false,1384,image-keyboard-response,28
true,12,1,2,1,true,z,false,true,0.0-2.0-0.44-0.401-3.401,1,0,0,90,false,stim,false,1,756.9000005722046,2,1,0,69478,task2,983137,false,false,1387,image-keyboard-response,29
true,12,1,2,2,false,d,true,false,0.0-2.0-0.44-0.402-3.402,1,0,0,90,false,stim,false,0,315.5,2,0,1,69478,task2,984956,false,false,1390,image-keyboard-response,30
true,12,1,2,2,false,d,true,false,0.0-2.0-0.44-0.403-3.403,1,0,0,90,false,stim,false,0,560.5999994277954,2,0,1,69478,task2,987021,false,false,1393,image-keyboard-response,31
true,12,1,2,1,true,z,false,true,0.0-2.0-0.44-0.404-3.404,1,0,0,90,false,stim,false,1,2083.300000190735,2,1,0,69478,task2,990609,false,false,1396,image-keyboard-response,32
true,12,1,2,2,false,d,true,false,0.0-2.0-0.45-0.405-3.405,1,0,0,90,false,stim,false,0,1818.0,2,0,1,69478,task2,993933,false,false,1399,image-keyboard-response,33
true,12,0,2,1,false,z,true,false,0.0-2.0-0.45-0.406-3.406,1,0,0,81,false,stim,false,2,472.9000005722046,2,0,2,69478,task2,995915,false,false,1402,image-keyboard-response,34
true,13,1,2,1,true,z,false,true,0.0-2.0-0.45-0.407-3.407,1,0,0,90,true,stim,false,1,783.7999992370605,2,1,0,69478,task2,998203,false,false,1405,image-keyboard-response,1
true,13,1,2,2,false,d,false,false,0.0-2.0-0.45-0.408-3.408,1,0,0,90,false,stim,true,1,1562.6000003814697,2,0,2,69478,task2,1001271,false,false,1408,image-keyboard-response,2
true,13,1,2,1,true,z,false,false,0.0-2.0-0.45-0.409-3.409,1,0,0,90,false,stim,false,2,1596.0,2,0,1,69478,task2,1004373,false,true,1411,image-keyboard-response,3
true,13,1,2,1,true,z,false,true,0.0-2.0-0.45-0.410-3.410,1,0,0,90,false,stim,false,1,766.4000005722046,2,1,0,69478,task2,1006644,false,false,1414,image-keyboard-response,4
true,13,1,2,1,true,z,false,false,0.0-2.0-0.45-0.411-3.411,1,0,0,90,false,stim,false,2,416.0,2,0,1,69478,task2,1008564,false,true,1417,image-keyboard-response,5
true,13,1,2,1,true,z,false,true,0.0-2.0-0.45-0.412-3.412,1,0,0,90,false,stim,false,1,1512.1000003814697,2,1,0,69478,task2,1011581,false,false,1420,image-keyboard-response,6
false,13,-1,2,2,false,d,true,false,0.0-2.0-0.45-0.413-3.413,1,0,0,,false,stim,false,1,,2,0,2,69478,task2,1016086,false,false,1423,image-keyboard-response,7
true,13,2,2,1,false,z,true,false,0.0-2.0-0.46-0.414-3.414,1,0,0,68,false,stim,false,1,588.2000007629395,2,1,0,69478,task2,1018180,false,false,1426,image-keyboard-response,8
true,13,1,2,2,false,d,false,false,0.0-2.0-0.46-0.415-3.415,1,0,0,90,false,stim,true,1,2901.2000007629395,2,0,2,69478,task2,1022585,false,false,1429,image-keyboard-response,9
true,13,1,2,1,true,z,false,true,0.0-2.0-0.46-0.416-3.416,1,0,0,90,false,stim,false,1,2487.6000003814697,2,1,0,69478,task2,1026577,false,false,1432,image-keyboard-response,10
true,13,1,2,1,true,z,false,true,0.0-2.0-0.46-0.417-3.417,1,0,0,90,false,stim,false,2,117.40000057220459,2,0,1,69478,task2,1028201,false,false,1435,image-keyboard-response,11
true,13,1,2,1,true,z,false,true,0.0-2.0-0.46-0.418-3.418,1,0,0,90,false,stim,false,2,207.89999961853027,2,0,1,69478,task2,1029912,false,false,1438,image-keyboard-response,12
true,13,1,2,1,true,z,false,true,0.0-2.0-0.46-0.419-3.419,1,0,0,90,false,stim,false,1,1813.6999998092651,2,1,0,69478,task2,1033231,false,false,1441,image-keyboard-response,13
true,13,1,2,2,false,d,false,false,0.0-2.0-0.46-0.420-3.420,1,0,0,90,false,stim,true,1,2004.8000001907349,2,0,2,69478,task2,1036740,false,false,1444,image-keyboard-response,14
true,13,1,2,1,true,z,false,true,0.0-2.0-0.46-0.421-3.421,1,0,0,90,false,stim,false,2,1450.5,2,0,1,69478,task2,1039695,false,false,1447,image-keyboard-response,15
true,13,1,2,2,false,d,false,false,0.0-2.0-0.46-0.422-3.422,1,0,0,90,false,stim,true,1,1792.0999994277954,2,0,2,69478,task2,1042992,false,false,1450,image-keyboard-response,16
true,13,1,2,2,false,d,false,false,0.0-2.0-0.47-0.423-3.423,1,0,0,90,false,stim,true,1,2028.6999998092651,2,0,2,69478,task2,1046527,false,false,1453,image-keyboard-response,17
true,13,1,2,1,true,z,false,true,0.0-2.0-0.47-0.424-3.424,1,0,0,90,false,stim,false,1,522.0,2,1,0,69478,task2,1048554,false,false,1456,image-keyboard-response,18
false,13,-1,2,1,false,z,true,false,0.0-2.0-0.47-0.425-3.425,1,0,0,,false,stim,false,1,,2,1,0,69478,task2,1053058,false,false,1459,image-keyboard-response,19
true,13,1,2,1,true,z,false,true,0.0-2.0-0.47-0.426-3.426,1,0,0,90,false,stim,false,2,1581.6000003814697,2,0,1,69478,task2,1056147,false,false,1462,image-keyboard-response,20
true,13,1,2,1,true,z,false,true,0.0-2.0-0.47-0.427-3.427,1,0,0,90,false,stim,false,1,935.8000001907349,2,1,0,69478,task2,1058589,false,false,1465,image-keyboard-response,21
true,13,0,2,2,false,d,true,true,0.0-2.0-0.47-0.428-3.428,1,0,0,81,false,stim,false,1,901.1999998092651,2,0,2,69478,task2,1060994,false,true,1468,image-keyboard-response,22
true,13,1,2,2,false,d,false,true,0.0-2.0-0.47-0.429-3.429,1,0,0,90,false,stim,true,1,2069.5999994277954,2,0,2,69478,task2,1064568,false,true,1471,image-keyboard-response,23
true,13,1,2,1,true,z,false,true,0.0-2.0-0.47-0.430-3.430,1,0,0,90,false,stim,false,2,928.1999998092651,2,0,1,69478,task2,1067000,false,false,1474,image-keyboard-response,24
true,13,1,2,1,true,z,false,true,0.0-2.0-0.47-0.431-3.431,1,0,0,90,false,stim,false,2,1987.1999998092651,2,0,1,69478,task2,1070493,false,false,1477,image-keyboard-response,25
true,13,1,2,2,false,d,false,false,0.0-2.0-0.48-0.432-3.432,1,0,0,90,false,stim,true,1,518.8000001907349,2,0,2,69478,task2,1072517,false,false,1480,image-keyboard-response,26
true,13,1,2,2,false,d,false,false,0.0-2.0-0.48-0.433-3.433,1,0,0,90,false,stim,true,1,324.4000005722046,2,0,2,69478,task2,1074345,false,false,1483,image-keyboard-response,27
true,13,1,2,1,true,z,false,true,0.0-2.0-0.48-0.434-3.434,1,0,0,90,false,stim,false,1,1186.3999996185303,2,1,0,69478,task2,1077036,false,false,1486,image-keyboard-response,28
true,13,1,2,1,true,z,false,false,0.0-2.0-0.48-0.435-3.435,1,0,0,90,false,stim,false,2,2034.9000005722046,2,0,1,69478,task2,1080576,false,true,1489,image-keyboard-response,29
true,13,1,2,1,true,z,false,true,0.0-2.0-0.48-0.436-3.436,1,0,0,90,false,stim,false,1,741.6999998092651,2,0,0,69478,task2,1082822,false,false,1492,image-keyboard-response,30
true,13,1,2,1,true,z,false,true,0.0-2.0-0.48-0.437-3.437,1,0,0,90,false,stim,false,1,2779.3999996185303,2,0,0,69478,task2,1087107,false,false,1495,image-keyboard-response,31
true,13,1,2,1,true,z,false,false,0.0-2.0-0.48-0.438-3.438,1,0,0,90,false,stim,false,2,1739.7000007629395,2,0,1,69478,task2,1090352,false,true,1498,image-keyboard-response,32
true,13,1,2,2,false,d,false,false,0.0-2.0-0.48-0.439-3.439,1,0,0,90,false,stim,true,1,167.80000019073486,2,1,2,69478,task2,1092028,false,false,1501,image-keyboard-response,33
false,14,-1,2,0,false,q,true,false,0.0-2.0-0.48-0.440-3.440,0,0,1,,true,stim,false,1,,2,0,1,69478,task2,1096534,false,false,1504,image-keyboard-response,1
true,14,1,2,0,false,q,false,true,0.0-2.0-0.49-0.441-3.441,0,0,1,90,false,stim,true,1,1614.8999996185303,2,0,1,69478,task2,1099654,false,true,1507,image-keyboard-response,2
true,14,1,2,0,false,q,false,false,0.0-2.0-0.49-0.442-3.442,0,0,1,90,false,stim,true,1,2507.300000190735,2,0,0,69478,task2,1103667,false,false,1510,image-keyboard-response,3
true,14,1,2,2,false,d,true,false,0.0-2.0-0.49-0.443-3.443,0,0,1,90,false,stim,false,2,1046.5,2,1,2,69478,task2,1106219,false,false,1513,image-keyboard-response,4
true,14,1,2,2,false,d,true,false,0.0-2.0-0.49-0.444-3.444,0,0,1,90,false,stim,false,2,689.5999994277954,2,1,2,69478,task2,1108413,false,false,1516,image-keyboard-response,5
true,14,1,2,2,false,d,true,false,0.0-2.0-0.49-0.445-3.445,0,0,1,90,false,stim,false,2,1428.0,2,1,2,69478,task2,1111347,false,false,1519,image-keyboard-response,6
true,14,1,2,0,false,q,false,false,0.0-2.0-0.49-0.446-3.446,0,0,1,90,false,stim,true,1,560.3000001907349,2,0,1,69478,task2,1113413,false,false,1522,image-keyboard-response,7
true,14,1,2,0,false,q,false,false,0.0-2.0-0.49-0.447-3.447,0,0,1,90,false,stim,true,1,27.5,2,0,1,69478,task2,1114945,false,false,1525,image-keyboard-response,8
true,14,1,2,0,false,q,false,false,0.0-2.0-0.49-0.448-3.448,0,0,1,90,false,stim,true,1,368.1000003814697,2,0,0,69478,task2,1116817,false,false,1528,image-keyboard-response,9
true,14,0,2,0,true,q,false,true,0.0-2.0-0.49-0.449-3.449,0,0,1,81,false,stim,false,1,333.6000003814697,2,0,0,69478,task2,1118655,false,false,1531,image-keyboard-response,10
true,14,1,2,0,false,q,false,false,0.0-2.0-0.50-0.450-3.450,0,0,1,90,false,stim,true,1,370.1000003814697,2,0,0,69478,task2,1120531,false,false,1534,image-keyboard-response,11
false,14,-1,2,0,false,q,true,false,0.0-2.0-0.50-0.451-3.451,0,0,1,,false,stim,false,1,,2,0,0,69478,task2,1125037,false,false,1537,image-keyboard-response,12
true,14,1,2,0,false,q,false,false,0.0-2.0-0.50-0.452-3.452,0,0,1,90,false,stim,true,1,1407.1000003814697,2,0,1,69478,task2,1127950,false,false,1540,image-keyboard-response,13
true,14,1,2,2,false,d,true,false,0.0-2.0-0.50-0.453-3.453,0,0,1,90,false,stim,false,2,524.5,2,1,2,69478,task2,1129980,false,false,1543,image-keyboard-response,14
true,14,1,2,0,false,q,false,true,0.0-2.0-0.50-0.454-3.454,0,0,1,90,false,stim,true,1,535.5,2,0,1,69478,task2,1132020,false,true,1546,image-keyboard-response,15
true,14,1,2,2,false,d,true,false,0.0-2.0-0.50-0.455-3.455,0,0,1,90,false,stim,false,2,1439.6999998092651,2,1,2,69478,task2,1134964,false,false,1549,image-keyboard-response,16
true,14,2,2,0,false,q,true,false,0.0-2.0-0.50-0.456-3.456,0,0,1,68,false,stim,false,1,1688.8000001907349,2,0,1,69478,task2,1138157,false,false,1552,image-keyboard-response,17
true,14,2,2,0,false,q,true,false,0.0-2.0-0.50-0.457-3.457,0,0,1,68,false,stim,false,1,1287.3999996185303,2,0,0,69478,task2,1140949,false,false,1555,image-keyboard-response,18
true,14,1,2,2,false,d,true,false,0.0-2.0-0.50-0.458-3.458,0,0,1,90,false,stim,false,2,1132.8000001907349,2,1,2,69478,task2,1143586,false,false,1558,image-keyboard-response,19
true,14,1,2,0,false,q,false,false,0.0-2.0-0.51-0.459-3.459,0,0,1,90,false,stim,true,1,596.0,2,0,0,69478,task2,1145687,false,false,1561,image-keyboard-response,20
true,14,1,2,2,false,d,true,false,0.0-2.0-0.51-0.460-3.460,0,0,1,90,false,stim,false,2,2008.5,2,1,2,69478,task2,1149204,false,false,1564,image-keyboard-response,21
false,14,-1,2,2,false,d,true,false,0.0-2.0-0.51-0.461-3.461,0,0,1,,false,stim,false,2,,2,1,2,69478,task2,1153710,false,false,1567,image-keyboard-response,22
true,14,1,2,0,false,q,false,false,0.0-2.0-0.51-0.462-3.462,0,0,1,90,false,stim,true,1,218.19999980926514,2,0,0,69478,task2,1155434,false,false,1570,image-keyboard-response,23
false,14,-1,2,0,false,q,true,false,0.0-2.0-0.51-0.463-3.463,0,0,1,,false,stim,false,1,,2,0,1,69478,task2,1159939,false,false,1573,image-keyboard-response,24
true,14,1,2,0,false,q,false,false,0.0-2.0-0.51-0.464-3.464,0,0,1,90,false,stim,true,1,1281.9000005722046,2,0,0,69478,task2,1162726,false,false,1576,image-keyboard-response,25
true,14,1,2,0,false,q,false,false,0.0-2.0-0.51-0.465-3.465,0,0,1,90,false,stim,true,1,1082.5,2,0,1,69478,task2,1165313,false,false,1579,image-keyboard-response,26
false,14,-1,2,0,false,q,true,false,0.0-2.0-0.51-0.466-3.466,0,0,1,,false,stim,false,1,,2,0,1,69478,task2,1169821,false,false,1582,image-keyboard-response,27
true,14,1,2,2,false,d,true,false,0.0-2.0-0.51-0.467-3.467,0,0,1,90,false,stim,false,2,546.6000003814697,2,1,2,69478,task2,1171873,false,false,1585,image-keyboard-response,28
true,14,0,2,0,true,q,false,true,0.0-2.0-0.52-0.468-3.468,0,0,1,81,false,stim,false,1,234.19999980926514,2,0,1,69478,task2,1173613,false,false,1588,image-keyboard-response,29
true,14,0,2,2,false,d,true,false,0.0-2.0-0.52-0.469-3.469,0,0,1,81,false,stim,false,2,276.5,2,1,2,69478,task2,1175393,false,false,1591,image-keyboard-response,30
true,14,1,2,0,false,q,false,false,0.0-2.0-0.52-0.470-3.470,0,0,1,90,false,stim,true,1,1340.8999996185303,2,0,0,69478,task2,1178239,false,false,1594,image-keyboard-response,31
false,14,-1,2,0,false,q,true,false,0.0-2.0-0.52-0.471-3.471,0,0,1,,false,stim,false,1,,2,0,0,69478,task2,1182744,false,false,1597,image-keyboard-response,32
true,14,2,2,0,false,q,true,false,0.0-2.0-0.52-0.472-3.472,0,0,1,68,false,stim,false,1,2952.199999809265,2,1,1,69478,task2,1187202,false,false,1600,image-keyboard-response,33
true,14,1,2,0,false,q,false,false,0.0-2.0-0.52-0.473-3.473,0,0,1,90,false,stim,true,1,295.80000019073486,2,1,1,69478,task2,1189007,false,false,1603,image-keyboard-response,34
true,14,0,2,0,true,q,false,true,0.0-2.0-0.52-0.474-3.474,0,0,1,81,false,stim,false,1,122.5,2,0,0,69478,task2,1190636,false,false,1606,image-keyboard-response,35
true,15,0,2,1,false,z,true,false,0.0-2.0-0.52-0.475-3.475,0,1,0,81,true,stim,false,2,240.0,2,0,2,69478,task2,1192382,false,false,1609,image-keyboard-response,1
true,15,2,2,1,false,z,false,false,0.0-2.0-0.52-0.476-3.476,0,1,0,68,false,stim,true,2,265.8999996185303,2,0,2,69478,task2,1194153,false,false,1612,image-keyboard-response,2
true,15,1,2,1,true,z,false,false,0.0-2.0-0.53-0.477-3.477,0,1,0,90,false,stim,false,0,280.80000019073486,2,0,0,69478,task2,1195939,false,true,1615,image-keyboard-response,3
true,15,2,2,0,false,q,true,false,0.0-2.0-0.53-0.478-3.478,0,1,0,68,false,stim,false,0,236.80000019073486,2,1,1,69478,task2,1197680,false,false,1618,image-keyboard-response,4
true,15,2,2,1,false,z,true,false,0.0-2.0-0.53-0.479-3.479,0,1,0,68,false,stim,false,0,43.19999980926514,2,0,0,69478,task2,1199227,false,false,1621,image-keyboard-response,5
true,15,1,2,0,false,q,true,false,0.0-2.0-0.53-0.480-3.480,0,1,0,90,false,stim,false,0,48.19999980926514,2,1,1,69478,task2,1200781,false,false,1624,image-keyboard-response,6
true,15,1,2,1,true,z,false,true,0.0-2.0-0.53-0.481-3.481,0,1,0,90,false,stim,false,2,86.30000019073486,2,0,2,69478,task2,1202374,false,false,1627,image-keyboard-response,7
true,15,1,2,1,true,z,false,true,0.0-2.0-0.53-0.482-3.482,0,1,0,90,false,stim,false,2,496.80000019073486,2,0,2,69478,task2,1204376,false,false,1630,image-keyboard-response,8
true,15,0,2,0,true,q,false,true,0.0-2.0-0.53-0.483-3.483,0,1,0,81,false,stim,false,0,501.6000003814697,2,1,1,69478,task2,1206383,false,false,1633,image-keyboard-response,9
true,15,0,2,1,false,z,false,false,0.0-2.0-0.53-0.484-3.484,0,1,0,81,false,stim,true,0,697.8999996185303,2,0,0,69478,task2,1208585,false,false,1636,image-keyboard-response,10
true,15,0,2,1,false,z,true,false,0.0-2.0-0.53-0.485-3.485,0,1,0,81,false,stim,false,2,71.69999980926514,2,0,2,69478,task2,1210160,false,false,1639,image-keyboard-response,11
true,15,1,2,0,false,q,true,false,0.0-2.0-0.54-0.486-3.486,0,1,0,90,false,stim,false,0,304.80000019073486,2,1,1,69478,task2,1211971,false,false,1642,image-keyboard-response,12
true,15,1,2,1,true,z,false,true,0.0-2.0-0.54-0.487-3.487,0,1,0,90,false,stim,false,2,221.69999980926514,2,0,2,69478,task2,1213697,false,false,1645,image-keyboard-response,13
true,15,2,2,1,false,z,false,false,0.0-2.0-0.54-0.488-3.488,0,1,0,68,false,stim,true,2,284.69999980926514,2,0,2,69478,task2,1215487,false,false,1648,image-keyboard-response,14
true,15,1,2,1,true,z,false,true,0.0-2.0-0.54-0.489-3.489,0,1,0,90,false,stim,false,2,260.0,2,0,2,69478,task2,1217253,false,false,1651,image-keyboard-response,15
true,15,1,2,1,true,z,false,true,0.0-2.0-0.54-0.490-3.490,0,1,0,90,false,stim,false,0,278.69999980926514,2,0,0,69478,task2,1219037,false,false,1654,image-keyboard-response,16
true,15,1,2,0,false,q,true,false,0.0-2.0-0.54-0.491-3.491,0,1,0,90,false,stim,false,0,302.0,2,1,1,69478,task2,1220843,false,false,1657,image-keyboard-response,17
true,15,0,2,1,false,z,false,false,0.0-2.0-0.54-0.492-3.492,0,1,0,81,false,stim,true,0,409.0999994277954,2,0,0,69478,task2,1222757,false,false,1660,image-keyboard-response,18
true,15,0,2,0,true,q,false,true,0.0-2.0-0.54-0.493-3.493,0,1,0,81,false,stim,false,0,668.5999994277954,2,1,1,69478,task2,1224931,false,false,1663,image-keyboard-response,19
true,15,0,2,1,false,z,false,false,0.0-2.0-0.54-0.494-3.494,0,1,0,81,false,stim,true,0,210.4000005722046,2,0,0,69478,task2,1226647,false,false,1666,image-keyboard-response,20
true,15,2,2,0,false,q,true,false,0.0-2.0-0.55-0.495-3.495,0,1,0,68,false,stim,false,0,150.69999980926514,2,1,1,69478,task2,1228304,false,false,1669,image-keyboard-response,21
true,15,2,2,1,false,z,true,true,0.0-2.0-0.55-0.496-3.496,0,1,0,68,false,stim,false,0,452.0999994277954,2,0,0,69478,task2,1230262,false,true,1672,image-keyboard-response,22
true,15,2,2,1,false,z,true,false,0.0-2.0-0.55-0.497-3.497,0,1,0,68,false,stim,false,0,239.5,2,0,0,69478,task2,1232005,false,false,1675,image-keyboard-response,23
true,15,2,2,1,false,z,false,true,0.0-2.0-0.55-0.498-3.498,0,1,0,68,false,stim,true,2,194.69999980926514,2,0,2,69478,task2,1233703,false,true,1678,image-keyboard-response,24
true,15,2,2,1,false,z,false,false,0.0-2.0-0.55-0.499-3.499,0,1,0,68,false,stim,true,2,247.79999923706055,2,0,2,69478,task2,1235457,false,false,1681,image-keyboard-response,25
true,15,1,2,1,true,z,false,true,0.0-2.0-0.55-0.500-3.500,0,1,0,90,false,stim,false,0,383.29999923706055,2,0,0,69478,task2,1237346,false,false,1684,image-keyboard-response,26
true,15,1,2,1,true,z,false,true,0.0-2.0-0.55-0.501-3.501,0,1,0,90,false,stim,false,2,355.5,2,1,2,69478,task2,1239208,false,false,1687,image-keyboard-response,27
true,15,1,2,0,false,q,true,true,0.0-2.0-0.55-0.502-3.502,0,1,0,90,false,stim,false,0,294.6000003814697,2,1,1,69478,task2,1241007,false,true,1690,image-keyboard-response,28
true,15,1,2,0,false,q,true,false,0.0-2.0-0.55-0.503-3.503,0,1,0,90,false,stim,false,0,330.1000003814697,2,1,1,69478,task2,1242842,false,false,1693,image-keyboard-response,29
true,15,1,2,1,true,z,false,true,0.0-2.0-0.56-0.504-3.504,0,1,0,90,false,stim,false,2,541.0999994277954,2,1,2,69478,task2,1244890,false,false,1696,image-keyboard-response,30
true,15,1,2,1,true,z,false,true,0.0-2.0-0.56-0.505-3.505,0,1,0,90,false,stim,false,0,283.30000019073486,2,1,0,69478,task2,1246679,false,false,1699,image-keyboard-response,31
true,16,2,0,0,false,q,true,false,0.0-2.0-0.56-0.506-3.506,1,1,1,68,true,stim,false,0,428.3999996185303,2,1,1,69478,task2,1291361,false,false,1745,image-keyboard-response,1
true,16,1,0,0,false,q,true,false,0.0-2.0-0.56-0.507-3.507,1,1,1,90,false,stim,false,0,348.8999996185303,2,1,1,69478,task2,1293215,false,false,1748,image-keyboard-response,2
true,16,1,0,1,true,z,false,true,0.0-2.0-0.56-0.508-3.508,1,1,1,90,false,stim,false,1,304.5,2,1,0,69478,task2,1295026,false,false,1751,image-keyboard-response,3
true,16,1,0,0,false,q,true,false,0.0-2.0-0.56-0.509-3.509,1,1,1,90,false,stim,false,0,187.29999923706055,2,1,1,69478,task2,1296718,false,false,1754,image-keyboard-response,4
true,16,0,0,1,false,z,true,false,0.0-2.0-0.56-0.510-3.510,1,1,1,81,false,stim,false,1,476.5999994277954,2,1,2,69478,task2,1298699,false,false,1757,image-keyboard-response,5
true,16,1,0,1,true,z,false,true,0.0-2.0-0.56-0.511-3.511,1,1,1,90,false,stim,false,1,384.79999923706055,2,1,0,69478,task2,1300590,false,false,1760,image-keyboard-response,6
true,16,1,0,1,true,z,false,true,0.0-2.0-0.56-0.512-3.512,1,1,1,90,false,stim,false,1,401.5,2,1,2,69478,task2,1302499,false,false,1763,image-keyboard-response,7
true,16,1,0,1,true,z,false,true,0.0-2.0-0.57-0.513-3.513,1,1,1,90,false,stim,false,1,433.20000076293945,2,1,2,69478,task2,1304437,false,false,1766,image-keyboard-response,8
true,16,1,0,1,true,z,false,false,0.0-2.0-0.57-0.514-3.514,1,1,1,90,false,stim,false,1,317.6000003814697,2,0,0,69478,task2,1306259,false,true,1769,image-keyboard-response,9
true,16,1,0,1,true,z,false,true,0.0-2.0-0.57-0.515-3.515,1,1,1,90,false,stim,false,1,286.0999994277954,2,0,0,69478,task2,1308050,false,false,1772,image-keyboard-response,10
true,16,1,0,1,true,z,false,true,0.0-2.0-0.57-0.516-3.516,1,1,1,90,false,stim,false,1,262.0,2,0,2,69478,task2,1309817,false,false,1775,image-keyboard-response,11
true,16,0,0,0,true,q,false,true,0.0-2.0-0.57-0.517-3.517,1,1,1,81,false,stim,false,0,578.7000007629395,2,0,1,69478,task2,1311901,false,false,1778,image-keyboard-response,12
true,16,1,0,1,true,z,false,true,0.0-2.0-0.57-0.518-3.518,1,1,1,90,false,stim,false,1,580.5999994277954,2,0,2,69478,task2,1313987,false,false,1781,image-keyboard-response,13
true,17,0,1,2,false,d,false,false,0.0-2.0-0.57-0.519-3.519,0,0,0,81,true,stim,true,0,496.5999994277954,2,0,1,69478,task2,1315988,false,false,1784,image-keyboard-response,1
true,17,1,1,0,false,q,false,false,0.0-2.0-0.57-0.520-3.520,0,0,0,90,false,stim,true,1,327.3999996185303,2,0,0,69478,task2,1317821,false,false,1787,image-keyboard-response,2
true,17,1,1,2,false,d,true,false,0.0-2.0-0.57-0.521-3.521,0,0,0,90,false,stim,false,0,235.9000005722046,2,0,1,69478,task2,1319561,false,false,1790,image-keyboard-response,3
true,17,1,1,0,false,q,false,false,0.0-2.0-0.58-0.522-3.522,0,0,0,90,false,stim,true,1,220.0,2,0,2,69478,task2,1321286,false,false,1793,image-keyboard-response,4
true,17,2,1,0,false,q,true,false,0.0-2.0-0.58-0.523-3.523,0,0,0,68,false,stim,false,1,367.8999996185303,2,0,2,69478,task2,1323160,false,false,1796,image-keyboard-response,5
true,17,0,1,0,true,q,false,true,0.0-2.0-0.58-0.524-3.524,0,0,0,81,false,stim,false,1,414.5,2,0,0,69478,task2,1325080,false,false,1799,image-keyboard-response,6
true,17,0,1,2,false,d,false,false,0.0-2.0-0.58-0.525-3.525,0,0,0,81,false,stim,true,0,543.5,2,0,1,69478,task2,1327132,false,false,1802,image-keyboard-response,7
true,17,1,1,0,false,q,false,false,0.0-2.0-0.58-0.526-3.526,0,0,0,90,false,stim,true,1,493.30000019073486,2,0,2,69478,task2,1329130,false,false,1805,image-keyboard-response,8
true,17,2,1,0,false,q,true,false,0.0-2.0-0.58-0.527-3.527,0,0,0,68,false,stim,false,1,234.30000019073486,2,0,0,69478,task2,1330869,false,false,1808,image-keyboard-response,9
true,17,1,1,2,false,d,true,false,0.0-2.0-0.58-0.528-3.528,0,0,0,90,false,stim,false,0,520.2999992370605,2,0,1,69478,task2,1332895,false,false,1811,image-keyboard-response,10
true,17,0,1,2,false,d,false,false,0.0-2.0-0.58-0.529-3.529,0,0,0,81,false,stim,true,0,599.6000003814697,2,0,1,69478,task2,1335000,false,false,1814,image-keyboard-response,11
true,17,1,1,0,false,q,false,false,0.0-2.0-0.58-0.530-3.530,0,0,0,90,false,stim,true,1,375.5,2,0,0,69478,task2,1336881,false,false,1817,image-keyboard-response,12
true,17,1,1,0,false,q,false,false,0.0-2.0-0.59-0.531-3.531,0,0,0,90,false,stim,true,1,571.5999994277954,2,0,2,69478,task2,1338956,false,false,1820,image-keyboard-response,13
true,17,1,1,0,false,q,false,false,0.0-2.0-0.59-0.532-3.532,0,0,0,90,false,stim,true,1,1844.6999998092651,2,0,2,69478,task2,1342305,false,false,1823,image-keyboard-response,14
true,17,1,1,2,false,d,true,false,0.0-2.0-0.59-0.533-3.533,0,0,0,90,false,stim,false,0,1370.8999996185303,2,0,1,69478,task2,1345181,false,false,1826,image-keyboard-response,15
true,17,1,1,0,false,q,false,false,0.0-2.0-0.59-0.534-3.534,0,0,0,90,false,stim,true,1,1484.1999998092651,2,0,0,69478,task2,1348171,false,false,1829,image-keyboard-response,16
true,17,1,1,2,false,d,true,false,0.0-2.0-0.59-0.535-3.535,0,0,0,90,false,stim,false,0,135.5,2,0,1,69478,task2,1349811,false,false,1832,image-keyboard-response,17
true,17,1,1,0,false,q,false,false,0.0-2.0-0.59-0.536-3.536,0,0,0,90,false,stim,true,1,1307.5,2,0,2,69478,task2,1352626,false,false,1835,image-keyboard-response,18
true,17,1,1,0,false,q,false,true,0.0-2.0-0.59-0.537-3.537,0,0,0,90,false,stim,true,1,1292.1000003814697,2,0,0,69478,task2,1355424,false,true,1838,image-keyboard-response,19
true,17,1,1,0,false,q,false,false,0.0-2.0-0.59-0.538-3.538,0,0,0,90,false,stim,true,1,374.70000076293945,2,0,0,69478,task2,1357304,false,false,1841,image-keyboard-response,20
true,17,0,1,2,false,d,false,false,0.0-2.0-0.59-0.539-3.539,0,0,0,81,false,stim,true,0,388.0,2,0,1,69478,task2,1359196,false,false,1844,image-keyboard-response,21
true,17,0,1,0,true,q,false,true,0.0-2.0-0.60-0.540-3.540,0,0,0,81,false,stim,false,1,513.6999998092651,2,0,0,69478,task2,1361216,false,false,1847,image-keyboard-response,22
true,17,0,1,2,false,d,false,true,0.0-2.0-0.60-0.541-3.541,0,0,0,81,false,stim,true,0,490.69999980926514,2,0,1,69478,task2,1363212,false,true,1850,image-keyboard-response,23
true,17,0,1,0,true,q,false,true,0.0-2.0-0.60-0.542-3.542,0,0,0,81,false,stim,false,1,379.8999996185303,2,0,2,69478,task2,1365096,false,false,1853,image-keyboard-response,24
true,17,0,1,0,true,q,false,true,0.0-2.0-0.60-0.543-3.543,0,0,0,81,false,stim,false,1,246.29999923706055,2,0,0,69478,task2,1366848,false,false,1856,image-keyboard-response,25
true,17,0,1,0,true,q,false,true,0.0-2.0-0.60-0.544-3.544,0,0,0,81,false,stim,false,1,70.5,2,0,2,69478,task2,1368424,false,false,1859,image-keyboard-response,26
true,17,0,1,0,true,q,false,false,0.0-2.0-0.60-0.545-3.545,0,0,0,81,false,stim,false,1,270.1000003814697,2,0,2,69478,task2,1370200,false,true,1862,image-keyboard-response,27
true,17,0,1,0,true,q,false,false,0.0-2.0-0.60-0.546-3.546,0,0,0,81,false,stim,false,1,1558.7000007629395,2,0,0,69478,task2,1373263,false,true,1865,image-keyboard-response,28
true,17,0,1,2,false,d,false,false,0.0-2.0-0.60-0.547-3.547,0,0,0,81,false,stim,true,0,1001.5,2,0,1,69478,task2,1375769,false,false,1868,image-keyboard-response,29
true,17,1,1,2,false,d,true,false,0.0-2.0-0.60-0.548-3.548,0,0,0,90,false,stim,false,0,370.70000076293945,2,0,1,69478,task2,1377644,false,false,1871,image-keyboard-response,30
true,17,1,1,0,false,q,false,false,0.0-2.0-0.61-0.549-3.549,0,0,0,90,false,stim,true,1,1375.4000005722046,2,0,0,69478,task2,1380525,false,false,1874,image-keyboard-response,31
true,17,1,1,0,false,q,false,false,0.0-2.0-0.61-0.550-3.550,0,0,0,90,false,stim,true,1,355.19999980926514,2,0,0,69478,task2,1382387,false,false,1877,image-keyboard-response,32
true,17,1,1,2,false,d,true,false,0.0-2.0-0.61-0.551-3.551,0,0,0,90,false,stim,false,0,575.6999998092651,2,0,1,69478,task2,1384468,false,false,1880,image-keyboard-response,33
true,17,1,1,2,false,d,true,false,0.0-2.0-0.61-0.552-3.552,0,0,0,90,false,stim,false,0,606.6000003814697,2,0,1,69478,task2,1386580,false,false,1883,image-keyboard-response,34
true,17,1,1,2,false,d,true,false,0.0-2.0-0.61-0.553-3.553,0,0,0,90,false,stim,false,0,458.4000005722046,2,0,1,69478,task2,1388545,false,false,1886,image-keyboard-response,35
true,17,1,1,0,false,q,false,false,0.0-2.0-0.61-0.554-3.554,0,0,0,90,false,stim,true,1,718.0,2,0,2,69478,task2,1390767,false,false,1889,image-keyboard-response,36
true,17,1,1,0,false,q,false,false,0.0-2.0-0.61-0.555-3.555,0,0,0,90,false,stim,true,1,998.6999998092651,2,0,0,69478,task2,1393271,false,false,1892,image-keyboard-response,37
true,18,0,1,1,false,z,false,false,0.0-2.0-0.61-0.556-3.556,0,0,0,81,true,stim,true,0,2266.199999809265,2,0,2,69478,task2,1397041,false,false,1895,image-keyboard-response,1
true,18,0,1,1,false,z,false,false,0.0-2.0-0.61-0.557-3.557,0,0,0,81,false,stim,true,0,338.4000005722046,2,0,2,69478,task2,1398885,false,false,1898,image-keyboard-response,2
true,18,1,1,1,true,z,false,true,0.0-2.0-0.62-0.558-3.558,0,0,0,90,false,stim,false,2,1151.9000005722046,2,0,1,69478,task2,1401546,false,false,1901,image-keyboard-response,3
true,18,0,1,2,false,d,false,false,0.0-2.0-0.62-0.559-3.559,0,0,0,81,false,stim,true,0,317.0,2,0,0,69478,task2,1403368,false,false,1904,image-keyboard-response,4
true,18,0,1,1,false,z,true,false,0.0-2.0-0.62-0.560-3.560,0,0,0,81,false,stim,false,2,368.30000019073486,2,0,1,69478,task2,1405243,false,false,1907,image-keyboard-response,5
true,18,2,1,2,true,d,false,true,0.0-2.0-0.62-0.561-3.561,0,0,0,68,false,stim,false,0,930.5,2,0,0,69478,task2,1407679,false,false,1910,image-keyboard-response,6
true,18,2,1,2,true,d,false,true,0.0-2.0-0.62-0.562-3.562,0,0,0,68,false,stim,false,0,1570.8999996185303,2,0,0,69478,task2,1410754,false,false,1913,image-keyboard-response,7
true,18,2,1,1,false,z,true,false,0.0-2.0-0.62-0.563-3.563,0,0,0,68,false,stim,false,0,315.30000019073486,2,0,2,69478,task2,1412574,false,false,1916,image-keyboard-response,8
true,18,2,1,1,false,z,false,false,0.0-2.0-0.62-0.564-3.564,0,0,0,68,false,stim,true,2,582.3000001907349,2,0,1,69478,task2,1414660,false,false,1919,image-keyboard-response,9
true,18,0,1,1,false,z,false,false,0.0-2.0-0.62-0.565-3.565,0,0,0,81,false,stim,true,0,752.0,2,0,2,69478,task2,1416918,false,false,1922,image-keyboard-response,10
true,18,1,1,1,true,z,false,false,0.0-2.0-0.62-0.566-3.566,0,0,0,90,false,stim,false,0,1569.1999998092651,2,0,2,69478,task2,1419992,false,true,1925,image-keyboard-response,11
true,18,1,1,1,true,z,false,true,0.0-2.0-0.63-0.567-3.567,0,0,0,90,false,stim,false,0,2900.699999809265,2,0,2,69478,task2,1424398,false,false,1928,image-keyboard-response,12
true,18,2,1,2,true,d,false,true,0.0-2.0-0.63-0.568-3.568,0,0,0,68,false,stim,false,0,1507.3000001907349,2,0,0,69478,task2,1427410,false,false,1931,image-keyboard-response,13
true,18,2,1,1,false,z,false,true,0.0-2.0-0.63-0.569-3.569,0,0,0,68,false,stim,true,2,2598.9000005722046,2,0,1,69478,task2,1431515,false,true,1934,image-keyboard-response,14
true,18,2,1,1,false,z,true,false,0.0-2.0-0.63-0.570-3.570,0,0,0,68,false,stim,false,0,777.3999996185303,2,0,2,69478,task2,1433799,false,false,1937,image-keyboard-response,15
true,18,2,1,1,false,z,true,false,0.0-2.0-0.63-0.571-3.571,0,0,0,68,false,stim,false,0,1102.6999998092651,2,0,2,69478,task2,1436406,false,false,1940,image-keyboard-response,16
true,18,2,1,1,false,z,false,false,0.0-2.0-0.63-0.572-3.572,0,0,0,68,false,stim,true,2,1136.0,2,0,1,69478,task2,1439048,false,false,1943,image-keyboard-response,17
true,18,2,1,1,false,z,false,false,0.0-2.0-0.63-0.573-3.573,0,0,0,68,false,stim,true,2,1395.7000007629395,2,0,1,69478,task2,1441949,false,false,1946,image-keyboard-response,18
true,18,2,1,2,true,d,false,true,0.0-2.0-0.63-0.574-3.574,0,0,0,68,false,stim,false,0,2661.7000007629395,2,0,0,69478,task2,1446116,false,false,1949,image-keyboard-response,19
true,18,2,1,2,true,d,false,true,0.0-2.0-0.63-0.575-3.575,0,0,0,68,false,stim,false,0,1459.3999996185303,2,0,0,69478,task2,1449082,false,false,1952,image-keyboard-response,20
true,18,2,1,2,true,d,false,true,0.0-2.0-0.64-0.576-3.576,0,0,0,68,false,stim,false,0,1057.5,2,0,0,69478,task2,1451646,false,false,1955,image-keyboard-response,21
true,18,2,1,1,false,z,false,false,0.0-2.0-0.64-0.577-3.577,0,0,0,68,false,stim,true,2,1707.8000001907349,2,0,1,69478,task2,1454860,false,false,1958,image-keyboard-response,22
false,18,-1,1,1,false,z,true,false,0.0-2.0-0.64-0.578-3.578,0,0,0,,false,stim,false,2,,2,0,1,69478,task2,1459367,false,false,1961,image-keyboard-response,23
true,18,2,1,2,true,d,false,false,0.0-2.0-0.64-0.579-3.579,0,0,0,68,false,stim,false,0,254.60000038146973,2,0,0,69478,task2,1461129,false,true,1964,image-keyboard-response,24
true,18,2,1,2,true,d,false,true,0.0-2.0-0.64-0.580-3.580,0,0,0,68,false,stim,false,0,867.3999996185303,2,0,0,69478,task2,1463501,false,false,1967,image-keyboard-response,25
true,18,1,1,1,true,z,false,true,0.0-2.0-0.64-0.581-3.581,0,0,0,90,false,stim,false,2,2516.699999809265,2,0,1,69478,task2,1467523,false,false,1970,image-keyboard-response,26
true,18,1,1,1,true,z,false,true,0.0-2.0-0.64-0.582-3.582,0,0,0,90,false,stim,false,0,2462.5999994277954,2,0,2,69478,task2,1471490,false,false,1973,image-keyboard-response,27
true,18,1,1,1,true,z,false,true,0.0-2.0-0.64-0.583-3.583,0,0,0,90,false,stim,false,0,941.1000003814697,2,0,2,69478,task2,1473936,false,false,1976,image-keyboard-response,28
true,18,0,1,1,false,z,false,false,0.0-2.0-0.64-0.584-3.584,0,0,0,81,false,stim,true,0,1437.6999998092651,2,0,2,69478,task2,1476879,false,false,1979,image-keyboard-response,29
true,18,1,1,1,true,z,false,true,0.0-2.0-0.65-0.585-3.585,0,0,0,90,false,stim,false,2,2302.300000190735,2,1,1,69478,task2,1480687,false,false,1982,image-keyboard-response,30
true,18,0,1,1,false,z,false,false,0.0-2.0-0.65-0.586-3.586,0,0,0,81,false,stim,true,0,1452.3000001907349,2,0,2,69478,task2,1483645,false,false,1985,image-keyboard-response,31
true,18,2,1,1,false,z,false,false,0.0-2.0-0.65-0.587-3.587,0,0,0,68,false,stim,true,2,905.8000001907349,2,1,1,69478,task2,1486056,false,false,1988,image-keyboard-response,32
true,18,2,1,2,true,d,false,true,0.0-2.0-0.65-0.588-3.588,0,0,0,68,false,stim,false,0,722.6999998092651,2,0,0,69478,task2,1488285,false,false,1991,image-keyboard-response,33
true,18,1,1,1,true,z,false,false,0.0-2.0-0.65-0.589-3.589,0,0,0,90,false,stim,false,2,1801.5,2,1,1,69478,task2,1491591,false,true,1994,image-keyboard-response,34
true,19,0,2,0,true,q,false,true,0.0-2.0-0.65-0.590-3.590,0,1,0,81,true,stim,false,2,2844.199999809265,2,0,0,69478,task2,1495941,false,false,1997,image-keyboard-response,1
