answered,blockNum,choice,condition,corResp,correct,correct_response,explo,fb,internal_node_id,isStable_1,isStable_2,isStable_3,key_press,newBlock,part,persev,persevResp,rt,sessNum,stableAS,stimulus,subject,task,time_elapsed,training,trap,trial_index,trial_type,trialsInBlock
true,1,2,0,1,false,z,true,false,0.0-2.0-0.0-0.0-3.0,0,0,0,68,true,stim,false,-1,697.6000000238419,1,0,2,69478,task1,88850,false,false,109,image-keyboard-response,1
true,1,1,0,1,true,z,false,true,0.0-2.0-0.0-0.1-3.1,0,0,0,90,false,stim,false,-1,528.1000000238419,1,0,2,69478,task1,90882,false,false,112,image-keyboard-response,2
true,1,0,0,1,false,z,true,false,0.0-2.0-0.0-0.2-3.2,0,0,0,81,false,stim,false,-1,575.2000000476837,1,0,1,69478,task1,92962,false,false,115,image-keyboard-response,3
true,1,0,0,0,true,q,false,true,0.0-2.0-0.0-0.3-3.3,0,0,0,81,false,stim,false,-1,783.6999999284744,1,0,0,69478,task1,95250,false,false,118,image-keyboard-response,4
true,1,0,0,0,true,q,false,true,0.0-2.0-0.0-0.4-3.4,0,0,0,81,false,stim,false,-1,798.3999999761581,1,0,0,69478,task1,97554,false,false,121,image-keyboard-response,5
true,1,0,0,1,false,z,true,false,0.0-2.0-0.0-0.5-3.5,0,0,0,81,false,stim,false,-1,984.5999999046326,1,0,1,69478,task1,100042,false,false,124,image-keyboard-response,6
true,1,1,0,1,true,z,false,true,0.0-2.0-0.0-0.6-3.6,0,0,0,90,false,stim,false,-1,464.90000009536743,1,0,1,69478,task1,102010,false,false,127,image-keyboard-response,7
true,1,1,0,1,true,z,false,true,0.0-2.0-0.0-0.7-3.7,0,0,0,90,false,stim,false,-1,599.4000000953674,1,0,2,69478,task1,104114,false,false,130,image-keyboard-response,8
true,1,0,0,0,true,q,false,true,0.0-2.0-0.0-0.8-3.8,0,0,0,81,false,stim,false,-1,655.6000000238419,1,0,0,69478,task1,106274,false,false,133,image-keyboard-response,9
true,1,1,0,1,true,z,false,true,0.0-2.0-0.1-0.9-3.9,0,0,0,90,false,stim,false,-1,438.7000000476837,1,0,2,69478,task1,108218,false,false,136,image-keyboard-response,10
true,1,1,0,1,true,z,false,true,0.0-2.0-0.1-0.10-3.10,0,0,0,90,false,stim,false,-1,312.39999997615814,1,0,2,69478,task1,110034,false,false,139,image-keyboard-response,11
true,1,1,0,1,true,z,false,true,0.0-2.0-0.1-0.11-3.11,0,0,0,90,false,stim,false,-1,543.5,1,0,1,69478,task1,112082,false,false,142,image-keyboard-response,12
true,1,0,0,0,true,q,false,true,0.0-2.0-0.1-0.12-3.12,0,0,0,81,false,stim,false,-1,608.7000000476837,1,0,0,69478,task1,114194,false,false,145,image-keyboard-response,13
true,1,0,0,0,true,q,false,true,0.0-2.0-0.1-0.13-3.13,0,0,0,81,false,stim,false,-1,537.1000000238419,1,0,0,69478,task1,116234,false,false,148,image-keyboard-response,14
true,1,1,0,1,true,z,false,true,0.0-2.0-0.1-0.14-3.14,0,0,0,90,false,stim,false,-1,815.6000000238419,1,0,1,69478,task1,118554,false,false,151,image-keyboard-response,15
true,1,1,0,1,true,z,false,true,0.0-2.0-0.1-0.15-3.15,0,0,0,90,false,stim,false,-1,400.89999997615814,1,0,1,69478,task1,120459,false,false,154,image-keyboard-response,16
true,1,0,0,0,true,q,false,true,0.0-2.0-0.1-0.16-3.16,0,0,0,81,false,stim,false,-1,463.0,1,0,0,69478,task1,122426,false,false,157,image-keyboard-response,17
true,1,1,0,1,true,z,false,true,0.0-2.0-0.1-0.17-3.17,0,0,0,90,false,stim,false,-1,422.6999999284744,1,0,2,69478,task1,124354,false,false,160,image-keyboard-response,18
true,1,1,0,1,true,z,false,true,0.0-2.0-0.2-0.18-3.18,0,0,0,90,false,stim,false,-1,342.7999999523163,1,0,2,69478,task1,126202,false,false,163,image-keyboard-response,19
true,1,1,0,1,true,z,false,true,0.0-2.0-0.2-0.19-3.19,0,0,0,90,false,stim,false,-1,304.2999999523163,1,0,1,69478,task1,128010,false,false,166,image-keyboard-response,20
true,1,1,0,1,true,z,false,true,0.0-2.0-0.2-0.20-3.20,0,0,0,90,false,stim,false,-1,455.10000002384186,1,0,2,69478,task1,129970,false,false,169,image-keyboard-response,21
true,1,1,0,1,true,z,false,true,0.0-2.0-0.2-0.21-3.21,0,0,0,90,false,stim,false,-1,336.60000002384186,1,0,2,69478,task1,131810,false,false,172,image-keyboard-response,22
true,1,0,0,0,true,q,false,true,0.0-2.0-0.2-0.22-3.22,0,0,0,81,false,stim,false,-1,583.5,1,0,0,69478,task1,133900,false,false,175,image-keyboard-response,23
true,1,0,0,0,true,q,false,true,0.0-2.0-0.2-0.23-3.23,0,0,0,81,false,stim,false,-1,405.7000000476837,1,0,0,69478,task1,135810,false,false,178,image-keyboard-response,24
true,1,1,0,1,true,z,false,true,0.0-2.0-0.2-0.24-3.24,0,0,0,90,false,stim,false,-1,560.7999999523163,1,0,1,69478,task1,137875,false,false,181,image-keyboard-response,25
true,1,0,0,0,true,q,false,true,0.0-2.0-0.2-0.25-3.25,0,0,0,81,false,stim,false,-1,717.7000000476837,1,0,0,69478,task1,140098,false,false,184,image-keyboard-response,26
true,2,1,1,0,false,q,false,false,0.0-2.0-0.2-0.26-3.26,0,0,0,90,true,stim,true,1,648.6000000238419,1,0,1,69478,task1,142250,false,false,187,image-keyboard-response,1
true,2,0,1,1,false,z,false,false,0.0-2.0-0.3-0.27-3.27,0,0,0,81,false,stim,true,0,775.8000000715256,1,0,0,69478,task1,144530,false,false,190,image-keyboard-response,2
true,2,1,1,1,true,z,false,false,0.0-2.0-0.3-0.28-3.28,0,0,0,90,false,stim,false,0,784.1000000238419,1,0,0,69478,task1,146818,false,true,193,image-keyboard-response,3
true,2,1,1,0,false,q,false,false,0.0-2.0-0.3-0.29-3.29,0,0,0,90,false,stim,true,1,751.2999999523163,1,0,1,69478,task1,149074,false,false,196,image-keyboard-response,4
true,2,2,1,1,false,z,true,false,0.0-2.0-0.3-0.30-3.30,0,0,0,68,false,stim,false,0,1342.2999999523163,1,0,0,69478,task1,151922,false,false,199,image-keyboard-response,5
true,2,2,1,0,false,q,true,false,0.0-2.0-0.3-0.31-3.31,0,0,0,68,false,stim,false,1,974.6000000238419,1,0,1,69478,task1,154402,false,false,202,image-keyboard-response,6
true,2,1,1,0,false,q,false,false,0.0-2.0-0.3-0.32-3.32,0,0,0,90,false,stim,true,1,527.9000000953674,1,0,2,69478,task1,156434,false,false,205,image-keyboard-response,7
true,2,0,1,0,true,q,false,true,0.0-2.0-0.3-0.33-3.33,0,0,0,81,false,stim,false,1,454.5,1,0,2,69478,task1,158394,false,false,208,image-keyboard-response,8
true,2,0,1,0,true,q,false,true,0.0-2.0-0.3-0.34-3.34,0,0,0,81,false,stim,false,1,647.3999999761581,1,0,2,69478,task1,160546,false,false,211,image-keyboard-response,9
true,2,1,1,0,false,q,false,false,0.0-2.0-0.3-0.35-3.35,0,0,0,90,false,stim,true,1,912.2999999523163,1,0,1,69478,task1,162962,false,false,214,image-keyboard-response,10
true,2,0,1,0,true,q,false,true,0.0-2.0-0.4-0.36-3.36,0,0,0,81,false,stim,false,1,727.5,1,0,2,69478,task1,165194,false,false,217,image-keyboard-response,11
true,2,0,1,1,false,z,false,false,0.0-2.0-0.4-0.37-3.37,0,0,0,81,false,stim,true,0,735.3999999761581,1,0,0,69478,task1,167434,false,false,220,image-keyboard-response,12
true,2,0,1,0,true,q,false,true,0.0-2.0-0.4-0.38-3.38,0,0,0,81,false,stim,false,1,1552.0,1,0,1,69478,task1,170490,false,false,223,image-keyboard-response,13
true,2,0,1,0,true,q,false,true,0.0-2.0-0.4-0.39-3.39,0,0,0,81,false,stim,false,1,432.7999999523163,1,0,2,69478,task1,172426,false,false,226,image-keyboard-response,14
true,2,2,1,1,false,z,true,false,0.0-2.0-0.4-0.40-3.40,0,0,0,68,false,stim,false,0,1039.0999999046326,1,0,0,69478,task1,174970,false,false,229,image-keyboard-response,15
true,2,1,1,0,false,q,false,false,0.0-2.0-0.4-0.41-3.41,0,0,0,90,false,stim,true,1,1065.3999999761581,1,0,1,69478,task1,177539,false,false,232,image-keyboard-response,16
true,2,0,1,0,true,q,false,true,0.0-2.0-0.4-0.42-3.42,0,0,0,81,false,stim,false,1,476.7000000476837,1,0,2,69478,task1,179522,false,false,235,image-keyboard-response,17
true,2,0,1,1,false,z,false,true,0.0-2.0-0.4-0.43-3.43,0,0,0,81,false,stim,true,0,1441.7999999523163,1,0,0,69478,task1,182467,false,true,238,image-keyboard-response,18
true,2,0,1,0,true,q,false,true,0.0-2.0-0.4-0.44-3.44,0,0,0,81,false,stim,false,1,541.3999999761581,1,0,1,69478,task1,184514,false,false,241,image-keyboard-response,19
true,2,0,1,0,true,q,false,true,0.0-2.0-0.5-0.45-3.45,0,0,0,81,false,stim,false,1,336.8000000715256,1,0,1,69478,task1,186354,false,false,244,image-keyboard-response,20
true,2,0,1,1,false,z,false,false,0.0-2.0-0.5-0.46-3.46,0,0,0,81,false,stim,true,0,464.39999997615814,1,0,0,69478,task1,188322,false,false,247,image-keyboard-response,21
true,2,0,1,1,false,z,false,false,0.0-2.0-0.5-0.47-3.47,0,0,0,81,false,stim,true,0,391.2999999523163,1,0,0,69478,task1,190218,false,false,250,image-keyboard-response,22
true,2,0,1,0,true,q,false,true,0.0-2.0-0.5-0.48-3.48,0,0,0,81,false,stim,false,1,408.89999997615814,1,0,2,69478,task1,192129,false,false,253,image-keyboard-response,23
true,2,0,1,0,true,q,false,true,0.0-2.0-0.5-0.49-3.49,0,0,0,81,false,stim,false,1,496.6999999284744,1,0,1,69478,task1,194130,false,false,256,image-keyboard-response,24
true,2,1,1,1,true,z,false,true,0.0-2.0-0.5-0.50-3.50,0,0,0,90,false,stim,false,0,712.3000000715256,1,0,0,69478,task1,196345,false,false,259,image-keyboard-response,25
true,2,0,1,0,true,q,false,false,0.0-2.0-0.5-0.51-3.51,0,0,0,81,false,stim,false,1,536.3999999761581,1,0,2,69478,task1,198386,false,true,262,image-keyboard-response,26
true,2,1,1,0,false,q,false,false,0.0-2.0-0.5-0.52-3.52,0,0,0,90,false,stim,true,1,536.1000000238419,1,0,2,69478,task1,200425,false,false,265,image-keyboard-response,27
true,2,0,1,0,true,q,false,true,0.0-2.0-0.5-0.53-3.53,0,0,0,81,false,stim,false,1,856.1999999284744,1,0,1,69478,task1,202786,false,false,268,image-keyboard-response,28
true,2,1,1,1,true,z,false,true,0.0-2.0-0.6-0.54-3.54,0,0,0,90,false,stim,false,0,639.4000000953674,1,0,0,69478,task1,204929,false,false,271,image-keyboard-response,29
true,2,1,1,0,false,q,false,false,0.0-2.0-0.6-0.55-3.55,0,0,0,90,false,stim,true,1,1008.0,1,0,2,69478,task1,207441,false,false,274,image-keyboard-response,30
true,2,0,1,0,true,q,false,true,0.0-2.0-0.6-0.56-3.56,0,0,0,81,false,stim,false,1,1035.6000000238419,1,0,1,69478,task1,209986,false,false,277,image-keyboard-response,31
true,2,2,1,0,false,q,true,false,0.0-2.0-0.6-0.57-3.57,0,0,0,68,false,stim,false,1,976.1000000238419,1,0,2,69478,task1,212465,false,false,280,image-keyboard-response,32
true,2,0,1,0,true,q,false,true,0.0-2.0-0.6-0.58-3.58,0,0,0,81,false,stim,false,1,1185.2000000476837,1,0,1,69478,task1,215153,false,false,283,image-keyboard-response,33
true,2,0,1,0,true,q,false,true,0.0-2.0-0.6-0.59-3.59,0,0,0,81,false,stim,false,1,488.3000000715256,1,0,2,69478,task1,217145,false,false,286,image-keyboard-response,34
true,2,1,1,1,true,z,false,true,0.0-2.0-0.6-0.60-3.60,0,0,0,90,false,stim,false,0,615.8999999761581,1,0,0,69478,task1,219265,false,false,289,image-keyboard-response,35
true,2,0,1,0,true,q,false,true,0.0-2.0-0.6-0.61-3.61,0,0,0,81,false,stim,false,1,888.2000000476837,1,0,1,69478,task1,221658,false,false,292,image-keyboard-response,36
true,2,1,1,1,true,z,false,true,0.0-2.0-0.6-0.62-3.62,0,0,0,90,false,stim,false,0,727.5,1,0,0,69478,task1,223889,false,false,295,image-keyboard-response,37
true,2,0,1,0,true,q,false,true,0.0-2.0-0.7-0.63-3.63,0,0,0,81,false,stim,false,1,967.1000000238419,1,0,1,69478,task1,226361,false,false,298,image-keyboard-response,38
true,2,0,1,0,true,q,false,true,0.0-2.0-0.7-0.64-3.64,0,0,0,81,false,stim,false,1,798.8000000715256,1,0,2,69478,task1,228665,false,false,301,image-keyboard-response,39
true,2,1,1,1,true,z,false,true,0.0-2.0-0.7-0.65-3.65,0,0,0,90,false,stim,false,0,775.6000000238419,1,0,0,69478,task1,230946,false,false,304,image-keyboard-response,40
true,2,0,1,0,true,q,false,true,0.0-2.0-0.7-0.66-3.66,0,0,0,81,false,stim,false,1,688.0,1,0,1,69478,task1,233138,false,false,307,image-keyboard-response,41
true,2,0,1,0,true,q,false,false,0.0-2.0-0.7-0.67-3.67,0,0,0,81,false,stim,false,1,416.89999997615814,1,0,1,69478,task1,235057,false,true,310,image-keyboard-response,42
true,2,1,1,1,true,z,false,false,0.0-2.0-0.7-0.68-3.68,0,0,0,90,false,stim,false,0,1232.3999999761581,1,0,0,69478,task1,237793,false,true,313,image-keyboard-response,43
true,3,1,1,2,false,d,false,false,0.0-2.0-0.7-0.69-3.69,0,0,0,90,true,stim,true,1,593.0,1,0,0,69478,task1,239889,false,false,316,image-keyboard-response,1
true,3,0,1,2,false,d,false,false,0.0-2.0-0.7-0.70-3.70,0,0,0,81,false,stim,true,0,687.6000000238419,1,0,2,69478,task1,242081,false,false,319,image-keyboard-response,2
true,3,1,1,2,false,d,true,false,0.0-2.0-0.7-0.71-3.71,0,0,0,90,false,stim,false,0,976.6000000238419,1,0,2,69478,task1,244561,false,false,322,image-keyboard-response,3
true,3,0,1,2,false,d,true,true,0.0-2.0-0.8-0.72-3.72,0,0,0,81,false,stim,false,1,1015.1000000238419,1,0,0,69478,task1,247081,false,true,325,image-keyboard-response,4
true,3,0,1,1,false,z,false,false,0.0-2.0-0.8-0.73-3.73,0,0,0,81,false,stim,true,0,1039.2999999523163,1,0,1,69478,task1,249625,false,false,328,image-keyboard-response,5
true,3,0,1,2,false,d,false,true,0.0-2.0-0.8-0.74-3.74,0,0,0,81,false,stim,true,0,1231.1000000238419,1,0,2,69478,task1,252361,false,true,331,image-keyboard-response,6
true,3,0,1,2,false,d,true,false,0.0-2.0-0.8-0.75-3.75,0,0,0,81,false,stim,false,1,616.0,1,0,0,69478,task1,254481,false,false,334,image-keyboard-response,7
true,3,1,1,2,false,d,false,false,0.0-2.0-0.8-0.76-3.76,0,0,0,90,false,stim,true,1,583.3999999761581,1,0,0,69478,task1,256569,false,false,337,image-keyboard-response,8
true,3,0,1,1,false,z,false,false,0.0-2.0-0.8-0.77-3.77,0,0,0,81,false,stim,true,0,719.6000000238419,1,0,1,69478,task1,258793,false,false,340,image-keyboard-response,9
true,3,1,1,2,false,d,true,false,0.0-2.0-0.8-0.78-3.78,0,0,0,90,false,stim,false,0,832.6000000238419,1,0,2,69478,task1,261129,false,false,343,image-keyboard-response,10
true,3,1,1,1,true,z,false,true,0.0-2.0-0.8-0.79-3.79,0,0,0,90,false,stim,false,0,1679.5,1,0,1,69478,task1,264313,false,false,346,image-keyboard-response,11
true,3,2,1,2,true,d,false,true,0.0-2.0-0.8-0.80-3.80,0,0,0,68,false,stim,false,0,1024.0,1,0,2,69478,task1,266841,false,false,349,image-keyboard-response,12
true,3,1,1,1,true,z,false,true,0.0-2.0-0.9-0.81-3.81,0,0,0,90,false,stim,false,0,703.3999999761581,1,0,1,69478,task1,269049,false,false,352,image-keyboard-response,13
true,3,0,1,2,false,d,true,false,0.0-2.0-0.9-0.82-3.82,0,0,0,81,false,stim,false,1,792.2999999523163,1,0,0,69478,task1,271345,false,false,355,image-keyboard-response,14
true,3,2,1,2,true,d,false,false,0.0-2.0-0.9-0.83-3.83,0,0,0,68,false,stim,false,0,1000.0,1,0,2,69478,task1,273849,false,true,358,image-keyboard-response,15
true,3,1,1,2,false,d,true,false,0.0-2.0-0.9-0.84-3.84,0,0,0,90,false,stim,false,0,767.8999999761581,1,0,2,69478,task1,276121,false,false,361,image-keyboard-response,16
true,3,1,1,1,true,z,false,true,0.0-2.0-0.9-0.85-3.85,0,0,0,90,false,stim,false,0,1040.3999999761581,1,0,1,69478,task1,278665,false,false,364,image-keyboard-response,17
true,3,2,1,2,true,d,false,true,0.0-2.0-0.9-0.86-3.86,0,0,0,68,false,stim,false,0,782.5999999046326,1,0,2,69478,task1,280953,false,false,367,image-keyboard-response,18
true,3,0,1,2,false,d,true,false,0.0-2.0-0.9-0.87-3.87,0,0,0,81,false,stim,false,1,878.6000000238419,1,0,0,69478,task1,283337,false,false,370,image-keyboard-response,19
true,3,1,1,2,false,d,false,false,0.0-2.0-0.9-0.88-3.88,0,0,0,90,false,stim,true,1,997.5,1,0,0,69478,task1,285841,false,false,373,image-keyboard-response,20
true,3,1,1,1,true,z,false,true,0.0-2.0-0.9-0.89-3.89,0,0,0,90,false,stim,false,0,950.0,1,0,1,69478,task1,288297,false,false,376,image-keyboard-response,21
true,3,2,1,2,true,d,false,false,0.0-2.0-0.10-0.90-3.90,0,0,0,68,false,stim,false,0,527.6999999284744,1,0,2,69478,task1,290329,false,true,379,image-keyboard-response,22
true,3,2,1,2,true,d,false,false,0.0-2.0-0.10-0.91-3.91,0,0,0,68,false,stim,false,0,503.59999990463257,1,0,2,69478,task1,292337,false,true,382,image-keyboard-response,23
true,3,1,1,2,false,d,true,false,0.0-2.0-0.10-0.92-3.92,0,0,0,90,false,stim,false,0,559.3000000715256,1,0,2,69478,task1,294401,false,false,385,image-keyboard-response,24
true,3,0,1,2,false,d,true,false,0.0-2.0-0.10-0.93-3.93,0,0,0,81,false,stim,false,1,791.5,1,0,0,69478,task1,296697,false,false,388,image-keyboard-response,25
true,3,1,1,1,true,z,false,true,0.0-2.0-0.10-0.94-3.94,0,0,0,90,false,stim,false,0,520.1000000238419,1,0,1,69478,task1,298721,false,false,391,image-keyboard-response,26
true,3,1,1,1,true,z,false,true,0.0-2.0-0.10-0.95-3.95,0,0,0,90,false,stim,false,0,376.39999997615814,1,0,1,69478,task1,300605,false,false,394,image-keyboard-response,27
true,3,2,1,2,true,d,false,true,0.0-2.0-0.10-0.96-3.96,0,0,0,68,false,stim,false,1,703.1999999284744,1,0,0,69478,task1,302813,false,false,397,image-keyboard-response,28
true,3,1,1,1,true,z,false,true,0.0-2.0-0.10-0.97-3.97,0,0,0,90,false,stim,false,0,500.90000009536743,1,0,1,69478,task1,304821,false,false,400,image-keyboard-response,29
true,3,2,1,2,true,d,false,true,0.0-2.0-0.10-0.98-3.98,0,0,0,68,false,stim,false,1,748.6000000238419,1,0,0,69478,task1,307076,false,false,403,image-keyboard-response,30
true,3,0,1,2,false,d,false,false,0.0-2.0-0.11-0.99-3.99,0,0,0,81,false,stim,true,0,878.4000000953674,1,0,2,69478,task1,309460,false,false,406,image-keyboard-response,31
true,3,1,1,1,true,z,false,true,0.0-2.0-0.11-0.100-3.100,0,0,0,90,false,stim,false,0,975.8999999761581,1,0,1,69478,task1,311941,false,false,409,image-keyboard-response,32
true,3,2,1,2,true,d,false,true,0.0-2.0-0.11-0.101-3.101,0,0,0,68,false,stim,false,1,1289.3000000715256,1,0,0,69478,task1,314732,false,false,412,image-keyboard-response,33
true,3,1,1,2,false,d,true,false,0.0-2.0-0.11-0.102-3.102,0,0,0,90,false,stim,false,0,1008.3999999761581,1,0,2,69478,task1,317244,false,false,415,image-keyboard-response,34
true,3,2,1,2,true,d,false,true,0.0-2.0-0.11-0.103-3.103,0,0,0,68,false,stim,false,0,629.7999999523163,1,0,2,69478,task1,319380,false,false,418,image-keyboard-response,35
true,3,1,1,1,true,z,false,true,0.0-2.0-0.11-0.104-3.104,0,0,0,90,false,stim,false,0,975.5,1,0,1,69478,task1,321860,false,false,421,image-keyboard-response,36
true,3,1,1,1,true,z,false,true,0.0-2.0-0.11-0.105-3.105,0,0,0,90,false,stim,false,0,583.7000000476837,1,0,1,69478,task1,323948,false,false,424,image-keyboard-response,37
true,3,2,1,2,true,d,false,true,0.0-2.0-0.11-0.106-3.106,0,0,0,68,false,stim,false,1,991.8999999761581,1,0,0,69478,task1,326444,false,false,427,image-keyboard-response,38
true,3,2,1,2,true,d,false,false,0.0-2.0-0.11-0.107-3.107,0,0,0,68,false,stim,false,1,775.6000000238419,1,0,0,69478,task1,328724,false,true,430,image-keyboard-response,39
true,3,1,1,2,false,d,false,false,0.0-2.0-0.12-0.108-3.108,0,0,0,90,false,stim,true,1,599.2000000476837,1,0,0,69478,task1,330828,false,false,433,image-keyboard-response,40
true,3,1,1,1,true,z,false,true,0.0-2.0-0.12-0.109-3.109,0,0,0,90,false,stim,false,0,990.7999999523163,1,0,1,69478,task1,333324,false,false,436,image-keyboard-response,41
true,3,1,1,2,false,d,false,false,0.0-2.0-0.12-0.110-3.110,0,0,0,90,false,stim,true,1,743.2999999523163,1,0,0,69478,task1,335572,false,false,439,image-keyboard-response,42
true,4,2,1,1,false,z,false,false,0.0-2.0-0.12-0.111-3.111,0,0,0,68,true,stim,true,2,1390.8999999761581,1,0,2,69478,task1,338468,false,false,442,image-keyboard-response,1
true,4,1,1,1,true,z,false,true,0.0-2.0-0.12-0.112-3.112,0,0,0,90,false,stim,false,2,887.6000000238419,1,0,0,69478,task1,340860,false,false,445,image-keyboard-response,2
true,4,1,1,0,false,q,false,false,0.0-2.0-0.12-0.113-3.113,0,0,0,90,false,stim,true,1,702.7000000476837,1,0,1,69478,task1,343068,false,false,448,image-keyboard-response,3
true,4,2,1,1,false,z,false,false,0.0-2.0-0.12-0.114-3.114,0,0,0,68,false,stim,true,2,919.8999999761581,1,0,2,69478,task1,345492,false,false,451,image-keyboard-response,4
true,4,0,1,1,false,z,true,false,0.0-2.0-0.12-0.115-3.115,0,0,0,81,false,stim,false,2,695.6000000238419,1,0,2,69478,task1,347692,false,false,454,image-keyboard-response,5
true,4,1,1,0,false,q,false,false,0.0-2.0-0.12-0.116-3.116,0,0,0,90,false,stim,true,1,1679.1000000238419,1,0,1,69478,task1,350876,false,false,457,image-keyboard-response,6
true,4,2,1,0,false,q,true,false,0.0-2.0-0.13-0.117-3.117,0,0,0,68,false,stim,false,1,480.1999999284744,1,0,1,69478,task1,352861,false,false,460,image-keyboard-response,7
true,4,0,1,0,true,q,false,false,0.0-2.0-0.13-0.118-3.118,0,0,0,81,false,stim,false,1,605.7999999523163,1,0,1,69478,task1,354972,false,true,463,image-keyboard-response,8
true,4,0,1,1,false,z,true,false,0.0-2.0-0.13-0.119-3.119,0,0,0,81,false,stim,false,2,822.5,1,0,0,69478,task1,357300,false,false,466,image-keyboard-response,9
true,4,0,1,1,false,z,true,true,0.0-2.0-0.13-0.120-3.120,0,0,0,81,false,stim,false,2,936.4000000953674,1,0,2,69478,task1,359745,false,true,469,image-keyboard-response,10
true,4,1,1,1,true,z,false,true,0.0-2.0-0.13-0.121-3.121,0,0,0,90,false,stim,false,2,1429.7000000476837,1,0,0,69478,task1,362680,false,false,472,image-keyboard-response,11
true,4,0,1,1,false,z,true,true,0.0-2.0-0.13-0.122-3.122,0,0,0,81,false,stim,false,2,1166.8999999761581,1,0,2,69478,task1,365352,false,true,475,image-keyboard-response,12
true,4,1,1,0,false,q,false,false,0.0-2.0-0.13-0.123-3.123,0,0,0,90,false,stim,true,1,672.1999999284744,1,0,1,69478,task1,367529,false,false,478,image-keyboard-response,13
true,4,1,1,1,true,z,false,true,0.0-2.0-0.13-0.124-3.124,0,0,0,90,false,stim,false,2,558.5,1,0,0,69478,task1,369592,false,false,481,image-keyboard-response,14
true,4,0,1,1,false,z,true,false,0.0-2.0-0.13-0.125-3.125,0,0,0,81,false,stim,false,2,1487.2999999523163,1,0,2,69478,task1,372584,false,false,484,image-keyboard-response,15
true,4,1,1,0,false,q,false,true,0.0-2.0-0.14-0.126-3.126,0,0,0,90,false,stim,true,1,632.7000000476837,1,0,1,69478,task1,374720,false,true,487,image-keyboard-response,16
true,4,2,1,1,false,z,false,false,0.0-2.0-0.14-0.127-3.127,0,0,0,68,false,stim,true,2,1472.0,1,0,0,69478,task1,377696,false,false,490,image-keyboard-response,17
true,4,1,1,1,true,z,false,true,0.0-2.0-0.14-0.128-3.128,0,0,0,90,false,stim,false,2,791.6999999284744,1,0,2,69478,task1,379992,false,false,493,image-keyboard-response,18
true,4,0,1,1,false,z,true,false,0.0-2.0-0.14-0.129-3.129,0,0,0,81,false,stim,false,2,863.6999999284744,1,0,0,69478,task1,382360,false,false,496,image-keyboard-response,19
true,4,0,1,1,false,z,true,true,0.0-2.0-0.14-0.130-3.130,0,0,0,81,false,stim,false,2,625.0,1,0,0,69478,task1,384488,false,true,499,image-keyboard-response,20
true,4,1,1,1,true,z,false,false,0.0-2.0-0.14-0.131-3.131,0,0,0,90,false,stim,false,2,1148.9000000953674,1,0,2,69478,task1,387144,false,true,502,image-keyboard-response,21
true,4,2,1,1,false,z,false,false,0.0-2.0-0.14-0.132-3.132,0,0,0,68,false,stim,true,2,1200.5,1,0,2,69478,task1,389848,false,false,505,image-keyboard-response,22
true,4,2,1,0,false,q,true,false,0.0-2.0-0.14-0.133-3.133,0,0,0,68,false,stim,false,1,1134.8000000715256,1,0,1,69478,task1,392488,false,false,508,image-keyboard-response,23
true,4,1,1,0,false,q,false,false,0.0-2.0-0.14-0.134-3.134,0,0,0,90,false,stim,true,1,656.8999999761581,1,0,1,69478,task1,394649,false,false,511,image-keyboard-response,24
true,4,1,1,1,true,z,false,true,0.0-2.0-0.15-0.135-3.135,0,0,0,90,false,stim,false,2,1477.4000000953674,1,0,0,69478,task1,397632,false,false,514,image-keyboard-response,25
true,4,0,1,0,true,q,false,true,0.0-2.0-0.15-0.136-3.136,0,0,0,81,false,stim,false,1,695.9000000953674,1,0,1,69478,task1,399832,false,false,517,image-keyboard-response,26
true,4,0,1,0,true,q,false,true,0.0-2.0-0.15-0.137-3.137,0,0,0,81,false,stim,false,1,455.6999999284744,1,0,1,69478,task1,401792,false,false,520,image-keyboard-response,27
true,4,1,1,1,true,z,false,false,0.0-2.0-0.15-0.138-3.138,0,0,0,90,false,stim,false,2,511.5,1,0,0,69478,task1,403808,false,true,523,image-keyboard-response,28
true,4,1,1,1,true,z,false,true,0.0-2.0-0.15-0.139-3.139,0,0,0,90,false,stim,false,2,687.7999999523163,1,0,2,69478,task1,406000,false,false,526,image-keyboard-response,29
true,4,1,1,1,true,z,false,true,0.0-2.0-0.15-0.140-3.140,0,0,0,90,false,stim,false,2,527.3000000715256,1,0,2,69478,task1,408032,false,false,529,image-keyboard-response,30
true,4,0,1,1,false,z,true,false,0.0-2.0-0.15-0.141-3.141,0,0,0,81,false,stim,false,2,678.9000000953674,1,0,0,69478,task1,410216,false,false,532,image-keyboard-response,31
true,4,1,1,1,true,z,false,true,0.0-2.0-0.15-0.142-3.142,0,0,0,90,false,stim,false,2,751.3999999761581,1,0,2,69478,task1,412472,false,false,535,image-keyboard-response,32
true,4,0,1,0,true,q,false,true,0.0-2.0-0.15-0.143-3.143,0,0,0,81,false,stim,false,1,486.8000000715256,1,0,1,69478,task1,414464,false,false,538,image-keyboard-response,33
true,4,0,1,1,false,z,true,false,0.0-2.0-0.16-0.144-3.144,0,0,0,81,false,stim,false,2,761.6000000238419,1,0,0,69478,task1,416730,false,false,541,image-keyboard-response,34
true,4,1,1,0,false,q,false,false,0.0-2.0-0.16-0.145-3.145,0,0,0,90,false,stim,true,1,724.2000000476837,1,0,1,69478,task1,418960,false,false,544,image-keyboard-response,35
true,4,2,1,1,false,z,false,false,0.0-2.0-0.16-0.146-3.146,0,0,0,68,false,stim,true,2,894.8999999761581,1,0,0,69478,task1,421364,false,false,547,image-keyboard-response,36
true,4,0,1,0,true,q,false,true,0.0-2.0-0.16-0.147-3.147,0,0,0,81,false,stim,false,1,926.7999999523163,1,0,1,69478,task1,423796,false,false,550,image-keyboard-response,37
true,4,1,1,1,true,z,false,true,0.0-2.0-0.16-0.148-3.148,0,0,0,90,false,stim,false,2,615.3999999761581,1,0,2,69478,task1,425916,false,false,553,image-keyboard-response,38
true,4,1,1,1,true,z,false,true,0.0-2.0-0.16-0.149-3.149,0,0,0,90,false,stim,false,2,783.0,1,0,0,69478,task1,428205,false,false,556,image-keyboard-response,39
true,4,1,1,1,true,z,false,false,0.0-2.0-0.16-0.150-3.150,0,0,0,90,false,stim,false,2,967.3999999761581,1,0,2,69478,task1,430676,false,true,559,image-keyboard-response,40
true,4,0,1,1,false,z,true,false,0.0-2.0-0.16-0.151-3.151,0,0,0,81,false,stim,false,2,511.7999999523163,1,0,2,69478,task1,432692,false,false,562,image-keyboard-response,41
true,4,0,1,0,true,q,false,true,0.0-2.0-0.16-0.152-3.152,0,0,0,81,false,stim,false,1,1504.2999999523163,1,0,1,69478,task1,435700,false,false,565,image-keyboard-response,42
true,4,1,1,1,true,z,false,true,0.0-2.0-0.17-0.153-3.153,0,0,0,90,false,stim,false,2,1311.1000000238419,1,0,0,69478,task1,438516,false,false,568,image-keyboard-response,43
true,4,1,1,1,true,z,false,true,0.0-2.0-0.17-0.154-3.154,0,0,0,90,false,stim,false,2,487.39999997615814,1,0,0,69478,task1,440508,false,false,571,image-keyboard-response,44
true,5,2,1,2,true,d,false,true,0.0-2.0-0.17-0.155-3.155,0,0,0,68,true,stim,false,1,1110.8999999761581,1,0,2,69478,task1,443124,false,false,574,image-keyboard-response,1
true,5,0,1,2,false,d,false,false,0.0-2.0-0.17-0.156-3.156,0,0,0,81,false,stim,true,0,1791.6000000238419,1,0,1,69478,task1,446420,false,false,577,image-keyboard-response,2
true,5,1,1,2,false,d,false,false,0.0-2.0-0.17-0.157-3.157,0,0,0,90,false,stim,true,1,928.3000000715256,1,0,2,69478,task1,448852,false,false,580,image-keyboard-response,3
true,5,1,1,0,false,q,false,true,0.0-2.0-0.17-0.158-3.158,0,0,0,90,false,stim,true,1,977.0,1,0,0,69478,task1,451333,false,true,583,image-keyboard-response,4
true,5,0,1,2,false,d,false,false,0.0-2.0-0.17-0.159-3.159,0,0,0,81,false,stim,true,0,995.6000000238419,1,0,1,69478,task1,453836,false,false,586,image-keyboard-response,5
true,5,2,1,2,true,d,false,true,0.0-2.0-0.17-0.160-3.160,0,0,0,68,false,stim,false,1,808.0,1,0,2,69478,task1,456148,false,false,589,image-keyboard-response,6
true,5,2,1,2,true,d,false,true,0.0-2.0-0.17-0.161-3.161,0,0,0,68,false,stim,false,0,671.5,1,0,1,69478,task1,458324,false,false,592,image-keyboard-response,7
true,5,2,1,2,true,d,false,true,0.0-2.0-0.18-0.162-3.162,0,0,0,68,false,stim,false,1,832.0,1,0,2,69478,task1,460661,false,false,595,image-keyboard-response,8
true,5,1,1,0,false,q,false,false,0.0-2.0-0.18-0.163-3.163,0,0,0,90,false,stim,true,1,693.3999999761581,1,0,0,69478,task1,462860,false,false,598,image-keyboard-response,9
true,5,2,1,2,true,d,false,true,0.0-2.0-0.18-0.164-3.164,0,0,0,68,false,stim,false,0,494.39999997615814,1,0,1,69478,task1,464860,false,false,601,image-keyboard-response,10
true,5,2,1,0,false,q,true,false,0.0-2.0-0.18-0.165-3.165,0,0,0,68,false,stim,false,1,494.7000000476837,1,0,0,69478,task1,466860,false,false,604,image-keyboard-response,11
true,5,0,1,0,true,q,false,true,0.0-2.0-0.18-0.166-3.166,0,0,0,81,false,stim,false,1,535.6000000238419,1,0,0,69478,task1,468900,false,false,607,image-keyboard-response,12
true,5,2,1,2,true,d,false,true,0.0-2.0-0.18-0.167-3.167,0,0,0,68,false,stim,false,0,663.5,1,0,1,69478,task1,471068,false,false,610,image-keyboard-response,13
true,5,2,1,2,true,d,false,true,0.0-2.0-0.18-0.168-3.168,0,0,0,68,false,stim,false,1,823.0,1,0,2,69478,task1,473396,false,false,613,image-keyboard-response,14
true,5,2,1,2,true,d,false,true,0.0-2.0-0.18-0.169-3.169,0,0,0,68,false,stim,false,0,807.5,1,0,1,69478,task1,475708,false,false,616,image-keyboard-response,15
true,5,2,1,2,true,d,false,true,0.0-2.0-0.18-0.170-3.170,0,0,0,68,false,stim,false,1,509.7000000476837,1,0,2,69478,task1,477724,false,false,619,image-keyboard-response,16
true,5,0,1,0,true,q,false,true,0.0-2.0-0.19-0.171-3.171,0,0,0,81,false,stim,false,1,673.7999999523163,1,0,0,69478,task1,479901,false,false,622,image-keyboard-response,17
true,5,2,1,2,true,d,false,true,0.0-2.0-0.19-0.172-3.172,0,0,0,68,false,stim,false,0,587.8999999761581,1,0,1,69478,task1,482001,false,false,625,image-keyboard-response,18
true,5,2,1,2,true,d,false,true,0.0-2.0-0.19-0.173-3.173,0,0,0,68,false,stim,false,0,384.0,1,0,1,69478,task1,483889,false,false,628,image-keyboard-response,19
true,5,2,1,0,false,q,true,false,0.0-2.0-0.19-0.174-3.174,0,0,0,68,false,stim,false,1,454.2999999523163,1,0,0,69478,task1,485848,false,false,631,image-keyboard-response,20
true,5,2,1,2,true,d,false,true,0.0-2.0-0.19-0.175-3.175,0,0,0,68,false,stim,false,0,728.7999999523163,1,0,1,69478,task1,488081,false,false,634,image-keyboard-response,21
true,5,2,1,2,true,d,false,true,0.0-2.0-0.19-0.176-3.176,0,0,0,68,false,stim,false,1,527.7999999523163,1,0,2,69478,task1,490113,false,false,637,image-keyboard-response,22
true,5,0,1,0,true,q,false,true,0.0-2.0-0.19-0.177-3.177,0,0,0,81,false,stim,false,1,485.59999990463257,1,0,0,69478,task1,492104,false,false,640,image-keyboard-response,23
true,5,2,1,2,true,d,false,true,0.0-2.0-0.19-0.178-3.178,0,0,0,68,false,stim,false,1,617.3999999761581,1,0,2,69478,task1,494226,false,false,643,image-keyboard-response,24
true,5,2,1,2,true,d,false,true,0.0-2.0-0.19-0.179-3.179,0,0,0,68,false,stim,false,1,670.3000000715256,1,0,2,69478,task1,496400,false,false,646,image-keyboard-response,25
true,5,2,1,2,true,d,false,true,0.0-2.0-0.20-0.180-3.180,0,0,0,68,false,stim,false,1,582.1999999284744,1,0,2,69478,task1,498489,false,false,649,image-keyboard-response,26
true,5,0,1,0,true,q,false,false,0.0-2.0-0.20-0.181-3.181,0,0,0,81,false,stim,false,1,895.8999999761581,1,0,0,69478,task1,500888,false,true,652,image-keyboard-response,27
true,5,1,1,0,false,q,false,false,0.0-2.0-0.20-0.182-3.182,0,0,0,90,false,stim,true,1,552.6000000238419,1,0,0,69478,task1,502945,false,false,655,image-keyboard-response,28
true,5,2,1,2,true,d,false,false,0.0-2.0-0.20-0.183-3.183,0,0,0,68,false,stim,false,0,774.7999999523163,1,0,1,69478,task1,505224,false,true,658,image-keyboard-response,29
true,5,1,1,2,false,d,true,false,0.0-2.0-0.20-0.184-3.184,0,0,0,90,false,stim,false,0,535.4000000953674,1,0,1,69478,task1,507264,false,false,661,image-keyboard-response,30
true,5,0,1,2,false,d,false,false,0.0-2.0-0.20-0.185-3.185,0,0,0,81,false,stim,true,0,391.5,1,0,1,69478,task1,509161,false,false,664,image-keyboard-response,31
true,5,2,1,2,true,d,false,false,0.0-2.0-0.20-0.186-3.186,0,0,0,68,false,stim,false,1,1398.8000000715256,1,0,2,69478,task1,512064,false,true,667,image-keyboard-response,32
true,5,1,1,2,false,d,false,false,0.0-2.0-0.20-0.187-3.187,0,0,0,90,false,stim,true,1,679.0,1,0,2,69478,task1,514249,false,false,670,image-keyboard-response,33
true,5,1,1,0,false,q,false,false,0.0-2.0-0.20-0.188-3.188,0,0,0,90,false,stim,true,1,1128.2000000476837,1,0,0,69478,task1,516880,false,false,673,image-keyboard-response,34
true,5,2,1,0,false,q,true,false,0.0-2.0-0.21-0.189-3.189,0,0,0,68,false,stim,false,1,551.5,1,0,0,69478,task1,518936,false,false,676,image-keyboard-response,35
true,5,1,1,2,false,d,false,true,0.0-2.0-0.21-0.190-3.190,0,0,0,90,false,stim,true,1,1024.8999999761581,1,0,2,69478,task1,521464,false,true,679,image-keyboard-response,36
true,5,1,1,2,false,d,true,false,0.0-2.0-0.21-0.191-3.191,0,0,0,90,false,stim,false,0,1095.7000000476837,1,0,1,69478,task1,524064,false,false,682,image-keyboard-response,37
true,5,1,1,2,false,d,false,false,0.0-2.0-0.21-0.192-3.192,0,0,0,90,false,stim,true,1,743.3000000715256,1,0,2,69478,task1,526312,false,false,685,image-keyboard-response,38
true,5,2,1,2,true,d,false,true,0.0-2.0-0.21-0.193-3.193,0,0,0,68,false,stim,false,0,991.7999999523163,1,0,1,69478,task1,528808,false,false,688,image-keyboard-response,39
true,5,2,1,2,true,d,false,true,0.0-2.0-0.21-0.194-3.194,0,0,0,68,false,stim,false,1,590.5,1,0,2,69478,task1,530904,false,false,691,image-keyboard-response,40
true,6,1,2,1,true,z,false,true,0.0-2.0-0.21-0.195-3.195,0,0,0,90,true,stim,false,0,760.6999999284744,1,0,0,69478,task1,533168,false,false,694,image-keyboard-response,1
true,6,2,2,0,false,q,false,false,0.0-2.0-0.21-0.196-3.196,0,0,0,68,false,stim,true,2,959.1000000238419,1,0,1,69478,task1,535632,false,false,697,image-keyboard-response,2
true,6,1,2,1,true,z,false,true,0.0-2.0-0.21-0.197-3.197,0,0,0,90,false,stim,false,0,620.8000000715256,1,0,0,69478,task1,537760,false,false,700,image-keyboard-response,3
true,6,2,2,0,false,q,false,false,0.0-2.0-0.22-0.198-3.198,0,0,0,68,false,stim,true,2,1078.1999999284744,1,0,1,69478,task1,540344,false,false,703,image-keyboard-response,4
true,6,1,2,1,true,z,false,true,0.0-2.0-0.22-0.199-3.199,0,0,0,90,false,stim,false,0,1078.6999999284744,1,0,0,69478,task1,542932,false,false,706,image-keyboard-response,5
true,6,1,2,0,false,q,true,false,0.0-2.0-0.22-0.200-3.200,0,0,0,90,false,stim,false,2,952.5,1,0,1,69478,task1,545389,false,false,709,image-keyboard-response,6
true,6,2,2,1,false,z,false,false,0.0-2.0-0.22-0.201-3.201,0,0,0,68,false,stim,true,2,660.8999999761581,1,0,2,69478,task1,547557,false,false,712,image-keyboard-response,7
true,6,0,2,1,false,z,true,false,0.0-2.0-0.22-0.202-3.202,0,0,0,81,false,stim,false,2,741.2000000476837,1,0,2,69478,task1,549804,false,false,715,image-keyboard-response,8
true,6,1,2,1,true,z,false,true,0.0-2.0-0.22-0.203-3.203,0,0,0,90,false,stim,false,0,710.8999999761581,1,0,0,69478,task1,552021,false,false,718,image-keyboard-response,9
true,6,1,2,0,false,q,true,true,0.0-2.0-0.22-0.204-3.204,0,0,0,90,false,stim,false,2,662.6999999284744,1,0,1,69478,task1,554189,false,true,721,image-keyboard-response,10
true,6,1,2,1,true,z,false,true,0.0-2.0-0.22-0.205-3.205,0,0,0,90,false,stim,false,0,701.3999999761581,1,0,0,69478,task1,556396,false,false,724,image-keyboard-response,11
true,6,1,2,1,true,z,false,true,0.0-2.0-0.22-0.206-3.206,0,0,0,90,false,stim,false,2,449.5,1,0,2,69478,task1,558348,false,false,727,image-keyboard-response,12
true,6,1,2,0,false,q,true,false,0.0-2.0-0.23-0.207-3.207,0,0,0,90,false,stim,false,2,376.0,1,0,1,69478,task1,560228,false,false,730,image-keyboard-response,13
true,6,1,2,0,false,q,true,false,0.0-2.0-0.23-0.208-3.208,0,0,0,90,false,stim,false,2,534.3999999761581,1,0,1,69478,task1,562268,false,false,733,image-keyboard-response,14
true,6,1,2,1,true,z,false,true,0.0-2.0-0.23-0.209-3.209,0,0,0,90,false,stim,false,2,447.5,1,0,2,69478,task1,564220,false,false,736,image-keyboard-response,15
true,6,1,2,1,true,z,false,true,0.0-2.0-0.23-0.210-3.210,0,0,0,90,false,stim,false,2,1023.3999999761581,1,0,2,69478,task1,566749,false,false,739,image-keyboard-response,16
true,6,1,2,1,true,z,false,true,0.0-2.0-0.23-0.211-3.211,0,0,0,90,false,stim,false,0,695.1000000238419,1,0,0,69478,task1,568949,false,false,742,image-keyboard-response,17
true,6,1,2,1,true,z,false,true,0.0-2.0-0.23-0.212-3.212,0,0,0,90,false,stim,false,0,751.6000000238419,1,0,0,69478,task1,571204,false,false,745,image-keyboard-response,18
true,6,1,2,0,false,q,true,false,0.0-2.0-0.23-0.213-3.213,0,0,0,90,false,stim,false,2,545.0,1,0,1,69478,task1,573252,false,false,748,image-keyboard-response,19
true,6,1,2,1,true,z,false,true,0.0-2.0-0.23-0.214-3.214,0,0,0,90,false,stim,false,0,670.6000000238419,1,0,0,69478,task1,575429,false,false,751,image-keyboard-response,20
true,6,1,2,1,true,z,false,true,0.0-2.0-0.23-0.215-3.215,0,0,0,90,false,stim,false,2,397.09999990463257,1,0,2,69478,task1,577333,false,false,754,image-keyboard-response,21
true,6,1,2,1,true,z,false,true,0.0-2.0-0.24-0.216-3.216,0,0,0,90,false,stim,false,2,781.5,1,0,2,69478,task1,579621,false,false,757,image-keyboard-response,22
true,6,1,2,1,true,z,false,true,0.0-2.0-0.24-0.217-3.217,0,0,0,90,false,stim,false,0,316.2000000476837,1,0,0,69478,task1,581444,false,false,760,image-keyboard-response,23
true,6,1,2,1,true,z,false,true,0.0-2.0-0.24-0.218-3.218,0,0,0,90,false,stim,false,0,175.40000009536743,1,0,0,69478,task1,583124,false,false,763,image-keyboard-response,24
true,6,1,2,0,false,q,true,false,0.0-2.0-0.24-0.219-3.219,0,0,0,90,false,stim,false,2,767.3999999761581,1,0,1,69478,task1,585396,false,false,766,image-keyboard-response,25
true,6,0,2,1,false,z,true,false,0.0-2.0-0.24-0.220-3.220,0,0,0,81,false,stim,false,2,527.1000000238419,1,0,2,69478,task1,587428,false,false,769,image-keyboard-response,26
true,6,1,2,1,true,z,false,true,0.0-2.0-0.24-0.221-3.221,0,0,0,90,false,stim,false,0,792.2000000476837,1,0,0,69478,task1,589724,false,false,772,image-keyboard-response,27
true,6,1,2,0,false,q,true,true,0.0-2.0-0.24-0.222-3.222,0,0,0,90,false,stim,false,2,470.89999997615814,1,0,1,69478,task1,591700,false,true,775,image-keyboard-response,28
true,6,1,2,1,true,z,false,true,0.0-2.0-0.24-0.223-3.223,0,0,0,90,false,stim,false,2,631.2000000476837,1,0,2,69478,task1,593836,false,false,778,image-keyboard-response,29
true,6,1,2,0,false,q,true,false,0.0-2.0-0.24-0.224-3.224,0,0,0,90,false,stim,false,2,383.2000000476837,1,0,1,69478,task1,595724,false,false,781,image-keyboard-response,30
true,6,1,2,1,true,z,false,true,0.0-2.0-0.25-0.225-3.225,0,0,0,90,false,stim,false,0,630.2000000476837,1,0,0,69478,task1,597860,false,false,784,image-keyboard-response,31
true,6,1,2,1,true,z,false,true,0.0-2.0-0.25-0.226-3.226,0,0,0,90,false,stim,false,2,368.0,1,0,2,69478,task1,599732,false,false,787,image-keyboard-response,32
true,6,1,2,1,true,z,false,true,0.0-2.0-0.25-0.227-3.227,0,0,0,90,false,stim,false,0,784.1000000238419,1,0,0,69478,task1,602021,false,false,790,image-keyboard-response,33
true,6,1,2,1,true,z,false,true,0.0-2.0-0.25-0.228-3.228,0,0,0,90,false,stim,false,2,502.2999999523163,1,0,2,69478,task1,604028,false,false,793,image-keyboard-response,34
true,6,1,2,1,true,z,false,true,0.0-2.0-0.25-0.229-3.229,0,0,0,90,false,stim,false,0,431.3000000715256,1,0,0,69478,task1,605964,false,false,796,image-keyboard-response,35
true,6,1,2,1,true,z,false,true,0.0-2.0-0.25-0.230-3.230,0,0,0,90,false,stim,false,2,526.6000000238419,1,0,2,69478,task1,607996,false,false,799,image-keyboard-response,36
true,6,2,2,0,false,q,false,false,0.0-2.0-0.25-0.231-3.231,0,0,0,68,false,stim,true,2,509.3000000715256,1,0,1,69478,task1,610012,false,false,802,image-keyboard-response,37
true,6,0,2,0,true,q,false,true,0.0-2.0-0.25-0.232-3.232,0,0,0,81,false,stim,false,2,439.10000002384186,1,0,1,69478,task1,611956,false,false,805,image-keyboard-response,38
true,6,0,2,0,true,q,false,true,0.0-2.0-0.25-0.233-3.233,0,0,0,81,false,stim,false,2,431.0,1,0,1,69478,task1,613892,false,false,808,image-keyboard-response,39
true,6,1,2,1,true,z,false,true,0.0-2.0-0.26-0.234-3.234,0,0,0,90,false,stim,false,2,607.3999999761581,1,0,2,69478,task1,616004,false,false,811,image-keyboard-response,40
true,6,1,2,1,true,z,false,true,0.0-2.0-0.26-0.235-3.235,0,0,0,90,false,stim,false,0,454.39999997615814,1,0,0,69478,task1,617964,false,false,814,image-keyboard-response,41
true,6,1,2,1,true,z,false,true,0.0-2.0-0.26-0.236-3.236,0,0,0,90,false,stim,false,0,367.7999999523163,1,0,0,69478,task1,619836,false,false,817,image-keyboard-response,42
true,6,1,2,1,true,z,false,true,0.0-2.0-0.26-0.237-3.237,0,0,0,90,false,stim,false,0,361.8000000715256,1,0,0,69478,task1,621701,false,false,820,image-keyboard-response,43
true,7,1,1,0,false,q,false,false,0.0-2.0-0.26-0.238-3.238,0,0,0,90,true,stim,true,1,374.89999997615814,1,0,2,69478,task1,623580,false,false,823,image-keyboard-response,1
true,7,0,1,2,false,d,false,false,0.0-2.0-0.26-0.239-3.239,0,0,0,81,false,stim,true,0,517.1000000238419,1,0,1,69478,task1,625604,false,false,826,image-keyboard-response,2
true,7,1,1,2,false,d,true,false,0.0-2.0-0.26-0.240-3.240,0,0,0,90,false,stim,false,0,680.2000000476837,1,0,1,69478,task1,627788,false,false,829,image-keyboard-response,3
true,7,2,1,2,true,d,false,true,0.0-2.0-0.26-0.241-3.241,0,0,0,68,false,stim,false,0,520.0,1,0,1,69478,task1,629812,false,false,832,image-keyboard-response,4
true,7,1,1,0,false,q,false,false,0.0-2.0-0.26-0.242-3.242,0,0,0,90,false,stim,true,1,822.8999999761581,1,0,2,69478,task1,632140,false,false,835,image-keyboard-response,5
true,7,2,1,2,true,d,false,true,0.0-2.0-0.27-0.243-3.243,0,0,0,68,false,stim,false,0,749.6999999284744,1,0,1,69478,task1,634396,false,false,838,image-keyboard-response,6
true,7,2,1,2,true,d,false,true,0.0-2.0-0.27-0.244-3.244,0,0,0,68,false,stim,false,0,416.5,1,0,1,69478,task1,636316,false,false,841,image-keyboard-response,7
true,7,2,1,0,false,q,true,false,0.0-2.0-0.27-0.245-3.245,0,0,0,68,false,stim,false,1,598.2999999523163,1,0,2,69478,task1,638420,false,false,844,image-keyboard-response,8
true,7,2,1,0,false,q,true,false,0.0-2.0-0.27-0.246-3.246,0,0,0,68,false,stim,false,1,648.0999999046326,1,0,0,69478,task1,640572,false,false,847,image-keyboard-response,9
true,7,0,1,2,false,d,false,false,0.0-2.0-0.27-0.247-3.247,0,0,0,81,false,stim,true,0,749.8999999761581,1,0,1,69478,task1,642828,false,false,850,image-keyboard-response,10
true,7,0,1,0,true,q,false,true,0.0-2.0-0.27-0.248-3.248,0,0,0,81,false,stim,false,1,1047.5,1,0,2,69478,task1,645380,false,false,853,image-keyboard-response,11
true,7,1,1,0,false,q,false,false,0.0-2.0-0.27-0.249-3.249,0,0,0,90,false,stim,true,1,760.8999999761581,1,0,0,69478,task1,647644,false,false,856,image-keyboard-response,12
true,7,2,1,0,false,q,true,false,0.0-2.0-0.27-0.250-3.250,0,0,0,68,false,stim,false,1,960.1000000238419,1,0,2,69478,task1,650109,false,false,859,image-keyboard-response,13
true,7,0,1,0,true,q,false,true,0.0-2.0-0.27-0.251-3.251,0,0,0,81,false,stim,false,1,804.7999999523163,1,0,0,69478,task1,652420,false,false,862,image-keyboard-response,14
true,7,0,1,0,true,q,false,true,0.0-2.0-0.28-0.252-3.252,0,0,0,81,false,stim,false,1,623.1999999284744,1,0,0,69478,task1,654548,false,false,865,image-keyboard-response,15
true,7,0,1,0,true,q,false,true,0.0-2.0-0.28-0.253-3.253,0,0,0,81,false,stim,false,1,576.0,1,0,2,69478,task1,656628,false,false,868,image-keyboard-response,16
true,7,2,1,2,true,d,false,false,0.0-2.0-0.28-0.254-3.254,0,0,0,68,false,stim,false,0,821.5,1,0,1,69478,task1,658956,false,true,871,image-keyboard-response,17
true,7,1,1,0,false,q,false,false,0.0-2.0-0.28-0.255-3.255,0,0,0,90,false,stim,true,1,560.3000000715256,1,0,0,69478,task1,661021,false,false,874,image-keyboard-response,18
true,7,0,1,0,true,q,false,false,0.0-2.0-0.28-0.256-3.256,0,0,0,81,false,stim,false,1,390.0,1,0,0,69478,task1,662917,false,true,877,image-keyboard-response,19
true,7,1,1,0,false,q,false,false,0.0-2.0-0.28-0.257-3.257,0,0,0,90,false,stim,true,1,892.8000000715256,1,0,2,69478,task1,665317,false,false,880,image-keyboard-response,20
true,7,1,1,0,false,q,false,false,0.0-2.0-0.28-0.258-3.258,0,0,0,90,false,stim,true,1,656.8000000715256,1,0,2,69478,task1,667477,false,false,883,image-keyboard-response,21
true,7,0,1,2,false,d,false,false,0.0-2.0-0.28-0.259-3.259,0,0,0,81,false,stim,true,0,703.3999999761581,1,0,1,69478,task1,669685,false,false,886,image-keyboard-response,22
true,7,0,1,2,false,d,false,false,0.0-2.0-0.28-0.260-3.260,0,0,0,81,false,stim,true,0,615.5999999046326,1,0,1,69478,task1,671805,false,false,889,image-keyboard-response,23
true,7,0,1,0,true,q,false,true,0.0-2.0-0.29-0.261-3.261,0,0,0,81,false,stim,false,1,640.1999999284744,1,0,0,69478,task1,673949,false,false,892,image-keyboard-response,24
true,7,0,1,0,true,q,false,false,0.0-2.0-0.29-0.262-3.262,0,0,0,81,false,stim,false,1,1584.0,1,0,2,69478,task1,677037,false,true,895,image-keyboard-response,25
true,7,0,1,0,true,q,false,true,0.0-2.0-0.29-0.263-3.263,0,0,0,81,false,stim,false,1,725.5,1,0,0,69478,task1,679269,false,false,898,image-keyboard-response,26
true,7,0,1,0,true,q,false,true,0.0-2.0-0.29-0.264-3.264,0,0,0,81,false,stim,false,1,476.7999999523163,1,0,0,69478,task1,681253,false,false,901,image-keyboard-response,27
true,7,1,1,0,false,q,false,false,0.0-2.0-0.29-0.265-3.265,0,0,0,90,false,stim,true,1,519.6000000238419,1,0,2,69478,task1,683276,false,false,904,image-keyboard-response,28
true,7,1,1,2,false,d,true,false,0.0-2.0-0.29-0.266-3.266,0,0,0,90,false,stim,false,0,632.1000000238419,1,0,1,69478,task1,685413,false,false,907,image-keyboard-response,29
true,7,0,1,2,false,d,false,false,0.0-2.0-0.29-0.267-3.267,0,0,0,81,false,stim,true,0,951.6000000238419,1,0,1,69478,task1,687870,false,false,910,image-keyboard-response,30
true,7,2,1,0,false,q,true,true,0.0-2.0-0.29-0.268-3.268,0,0,0,68,false,stim,false,1,685.3999999761581,1,0,2,69478,task1,690061,false,true,913,image-keyboard-response,31
true,7,0,1,2,false,d,false,false,0.0-2.0-0.29-0.269-3.269,0,0,0,81,false,stim,true,0,1029.1999999284744,1,0,1,69478,task1,692597,false,false,916,image-keyboard-response,32
true,7,2,1,2,true,d,false,true,0.0-2.0-0.30-0.270-3.270,0,0,0,68,false,stim,false,0,471.8000000715256,1,0,1,69478,task1,694572,false,false,919,image-keyboard-response,33
true,7,2,1,0,false,q,true,false,0.0-2.0-0.30-0.271-3.271,0,0,0,68,false,stim,false,1,926.5,1,0,2,69478,task1,697004,false,false,922,image-keyboard-response,34
true,7,2,1,2,true,d,false,true,0.0-2.0-0.30-0.272-3.272,0,0,0,68,false,stim,false,0,640.3000000715256,1,0,1,69478,task1,699149,false,false,925,image-keyboard-response,35
true,7,1,1,0,false,q,false,false,0.0-2.0-0.30-0.273-3.273,0,0,0,90,false,stim,true,1,622.8999999761581,1,0,2,69478,task1,701276,false,false,928,image-keyboard-response,36
true,7,0,1,0,true,q,false,true,0.0-2.0-0.30-0.274-3.274,0,0,0,81,false,stim,false,1,648.7000000476837,1,0,0,69478,task1,703429,false,false,931,image-keyboard-response,37
true,7,2,1,2,true,d,false,true,0.0-2.0-0.30-0.275-3.275,0,0,0,68,false,stim,false,0,790.1000000238419,1,0,1,69478,task1,705724,false,false,934,image-keyboard-response,38
true,7,0,1,0,true,q,false,true,0.0-2.0-0.30-0.276-3.276,0,0,0,81,false,stim,false,1,694.6000000238419,1,0,2,69478,task1,707924,false,false,937,image-keyboard-response,39
true,8,0,1,2,false,d,false,false,0.0-2.0-0.30-0.277-3.277,0,0,0,81,true,stim,true,0,471.2000000476837,1,0,0,69478,task1,709902,false,false,940,image-keyboard-response,1
true,8,1,1,2,false,d,true,false,0.0-2.0-0.30-0.278-3.278,0,0,0,90,false,stim,false,0,387.7000000476837,1,0,0,69478,task1,711796,false,false,943,image-keyboard-response,2
true,8,2,1,1,false,z,false,false,0.0-2.0-0.31-0.279-3.279,0,0,0,68,false,stim,true,2,1199.8000000715256,1,0,1,69478,task1,714501,false,false,946,image-keyboard-response,3
true,8,2,1,2,true,d,false,true,0.0-2.0-0.31-0.280-3.280,0,0,0,68,false,stim,false,0,1029.1000000238419,1,0,0,69478,task1,717036,false,false,949,image-keyboard-response,4
true,8,1,1,1,true,z,false,true,0.0-2.0-0.31-0.281-3.281,0,0,0,90,false,stim,false,0,790.7000000476837,1,0,2,69478,task1,719332,false,false,952,image-keyboard-response,5
true,8,1,1,2,false,d,true,false,0.0-2.0-0.31-0.282-3.282,0,0,0,90,false,stim,false,0,607.2999999523163,1,0,0,69478,task1,721444,false,false,955,image-keyboard-response,6
true,8,0,1,2,false,d,false,false,0.0-2.0-0.31-0.283-3.283,0,0,0,81,false,stim,true,0,511.89999997615814,1,0,0,69478,task1,723460,false,false,958,image-keyboard-response,7
true,8,1,1,1,true,z,false,true,0.0-2.0-0.31-0.284-3.284,0,0,0,90,false,stim,false,2,462.60000002384186,1,0,1,69478,task1,725429,false,false,961,image-keyboard-response,8
true,8,2,1,1,false,z,true,false,0.0-2.0-0.31-0.285-3.285,0,0,0,68,false,stim,false,0,1127.1999999284744,1,0,2,69478,task1,728060,false,false,964,image-keyboard-response,9
true,8,1,1,1,true,z,false,true,0.0-2.0-0.31-0.286-3.286,0,0,0,90,false,stim,false,2,934.5,1,0,1,69478,task1,730500,false,false,967,image-keyboard-response,10
true,8,1,1,1,true,z,false,true,0.0-2.0-0.31-0.287-3.287,0,0,0,90,false,stim,false,0,527.3999999761581,1,0,2,69478,task1,732532,false,false,970,image-keyboard-response,11
true,8,0,1,2,false,d,false,false,0.0-2.0-0.32-0.288-3.288,0,0,0,81,false,stim,true,0,544.0,1,0,0,69478,task1,734580,false,false,973,image-keyboard-response,12
true,8,1,1,1,true,z,false,false,0.0-2.0-0.32-0.289-3.289,0,0,0,90,false,stim,false,0,665.0,1,0,2,69478,task1,736749,false,true,976,image-keyboard-response,13
true,8,1,1,1,true,z,false,true,0.0-2.0-0.32-0.290-3.290,0,0,0,90,false,stim,false,2,550.2000000476837,1,0,1,69478,task1,738804,false,false,979,image-keyboard-response,14
true,8,1,1,2,false,d,true,false,0.0-2.0-0.32-0.291-3.291,0,0,0,90,false,stim,false,0,737.0,1,0,0,69478,task1,741044,false,false,982,image-keyboard-response,15
true,8,2,1,2,true,d,false,true,0.0-2.0-0.32-0.292-3.292,0,0,0,68,false,stim,false,0,535.1999999284744,1,0,0,69478,task1,743084,false,false,985,image-keyboard-response,16
true,8,1,1,1,true,z,false,true,0.0-2.0-0.32-0.293-3.293,0,0,0,90,false,stim,false,2,606.6999999284744,1,0,1,69478,task1,745196,false,false,988,image-keyboard-response,17
true,8,2,1,1,false,z,true,false,0.0-2.0-0.32-0.294-3.294,0,0,0,68,false,stim,false,0,702.0,1,0,2,69478,task1,747404,false,false,991,image-keyboard-response,18
true,8,1,1,1,true,z,false,true,0.0-2.0-0.32-0.295-3.295,0,0,0,90,false,stim,false,2,1190.5999999046326,1,0,1,69478,task1,750100,false,false,994,image-keyboard-response,19
true,8,0,1,1,false,z,false,false,0.0-2.0-0.32-0.296-3.296,0,0,0,81,false,stim,true,0,487.40000009536743,1,0,2,69478,task1,752092,false,false,997,image-keyboard-response,20
true,8,1,1,2,false,d,true,true,0.0-2.0-0.33-0.297-3.297,0,0,0,90,false,stim,false,0,1005.5999999046326,1,0,0,69478,task1,754604,false,true,1000,image-keyboard-response,21
true,8,1,1,1,true,z,false,true,0.0-2.0-0.33-0.298-3.298,0,0,0,90,false,stim,false,0,749.2999999523163,1,0,2,69478,task1,756860,false,false,1003,image-keyboard-response,22
true,8,1,1,2,false,d,true,false,0.0-2.0-0.33-0.299-3.299,0,0,0,90,false,stim,false,0,423.2999999523163,1,0,0,69478,task1,758788,false,false,1006,image-keyboard-response,23
true,8,0,1,1,false,z,true,false,0.0-2.0-0.33-0.300-3.300,0,0,0,81,false,stim,false,2,743.6000000238419,1,0,1,69478,task1,761036,false,false,1009,image-keyboard-response,24
true,8,0,1,1,false,z,true,true,0.0-2.0-0.33-0.301-3.301,0,0,0,81,false,stim,false,2,736.2999999523163,1,0,1,69478,task1,763276,false,true,1012,image-keyboard-response,25
true,8,0,1,1,false,z,false,false,0.0-2.0-0.33-0.302-3.302,0,0,0,81,false,stim,true,0,903.6999999284744,1,0,2,69478,task1,765684,false,false,1015,image-keyboard-response,26
true,8,1,1,1,true,z,false,false,0.0-2.0-0.33-0.303-3.303,0,0,0,90,false,stim,false,0,405.40000009536743,1,0,2,69478,task1,767596,false,true,1018,image-keyboard-response,27
true,8,0,1,1,false,z,true,false,0.0-2.0-0.33-0.304-3.304,0,0,0,81,false,stim,false,2,864.2999999523163,1,0,1,69478,task1,769964,false,false,1021,image-keyboard-response,28
true,8,0,1,2,false,d,false,true,0.0-2.0-0.33-0.305-3.305,0,0,0,81,false,stim,true,0,645.8999999761581,1,0,0,69478,task1,772116,false,true,1024,image-keyboard-response,29
true,8,1,1,1,true,z,false,true,0.0-2.0-0.34-0.306-3.306,0,0,0,90,false,stim,false,0,1111.6000000238419,1,0,2,69478,task1,774732,false,false,1027,image-keyboard-response,30
true,8,1,1,1,true,z,false,true,0.0-2.0-0.34-0.307-3.307,0,0,0,90,false,stim,false,0,622.2000000476837,1,0,2,69478,task1,776860,false,false,1030,image-keyboard-response,31
true,8,1,1,1,true,z,false,true,0.0-2.0-0.34-0.308-3.308,0,0,0,90,false,stim,false,0,357.8000000715256,1,0,2,69478,task1,778724,false,false,1033,image-keyboard-response,32
true,8,0,1,2,false,d,false,false,0.0-2.0-0.34-0.309-3.309,0,0,0,81,false,stim,true,0,679.1000000238419,1,0,0,69478,task1,780908,false,false,1036,image-keyboard-response,33
true,8,1,1,1,true,z,false,true,0.0-2.0-0.34-0.310-3.310,0,0,0,90,false,stim,false,2,487.10000002384186,1,0,1,69478,task1,782900,false,false,1039,image-keyboard-response,34
true,8,1,1,1,true,z,false,false,0.0-2.0-0.34-0.311-3.311,0,0,0,90,false,stim,false,2,415.7000000476837,1,0,1,69478,task1,784820,false,true,1042,image-keyboard-response,35
true,8,1,1,1,true,z,false,true,0.0-2.0-0.34-0.312-3.312,0,0,0,90,false,stim,false,2,391.7000000476837,1,0,1,69478,task1,786716,false,false,1045,image-keyboard-response,36
true,8,2,1,2,true,d,false,true,0.0-2.0-0.34-0.313-3.313,0,0,0,68,false,stim,false,0,1013.2000000476837,1,0,0,69478,task1,789236,false,false,1048,image-keyboard-response,37
true,8,2,1,2,true,d,false,true,0.0-2.0-0.34-0.314-3.314,0,0,0,68,false,stim,false,0,599.1000000238419,1,0,0,69478,task1,791340,false,false,1051,image-keyboard-response,38
true,8,1,1,1,true,z,false,true,0.0-2.0-0.35-0.315-3.315,0,0,0,90,false,stim,false,2,564.3999999761581,1,0,1,69478,task1,793412,false,false,1054,image-keyboard-response,39
true,8,1,1,1,true,z,false,true,0.0-2.0-0.35-0.316-3.316,0,0,0,90,false,stim,false,2,422.0,1,0,1,69478,task1,795340,false,false,1057,image-keyboard-response,40
true,8,1,1,1,true,z,false,true,0.0-2.0-0.35-0.317-3.317,0,0,0,90,false,stim,false,2,437.2000000476837,1,0,1,69478,task1,797284,false,false,1060,image-keyboard-response,41
true,9,2,2,2,true,d,false,true,0.0-2.0-0.35-0.318-3.318,0,0,0,68,true,stim,false,1,862.3999999761581,1,0,2,69478,task1,799652,false,false,1063,image-keyboard-response,1
true,9,2,2,0,false,q,false,false,0.0-2.0-0.35-0.319-3.319,0,0,0,68,false,stim,true,2,669.3000000715256,1,0,0,69478,task1,801828,false,false,1066,image-keyboard-response,2
true,9,1,2,0,false,q,true,false,0.0-2.0-0.35-0.320-3.320,0,0,0,90,false,stim,false,2,368.10000002384186,1,0,0,69478,task1,803700,false,false,1069,image-keyboard-response,3
true,9,1,2,2,false,d,false,false,0.0-2.0-0.35-0.321-3.321,0,0,0,90,false,stim,true,1,711.6000000238419,1,0,2,69478,task1,805916,false,false,1072,image-keyboard-response,4
true,9,1,2,0,false,q,true,false,0.0-2.0-0.35-0.322-3.322,0,0,0,90,false,stim,false,2,783.2000000476837,1,0,0,69478,task1,808204,false,false,1075,image-keyboard-response,5
true,9,2,2,2,true,d,false,true,0.0-2.0-0.35-0.323-3.323,0,0,0,68,false,stim,false,1,759.1999999284744,1,0,2,69478,task1,810468,false,false,1078,image-keyboard-response,6
true,9,1,2,2,false,d,false,false,0.0-2.0-0.36-0.324-3.324,0,0,0,90,false,stim,true,1,540.8000000715256,1,0,1,69478,task1,812516,false,false,1081,image-keyboard-response,7
true,9,0,2,0,true,q,false,true,0.0-2.0-0.36-0.325-3.325,0,0,0,81,false,stim,false,2,704.2999999523163,1,0,0,69478,task1,814724,false,false,1084,image-keyboard-response,8
true,9,0,2,0,true,q,false,false,0.0-2.0-0.36-0.326-3.326,0,0,0,81,false,stim,false,2,488.2000000476837,1,0,0,69478,task1,816716,false,true,1087,image-keyboard-response,9
true,9,2,2,2,true,d,false,true,0.0-2.0-0.36-0.327-3.327,0,0,0,68,false,stim,false,1,726.1000000238419,1,0,2,69478,task1,818948,false,false,1090,image-keyboard-response,10
true,9,2,2,2,true,d,false,true,0.0-2.0-0.36-0.328-3.328,0,0,0,68,false,stim,false,1,455.10000002384186,1,0,2,69478,task1,820908,false,false,1093,image-keyboard-response,11
true,9,0,2,2,false,d,true,false,0.0-2.0-0.36-0.329-3.329,0,0,0,81,false,stim,false,1,855.9000000953674,1,0,1,69478,task1,823268,false,false,1096,image-keyboard-response,12
true,9,1,2,0,false,q,true,false,0.0-2.0-0.36-0.330-3.330,0,0,0,90,false,stim,false,2,358.60000002384186,1,0,0,69478,task1,825132,false,false,1099,image-keyboard-response,13
true,9,2,2,2,true,d,false,true,0.0-2.0-0.36-0.331-3.331,0,0,0,68,false,stim,false,1,596.8999999761581,1,0,2,69478,task1,827236,false,false,1102,image-keyboard-response,14
true,9,1,2,2,false,d,false,false,0.0-2.0-0.36-0.332-3.332,0,0,0,90,false,stim,true,1,647.0,1,0,1,69478,task1,829388,false,false,1105,image-keyboard-response,15
true,9,0,2,0,true,q,false,true,0.0-2.0-0.37-0.333-3.333,0,0,0,81,false,stim,false,2,764.3999999761581,1,0,0,69478,task1,831660,false,false,1108,image-keyboard-response,16
true,9,1,2,2,false,d,false,false,0.0-2.0-0.37-0.334-3.334,0,0,0,90,false,stim,true,1,726.8000000715256,1,0,1,69478,task1,833892,false,false,1111,image-keyboard-response,17
true,9,2,2,2,true,d,false,true,0.0-2.0-0.37-0.335-3.335,0,0,0,68,false,stim,false,1,535.7999999523163,1,0,2,69478,task1,835932,false,false,1114,image-keyboard-response,18
true,9,2,2,2,true,d,false,true,0.0-2.0-0.37-0.336-3.336,0,0,0,68,false,stim,false,1,439.2999999523163,1,0,2,69478,task1,837876,false,false,1117,image-keyboard-response,19
true,9,0,2,2,false,d,true,false,0.0-2.0-0.37-0.337-3.337,0,0,0,81,false,stim,false,1,623.1000000238419,1,0,1,69478,task1,840004,false,false,1120,image-keyboard-response,20
true,9,1,2,2,false,d,false,false,0.0-2.0-0.37-0.338-3.338,0,0,0,90,false,stim,true,1,655.7999999523163,1,0,1,69478,task1,842165,false,false,1123,image-keyboard-response,21
true,9,2,2,2,true,d,false,true,0.0-2.0-0.37-0.339-3.339,0,0,0,68,false,stim,false,1,635.8000000715256,1,0,2,69478,task1,844308,false,false,1126,image-keyboard-response,22
true,9,1,2,0,false,q,true,false,0.0-2.0-0.37-0.340-3.340,0,0,0,90,false,stim,false,2,604.1000000238419,1,0,0,69478,task1,846419,false,false,1129,image-keyboard-response,23
true,9,0,2,0,true,q,false,true,0.0-2.0-0.37-0.341-3.341,0,0,0,81,false,stim,false,2,1352.8999999761581,1,0,0,69478,task1,849277,false,false,1132,image-keyboard-response,24
true,9,2,2,2,true,d,false,true,0.0-2.0-0.38-0.342-3.342,0,0,0,68,false,stim,false,1,739.1999999284744,1,0,2,69478,task1,851523,false,false,1135,image-keyboard-response,25
true,9,0,2,0,true,q,false,true,0.0-2.0-0.38-0.343-3.343,0,0,0,81,false,stim,false,2,735.3999999761581,1,0,0,69478,task1,853763,false,false,1138,image-keyboard-response,26
true,9,0,2,2,false,d,true,false,0.0-2.0-0.38-0.344-3.344,0,0,0,81,false,stim,false,1,1279.1000000238419,1,0,1,69478,task1,856548,false,false,1141,image-keyboard-response,27
true,9,2,2,2,true,d,false,true,0.0-2.0-0.38-0.345-3.345,0,0,0,68,false,stim,false,1,606.1999999284744,1,0,1,69478,task1,858659,false,false,1144,image-keyboard-response,28
true,9,0,2,0,true,q,false,true,0.0-2.0-0.38-0.346-3.346,0,0,0,81,false,stim,false,2,967.0,1,0,0,69478,task1,861131,false,false,1147,image-keyboard-response,29
true,9,0,2,0,true,q,false,true,0.0-2.0-0.38-0.347-3.347,0,0,0,81,false,stim,false,2,495.0,1,0,0,69478,task1,863131,false,false,1150,image-keyboard-response,30
true,9,2,2,2,true,d,false,false,0.0-2.0-0.38-0.348-3.348,0,0,0,68,false,stim,false,1,551.5,1,0,2,69478,task1,865188,false,true,1153,image-keyboard-response,31
true,9,1,2,2,false,d,false,false,0.0-2.0-0.38-0.349-3.349,0,0,0,90,false,stim,true,1,687.3999999761581,1,0,2,69478,task1,867379,false,false,1156,image-keyboard-response,32
true,9,2,2,2,true,d,false,true,0.0-2.0-0.38-0.350-3.350,0,0,0,68,false,stim,false,1,688.3999999761581,1,0,1,69478,task1,869572,false,false,1159,image-keyboard-response,33
true,9,0,2,0,true,q,false,false,0.0-2.0-0.39-0.351-3.351,0,0,0,81,false,stim,false,2,581.7000000476837,1,0,0,69478,task1,871660,false,true,1162,image-keyboard-response,34
true,9,1,2,2,false,d,false,false,0.0-2.0-0.39-0.352-3.352,0,0,0,90,false,stim,true,1,1101.6999999284744,1,0,2,69478,task1,874267,false,false,1165,image-keyboard-response,35
true,9,0,2,0,true,q,false,true,0.0-2.0-0.39-0.353-3.353,0,0,0,81,false,stim,false,2,1711.9000000953674,1,0,0,69478,task1,877485,false,false,1168,image-keyboard-response,36
true,9,0,2,2,false,d,true,true,0.0-2.0-0.39-0.354-3.354,0,0,0,81,false,stim,false,1,811.1000000238419,1,0,2,69478,task1,879803,false,true,1171,image-keyboard-response,37
true,9,0,2,2,false,d,true,false,0.0-2.0-0.39-0.355-3.355,0,0,0,81,false,stim,false,1,488.3000000715256,1,0,2,69478,task1,881795,false,false,1174,image-keyboard-response,38
true,9,2,2,2,true,d,false,true,0.0-2.0-0.39-0.356-3.356,0,0,0,68,false,stim,false,1,790.8999999761581,1,0,1,69478,task1,884091,false,false,1177,image-keyboard-response,39
true,9,2,2,2,true,d,false,true,0.0-2.0-0.39-0.357-3.357,0,0,0,68,false,stim,false,1,407.60000002384186,1,0,1,69478,task1,886004,false,false,1180,image-keyboard-response,40
true,9,1,2,0,false,q,true,false,0.0-2.0-0.39-0.358-3.358,0,0,0,90,false,stim,false,2,591.0999999046326,1,0,0,69478,task1,888099,false,false,1183,image-keyboard-response,41
true,9,0,2,2,false,d,true,false,0.0-2.0-0.39-0.359-3.359,0,0,0,81,false,stim,false,1,1358.1000000238419,1,0,1,69478,task1,890963,false,false,1186,image-keyboard-response,42
true,9,2,2,2,true,d,false,true,0.0-2.0-0.40-0.360-3.360,0,0,0,68,false,stim,false,1,807.0,1,0,2,69478,task1,893275,false,false,1189,image-keyboard-response,43
true,9,2,2,2,true,d,false,true,0.0-2.0-0.40-0.361-3.361,0,0,0,68,false,stim,false,1,528.0,1,0,2,69478,task1,895308,false,false,1192,image-keyboard-response,44
true,10,2,2,1,false,z,true,false,0.0-2.0-0.40-0.362-3.362,0,0,0,68,true,stim,false,0,507.60000002384186,1,0,0,69478,task1,897323,false,false,1195,image-keyboard-response,1
true,10,0,2,1,false,z,false,true,0.0-2.0-0.40-0.363-3.363,0,0,0,81,false,stim,true,0,536.3000000715256,1,0,0,69478,task1,899363,false,true,1198,image-keyboard-response,2
true,10,2,2,1,false,z,false,false,0.0-2.0-0.40-0.364-3.364,0,0,0,68,false,stim,true,2,652.2999999523163,1,0,2,69478,task1,901523,false,false,1201,image-keyboard-response,3
true,10,1,2,0,false,q,true,false,0.0-2.0-0.40-0.365-3.365,0,0,0,90,false,stim,false,2,532.7000000476837,1,0,1,69478,task1,903563,false,false,1204,image-keyboard-response,4
true,10,0,2,1,false,z,false,false,0.0-2.0-0.40-0.366-3.366,0,0,0,81,false,stim,true,0,885.8000000715256,1,0,0,69478,task1,905955,false,false,1207,image-keyboard-response,5
true,10,0,2,0,true,q,false,true,0.0-2.0-0.40-0.367-3.367,0,0,0,81,false,stim,false,2,591.0,1,0,1,69478,task1,908052,false,false,1210,image-keyboard-response,6
true,10,0,2,0,true,q,false,true,0.0-2.0-0.40-0.368-3.368,0,0,0,81,false,stim,false,2,371.7000000476837,1,0,1,69478,task1,909931,false,false,1213,image-keyboard-response,7
true,10,0,2,1,false,z,false,false,0.0-2.0-0.41-0.369-3.369,0,0,0,81,false,stim,true,0,442.2000000476837,1,0,0,69478,task1,911883,false,false,1216,image-keyboard-response,8
true,10,1,2,0,false,q,true,false,0.0-2.0-0.41-0.370-3.370,0,0,0,90,false,stim,false,2,536.0,1,0,1,69478,task1,913924,false,false,1219,image-keyboard-response,9
true,10,2,2,1,false,z,false,true,0.0-2.0-0.41-0.371-3.371,0,0,0,68,false,stim,true,2,916.1000000238419,1,0,2,69478,task1,916347,false,true,1222,image-keyboard-response,10
true,10,2,2,1,false,z,false,false,0.0-2.0-0.41-0.372-3.372,0,0,0,68,false,stim,true,2,584.1000000238419,1,0,2,69478,task1,918435,false,false,1225,image-keyboard-response,11
true,10,0,2,0,true,q,false,true,0.0-2.0-0.41-0.373-3.373,0,0,0,81,false,stim,false,2,744.1999999284744,1,0,1,69478,task1,920684,false,false,1228,image-keyboard-response,12
true,10,1,2,1,true,z,false,true,0.0-2.0-0.41-0.374-3.374,0,0,0,90,false,stim,false,2,1293.0,1,0,2,69478,task1,923483,false,false,1231,image-keyboard-response,13
true,10,1,2,1,true,z,false,false,0.0-2.0-0.41-0.375-3.375,0,0,0,90,false,stim,false,0,1158.5999999046326,1,0,0,69478,task1,926148,false,true,1234,image-keyboard-response,14
true,10,0,2,1,false,z,false,true,0.0-2.0-0.41-0.376-3.376,0,0,0,81,false,stim,true,0,437.0,1,0,0,69478,task1,928091,false,true,1237,image-keyboard-response,15
true,10,0,2,0,true,q,false,false,0.0-2.0-0.41-0.377-3.377,0,0,0,81,false,stim,false,2,510.90000009536743,1,0,1,69478,task1,930107,false,true,1240,image-keyboard-response,16
true,10,1,2,0,false,q,true,false,0.0-2.0-0.42-0.378-3.378,0,0,0,90,false,stim,false,2,765.0,1,0,1,69478,task1,932379,false,false,1243,image-keyboard-response,17
true,10,1,2,1,true,z,false,true,0.0-2.0-0.42-0.379-3.379,0,0,0,90,false,stim,false,2,598.5,1,0,2,69478,task1,934483,false,false,1246,image-keyboard-response,18
true,10,1,2,1,true,z,false,true,0.0-2.0-0.42-0.380-3.380,0,0,0,90,false,stim,false,2,385.39999997615814,1,0,2,69478,task1,936371,false,false,1249,image-keyboard-response,19
true,10,0,2,1,false,z,false,false,0.0-2.0-0.42-0.381-3.381,0,0,0,81,false,stim,true,0,1064.5,1,0,0,69478,task1,938939,false,false,1252,image-keyboard-response,20
true,10,1,2,0,false,q,true,false,0.0-2.0-0.42-0.382-3.382,0,0,0,90,false,stim,false,2,976.3999999761581,1,0,1,69478,task1,941419,false,false,1255,image-keyboard-response,21
true,10,1,2,1,true,z,false,true,0.0-2.0-0.42-0.383-3.383,0,0,0,90,false,stim,false,0,577.7999999523163,1,0,0,69478,task1,943501,false,false,1258,image-keyboard-response,22
true,10,1,2,0,false,q,true,true,0.0-2.0-0.42-0.384-3.384,0,0,0,90,false,stim,false,2,666.3999999761581,1,0,1,69478,task1,945675,false,true,1261,image-keyboard-response,23
true,10,1,2,1,true,z,false,true,0.0-2.0-0.42-0.385-3.385,0,0,0,90,false,stim,false,2,501.89999997615814,1,0,2,69478,task1,947684,false,false,1264,image-keyboard-response,24
true,10,1,2,1,true,z,false,true,0.0-2.0-0.42-0.386-3.386,0,0,0,90,false,stim,false,0,365.3000000715256,1,0,0,69478,task1,949556,false,false,1267,image-keyboard-response,25
true,10,1,2,1,true,z,false,true,0.0-2.0-0.43-0.387-3.387,0,0,0,90,false,stim,false,0,306.0,1,0,0,69478,task1,951371,false,false,1270,image-keyboard-response,26
true,10,1,2,1,true,z,false,true,0.0-2.0-0.43-0.388-3.388,0,0,0,90,false,stim,false,0,309.60000002384186,1,0,0,69478,task1,953187,false,false,1273,image-keyboard-response,27
true,10,1,2,0,false,q,true,true,0.0-2.0-0.43-0.389-3.389,0,0,0,90,false,stim,false,2,419.1999999284744,1,0,1,69478,task1,955116,false,true,1276,image-keyboard-response,28
true,10,1,2,0,false,q,true,false,0.0-2.0-0.43-0.390-3.390,0,0,0,90,false,stim,false,2,460.5,1,0,1,69478,task1,957084,false,false,1279,image-keyboard-response,29
true,10,1,2,1,true,z,false,true,0.0-2.0-0.43-0.391-3.391,0,0,0,90,false,stim,false,0,677.7999999523163,1,0,0,69478,task1,959267,false,false,1282,image-keyboard-response,30
true,10,1,2,1,true,z,false,false,0.0-2.0-0.43-0.392-3.392,0,0,0,90,false,stim,false,2,502.60000002384186,1,0,2,69478,task1,961275,false,true,1285,image-keyboard-response,31
true,10,2,2,1,false,z,false,false,0.0-2.0-0.43-0.393-3.393,0,0,0,68,false,stim,true,2,615.8000000715256,1,0,2,69478,task1,963395,false,false,1288,image-keyboard-response,32
true,10,0,2,1,false,z,true,false,0.0-2.0-0.43-0.394-3.394,0,0,0,81,false,stim,false,2,529.2000000476837,1,0,2,69478,task1,965429,false,false,1291,image-keyboard-response,33
true,10,1,2,0,false,q,true,false,0.0-2.0-0.43-0.395-3.395,0,0,0,90,false,stim,false,2,621.5,1,0,1,69478,task1,967555,false,false,1294,image-keyboard-response,34
true,10,0,2,1,false,z,false,false,0.0-2.0-0.44-0.396-3.396,0,0,0,81,false,stim,true,0,719.7999999523163,1,0,0,69478,task1,969781,false,false,1297,image-keyboard-response,35
true,10,0,2,1,false,z,true,false,0.0-2.0-0.44-0.397-3.397,0,0,0,81,false,stim,false,2,573.1999999284744,1,0,2,69478,task1,971860,false,false,1300,image-keyboard-response,36
true,10,1,2,1,true,z,false,true,0.0-2.0-0.44-0.398-3.398,0,0,0,90,false,stim,false,0,938.8999999761581,1,0,0,69478,task1,974316,false,false,1303,image-keyboard-response,37
true,10,2,2,1,false,z,false,false,0.0-2.0-0.44-0.399-3.399,0,0,0,68,false,stim,true,2,597.6999999284744,1,0,2,69478,task1,976420,false,false,1306,image-keyboard-response,38
true,10,2,2,0,false,q,false,false,0.0-2.0-0.44-0.400-3.400,0,0,0,68,false,stim,true,2,890.3999999761581,1,0,1,69478,task1,978819,false,false,1309,image-keyboard-response,39
true,10,1,2,0,false,q,true,false,0.0-2.0-0.44-0.401-3.401,0,0,0,90,false,stim,false,2,382.3000000715256,1,0,1,69478,task1,980707,false,false,1312,image-keyboard-response,40
true,10,0,2,0,true,q,false,true,0.0-2.0-0.44-0.402-3.402,0,0,0,81,false,stim,false,2,394.0,1,0,1,69478,task1,982611,false,false,1315,image-keyboard-response,41
true,10,1,2,1,true,z,false,true,0.0-2.0-0.44-0.403-3.403,0,0,0,90,false,stim,false,2,661.8000000715256,1,0,2,69478,task1,984779,false,false,1318,image-keyboard-response,42
true,11,1,2,0,false,q,false,false,0.0-2.0-0.44-0.404-3.404,0,0,0,90,true,stim,true,1,711.8000000715256,1,0,0,69478,task1,986995,false,false,1321,image-keyboard-response,1
true,11,1,2,2,false,d,false,false,0.0-2.0-0.45-0.405-3.405,0,0,0,90,false,stim,true,1,582.1000000238419,1,0,2,69478,task1,989083,false,false,1324,image-keyboard-response,2
true,11,0,2,2,false,d,false,false,0.0-2.0-0.45-0.406-3.406,0,0,0,81,false,stim,true,0,639.2000000476837,1,0,1,69478,task1,991227,false,false,1327,image-keyboard-response,3
true,11,0,2,0,true,q,false,true,0.0-2.0-0.45-0.407-3.407,0,0,0,81,false,stim,false,1,1084.8000000715256,1,0,0,69478,task1,993819,false,false,1330,image-keyboard-response,4
true,11,0,2,0,true,q,false,true,0.0-2.0-0.45-0.408-3.408,0,0,0,81,false,stim,false,1,694.3000000715256,1,0,0,69478,task1,996019,false,false,1333,image-keyboard-response,5
true,11,0,2,2,false,d,false,false,0.0-2.0-0.45-0.409-3.409,0,0,0,81,false,stim,true,0,613.6999999284744,1,0,1,69478,task1,998139,false,false,1336,image-keyboard-response,6
true,11,1,2,2,false,d,false,false,0.0-2.0-0.45-0.410-3.410,0,0,0,90,false,stim,true,1,407.2000000476837,1,0,2,69478,task1,1000051,false,false,1339,image-keyboard-response,7
true,11,2,2,2,true,d,false,false,0.0-2.0-0.45-0.411-3.411,0,0,0,68,false,stim,false,0,511.5,1,0,1,69478,task1,1002068,false,true,1342,image-keyboard-response,8
true,11,0,2,0,true,q,false,true,0.0-2.0-0.45-0.412-3.412,0,0,0,81,false,stim,false,1,418.3000000715256,1,0,0,69478,task1,1003995,false,false,1345,image-keyboard-response,9
true,11,0,2,2,false,d,true,false,0.0-2.0-0.45-0.413-3.413,0,0,0,81,false,stim,false,1,533.7999999523163,1,0,2,69478,task1,1006035,false,false,1348,image-keyboard-response,10
true,11,1,2,2,false,d,true,false,0.0-2.0-0.46-0.414-3.414,0,0,0,90,false,stim,false,0,423.1999999284744,1,0,1,69478,task1,1007963,false,false,1351,image-keyboard-response,11
true,11,2,2,2,true,d,false,true,0.0-2.0-0.46-0.415-3.415,0,0,0,68,false,stim,false,0,433.2999999523163,1,0,1,69478,task1,1009899,false,false,1354,image-keyboard-response,12
true,11,2,2,2,true,d,false,false,0.0-2.0-0.46-0.416-3.416,0,0,0,68,false,stim,false,1,381.7999999523163,1,0,2,69478,task1,1011787,false,true,1357,image-keyboard-response,13
true,11,1,2,2,false,d,false,true,0.0-2.0-0.46-0.417-3.417,0,0,0,90,false,stim,true,1,540.2999999523163,1,0,2,69478,task1,1013835,false,true,1360,image-keyboard-response,14
true,11,0,2,0,true,q,false,true,0.0-2.0-0.46-0.418-3.418,0,0,0,81,false,stim,false,1,655.5999999046326,1,0,0,69478,task1,1015996,false,false,1363,image-keyboard-response,15
true,11,0,2,0,true,q,false,false,0.0-2.0-0.46-0.419-3.419,0,0,0,81,false,stim,false,1,533.1999999284744,1,0,0,69478,task1,1018035,false,true,1366,image-keyboard-response,16
true,11,1,2,2,false,d,true,false,0.0-2.0-0.46-0.420-3.420,0,0,0,90,false,stim,false,0,416.39999997615814,1,0,1,69478,task1,1019957,false,false,1369,image-keyboard-response,17
true,11,1,2,2,false,d,false,false,0.0-2.0-0.46-0.421-3.421,0,0,0,90,false,stim,true,1,186.60000002384186,1,0,2,69478,task1,1021651,false,false,1372,image-keyboard-response,18
true,11,1,2,0,false,q,false,false,0.0-2.0-0.46-0.422-3.422,0,0,0,90,false,stim,true,1,505.2999999523163,1,0,0,69478,task1,1023660,false,false,1375,image-keyboard-response,19
true,11,2,2,2,true,d,false,true,0.0-2.0-0.47-0.423-3.423,0,0,0,68,false,stim,false,0,502.7999999523163,1,0,1,69478,task1,1025667,false,false,1378,image-keyboard-response,20
true,11,2,2,2,true,d,false,true,0.0-2.0-0.47-0.424-3.424,0,0,0,68,false,stim,false,0,471.60000002384186,1,0,1,69478,task1,1027644,false,false,1381,image-keyboard-response,21
true,11,2,2,2,true,d,false,true,0.0-2.0-0.47-0.425-3.425,0,0,0,68,false,stim,false,1,558.8999999761581,1,0,2,69478,task1,1029707,false,false,1384,image-keyboard-response,22
true,11,2,2,2,true,d,false,true,0.0-2.0-0.47-0.426-3.426,0,0,0,68,false,stim,false,1,385.0,1,0,2,69478,task1,1031595,false,false,1387,image-keyboard-response,23
true,11,2,2,0,false,q,true,false,0.0-2.0-0.47-0.427-3.427,0,0,0,68,false,stim,false,1,535.5,1,0,0,69478,task1,1033635,false,false,1390,image-keyboard-response,24
true,11,0,2,0,true,q,false,true,0.0-2.0-0.47-0.428-3.428,0,0,0,81,false,stim,false,1,454.89999997615814,1,0,0,69478,task1,1035595,false,false,1393,image-keyboard-response,25
true,11,2,2,2,true,d,false,true,0.0-2.0-0.47-0.429-3.429,0,0,0,68,false,stim,false,1,388.89999997615814,1,0,2,69478,task1,1037491,false,false,1396,image-keyboard-response,26
true,11,2,2,0,false,q,true,false,0.0-2.0-0.47-0.430-3.430,0,0,0,68,false,stim,false,1,470.5,1,0,0,69478,task1,1039467,false,false,1399,image-keyboard-response,27
true,11,2,2,2,true,d,false,false,0.0-2.0-0.47-0.431-3.431,0,0,0,68,false,stim,false,0,498.39999997615814,1,0,1,69478,task1,1041475,false,true,1402,image-keyboard-response,28
true,11,0,2,0,true,q,false,true,0.0-2.0-0.48-0.432-3.432,0,0,0,81,false,stim,false,1,732.8999999761581,1,0,0,69478,task1,1043715,false,false,1405,image-keyboard-response,29
true,11,1,2,2,false,d,true,false,0.0-2.0-0.48-0.433-3.433,0,0,0,90,false,stim,false,0,479.39999997615814,1,0,1,69478,task1,1045700,false,false,1408,image-keyboard-response,30
true,11,2,2,2,true,d,false,true,0.0-2.0-0.48-0.434-3.434,0,0,0,68,false,stim,false,1,660.6000000238419,1,0,2,69478,task1,1047867,false,false,1411,image-keyboard-response,31
true,11,0,2,0,true,q,false,true,0.0-2.0-0.48-0.435-3.435,0,0,0,81,false,stim,false,1,390.09999990463257,1,0,0,69478,task1,1049763,false,false,1414,image-keyboard-response,32
true,11,0,2,2,false,d,true,false,0.0-2.0-0.48-0.436-3.436,0,0,0,81,false,stim,false,1,566.6000000238419,1,0,2,69478,task1,1051835,false,false,1417,image-keyboard-response,33
true,11,1,2,0,false,q,false,false,0.0-2.0-0.48-0.437-3.437,0,0,0,90,false,stim,true,1,1238.6000000238419,1,0,0,69478,task1,1054579,false,false,1420,image-keyboard-response,34
true,11,1,2,2,false,d,true,false,0.0-2.0-0.48-0.438-3.438,0,0,0,90,false,stim,false,0,622.1999999284744,1,0,1,69478,task1,1056707,false,false,1423,image-keyboard-response,35
true,11,0,2,2,false,d,true,false,0.0-2.0-0.48-0.439-3.439,0,0,0,81,false,stim,false,1,415.7999999523163,1,0,2,69478,task1,1058627,false,false,1426,image-keyboard-response,36
true,11,2,2,2,true,d,false,true,0.0-2.0-0.48-0.440-3.440,0,0,0,68,false,stim,false,0,484.7999999523163,1,0,1,69478,task1,1060619,false,false,1429,image-keyboard-response,37
true,11,2,2,0,false,q,true,false,0.0-2.0-0.49-0.441-3.441,0,0,0,68,false,stim,false,1,567.2000000476837,1,0,0,69478,task1,1062691,false,false,1432,image-keyboard-response,38
true,11,2,2,2,true,d,false,true,0.0-2.0-0.49-0.442-3.442,0,0,0,68,false,stim,false,1,553.0,1,0,2,69478,task1,1064747,false,false,1435,image-keyboard-response,39
true,11,0,2,0,true,q,false,false,0.0-2.0-0.49-0.443-3.443,0,0,0,81,false,stim,false,1,640.5,1,0,0,69478,task1,1066891,false,true,1438,image-keyboard-response,40
true,11,0,2,2,false,d,false,false,0.0-2.0-0.49-0.444-3.444,0,0,0,81,false,stim,true,0,413.5,1,0,1,69478,task1,1068811,false,false,1441,image-keyboard-response,41
true,11,1,2,2,false,d,true,false,0.0-2.0-0.49-0.445-3.445,0,0,0,90,false,stim,false,0,455.90000009536743,1,0,1,69478,task1,1070771,false,false,1444,image-keyboard-response,42
true,11,2,2,2,true,d,false,true,0.0-2.0-0.49-0.446-3.446,0,0,0,68,false,stim,false,0,358.2999999523163,1,0,1,69478,task1,1072635,false,false,1447,image-keyboard-response,43
true,11,2,2,2,true,d,false,true,0.0-2.0-0.49-0.447-3.447,0,0,0,68,false,stim,false,1,613.7000000476837,1,0,2,69478,task1,1074755,false,false,1450,image-keyboard-response,44
true,12,2,2,1,false,z,false,false,0.0-2.0-0.49-0.448-3.448,0,0,0,68,true,stim,true,2,375.10000002384186,1,0,2,69478,task1,1076635,false,false,1453,image-keyboard-response,1
true,12,1,2,1,true,z,false,true,0.0-2.0-0.49-0.449-3.449,0,0,0,90,false,stim,false,0,645.8000000715256,1,0,0,69478,task1,1078787,false,false,1456,image-keyboard-response,2
true,12,2,2,0,false,q,false,false,0.0-2.0-0.50-0.450-3.450,0,0,0,68,false,stim,true,2,630.3999999761581,1,0,1,69478,task1,1080923,false,false,1459,image-keyboard-response,3
true,12,1,2,1,true,z,false,true,0.0-2.0-0.50-0.451-3.451,0,0,0,90,false,stim,false,0,610.5,1,0,0,69478,task1,1083043,false,false,1462,image-keyboard-response,4
true,12,1,2,1,true,z,false,true,0.0-2.0-0.50-0.452-3.452,0,0,0,90,false,stim,false,0,452.2000000476837,1,0,0,69478,task1,1085003,false,false,1465,image-keyboard-response,5
true,12,0,2,1,false,z,true,false,0.0-2.0-0.50-0.453-3.453,0,0,0,81,false,stim,false,2,551.7000000476837,1,0,2,69478,task1,1087059,false,false,1468,image-keyboard-response,6
true,12,1,2,0,false,q,true,false,0.0-2.0-0.50-0.454-3.454,0,0,0,90,false,stim,false,2,733.7000000476837,1,0,1,69478,task1,1089298,false,false,1471,image-keyboard-response,7
true,12,0,2,1,false,z,true,false,0.0-2.0-0.50-0.455-3.455,0,0,0,81,false,stim,false,2,646.8999999761581,1,0,2,69478,task1,1091450,false,false,1474,image-keyboard-response,8
true,12,1,2,1,true,z,false,true,0.0-2.0-0.50-0.456-3.456,0,0,0,90,false,stim,false,0,669.1000000238419,1,0,0,69478,task1,1093626,false,false,1477,image-keyboard-response,9
true,12,2,2,1,false,z,false,false,0.0-2.0-0.50-0.457-3.457,0,0,0,68,false,stim,true,2,535.8999999761581,1,0,2,69478,task1,1095667,false,false,1480,image-keyboard-response,10
true,12,2,2,0,false,q,false,false,0.0-2.0-0.50-0.458-3.458,0,0,0,68,false,stim,true,2,886.6000000238419,1,0,1,69478,task1,1098058,false,false,1483,image-keyboard-response,11
true,12,1,2,1,true,z,false,true,0.0-2.0-0.51-0.459-3.459,0,0,0,90,false,stim,false,2,446.5,1,0,2,69478,task1,1100010,false,false,1486,image-keyboard-response,12
true,12,1,2,1,true,z,false,true,0.0-2.0-0.51-0.460-3.460,0,0,0,90,false,stim,false,0,457.89999997615814,1,0,0,69478,task1,1101978,false,false,1489,image-keyboard-response,13
true,12,1,2,1,true,z,false,false,0.0-2.0-0.51-0.461-3.461,0,0,0,90,false,stim,false,0,464.10000002384186,1,0,0,69478,task1,1103946,false,true,1492,image-keyboard-response,14
true,12,1,2,0,false,q,true,false,0.0-2.0-0.51-0.462-3.462,0,0,0,90,false,stim,false,2,407.10000002384186,1,0,1,69478,task1,1105859,false,false,1495,image-keyboard-response,15
true,12,0,2,1,false,z,false,false,0.0-2.0-0.51-0.463-3.463,0,0,0,81,false,stim,true,0,389.2999999523163,1,0,0,69478,task1,1107754,false,false,1498,image-keyboard-response,16
true,12,2,2,0,false,q,false,false,0.0-2.0-0.51-0.464-3.464,0,0,0,68,false,stim,true,2,451.7999999523163,1,0,1,69478,task1,1109730,false,false,1501,image-keyboard-response,17
true,12,1,2,1,true,z,false,true,0.0-2.0-0.51-0.465-3.465,0,0,0,90,false,stim,false,2,384.0,1,0,2,69478,task1,1111619,false,false,1504,image-keyboard-response,18
true,12,1,2,1,true,z,false,false,0.0-2.0-0.51-0.466-3.466,0,0,0,90,false,stim,false,2,533.0,1,0,2,69478,task1,1113658,false,true,1507,image-keyboard-response,19
true,12,0,2,0,true,q,false,false,0.0-2.0-0.51-0.467-3.467,0,0,0,81,false,stim,false,2,476.3000000715256,1,0,1,69478,task1,1115642,false,true,1510,image-keyboard-response,20
true,12,1,2,0,false,q,true,true,0.0-2.0-0.52-0.468-3.468,0,0,0,90,false,stim,false,2,438.0,1,0,1,69478,task1,1117586,false,true,1513,image-keyboard-response,21
true,12,2,2,1,false,z,true,false,0.0-2.0-0.52-0.469-3.469,0,0,0,68,false,stim,false,0,679.6000000238419,1,0,0,69478,task1,1119770,false,false,1516,image-keyboard-response,22
true,12,1,2,1,true,z,false,true,0.0-2.0-0.52-0.470-3.470,0,0,0,90,false,stim,false,2,310.89999997615814,1,0,2,69478,task1,1121586,false,false,1519,image-keyboard-response,23
true,12,1,2,0,false,q,true,false,0.0-2.0-0.52-0.471-3.471,0,0,0,90,false,stim,false,2,446.60000002384186,1,0,1,69478,task1,1123538,false,false,1522,image-keyboard-response,24
true,12,1,2,1,true,z,false,true,0.0-2.0-0.52-0.472-3.472,0,0,0,90,false,stim,false,0,431.89999997615814,1,0,0,69478,task1,1125474,false,false,1525,image-keyboard-response,25
true,12,1,2,0,false,q,true,false,0.0-2.0-0.52-0.473-3.473,0,0,0,90,false,stim,false,2,485.39999997615814,1,0,1,69478,task1,1127466,false,false,1528,image-keyboard-response,26
true,12,1,2,1,true,z,false,true,0.0-2.0-0.52-0.474-3.474,0,0,0,90,false,stim,false,2,398.5,1,0,2,69478,task1,1129370,false,false,1531,image-keyboard-response,27
true,12,1,2,1,true,z,false,false,0.0-2.0-0.52-0.475-3.475,0,0,0,90,false,stim,false,2,446.1999999284744,1,0,2,69478,task1,1131322,false,true,1534,image-keyboard-response,28
true,12,1,2,1,true,z,false,true,0.0-2.0-0.52-0.476-3.476,0,0,0,90,false,stim,false,0,678.6000000238419,1,0,0,69478,task1,1133506,false,false,1537,image-keyboard-response,29
true,12,1,2,0,false,q,true,false,0.0-2.0-0.53-0.477-3.477,0,0,0,90,false,stim,false,2,591.2999999523163,1,0,1,69478,task1,1135602,false,false,1540,image-keyboard-response,30
true,12,2,2,1,false,z,true,false,0.0-2.0-0.53-0.478-3.478,0,0,0,68,false,stim,false,0,408.3000000715256,1,0,0,69478,task1,1137515,false,false,1543,image-keyboard-response,31
true,12,2,2,0,false,q,false,false,0.0-2.0-0.53-0.479-3.479,0,0,0,68,false,stim,true,2,1022.0,1,0,1,69478,task1,1140043,false,false,1546,image-keyboard-response,32
true,12,1,2,1,true,z,false,true,0.0-2.0-0.53-0.480-3.480,0,0,0,90,false,stim,false,2,621.8000000715256,1,0,2,69478,task1,1142170,false,false,1549,image-keyboard-response,33
true,12,1,2,1,true,z,false,true,0.0-2.0-0.53-0.481-3.481,0,0,0,90,false,stim,false,0,470.7999999523163,1,0,0,69478,task1,1144146,false,false,1552,image-keyboard-response,34
true,12,1,2,1,true,z,false,true,0.0-2.0-0.53-0.482-3.482,0,0,0,90,false,stim,false,2,334.1999999284744,1,0,2,69478,task1,1145987,false,false,1555,image-keyboard-response,35
true,12,1,2,1,true,z,false,true,0.0-2.0-0.53-0.483-3.483,0,0,0,90,false,stim,false,2,332.6999999284744,1,0,2,69478,task1,1147826,false,false,1558,image-keyboard-response,36
true,12,0,2,0,true,q,false,true,0.0-2.0-0.53-0.484-3.484,0,0,0,81,false,stim,false,2,535.5999999046326,1,0,1,69478,task1,1149867,false,false,1561,image-keyboard-response,37
true,12,1,2,1,true,z,false,false,0.0-2.0-0.53-0.485-3.485,0,0,0,90,false,stim,false,0,456.0,1,0,0,69478,task1,1151828,false,true,1564,image-keyboard-response,38
true,12,0,2,1,false,z,false,false,0.0-2.0-0.54-0.486-3.486,0,0,0,81,false,stim,true,0,557.5,1,0,0,69478,task1,1153891,false,false,1567,image-keyboard-response,39
true,12,2,2,1,false,z,true,false,0.0-2.0-0.54-0.487-3.487,0,0,0,68,false,stim,false,0,332.90000009536743,1,0,0,69478,task1,1155731,false,false,1570,image-keyboard-response,40
true,12,1,2,1,true,z,false,true,0.0-2.0-0.54-0.488-3.488,0,0,0,90,false,stim,false,2,475.7000000476837,1,0,2,69478,task1,1157715,false,false,1573,image-keyboard-response,41
true,13,1,2,2,false,d,true,false,0.0-2.0-0.54-0.489-3.489,0,0,0,90,true,stim,false,0,622.1999999284744,1,0,1,69478,task1,1159842,false,false,1576,image-keyboard-response,1
true,13,0,2,2,false,d,true,false,0.0-2.0-0.54-0.490-3.490,0,0,0,81,false,stim,false,1,406.10000002384186,1,0,2,69478,task1,1161754,false,false,1579,image-keyboard-response,2
true,13,1,2,2,false,d,true,false,0.0-2.0-0.54-0.491-3.491,0,0,0,90,false,stim,false,0,429.5,1,0,1,69478,task1,1163691,false,false,1582,image-keyboard-response,3
true,13,1,2,2,false,d,false,false,0.0-2.0-0.54-0.492-3.492,0,0,0,90,false,stim,true,1,573.8000000715256,1,0,2,69478,task1,1165770,false,false,1585,image-keyboard-response,4
true,13,1,2,2,false,d,true,true,0.0-2.0-0.54-0.493-3.493,0,0,0,90,false,stim,false,0,599.2000000476837,1,0,1,69478,task1,1167874,false,true,1588,image-keyboard-response,5
true,13,1,2,0,false,q,false,false,0.0-2.0-0.54-0.494-3.494,0,0,0,90,false,stim,true,1,510.2000000476837,1,0,0,69478,task1,1169890,false,false,1591,image-keyboard-response,6
true,13,0,2,0,true,q,false,true,0.0-2.0-0.55-0.495-3.495,0,0,0,81,false,stim,false,1,437.7000000476837,1,0,0,69478,task1,1171836,false,false,1594,image-keyboard-response,7
true,13,0,2,2,false,d,true,true,0.0-2.0-0.55-0.496-3.496,0,0,0,81,false,stim,false,1,483.5,1,0,2,69478,task1,1173827,false,true,1597,image-keyboard-response,8
true,13,0,2,2,false,d,false,false,0.0-2.0-0.55-0.497-3.497,0,0,0,81,false,stim,true,0,510.5,1,0,1,69478,task1,1175842,false,false,1600,image-keyboard-response,9
true,13,1,2,2,false,d,true,false,0.0-2.0-0.55-0.498-3.498,0,0,0,90,false,stim,false,0,307.1999999284744,1,0,1,69478,task1,1177660,false,false,1603,image-keyboard-response,10
true,13,1,2,2,false,d,false,false,0.0-2.0-0.55-0.499-3.499,0,0,0,90,false,stim,true,1,431.40000009536743,1,0,2,69478,task1,1179602,false,false,1606,image-keyboard-response,11
true,13,2,2,2,true,d,false,true,0.0-2.0-0.55-0.500-3.500,0,0,0,68,false,stim,false,0,558.3999999761581,1,0,1,69478,task1,1181666,false,false,1609,image-keyboard-response,12
true,13,2,2,0,false,q,true,false,0.0-2.0-0.55-0.501-3.501,0,0,0,68,false,stim,false,1,557.7000000476837,1,0,0,69478,task1,1183730,false,false,1612,image-keyboard-response,13
true,13,1,2,2,false,d,false,false,0.0-2.0-0.55-0.502-3.502,0,0,0,90,false,stim,true,1,606.5,1,0,2,69478,task1,1185844,false,false,1615,image-keyboard-response,14
true,13,2,2,0,false,q,true,false,0.0-2.0-0.55-0.503-3.503,0,0,0,68,false,stim,false,1,522.3999999761581,1,0,0,69478,task1,1187875,false,false,1618,image-keyboard-response,15
true,13,2,2,0,false,q,true,false,0.0-2.0-0.56-0.504-3.504,0,0,0,68,false,stim,false,1,411.0,1,0,0,69478,task1,1189794,false,false,1621,image-keyboard-response,16
true,13,2,2,2,true,d,false,true,0.0-2.0-0.56-0.505-3.505,0,0,0,68,false,stim,false,1,510.89999997615814,1,0,2,69478,task1,1191810,false,false,1624,image-keyboard-response,17
true,13,2,2,2,true,d,false,true,0.0-2.0-0.56-0.506-3.506,0,0,0,68,false,stim,false,1,444.7000000476837,1,0,2,69478,task1,1193762,false,false,1627,image-keyboard-response,18
true,13,2,2,2,true,d,false,true,0.0-2.0-0.56-0.507-3.507,0,0,0,68,false,stim,false,0,318.8000000715256,1,0,1,69478,task1,1195587,false,false,1630,image-keyboard-response,19
true,13,2,2,2,true,d,false,true,0.0-2.0-0.56-0.508-3.508,0,0,0,68,false,stim,false,0,361.89999997615814,1,0,1,69478,task1,1197458,false,false,1633,image-keyboard-response,20
true,13,0,2,0,true,q,false,false,0.0-2.0-0.56-0.509-3.509,0,0,0,81,false,stim,false,1,375.89999997615814,1,0,0,69478,task1,1199339,false,true,1636,image-keyboard-response,21
true,13,2,2,2,true,d,false,true,0.0-2.0-0.56-0.510-3.510,0,0,0,68,false,stim,false,0,589.1000000238419,1,0,1,69478,task1,1201435,false,false,1639,image-keyboard-response,22
true,13,2,2,2,true,d,false,false,0.0-2.0-0.56-0.511-3.511,0,0,0,68,false,stim,false,1,452.3000000715256,1,0,2,69478,task1,1203394,false,true,1642,image-keyboard-response,23
true,13,1,2,0,false,q,false,true,0.0-2.0-0.56-0.512-3.512,0,0,0,90,false,stim,true,1,527.5,1,0,0,69478,task1,1205427,false,true,1645,image-keyboard-response,24
true,13,1,2,2,false,d,true,false,0.0-2.0-0.57-0.513-3.513,0,0,0,90,false,stim,false,0,901.8000000715256,1,0,1,69478,task1,1207835,false,false,1648,image-keyboard-response,25
true,13,1,2,2,false,d,true,false,0.0-2.0-0.57-0.514-3.514,0,0,0,90,false,stim,false,0,505.2000000476837,1,0,1,69478,task1,1209844,false,false,1651,image-keyboard-response,26
true,13,0,2,0,true,q,false,false,0.0-2.0-0.57-0.515-3.515,0,0,0,81,false,stim,false,1,393.7999999523163,1,0,0,69478,task1,1211746,false,true,1654,image-keyboard-response,27
true,13,1,2,0,false,q,false,false,0.0-2.0-0.57-0.516-3.516,0,0,0,90,false,stim,true,1,443.60000002384186,1,0,0,69478,task1,1213699,false,false,1657,image-keyboard-response,28
true,13,2,2,2,true,d,false,true,0.0-2.0-0.57-0.517-3.517,0,0,0,68,false,stim,false,1,294.1999999284744,1,0,2,69478,task1,1215499,false,false,1660,image-keyboard-response,29
true,13,0,2,2,false,d,false,false,0.0-2.0-0.57-0.518-3.518,0,0,0,81,false,stim,true,0,433.39999997615814,1,0,1,69478,task1,1217442,false,false,1663,image-keyboard-response,30
true,13,1,2,0,false,q,false,false,0.0-2.0-0.57-0.519-3.519,0,0,0,90,false,stim,true,1,285.39999997615814,1,0,0,69478,task1,1219234,false,false,1666,image-keyboard-response,31
true,13,2,2,2,true,d,false,true,0.0-2.0-0.57-0.520-3.520,0,0,0,68,false,stim,false,1,182.20000004768372,1,0,2,69478,task1,1220923,false,false,1669,image-keyboard-response,32
true,13,2,2,2,true,d,false,true,0.0-2.0-0.57-0.521-3.521,0,0,0,68,false,stim,false,1,348.6999999284744,1,0,2,69478,task1,1222779,false,false,1672,image-keyboard-response,33
true,13,1,2,0,false,q,false,false,0.0-2.0-0.58-0.522-3.522,0,0,0,90,false,stim,true,1,498.3000000715256,1,0,0,69478,task1,1224787,false,false,1675,image-keyboard-response,34
true,13,0,2,2,false,d,true,true,0.0-2.0-0.58-0.523-3.523,0,0,0,81,false,stim,false,1,357.7999999523163,1,0,2,69478,task1,1226651,false,true,1678,image-keyboard-response,35
true,13,2,2,2,true,d,false,false,0.0-2.0-0.58-0.524-3.524,0,0,0,68,false,stim,false,0,635.5,1,0,1,69478,task1,1228796,false,true,1681,image-keyboard-response,36
true,13,1,2,0,false,q,false,false,0.0-2.0-0.58-0.525-3.525,0,0,0,90,false,stim,true,1,737.6000000238419,1,0,0,69478,task1,1231043,false,false,1684,image-keyboard-response,37
true,13,0,2,0,true,q,false,true,0.0-2.0-0.58-0.526-3.526,0,0,0,81,false,stim,false,1,893.2999999523163,1,0,0,69478,task1,1233443,false,false,1687,image-keyboard-response,38
true,13,0,2,2,false,d,true,false,0.0-2.0-0.58-0.527-3.527,0,0,0,81,false,stim,false,1,385.60000002384186,1,0,2,69478,task1,1235338,false,false,1690,image-keyboard-response,39
true,13,0,2,2,false,d,false,false,0.0-2.0-0.58-0.528-3.528,0,0,0,81,false,stim,true,0,351.39999997615814,1,0,1,69478,task1,1237194,false,false,1693,image-keyboard-response,40
true,13,1,2,2,false,d,true,false,0.0-2.0-0.58-0.529-3.529,0,0,0,90,false,stim,false,0,534.3999999761581,1,1,1,69478,task1,1239234,false,false,1696,image-keyboard-response,41
true,13,2,2,2,true,d,false,false,0.0-2.0-0.58-0.530-3.530,0,0,0,68,false,stim,false,1,383.60000002384186,1,1,2,69478,task1,1241122,false,true,1699,image-keyboard-response,42
true,13,1,2,0,false,q,false,false,0.0-2.0-0.59-0.531-3.531,0,0,0,90,false,stim,true,1,964.9000000953674,1,1,0,69478,task1,1243611,false,false,1702,image-keyboard-response,43
true,13,1,2,0,false,q,false,false,0.0-2.0-0.59-0.532-3.532,0,0,0,90,false,stim,true,1,204.80000007152557,1,1,0,69478,task1,1245322,false,false,1705,image-keyboard-response,44
true,13,0,2,2,false,d,true,false,0.0-2.0-0.59-0.533-3.533,0,0,0,81,false,stim,false,1,387.7000000476837,1,1,2,69478,task1,1247219,false,false,1708,image-keyboard-response,45
true,14,1,0,0,false,q,true,false,0.0-2.0-0.59-0.534-3.534,1,1,1,90,true,stim,false,0,1645.8999999761581,1,1,0,69478,task1,1316914,false,false,1778,image-keyboard-response,1
true,14,1,0,2,false,d,true,false,0.0-2.0-0.59-0.535-3.535,1,1,1,90,false,stim,false,2,398.7000000476837,1,1,2,69478,task1,1318818,false,false,1781,image-keyboard-response,2
true,14,2,0,2,true,d,false,true,0.0-2.0-0.59-0.536-3.536,1,1,1,68,false,stim,false,2,679.2999999523163,1,1,2,69478,task1,1321003,false,false,1784,image-keyboard-response,3
true,14,1,0,2,false,d,true,false,0.0-2.0-0.59-0.537-3.537,1,1,1,90,false,stim,false,2,461.10000002384186,1,1,1,69478,task1,1322970,false,false,1787,image-keyboard-response,4
true,14,2,0,2,true,d,false,true,0.0-2.0-0.59-0.538-3.538,1,1,1,68,false,stim,false,2,542.2000000476837,1,1,1,69478,task1,1325018,false,false,1790,image-keyboard-response,5
true,14,2,0,2,true,d,false,true,0.0-2.0-0.59-0.539-3.539,1,1,1,68,false,stim,false,2,366.7000000476837,1,1,1,69478,task1,1326893,false,false,1793,image-keyboard-response,6
true,14,2,0,2,true,d,false,true,0.0-2.0-0.60-0.540-3.540,1,1,1,68,false,stim,false,2,268.10000002384186,1,1,1,69478,task1,1328670,false,false,1796,image-keyboard-response,7
true,14,2,0,2,true,d,false,true,0.0-2.0-0.60-0.541-3.541,1,1,1,68,false,stim,false,2,306.89999997615814,1,1,1,69478,task1,1330485,false,false,1799,image-keyboard-response,8
true,14,1,0,0,false,q,true,false,0.0-2.0-0.60-0.542-3.542,1,1,1,90,false,stim,false,0,450.5,1,0,0,69478,task1,1332453,false,false,1802,image-keyboard-response,9
true,14,1,0,2,false,d,true,false,0.0-2.0-0.60-0.543-3.543,1,1,1,90,false,stim,false,2,678.0,1,0,2,69478,task1,1334637,false,false,1805,image-keyboard-response,10
true,14,0,0,0,true,q,false,true,0.0-2.0-0.60-0.544-3.544,1,1,1,81,false,stim,false,0,462.5,1,0,0,69478,task1,1336605,false,false,1808,image-keyboard-response,11
true,14,0,0,0,true,q,false,true,0.0-2.0-0.60-0.545-3.545,1,1,1,81,false,stim,false,0,342.09999990463257,1,0,0,69478,task1,1338453,false,false,1811,image-keyboard-response,12
true,14,2,0,2,true,d,false,true,0.0-2.0-0.60-0.546-3.546,1,1,1,68,false,stim,false,2,415.2000000476837,1,0,1,69478,task1,1340373,false,false,1814,image-keyboard-response,13
true,15,1,1,0,false,q,true,false,0.0-2.0-0.60-0.547-3.547,0,0,0,90,true,stim,false,2,676.6000000238419,1,0,2,69478,task1,1342556,false,false,1817,image-keyboard-response,1
true,15,0,1,0,true,q,false,false,0.0-2.0-0.60-0.548-3.548,0,0,0,81,false,stim,false,2,572.4000000953674,1,0,2,69478,task1,1344636,false,true,1820,image-keyboard-response,2
true,15,2,1,0,false,q,false,false,0.0-2.0-0.61-0.549-3.549,0,0,0,68,false,stim,true,2,637.1000000238419,1,0,1,69478,task1,1346781,false,false,1823,image-keyboard-response,3
true,15,2,1,0,false,q,false,false,0.0-2.0-0.61-0.550-3.550,0,0,0,68,false,stim,true,2,1232.5,1,0,2,69478,task1,1349518,false,false,1826,image-keyboard-response,4
true,15,1,1,0,false,q,true,false,0.0-2.0-0.61-0.551-3.551,0,0,0,90,false,stim,false,2,810.0,1,0,2,69478,task1,1351837,false,false,1829,image-keyboard-response,5
true,15,0,1,2,false,d,false,false,0.0-2.0-0.61-0.552-3.552,0,0,0,81,false,stim,true,0,711.2999999523163,1,0,0,69478,task1,1354052,false,false,1832,image-keyboard-response,6
true,15,0,1,0,true,q,false,false,0.0-2.0-0.61-0.553-3.553,0,0,0,81,false,stim,false,2,377.1999999284744,1,0,1,69478,task1,1355934,false,true,1835,image-keyboard-response,7
true,15,1,1,0,false,q,true,false,0.0-2.0-0.61-0.554-3.554,0,0,0,90,false,stim,false,2,373.39999997615814,1,0,2,69478,task1,1357813,false,false,1838,image-keyboard-response,8
true,15,1,1,2,false,d,true,false,0.0-2.0-0.61-0.555-3.555,0,0,0,90,false,stim,false,0,418.2999999523163,1,0,0,69478,task1,1359741,false,false,1841,image-keyboard-response,9
true,15,1,1,0,false,q,true,false,0.0-2.0-0.61-0.556-3.556,0,0,0,90,false,stim,false,2,269.6999999284744,1,0,1,69478,task1,1361518,false,false,1844,image-keyboard-response,10
true,15,2,1,2,true,d,false,true,0.0-2.0-0.61-0.557-3.557,0,0,0,68,false,stim,false,0,376.39999997615814,1,0,0,69478,task1,1363405,false,false,1847,image-keyboard-response,11
true,15,2,1,0,false,q,false,false,0.0-2.0-0.62-0.558-3.558,0,0,0,68,false,stim,true,2,183.70000004768372,1,0,1,69478,task1,1365100,false,false,1850,image-keyboard-response,12
true,15,1,1,0,false,q,true,false,0.0-2.0-0.62-0.559-3.559,0,0,0,90,false,stim,false,2,191.30000007152557,1,0,1,69478,task1,1366796,false,false,1853,image-keyboard-response,13
true,15,0,1,0,true,q,false,true,0.0-2.0-0.62-0.560-3.560,0,0,0,81,false,stim,false,2,271.1999999284744,1,0,2,69478,task1,1368573,false,false,1856,image-keyboard-response,14
true,15,0,1,0,true,q,false,true,0.0-2.0-0.62-0.561-3.561,0,0,0,81,false,stim,false,2,300.3000000715256,1,0,2,69478,task1,1370381,false,false,1859,image-keyboard-response,15
true,15,0,1,2,false,d,false,false,0.0-2.0-0.62-0.562-3.562,0,0,0,81,false,stim,true,0,380.89999997615814,1,0,0,69478,task1,1372268,false,false,1862,image-keyboard-response,16
true,15,0,1,2,false,d,false,false,0.0-2.0-0.62-0.563-3.563,0,0,0,81,false,stim,true,0,389.89999997615814,1,0,0,69478,task1,1374164,false,false,1865,image-keyboard-response,17
true,15,1,1,0,false,q,true,false,0.0-2.0-0.62-0.564-3.564,0,0,0,90,false,stim,false,2,176.60000002384186,1,0,1,69478,task1,1375844,false,false,1868,image-keyboard-response,18
true,15,1,1,2,false,d,true,false,0.0-2.0-0.62-0.565-3.565,0,0,0,90,false,stim,false,0,87.0,1,0,0,69478,task1,1377437,false,false,1871,image-keyboard-response,19
true,15,1,1,0,false,q,true,false,0.0-2.0-0.62-0.566-3.566,0,0,0,90,false,stim,false,2,301.60000002384186,1,0,2,69478,task1,1379245,false,false,1874,image-keyboard-response,20
true,15,1,1,0,false,q,true,false,0.0-2.0-0.63-0.567-3.567,0,0,0,90,false,stim,false,2,237.90000009536743,1,0,1,69478,task1,1380988,false,false,1877,image-keyboard-response,21
true,15,0,1,2,false,d,false,false,0.0-2.0-0.63-0.568-3.568,0,0,0,81,false,stim,true,0,47.0,1,0,0,69478,task1,1382540,false,false,1880,image-keyboard-response,22
true,15,2,1,0,false,q,false,false,0.0-2.0-0.63-0.569-3.569,0,0,0,68,false,stim,true,2,301.90000009536743,1,0,2,69478,task1,1384348,false,false,1883,image-keyboard-response,23
true,15,1,1,2,false,d,true,false,0.0-2.0-0.63-0.570-3.570,0,0,0,90,false,stim,false,0,431.0,1,0,0,69478,task1,1386284,false,false,1886,image-keyboard-response,24
true,15,2,1,0,false,q,false,false,0.0-2.0-0.63-0.571-3.571,0,0,0,68,false,stim,true,2,158.40000009536743,1,0,1,69478,task1,1387952,false,false,1889,image-keyboard-response,25
true,15,2,1,0,false,q,false,false,0.0-2.0-0.63-0.572-3.572,0,0,0,68,false,stim,true,2,244.80000007152557,1,0,2,69478,task1,1389705,false,false,1892,image-keyboard-response,26
true,15,0,1,2,false,d,false,false,0.0-2.0-0.63-0.573-3.573,0,0,0,81,false,stim,true,0,537.2000000476837,1,0,0,69478,task1,1391751,false,false,1895,image-keyboard-response,27
true,15,1,1,0,false,q,true,false,0.0-2.0-0.63-0.574-3.574,0,0,0,90,false,stim,false,2,380.7000000476837,1,0,1,69478,task1,1393640,false,false,1898,image-keyboard-response,28
true,15,1,1,0,false,q,true,false,0.0-2.0-0.63-0.575-3.575,0,0,0,90,false,stim,false,2,249.10000002384186,1,0,2,69478,task1,1395407,false,false,1901,image-keyboard-response,29
true,15,2,1,0,false,q,false,false,0.0-2.0-0.64-0.576-3.576,0,0,0,68,false,stim,true,2,248.30000007152557,1,0,1,69478,task1,1397160,false,false,1904,image-keyboard-response,30
true,15,2,1,0,false,q,false,false,0.0-2.0-0.64-0.577-3.577,0,0,0,68,false,stim,true,2,225.80000007152557,1,0,1,69478,task1,1398895,false,false,1907,image-keyboard-response,31
true,15,1,1,2,false,d,true,false,0.0-2.0-0.64-0.578-3.578,0,0,0,90,false,stim,false,0,448.40000009536743,1,0,0,69478,task1,1400849,false,false,1910,image-keyboard-response,32
true,15,1,1,2,false,d,true,false,0.0-2.0-0.64-0.579-3.579,0,0,0,90,false,stim,false,0,338.2999999523163,1,0,0,69478,task1,1402695,false,false,1913,image-keyboard-response,33
true,15,0,1,0,true,q,false,true,0.0-2.0-0.64-0.580-3.580,0,0,0,81,false,stim,false,2,909.1999999284744,1,0,1,69478,task1,1405111,false,false,1916,image-keyboard-response,34
true,15,2,1,0,false,q,false,false,0.0-2.0-0.64-0.581-3.581,0,0,0,68,false,stim,true,2,704.0,1,0,2,69478,task1,1407319,false,false,1919,image-keyboard-response,35
true,15,0,1,2,false,d,false,false,0.0-2.0-0.64-0.582-3.582,0,0,0,81,false,stim,true,0,1150.5999999046326,1,0,0,69478,task1,1409976,false,false,1922,image-keyboard-response,36
true,15,1,1,0,false,q,true,false,0.0-2.0-0.64-0.583-3.583,0,0,0,90,false,stim,false,2,349.5,1,0,2,69478,task1,1411831,false,false,1925,image-keyboard-response,37
true,15,0,1,0,true,q,false,true,0.0-2.0-0.64-0.584-3.584,0,0,0,81,false,stim,false,2,638.1000000238419,1,0,2,69478,task1,1413975,false,false,1928,image-keyboard-response,38
true,15,0,1,0,true,q,false,false,0.0-2.0-0.65-0.585-3.585,0,0,0,81,false,stim,false,2,350.40000009536743,1,0,2,69478,task1,1415832,false,true,1931,image-keyboard-response,39
true,15,1,1,2,false,d,true,false,0.0-2.0-0.65-0.586-3.586,0,0,0,90,false,stim,false,0,316.3000000715256,1,0,0,69478,task1,1417655,false,false,1934,image-keyboard-response,40
true,15,1,1,0,false,q,true,false,0.0-2.0-0.65-0.587-3.587,0,0,0,90,false,stim,false,2,263.6999999284744,1,0,2,69478,task1,1419423,false,false,1937,image-keyboard-response,41
true,15,2,1,0,false,q,false,true,0.0-2.0-0.65-0.588-3.588,0,0,0,68,false,stim,true,2,414.6999999284744,1,0,1,69478,task1,1421343,false,true,1940,image-keyboard-response,42
true,15,2,1,2,true,d,false,true,0.0-2.0-0.65-0.589-3.589,0,0,0,68,false,stim,false,0,711.2000000476837,1,0,0,69478,task1,1423559,false,false,1943,image-keyboard-response,43
