answered,blockNum,choice,condition,corResp,correct,correct_response,explo,fb,internal_node_id,isStable_1,isStable_2,isStable_3,key_press,newBlock,part,persev,persevResp,rt,sessNum,stableAS,stimulus,subject,task,time_elapsed,training,trap,trial_index,trial_type,trialsInBlock
true,1,1,0,2,false,d,true,true,0.0-2.0-0.0-0.0-3.0,0,0,0,90,true,stim,false,-1,1232.8999999761581,0,0,2,69478,task3,140726,false,true,106,image-keyboard-response,1
true,1,1,0,2,false,d,true,false,0.0-2.0-0.0-0.1-3.1,0,0,0,90,false,stim,false,-1,621.0999999642372,0,0,2,69478,task3,142854,false,false,109,image-keyboard-response,2
true,1,0,0,2,false,d,true,false,0.0-2.0-0.0-0.2-3.2,0,0,0,81,false,stim,false,-1,622.0,0,0,2,69478,task3,144982,false,false,112,image-keyboard-response,3
true,1,0,0,2,false,d,true,false,0.0-2.0-0.0-0.3-3.3,0,0,0,81,false,stim,false,-1,1127.300000011921,0,0,1,69478,task3,147615,false,false,115,image-keyboard-response,4
true,1,1,0,2,false,d,true,false,0.0-2.0-0.0-0.4-3.4,0,0,0,90,false,stim,false,-1,557.6999999880791,0,0,1,69478,task3,149678,false,false,118,image-keyboard-response,5
true,1,0,0,1,false,z,true,true,0.0-2.0-0.0-0.5-3.5,0,0,0,81,false,stim,false,-1,1166.8999999761581,0,0,0,69478,task3,152350,false,true,121,image-keyboard-response,6
true,1,0,0,1,false,z,true,false,0.0-2.0-0.0-0.6-3.6,0,0,0,81,false,stim,false,-1,702.6999999880791,0,0,0,69478,task3,154558,false,false,124,image-keyboard-response,7
true,1,2,0,1,false,z,true,false,0.0-2.0-0.0-0.7-3.7,0,0,0,68,false,stim,false,-1,1134.0,0,0,0,69478,task3,157198,false,false,127,image-keyboard-response,8
true,1,1,0,2,false,d,true,false,0.0-2.0-0.0-0.8-3.8,0,0,0,90,false,stim,false,-1,1959.8999999761581,0,0,1,69478,task3,160663,false,false,130,image-keyboard-response,9
true,1,0,0,1,false,z,true,false,0.0-2.0-0.1-0.9-3.9,0,0,0,81,false,stim,false,-1,1570.800000011921,0,0,0,69478,task3,163742,false,false,133,image-keyboard-response,10
true,1,1,0,2,false,d,true,false,0.0-2.0-0.1-0.10-3.10,0,0,0,90,false,stim,false,-1,790.0999999642372,0,0,1,69478,task3,166038,false,false,136,image-keyboard-response,11
true,1,2,0,2,true,d,false,true,0.0-2.0-0.1-0.11-3.11,0,0,0,68,false,stim,false,-1,1357.5,0,0,2,69478,task3,168902,false,false,139,image-keyboard-response,12
true,1,2,0,1,false,z,true,false,0.0-2.0-0.1-0.12-3.12,0,0,0,68,false,stim,false,-1,991.3999999761581,0,0,0,69478,task3,171399,false,false,142,image-keyboard-response,13
true,1,2,0,2,true,d,false,true,0.0-2.0-0.1-0.13-3.13,0,0,0,68,false,stim,false,-1,765.1999999880791,0,0,2,69478,task3,173670,false,false,145,image-keyboard-response,14
true,1,1,0,2,false,d,true,false,0.0-2.0-0.1-0.14-3.14,0,0,0,90,false,stim,false,-1,650.1999999880791,0,0,2,69478,task3,175830,false,false,148,image-keyboard-response,15
true,1,1,0,2,false,d,true,false,0.0-2.0-0.1-0.15-3.15,0,0,0,90,false,stim,false,-1,1277.6000000238419,0,0,1,69478,task3,178614,false,false,151,image-keyboard-response,16
true,1,1,0,1,true,z,false,true,0.0-2.0-0.1-0.16-3.16,0,0,0,90,false,stim,false,-1,1942.0,0,0,0,69478,task3,182063,false,false,154,image-keyboard-response,17
true,1,0,0,2,false,d,true,false,0.0-2.0-0.1-0.17-3.17,0,0,0,81,false,stim,false,-1,1708.7000000476837,0,0,1,69478,task3,185278,false,false,157,image-keyboard-response,18
true,1,1,0,1,true,z,false,true,0.0-2.0-0.2-0.18-3.18,0,0,0,90,false,stim,false,-1,1421.6000000238419,0,0,0,69478,task3,188206,false,false,160,image-keyboard-response,19
true,1,1,0,2,false,d,true,false,0.0-2.0-0.2-0.19-3.19,0,0,0,90,false,stim,false,-1,564.5,0,0,1,69478,task3,190278,false,false,163,image-keyboard-response,20
true,1,1,0,1,true,z,false,true,0.0-2.0-0.2-0.20-3.20,0,0,0,90,false,stim,false,-1,1518.7000000476837,0,0,0,69478,task3,193303,false,false,166,image-keyboard-response,21
true,1,1,0,2,false,d,true,false,0.0-2.0-0.2-0.21-3.21,0,0,0,90,false,stim,false,-1,1573.3999999761581,0,0,2,69478,task3,196382,false,false,169,image-keyboard-response,22
true,1,1,0,1,true,z,false,true,0.0-2.0-0.2-0.22-3.22,0,0,0,90,false,stim,false,-1,997.1999999880791,0,0,0,69478,task3,198886,false,false,172,image-keyboard-response,23
true,1,2,0,2,true,d,false,true,0.0-2.0-0.2-0.23-3.23,0,0,0,68,false,stim,false,-1,1365.6000000238419,0,0,1,69478,task3,201758,false,false,175,image-keyboard-response,24
true,1,2,0,2,true,d,false,true,0.0-2.0-0.2-0.24-3.24,0,0,0,68,false,stim,false,-1,547.4000000357628,0,1,2,69478,task3,203813,false,false,178,image-keyboard-response,25
true,1,2,0,2,true,d,false,true,0.0-2.0-0.2-0.25-3.25,0,0,0,68,false,stim,false,-1,607.7000000476837,0,1,2,69478,task3,205926,false,false,181,image-keyboard-response,26
true,1,2,0,2,true,d,false,true,0.0-2.0-0.2-0.26-3.26,0,0,0,68,false,stim,false,-1,645.8000000119209,0,0,1,69478,task3,208078,false,false,184,image-keyboard-response,27
true,1,1,0,1,true,z,false,true,0.0-2.0-0.3-0.27-3.27,0,0,0,90,false,stim,false,-1,463.0,0,1,0,69478,task3,210046,false,false,187,image-keyboard-response,28
true,2,2,2,1,false,z,false,false,0.0-2.0-0.3-0.28-3.28,1,0,1,68,true,stim,true,2,862.1999999880791,0,0,1,69478,task3,212414,false,false,190,image-keyboard-response,1
true,2,2,2,2,true,d,false,true,0.0-2.0-0.3-0.29-3.29,1,0,1,68,false,stim,false,2,1205.5999999642372,0,1,2,69478,task3,215126,false,false,193,image-keyboard-response,2
true,2,1,2,1,true,z,false,true,0.0-2.0-0.3-0.30-3.30,1,0,1,90,false,stim,false,2,461.0,0,0,1,69478,task3,217094,false,false,196,image-keyboard-response,3
true,2,2,2,1,false,z,true,false,0.0-2.0-0.3-0.31-3.31,1,0,1,68,false,stim,false,1,652.5,0,1,0,69478,task3,219254,false,false,199,image-keyboard-response,4
true,2,1,2,1,true,z,false,true,0.0-2.0-0.3-0.32-3.32,1,0,1,90,false,stim,false,2,1532.3999999761581,0,0,1,69478,task3,222294,false,false,202,image-keyboard-response,5
true,2,0,2,1,false,z,true,false,0.0-2.0-0.3-0.33-3.33,1,0,1,81,false,stim,false,1,525.6999999880791,0,1,0,69478,task3,224326,false,false,205,image-keyboard-response,6
true,2,2,2,2,true,d,false,true,0.0-2.0-0.3-0.34-3.34,1,0,1,68,false,stim,false,2,1182.0999999642372,0,1,2,69478,task3,227014,false,false,208,image-keyboard-response,7
true,2,2,2,2,true,d,false,true,0.0-2.0-0.3-0.35-3.35,1,0,1,68,false,stim,false,2,429.69999998807907,0,1,2,69478,task3,228950,false,false,211,image-keyboard-response,8
true,2,2,2,2,true,d,false,true,0.0-2.0-0.4-0.36-3.36,1,0,1,68,false,stim,false,2,397.89999997615814,0,1,2,69478,task3,230854,false,false,214,image-keyboard-response,9
true,2,1,2,1,true,z,false,true,0.0-2.0-0.4-0.37-3.37,1,0,1,90,false,stim,false,1,638.6000000238419,0,0,0,69478,task3,232998,false,false,217,image-keyboard-response,10
true,2,1,2,1,true,z,false,true,0.0-2.0-0.4-0.38-3.38,1,0,1,90,false,stim,false,2,517.6999999880791,0,1,1,69478,task3,235022,false,false,220,image-keyboard-response,11
true,2,1,2,1,true,z,false,false,0.0-2.0-0.4-0.39-3.39,1,0,1,90,false,stim,false,2,396.5999999642372,0,1,1,69478,task3,236925,false,true,223,image-keyboard-response,12
true,3,2,2,1,false,z,true,true,0.0-2.0-0.4-0.40-3.40,0,1,1,68,true,stim,false,1,541.5999999642372,0,1,1,69478,task3,238974,false,true,226,image-keyboard-response,1
true,3,2,2,0,false,q,true,false,0.0-2.0-0.4-0.41-3.41,0,1,1,68,false,stim,false,1,301.5,0,0,0,69478,task3,240781,false,false,229,image-keyboard-response,2
true,3,1,2,0,false,q,false,false,0.0-2.0-0.4-0.42-3.42,0,1,1,90,false,stim,true,1,387.89999997615814,0,0,0,69478,task3,242677,false,false,232,image-keyboard-response,3
true,3,2,2,2,true,d,false,true,0.0-2.0-0.4-0.43-3.43,0,1,1,68,false,stim,false,2,1927.6000000238419,0,1,2,69478,task3,246109,false,false,235,image-keyboard-response,4
true,3,2,2,2,true,d,false,true,0.0-2.0-0.4-0.44-3.44,0,1,1,68,false,stim,false,2,410.4000000357628,0,1,2,69478,task3,248029,false,false,238,image-keyboard-response,5
true,3,2,2,0,false,q,true,false,0.0-2.0-0.5-0.45-3.45,0,1,1,68,false,stim,false,1,350.30000001192093,0,0,0,69478,task3,249886,false,false,241,image-keyboard-response,6
true,3,1,2,1,true,z,false,true,0.0-2.0-0.5-0.46-3.46,0,1,1,90,false,stim,false,1,405.39999997615814,0,1,1,69478,task3,251797,false,false,244,image-keyboard-response,7
true,3,1,2,2,false,d,true,false,0.0-2.0-0.5-0.47-3.47,0,1,1,90,false,stim,false,2,614.5,0,1,2,69478,task3,253917,false,false,247,image-keyboard-response,8
true,3,2,2,2,true,d,false,true,0.0-2.0-0.5-0.48-3.48,0,1,1,68,false,stim,false,2,669.8000000119209,0,1,2,69478,task3,256093,false,false,250,image-keyboard-response,9
true,3,1,2,0,false,q,false,true,0.0-2.0-0.5-0.49-3.49,0,1,1,90,false,stim,true,1,718.5999999642372,0,0,0,69478,task3,258317,false,true,253,image-keyboard-response,10
true,3,2,2,2,true,d,false,true,0.0-2.0-0.5-0.50-3.50,0,1,1,68,false,stim,false,2,614.2000000476837,0,1,2,69478,task3,260438,false,false,256,image-keyboard-response,11
true,3,1,2,0,false,q,false,false,0.0-2.0-0.5-0.51-3.51,0,1,1,90,false,stim,true,1,444.0999999642372,0,0,0,69478,task3,262389,false,false,259,image-keyboard-response,12
true,3,1,2,1,true,z,false,true,0.0-2.0-0.5-0.52-3.52,0,1,1,90,false,stim,false,1,1021.3000000119209,0,1,1,69478,task3,264917,false,false,262,image-keyboard-response,13
true,3,1,2,1,true,z,false,false,0.0-2.0-0.5-0.53-3.53,0,1,1,90,false,stim,false,1,422.10000002384186,0,1,1,69478,task3,266845,false,true,265,image-keyboard-response,14
true,3,0,2,1,false,z,true,false,0.0-2.0-0.6-0.54-3.54,0,1,1,81,false,stim,false,1,773.6000000238419,0,1,1,69478,task3,269125,false,false,268,image-keyboard-response,15
true,3,2,2,2,true,d,false,true,0.0-2.0-0.6-0.55-3.55,0,1,1,68,false,stim,false,2,447.0999999642372,0,1,2,69478,task3,271078,false,false,271,image-keyboard-response,16
true,3,2,2,1,false,z,true,false,0.0-2.0-0.6-0.56-3.56,0,1,1,68,false,stim,false,1,421.0999999642372,0,1,1,69478,task3,273005,false,false,274,image-keyboard-response,17
true,3,2,2,2,true,d,false,false,0.0-2.0-0.6-0.57-3.57,0,1,1,68,false,stim,false,2,550.1999999880791,0,1,2,69478,task3,275061,false,true,277,image-keyboard-response,18
true,3,1,2,1,true,z,false,false,0.0-2.0-0.6-0.58-3.58,0,1,1,90,false,stim,false,1,534.6000000238419,0,1,1,69478,task3,277101,false,true,280,image-keyboard-response,19
true,3,0,2,0,true,q,false,true,0.0-2.0-0.6-0.59-3.59,0,1,1,81,false,stim,false,1,324.60000002384186,0,0,0,69478,task3,278933,false,false,283,image-keyboard-response,20
true,3,0,2,0,true,q,false,true,0.0-2.0-0.6-0.60-3.60,0,1,1,81,false,stim,false,1,694.2000000476837,0,0,0,69478,task3,281134,false,false,286,image-keyboard-response,21
true,3,0,2,2,false,d,true,false,0.0-2.0-0.6-0.61-3.61,0,1,1,81,false,stim,false,2,1020.8000000119209,0,0,2,69478,task3,283661,false,false,289,image-keyboard-response,22
true,3,0,2,0,true,q,false,true,0.0-2.0-0.6-0.62-3.62,0,1,1,81,false,stim,false,1,1196.199999988079,0,0,0,69478,task3,286365,false,false,292,image-keyboard-response,23
true,4,0,1,2,false,d,false,false,0.0-2.0-0.7-0.63-3.63,0,1,0,81,true,stim,true,0,622.1000000238419,0,0,0,69478,task3,288493,false,false,295,image-keyboard-response,1
true,4,1,1,1,true,z,false,true,0.0-2.0-0.7-0.64-3.64,0,1,0,90,false,stim,false,2,518.7000000476837,0,0,2,69478,task3,290517,false,false,298,image-keyboard-response,2
true,4,1,1,2,false,d,true,false,0.0-2.0-0.7-0.65-3.65,0,1,0,90,false,stim,false,0,2619.2000000476837,0,0,0,69478,task3,294646,false,false,301,image-keyboard-response,3
true,4,2,1,2,true,d,false,true,0.0-2.0-0.7-0.66-3.66,0,1,0,68,false,stim,false,0,844.5,0,0,0,69478,task3,296997,false,false,304,image-keyboard-response,4
true,4,0,1,1,false,z,true,false,0.0-2.0-0.7-0.67-3.67,0,1,0,81,false,stim,false,1,685.9000000357628,0,1,1,69478,task3,299189,false,false,307,image-keyboard-response,5
true,4,1,1,1,true,z,false,true,0.0-2.0-0.7-0.68-3.68,0,1,0,90,false,stim,false,1,517.5,0,1,1,69478,task3,301213,false,false,310,image-keyboard-response,6
true,4,2,1,1,false,z,false,false,0.0-2.0-0.7-0.69-3.69,0,1,0,68,false,stim,true,2,653.7999999523163,0,0,2,69478,task3,303373,false,false,313,image-keyboard-response,7
true,4,1,1,1,true,z,false,true,0.0-2.0-0.7-0.70-3.70,0,1,0,90,false,stim,false,1,647.3999999761581,0,1,1,69478,task3,305526,false,false,316,image-keyboard-response,8
true,4,0,1,1,false,z,true,false,0.0-2.0-0.7-0.71-3.71,0,1,0,81,false,stim,false,2,869.0,0,0,2,69478,task3,307901,false,false,319,image-keyboard-response,9
true,4,1,1,2,false,d,true,false,0.0-2.0-0.8-0.72-3.72,0,1,0,90,false,stim,false,0,693.1999999880791,0,0,0,69478,task3,310101,false,false,322,image-keyboard-response,10
true,4,1,1,1,true,z,false,true,0.0-2.0-0.8-0.73-3.73,0,1,0,90,false,stim,false,1,390.2999999523163,0,1,1,69478,task3,311997,false,false,325,image-keyboard-response,11
true,4,1,1,1,true,z,false,true,0.0-2.0-0.8-0.74-3.74,0,1,0,90,false,stim,false,1,446.0,0,1,1,69478,task3,313949,false,false,328,image-keyboard-response,12
true,4,1,1,1,true,z,false,true,0.0-2.0-0.8-0.75-3.75,0,1,0,90,false,stim,false,2,1214.3999999761581,0,0,2,69478,task3,316670,false,false,331,image-keyboard-response,13
true,4,1,1,1,true,z,false,true,0.0-2.0-0.8-0.76-3.76,0,1,0,90,false,stim,false,2,372.7999999523163,0,0,2,69478,task3,318549,false,false,334,image-keyboard-response,14
true,4,1,1,1,true,z,false,true,0.0-2.0-0.8-0.77-3.77,0,1,0,90,false,stim,false,1,790.0,0,1,1,69478,task3,320845,false,false,337,image-keyboard-response,15
true,4,1,1,1,true,z,false,true,0.0-2.0-0.8-0.78-3.78,0,1,0,90,false,stim,false,2,278.0999999642372,0,0,2,69478,task3,322629,false,false,340,image-keyboard-response,16
true,4,1,1,2,false,d,true,false,0.0-2.0-0.8-0.79-3.79,0,1,0,90,false,stim,false,0,245.5999999642372,0,0,0,69478,task3,324381,false,false,343,image-keyboard-response,17
true,4,0,1,2,false,d,false,false,0.0-2.0-0.8-0.80-3.80,0,1,0,81,false,stim,true,0,575.3999999761581,0,0,0,69478,task3,326461,false,false,346,image-keyboard-response,18
true,4,2,1,2,true,d,false,true,0.0-2.0-0.9-0.81-3.81,0,1,0,68,false,stim,false,0,516.9000000357628,0,0,0,69478,task3,328486,false,false,349,image-keyboard-response,19
true,4,1,1,1,true,z,false,true,0.0-2.0-0.9-0.82-3.82,0,1,0,90,false,stim,false,1,1300.0,0,1,1,69478,task3,331292,false,false,352,image-keyboard-response,20
true,4,1,1,1,true,z,false,true,0.0-2.0-0.9-0.83-3.83,0,1,0,90,false,stim,false,1,384.5,0,1,1,69478,task3,333181,false,false,355,image-keyboard-response,21
true,4,2,1,2,true,d,false,true,0.0-2.0-0.9-0.84-3.84,0,1,0,68,false,stim,false,0,405.5,0,1,0,69478,task3,335093,false,false,358,image-keyboard-response,22
true,4,1,1,1,true,z,false,true,0.0-2.0-0.9-0.85-3.85,0,1,0,90,false,stim,false,2,534.1999999880791,0,0,2,69478,task3,337133,false,false,361,image-keyboard-response,23
true,4,1,1,2,false,d,true,false,0.0-2.0-0.9-0.86-3.86,0,1,0,90,false,stim,false,0,478.5,0,1,0,69478,task3,339117,false,false,364,image-keyboard-response,24
true,4,1,1,1,true,z,false,true,0.0-2.0-0.9-0.87-3.87,0,1,0,90,false,stim,false,2,813.1999999880791,0,0,2,69478,task3,341437,false,false,367,image-keyboard-response,25
true,4,1,1,1,true,z,false,true,0.0-2.0-0.9-0.88-3.88,0,1,0,90,false,stim,false,2,444.5,0,0,2,69478,task3,343389,false,false,370,image-keyboard-response,26
true,5,2,2,1,false,z,true,false,0.0-2.0-0.9-0.89-3.89,1,1,0,68,true,stim,false,1,692.3000000119209,0,1,1,69478,task3,345589,false,false,373,image-keyboard-response,1
true,5,1,2,1,true,z,false,true,0.0-2.0-0.10-0.90-3.90,1,1,0,90,false,stim,false,1,462.4000000357628,0,1,1,69478,task3,347557,false,false,376,image-keyboard-response,2
true,5,1,2,1,true,z,false,true,0.0-2.0-0.10-0.91-3.91,1,1,0,90,false,stim,false,1,430.89999997615814,0,1,1,69478,task3,349494,false,false,379,image-keyboard-response,3
true,5,1,2,1,true,z,false,true,0.0-2.0-0.10-0.92-3.92,1,1,0,90,false,stim,false,1,389.80000001192093,0,1,1,69478,task3,351389,false,false,382,image-keyboard-response,4
true,5,1,2,2,false,d,true,false,0.0-2.0-0.10-0.93-3.93,1,1,0,90,false,stim,false,2,884.9000000357628,0,1,0,69478,task3,353781,false,false,385,image-keyboard-response,5
true,5,2,2,2,true,d,false,true,0.0-2.0-0.10-0.94-3.94,1,1,0,68,false,stim,false,2,469.0,0,1,0,69478,task3,355757,false,false,388,image-keyboard-response,6
true,5,1,2,0,false,q,false,false,0.0-2.0-0.10-0.95-3.95,1,1,0,90,false,stim,true,1,533.5,0,0,2,69478,task3,357800,false,false,391,image-keyboard-response,7
true,5,0,2,0,true,q,false,true,0.0-2.0-0.10-0.96-3.96,1,1,0,81,false,stim,false,1,639.8000000119209,0,0,2,69478,task3,359945,false,false,394,image-keyboard-response,8
true,5,1,2,2,false,d,true,false,0.0-2.0-0.10-0.97-3.97,1,1,0,90,false,stim,false,2,1341.800000011921,0,1,0,69478,task3,362793,false,false,397,image-keyboard-response,9
true,5,1,2,0,false,q,false,false,0.0-2.0-0.10-0.98-3.98,1,1,0,90,false,stim,true,1,862.3000000119209,0,0,2,69478,task3,365162,false,false,400,image-keyboard-response,10
true,5,1,2,1,true,z,false,true,0.0-2.0-0.11-0.99-3.99,1,1,0,90,false,stim,false,1,806.8000000119209,0,1,1,69478,task3,367481,false,false,403,image-keyboard-response,11
true,5,0,2,0,true,q,false,true,0.0-2.0-0.11-0.100-3.100,1,1,0,81,false,stim,false,1,517.1000000238419,0,0,2,69478,task3,369505,false,false,406,image-keyboard-response,12
true,5,2,2,2,true,d,false,true,0.0-2.0-0.11-0.101-3.101,1,1,0,68,false,stim,false,2,1171.8999999761581,0,1,0,69478,task3,372185,false,false,409,image-keyboard-response,13
true,5,1,2,0,false,q,false,true,0.0-2.0-0.11-0.102-3.102,1,1,0,90,false,stim,true,1,1042.6000000238419,0,0,2,69478,task3,374736,false,true,412,image-keyboard-response,14
true,5,2,2,2,true,d,false,true,0.0-2.0-0.11-0.103-3.103,1,1,0,68,false,stim,false,2,2575.800000011921,0,1,0,69478,task3,378816,false,false,415,image-keyboard-response,15
true,5,2,2,2,true,d,false,true,0.0-2.0-0.11-0.104-3.104,1,1,0,68,false,stim,false,2,446.0,0,1,0,69478,task3,380769,false,false,418,image-keyboard-response,16
true,5,1,2,0,false,q,false,false,0.0-2.0-0.11-0.105-3.105,1,1,0,90,false,stim,true,1,559.6000000238419,0,0,2,69478,task3,382833,false,false,421,image-keyboard-response,17
true,5,0,2,1,false,z,true,false,0.0-2.0-0.11-0.106-3.106,1,1,0,81,false,stim,false,1,1203.800000011921,0,1,1,69478,task3,385545,false,false,424,image-keyboard-response,18
true,5,1,2,1,true,z,false,true,0.0-2.0-0.11-0.107-3.107,1,1,0,90,false,stim,false,1,1694.300000011921,0,1,1,69478,task3,388745,false,false,427,image-keyboard-response,19
true,5,1,2,1,true,z,false,true,0.0-2.0-0.12-0.108-3.108,1,1,0,90,false,stim,false,1,508.39999997615814,0,1,1,69478,task3,390761,false,false,430,image-keyboard-response,20
true,5,1,2,1,true,z,false,true,0.0-2.0-0.12-0.109-3.109,1,1,0,90,false,stim,false,1,470.30000001192093,0,1,1,69478,task3,392737,false,false,433,image-keyboard-response,21
true,5,2,2,0,false,q,true,false,0.0-2.0-0.12-0.110-3.110,1,1,0,68,false,stim,false,1,710.2000000476837,0,0,2,69478,task3,394953,false,false,436,image-keyboard-response,22
true,5,1,2,1,true,z,false,true,0.0-2.0-0.12-0.111-3.111,1,1,0,90,false,stim,false,1,565.0999999642372,0,1,1,69478,task3,397025,false,false,439,image-keyboard-response,23
true,5,2,2,2,true,d,false,true,0.0-2.0-0.12-0.112-3.112,1,1,0,68,false,stim,false,2,710.1999999880791,0,0,0,69478,task3,399241,false,false,442,image-keyboard-response,24
true,5,0,2,0,true,q,false,false,0.0-2.0-0.12-0.113-3.113,1,1,0,81,false,stim,false,1,621.6000000238419,0,0,2,69478,task3,401369,false,true,445,image-keyboard-response,25
true,5,1,2,0,false,q,false,false,0.0-2.0-0.12-0.114-3.114,1,1,0,90,false,stim,true,1,589.6999999880791,0,0,2,69478,task3,403465,false,false,448,image-keyboard-response,26
true,6,2,1,0,false,q,false,false,0.0-2.0-0.12-0.115-3.115,0,1,0,68,true,stim,true,2,367.5,0,0,0,69478,task3,405338,false,false,451,image-keyboard-response,1
true,6,2,1,0,false,q,false,false,0.0-2.0-0.12-0.116-3.116,0,1,0,68,false,stim,true,2,675.6999999880791,0,0,0,69478,task3,407520,false,false,454,image-keyboard-response,2
true,6,1,1,0,false,q,true,false,0.0-2.0-0.13-0.117-3.117,0,1,0,90,false,stim,false,2,446.2999999523163,0,0,0,69478,task3,409473,false,false,457,image-keyboard-response,3
true,6,1,1,1,true,z,false,true,0.0-2.0-0.13-0.118-3.118,0,1,0,90,false,stim,false,1,742.0,0,1,1,69478,task3,411721,false,false,460,image-keyboard-response,4
true,6,1,1,1,true,z,false,true,0.0-2.0-0.13-0.119-3.119,0,1,0,90,false,stim,false,0,555.8999999761581,0,0,2,69478,task3,413785,false,false,463,image-keyboard-response,5
true,6,1,1,1,true,z,false,true,0.0-2.0-0.13-0.120-3.120,0,1,0,90,false,stim,false,0,357.7999999523163,0,0,2,69478,task3,415649,false,false,466,image-keyboard-response,6
true,6,0,1,0,true,q,false,true,0.0-2.0-0.13-0.121-3.121,0,1,0,81,false,stim,false,2,884.6000000238419,0,0,0,69478,task3,418044,false,false,469,image-keyboard-response,7
true,6,0,1,0,true,q,false,true,0.0-2.0-0.13-0.122-3.122,0,1,0,81,false,stim,false,2,619.7999999523163,0,0,0,69478,task3,420172,false,false,472,image-keyboard-response,8
true,6,1,1,1,true,z,false,true,0.0-2.0-0.13-0.123-3.123,0,1,0,90,false,stim,false,0,613.0999999642372,0,1,2,69478,task3,422292,false,false,475,image-keyboard-response,9
true,6,1,1,1,true,z,false,true,0.0-2.0-0.13-0.124-3.124,0,1,0,90,false,stim,false,1,876.0999999642372,0,0,1,69478,task3,424675,false,false,478,image-keyboard-response,10
true,6,1,1,1,true,z,false,true,0.0-2.0-0.13-0.125-3.125,0,1,0,90,false,stim,false,1,415.39999997615814,0,0,1,69478,task3,426596,false,false,481,image-keyboard-response,11
true,6,1,1,1,true,z,false,true,0.0-2.0-0.14-0.126-3.126,0,1,0,90,false,stim,false,1,380.5,0,0,1,69478,task3,428484,false,false,484,image-keyboard-response,12
true,6,1,1,1,true,z,false,true,0.0-2.0-0.14-0.127-3.127,0,1,0,90,false,stim,false,1,372.5999999642372,0,0,1,69478,task3,430363,false,false,487,image-keyboard-response,13
true,7,0,2,0,true,q,false,true,0.0-2.0-0.14-0.128-3.128,1,0,1,81,true,stim,false,0,438.19999998807907,0,1,0,69478,task3,432308,false,false,490,image-keyboard-response,1
true,7,1,2,1,true,z,false,true,0.0-2.0-0.14-0.129-3.129,1,0,1,90,false,stim,false,1,1021.1999999880791,0,1,2,69478,task3,434836,false,false,493,image-keyboard-response,2
true,7,1,2,1,true,z,false,true,0.0-2.0-0.14-0.130-3.130,1,0,1,90,false,stim,false,1,429.30000001192093,0,1,2,69478,task3,436772,false,false,496,image-keyboard-response,3
true,7,1,2,0,false,q,true,false,0.0-2.0-0.14-0.131-3.131,1,0,1,90,false,stim,false,0,620.6000000238419,0,1,0,69478,task3,438899,false,false,499,image-keyboard-response,4
true,7,0,2,0,true,q,false,true,0.0-2.0-0.14-0.132-3.132,1,0,1,81,false,stim,false,0,382.60000002384186,0,1,0,69478,task3,440788,false,false,502,image-keyboard-response,5
true,7,1,2,2,false,d,false,false,0.0-2.0-0.14-0.133-3.133,1,0,1,90,false,stim,true,1,477.80000001192093,0,0,1,69478,task3,442772,false,false,505,image-keyboard-response,6
true,7,1,2,1,true,z,false,true,0.0-2.0-0.14-0.134-3.134,1,0,1,90,false,stim,false,1,1085.0,0,1,2,69478,task3,445364,false,false,508,image-keyboard-response,7
true,7,1,2,0,false,q,true,false,0.0-2.0-0.15-0.135-3.135,1,0,1,90,false,stim,false,0,699.5999999642372,0,0,0,69478,task3,447571,false,false,511,image-keyboard-response,8
true,7,1,2,2,false,d,false,false,0.0-2.0-0.15-0.136-3.136,1,0,1,90,false,stim,true,1,1022.5,0,1,1,69478,task3,450100,false,false,514,image-keyboard-response,9
true,7,0,2,0,true,q,false,true,0.0-2.0-0.15-0.137-3.137,1,0,1,81,false,stim,false,0,986.5999999642372,0,0,0,69478,task3,452596,false,false,517,image-keyboard-response,10
true,7,1,2,1,true,z,false,true,0.0-2.0-0.15-0.138-3.138,1,0,1,90,false,stim,false,1,798.6000000238419,0,0,2,69478,task3,454900,false,false,520,image-keyboard-response,11
true,7,0,2,0,true,q,false,true,0.0-2.0-0.15-0.139-3.139,1,0,1,81,false,stim,false,0,741.0,0,0,0,69478,task3,457148,false,false,523,image-keyboard-response,12
true,8,1,1,0,false,q,false,false,0.0-2.0-0.15-0.140-3.140,0,1,0,90,true,stim,true,1,789.1999999880791,0,0,2,69478,task3,459444,false,false,526,image-keyboard-response,1
true,8,1,1,2,false,d,true,false,0.0-2.0-0.15-0.141-3.141,0,1,0,90,false,stim,false,2,1077.0,0,1,1,69478,task3,462028,false,false,529,image-keyboard-response,2
true,8,2,1,2,true,d,false,false,0.0-2.0-0.15-0.142-3.142,0,1,0,68,false,stim,false,2,532.6000000238419,0,1,1,69478,task3,464068,false,true,532,image-keyboard-response,3
true,8,2,1,0,false,q,true,false,0.0-2.0-0.15-0.143-3.143,0,1,0,68,false,stim,false,1,589.9000000357628,0,0,2,69478,task3,466164,false,false,535,image-keyboard-response,4
true,8,0,1,2,false,d,false,false,0.0-2.0-0.16-0.144-3.144,0,1,0,81,false,stim,true,0,662.1000000238419,0,0,0,69478,task3,468332,false,false,538,image-keyboard-response,5
true,8,0,1,2,false,d,true,false,0.0-2.0-0.16-0.145-3.145,0,1,0,81,false,stim,false,2,1229.6000000238419,0,1,1,69478,task3,471068,false,false,541,image-keyboard-response,6
true,8,0,1,0,true,q,false,true,0.0-2.0-0.16-0.146-3.146,0,1,0,81,false,stim,false,1,1117.800000011921,0,0,2,69478,task3,473692,false,false,544,image-keyboard-response,7
true,8,1,1,2,false,d,true,false,0.0-2.0-0.16-0.147-3.147,0,1,0,90,false,stim,false,2,1509.5,0,1,1,69478,task3,476708,false,false,547,image-keyboard-response,8
true,8,0,1,0,true,q,false,true,0.0-2.0-0.16-0.148-3.148,0,1,0,81,false,stim,false,1,500.5999999642372,0,0,2,69478,task3,478720,false,false,550,image-keyboard-response,9
true,8,2,1,2,true,d,false,true,0.0-2.0-0.16-0.149-3.149,0,1,0,68,false,stim,false,2,1142.1000000238419,0,1,1,69478,task3,481369,false,false,553,image-keyboard-response,10
true,8,1,1,2,false,d,true,false,0.0-2.0-0.16-0.150-3.150,0,1,0,90,false,stim,false,0,677.8000000119209,0,0,0,69478,task3,483552,false,false,556,image-keyboard-response,11
true,8,2,1,2,true,d,false,false,0.0-2.0-0.16-0.151-3.151,0,1,0,68,false,stim,false,0,878.3000000119209,0,0,0,69478,task3,485936,false,true,559,image-keyboard-response,12
true,8,2,1,0,false,q,true,false,0.0-2.0-0.16-0.152-3.152,0,1,0,68,false,stim,false,1,1275.6000000238419,0,0,2,69478,task3,488720,false,false,562,image-keyboard-response,13
true,8,0,1,0,true,q,false,true,0.0-2.0-0.17-0.153-3.153,0,1,0,81,false,stim,false,1,509.39999997615814,0,0,2,69478,task3,490736,false,false,565,image-keyboard-response,14
true,8,2,1,2,true,d,false,true,0.0-2.0-0.17-0.154-3.154,0,1,0,68,false,stim,false,2,1060.5,0,1,1,69478,task3,493304,false,false,568,image-keyboard-response,15
true,8,1,1,2,false,d,true,false,0.0-2.0-0.17-0.155-3.155,0,1,0,90,false,stim,false,0,717.3999999761581,0,0,0,69478,task3,495528,false,false,571,image-keyboard-response,16
true,8,2,1,2,true,d,false,true,0.0-2.0-0.17-0.156-3.156,0,1,0,68,false,stim,false,2,1076.6000000238419,0,1,1,69478,task3,498112,false,false,574,image-keyboard-response,17
true,8,2,1,2,true,d,false,false,0.0-2.0-0.17-0.157-3.157,0,1,0,68,false,stim,false,0,788.5,0,0,0,69478,task3,500408,false,true,577,image-keyboard-response,18
true,8,0,1,0,true,q,false,true,0.0-2.0-0.17-0.158-3.158,0,1,0,81,false,stim,false,1,1453.699999988079,0,0,2,69478,task3,503368,false,false,580,image-keyboard-response,19
true,8,0,1,2,false,d,true,false,0.0-2.0-0.17-0.159-3.159,0,1,0,81,false,stim,false,2,941.6999999880791,0,1,1,69478,task3,505816,false,false,583,image-keyboard-response,20
true,8,0,1,0,true,q,false,true,0.0-2.0-0.17-0.160-3.160,0,1,0,81,false,stim,false,1,630.1000000238419,0,0,2,69478,task3,507952,false,false,586,image-keyboard-response,21
true,8,0,1,2,false,d,false,false,0.0-2.0-0.17-0.161-3.161,0,1,0,81,false,stim,true,0,621.5,0,0,0,69478,task3,510080,false,false,589,image-keyboard-response,22
true,8,2,1,2,true,d,false,false,0.0-2.0-0.18-0.162-3.162,0,1,0,68,false,stim,false,0,603.0,0,0,0,69478,task3,512192,false,true,592,image-keyboard-response,23
true,8,2,1,0,false,q,true,false,0.0-2.0-0.18-0.163-3.163,0,1,0,68,false,stim,false,1,894.7999999523163,0,0,2,69478,task3,514592,false,false,595,image-keyboard-response,24
true,8,2,1,2,true,d,false,true,0.0-2.0-0.18-0.164-3.164,0,1,0,68,false,stim,false,2,461.4000000357628,0,1,1,69478,task3,516560,false,false,598,image-keyboard-response,25
true,8,0,1,0,true,q,false,true,0.0-2.0-0.18-0.165-3.165,0,1,0,81,false,stim,false,1,582.6999999880791,0,1,2,69478,task3,518656,false,false,601,image-keyboard-response,26
true,8,0,1,2,false,d,false,false,0.0-2.0-0.18-0.166-3.166,0,1,0,81,false,stim,true,0,909.8999999761581,0,0,0,69478,task3,521072,false,false,604,image-keyboard-response,27
true,8,1,1,2,false,d,true,false,0.0-2.0-0.18-0.167-3.167,0,1,0,90,false,stim,false,2,966.1000000238419,0,1,1,69478,task3,523544,false,false,607,image-keyboard-response,28
true,8,2,1,2,true,d,false,true,0.0-2.0-0.18-0.168-3.168,0,1,0,68,false,stim,false,2,757.8000000119209,0,1,1,69478,task3,525808,false,false,610,image-keyboard-response,29
true,8,0,1,0,true,q,false,true,0.0-2.0-0.18-0.169-3.169,0,1,0,81,false,stim,false,1,2738.300000011921,0,1,2,69478,task3,530055,false,false,613,image-keyboard-response,30
true,9,2,2,1,false,z,false,false,0.0-2.0-0.18-0.170-3.170,0,1,1,68,true,stim,true,2,542.4000000357628,0,0,0,69478,task3,532104,false,false,616,image-keyboard-response,1
true,9,2,2,0,false,q,true,false,0.0-2.0-0.19-0.171-3.171,0,1,1,68,false,stim,false,0,1061.199999988079,0,1,2,69478,task3,534672,false,false,619,image-keyboard-response,2
true,9,2,2,1,false,z,false,false,0.0-2.0-0.19-0.172-3.172,0,1,1,68,false,stim,true,2,622.1000000238419,0,0,0,69478,task3,536800,false,false,622,image-keyboard-response,3
true,9,2,2,2,true,d,false,true,0.0-2.0-0.19-0.173-3.173,0,1,1,68,false,stim,false,2,860.9000000357628,0,1,1,69478,task3,539172,false,false,625,image-keyboard-response,4
true,9,0,2,0,true,q,false,true,0.0-2.0-0.19-0.174-3.174,0,1,1,81,false,stim,false,0,516.0,0,1,2,69478,task3,541195,false,false,628,image-keyboard-response,5
true,9,2,2,1,false,z,false,false,0.0-2.0-0.19-0.175-3.175,0,1,1,68,false,stim,true,2,1200.1000000238419,0,0,0,69478,task3,543900,false,false,631,image-keyboard-response,6
true,9,0,2,1,false,z,true,false,0.0-2.0-0.19-0.176-3.176,0,1,1,81,false,stim,false,2,757.8000000119209,0,0,0,69478,task3,546164,false,false,634,image-keyboard-response,7
true,9,2,2,0,false,q,true,false,0.0-2.0-0.19-0.177-3.177,0,1,1,68,false,stim,false,0,774.9000000357628,0,1,2,69478,task3,548444,false,false,637,image-keyboard-response,8
true,9,2,2,2,true,d,false,true,0.0-2.0-0.19-0.178-3.178,0,1,1,68,false,stim,false,2,1388.5999999642372,0,1,1,69478,task3,551340,false,false,640,image-keyboard-response,9
true,9,2,2,2,true,d,false,true,0.0-2.0-0.19-0.179-3.179,0,1,1,68,false,stim,false,2,660.8999999761581,0,0,1,69478,task3,553508,false,false,643,image-keyboard-response,10
true,9,0,2,1,false,z,true,false,0.0-2.0-0.20-0.180-3.180,0,1,1,81,false,stim,false,2,796.8000000119209,0,1,0,69478,task3,555812,false,false,646,image-keyboard-response,11
true,9,2,2,0,false,q,true,false,0.0-2.0-0.20-0.181-3.181,0,1,1,68,false,stim,false,0,1029.1000000238419,0,0,2,69478,task3,558348,false,false,649,image-keyboard-response,12
true,9,0,2,0,true,q,false,true,0.0-2.0-0.20-0.182-3.182,0,1,1,81,false,stim,false,0,484.89999997615814,0,0,2,69478,task3,560340,false,false,652,image-keyboard-response,13
true,9,2,2,2,true,d,false,true,0.0-2.0-0.20-0.183-3.183,0,1,1,68,false,stim,false,2,932.2000000476837,0,0,1,69478,task3,562780,false,false,655,image-keyboard-response,14
true,10,0,1,2,false,d,false,false,0.0-2.0-0.20-0.184-3.184,1,0,0,81,true,stim,true,0,525.5999999642372,0,0,2,69478,task3,564812,false,false,658,image-keyboard-response,1
true,10,1,1,1,true,z,false,true,0.0-2.0-0.20-0.185-3.185,1,0,0,90,false,stim,false,1,804.9000000357628,0,1,0,69478,task3,567123,false,false,661,image-keyboard-response,2
true,10,2,1,0,false,q,false,false,0.0-2.0-0.20-0.186-3.186,1,0,0,68,false,stim,true,2,2141.600000023842,0,0,1,69478,task3,570772,false,false,664,image-keyboard-response,3
true,10,1,1,1,true,z,false,true,0.0-2.0-0.20-0.187-3.187,1,0,0,90,false,stim,false,1,1251.5999999642372,0,1,0,69478,task3,573532,false,false,667,image-keyboard-response,4
true,10,0,1,0,true,q,false,true,0.0-2.0-0.20-0.188-3.188,1,0,0,81,false,stim,false,2,1053.4000000357628,0,0,1,69478,task3,576091,false,false,670,image-keyboard-response,5
true,10,1,1,1,true,z,false,true,0.0-2.0-0.21-0.189-3.189,1,0,0,90,false,stim,false,1,828.8000000119209,0,1,0,69478,task3,578428,false,false,673,image-keyboard-response,6
true,10,0,1,0,true,q,false,true,0.0-2.0-0.21-0.190-3.190,1,0,0,81,false,stim,false,2,931.4000000357628,0,0,1,69478,task3,580868,false,false,676,image-keyboard-response,7
true,10,0,1,0,true,q,false,true,0.0-2.0-0.21-0.191-3.191,1,0,0,81,false,stim,false,2,636.0,0,0,1,69478,task3,583011,false,false,679,image-keyboard-response,8
true,10,2,1,2,true,d,false,false,0.0-2.0-0.21-0.192-3.192,1,0,0,68,false,stim,false,0,716.1999999880791,0,0,2,69478,task3,585234,false,true,682,image-keyboard-response,9
true,10,1,1,2,false,d,true,false,0.0-2.0-0.21-0.193-3.193,1,0,0,90,false,stim,false,0,567.1999999880791,0,0,2,69478,task3,587307,false,false,685,image-keyboard-response,10
true,10,0,1,0,true,q,false,true,0.0-2.0-0.21-0.194-3.194,1,0,0,81,false,stim,false,2,724.3000000119209,0,0,1,69478,task3,589539,false,false,688,image-keyboard-response,11
true,10,0,1,2,false,d,false,false,0.0-2.0-0.21-0.195-3.195,1,0,0,81,false,stim,true,0,741.0,0,0,2,69478,task3,591788,false,false,691,image-keyboard-response,12
true,10,1,1,1,true,z,false,true,0.0-2.0-0.21-0.196-3.196,1,0,0,90,false,stim,false,1,539.6999999880791,0,1,0,69478,task3,593835,false,false,694,image-keyboard-response,13
true,10,1,1,1,true,z,false,true,0.0-2.0-0.21-0.197-3.197,1,0,0,90,false,stim,false,1,646.0,0,1,0,69478,task3,595987,false,false,697,image-keyboard-response,14
true,10,0,1,0,true,q,false,true,0.0-2.0-0.22-0.198-3.198,1,0,0,81,false,stim,false,2,1318.0,0,0,1,69478,task3,598815,false,false,700,image-keyboard-response,15
true,10,1,1,1,true,z,false,true,0.0-2.0-0.22-0.199-3.199,1,0,0,90,false,stim,false,1,1831.7999999523163,0,1,0,69478,task3,602159,false,false,703,image-keyboard-response,16
true,10,1,1,1,true,z,false,false,0.0-2.0-0.22-0.200-3.200,1,0,0,90,false,stim,false,1,444.30000001192093,0,1,0,69478,task3,604111,false,true,706,image-keyboard-response,17
true,10,2,1,2,true,d,false,true,0.0-2.0-0.22-0.201-3.201,1,0,0,68,false,stim,false,0,1371.0,0,0,2,69478,task3,606991,false,false,709,image-keyboard-response,18
true,10,0,1,0,true,q,false,true,0.0-2.0-0.22-0.202-3.202,1,0,0,81,false,stim,false,2,1398.1000000238419,0,0,1,69478,task3,609895,false,false,712,image-keyboard-response,19
true,10,0,1,0,true,q,false,true,0.0-2.0-0.22-0.203-3.203,1,0,0,81,false,stim,false,2,588.1999999880791,0,0,1,69478,task3,611991,false,false,715,image-keyboard-response,20
true,10,1,1,1,true,z,false,true,0.0-2.0-0.22-0.204-3.204,1,0,0,90,false,stim,false,1,517.1000000238419,0,1,0,69478,task3,614015,false,false,718,image-keyboard-response,21
true,10,2,1,2,true,d,false,true,0.0-2.0-0.22-0.205-3.205,1,0,0,68,false,stim,false,0,493.30000001192093,0,0,2,69478,task3,616015,false,false,721,image-keyboard-response,22
true,10,2,1,2,true,d,false,true,0.0-2.0-0.22-0.206-3.206,1,0,0,68,false,stim,false,0,589.2999999523163,0,0,2,69478,task3,618111,false,false,724,image-keyboard-response,23
true,10,1,1,1,true,z,false,true,0.0-2.0-0.23-0.207-3.207,1,0,0,90,false,stim,false,1,787.0999999642372,0,1,0,69478,task3,620406,false,false,727,image-keyboard-response,24
true,10,2,1,2,true,d,false,true,0.0-2.0-0.23-0.208-3.208,1,0,0,68,false,stim,false,0,588.1999999880791,0,0,2,69478,task3,622503,false,false,730,image-keyboard-response,25
true,10,0,1,0,true,q,false,true,0.0-2.0-0.23-0.209-3.209,1,0,0,81,false,stim,false,2,877.3000000119209,0,1,1,69478,task3,624887,false,false,733,image-keyboard-response,26
true,10,2,1,2,true,d,false,true,0.0-2.0-0.23-0.210-3.210,1,0,0,68,false,stim,false,0,724.1000000238419,0,0,2,69478,task3,627119,false,false,736,image-keyboard-response,27
true,11,2,2,0,false,q,false,false,0.0-2.0-0.23-0.211-3.211,1,1,0,68,true,stim,true,2,396.19999998807907,0,0,2,69478,task3,629023,false,false,739,image-keyboard-response,1
true,11,1,2,0,false,q,true,false,0.0-2.0-0.23-0.212-3.212,1,1,0,90,false,stim,false,0,605.4000000357628,0,1,1,69478,task3,631135,false,false,742,image-keyboard-response,2
true,11,1,2,1,true,z,false,true,0.0-2.0-0.23-0.213-3.213,1,1,0,90,false,stim,false,1,1461.9000000357628,0,1,0,69478,task3,634103,false,false,745,image-keyboard-response,3
true,11,1,2,1,true,z,false,true,0.0-2.0-0.23-0.214-3.214,1,1,0,90,false,stim,false,1,516.2000000476837,0,1,0,69478,task3,636127,false,false,748,image-keyboard-response,4
true,11,0,2,0,true,q,false,true,0.0-2.0-0.23-0.215-3.215,1,1,0,81,false,stim,false,0,716.6999999880791,0,1,1,69478,task3,638351,false,false,751,image-keyboard-response,5
true,11,0,2,0,true,q,false,true,0.0-2.0-0.24-0.216-3.216,1,1,0,81,false,stim,false,0,573.7000000476837,0,1,1,69478,task3,640431,false,false,754,image-keyboard-response,6
true,11,1,2,1,true,z,false,true,0.0-2.0-0.24-0.217-3.217,1,1,0,90,false,stim,false,1,1211.4000000357628,0,1,0,69478,task3,643151,false,false,757,image-keyboard-response,7
true,11,0,2,0,true,q,false,true,0.0-2.0-0.24-0.218-3.218,1,1,0,81,false,stim,false,0,780.2000000476837,0,1,1,69478,task3,645437,false,false,760,image-keyboard-response,8
true,11,2,2,0,false,q,false,false,0.0-2.0-0.24-0.219-3.219,1,1,0,68,false,stim,true,2,648.7999999523163,0,0,2,69478,task3,647591,false,false,763,image-keyboard-response,9
true,11,1,2,0,false,q,true,false,0.0-2.0-0.24-0.220-3.220,1,1,0,90,false,stim,false,2,523.0999999642372,0,0,2,69478,task3,649622,false,false,766,image-keyboard-response,10
true,11,0,2,0,true,q,false,true,0.0-2.0-0.24-0.221-3.221,1,1,0,81,false,stim,false,2,493.89999997615814,0,0,2,69478,task3,651622,false,false,769,image-keyboard-response,11
true,11,1,2,1,true,z,false,true,0.0-2.0-0.24-0.222-3.222,1,1,0,90,false,stim,false,1,2149.800000011921,0,1,0,69478,task3,655278,false,false,772,image-keyboard-response,12
true,11,0,2,0,true,q,false,true,0.0-2.0-0.24-0.223-3.223,1,1,0,81,false,stim,false,0,724.0,0,1,1,69478,task3,657510,false,false,775,image-keyboard-response,13
true,11,1,2,1,true,z,false,true,0.0-2.0-0.24-0.224-3.224,1,1,0,90,false,stim,false,1,692.4000000357628,0,1,0,69478,task3,659712,false,false,778,image-keyboard-response,14
true,11,1,2,1,true,z,false,true,0.0-2.0-0.25-0.225-3.225,1,1,0,90,false,stim,false,1,932.3999999761581,0,1,0,69478,task3,662151,false,false,781,image-keyboard-response,15
true,11,1,2,1,true,z,false,true,0.0-2.0-0.25-0.226-3.226,1,1,0,90,false,stim,false,1,459.19999998807907,0,1,0,69478,task3,664118,false,false,784,image-keyboard-response,16
true,11,0,2,0,true,q,false,true,0.0-2.0-0.25-0.227-3.227,1,1,0,81,false,stim,false,2,678.8000000119209,0,0,2,69478,task3,666303,false,false,787,image-keyboard-response,17
true,11,1,2,1,true,z,false,true,0.0-2.0-0.25-0.228-3.228,1,1,0,90,false,stim,false,1,564.3000000119209,0,1,0,69478,task3,668375,false,false,790,image-keyboard-response,18
true,11,0,2,0,true,q,false,true,0.0-2.0-0.25-0.229-3.229,1,1,0,81,false,stim,false,0,709.8000000119209,0,1,1,69478,task3,670592,false,false,793,image-keyboard-response,19
true,11,0,2,0,true,q,false,false,0.0-2.0-0.25-0.230-3.230,1,1,0,81,false,stim,false,0,533.5,0,1,1,69478,task3,672631,false,true,796,image-keyboard-response,20
true,11,0,2,0,true,q,false,true,0.0-2.0-0.25-0.231-3.231,1,1,0,81,false,stim,false,2,901.8000000119209,0,0,2,69478,task3,675039,false,false,799,image-keyboard-response,21
true,11,0,2,0,true,q,false,true,0.0-2.0-0.25-0.232-3.232,1,1,0,81,false,stim,false,2,626.3000000119209,0,0,2,69478,task3,677183,false,false,802,image-keyboard-response,22
true,11,1,2,0,false,q,true,false,0.0-2.0-0.25-0.233-3.233,1,1,0,90,false,stim,false,0,1269.1000000238419,0,1,1,69478,task3,679959,false,false,805,image-keyboard-response,23
true,11,1,2,1,true,z,false,true,0.0-2.0-0.26-0.234-3.234,1,1,0,90,false,stim,false,1,1339.300000011921,0,0,0,69478,task3,682807,false,false,808,image-keyboard-response,24
true,11,0,2,0,true,q,false,true,0.0-2.0-0.26-0.235-3.235,1,1,0,81,false,stim,false,2,1372.3999999761581,0,0,2,69478,task3,685687,false,false,811,image-keyboard-response,25
true,12,1,1,0,false,q,false,false,0.0-2.0-0.26-0.236-3.236,0,1,0,90,true,stim,true,1,580.7999999523163,0,0,0,69478,task3,687775,false,false,814,image-keyboard-response,1
true,12,0,1,2,false,d,false,false,0.0-2.0-0.26-0.237-3.237,0,1,0,81,false,stim,true,0,2027.800000011921,0,0,2,69478,task3,691311,false,false,817,image-keyboard-response,2
true,12,0,1,0,true,q,false,true,0.0-2.0-0.26-0.238-3.238,0,1,0,81,false,stim,false,1,819.5999999642372,0,0,0,69478,task3,693639,false,false,820,image-keyboard-response,3
true,12,1,1,0,false,q,true,false,0.0-2.0-0.26-0.239-3.239,0,1,0,90,false,stim,false,0,1427.300000011921,0,1,1,69478,task3,696575,false,false,823,image-keyboard-response,4
true,12,2,1,2,true,d,false,true,0.0-2.0-0.26-0.240-3.240,0,1,0,68,false,stim,false,0,1930.699999988079,0,0,2,69478,task3,700015,false,false,826,image-keyboard-response,5
true,12,1,1,0,false,q,true,false,0.0-2.0-0.26-0.241-3.241,0,1,0,90,false,stim,false,0,1236.0,0,1,1,69478,task3,702759,false,false,829,image-keyboard-response,6
true,12,0,1,0,true,q,false,true,0.0-2.0-0.26-0.242-3.242,0,1,0,81,false,stim,false,0,877.6999999880791,0,1,1,69478,task3,705144,false,false,832,image-keyboard-response,7
true,12,2,1,2,true,d,false,true,0.0-2.0-0.27-0.243-3.243,0,1,0,68,false,stim,false,0,794.6999999880791,0,0,2,69478,task3,707447,false,false,835,image-keyboard-response,8
true,12,2,1,2,true,d,false,true,0.0-2.0-0.27-0.244-3.244,0,1,0,68,false,stim,false,0,588.3000000119209,0,0,2,69478,task3,709543,false,false,838,image-keyboard-response,9
true,12,0,1,0,true,q,false,true,0.0-2.0-0.27-0.245-3.245,0,1,0,81,false,stim,false,0,524.8000000119209,0,1,1,69478,task3,711575,false,false,841,image-keyboard-response,10
true,12,0,1,0,true,q,false,true,0.0-2.0-0.27-0.246-3.246,0,1,0,81,false,stim,false,1,491.7000000476837,0,0,0,69478,task3,713575,false,false,844,image-keyboard-response,11
true,12,0,1,0,true,q,false,true,0.0-2.0-0.27-0.247-3.247,0,1,0,81,false,stim,false,1,414.30000001192093,0,1,0,69478,task3,715495,false,false,847,image-keyboard-response,12
true,12,0,1,0,true,q,false,true,0.0-2.0-0.27-0.248-3.248,0,1,0,81,false,stim,false,1,468.19999998807907,0,1,0,69478,task3,717471,false,false,850,image-keyboard-response,13
true,12,0,1,0,true,q,false,true,0.0-2.0-0.27-0.249-3.249,0,1,0,81,false,stim,false,0,564.8999999761581,0,0,1,69478,task3,719542,false,false,853,image-keyboard-response,14
true,12,0,1,0,true,q,false,true,0.0-2.0-0.27-0.250-3.250,0,1,0,81,false,stim,false,0,379.89999997615814,0,0,1,69478,task3,721430,false,false,856,image-keyboard-response,15
true,12,2,1,2,true,d,false,true,0.0-2.0-0.27-0.251-3.251,0,1,0,68,false,stim,false,0,419.60000002384186,0,1,2,69478,task3,723358,false,false,859,image-keyboard-response,16
true,13,2,2,2,true,d,false,false,0.0-2.0-0.28-0.252-3.252,1,0,1,68,true,stim,false,2,363.69999998807907,0,1,2,69478,task3,725230,false,true,862,image-keyboard-response,1
true,13,0,2,2,false,d,false,false,0.0-2.0-0.28-0.253-3.253,1,0,1,81,false,stim,true,0,1332.800000011921,0,0,1,69478,task3,728071,false,false,865,image-keyboard-response,2
true,13,0,2,2,false,d,false,false,0.0-2.0-0.28-0.254-3.254,1,0,1,81,false,stim,true,0,682.0,0,0,1,69478,task3,730262,false,false,868,image-keyboard-response,3
true,13,0,2,0,true,q,false,true,0.0-2.0-0.28-0.255-3.255,1,0,1,81,false,stim,false,0,973.6999999880791,0,1,0,69478,task3,732742,false,false,871,image-keyboard-response,4
true,13,1,2,2,false,d,true,false,0.0-2.0-0.28-0.256-3.256,1,0,1,90,false,stim,false,0,868.6999999880791,0,0,1,69478,task3,735118,false,false,874,image-keyboard-response,5
true,13,1,2,2,false,d,true,false,0.0-2.0-0.28-0.257-3.257,1,0,1,90,false,stim,false,2,2123.899999976158,0,1,2,69478,task3,738751,false,false,877,image-keyboard-response,6
true,13,0,2,2,false,d,true,false,0.0-2.0-0.28-0.258-3.258,1,0,1,81,false,stim,false,2,907.1999999880791,0,1,2,69478,task3,741166,false,false,880,image-keyboard-response,7
true,13,0,2,0,true,q,false,true,0.0-2.0-0.28-0.259-3.259,1,0,1,81,false,stim,false,0,2085.600000023842,0,1,0,69478,task3,744758,false,false,883,image-keyboard-response,8
true,13,2,2,0,false,q,true,false,0.0-2.0-0.28-0.260-3.260,1,0,1,68,false,stim,false,0,698.8000000119209,0,1,0,69478,task3,746966,false,false,886,image-keyboard-response,9
true,13,2,2,2,true,d,false,true,0.0-2.0-0.29-0.261-3.261,1,0,1,68,false,stim,false,0,518.5,0,0,1,69478,task3,748991,false,false,889,image-keyboard-response,10
true,13,2,2,2,true,d,false,true,0.0-2.0-0.29-0.262-3.262,1,0,1,68,false,stim,false,2,875.8000000119209,0,1,2,69478,task3,751374,false,false,892,image-keyboard-response,11
true,13,1,2,2,false,d,true,false,0.0-2.0-0.29-0.263-3.263,1,0,1,90,false,stim,false,0,955.5999999642372,0,1,1,69478,task3,753838,false,false,895,image-keyboard-response,12
true,13,2,2,2,true,d,false,true,0.0-2.0-0.29-0.264-3.264,1,0,1,68,false,stim,false,0,522.8999999761581,0,1,1,69478,task3,755870,false,false,898,image-keyboard-response,13
true,13,0,2,0,true,q,false,true,0.0-2.0-0.29-0.265-3.265,1,0,1,81,false,stim,false,0,1482.5,0,1,0,69478,task3,758870,false,false,901,image-keyboard-response,14
true,13,2,2,2,true,d,false,true,0.0-2.0-0.29-0.266-3.266,1,0,1,68,false,stim,false,2,429.2000000476837,0,0,2,69478,task3,760807,false,false,904,image-keyboard-response,15
true,13,2,2,0,false,q,true,false,0.0-2.0-0.29-0.267-3.267,1,0,1,68,false,stim,false,0,290.7000000476837,0,1,0,69478,task3,762606,false,false,907,image-keyboard-response,16
true,14,0,2,0,true,q,false,true,0.0-2.0-0.29-0.268-3.268,1,1,0,81,true,stim,false,0,468.7000000476837,0,1,0,69478,task3,764582,false,false,910,image-keyboard-response,1
true,14,2,2,0,false,q,false,false,0.0-2.0-0.29-0.269-3.269,1,1,0,68,false,stim,true,2,428.4000000357628,0,0,2,69478,task3,766518,false,false,913,image-keyboard-response,2
true,14,2,2,2,true,d,false,true,0.0-2.0-0.30-0.270-3.270,1,1,0,68,false,stim,false,2,435.5,0,1,1,69478,task3,768462,false,false,916,image-keyboard-response,3
true,14,2,2,0,false,q,false,false,0.0-2.0-0.30-0.271-3.271,1,1,0,68,false,stim,true,2,1069.1000000238419,0,0,2,69478,task3,771039,false,false,919,image-keyboard-response,4
true,14,0,2,0,true,q,false,true,0.0-2.0-0.30-0.272-3.272,1,1,0,81,false,stim,false,0,548.3999999761581,0,1,0,69478,task3,773094,false,false,922,image-keyboard-response,5
true,14,0,2,0,true,q,false,true,0.0-2.0-0.30-0.273-3.273,1,1,0,81,false,stim,false,2,603.3999999761581,0,0,2,69478,task3,775206,false,false,925,image-keyboard-response,6
true,14,2,2,0,false,q,true,false,0.0-2.0-0.30-0.274-3.274,1,1,0,68,false,stim,false,0,790.0,0,1,0,69478,task3,777502,false,false,928,image-keyboard-response,7
true,14,0,2,0,true,q,false,true,0.0-2.0-0.30-0.275-3.275,1,1,0,81,false,stim,false,0,509.10000002384186,0,1,0,69478,task3,779518,false,false,931,image-keyboard-response,8
true,14,2,2,2,true,d,false,true,0.0-2.0-0.30-0.276-3.276,1,1,0,68,false,stim,false,2,1300.8999999761581,0,1,1,69478,task3,782327,false,false,934,image-keyboard-response,9
true,14,0,2,0,true,q,false,true,0.0-2.0-0.30-0.277-3.277,1,1,0,81,false,stim,false,2,627.1999999880791,0,0,2,69478,task3,784462,false,false,937,image-keyboard-response,10
true,14,0,2,2,false,d,true,false,0.0-2.0-0.30-0.278-3.278,1,1,0,81,false,stim,false,2,396.30000001192093,0,0,1,69478,task3,786367,false,false,940,image-keyboard-response,11
true,14,2,2,0,false,q,true,false,0.0-2.0-0.31-0.279-3.279,1,1,0,68,false,stim,false,0,779.7999999523163,0,0,0,69478,task3,788654,false,false,943,image-keyboard-response,12
true,14,0,2,0,true,q,false,false,0.0-2.0-0.31-0.280-3.280,1,1,0,81,false,stim,false,2,1300.300000011921,0,1,2,69478,task3,791462,false,true,946,image-keyboard-response,13
true,14,2,2,2,true,d,false,true,0.0-2.0-0.31-0.281-3.281,1,1,0,68,false,stim,false,2,1493.5,0,0,1,69478,task3,794463,false,false,949,image-keyboard-response,14
true,14,2,2,0,false,q,false,false,0.0-2.0-0.31-0.282-3.282,1,1,0,68,false,stim,true,2,1058.800000011921,0,1,2,69478,task3,797030,false,false,952,image-keyboard-response,15
true,15,0,1,2,false,d,false,false,0.0-2.0-0.31-0.283-3.283,0,0,1,81,true,stim,true,0,1172.800000011921,0,0,0,69478,task3,799711,false,false,955,image-keyboard-response,1
true,15,0,1,0,true,q,false,true,0.0-2.0-0.31-0.284-3.284,0,0,1,81,false,stim,false,2,1116.5,0,0,1,69478,task3,802334,false,false,958,image-keyboard-response,2
true,15,0,1,0,true,q,false,true,0.0-2.0-0.31-0.285-3.285,0,0,1,81,false,stim,false,2,867.5,0,0,1,69478,task3,804711,false,false,961,image-keyboard-response,3
true,15,1,1,2,false,d,true,false,0.0-2.0-0.31-0.286-3.286,0,0,1,90,false,stim,false,0,628.3000000119209,0,0,0,69478,task3,806846,false,false,964,image-keyboard-response,4
true,15,1,1,0,false,q,true,false,0.0-2.0-0.31-0.287-3.287,0,0,1,90,false,stim,false,0,796.2999999523163,0,1,2,69478,task3,809150,false,false,967,image-keyboard-response,5
true,15,1,1,2,false,d,true,false,0.0-2.0-0.32-0.288-3.288,0,0,1,90,false,stim,false,0,604.6999999880791,0,0,0,69478,task3,811262,false,false,970,image-keyboard-response,6
true,15,2,1,2,true,d,false,true,0.0-2.0-0.32-0.289-3.289,0,0,1,68,false,stim,false,0,844.3999999761581,0,1,0,69478,task3,813614,false,false,973,image-keyboard-response,7
true,15,2,1,0,false,q,false,false,0.0-2.0-0.32-0.290-3.290,0,0,1,68,false,stim,true,2,564.5,0,1,1,69478,task3,815687,false,false,976,image-keyboard-response,8
true,15,1,1,0,false,q,true,false,0.0-2.0-0.32-0.291-3.291,0,0,1,90,false,stim,false,2,587.8999999761581,0,1,1,69478,task3,817783,false,false,979,image-keyboard-response,9
true,15,2,1,0,false,q,true,false,0.0-2.0-0.32-0.292-3.292,0,0,1,68,false,stim,false,0,723.3000000119209,0,0,2,69478,task3,820014,false,false,982,image-keyboard-response,10
true,15,0,1,0,true,q,false,true,0.0-2.0-0.32-0.293-3.293,0,0,1,81,false,stim,false,2,1043.300000011921,0,1,1,69478,task3,822566,false,false,985,image-keyboard-response,11
true,16,1,2,2,false,d,true,false,0.0-2.0-0.32-0.294-3.294,1,1,0,90,true,stim,false,2,684.3000000119209,0,1,0,69478,task3,824758,false,false,988,image-keyboard-response,1
true,16,2,2,1,false,z,true,false,0.0-2.0-0.32-0.295-3.295,1,1,0,68,false,stim,false,0,1213.199999988079,0,0,2,69478,task3,827479,false,false,991,image-keyboard-response,2
true,16,1,2,1,true,z,false,true,0.0-2.0-0.32-0.296-3.296,1,1,0,90,false,stim,false,0,523.3000000119209,0,0,2,69478,task3,829510,false,false,994,image-keyboard-response,3
true,16,1,2,1,true,z,false,true,0.0-2.0-0.33-0.297-3.297,1,1,0,90,false,stim,false,0,514.8999999761581,0,0,2,69478,task3,831534,false,false,997,image-keyboard-response,4
true,16,0,2,2,false,d,true,false,0.0-2.0-0.33-0.298-3.298,1,1,0,81,false,stim,false,2,484.19999998807907,0,1,0,69478,task3,833526,false,false,1000,image-keyboard-response,5
true,16,1,2,1,true,z,false,true,0.0-2.0-0.33-0.299-3.299,1,1,0,90,false,stim,false,0,706.3000000119209,0,0,2,69478,task3,835750,false,false,1003,image-keyboard-response,6
true,16,0,2,0,true,q,false,false,0.0-2.0-0.33-0.300-3.300,1,1,0,81,false,stim,false,0,931.5999999642372,0,1,1,69478,task3,838191,false,true,1006,image-keyboard-response,7
true,16,1,2,2,false,d,true,false,0.0-2.0-0.33-0.301-3.301,1,1,0,90,false,stim,false,2,1674.5,0,1,0,69478,task3,841374,false,false,1009,image-keyboard-response,8
true,16,2,2,2,true,d,false,true,0.0-2.0-0.33-0.302-3.302,1,1,0,68,false,stim,false,2,908.4000000357628,0,1,0,69478,task3,843790,false,false,1012,image-keyboard-response,9
true,16,1,2,1,true,z,false,true,0.0-2.0-0.33-0.303-3.303,1,1,0,90,false,stim,false,0,875.6999999880791,0,0,2,69478,task3,846174,false,false,1015,image-keyboard-response,10
true,16,1,2,0,false,q,true,false,0.0-2.0-0.33-0.304-3.304,1,1,0,90,false,stim,false,0,1195.3999999761581,0,1,1,69478,task3,848879,false,false,1018,image-keyboard-response,11
true,16,2,2,0,false,q,true,false,0.0-2.0-0.33-0.305-3.305,1,1,0,68,false,stim,false,0,915.0999999642372,0,1,1,69478,task3,851302,false,false,1021,image-keyboard-response,12
true,16,1,2,2,false,d,true,false,0.0-2.0-0.34-0.306-3.306,1,1,0,90,false,stim,false,2,1036.4000000357628,0,1,0,69478,task3,853846,false,false,1024,image-keyboard-response,13
true,16,2,2,1,false,z,true,false,0.0-2.0-0.34-0.307-3.307,1,1,0,68,false,stim,false,0,1204.0,0,0,2,69478,task3,856558,false,false,1027,image-keyboard-response,14
true,16,2,2,2,true,d,false,true,0.0-2.0-0.34-0.308-3.308,1,1,0,68,false,stim,false,2,2044.0999999642372,0,1,0,69478,task3,860111,false,false,1030,image-keyboard-response,15
true,16,1,2,0,false,q,true,false,0.0-2.0-0.34-0.309-3.309,1,1,0,90,false,stim,false,0,1067.2000000476837,0,1,1,69478,task3,862686,false,false,1033,image-keyboard-response,16
true,16,1,2,1,true,z,false,false,0.0-2.0-0.34-0.310-3.310,1,1,0,90,false,stim,false,0,1220.3999999761581,0,0,2,69478,task3,865414,false,true,1036,image-keyboard-response,17
true,16,0,2,2,false,d,true,false,0.0-2.0-0.34-0.311-3.311,1,1,0,81,false,stim,false,2,956.2000000476837,0,1,0,69478,task3,867878,false,false,1039,image-keyboard-response,18
true,16,0,2,0,true,q,false,true,0.0-2.0-0.34-0.312-3.312,1,1,0,81,false,stim,false,0,722.3999999761581,0,1,1,69478,task3,870110,false,false,1042,image-keyboard-response,19
true,16,0,2,0,true,q,false,false,0.0-2.0-0.34-0.313-3.313,1,1,0,81,false,stim,false,0,684.5,0,1,1,69478,task3,872303,false,true,1045,image-keyboard-response,20
true,16,1,2,1,true,z,false,true,0.0-2.0-0.34-0.314-3.314,1,1,0,90,false,stim,false,0,348.0,0,0,2,69478,task3,874158,false,false,1048,image-keyboard-response,21
true,16,2,2,2,true,d,false,true,0.0-2.0-0.35-0.315-3.315,1,1,0,68,false,stim,false,2,1195.6000000238419,0,1,0,69478,task3,876862,false,false,1051,image-keyboard-response,22
true,16,0,2,0,true,q,false,true,0.0-2.0-0.35-0.316-3.316,1,1,0,81,false,stim,false,0,644.3000000119209,0,0,1,69478,task3,879014,false,false,1054,image-keyboard-response,23
true,16,1,2,1,true,z,false,true,0.0-2.0-0.35-0.317-3.317,1,1,0,90,false,stim,false,0,620.6999999880791,0,0,2,69478,task3,881142,false,false,1057,image-keyboard-response,24
true,16,0,2,0,true,q,false,true,0.0-2.0-0.35-0.318-3.318,1,1,0,81,false,stim,false,0,1148.5,0,0,1,69478,task3,883798,false,false,1060,image-keyboard-response,25
true,16,2,2,2,true,d,false,true,0.0-2.0-0.35-0.319-3.319,1,1,0,68,false,stim,false,2,858.8000000119209,0,1,0,69478,task3,886166,false,false,1063,image-keyboard-response,26
true,16,1,2,1,true,z,false,true,0.0-2.0-0.35-0.320-3.320,1,1,0,90,false,stim,false,0,907.6000000238419,0,0,2,69478,task3,888582,false,false,1066,image-keyboard-response,27
true,17,0,1,1,false,z,false,true,0.0-2.0-0.35-0.321-3.321,1,0,0,81,true,stim,true,0,1180.300000011921,0,0,1,69478,task3,891270,false,true,1069,image-keyboard-response,1
true,17,2,1,2,true,d,false,true,0.0-2.0-0.35-0.322-3.322,1,0,0,68,false,stim,false,2,1155.5999999642372,0,1,0,69478,task3,893934,false,false,1072,image-keyboard-response,2
true,17,1,1,2,false,d,false,false,0.0-2.0-0.35-0.323-3.323,1,0,0,90,false,stim,true,1,1089.0,0,0,2,69478,task3,896534,false,false,1075,image-keyboard-response,3
true,17,0,1,1,false,z,false,false,0.0-2.0-0.36-0.324-3.324,1,0,0,81,false,stim,true,0,1013.0,0,0,1,69478,task3,899054,false,false,1078,image-keyboard-response,4
true,17,2,1,2,true,d,false,true,0.0-2.0-0.36-0.325-3.325,1,0,0,68,false,stim,false,2,732.7999999523163,0,1,0,69478,task3,901294,false,false,1081,image-keyboard-response,5
true,17,2,1,2,true,d,false,true,0.0-2.0-0.36-0.326-3.326,1,0,0,68,false,stim,false,2,692.7999999523163,0,1,0,69478,task3,903494,false,false,1084,image-keyboard-response,6
true,17,1,1,2,false,d,false,false,0.0-2.0-0.36-0.327-3.327,1,0,0,90,false,stim,true,1,595.6000000238419,0,0,2,69478,task3,905598,false,false,1087,image-keyboard-response,7
true,17,0,1,2,false,d,true,false,0.0-2.0-0.36-0.328-3.328,1,0,0,81,false,stim,false,1,924.0999999642372,0,0,2,69478,task3,908030,false,false,1090,image-keyboard-response,8
true,17,2,1,2,true,d,false,true,0.0-2.0-0.36-0.329-3.329,1,0,0,68,false,stim,false,2,995.8000000119209,0,1,0,69478,task3,910534,false,false,1093,image-keyboard-response,9
true,17,2,1,1,false,z,true,false,0.0-2.0-0.36-0.330-3.330,1,0,0,68,false,stim,false,0,708.6000000238419,0,0,1,69478,task3,912750,false,false,1096,image-keyboard-response,10
true,17,2,1,2,true,d,false,true,0.0-2.0-0.36-0.331-3.331,1,0,0,68,false,stim,false,1,795.6000000238419,0,0,2,69478,task3,915054,false,false,1099,image-keyboard-response,11
true,17,1,1,1,true,z,false,true,0.0-2.0-0.36-0.332-3.332,1,0,0,90,false,stim,false,0,2194.099999964237,0,0,1,69478,task3,918766,false,false,1102,image-keyboard-response,12
true,17,1,1,1,true,z,false,true,0.0-2.0-0.37-0.333-3.333,1,0,0,90,false,stim,false,0,562.1999999880791,0,0,1,69478,task3,920838,false,false,1105,image-keyboard-response,13
true,17,2,1,2,true,d,false,false,0.0-2.0-0.37-0.334-3.334,1,0,0,68,false,stim,false,1,629.0,0,0,2,69478,task3,922974,false,true,1108,image-keyboard-response,14
true,17,1,1,2,false,d,true,false,0.0-2.0-0.37-0.335-3.335,1,0,0,90,false,stim,false,2,1045.4000000357628,0,1,0,69478,task3,925526,false,false,1111,image-keyboard-response,15
true,17,2,1,2,true,d,false,true,0.0-2.0-0.37-0.336-3.336,1,0,0,68,false,stim,false,1,1396.0,0,0,2,69478,task3,928430,false,false,1114,image-keyboard-response,16
true,17,2,1,2,true,d,false,false,0.0-2.0-0.37-0.337-3.337,1,0,0,68,false,stim,false,1,474.39999997615814,0,0,2,69478,task3,930414,false,true,1117,image-keyboard-response,17
true,17,1,1,1,true,z,false,true,0.0-2.0-0.37-0.338-3.338,1,0,0,90,false,stim,false,0,731.1000000238419,0,0,1,69478,task3,932654,false,false,1120,image-keyboard-response,18
true,17,1,1,1,true,z,false,true,0.0-2.0-0.37-0.339-3.339,1,0,0,90,false,stim,false,0,644.8999999761581,0,0,1,69478,task3,934806,false,false,1123,image-keyboard-response,19
true,17,1,1,2,false,d,true,false,0.0-2.0-0.37-0.340-3.340,1,0,0,90,false,stim,false,2,1036.800000011921,0,1,0,69478,task3,937350,false,false,1126,image-keyboard-response,20
true,17,0,1,2,false,d,true,false,0.0-2.0-0.37-0.341-3.341,1,0,0,81,false,stim,false,2,651.8000000119209,0,1,0,69478,task3,939510,false,false,1129,image-keyboard-response,21
true,17,1,1,2,false,d,false,true,0.0-2.0-0.38-0.342-3.342,1,0,0,90,false,stim,true,1,1205.0,0,1,2,69478,task3,942222,false,true,1132,image-keyboard-response,22
true,17,1,1,1,true,z,false,true,0.0-2.0-0.38-0.343-3.343,1,0,0,90,false,stim,false,0,1089.699999988079,0,0,1,69478,task3,944822,false,false,1135,image-keyboard-response,23
true,18,1,2,2,false,d,true,false,0.0-2.0-0.38-0.344-3.344,1,0,1,90,true,stim,false,2,474.5,0,1,2,69478,task3,946804,false,false,1138,image-keyboard-response,1
true,18,1,2,2,false,d,true,false,0.0-2.0-0.38-0.345-3.345,1,0,1,90,false,stim,false,2,862.5,0,1,0,69478,task3,949174,false,false,1141,image-keyboard-response,2
true,18,1,2,2,false,d,true,false,0.0-2.0-0.38-0.346-3.346,1,0,1,90,false,stim,false,2,404.30000001192093,0,1,2,69478,task3,951086,false,false,1144,image-keyboard-response,3
true,18,0,2,2,false,d,true,false,0.0-2.0-0.38-0.347-3.347,1,0,1,81,false,stim,false,2,596.8000000119209,0,1,0,69478,task3,953190,false,false,1147,image-keyboard-response,4
true,18,1,2,2,false,d,true,false,0.0-2.0-0.38-0.348-3.348,1,0,1,90,false,stim,false,2,467.30000001192093,0,1,0,69478,task3,955166,false,false,1150,image-keyboard-response,5
true,18,1,2,0,false,q,false,false,0.0-2.0-0.38-0.349-3.349,1,0,1,90,false,stim,true,1,588.5,0,0,1,69478,task3,957262,false,false,1153,image-keyboard-response,6
true,18,2,2,0,false,q,true,false,0.0-2.0-0.38-0.350-3.350,1,0,1,68,false,stim,false,1,275.89999997615814,0,0,1,69478,task3,959045,false,false,1156,image-keyboard-response,7
true,18,2,2,2,true,d,false,true,0.0-2.0-0.39-0.351-3.351,1,0,1,68,false,stim,false,2,620.5,0,0,2,69478,task3,961174,false,false,1159,image-keyboard-response,8
true,18,1,2,0,false,q,false,false,0.0-2.0-0.39-0.352-3.352,1,0,1,90,false,stim,true,1,531.7999999523163,0,1,1,69478,task3,963214,false,false,1162,image-keyboard-response,9
true,18,1,2,0,false,q,false,false,0.0-2.0-0.39-0.353-3.353,1,0,1,90,false,stim,true,1,642.7000000476837,0,1,1,69478,task3,965366,false,false,1165,image-keyboard-response,10
true,18,2,2,2,true,d,false,true,0.0-2.0-0.39-0.354-3.354,1,0,1,68,false,stim,false,2,428.0,0,0,2,69478,task3,967302,false,false,1168,image-keyboard-response,11
true,18,2,2,2,true,d,false,true,0.0-2.0-0.39-0.355-3.355,1,0,1,68,false,stim,false,2,491.80000001192093,0,0,0,69478,task3,969302,false,false,1171,image-keyboard-response,12
true,19,2,1,0,false,q,false,false,0.0-2.0-0.39-0.356-3.356,0,1,0,68,true,stim,true,2,724.1999999880791,0,0,0,69478,task3,971533,false,false,1174,image-keyboard-response,1
true,19,2,1,0,false,q,false,true,0.0-2.0-0.39-0.357-3.357,0,1,0,68,false,stim,true,2,883.3999999761581,0,0,0,69478,task3,973926,false,true,1177,image-keyboard-response,2
true,19,1,1,0,false,q,true,true,0.0-2.0-0.39-0.358-3.358,0,1,0,90,false,stim,false,0,730.6000000238419,0,1,1,69478,task3,976166,false,true,1180,image-keyboard-response,3
true,19,2,1,1,false,z,false,false,0.0-2.0-0.39-0.359-3.359,0,1,0,68,false,stim,true,2,308.0,0,0,2,69478,task3,977982,false,false,1183,image-keyboard-response,4
true,19,1,1,0,false,q,true,false,0.0-2.0-0.40-0.360-3.360,0,1,0,90,false,stim,false,0,530.5,0,1,1,69478,task3,980022,false,false,1186,image-keyboard-response,5
true,19,2,1,0,false,q,false,false,0.0-2.0-0.40-0.361-3.361,0,1,0,68,false,stim,true,2,755.4000000357628,0,0,0,69478,task3,982286,false,false,1189,image-keyboard-response,6
true,19,1,1,1,true,z,false,true,0.0-2.0-0.40-0.362-3.362,0,1,0,90,false,stim,false,2,572.6000000238419,0,0,2,69478,task3,984366,false,false,1192,image-keyboard-response,7
true,19,2,1,1,false,z,false,false,0.0-2.0-0.40-0.363-3.363,0,1,0,68,false,stim,true,2,1059.5,0,0,2,69478,task3,986934,false,false,1195,image-keyboard-response,8
true,19,1,1,0,false,q,true,false,0.0-2.0-0.40-0.364-3.364,0,1,0,90,false,stim,false,0,676.5,0,1,1,69478,task3,989117,false,false,1198,image-keyboard-response,9
true,19,1,1,0,false,q,true,false,0.0-2.0-0.40-0.365-3.365,0,1,0,90,false,stim,false,2,529.3999999761581,0,0,0,69478,task3,991165,false,false,1201,image-keyboard-response,10
true,19,1,1,1,true,z,false,true,0.0-2.0-0.40-0.366-3.366,0,1,0,90,false,stim,false,2,883.0,0,0,2,69478,task3,993558,false,false,1204,image-keyboard-response,11
true,19,0,1,0,true,q,false,true,0.0-2.0-0.40-0.367-3.367,0,1,0,81,false,stim,false,0,1467.1000000238419,0,1,1,69478,task3,996534,false,false,1207,image-keyboard-response,12
true,19,2,1,0,false,q,false,true,0.0-2.0-0.40-0.368-3.368,0,1,0,68,false,stim,true,2,841.2999999523163,0,0,0,69478,task3,998885,false,true,1210,image-keyboard-response,13
true,19,1,1,1,true,z,false,true,0.0-2.0-0.41-0.369-3.369,0,1,0,90,false,stim,false,2,1290.5,0,0,2,69478,task3,1001685,false,false,1213,image-keyboard-response,14
true,19,0,1,0,true,q,false,true,0.0-2.0-0.41-0.370-3.370,0,1,0,81,false,stim,false,0,850.5999999642372,0,1,1,69478,task3,1004045,false,false,1216,image-keyboard-response,15
true,19,1,1,1,true,z,false,true,0.0-2.0-0.41-0.371-3.371,0,1,0,90,false,stim,false,2,874.8000000119209,0,0,2,69478,task3,1006429,false,false,1219,image-keyboard-response,16
true,19,2,1,0,false,q,false,true,0.0-2.0-0.41-0.372-3.372,0,1,0,68,false,stim,true,2,732.5,0,0,0,69478,task3,1008670,false,true,1222,image-keyboard-response,17
true,19,2,1,0,false,q,false,false,0.0-2.0-0.41-0.373-3.373,0,1,0,68,false,stim,true,2,755.6999999880791,0,0,0,69478,task3,1010933,false,false,1225,image-keyboard-response,18
true,19,0,1,0,true,q,false,true,0.0-2.0-0.41-0.374-3.374,0,1,0,81,false,stim,false,0,1179.699999988079,0,1,1,69478,task3,1013621,false,false,1228,image-keyboard-response,19
true,19,2,1,0,false,q,false,false,0.0-2.0-0.41-0.375-3.375,0,1,0,68,false,stim,true,2,1156.1000000238419,0,1,0,69478,task3,1016285,false,false,1231,image-keyboard-response,20
true,19,1,1,1,true,z,false,true,0.0-2.0-0.41-0.376-3.376,0,1,0,90,false,stim,false,2,1988.199999988079,0,0,2,69478,task3,1019782,false,false,1234,image-keyboard-response,21
true,19,0,1,0,true,q,false,true,0.0-2.0-0.41-0.377-3.377,0,1,0,81,false,stim,false,0,755.8000000119209,0,0,1,69478,task3,1022045,false,false,1237,image-keyboard-response,22
true,19,2,1,0,false,q,false,false,0.0-2.0-0.42-0.378-3.378,0,1,0,68,false,stim,true,2,872.1999999880791,0,1,0,69478,task3,1024430,false,false,1240,image-keyboard-response,23
true,19,0,1,0,true,q,false,true,0.0-2.0-0.42-0.379-3.379,0,1,0,81,false,stim,false,2,732.1999999880791,0,1,0,69478,task3,1026669,false,false,1243,image-keyboard-response,24
true,20,0,1,0,true,q,false,true,0.0-2.0-0.42-0.380-3.380,1,0,0,81,true,stim,false,0,674.1000000238419,0,1,0,69478,task3,1028852,false,false,1246,image-keyboard-response,1
true,20,1,1,0,false,q,false,false,0.0-2.0-0.42-0.381-3.381,1,0,0,90,false,stim,true,1,542.5999999642372,0,0,2,69478,task3,1030901,false,false,1249,image-keyboard-response,2
true,20,0,1,1,false,z,false,false,0.0-2.0-0.42-0.382-3.382,1,0,0,81,false,stim,true,0,1443.0999999642372,0,0,1,69478,task3,1033853,false,false,1252,image-keyboard-response,3
true,20,0,1,0,true,q,false,true,0.0-2.0-0.42-0.383-3.383,1,0,0,81,false,stim,false,1,1666.699999988079,0,0,2,69478,task3,1037030,false,false,1255,image-keyboard-response,4
true,20,1,1,1,true,z,false,true,0.0-2.0-0.42-0.384-3.384,1,0,0,90,false,stim,false,0,858.3000000119209,0,0,1,69478,task3,1039397,false,false,1258,image-keyboard-response,5
true,20,1,1,0,false,q,false,false,0.0-2.0-0.42-0.385-3.385,1,0,0,90,false,stim,true,1,870.5999999642372,0,0,2,69478,task3,1041774,false,false,1261,image-keyboard-response,6
true,20,1,1,1,true,z,false,false,0.0-2.0-0.42-0.386-3.386,1,0,0,90,false,stim,false,0,475.69999998807907,0,0,1,69478,task3,1043757,false,true,1264,image-keyboard-response,7
true,20,1,1,1,true,z,false,true,0.0-2.0-0.43-0.387-3.387,1,0,0,90,false,stim,false,0,811.1999999880791,0,0,1,69478,task3,1046077,false,false,1267,image-keyboard-response,8
true,20,2,1,0,false,q,true,false,0.0-2.0-0.43-0.388-3.388,1,0,0,68,false,stim,false,0,1379.300000011921,0,1,0,69478,task3,1048965,false,false,1270,image-keyboard-response,9
true,20,0,1,0,true,q,false,false,0.0-2.0-0.43-0.389-3.389,1,0,0,81,false,stim,false,0,572.3000000119209,0,1,0,69478,task3,1051045,false,true,1273,image-keyboard-response,10
true,20,1,1,1,true,z,false,true,0.0-2.0-0.43-0.390-3.390,1,0,0,90,false,stim,false,0,414.4000000357628,0,1,1,69478,task3,1052966,false,false,1276,image-keyboard-response,11
true,20,2,1,0,false,q,true,true,0.0-2.0-0.43-0.391-3.391,1,0,0,68,false,stim,false,1,1322.4000000357628,0,1,2,69478,task3,1055797,false,true,1279,image-keyboard-response,12
true,20,2,1,0,false,q,true,false,0.0-2.0-0.43-0.392-3.392,1,0,0,68,false,stim,false,1,1811.5,0,1,2,69478,task3,1059117,false,false,1282,image-keyboard-response,13
true,20,1,1,1,true,z,false,true,0.0-2.0-0.43-0.393-3.393,1,0,0,90,false,stim,false,0,627.2000000476837,0,1,1,69478,task3,1061253,false,false,1285,image-keyboard-response,14
true,20,2,1,0,false,q,true,false,0.0-2.0-0.43-0.394-3.394,1,0,0,68,false,stim,false,1,611.3000000119209,0,1,2,69478,task3,1063374,false,false,1288,image-keyboard-response,15
true,21,2,2,1,false,z,true,false,0.0-2.0-0.43-0.395-3.395,0,1,1,68,true,stim,false,0,897.6999999880791,0,0,0,69478,task3,1065781,false,false,1291,image-keyboard-response,1
true,21,0,2,1,false,z,false,false,0.0-2.0-0.44-0.396-3.396,0,1,1,81,false,stim,true,0,627.6999999880791,0,0,0,69478,task3,1067917,false,false,1294,image-keyboard-response,2
true,21,1,2,1,true,z,false,true,0.0-2.0-0.44-0.397-3.397,0,1,1,90,false,stim,false,1,643.7999999523163,0,1,1,69478,task3,1070069,false,false,1297,image-keyboard-response,3
true,21,1,2,0,false,q,true,true,0.0-2.0-0.44-0.398-3.398,0,1,1,90,false,stim,false,0,618.5999999642372,0,1,2,69478,task3,1072197,false,true,1300,image-keyboard-response,4
true,21,1,2,1,true,z,false,true,0.0-2.0-0.44-0.399-3.399,0,1,1,90,false,stim,false,0,332.2000000476837,0,0,0,69478,task3,1074054,false,false,1303,image-keyboard-response,5
true,21,1,2,0,false,q,true,false,0.0-2.0-0.44-0.400-3.400,0,1,1,90,false,stim,false,0,282.89999997615814,0,1,2,69478,task3,1075845,false,false,1306,image-keyboard-response,6
true,21,1,2,1,true,z,false,true,0.0-2.0-0.44-0.401-3.401,0,1,1,90,false,stim,false,1,642.8000000119209,0,1,1,69478,task3,1077997,false,false,1309,image-keyboard-response,7
true,21,1,2,1,true,z,false,true,0.0-2.0-0.44-0.402-3.402,0,1,1,90,false,stim,false,1,611.9000000357628,0,1,1,69478,task3,1080117,false,false,1312,image-keyboard-response,8
true,21,2,2,1,false,z,true,false,0.0-2.0-0.44-0.403-3.403,0,1,1,68,false,stim,false,0,1578.4000000357628,0,0,0,69478,task3,1083205,false,false,1315,image-keyboard-response,9
true,21,1,2,0,false,q,true,false,0.0-2.0-0.44-0.404-3.404,0,1,1,90,false,stim,false,0,740.3999999761581,0,1,2,69478,task3,1085453,false,false,1318,image-keyboard-response,10
true,21,0,2,1,false,z,false,true,0.0-2.0-0.45-0.405-3.405,0,1,1,81,false,stim,true,0,811.0,0,1,0,69478,task3,1087773,false,true,1321,image-keyboard-response,11
true,21,1,2,1,true,z,false,true,0.0-2.0-0.45-0.406-3.406,0,1,1,90,false,stim,false,1,484.0,0,0,1,69478,task3,1089765,false,false,1324,image-keyboard-response,12
true,21,0,2,1,false,z,false,false,0.0-2.0-0.45-0.407-3.407,0,1,1,81,false,stim,true,0,547.5,0,1,0,69478,task3,1091821,false,false,1327,image-keyboard-response,13
true,21,2,2,0,false,q,true,false,0.0-2.0-0.45-0.408-3.408,0,1,1,68,false,stim,false,0,907.5,0,0,2,69478,task3,1094236,false,false,1330,image-keyboard-response,14
true,21,1,2,0,false,q,true,false,0.0-2.0-0.45-0.409-3.409,0,1,1,90,false,stim,false,0,706.8999999761581,0,0,2,69478,task3,1096453,false,false,1333,image-keyboard-response,15
true,22,0,1,1,false,z,true,false,0.0-2.0-0.45-0.410-3.410,1,0,0,81,true,stim,false,1,707.9000000357628,0,1,0,69478,task3,1098669,false,false,1336,image-keyboard-response,1
true,22,1,1,2,false,d,false,false,0.0-2.0-0.45-0.411-3.411,1,0,0,90,false,stim,true,1,908.3999999761581,0,0,1,69478,task3,1101084,false,false,1339,image-keyboard-response,2
true,22,0,1,2,false,d,true,false,0.0-2.0-0.45-0.412-3.412,1,0,0,81,false,stim,false,1,1660.3999999761581,0,0,1,69478,task3,1104253,false,false,1342,image-keyboard-response,3
true,22,2,1,2,true,d,false,true,0.0-2.0-0.45-0.413-3.413,1,0,0,68,false,stim,false,0,1313.5,0,0,2,69478,task3,1107077,false,false,1345,image-keyboard-response,4
true,22,1,1,2,false,d,false,false,0.0-2.0-0.46-0.414-3.414,1,0,0,90,false,stim,true,1,724.3000000119209,0,0,1,69478,task3,1109308,false,false,1348,image-keyboard-response,5
true,22,1,1,1,true,z,false,false,0.0-2.0-0.46-0.415-3.415,1,0,0,90,false,stim,false,1,634.8000000119209,0,1,0,69478,task3,1111451,false,true,1351,image-keyboard-response,6
true,22,1,1,2,false,d,true,false,0.0-2.0-0.46-0.416-3.416,1,0,0,90,false,stim,false,0,638.1999999880791,0,0,2,69478,task3,1113595,false,false,1354,image-keyboard-response,7
true,22,2,1,2,true,d,false,false,0.0-2.0-0.46-0.417-3.417,1,0,0,68,false,stim,false,1,996.8999999761581,0,0,1,69478,task3,1116100,false,true,1357,image-keyboard-response,8
true,22,0,1,2,false,d,true,false,0.0-2.0-0.46-0.418-3.418,1,0,0,81,false,stim,false,1,753.3000000119209,0,0,1,69478,task3,1118365,false,false,1360,image-keyboard-response,9
true,22,2,1,2,true,d,false,true,0.0-2.0-0.46-0.419-3.419,1,0,0,68,false,stim,false,0,770.5,0,0,2,69478,task3,1120643,false,false,1363,image-keyboard-response,10
true,22,1,1,1,true,z,false,true,0.0-2.0-0.46-0.420-3.420,1,0,0,90,false,stim,false,1,718.5,0,1,0,69478,task3,1122868,false,false,1366,image-keyboard-response,11
true,22,1,1,1,true,z,false,true,0.0-2.0-0.46-0.421-3.421,1,0,0,90,false,stim,false,1,658.8000000119209,0,1,0,69478,task3,1125036,false,false,1369,image-keyboard-response,12
true,22,2,1,2,true,d,false,true,0.0-2.0-0.46-0.422-3.422,1,0,0,68,false,stim,false,0,779.1999999880791,0,0,2,69478,task3,1127324,false,false,1372,image-keyboard-response,13
true,22,0,1,2,false,d,true,false,0.0-2.0-0.47-0.423-3.423,1,0,0,81,false,stim,false,1,876.1000000238419,0,0,1,69478,task3,1129709,false,false,1375,image-keyboard-response,14
true,22,1,1,1,true,z,false,true,0.0-2.0-0.47-0.424-3.424,1,0,0,90,false,stim,false,1,603.1999999880791,0,1,0,69478,task3,1131820,false,false,1378,image-keyboard-response,15
true,22,1,1,1,true,z,false,true,0.0-2.0-0.47-0.425-3.425,1,0,0,90,false,stim,false,1,498.0999999642372,0,1,0,69478,task3,1133828,false,false,1381,image-keyboard-response,16
true,22,1,1,1,true,z,false,true,0.0-2.0-0.47-0.426-3.426,1,0,0,90,false,stim,false,1,451.0999999642372,0,1,0,69478,task3,1135788,false,false,1384,image-keyboard-response,17
true,22,2,1,2,true,d,false,true,0.0-2.0-0.47-0.427-3.427,1,0,0,68,false,stim,false,1,571.8000000119209,0,0,1,69478,task3,1137868,false,false,1387,image-keyboard-response,18
true,22,2,1,2,true,d,false,true,0.0-2.0-0.47-0.428-3.428,1,0,0,68,false,stim,false,0,420.5,0,0,2,69478,task3,1139797,false,false,1390,image-keyboard-response,19
true,22,2,1,2,true,d,false,true,0.0-2.0-0.47-0.429-3.429,1,0,0,68,false,stim,false,0,563.3000000119209,0,0,2,69478,task3,1141868,false,false,1393,image-keyboard-response,20
true,22,2,1,2,true,d,false,true,0.0-2.0-0.47-0.430-3.430,1,0,0,68,false,stim,false,0,380.60000002384186,0,0,2,69478,task3,1143757,false,false,1396,image-keyboard-response,21
true,22,2,1,2,true,d,false,true,0.0-2.0-0.47-0.431-3.431,1,0,0,68,false,stim,false,1,875.8999999761581,0,0,1,69478,task3,1146141,false,false,1399,image-keyboard-response,22
true,22,2,1,2,true,d,false,true,0.0-2.0-0.48-0.432-3.432,1,0,0,68,false,stim,false,1,376.0,0,0,1,69478,task3,1148045,false,false,1402,image-keyboard-response,23
true,22,2,1,2,true,d,false,true,0.0-2.0-0.48-0.433-3.433,1,0,0,68,false,stim,false,1,387.7000000476837,0,0,1,69478,task3,1149941,false,false,1405,image-keyboard-response,24
true,23,2,1,1,false,z,true,false,0.0-2.0-0.48-0.434-3.434,1,0,0,68,true,stim,false,1,402.39999997615814,0,1,0,69478,task3,1151853,false,false,1408,image-keyboard-response,1
true,23,2,1,1,false,z,false,false,0.0-2.0-0.48-0.435-3.435,1,0,0,68,false,stim,true,2,730.5,0,0,2,69478,task3,1154092,false,false,1411,image-keyboard-response,2
true,23,1,1,1,true,z,false,true,0.0-2.0-0.48-0.436-3.436,1,0,0,90,false,stim,false,2,940.3000000119209,0,0,2,69478,task3,1156541,false,false,1414,image-keyboard-response,3
true,23,1,1,0,false,q,true,false,0.0-2.0-0.48-0.437-3.437,1,0,0,90,false,stim,false,2,612.3999999761581,0,0,1,69478,task3,1158661,false,false,1417,image-keyboard-response,4
true,23,1,1,1,true,z,false,true,0.0-2.0-0.48-0.438-3.438,1,0,0,90,false,stim,false,1,1292.300000011921,0,1,0,69478,task3,1161461,false,false,1420,image-keyboard-response,5
true,23,1,1,1,true,z,false,true,0.0-2.0-0.48-0.439-3.439,1,0,0,90,false,stim,false,2,506.5,0,0,2,69478,task3,1163477,false,false,1423,image-keyboard-response,6
true,23,1,1,1,true,z,false,true,0.0-2.0-0.48-0.440-3.440,1,0,0,90,false,stim,false,1,514.6999999880791,0,1,0,69478,task3,1165501,false,false,1426,image-keyboard-response,7
true,23,1,1,1,true,z,false,true,0.0-2.0-0.49-0.441-3.441,1,0,0,90,false,stim,false,2,507.2000000476837,0,0,2,69478,task3,1167517,false,false,1429,image-keyboard-response,8
true,23,1,1,1,true,z,false,true,0.0-2.0-0.49-0.442-3.442,1,0,0,90,false,stim,false,1,316.19999998807907,0,1,0,69478,task3,1169341,false,false,1432,image-keyboard-response,9
true,23,1,1,1,true,z,false,true,0.0-2.0-0.49-0.443-3.443,1,0,0,90,false,stim,false,1,538.1999999880791,0,1,0,69478,task3,1171389,false,false,1435,image-keyboard-response,10
true,23,1,1,1,true,z,false,true,0.0-2.0-0.49-0.444-3.444,1,0,0,90,false,stim,false,2,482.5,0,0,2,69478,task3,1173381,false,false,1438,image-keyboard-response,11
true,23,1,1,1,true,z,false,false,0.0-2.0-0.49-0.445-3.445,1,0,0,90,false,stim,false,2,442.69999998807907,0,0,2,69478,task3,1175333,false,true,1441,image-keyboard-response,12
true,23,2,1,0,false,q,false,false,0.0-2.0-0.49-0.446-3.446,1,0,0,68,false,stim,true,2,1067.3999999761581,0,0,1,69478,task3,1177909,false,false,1444,image-keyboard-response,13
true,23,0,1,0,true,q,false,true,0.0-2.0-0.49-0.447-3.447,1,0,0,81,false,stim,false,2,859.1999999880791,0,0,1,69478,task3,1180277,false,false,1447,image-keyboard-response,14
true,23,0,1,0,true,q,false,true,0.0-2.0-0.49-0.448-3.448,1,0,0,81,false,stim,false,2,457.10000002384186,0,0,1,69478,task3,1182245,false,false,1450,image-keyboard-response,15
true,23,1,1,1,true,z,false,true,0.0-2.0-0.49-0.449-3.449,1,0,0,90,false,stim,false,1,553.8999999761581,0,1,0,69478,task3,1184309,false,false,1453,image-keyboard-response,16
true,23,1,1,1,true,z,false,true,0.0-2.0-0.50-0.450-3.450,1,0,0,90,false,stim,false,2,747.2999999523163,0,0,2,69478,task3,1186565,false,false,1456,image-keyboard-response,17
true,23,0,1,1,false,z,true,false,0.0-2.0-0.50-0.451-3.451,1,0,0,81,false,stim,false,1,643.1000000238419,0,1,0,69478,task3,1188716,false,false,1459,image-keyboard-response,18
true,23,0,1,0,true,q,false,true,0.0-2.0-0.50-0.452-3.452,1,0,0,81,false,stim,false,2,851.3999999761581,0,0,1,69478,task3,1191076,false,false,1462,image-keyboard-response,19
true,23,1,1,1,true,z,false,false,0.0-2.0-0.50-0.453-3.453,1,0,0,90,false,stim,false,1,364.0,0,1,0,69478,task3,1192948,false,true,1465,image-keyboard-response,20
true,23,0,1,1,false,z,true,false,0.0-2.0-0.50-0.454-3.454,1,0,0,81,false,stim,false,1,555.8000000119209,0,1,0,69478,task3,1195013,false,false,1468,image-keyboard-response,21
true,23,2,1,0,false,q,false,false,0.0-2.0-0.50-0.455-3.455,1,0,0,68,false,stim,true,2,427.5999999642372,0,0,1,69478,task3,1196949,false,false,1471,image-keyboard-response,22
true,23,0,1,0,true,q,false,false,0.0-2.0-0.50-0.456-3.456,1,0,0,81,false,stim,false,2,500.2999999523163,0,0,1,69478,task3,1198957,false,true,1474,image-keyboard-response,23
true,23,0,1,1,false,z,true,false,0.0-2.0-0.50-0.457-3.457,1,0,0,81,false,stim,false,2,1003.6999999880791,0,0,2,69478,task3,1201468,false,false,1477,image-keyboard-response,24
true,23,2,1,1,false,z,false,false,0.0-2.0-0.50-0.458-3.458,1,0,0,68,false,stim,true,2,587.6999999880791,0,1,2,69478,task3,1203564,false,false,1480,image-keyboard-response,25
true,23,1,1,1,true,z,false,true,0.0-2.0-0.51-0.459-3.459,1,0,0,90,false,stim,false,2,138.80000001192093,0,1,2,69478,task3,1205213,false,false,1483,image-keyboard-response,26
true,23,0,1,0,true,q,false,true,0.0-2.0-0.51-0.460-3.460,1,0,0,81,false,stim,false,2,1041.699999988079,0,0,1,69478,task3,1207764,false,false,1486,image-keyboard-response,27
true,23,0,1,0,true,q,false,true,0.0-2.0-0.51-0.461-3.461,1,0,0,81,false,stim,false,2,1002.6999999880791,0,0,1,69478,task3,1210276,false,false,1489,image-keyboard-response,28
true,23,1,1,1,true,z,false,true,0.0-2.0-0.51-0.462-3.462,1,0,0,90,false,stim,false,2,353.4000000357628,0,1,2,69478,task3,1212140,false,false,1492,image-keyboard-response,29
true,24,2,2,1,false,z,true,false,0.0-2.0-0.51-0.463-3.463,1,0,1,68,true,stim,false,1,924.3000000119209,0,1,0,69478,task3,1214572,false,false,1495,image-keyboard-response,1
true,24,1,2,1,true,z,false,true,0.0-2.0-0.51-0.464-3.464,1,0,1,90,false,stim,false,1,786.9000000357628,0,1,0,69478,task3,1216869,false,false,1498,image-keyboard-response,2
true,24,0,2,2,false,d,false,false,0.0-2.0-0.51-0.465-3.465,1,0,1,81,false,stim,true,0,1113.5,0,0,1,69478,task3,1219508,false,false,1501,image-keyboard-response,3
true,24,1,2,1,true,z,false,true,0.0-2.0-0.51-0.466-3.466,1,0,1,90,false,stim,false,1,1011.3000000119209,0,1,0,69478,task3,1222028,false,false,1504,image-keyboard-response,4
true,24,1,2,1,true,z,false,true,0.0-2.0-0.51-0.467-3.467,1,0,1,90,false,stim,false,1,1346.199999988079,0,1,2,69478,task3,1224884,false,false,1507,image-keyboard-response,5
true,24,1,2,2,false,d,true,false,0.0-2.0-0.52-0.468-3.468,1,0,1,90,false,stim,false,0,1539.2000000476837,0,0,1,69478,task3,1227933,false,false,1510,image-keyboard-response,6
true,24,1,2,1,true,z,false,true,0.0-2.0-0.52-0.469-3.469,1,0,1,90,false,stim,false,1,666.8000000119209,0,1,2,69478,task3,1230108,false,false,1513,image-keyboard-response,7
true,24,1,2,1,true,z,false,true,0.0-2.0-0.52-0.470-3.470,1,0,1,90,false,stim,false,1,568.8999999761581,0,1,2,69478,task3,1232188,false,false,1516,image-keyboard-response,8
true,24,1,2,1,true,z,false,true,0.0-2.0-0.52-0.471-3.471,1,0,1,90,false,stim,false,1,522.3999999761581,0,1,2,69478,task3,1234220,false,false,1519,image-keyboard-response,9
true,24,1,2,2,false,d,true,false,0.0-2.0-0.52-0.472-3.472,1,0,1,90,false,stim,false,0,378.69999998807907,0,0,1,69478,task3,1236108,false,false,1522,image-keyboard-response,10
true,24,1,2,1,true,z,false,false,0.0-2.0-0.52-0.473-3.473,1,0,1,90,false,stim,false,1,619.3000000119209,0,1,0,69478,task3,1238237,false,true,1525,image-keyboard-response,11
true,24,2,2,1,false,z,true,false,0.0-2.0-0.52-0.474-3.474,1,0,1,68,false,stim,false,1,595.1999999880791,0,1,0,69478,task3,1240340,false,false,1528,image-keyboard-response,12
true,24,0,2,1,false,z,true,false,0.0-2.0-0.52-0.475-3.475,1,0,1,81,false,stim,false,1,658.5999999642372,0,1,0,69478,task3,1242508,false,false,1531,image-keyboard-response,13
true,24,0,2,2,false,d,false,false,0.0-2.0-0.52-0.476-3.476,1,0,1,81,false,stim,true,0,1202.5999999642372,0,0,1,69478,task3,1245220,false,false,1534,image-keyboard-response,14
true,24,1,2,2,false,d,true,false,0.0-2.0-0.53-0.477-3.477,1,0,1,90,false,stim,false,0,409.69999998807907,0,0,1,69478,task3,1247140,false,false,1537,image-keyboard-response,15
true,24,0,2,1,false,z,true,false,0.0-2.0-0.53-0.478-3.478,1,0,1,81,false,stim,false,1,695.0,0,1,0,69478,task3,1249341,false,false,1540,image-keyboard-response,16
true,24,2,2,2,true,d,false,false,0.0-2.0-0.53-0.479-3.479,1,0,1,68,false,stim,false,0,410.2000000476837,0,0,1,69478,task3,1251260,false,true,1543,image-keyboard-response,17
true,24,1,2,1,true,z,false,true,0.0-2.0-0.53-0.480-3.480,1,0,1,90,false,stim,false,1,641.3999999761581,0,1,2,69478,task3,1253412,false,false,1546,image-keyboard-response,18
true,24,0,2,1,false,z,true,false,0.0-2.0-0.53-0.481-3.481,1,0,1,81,false,stim,false,1,1307.0,0,1,0,69478,task3,1256228,false,false,1549,image-keyboard-response,19
true,24,2,2,1,false,z,true,false,0.0-2.0-0.53-0.482-3.482,1,0,1,68,false,stim,false,1,1072.300000011921,0,1,0,69478,task3,1258812,false,false,1552,image-keyboard-response,20
true,24,1,2,1,true,z,false,false,0.0-2.0-0.53-0.483-3.483,1,0,1,90,false,stim,false,1,1058.8999999761581,0,1,2,69478,task3,1261380,false,true,1555,image-keyboard-response,21
true,24,0,2,2,false,d,false,false,0.0-2.0-0.53-0.484-3.484,1,0,1,81,false,stim,true,0,859.0,0,0,1,69478,task3,1263748,false,false,1558,image-keyboard-response,22
true,24,2,2,1,false,z,true,false,0.0-2.0-0.53-0.485-3.485,1,0,1,68,false,stim,false,1,913.3999999761581,0,1,2,69478,task3,1266172,false,false,1561,image-keyboard-response,23
true,24,0,2,1,false,z,true,false,0.0-2.0-0.54-0.486-3.486,1,0,1,81,false,stim,false,1,1169.199999988079,0,1,2,69478,task3,1268852,false,false,1564,image-keyboard-response,24
true,24,1,2,1,true,z,false,false,0.0-2.0-0.54-0.487-3.487,1,0,1,90,false,stim,false,1,674.0,0,1,2,69478,task3,1271036,false,true,1567,image-keyboard-response,25
true,24,2,2,1,false,z,true,false,0.0-2.0-0.54-0.488-3.488,1,0,1,68,false,stim,false,1,570.2999999523163,0,1,2,69478,task3,1273117,false,false,1570,image-keyboard-response,26
true,24,0,2,1,false,z,true,false,0.0-2.0-0.54-0.489-3.489,1,0,1,81,false,stim,false,1,746.6000000238419,0,0,0,69478,task3,1275372,false,false,1573,image-keyboard-response,27
true,24,0,2,1,false,z,true,false,0.0-2.0-0.54-0.490-3.490,1,0,1,81,false,stim,false,1,1651.0999999642372,0,0,0,69478,task3,1278532,false,false,1576,image-keyboard-response,28
true,25,1,1,2,false,d,false,true,0.0-2.0-0.54-0.491-3.491,0,0,1,90,true,stim,true,1,649.0999999642372,0,0,0,69478,task3,1280692,false,true,1579,image-keyboard-response,1
true,25,0,1,1,false,z,true,false,0.0-2.0-0.54-0.492-3.492,0,0,1,81,false,stim,false,2,762.6999999880791,0,0,1,69478,task3,1282964,false,false,1582,image-keyboard-response,2
true,25,2,1,1,false,z,false,false,0.0-2.0-0.54-0.493-3.493,0,0,1,68,false,stim,true,2,882.7999999523163,0,0,1,69478,task3,1285357,false,false,1585,image-keyboard-response,3
true,25,0,1,1,false,z,true,true,0.0-2.0-0.54-0.494-3.494,0,0,1,81,false,stim,false,2,609.1999999880791,0,0,1,69478,task3,1287476,false,true,1588,image-keyboard-response,4
true,25,0,1,1,false,z,true,false,0.0-2.0-0.55-0.495-3.495,0,0,1,81,false,stim,false,2,1105.699999988079,0,0,1,69478,task3,1290092,false,false,1591,image-keyboard-response,5
true,25,2,1,1,false,z,true,false,0.0-2.0-0.55-0.496-3.496,0,0,1,68,false,stim,false,1,969.0,0,1,2,69478,task3,1292572,false,false,1594,image-keyboard-response,6
true,25,2,1,1,false,z,false,false,0.0-2.0-0.55-0.497-3.497,0,0,1,68,false,stim,true,2,969.0999999642372,0,1,1,69478,task3,1295052,false,false,1597,image-keyboard-response,7
true,25,1,1,2,false,d,false,false,0.0-2.0-0.55-0.498-3.498,0,0,1,90,false,stim,true,1,444.19999998807907,0,1,0,69478,task3,1297005,false,false,1600,image-keyboard-response,8
true,25,1,1,2,false,d,false,true,0.0-2.0-0.55-0.499-3.499,0,0,1,90,false,stim,true,1,400.69999998807907,0,1,0,69478,task3,1298932,false,true,1603,image-keyboard-response,9
true,25,1,1,2,false,d,false,false,0.0-2.0-0.55-0.500-3.500,0,0,1,90,false,stim,true,1,402.2999999523163,0,1,0,69478,task3,1300844,false,false,1606,image-keyboard-response,10
true,25,0,1,1,false,z,true,false,0.0-2.0-0.55-0.501-3.501,0,0,1,81,false,stim,false,1,586.5,0,1,2,69478,task3,1302940,false,false,1609,image-keyboard-response,11
true,26,0,0,1,false,z,true,false,0.0-2.0-0.55-0.502-3.502,1,1,1,81,true,stim,false,1,879.8000000119209,0,1,1,69478,task3,1425648,false,false,1732,image-keyboard-response,1
true,26,1,0,1,true,z,false,true,0.0-2.0-0.55-0.503-3.503,1,1,1,90,false,stim,false,1,681.8999999761581,0,1,2,69478,task3,1427840,false,false,1735,image-keyboard-response,2
true,26,1,0,1,true,z,false,true,0.0-2.0-0.56-0.504-3.504,1,1,1,90,false,stim,false,1,572.3999999761581,0,1,2,69478,task3,1429920,false,false,1738,image-keyboard-response,3
true,26,1,0,1,true,z,false,true,0.0-2.0-0.56-0.505-3.505,1,1,1,90,false,stim,false,1,529.5,0,1,2,69478,task3,1431960,false,false,1741,image-keyboard-response,4
true,26,0,0,2,false,d,true,false,0.0-2.0-0.56-0.506-3.506,1,1,1,81,false,stim,false,2,594.6999999880791,0,1,0,69478,task3,1434063,false,false,1744,image-keyboard-response,5
true,26,0,0,1,false,z,true,false,0.0-2.0-0.56-0.507-3.507,1,1,1,81,false,stim,false,1,1042.0999999642372,0,1,1,69478,task3,1436616,false,false,1747,image-keyboard-response,6
true,26,2,0,2,true,d,false,false,0.0-2.0-0.56-0.508-3.508,1,1,1,68,false,stim,false,2,712.8000000119209,0,1,0,69478,task3,1438839,false,true,1750,image-keyboard-response,7
true,26,1,0,1,true,z,false,true,0.0-2.0-0.56-0.509-3.509,1,1,1,90,false,stim,false,1,706.3000000119209,0,1,1,69478,task3,1441055,false,false,1753,image-keyboard-response,8
true,26,2,0,2,true,d,false,true,0.0-2.0-0.56-0.510-3.510,1,1,1,68,false,stim,false,2,1170.5,0,1,0,69478,task3,1443735,false,false,1756,image-keyboard-response,9
true,26,1,0,1,true,z,false,true,0.0-2.0-0.56-0.511-3.511,1,1,1,90,false,stim,false,1,857.6000000238419,0,1,1,69478,task3,1446108,false,false,1759,image-keyboard-response,10
true,26,1,0,1,true,z,false,true,0.0-2.0-0.56-0.512-3.512,1,1,1,90,false,stim,false,1,881.8000000119209,0,0,2,69478,task3,1448500,false,false,1762,image-keyboard-response,11
true,26,1,0,1,true,z,false,true,0.0-2.0-0.57-0.513-3.513,1,1,1,90,false,stim,false,1,1113.199999988079,0,1,1,69478,task3,1451124,false,false,1765,image-keyboard-response,12
true,26,1,0,1,true,z,false,false,0.0-2.0-0.57-0.514-3.514,1,1,1,90,false,stim,false,1,554.3000000119209,0,0,2,69478,task3,1453188,false,true,1768,image-keyboard-response,13
true,26,1,0,1,true,z,false,true,0.0-2.0-0.57-0.515-3.515,1,1,1,90,false,stim,false,1,626.0,0,1,1,69478,task3,1455323,false,false,1771,image-keyboard-response,14
true,26,1,0,2,false,d,true,false,0.0-2.0-0.57-0.516-3.516,1,1,1,90,false,stim,false,2,859.0999999642372,0,0,0,69478,task3,1457691,false,false,1774,image-keyboard-response,15
true,27,1,1,2,false,d,false,false,0.0-2.0-0.57-0.517-3.517,0,1,0,90,true,stim,true,1,442.19999998807907,0,0,2,69478,task3,1459644,false,false,1777,image-keyboard-response,1
true,27,2,1,0,false,q,false,false,0.0-2.0-0.57-0.518-3.518,0,1,0,68,false,stim,true,2,553.5999999642372,0,0,0,69478,task3,1461707,false,false,1780,image-keyboard-response,2
true,27,1,1,1,true,z,false,true,0.0-2.0-0.57-0.519-3.519,0,1,0,90,false,stim,false,1,1082.800000011921,0,1,1,69478,task3,1464300,false,false,1783,image-keyboard-response,3
true,27,0,1,0,true,q,false,true,0.0-2.0-0.57-0.520-3.520,0,1,0,81,false,stim,false,2,536.5,0,0,0,69478,task3,1466348,false,false,1786,image-keyboard-response,4
true,27,0,1,2,false,d,true,false,0.0-2.0-0.57-0.521-3.521,0,1,0,81,false,stim,false,1,1138.1000000238419,0,0,2,69478,task3,1468995,false,false,1789,image-keyboard-response,5
true,27,0,1,0,true,q,false,false,0.0-2.0-0.58-0.522-3.522,0,1,0,81,false,stim,false,2,723.6000000238419,0,0,0,69478,task3,1471228,false,true,1792,image-keyboard-response,6
true,27,1,1,2,false,d,false,false,0.0-2.0-0.58-0.523-3.523,0,1,0,90,false,stim,true,1,1241.0999999642372,0,0,2,69478,task3,1473979,false,false,1795,image-keyboard-response,7
true,27,2,1,2,true,d,false,true,0.0-2.0-0.58-0.524-3.524,0,1,0,68,false,stim,false,1,1050.699999988079,0,0,2,69478,task3,1476539,false,false,1798,image-keyboard-response,8
true,27,0,1,1,false,z,true,false,0.0-2.0-0.58-0.525-3.525,0,1,0,81,false,stim,false,1,1038.4000000357628,0,1,1,69478,task3,1479107,false,false,1801,image-keyboard-response,9
true,27,0,1,1,false,z,true,true,0.0-2.0-0.58-0.526-3.526,0,1,0,81,false,stim,false,1,570.8999999761581,0,1,1,69478,task3,1481187,false,true,1804,image-keyboard-response,10
true,27,1,1,0,false,q,true,false,0.0-2.0-0.58-0.527-3.527,0,1,0,90,false,stim,false,2,1066.699999988079,0,0,0,69478,task3,1483764,false,false,1807,image-keyboard-response,11
true,27,1,1,2,false,d,false,false,0.0-2.0-0.58-0.528-3.528,0,1,0,90,false,stim,true,1,794.1999999880791,0,0,2,69478,task3,1486067,false,false,1810,image-keyboard-response,12
true,27,1,1,1,true,z,false,true,0.0-2.0-0.58-0.529-3.529,0,1,0,90,false,stim,false,1,1210.0999999642372,0,1,1,69478,task3,1488787,false,false,1813,image-keyboard-response,13
true,27,0,1,0,true,q,false,true,0.0-2.0-0.58-0.530-3.530,0,1,0,81,false,stim,false,2,919.4000000357628,0,0,0,69478,task3,1491218,false,false,1816,image-keyboard-response,14
true,27,0,1,0,true,q,false,true,0.0-2.0-0.59-0.531-3.531,0,1,0,81,false,stim,false,2,421.0999999642372,0,0,0,69478,task3,1493147,false,false,1819,image-keyboard-response,15
true,27,2,1,2,true,d,false,true,0.0-2.0-0.59-0.532-3.532,0,1,0,68,false,stim,false,1,1793.800000011921,0,0,2,69478,task3,1496452,false,false,1822,image-keyboard-response,16
true,27,0,1,0,true,q,false,true,0.0-2.0-0.59-0.533-3.533,0,1,0,81,false,stim,false,2,1151.800000011921,0,0,0,69478,task3,1499115,false,false,1825,image-keyboard-response,17
true,27,2,1,2,true,d,false,true,0.0-2.0-0.59-0.534-3.534,0,1,0,68,false,stim,false,1,707.6999999880791,0,0,2,69478,task3,1501331,false,false,1828,image-keyboard-response,18
true,27,1,1,1,true,z,false,true,0.0-2.0-0.59-0.535-3.535,0,1,0,90,false,stim,false,1,763.1999999880791,0,1,1,69478,task3,1503603,false,false,1831,image-keyboard-response,19
true,27,0,1,0,true,q,false,false,0.0-2.0-0.59-0.536-3.536,0,1,0,81,false,stim,false,2,761.5999999642372,0,0,0,69478,task3,1505879,false,true,1834,image-keyboard-response,20
true,27,1,1,1,true,z,false,false,0.0-2.0-0.59-0.537-3.537,0,1,0,90,false,stim,false,1,820.0,0,1,1,69478,task3,1508208,false,true,1837,image-keyboard-response,21
true,27,2,1,1,false,z,true,false,0.0-2.0-0.59-0.538-3.538,0,1,0,68,false,stim,false,1,1144.199999988079,0,1,1,69478,task3,1510863,false,false,1840,image-keyboard-response,22
true,27,2,1,2,true,d,false,true,0.0-2.0-0.59-0.539-3.539,0,1,0,68,false,stim,false,1,1131.1000000238419,0,0,2,69478,task3,1513503,false,false,1843,image-keyboard-response,23
true,27,0,1,1,false,z,true,false,0.0-2.0-0.60-0.540-3.540,0,1,0,81,false,stim,false,1,1113.300000011921,0,1,1,69478,task3,1516128,false,false,1846,image-keyboard-response,24
true,27,2,1,2,true,d,false,true,0.0-2.0-0.60-0.541-3.541,0,1,0,68,false,stim,false,1,833.0,0,0,2,69478,task3,1518472,false,false,1849,image-keyboard-response,25
true,27,2,1,2,true,d,false,true,0.0-2.0-0.60-0.542-3.542,0,1,0,68,false,stim,false,1,601.1999999880791,0,0,2,69478,task3,1520583,false,false,1852,image-keyboard-response,26
true,28,2,1,1,false,z,true,false,0.0-2.0-0.60-0.543-3.543,0,1,0,68,true,stim,false,1,674.1999999880791,0,1,1,69478,task3,1522767,false,false,1855,image-keyboard-response,1
true,28,0,1,2,false,d,false,false,0.0-2.0-0.60-0.544-3.544,0,1,0,81,false,stim,true,0,1362.0,0,0,0,69478,task3,1525639,false,false,1858,image-keyboard-response,2
true,28,1,1,1,true,z,false,true,0.0-2.0-0.60-0.545-3.545,0,1,0,90,false,stim,false,1,874.4000000357628,0,1,1,69478,task3,1528023,false,false,1861,image-keyboard-response,3
true,28,2,1,0,false,q,false,false,0.0-2.0-0.60-0.546-3.546,0,1,0,68,false,stim,true,2,746.3999999761581,0,0,2,69478,task3,1530280,false,false,1864,image-keyboard-response,4
true,28,1,1,2,false,d,true,false,0.0-2.0-0.60-0.547-3.547,0,1,0,90,false,stim,false,0,759.8999999761581,0,0,0,69478,task3,1532551,false,false,1867,image-keyboard-response,5
true,28,0,1,2,false,d,false,false,0.0-2.0-0.60-0.548-3.548,0,1,0,81,false,stim,true,0,698.0,0,0,0,69478,task3,1534759,false,false,1870,image-keyboard-response,6
true,28,0,1,0,true,q,false,true,0.0-2.0-0.61-0.549-3.549,0,1,0,81,false,stim,false,2,778.0,0,0,2,69478,task3,1537047,false,false,1873,image-keyboard-response,7
true,28,1,1,1,true,z,false,true,0.0-2.0-0.61-0.550-3.550,0,1,0,90,false,stim,false,1,1882.5,0,1,1,69478,task3,1540440,false,false,1876,image-keyboard-response,8
true,28,2,1,2,true,d,false,true,0.0-2.0-0.61-0.551-3.551,0,1,0,68,false,stim,false,0,936.9000000357628,0,0,0,69478,task3,1542887,false,false,1879,image-keyboard-response,9
true,28,0,1,0,true,q,false,true,0.0-2.0-0.61-0.552-3.552,0,1,0,81,false,stim,false,2,545.7000000476837,0,0,2,69478,task3,1544943,false,false,1882,image-keyboard-response,10
true,28,0,1,0,true,q,false,false,0.0-2.0-0.61-0.553-3.553,0,1,0,81,false,stim,false,2,491.19999998807907,0,0,2,69478,task3,1546943,false,true,1885,image-keyboard-response,11
true,28,2,1,2,true,d,false,true,0.0-2.0-0.61-0.554-3.554,0,1,0,68,false,stim,false,0,1026.4000000357628,0,0,0,69478,task3,1549479,false,false,1888,image-keyboard-response,12
true,28,1,1,1,true,z,false,true,0.0-2.0-0.61-0.555-3.555,0,1,0,90,false,stim,false,1,657.7000000476837,0,1,1,69478,task3,1551648,false,false,1891,image-keyboard-response,13
true,28,1,1,1,true,z,false,true,0.0-2.0-0.61-0.556-3.556,0,1,0,90,false,stim,false,1,465.5999999642372,0,1,1,69478,task3,1553623,false,false,1894,image-keyboard-response,14
true,28,2,1,2,true,d,false,true,0.0-2.0-0.61-0.557-3.557,0,1,0,68,false,stim,false,0,627.0,0,0,0,69478,task3,1555759,false,false,1897,image-keyboard-response,15
true,28,1,1,1,true,z,false,true,0.0-2.0-0.62-0.558-3.558,0,1,0,90,false,stim,false,1,1009.9000000357628,0,1,1,69478,task3,1558279,false,false,1900,image-keyboard-response,16
true,28,2,1,2,true,d,false,false,0.0-2.0-0.62-0.559-3.559,0,1,0,68,false,stim,false,0,860.5,0,0,0,69478,task3,1560671,false,true,1903,image-keyboard-response,17
true,28,2,1,0,false,q,false,false,0.0-2.0-0.62-0.560-3.560,0,1,0,68,false,stim,true,2,1258.699999988079,0,0,2,69478,task3,1563440,false,false,1906,image-keyboard-response,18
true,28,1,1,1,true,z,false,true,0.0-2.0-0.62-0.561-3.561,0,1,0,90,false,stim,false,1,1465.3999999761581,0,1,1,69478,task3,1566419,false,false,1909,image-keyboard-response,19
true,28,1,1,0,false,q,true,false,0.0-2.0-0.62-0.562-3.562,0,1,0,90,false,stim,false,2,792.0999999642372,0,0,2,69478,task3,1568723,false,false,1912,image-keyboard-response,20
true,28,2,1,2,true,d,false,true,0.0-2.0-0.62-0.563-3.563,0,1,0,68,false,stim,false,0,810.5,0,0,0,69478,task3,1571043,false,false,1915,image-keyboard-response,21
true,28,2,1,2,true,d,false,false,0.0-2.0-0.62-0.564-3.564,0,1,0,68,false,stim,false,0,585.8999999761581,0,0,0,69478,task3,1573139,false,true,1918,image-keyboard-response,22
true,28,1,1,0,false,q,true,false,0.0-2.0-0.62-0.565-3.565,0,1,0,90,false,stim,false,2,793.8999999761581,0,0,2,69478,task3,1575443,false,false,1921,image-keyboard-response,23
true,28,0,1,1,false,z,true,false,0.0-2.0-0.62-0.566-3.566,0,1,0,81,false,stim,false,1,560.9000000357628,0,1,1,69478,task3,1577515,false,false,1924,image-keyboard-response,24
true,28,0,1,1,false,z,true,false,0.0-2.0-0.63-0.567-3.567,0,1,0,81,false,stim,false,1,744.2999999523163,0,1,1,69478,task3,1579771,false,false,1927,image-keyboard-response,25
true,28,0,1,2,false,d,false,false,0.0-2.0-0.63-0.568-3.568,0,1,0,81,false,stim,true,0,722.6000000238419,0,1,0,69478,task3,1582003,false,false,1930,image-keyboard-response,26
true,28,1,1,0,false,q,true,false,0.0-2.0-0.63-0.569-3.569,0,1,0,90,false,stim,false,2,587.2000000476837,0,0,2,69478,task3,1584100,false,false,1933,image-keyboard-response,27
true,28,1,1,1,true,z,false,false,0.0-2.0-0.63-0.570-3.570,0,1,0,90,false,stim,false,1,688.6000000238419,0,0,1,69478,task3,1586299,false,true,1936,image-keyboard-response,28
true,28,2,1,2,true,d,false,true,0.0-2.0-0.63-0.571-3.571,0,1,0,68,false,stim,false,0,657.3000000119209,0,1,0,69478,task3,1588467,false,false,1939,image-keyboard-response,29
true,28,2,1,2,true,d,false,true,0.0-2.0-0.63-0.572-3.572,0,1,0,68,false,stim,false,0,570.6000000238419,0,1,0,69478,task3,1590547,false,false,1942,image-keyboard-response,30
true,29,1,1,1,true,z,false,true,0.0-2.0-0.63-0.573-3.573,1,0,0,90,true,stim,false,0,641.1000000238419,0,0,2,69478,task3,1592699,false,false,1945,image-keyboard-response,1
true,29,0,1,2,false,d,true,false,0.0-2.0-0.63-0.574-3.574,1,0,0,81,false,stim,false,1,2177.600000023842,0,0,1,69478,task3,1596387,false,false,1948,image-keyboard-response,2
true,29,1,1,1,true,z,false,true,0.0-2.0-0.63-0.575-3.575,1,0,0,90,false,stim,false,0,624.1000000238419,0,0,2,69478,task3,1598523,false,false,1951,image-keyboard-response,3
true,29,1,1,1,true,z,false,true,0.0-2.0-0.64-0.576-3.576,1,0,0,90,false,stim,false,0,506.89999997615814,0,0,2,69478,task3,1600539,false,false,1954,image-keyboard-response,4
true,29,2,1,2,true,d,false,true,0.0-2.0-0.64-0.577-3.577,1,0,0,68,false,stim,false,2,978.0,0,1,0,69478,task3,1603027,false,false,1957,image-keyboard-response,5
true,29,1,1,1,true,z,false,true,0.0-2.0-0.64-0.578-3.578,1,0,0,90,false,stim,false,0,753.3999999761581,0,0,2,69478,task3,1605291,false,false,1960,image-keyboard-response,6
true,29,2,1,2,true,d,false,true,0.0-2.0-0.64-0.579-3.579,1,0,0,68,false,stim,false,2,738.1999999880791,0,1,0,69478,task3,1607539,false,false,1963,image-keyboard-response,7
true,29,2,1,2,true,d,false,true,0.0-2.0-0.64-0.580-3.580,1,0,0,68,false,stim,false,1,1056.9000000357628,0,0,1,69478,task3,1610107,false,false,1966,image-keyboard-response,8
true,29,1,1,1,true,z,false,true,0.0-2.0-0.64-0.581-3.581,1,0,0,90,false,stim,false,0,1184.5999999642372,0,0,2,69478,task3,1612803,false,false,1969,image-keyboard-response,9
true,29,2,1,2,true,d,false,true,0.0-2.0-0.64-0.582-3.582,1,0,0,68,false,stim,false,2,561.5,0,1,0,69478,task3,1614875,false,false,1972,image-keyboard-response,10
true,29,2,1,2,true,d,false,true,0.0-2.0-0.64-0.583-3.583,1,0,0,68,false,stim,false,1,426.69999998807907,0,0,1,69478,task3,1616811,false,false,1975,image-keyboard-response,11
true,29,2,1,2,true,d,false,true,0.0-2.0-0.64-0.584-3.584,1,0,0,68,false,stim,false,1,401.30000001192093,0,0,1,69478,task3,1618723,false,false,1978,image-keyboard-response,12
true,29,2,1,2,true,d,false,true,0.0-2.0-0.65-0.585-3.585,1,0,0,68,false,stim,false,1,360.0999999642372,0,0,1,69478,task3,1620595,false,false,1981,image-keyboard-response,13
true,29,1,1,1,true,z,false,true,0.0-2.0-0.65-0.586-3.586,1,0,0,90,false,stim,false,0,650.0,0,0,2,69478,task3,1622755,false,false,1984,image-keyboard-response,14
true,29,2,1,2,true,d,false,true,0.0-2.0-0.65-0.587-3.587,1,0,0,68,false,stim,false,1,497.80000001192093,0,0,1,69478,task3,1624761,false,false,1987,image-keyboard-response,15
true,29,2,1,2,true,d,false,true,0.0-2.0-0.65-0.588-3.588,1,0,0,68,false,stim,false,1,428.19999998807907,0,0,1,69478,task3,1626703,false,false,1990,image-keyboard-response,16
true,29,2,1,1,false,z,true,false,0.0-2.0-0.65-0.589-3.589,1,0,0,68,false,stim,false,0,375.89999997615814,0,0,2,69478,task3,1628591,false,false,1993,image-keyboard-response,17
