answered,blockNum,choice,condition,corResp,correct,correct_response,explo,fb,internal_node_id,isStable_1,isStable_2,isStable_3,key_press,newBlock,part,persev,persevResp,rt,sessNum,stableAS,stimulus,subject,task,time_elapsed,training,trap,trial_index,trial_type,trialsInBlock
true,1,2,0,2,true,d,false,true,0.0-2.0-0.0-0.0-3.0,0,0,0,68,true,stim,false,-1,1183.1000000238419,0,0,1,70522,task3,141463,false,false,124,image-keyboard-response,1
true,1,1,0,0,false,q,true,false,0.0-2.0-0.0-0.1-3.1,0,0,0,90,false,stim,false,-1,580.8000000119209,0,0,2,70522,task3,143548,false,false,127,image-keyboard-response,2
true,1,1,0,0,false,q,true,false,0.0-2.0-0.0-0.2-3.2,0,0,0,90,false,stim,false,-1,631.6999999880791,0,0,2,70522,task3,145691,false,false,130,image-keyboard-response,3
true,1,0,0,0,true,q,false,true,0.0-2.0-0.0-0.3-3.3,0,0,0,81,false,stim,false,-1,435.40000000596046,0,0,2,70522,task3,147637,false,false,133,image-keyboard-response,4
true,1,1,0,1,true,z,false,true,0.0-2.0-0.0-0.4-3.4,0,0,0,90,false,stim,false,-1,501.09999999403954,0,0,0,70522,task3,149651,false,false,136,image-keyboard-response,5
true,1,2,0,2,true,d,false,true,0.0-2.0-0.0-0.5-3.5,0,0,0,68,false,stim,false,-1,712.8999999761581,0,0,1,70522,task3,151877,false,false,139,image-keyboard-response,6
true,1,1,0,1,true,z,false,true,0.0-2.0-0.0-0.6-3.6,0,0,0,90,false,stim,false,-1,774.7000000178814,0,0,0,70522,task3,154163,false,false,142,image-keyboard-response,7
true,1,2,0,2,true,d,false,true,0.0-2.0-0.0-0.7-3.7,0,0,0,68,false,stim,false,-1,785.4000000059605,0,0,1,70522,task3,156462,false,false,145,image-keyboard-response,8
true,1,1,0,1,true,z,false,true,0.0-2.0-0.0-0.8-3.8,0,0,0,90,false,stim,false,-1,675.8999999761581,0,0,0,70522,task3,158646,false,false,148,image-keyboard-response,9
true,1,1,0,1,true,z,false,true,0.0-2.0-0.1-0.9-3.9,0,0,0,90,false,stim,false,-1,501.5,0,0,0,70522,task3,160658,false,false,151,image-keyboard-response,10
true,1,2,0,2,true,d,false,true,0.0-2.0-0.1-0.10-3.10,0,0,0,68,false,stim,false,-1,841.9000000059605,0,0,1,70522,task3,163009,false,false,154,image-keyboard-response,11
true,1,1,0,1,true,z,false,true,0.0-2.0-0.1-0.11-3.11,0,0,0,90,false,stim,false,-1,848.3999999761581,0,0,0,70522,task3,165362,false,false,157,image-keyboard-response,12
true,1,0,0,0,true,q,false,true,0.0-2.0-0.1-0.12-3.12,0,0,0,81,false,stim,false,-1,651.2999999821186,0,0,2,70522,task3,167520,false,false,160,image-keyboard-response,13
true,1,0,0,0,true,q,false,true,0.0-2.0-0.1-0.13-3.13,0,0,0,81,false,stim,false,-1,539.7999999821186,0,0,2,70522,task3,169569,false,false,163,image-keyboard-response,14
true,1,2,0,2,true,d,false,true,0.0-2.0-0.1-0.14-3.14,0,0,0,68,false,stim,false,-1,711.0999999940395,0,0,1,70522,task3,171787,false,false,166,image-keyboard-response,15
true,1,0,0,0,true,q,false,true,0.0-2.0-0.1-0.15-3.15,0,0,0,81,false,stim,false,-1,779.2000000178814,0,0,2,70522,task3,174074,false,false,169,image-keyboard-response,16
true,1,1,0,1,true,z,false,false,0.0-2.0-0.1-0.16-3.16,0,0,0,90,false,stim,false,-1,569.5999999940395,0,0,0,70522,task3,176157,false,true,172,image-keyboard-response,17
true,1,2,0,2,true,d,false,true,0.0-2.0-0.1-0.17-3.17,0,0,0,68,false,stim,false,-1,671.7999999821186,0,0,1,70522,task3,178339,false,false,175,image-keyboard-response,18
true,1,1,0,1,true,z,false,false,0.0-2.0-0.2-0.18-3.18,0,0,0,90,false,stim,false,-1,502.7999999821186,0,0,0,70522,task3,180352,false,true,178,image-keyboard-response,19
true,1,0,0,1,false,z,true,false,0.0-2.0-0.2-0.19-3.19,0,0,0,81,false,stim,false,-1,686.5999999940395,0,0,0,70522,task3,182545,false,false,181,image-keyboard-response,20
true,1,0,0,0,true,q,false,true,0.0-2.0-0.2-0.20-3.20,0,0,0,81,false,stim,false,-1,1115.5,0,1,2,70522,task3,185173,false,false,184,image-keyboard-response,21
true,1,2,0,2,true,d,false,true,0.0-2.0-0.2-0.21-3.21,0,0,0,68,false,stim,false,-1,760.5999999940395,0,0,1,70522,task3,187442,false,false,187,image-keyboard-response,22
true,1,0,0,0,true,q,false,true,0.0-2.0-0.2-0.22-3.22,0,0,0,81,false,stim,false,-1,681.6999999880791,0,1,2,70522,task3,189632,false,false,190,image-keyboard-response,23
true,1,2,0,2,true,d,false,true,0.0-2.0-0.2-0.23-3.23,0,0,0,68,false,stim,false,-1,797.7000000178814,0,0,1,70522,task3,191940,false,false,193,image-keyboard-response,24
true,1,2,0,2,true,d,false,true,0.0-2.0-0.2-0.24-3.24,0,0,0,68,false,stim,false,-1,659.5,0,0,1,70522,task3,194107,false,false,196,image-keyboard-response,25
true,2,1,2,1,true,z,false,true,0.0-2.0-0.2-0.25-3.25,1,0,1,90,true,stim,false,1,644.8999999761581,0,1,0,70522,task3,196257,false,false,199,image-keyboard-response,1
true,2,0,2,0,true,q,false,false,0.0-2.0-0.2-0.26-3.26,1,0,1,81,false,stim,false,0,683.1999999880791,0,1,2,70522,task3,198449,false,true,202,image-keyboard-response,2
true,2,1,2,1,true,z,false,true,0.0-2.0-0.3-0.27-3.27,1,0,1,90,false,stim,false,1,442.59999999403954,0,1,0,70522,task3,200400,false,false,205,image-keyboard-response,3
true,2,2,2,0,false,q,false,false,0.0-2.0-0.3-0.28-3.28,1,0,1,68,false,stim,true,2,501.0,0,0,1,70522,task3,202411,false,false,208,image-keyboard-response,4
true,2,0,2,0,true,q,false,true,0.0-2.0-0.3-0.29-3.29,1,0,1,81,false,stim,false,2,988.0999999940395,0,0,1,70522,task3,204903,false,false,211,image-keyboard-response,5
true,2,1,2,1,true,z,false,true,0.0-2.0-0.3-0.30-3.30,1,0,1,90,false,stim,false,1,733.4000000059605,0,1,0,70522,task3,207149,false,false,214,image-keyboard-response,6
true,2,2,2,0,false,q,true,false,0.0-2.0-0.3-0.31-3.31,1,0,1,68,false,stim,false,0,465.69999998807907,0,1,2,70522,task3,209121,false,false,217,image-keyboard-response,7
true,2,0,2,0,true,q,false,true,0.0-2.0-0.3-0.32-3.32,1,0,1,81,false,stim,false,0,655.6000000238419,0,1,2,70522,task3,211279,false,false,220,image-keyboard-response,8
true,2,1,2,1,true,z,false,true,0.0-2.0-0.3-0.33-3.33,1,0,1,90,false,stim,false,1,506.5,0,1,0,70522,task3,213290,false,false,223,image-keyboard-response,9
true,2,2,2,0,false,q,false,false,0.0-2.0-0.3-0.34-3.34,1,0,1,68,false,stim,true,2,1076.3999999761581,0,0,1,70522,task3,215873,false,false,226,image-keyboard-response,10
true,2,0,2,0,true,q,false,true,0.0-2.0-0.3-0.35-3.35,1,0,1,81,false,stim,false,0,685.4000000059605,0,1,2,70522,task3,218061,false,false,229,image-keyboard-response,11
true,2,0,2,0,true,q,false,true,0.0-2.0-0.4-0.36-3.36,1,0,1,81,false,stim,false,0,649.1000000238419,0,1,2,70522,task3,220215,false,false,232,image-keyboard-response,12
true,2,1,2,1,true,z,false,true,0.0-2.0-0.4-0.37-3.37,1,0,1,90,false,stim,false,1,539.5999999940395,0,1,0,70522,task3,222262,false,false,235,image-keyboard-response,13
true,2,1,2,0,false,q,true,false,0.0-2.0-0.4-0.38-3.38,1,0,1,90,false,stim,false,0,1563.699999988079,0,1,2,70522,task3,225335,false,false,238,image-keyboard-response,14
true,2,1,2,1,true,z,false,true,0.0-2.0-0.4-0.39-3.39,1,0,1,90,false,stim,false,1,1189.9000000059605,0,1,0,70522,task3,228038,false,false,241,image-keyboard-response,15
true,2,2,2,0,false,q,false,false,0.0-2.0-0.4-0.40-3.40,1,0,1,68,false,stim,true,2,843.8999999761581,0,0,1,70522,task3,230391,false,false,244,image-keyboard-response,16
true,2,0,2,0,true,q,false,true,0.0-2.0-0.4-0.41-3.41,1,0,1,81,false,stim,false,0,663.3999999761581,0,1,2,70522,task3,232563,false,false,247,image-keyboard-response,17
true,2,2,2,0,false,q,false,false,0.0-2.0-0.4-0.42-3.42,1,0,1,68,false,stim,true,2,870.1000000238419,0,0,1,70522,task3,234943,false,false,250,image-keyboard-response,18
true,2,1,2,1,true,z,false,true,0.0-2.0-0.4-0.43-3.43,1,0,1,90,false,stim,false,1,930.2999999821186,0,1,0,70522,task3,237378,false,false,253,image-keyboard-response,19
true,2,2,2,0,false,q,false,false,0.0-2.0-0.4-0.44-3.44,1,0,1,68,false,stim,true,2,1231.9000000059605,0,0,1,70522,task3,240121,false,false,256,image-keyboard-response,20
true,2,1,2,0,false,q,true,false,0.0-2.0-0.5-0.45-3.45,1,0,1,90,false,stim,false,2,1133.3999999761581,0,0,1,70522,task3,242765,false,false,259,image-keyboard-response,21
true,2,0,2,0,true,q,false,true,0.0-2.0-0.5-0.46-3.46,1,0,1,81,false,stim,false,0,654.3999999761581,0,1,2,70522,task3,244926,false,false,262,image-keyboard-response,22
true,2,1,2,1,true,z,false,true,0.0-2.0-0.5-0.47-3.47,1,0,1,90,false,stim,false,1,713.2999999821186,0,0,0,70522,task3,247148,false,false,265,image-keyboard-response,23
true,2,1,2,1,true,z,false,true,0.0-2.0-0.5-0.48-3.48,1,0,1,90,false,stim,false,1,486.7000000178814,0,0,0,70522,task3,249143,false,false,268,image-keyboard-response,24
true,2,2,2,0,false,q,false,false,0.0-2.0-0.5-0.49-3.49,1,0,1,68,false,stim,true,2,851.3000000119209,0,0,1,70522,task3,251503,false,false,271,image-keyboard-response,25
true,2,0,2,0,true,q,false,true,0.0-2.0-0.5-0.50-3.50,1,0,1,81,false,stim,false,0,653.6999999880791,0,1,2,70522,task3,253662,false,false,274,image-keyboard-response,26
true,3,2,1,2,true,d,false,true,0.0-2.0-0.5-0.51-3.51,0,0,1,68,true,stim,false,0,740.4000000059605,0,0,1,70522,task3,255909,false,false,277,image-keyboard-response,1
true,3,1,1,0,false,q,false,false,0.0-2.0-0.5-0.52-3.52,0,0,1,90,false,stim,true,1,934.0,0,0,0,70522,task3,258347,false,false,280,image-keyboard-response,2
true,3,0,1,0,true,q,false,true,0.0-2.0-0.5-0.53-3.53,0,0,1,81,false,stim,false,0,616.6999999880791,0,1,2,70522,task3,260472,false,false,283,image-keyboard-response,3
true,3,0,1,0,true,q,false,true,0.0-2.0-0.6-0.54-3.54,0,0,1,81,false,stim,false,0,532.5999999940395,0,1,2,70522,task3,262511,false,false,286,image-keyboard-response,4
true,3,1,1,0,false,q,false,true,0.0-2.0-0.6-0.55-3.55,0,0,1,90,false,stim,true,1,743.5,0,0,0,70522,task3,264768,false,true,289,image-keyboard-response,5
true,3,2,1,2,true,d,false,true,0.0-2.0-0.6-0.56-3.56,0,0,1,68,false,stim,false,0,729.6999999880791,0,0,1,70522,task3,267007,false,false,292,image-keyboard-response,6
true,3,1,1,0,false,q,false,false,0.0-2.0-0.6-0.57-3.57,0,0,1,90,false,stim,true,1,831.5999999940395,0,0,0,70522,task3,269348,false,false,295,image-keyboard-response,7
true,3,0,1,0,true,q,false,true,0.0-2.0-0.6-0.58-3.58,0,0,1,81,false,stim,false,0,962.3000000119209,0,1,2,70522,task3,271818,false,false,298,image-keyboard-response,8
true,3,2,1,2,true,d,false,true,0.0-2.0-0.6-0.59-3.59,0,0,1,68,false,stim,false,0,730.4000000059605,0,0,1,70522,task3,274056,false,false,301,image-keyboard-response,9
true,3,2,1,2,true,d,false,true,0.0-2.0-0.6-0.60-3.60,0,0,1,68,false,stim,false,0,925.0999999940395,0,0,1,70522,task3,276493,false,false,304,image-keyboard-response,10
true,3,1,1,0,false,q,false,false,0.0-2.0-0.6-0.61-3.61,0,0,1,90,false,stim,true,1,991.0,0,0,0,70522,task3,278995,false,false,307,image-keyboard-response,11
true,3,0,1,0,true,q,false,true,0.0-2.0-0.6-0.62-3.62,0,0,1,81,false,stim,false,0,677.5999999940395,0,1,2,70522,task3,281183,false,false,310,image-keyboard-response,12
true,3,1,1,0,false,q,false,false,0.0-2.0-0.7-0.63-3.63,0,0,1,90,false,stim,true,1,650.1999999880791,0,0,0,70522,task3,283342,false,false,313,image-keyboard-response,13
true,3,2,1,2,true,d,false,true,0.0-2.0-0.7-0.64-3.64,0,0,1,68,false,stim,false,0,661.6999999880791,0,0,1,70522,task3,285513,false,false,316,image-keyboard-response,14
true,3,2,1,2,true,d,false,true,0.0-2.0-0.7-0.65-3.65,0,0,1,68,false,stim,false,0,502.10000002384186,0,0,1,70522,task3,287525,false,false,319,image-keyboard-response,15
true,3,0,1,0,true,q,false,true,0.0-2.0-0.7-0.66-3.66,0,0,1,81,false,stim,false,0,423.0,0,1,2,70522,task3,289458,false,false,322,image-keyboard-response,16
true,3,1,1,0,false,q,false,false,0.0-2.0-0.7-0.67-3.67,0,0,1,90,false,stim,true,1,621.0,0,0,0,70522,task3,291590,false,false,325,image-keyboard-response,17
true,3,2,1,2,true,d,false,true,0.0-2.0-0.7-0.68-3.68,0,0,1,68,false,stim,false,0,862.1999999880791,0,0,1,70522,task3,293962,false,false,328,image-keyboard-response,18
true,3,0,1,0,true,q,false,true,0.0-2.0-0.7-0.69-3.69,0,0,1,81,false,stim,false,0,566.7000000178814,0,1,2,70522,task3,296043,false,false,331,image-keyboard-response,19
true,3,0,1,0,true,q,false,true,0.0-2.0-0.7-0.70-3.70,0,0,1,81,false,stim,false,0,719.5999999940395,0,0,2,70522,task3,298270,false,false,334,image-keyboard-response,20
true,3,0,1,0,true,q,false,true,0.0-2.0-0.7-0.71-3.71,0,0,1,81,false,stim,false,1,647.6000000238419,0,0,0,70522,task3,300428,false,false,337,image-keyboard-response,21
true,3,0,1,0,true,q,false,true,0.0-2.0-0.8-0.72-3.72,0,0,1,81,false,stim,false,0,1187.2999999821186,0,0,2,70522,task3,303125,false,false,340,image-keyboard-response,22
true,3,1,1,0,false,q,false,false,0.0-2.0-0.8-0.73-3.73,0,0,1,90,false,stim,true,1,1817.199999988079,0,0,0,70522,task3,306451,false,false,343,image-keyboard-response,23
true,3,2,1,2,true,d,false,true,0.0-2.0-0.8-0.74-3.74,0,0,1,68,false,stim,false,0,811.5,0,1,1,70522,task3,308768,false,false,346,image-keyboard-response,24
true,4,0,1,2,false,d,false,false,0.0-2.0-0.8-0.75-3.75,0,1,0,81,true,stim,true,0,524.8000000119209,0,0,0,70522,task3,310803,false,false,349,image-keyboard-response,1
true,4,2,1,2,true,d,false,true,0.0-2.0-0.8-0.76-3.76,0,1,0,68,false,stim,false,2,1191.800000011921,0,1,1,70522,task3,313504,false,false,352,image-keyboard-response,2
true,4,2,1,2,true,d,false,true,0.0-2.0-0.8-0.77-3.77,0,1,0,68,false,stim,false,2,539.1999999880791,0,1,1,70522,task3,315557,false,false,355,image-keyboard-response,3
true,4,0,1,1,false,z,false,false,0.0-2.0-0.8-0.78-3.78,0,1,0,81,false,stim,true,0,549.6999999880791,0,0,2,70522,task3,317615,false,false,358,image-keyboard-response,4
true,4,2,1,2,true,d,false,true,0.0-2.0-0.8-0.79-3.79,0,1,0,68,false,stim,false,0,1284.9000000059605,0,0,0,70522,task3,320413,false,false,361,image-keyboard-response,5
true,4,1,1,1,true,z,false,true,0.0-2.0-0.8-0.80-3.80,0,1,0,90,false,stim,false,0,1170.5,0,0,2,70522,task3,323091,false,false,364,image-keyboard-response,6
true,4,0,1,1,false,z,false,false,0.0-2.0-0.9-0.81-3.81,0,1,0,81,false,stim,true,0,888.7000000178814,0,0,2,70522,task3,325489,false,false,367,image-keyboard-response,7
true,4,2,1,2,true,d,false,true,0.0-2.0-0.9-0.82-3.82,0,1,0,68,false,stim,false,0,1462.5,0,0,0,70522,task3,328463,false,false,370,image-keyboard-response,8
true,4,1,1,1,true,z,false,true,0.0-2.0-0.9-0.83-3.83,0,1,0,90,false,stim,false,0,857.5,0,0,2,70522,task3,330827,false,false,373,image-keyboard-response,9
true,4,2,1,2,true,d,false,true,0.0-2.0-0.9-0.84-3.84,0,1,0,68,false,stim,false,0,879.3999999761581,0,0,0,70522,task3,333213,false,false,376,image-keyboard-response,10
true,4,2,1,2,true,d,false,true,0.0-2.0-0.9-0.85-3.85,0,1,0,68,false,stim,false,0,901.3999999761581,0,0,0,70522,task3,335625,false,false,379,image-keyboard-response,11
true,4,2,1,2,true,d,false,true,0.0-2.0-0.9-0.86-3.86,0,1,0,68,false,stim,false,2,900.5,0,1,1,70522,task3,338037,false,false,382,image-keyboard-response,12
true,4,2,1,2,true,d,false,true,0.0-2.0-0.9-0.87-3.87,0,1,0,68,false,stim,false,2,1285.0,0,1,1,70522,task3,340830,false,false,385,image-keyboard-response,13
true,4,2,1,2,true,d,false,true,0.0-2.0-0.9-0.88-3.88,0,1,0,68,false,stim,false,2,634.5999999940395,0,1,1,70522,task3,342974,false,false,388,image-keyboard-response,14
true,4,1,1,1,true,z,false,true,0.0-2.0-0.9-0.89-3.89,0,1,0,90,false,stim,false,0,518.5,0,0,2,70522,task3,345006,false,false,391,image-keyboard-response,15
true,4,2,1,2,true,d,false,true,0.0-2.0-0.10-0.90-3.90,0,1,0,68,false,stim,false,0,1111.0999999940395,0,0,0,70522,task3,347622,false,false,394,image-keyboard-response,16
true,4,2,1,2,true,d,false,true,0.0-2.0-0.10-0.91-3.91,0,1,0,68,false,stim,false,2,895.5999999940395,0,1,1,70522,task3,350027,false,false,397,image-keyboard-response,17
true,4,1,1,1,true,z,false,true,0.0-2.0-0.10-0.92-3.92,0,1,0,90,false,stim,false,0,504.19999998807907,0,0,2,70522,task3,352041,false,false,400,image-keyboard-response,18
true,4,1,1,1,true,z,false,true,0.0-2.0-0.10-0.93-3.93,0,1,0,90,false,stim,false,0,483.40000000596046,0,0,2,70522,task3,354038,false,false,403,image-keyboard-response,19
true,4,2,1,2,true,d,false,true,0.0-2.0-0.10-0.94-3.94,0,1,0,68,false,stim,false,0,597.0999999940395,0,0,0,70522,task3,356148,false,false,406,image-keyboard-response,20
true,4,2,1,2,true,d,false,true,0.0-2.0-0.10-0.95-3.95,0,1,0,68,false,stim,false,2,805.0,0,1,1,70522,task3,358466,false,false,409,image-keyboard-response,21
true,4,1,1,1,true,z,false,true,0.0-2.0-0.10-0.96-3.96,0,1,0,90,false,stim,false,0,769.2999999821186,0,0,2,70522,task3,360745,false,false,412,image-keyboard-response,22
true,4,2,1,2,true,d,false,true,0.0-2.0-0.10-0.97-3.97,0,1,0,68,false,stim,false,2,760.7999999821186,0,0,1,70522,task3,363011,false,false,415,image-keyboard-response,23
true,4,2,1,2,true,d,false,false,0.0-2.0-0.10-0.98-3.98,0,1,0,68,false,stim,false,0,758.4000000059605,0,0,0,70522,task3,365284,false,true,418,image-keyboard-response,24
true,4,1,1,2,false,d,true,false,0.0-2.0-0.11-0.99-3.99,0,1,0,90,false,stim,false,0,599.9000000059605,0,0,0,70522,task3,367394,false,false,421,image-keyboard-response,25
true,4,0,1,2,false,d,false,false,0.0-2.0-0.11-0.100-3.100,0,1,0,81,false,stim,true,0,745.7999999821186,0,0,0,70522,task3,369655,false,false,424,image-keyboard-response,26
true,4,2,1,2,true,d,false,true,0.0-2.0-0.11-0.101-3.101,0,1,0,68,false,stim,false,2,1072.6000000238419,0,0,1,70522,task3,372232,false,false,427,image-keyboard-response,27
true,5,2,1,0,false,q,false,false,0.0-2.0-0.11-0.102-3.102,0,0,1,68,true,stim,true,2,651.4000000059605,0,0,1,70522,task3,374393,false,false,430,image-keyboard-response,1
true,5,1,1,1,true,z,false,true,0.0-2.0-0.11-0.103-3.103,0,0,1,90,false,stim,false,1,782.0,0,1,2,70522,task3,376680,false,false,433,image-keyboard-response,2
true,5,1,1,1,true,z,false,true,0.0-2.0-0.11-0.104-3.104,0,0,1,90,false,stim,false,1,665.8999999761581,0,1,2,70522,task3,378860,false,false,436,image-keyboard-response,3
true,5,1,1,1,true,z,false,true,0.0-2.0-0.11-0.105-3.105,0,0,1,90,false,stim,false,2,770.0,0,0,0,70522,task3,381137,false,false,439,image-keyboard-response,4
true,5,1,1,1,true,z,false,true,0.0-2.0-0.11-0.106-3.106,0,0,1,90,false,stim,false,1,669.5,0,1,2,70522,task3,383317,false,false,442,image-keyboard-response,5
true,5,0,1,0,true,q,false,true,0.0-2.0-0.11-0.107-3.107,0,0,1,81,false,stim,false,2,877.1000000238419,0,0,1,70522,task3,385706,false,false,445,image-keyboard-response,6
true,5,1,1,1,true,z,false,true,0.0-2.0-0.12-0.108-3.108,0,0,1,90,false,stim,false,2,699.4000000059605,0,0,0,70522,task3,387915,false,false,448,image-keyboard-response,7
true,5,0,1,0,true,q,false,true,0.0-2.0-0.12-0.109-3.109,0,0,1,81,false,stim,false,2,852.3000000119209,0,0,1,70522,task3,390279,false,false,451,image-keyboard-response,8
true,5,0,1,0,true,q,false,true,0.0-2.0-0.12-0.110-3.110,0,0,1,81,false,stim,false,2,548.7000000178814,0,0,1,70522,task3,392338,false,false,454,image-keyboard-response,9
true,5,1,1,1,true,z,false,true,0.0-2.0-0.12-0.111-3.111,0,0,1,90,false,stim,false,1,585.2000000178814,0,1,2,70522,task3,394428,false,false,457,image-keyboard-response,10
true,5,1,1,1,true,z,false,false,0.0-2.0-0.12-0.112-3.112,0,0,1,90,false,stim,false,2,743.4000000059605,0,0,0,70522,task3,396685,false,true,460,image-keyboard-response,11
true,5,2,1,1,false,z,false,false,0.0-2.0-0.12-0.113-3.113,0,0,1,68,false,stim,true,2,722.6000000238419,0,0,0,70522,task3,398919,false,false,463,image-keyboard-response,12
true,5,1,1,1,true,z,false,true,0.0-2.0-0.12-0.114-3.114,0,0,1,90,false,stim,false,1,848.5999999940395,0,1,2,70522,task3,401277,false,false,466,image-keyboard-response,13
true,5,0,1,0,true,q,false,true,0.0-2.0-0.12-0.115-3.115,0,0,1,81,false,stim,false,2,496.5,0,0,1,70522,task3,403284,false,false,469,image-keyboard-response,14
true,5,1,1,1,true,z,false,true,0.0-2.0-0.12-0.116-3.116,0,0,1,90,false,stim,false,1,628.8000000119209,0,1,2,70522,task3,405424,false,false,472,image-keyboard-response,15
true,5,0,1,1,false,z,true,true,0.0-2.0-0.13-0.117-3.117,0,0,1,81,false,stim,false,2,621.5999999940395,0,0,0,70522,task3,407553,false,true,475,image-keyboard-response,16
true,5,0,1,1,false,z,true,false,0.0-2.0-0.13-0.118-3.118,0,0,1,81,false,stim,false,2,522.5,0,0,0,70522,task3,409580,false,false,478,image-keyboard-response,17
true,5,1,1,1,true,z,false,true,0.0-2.0-0.13-0.119-3.119,0,0,1,90,false,stim,false,2,518.0999999940395,0,0,0,70522,task3,411608,false,false,481,image-keyboard-response,18
true,5,1,1,1,true,z,false,true,0.0-2.0-0.13-0.120-3.120,0,0,1,90,false,stim,false,1,758.4000000059605,0,1,2,70522,task3,413880,false,false,484,image-keyboard-response,19
true,5,0,1,0,true,q,false,true,0.0-2.0-0.13-0.121-3.121,0,0,1,81,false,stim,false,2,509.09999999403954,0,0,1,70522,task3,415899,false,false,487,image-keyboard-response,20
true,5,1,1,1,true,z,false,true,0.0-2.0-0.13-0.122-3.122,0,0,1,90,false,stim,false,1,752.3000000119209,0,0,2,70522,task3,418163,false,false,490,image-keyboard-response,21
true,5,0,1,0,true,q,false,true,0.0-2.0-0.13-0.123-3.123,0,0,1,81,false,stim,false,2,615.8000000119209,0,1,1,70522,task3,420292,false,false,493,image-keyboard-response,22
true,5,0,1,0,true,q,false,true,0.0-2.0-0.13-0.124-3.124,0,0,1,81,false,stim,false,2,533.4000000059605,0,1,1,70522,task3,422332,false,false,496,image-keyboard-response,23
true,5,1,1,1,true,z,false,true,0.0-2.0-0.13-0.125-3.125,0,0,1,90,false,stim,false,1,719.5,0,0,2,70522,task3,424563,false,false,499,image-keyboard-response,24
true,5,1,1,1,true,z,false,false,0.0-2.0-0.14-0.126-3.126,0,0,1,90,false,stim,false,2,780.7000000178814,0,0,0,70522,task3,426862,false,true,502,image-keyboard-response,25
true,6,1,1,0,false,q,false,false,0.0-2.0-0.14-0.127-3.127,0,1,0,90,true,stim,true,1,939.4000000059605,0,0,2,70522,task3,429311,false,false,505,image-keyboard-response,1
true,6,2,1,2,true,d,false,true,0.0-2.0-0.14-0.128-3.128,0,1,0,68,false,stim,false,1,923.5,0,0,0,70522,task3,431746,false,false,508,image-keyboard-response,2
true,6,0,1,0,true,q,false,true,0.0-2.0-0.14-0.129-3.129,0,1,0,81,false,stim,false,0,620.0,0,1,1,70522,task3,433870,false,false,511,image-keyboard-response,3
true,6,0,1,0,true,q,false,true,0.0-2.0-0.14-0.130-3.130,0,1,0,81,false,stim,false,1,734.1999999880791,0,0,2,70522,task3,436117,false,false,514,image-keyboard-response,4
true,6,0,1,0,true,q,false,true,0.0-2.0-0.14-0.131-3.131,0,1,0,81,false,stim,false,0,544.5999999940395,0,1,1,70522,task3,438168,false,false,517,image-keyboard-response,5
true,6,2,1,2,true,d,false,false,0.0-2.0-0.14-0.132-3.132,0,1,0,68,false,stim,false,1,736.0,0,0,0,70522,task3,440411,false,true,520,image-keyboard-response,6
true,6,0,1,0,true,q,false,true,0.0-2.0-0.14-0.133-3.133,0,1,0,81,false,stim,false,0,586.0,0,1,1,70522,task3,442506,false,false,523,image-keyboard-response,7
true,6,0,1,0,true,q,false,true,0.0-2.0-0.14-0.134-3.134,0,1,0,81,false,stim,false,1,588.8000000119209,0,0,2,70522,task3,444605,false,false,526,image-keyboard-response,8
true,6,0,1,0,true,q,false,true,0.0-2.0-0.15-0.135-3.135,0,1,0,81,false,stim,false,0,686.5,0,1,1,70522,task3,446801,false,false,529,image-keyboard-response,9
true,6,0,1,0,true,q,false,true,0.0-2.0-0.15-0.136-3.136,0,1,0,81,false,stim,false,1,485.5,0,0,2,70522,task3,448801,false,false,532,image-keyboard-response,10
true,6,0,1,0,true,q,false,true,0.0-2.0-0.15-0.137-3.137,0,1,0,81,false,stim,false,1,418.40000000596046,0,0,2,70522,task3,450728,false,false,535,image-keyboard-response,11
true,6,0,1,0,true,q,false,true,0.0-2.0-0.15-0.138-3.138,0,1,0,81,false,stim,false,0,563.7000000178814,0,1,1,70522,task3,452806,false,false,538,image-keyboard-response,12
true,6,0,1,2,false,d,true,false,0.0-2.0-0.15-0.139-3.139,0,1,0,81,false,stim,false,1,506.7999999821186,0,0,0,70522,task3,454826,false,false,541,image-keyboard-response,13
true,6,0,1,0,true,q,false,true,0.0-2.0-0.15-0.140-3.140,0,1,0,81,false,stim,false,1,941.5999999940395,0,0,2,70522,task3,457277,false,false,544,image-keyboard-response,14
true,6,1,1,2,false,d,false,false,0.0-2.0-0.15-0.141-3.141,0,1,0,90,false,stim,true,1,625.0,0,0,0,70522,task3,459414,false,false,547,image-keyboard-response,15
true,6,0,1,0,true,q,false,true,0.0-2.0-0.15-0.142-3.142,0,1,0,81,false,stim,false,0,585.8000000119209,0,1,1,70522,task3,461514,false,false,550,image-keyboard-response,16
true,6,0,1,2,false,d,true,false,0.0-2.0-0.15-0.143-3.143,0,1,0,81,false,stim,false,1,669.2000000178814,0,0,0,70522,task3,463688,false,false,553,image-keyboard-response,17
true,6,0,1,0,true,q,false,true,0.0-2.0-0.16-0.144-3.144,0,1,0,81,false,stim,false,1,1004.0999999940395,0,0,2,70522,task3,466202,false,false,556,image-keyboard-response,18
true,6,0,1,0,true,q,false,true,0.0-2.0-0.16-0.145-3.145,0,1,0,81,false,stim,false,0,406.59999999403954,0,1,1,70522,task3,468120,false,false,559,image-keyboard-response,19
true,6,2,1,2,true,d,false,true,0.0-2.0-0.16-0.146-3.146,0,1,0,68,false,stim,false,1,431.5,0,0,0,70522,task3,470064,false,false,562,image-keyboard-response,20
true,6,0,1,0,true,q,false,true,0.0-2.0-0.16-0.147-3.147,0,1,0,81,false,stim,false,1,619.1000000238419,0,0,2,70522,task3,472193,false,false,565,image-keyboard-response,21
true,6,0,1,0,true,q,false,true,0.0-2.0-0.16-0.148-3.148,0,1,0,81,false,stim,false,1,647.0,0,0,2,70522,task3,474354,false,false,568,image-keyboard-response,22
true,6,2,1,2,true,d,false,true,0.0-2.0-0.16-0.149-3.149,0,1,0,68,false,stim,false,1,825.2000000178814,0,1,0,70522,task3,476687,false,false,571,image-keyboard-response,23
true,6,2,1,2,true,d,false,false,0.0-2.0-0.16-0.150-3.150,0,1,0,68,false,stim,false,1,573.2000000178814,0,1,0,70522,task3,478770,false,true,574,image-keyboard-response,24
true,6,0,1,0,true,q,false,true,0.0-2.0-0.16-0.151-3.151,0,1,0,81,false,stim,false,0,499.0,0,1,1,70522,task3,480782,false,false,577,image-keyboard-response,25
true,7,0,2,0,true,q,false,true,0.0-2.0-0.16-0.152-3.152,1,1,0,81,true,stim,false,0,582.8999999761581,0,1,1,70522,task3,482871,false,false,580,image-keyboard-response,1
true,7,0,2,1,false,z,false,true,0.0-2.0-0.17-0.153-3.153,1,1,0,81,false,stim,true,0,957.0999999940395,0,0,2,70522,task3,485341,false,true,583,image-keyboard-response,2
true,7,0,2,0,true,q,false,true,0.0-2.0-0.17-0.154-3.154,1,1,0,81,false,stim,false,0,604.0,0,1,1,70522,task3,487460,false,false,586,image-keyboard-response,3
true,7,0,2,0,true,q,false,true,0.0-2.0-0.17-0.155-3.155,1,1,0,81,false,stim,false,0,1009.7999999821186,0,1,1,70522,task3,489980,false,false,589,image-keyboard-response,4
true,7,0,2,2,false,d,true,false,0.0-2.0-0.17-0.156-3.156,1,1,0,81,false,stim,false,2,840.5999999940395,0,1,0,70522,task3,492331,false,false,592,image-keyboard-response,5
true,7,0,2,1,false,z,false,false,0.0-2.0-0.17-0.157-3.157,1,1,0,81,false,stim,true,0,539.5,0,0,2,70522,task3,494377,false,false,595,image-keyboard-response,6
true,7,1,2,1,true,z,false,true,0.0-2.0-0.17-0.158-3.158,1,1,0,90,false,stim,false,0,912.6999999880791,0,1,2,70522,task3,496798,false,false,598,image-keyboard-response,7
true,7,2,2,2,true,d,false,true,0.0-2.0-0.17-0.159-3.159,1,1,0,68,false,stim,false,2,512.5999999940395,0,1,0,70522,task3,498819,false,false,601,image-keyboard-response,8
true,7,2,2,2,true,d,false,true,0.0-2.0-0.17-0.160-3.160,1,1,0,68,false,stim,false,2,861.4000000059605,0,1,0,70522,task3,501188,false,false,604,image-keyboard-response,9
true,7,0,2,0,true,q,false,false,0.0-2.0-0.17-0.161-3.161,1,1,0,81,false,stim,false,0,493.30000001192093,0,0,1,70522,task3,503192,false,true,607,image-keyboard-response,10
true,7,1,2,1,true,z,false,true,0.0-2.0-0.18-0.162-3.162,1,1,0,90,false,stim,false,0,557.7999999821186,0,1,2,70522,task3,505261,false,false,610,image-keyboard-response,11
true,8,2,2,2,true,d,false,true,0.0-2.0-0.18-0.163-3.163,1,0,1,68,true,stim,false,2,523.9000000059605,0,1,0,70522,task3,507297,false,false,613,image-keyboard-response,1
true,8,1,2,1,true,z,false,true,0.0-2.0-0.18-0.164-3.164,1,0,1,90,false,stim,false,0,417.0,0,0,1,70522,task3,509222,false,false,616,image-keyboard-response,2
true,8,1,2,1,true,z,false,true,0.0-2.0-0.18-0.165-3.165,1,0,1,90,false,stim,false,1,528.9000000059605,0,1,2,70522,task3,511259,false,false,619,image-keyboard-response,3
true,8,1,2,1,true,z,false,true,0.0-2.0-0.18-0.166-3.166,1,0,1,90,false,stim,false,0,405.59999999403954,0,0,1,70522,task3,513172,false,false,622,image-keyboard-response,4
true,8,1,2,1,true,z,false,true,0.0-2.0-0.18-0.167-3.167,1,0,1,90,false,stim,false,1,720.3000000119209,0,1,2,70522,task3,515406,false,false,625,image-keyboard-response,5
true,8,1,2,1,true,z,false,true,0.0-2.0-0.18-0.168-3.168,1,0,1,90,false,stim,false,0,565.7000000178814,0,0,1,70522,task3,517477,false,false,628,image-keyboard-response,6
true,8,2,2,2,true,d,false,true,0.0-2.0-0.18-0.169-3.169,1,0,1,68,false,stim,false,2,506.5,0,1,0,70522,task3,519491,false,false,631,image-keyboard-response,7
true,8,2,2,2,true,d,false,true,0.0-2.0-0.18-0.170-3.170,1,0,1,68,false,stim,false,2,577.4000000059605,0,1,0,70522,task3,521581,false,false,634,image-keyboard-response,8
true,8,1,2,1,true,z,false,true,0.0-2.0-0.19-0.171-3.171,1,0,1,90,false,stim,false,1,583.5,0,1,2,70522,task3,523671,false,false,637,image-keyboard-response,9
true,8,1,2,1,true,z,false,true,0.0-2.0-0.19-0.172-3.172,1,0,1,90,false,stim,false,0,580.6999999880791,0,0,1,70522,task3,525764,false,false,640,image-keyboard-response,10
true,8,2,2,2,true,d,false,true,0.0-2.0-0.19-0.173-3.173,1,0,1,68,false,stim,false,2,626.9000000059605,0,1,0,70522,task3,527901,false,false,643,image-keyboard-response,11
true,8,1,2,1,true,z,false,true,0.0-2.0-0.19-0.174-3.174,1,0,1,90,false,stim,false,0,667.7999999821186,0,0,1,70522,task3,530078,false,false,646,image-keyboard-response,12
true,8,1,2,1,true,z,false,true,0.0-2.0-0.19-0.175-3.175,1,0,1,90,false,stim,false,0,577.0,0,0,1,70522,task3,532160,false,false,649,image-keyboard-response,13
true,8,2,2,2,true,d,false,true,0.0-2.0-0.19-0.176-3.176,1,0,1,68,false,stim,false,2,479.19999998807907,0,1,0,70522,task3,534153,false,false,652,image-keyboard-response,14
true,8,1,2,1,true,z,false,true,0.0-2.0-0.19-0.177-3.177,1,0,1,90,false,stim,false,1,940.9000000059605,0,1,2,70522,task3,536601,false,false,655,image-keyboard-response,15
true,8,2,2,2,true,d,false,true,0.0-2.0-0.19-0.178-3.178,1,0,1,68,false,stim,false,2,915.3000000119209,0,1,0,70522,task3,539021,false,false,658,image-keyboard-response,16
true,8,1,2,1,true,z,false,true,0.0-2.0-0.19-0.179-3.179,1,0,1,90,false,stim,false,1,652.6000000238419,0,1,2,70522,task3,541179,false,false,661,image-keyboard-response,17
true,8,1,2,1,true,z,false,true,0.0-2.0-0.20-0.180-3.180,1,0,1,90,false,stim,false,1,671.7000000178814,0,1,2,70522,task3,543362,false,false,664,image-keyboard-response,18
true,8,2,2,2,true,d,false,true,0.0-2.0-0.20-0.181-3.181,1,0,1,68,false,stim,false,2,464.5,0,1,0,70522,task3,545338,false,false,667,image-keyboard-response,19
true,8,1,2,1,true,z,false,true,0.0-2.0-0.20-0.182-3.182,1,0,1,90,false,stim,false,0,660.0,0,0,1,70522,task3,547509,false,false,670,image-keyboard-response,20
true,8,1,2,1,true,z,false,true,0.0-2.0-0.20-0.183-3.183,1,0,1,90,false,stim,false,0,576.0,0,0,1,70522,task3,549598,false,false,673,image-keyboard-response,21
true,8,2,2,2,true,d,false,true,0.0-2.0-0.20-0.184-3.184,1,0,1,68,false,stim,false,2,625.2999999821186,0,1,0,70522,task3,551733,false,false,676,image-keyboard-response,22
true,8,1,2,1,true,z,false,true,0.0-2.0-0.20-0.185-3.185,1,0,1,90,false,stim,false,0,612.5999999940395,0,0,1,70522,task3,553855,false,false,679,image-keyboard-response,23
true,8,2,2,2,true,d,false,true,0.0-2.0-0.20-0.186-3.186,1,0,1,68,false,stim,false,2,493.0,0,1,0,70522,task3,555862,false,false,682,image-keyboard-response,24
true,8,1,2,1,true,z,false,false,0.0-2.0-0.20-0.187-3.187,1,0,1,90,false,stim,false,1,823.7000000178814,0,1,2,70522,task3,558196,false,true,685,image-keyboard-response,25
true,8,0,2,1,false,z,true,true,0.0-2.0-0.20-0.188-3.188,1,0,1,81,false,stim,false,1,699.7000000178814,0,1,2,70522,task3,560401,false,true,688,image-keyboard-response,26
true,8,1,2,1,true,z,false,true,0.0-2.0-0.21-0.189-3.189,1,0,1,90,false,stim,false,0,684.0999999940395,0,0,1,70522,task3,562590,false,false,691,image-keyboard-response,27
true,8,0,2,1,false,z,true,false,0.0-2.0-0.21-0.190-3.190,1,0,1,81,false,stim,false,1,608.5999999940395,0,1,2,70522,task3,564708,false,false,694,image-keyboard-response,28
true,8,1,2,1,true,z,false,true,0.0-2.0-0.21-0.191-3.191,1,0,1,90,false,stim,false,0,566.0,0,0,1,70522,task3,566784,false,false,697,image-keyboard-response,29
true,9,1,1,1,true,z,false,true,0.0-2.0-0.21-0.192-3.192,0,0,1,90,true,stim,false,1,432.0,0,1,2,70522,task3,568723,false,false,700,image-keyboard-response,1
true,9,2,1,1,false,z,false,false,0.0-2.0-0.21-0.193-3.193,0,0,1,68,false,stim,true,2,444.30000001192093,0,0,0,70522,task3,570683,false,false,703,image-keyboard-response,2
true,9,1,1,1,true,z,false,true,0.0-2.0-0.21-0.194-3.194,0,0,1,90,false,stim,false,2,815.8000000119209,0,0,0,70522,task3,573006,false,false,706,image-keyboard-response,3
true,9,1,1,2,false,d,false,false,0.0-2.0-0.21-0.195-3.195,0,0,1,90,false,stim,true,1,697.8000000119209,0,0,1,70522,task3,575215,false,false,709,image-keyboard-response,4
true,9,1,1,1,true,z,false,true,0.0-2.0-0.21-0.196-3.196,0,0,1,90,false,stim,false,2,613.1999999880791,0,0,0,70522,task3,577339,false,false,712,image-keyboard-response,5
true,9,1,1,1,true,z,false,true,0.0-2.0-0.21-0.197-3.197,0,0,1,90,false,stim,false,1,771.7999999821186,0,1,2,70522,task3,579625,false,false,715,image-keyboard-response,6
true,9,1,1,1,true,z,false,true,0.0-2.0-0.22-0.198-3.198,0,0,1,90,false,stim,false,2,626.7999999821186,0,0,0,70522,task3,581761,false,false,718,image-keyboard-response,7
true,9,1,1,1,true,z,false,true,0.0-2.0-0.22-0.199-3.199,0,0,1,90,false,stim,false,2,532.3999999761581,0,0,0,70522,task3,583800,false,false,721,image-keyboard-response,8
true,9,1,1,1,true,z,false,true,0.0-2.0-0.22-0.200-3.200,0,0,1,90,false,stim,false,1,671.4000000059605,0,1,2,70522,task3,585977,false,false,724,image-keyboard-response,9
true,9,0,1,2,false,d,true,false,0.0-2.0-0.22-0.201-3.201,0,0,1,81,false,stim,false,1,736.7000000178814,0,0,1,70522,task3,588228,false,false,727,image-keyboard-response,10
true,9,1,1,1,true,z,false,true,0.0-2.0-0.22-0.202-3.202,0,0,1,90,false,stim,false,2,495.5,0,0,0,70522,task3,590235,false,false,730,image-keyboard-response,11
true,9,2,1,2,true,d,false,true,0.0-2.0-0.22-0.203-3.203,0,0,1,68,false,stim,false,1,677.0,0,0,1,70522,task3,592422,false,false,733,image-keyboard-response,12
true,9,2,1,2,true,d,false,true,0.0-2.0-0.22-0.204-3.204,0,0,1,68,false,stim,false,1,480.0,0,0,1,70522,task3,594408,false,false,736,image-keyboard-response,13
true,9,1,1,1,true,z,false,true,0.0-2.0-0.22-0.205-3.205,0,0,1,90,false,stim,false,1,587.8999999761581,0,1,2,70522,task3,596506,false,false,739,image-keyboard-response,14
true,9,1,1,1,true,z,false,true,0.0-2.0-0.22-0.206-3.206,0,0,1,90,false,stim,false,1,934.4000000059605,0,1,2,70522,task3,598954,false,false,742,image-keyboard-response,15
true,9,1,1,1,true,z,false,true,0.0-2.0-0.23-0.207-3.207,0,0,1,90,false,stim,false,2,674.0999999940395,0,0,0,70522,task3,601139,false,false,745,image-keyboard-response,16
true,9,1,1,1,true,z,false,true,0.0-2.0-0.23-0.208-3.208,0,0,1,90,false,stim,false,1,684.7999999821186,0,1,2,70522,task3,603333,false,false,748,image-keyboard-response,17
true,9,2,1,2,true,d,false,true,0.0-2.0-0.23-0.209-3.209,0,0,1,68,false,stim,false,1,703.4000000059605,0,0,1,70522,task3,605550,false,false,751,image-keyboard-response,18
true,9,2,1,2,true,d,false,true,0.0-2.0-0.23-0.210-3.210,0,0,1,68,false,stim,false,1,563.2000000178814,0,0,1,70522,task3,607627,false,false,754,image-keyboard-response,19
true,9,1,1,1,true,z,false,true,0.0-2.0-0.23-0.211-3.211,0,0,1,90,false,stim,false,1,651.3000000119209,0,1,2,70522,task3,609787,false,false,757,image-keyboard-response,20
true,9,1,1,1,true,z,false,true,0.0-2.0-0.23-0.212-3.212,0,0,1,90,false,stim,false,2,682.1000000238419,0,0,0,70522,task3,611977,false,false,760,image-keyboard-response,21
true,9,2,1,2,true,d,false,true,0.0-2.0-0.23-0.213-3.213,0,0,1,68,false,stim,false,1,848.5999999940395,0,0,1,70522,task3,614334,false,false,763,image-keyboard-response,22
true,9,1,1,1,true,z,false,true,0.0-2.0-0.23-0.214-3.214,0,0,1,90,false,stim,false,2,918.7000000178814,0,0,0,70522,task3,616768,false,false,766,image-keyboard-response,23
true,10,1,1,1,true,z,false,true,0.0-2.0-0.23-0.215-3.215,0,0,1,90,true,stim,false,1,900.0,0,1,2,70522,task3,619173,false,false,769,image-keyboard-response,1
true,10,1,1,0,false,q,false,false,0.0-2.0-0.24-0.216-3.216,0,0,1,90,false,stim,true,1,754.2999999821186,0,0,0,70522,task3,621440,false,false,772,image-keyboard-response,2
true,10,2,1,0,false,q,false,false,0.0-2.0-0.24-0.217-3.217,0,0,1,68,false,stim,true,2,652.5,0,0,1,70522,task3,623604,false,false,775,image-keyboard-response,3
true,10,0,1,0,true,q,false,true,0.0-2.0-0.24-0.218-3.218,0,0,1,81,false,stim,false,1,623.6000000238419,0,0,0,70522,task3,625735,false,false,778,image-keyboard-response,4
true,10,1,1,1,true,z,false,true,0.0-2.0-0.24-0.219-3.219,0,0,1,90,false,stim,false,1,518.5999999940395,0,1,2,70522,task3,627760,false,false,781,image-keyboard-response,5
true,10,0,1,0,true,q,false,true,0.0-2.0-0.24-0.220-3.220,0,0,1,81,false,stim,false,1,562.2999999821186,0,0,0,70522,task3,629838,false,false,784,image-keyboard-response,6
true,10,1,1,1,true,z,false,true,0.0-2.0-0.24-0.221-3.221,0,0,1,90,false,stim,false,1,548.7000000178814,0,0,2,70522,task3,631896,false,false,787,image-keyboard-response,7
true,10,2,1,0,false,q,false,false,0.0-2.0-0.24-0.222-3.222,0,0,1,68,false,stim,true,2,788.6999999880791,0,1,1,70522,task3,634193,false,false,790,image-keyboard-response,8
true,10,1,1,0,false,q,true,false,0.0-2.0-0.24-0.223-3.223,0,0,1,90,false,stim,false,2,598.5,0,1,1,70522,task3,636299,false,false,793,image-keyboard-response,9
true,10,1,1,1,true,z,false,true,0.0-2.0-0.24-0.224-3.224,0,0,1,90,false,stim,false,1,880.8000000119209,0,0,2,70522,task3,638694,false,false,796,image-keyboard-response,10
true,10,0,1,0,true,q,false,true,0.0-2.0-0.25-0.225-3.225,0,0,1,81,false,stim,false,2,426.7000000178814,0,1,1,70522,task3,640631,false,false,799,image-keyboard-response,11
true,11,0,2,0,true,q,false,true,0.0-2.0-0.25-0.226-3.226,1,1,0,81,true,stim,false,0,612.9000000059605,0,1,0,70522,task3,642758,false,false,802,image-keyboard-response,1
true,11,1,2,2,false,d,false,false,0.0-2.0-0.25-0.227-3.227,1,1,0,90,false,stim,true,1,599.8000000119209,0,0,2,70522,task3,644866,false,false,805,image-keyboard-response,2
true,11,0,2,0,true,q,false,true,0.0-2.0-0.25-0.228-3.228,1,1,0,81,false,stim,false,0,665.0,0,1,1,70522,task3,647040,false,false,808,image-keyboard-response,3
true,11,0,2,0,true,q,false,true,0.0-2.0-0.25-0.229-3.229,1,1,0,81,false,stim,false,0,433.10000002384186,0,1,1,70522,task3,648984,false,false,811,image-keyboard-response,4
true,11,2,2,2,true,d,false,false,0.0-2.0-0.25-0.230-3.230,1,1,0,68,false,stim,false,1,511.2999999821186,0,0,2,70522,task3,651004,false,true,814,image-keyboard-response,5
true,11,0,2,0,true,q,false,true,0.0-2.0-0.25-0.231-3.231,1,1,0,81,false,stim,false,0,606.5999999940395,0,1,0,70522,task3,653121,false,false,817,image-keyboard-response,6
true,11,0,2,2,false,d,true,false,0.0-2.0-0.25-0.232-3.232,1,1,0,81,false,stim,false,1,392.90000000596046,0,0,2,70522,task3,655022,false,false,820,image-keyboard-response,7
true,11,0,2,0,true,q,false,true,0.0-2.0-0.25-0.233-3.233,1,1,0,81,false,stim,false,0,543.1999999880791,0,1,0,70522,task3,657073,false,false,823,image-keyboard-response,8
true,11,0,2,0,true,q,false,true,0.0-2.0-0.26-0.234-3.234,1,1,0,81,false,stim,false,0,660.5,0,1,1,70522,task3,659244,false,false,826,image-keyboard-response,9
true,11,1,2,2,false,d,false,false,0.0-2.0-0.26-0.235-3.235,1,1,0,90,false,stim,true,1,454.19999998807907,0,0,2,70522,task3,661213,false,false,829,image-keyboard-response,10
true,11,0,2,0,true,q,false,false,0.0-2.0-0.26-0.236-3.236,1,1,0,81,false,stim,false,0,483.5,0,0,1,70522,task3,663203,false,true,832,image-keyboard-response,11
true,11,0,2,0,true,q,false,true,0.0-2.0-0.26-0.237-3.237,1,1,0,81,false,stim,false,0,580.3000000119209,0,0,0,70522,task3,665288,false,false,835,image-keyboard-response,12
true,11,0,2,2,false,d,true,false,0.0-2.0-0.26-0.238-3.238,1,1,0,81,false,stim,false,1,1005.1000000238419,0,1,2,70522,task3,667807,false,false,838,image-keyboard-response,13
true,11,0,2,0,true,q,false,true,0.0-2.0-0.26-0.239-3.239,1,1,0,81,false,stim,false,0,647.0999999940395,0,0,0,70522,task3,669964,false,false,841,image-keyboard-response,14
true,11,0,2,0,true,q,false,true,0.0-2.0-0.26-0.240-3.240,1,1,0,81,false,stim,false,0,700.9000000059605,0,0,1,70522,task3,672175,false,false,844,image-keyboard-response,15
true,12,0,1,2,false,d,true,false,0.0-2.0-0.26-0.241-3.241,0,0,1,81,true,stim,false,2,632.2999999821186,0,1,2,70522,task3,674323,false,false,847,image-keyboard-response,1
true,12,0,1,1,false,z,false,false,0.0-2.0-0.26-0.242-3.242,0,0,1,81,false,stim,true,0,627.5999999940395,0,0,0,70522,task3,676466,false,false,850,image-keyboard-response,2
true,12,1,1,1,true,z,false,true,0.0-2.0-0.27-0.243-3.243,0,0,1,90,false,stim,false,0,577.8999999761581,0,0,1,70522,task3,678553,false,false,853,image-keyboard-response,3
true,12,1,1,2,false,d,true,false,0.0-2.0-0.27-0.244-3.244,0,0,1,90,false,stim,false,2,669.1999999880791,0,1,2,70522,task3,680732,false,false,856,image-keyboard-response,4
true,12,1,1,1,true,z,false,true,0.0-2.0-0.27-0.245-3.245,0,0,1,90,false,stim,false,0,611.1999999880791,0,0,1,70522,task3,682849,false,false,859,image-keyboard-response,5
true,12,0,1,1,false,z,false,false,0.0-2.0-0.27-0.246-3.246,0,0,1,81,false,stim,true,0,561.5999999940395,0,0,0,70522,task3,684920,false,false,862,image-keyboard-response,6
true,12,2,1,2,true,d,false,true,0.0-2.0-0.27-0.247-3.247,0,0,1,68,false,stim,false,2,1317.5999999940395,0,1,2,70522,task3,687752,false,false,865,image-keyboard-response,7
true,12,1,1,1,true,z,false,true,0.0-2.0-0.27-0.248-3.248,0,0,1,90,false,stim,false,0,411.69999998807907,0,0,1,70522,task3,689669,false,false,868,image-keyboard-response,8
true,12,1,1,1,true,z,false,true,0.0-2.0-0.27-0.249-3.249,0,0,1,90,false,stim,false,0,937.9000000059605,0,0,0,70522,task3,692112,false,false,871,image-keyboard-response,9
true,12,2,1,2,true,d,false,true,0.0-2.0-0.27-0.250-3.250,0,0,1,68,false,stim,false,2,613.4000000059605,0,1,2,70522,task3,694234,false,false,874,image-keyboard-response,10
true,12,1,1,1,true,z,false,true,0.0-2.0-0.27-0.251-3.251,0,0,1,90,false,stim,false,0,549.7000000178814,0,0,0,70522,task3,696289,false,false,877,image-keyboard-response,11
true,12,1,1,1,true,z,false,true,0.0-2.0-0.28-0.252-3.252,0,0,1,90,false,stim,false,0,457.7000000178814,0,0,0,70522,task3,698256,false,false,880,image-keyboard-response,12
true,12,1,1,1,true,z,false,false,0.0-2.0-0.28-0.253-3.253,0,0,1,90,false,stim,false,0,635.1999999880791,0,0,1,70522,task3,700397,false,true,883,image-keyboard-response,13
true,12,2,1,2,true,d,false,true,0.0-2.0-0.28-0.254-3.254,0,0,1,68,false,stim,false,2,733.2000000178814,0,1,2,70522,task3,702641,false,false,886,image-keyboard-response,14
true,12,1,1,1,true,z,false,true,0.0-2.0-0.28-0.255-3.255,0,0,1,90,false,stim,false,0,682.8999999761581,0,0,0,70522,task3,704832,false,false,889,image-keyboard-response,15
true,12,2,1,2,true,d,false,true,0.0-2.0-0.28-0.256-3.256,0,0,1,68,false,stim,false,2,681.0,0,1,2,70522,task3,707022,false,false,892,image-keyboard-response,16
true,12,0,1,1,false,z,false,false,0.0-2.0-0.28-0.257-3.257,0,0,1,81,false,stim,true,0,613.5,0,0,1,70522,task3,709146,false,false,895,image-keyboard-response,17
true,12,2,1,2,true,d,false,false,0.0-2.0-0.28-0.258-3.258,0,0,1,68,false,stim,false,2,697.8999999761581,0,1,2,70522,task3,711355,false,true,898,image-keyboard-response,18
true,12,2,1,1,false,z,true,false,0.0-2.0-0.28-0.259-3.259,0,0,1,68,false,stim,false,0,1703.4000000059605,0,0,1,70522,task3,714571,false,false,901,image-keyboard-response,19
true,12,1,1,1,true,z,false,true,0.0-2.0-0.28-0.260-3.260,0,0,1,90,false,stim,false,0,709.5999999940395,0,0,0,70522,task3,716791,false,false,904,image-keyboard-response,20
true,12,1,1,1,true,z,false,true,0.0-2.0-0.29-0.261-3.261,0,0,1,90,false,stim,false,0,556.1999999880791,0,0,0,70522,task3,718853,false,false,907,image-keyboard-response,21
true,12,1,1,1,true,z,false,true,0.0-2.0-0.29-0.262-3.262,0,0,1,90,false,stim,false,0,456.7000000178814,0,0,0,70522,task3,720817,false,false,910,image-keyboard-response,22
true,12,1,1,1,true,z,false,true,0.0-2.0-0.29-0.263-3.263,0,0,1,90,false,stim,false,0,555.8000000119209,0,0,1,70522,task3,722881,false,false,913,image-keyboard-response,23
true,12,1,1,1,true,z,false,true,0.0-2.0-0.29-0.264-3.264,0,0,1,90,false,stim,false,0,434.5,0,0,1,70522,task3,724824,false,false,916,image-keyboard-response,24
true,12,1,1,2,false,d,true,false,0.0-2.0-0.29-0.265-3.265,0,0,1,90,false,stim,false,2,628.5,0,1,2,70522,task3,726959,false,false,919,image-keyboard-response,25
true,12,2,1,2,true,d,false,true,0.0-2.0-0.29-0.266-3.266,0,0,1,68,false,stim,false,2,1329.5,0,1,2,70522,task3,729796,false,false,922,image-keyboard-response,26
true,12,1,1,1,true,z,false,true,0.0-2.0-0.29-0.267-3.267,0,0,1,90,false,stim,false,0,590.4000000059605,0,0,0,70522,task3,731897,false,false,925,image-keyboard-response,27
true,12,2,1,2,true,d,false,true,0.0-2.0-0.29-0.268-3.268,0,0,1,68,false,stim,false,2,830.5,0,1,2,70522,task3,734239,false,false,928,image-keyboard-response,28
true,12,1,1,1,true,z,false,true,0.0-2.0-0.29-0.269-3.269,0,0,1,90,false,stim,false,0,584.5,0,0,1,70522,task3,736334,false,false,931,image-keyboard-response,29
true,13,2,1,2,true,d,false,true,0.0-2.0-0.30-0.270-3.270,0,0,1,68,true,stim,false,2,1001.1000000238419,0,1,2,70522,task3,738842,false,false,934,image-keyboard-response,1
true,13,1,1,0,false,q,false,false,0.0-2.0-0.30-0.271-3.271,0,0,1,90,false,stim,true,1,527.3999999761581,0,0,0,70522,task3,740880,false,false,937,image-keyboard-response,2
true,13,1,1,2,false,d,false,false,0.0-2.0-0.30-0.272-3.272,0,0,1,90,false,stim,true,1,394.59999999403954,0,0,1,70522,task3,742784,false,false,940,image-keyboard-response,3
true,13,2,1,2,true,d,false,true,0.0-2.0-0.30-0.273-3.273,0,0,1,68,false,stim,false,2,790.3000000119209,0,1,2,70522,task3,745084,false,false,943,image-keyboard-response,4
true,13,2,1,2,true,d,false,false,0.0-2.0-0.30-0.274-3.274,0,0,1,68,false,stim,false,2,722.0,0,1,2,70522,task3,747319,false,true,946,image-keyboard-response,5
true,13,0,1,0,true,q,false,true,0.0-2.0-0.30-0.275-3.275,0,0,1,81,false,stim,false,1,637.5,0,0,0,70522,task3,749464,false,false,949,image-keyboard-response,6
true,13,0,1,2,false,d,true,false,0.0-2.0-0.30-0.276-3.276,0,0,1,81,false,stim,false,1,731.5999999940395,0,0,1,70522,task3,751707,false,false,952,image-keyboard-response,7
true,13,2,1,2,true,d,false,true,0.0-2.0-0.30-0.277-3.277,0,0,1,68,false,stim,false,1,984.5999999940395,0,0,1,70522,task3,754200,false,false,955,image-keyboard-response,8
true,13,0,1,0,true,q,false,true,0.0-2.0-0.30-0.278-3.278,0,0,1,81,false,stim,false,1,549.7999999821186,0,0,0,70522,task3,756260,false,false,958,image-keyboard-response,9
true,13,2,1,2,true,d,false,true,0.0-2.0-0.31-0.279-3.279,0,0,1,68,false,stim,false,1,567.8999999761581,0,1,1,70522,task3,758337,false,false,961,image-keyboard-response,10
true,13,2,1,2,true,d,false,true,0.0-2.0-0.31-0.280-3.280,0,0,1,68,false,stim,false,1,705.7999999821186,0,1,1,70522,task3,760550,false,false,964,image-keyboard-response,11
true,13,1,1,2,false,d,true,false,0.0-2.0-0.31-0.281-3.281,0,0,1,90,false,stim,false,2,565.0,0,0,2,70522,task3,762628,false,false,967,image-keyboard-response,12
true,13,0,1,0,true,q,false,true,0.0-2.0-0.31-0.282-3.282,0,0,1,81,false,stim,false,1,619.5,0,1,0,70522,task3,764757,false,false,970,image-keyboard-response,13
true,13,0,1,0,true,q,false,true,0.0-2.0-0.31-0.283-3.283,0,0,1,81,false,stim,false,1,535.5999999940395,0,1,0,70522,task3,766805,false,false,973,image-keyboard-response,14
true,14,0,2,0,true,q,false,true,0.0-2.0-0.31-0.284-3.284,1,1,0,81,true,stim,false,0,507.5,0,1,0,70522,task3,768826,false,false,976,image-keyboard-response,1
true,14,2,2,2,true,d,false,true,0.0-2.0-0.31-0.285-3.285,1,1,0,68,false,stim,false,2,698.5999999940395,0,1,1,70522,task3,771039,false,false,979,image-keyboard-response,2
true,14,2,2,1,false,z,false,false,0.0-2.0-0.31-0.286-3.286,1,1,0,68,false,stim,true,2,479.5,0,0,2,70522,task3,773028,false,false,982,image-keyboard-response,3
true,14,0,2,1,false,z,true,false,0.0-2.0-0.31-0.287-3.287,1,1,0,81,false,stim,false,2,696.9000000059605,0,0,2,70522,task3,775240,false,false,985,image-keyboard-response,4
true,14,2,2,2,true,d,false,true,0.0-2.0-0.32-0.288-3.288,1,1,0,68,false,stim,false,2,878.7000000178814,0,1,1,70522,task3,777631,false,false,988,image-keyboard-response,5
true,14,2,2,2,true,d,false,true,0.0-2.0-0.32-0.289-3.289,1,1,0,68,false,stim,false,2,863.0999999940395,0,1,1,70522,task3,780004,false,false,991,image-keyboard-response,6
true,14,1,2,1,true,z,false,true,0.0-2.0-0.32-0.290-3.290,1,1,0,90,false,stim,false,2,1049.199999988079,0,0,2,70522,task3,782568,false,false,994,image-keyboard-response,7
true,14,0,2,0,true,q,false,true,0.0-2.0-0.32-0.291-3.291,1,1,0,81,false,stim,false,0,475.0,0,1,0,70522,task3,784555,false,false,997,image-keyboard-response,8
true,14,0,2,0,true,q,false,true,0.0-2.0-0.32-0.292-3.292,1,1,0,81,false,stim,false,0,550.5,0,1,0,70522,task3,786614,false,false,1000,image-keyboard-response,9
true,14,1,2,1,true,z,false,false,0.0-2.0-0.32-0.293-3.293,1,1,0,90,false,stim,false,2,518.0999999940395,0,0,2,70522,task3,788650,false,true,1003,image-keyboard-response,10
true,14,2,2,1,false,z,false,false,0.0-2.0-0.32-0.294-3.294,1,1,0,68,false,stim,true,2,553.1999999880791,0,1,2,70522,task3,790718,false,false,1006,image-keyboard-response,11
true,14,2,2,2,true,d,false,true,0.0-2.0-0.32-0.295-3.295,1,1,0,68,false,stim,false,2,752.0,0,0,1,70522,task3,792980,false,false,1009,image-keyboard-response,12
true,14,0,2,0,true,q,false,true,0.0-2.0-0.32-0.296-3.296,1,1,0,81,false,stim,false,0,493.09999999403954,0,1,0,70522,task3,794985,false,false,1012,image-keyboard-response,13
true,14,1,2,1,true,z,false,true,0.0-2.0-0.33-0.297-3.297,1,1,0,90,false,stim,false,2,546.6000000238419,0,1,2,70522,task3,797042,false,false,1015,image-keyboard-response,14
true,14,0,2,0,true,q,false,true,0.0-2.0-0.33-0.298-3.298,1,1,0,81,false,stim,false,0,633.1000000238419,0,1,0,70522,task3,799187,false,false,1018,image-keyboard-response,15
true,15,2,2,1,false,z,false,false,0.0-2.0-0.33-0.299-3.299,1,0,1,68,true,stim,true,2,805.5999999940395,0,0,1,70522,task3,801507,false,false,1021,image-keyboard-response,1
true,15,2,2,1,false,z,false,false,0.0-2.0-0.33-0.300-3.300,1,0,1,68,false,stim,true,2,880.5,0,0,1,70522,task3,803902,false,false,1024,image-keyboard-response,2
true,15,0,2,0,true,q,false,true,0.0-2.0-0.33-0.301-3.301,1,0,1,81,false,stim,false,0,527.7999999821186,0,1,0,70522,task3,805940,false,false,1027,image-keyboard-response,3
true,15,1,2,1,true,z,false,true,0.0-2.0-0.33-0.302-3.302,1,0,1,90,false,stim,false,2,466.09999999403954,0,0,1,70522,task3,807917,false,false,1030,image-keyboard-response,4
true,15,2,2,1,false,z,true,false,0.0-2.0-0.33-0.303-3.303,1,0,1,68,false,stim,false,1,519.8000000119209,0,1,2,70522,task3,809948,false,false,1033,image-keyboard-response,5
true,15,0,2,0,true,q,false,true,0.0-2.0-0.33-0.304-3.304,1,0,1,81,false,stim,false,0,639.8000000119209,0,1,0,70522,task3,812096,false,false,1036,image-keyboard-response,6
true,15,1,2,1,true,z,false,true,0.0-2.0-0.33-0.305-3.305,1,0,1,90,false,stim,false,1,596.4000000059605,0,1,2,70522,task3,814205,false,false,1039,image-keyboard-response,7
true,15,1,2,1,true,z,false,true,0.0-2.0-0.34-0.306-3.306,1,0,1,90,false,stim,false,1,497.40000000596046,0,1,2,70522,task3,816213,false,false,1042,image-keyboard-response,8
true,15,1,2,1,true,z,false,true,0.0-2.0-0.34-0.307-3.307,1,0,1,90,false,stim,false,2,965.1000000238419,0,1,1,70522,task3,818686,false,false,1045,image-keyboard-response,9
true,15,1,2,1,true,z,false,true,0.0-2.0-0.34-0.308-3.308,1,0,1,90,false,stim,false,1,1042.6000000238419,0,0,2,70522,task3,821240,false,false,1048,image-keyboard-response,10
true,15,1,2,1,true,z,false,true,0.0-2.0-0.34-0.309-3.309,1,0,1,90,false,stim,false,2,1330.9000000059605,0,1,1,70522,task3,824084,false,false,1051,image-keyboard-response,11
true,15,1,2,1,true,z,false,true,0.0-2.0-0.34-0.310-3.310,1,0,1,90,false,stim,false,1,1374.7000000178814,0,0,2,70522,task3,826973,false,false,1054,image-keyboard-response,12
true,15,0,2,0,true,q,false,true,0.0-2.0-0.34-0.311-3.311,1,0,1,81,false,stim,false,0,628.8000000119209,0,1,0,70522,task3,829110,false,false,1057,image-keyboard-response,13
true,16,0,2,0,true,q,false,false,0.0-2.0-0.34-0.312-3.312,1,1,0,81,true,stim,false,0,479.7999999821186,0,1,0,70522,task3,831096,false,true,1060,image-keyboard-response,1
true,16,1,2,0,false,q,true,false,0.0-2.0-0.34-0.313-3.313,1,1,0,90,false,stim,false,0,618.8999999761581,0,1,0,70522,task3,833226,false,false,1063,image-keyboard-response,2
true,16,1,2,1,true,z,false,true,0.0-2.0-0.34-0.314-3.314,1,1,0,90,false,stim,false,1,578.5,0,1,1,70522,task3,835318,false,false,1066,image-keyboard-response,3
true,16,2,2,0,false,q,true,false,0.0-2.0-0.35-0.315-3.315,1,1,0,68,false,stim,false,0,727.4000000059605,0,1,0,70522,task3,837557,false,false,1069,image-keyboard-response,4
true,16,1,2,1,true,z,false,false,0.0-2.0-0.35-0.316-3.316,1,1,0,90,false,stim,false,1,1231.2000000178814,0,1,1,70522,task3,840301,false,true,1072,image-keyboard-response,5
true,16,0,2,1,false,z,true,false,0.0-2.0-0.35-0.317-3.317,1,1,0,81,false,stim,false,1,677.9000000059605,0,1,1,70522,task3,842491,false,false,1075,image-keyboard-response,6
true,16,0,2,0,true,q,false,true,0.0-2.0-0.35-0.318-3.318,1,1,0,81,false,stim,false,0,580.9000000059605,0,1,0,70522,task3,844578,false,false,1078,image-keyboard-response,7
true,16,1,2,0,false,q,false,false,0.0-2.0-0.35-0.319-3.319,1,1,0,90,false,stim,true,1,442.30000001192093,0,0,2,70522,task3,846533,false,false,1081,image-keyboard-response,8
true,16,2,2,0,false,q,true,true,0.0-2.0-0.35-0.320-3.320,1,1,0,68,false,stim,false,1,701.2999999821186,0,0,2,70522,task3,848747,false,true,1084,image-keyboard-response,9
true,16,1,2,1,true,z,false,true,0.0-2.0-0.35-0.321-3.321,1,1,0,90,false,stim,false,1,402.09999999403954,0,1,1,70522,task3,850659,false,false,1087,image-keyboard-response,10
true,16,0,2,0,true,q,false,true,0.0-2.0-0.35-0.322-3.322,1,1,0,81,false,stim,false,0,549.0999999940395,0,1,0,70522,task3,852718,false,false,1090,image-keyboard-response,11
true,16,2,2,0,false,q,true,false,0.0-2.0-0.35-0.323-3.323,1,1,0,68,false,stim,false,1,622.6999999880791,0,0,2,70522,task3,854855,false,false,1093,image-keyboard-response,12
true,16,0,2,0,true,q,false,true,0.0-2.0-0.36-0.324-3.324,1,1,0,81,false,stim,false,0,609.0,0,1,0,70522,task3,856974,false,false,1096,image-keyboard-response,13
true,16,1,2,1,true,z,false,true,0.0-2.0-0.36-0.325-3.325,1,1,0,90,false,stim,false,1,464.40000000596046,0,1,1,70522,task3,858946,false,false,1099,image-keyboard-response,14
true,16,1,2,0,false,q,false,false,0.0-2.0-0.36-0.326-3.326,1,1,0,90,false,stim,true,1,359.89999997615814,0,0,2,70522,task3,860823,false,false,1102,image-keyboard-response,15
true,16,0,2,0,true,q,false,true,0.0-2.0-0.36-0.327-3.327,1,1,0,81,false,stim,false,1,537.0,0,0,2,70522,task3,862871,false,false,1105,image-keyboard-response,16
true,16,0,2,0,true,q,false,true,0.0-2.0-0.36-0.328-3.328,1,1,0,81,false,stim,false,1,681.5999999940395,0,0,2,70522,task3,865062,false,false,1108,image-keyboard-response,17
true,16,1,2,1,true,z,false,true,0.0-2.0-0.36-0.329-3.329,1,1,0,90,false,stim,false,1,728.6999999880791,0,1,1,70522,task3,867302,false,false,1111,image-keyboard-response,18
true,16,0,2,0,true,q,false,true,0.0-2.0-0.36-0.330-3.330,1,1,0,81,false,stim,false,0,510.60000002384186,0,1,0,70522,task3,869324,false,false,1114,image-keyboard-response,19
true,16,1,2,1,true,z,false,true,0.0-2.0-0.36-0.331-3.331,1,1,0,90,false,stim,false,1,837.9000000059605,0,1,1,70522,task3,871673,false,false,1117,image-keyboard-response,20
true,16,0,2,0,true,q,false,true,0.0-2.0-0.36-0.332-3.332,1,1,0,81,false,stim,false,0,455.09999999403954,0,1,0,70522,task3,873638,false,false,1120,image-keyboard-response,21
true,16,1,2,1,true,z,false,true,0.0-2.0-0.37-0.333-3.333,1,1,0,90,false,stim,false,1,740.0,0,1,1,70522,task3,875890,false,false,1123,image-keyboard-response,22
true,16,0,2,0,true,q,false,true,0.0-2.0-0.37-0.334-3.334,1,1,0,81,false,stim,false,0,984.8999999761581,0,1,0,70522,task3,878390,false,false,1126,image-keyboard-response,23
true,16,1,2,1,true,z,false,true,0.0-2.0-0.37-0.335-3.335,1,1,0,90,false,stim,false,1,665.4000000059605,0,1,1,70522,task3,880567,false,false,1129,image-keyboard-response,24
true,16,0,2,0,true,q,false,true,0.0-2.0-0.37-0.336-3.336,1,1,0,81,false,stim,false,1,665.9000000059605,0,0,2,70522,task3,882744,false,false,1132,image-keyboard-response,25
true,16,0,2,0,true,q,false,true,0.0-2.0-0.37-0.337-3.337,1,1,0,81,false,stim,false,0,754.2999999821186,0,0,0,70522,task3,885005,false,false,1135,image-keyboard-response,26
true,16,0,2,0,true,q,false,true,0.0-2.0-0.37-0.338-3.338,1,1,0,81,false,stim,false,1,1216.5,0,0,2,70522,task3,887730,false,false,1138,image-keyboard-response,27
true,16,0,2,0,true,q,false,true,0.0-2.0-0.37-0.339-3.339,1,1,0,81,false,stim,false,1,747.2000000178814,0,0,2,70522,task3,889992,false,false,1141,image-keyboard-response,28
true,17,0,1,2,false,d,false,false,0.0-2.0-0.37-0.340-3.340,0,1,0,81,true,stim,true,0,655.5,0,0,0,70522,task3,892158,false,false,1144,image-keyboard-response,1
true,17,1,1,1,true,z,false,true,0.0-2.0-0.37-0.341-3.341,0,1,0,90,false,stim,false,1,617.3000000119209,0,1,1,70522,task3,894282,false,false,1147,image-keyboard-response,2
true,17,1,1,1,true,z,false,true,0.0-2.0-0.38-0.342-3.342,0,1,0,90,false,stim,false,1,714.5999999940395,0,1,1,70522,task3,896507,false,false,1150,image-keyboard-response,3
true,17,0,1,2,false,d,false,false,0.0-2.0-0.38-0.343-3.343,0,1,0,81,false,stim,true,0,1043.300000011921,0,0,2,70522,task3,899061,false,false,1153,image-keyboard-response,4
true,17,0,1,2,false,d,false,false,0.0-2.0-0.38-0.344-3.344,0,1,0,81,false,stim,true,0,626.4000000059605,0,0,0,70522,task3,901201,false,false,1156,image-keyboard-response,5
true,17,1,1,2,false,d,true,false,0.0-2.0-0.38-0.345-3.345,0,1,0,90,false,stim,false,0,702.3999999761581,0,0,0,70522,task3,903414,false,false,1159,image-keyboard-response,6
true,17,1,1,2,false,d,true,false,0.0-2.0-0.38-0.346-3.346,0,1,0,90,false,stim,false,0,1150.4000000059605,0,0,2,70522,task3,906076,false,false,1162,image-keyboard-response,7
true,17,2,1,2,true,d,false,true,0.0-2.0-0.38-0.347-3.347,0,1,0,68,false,stim,false,0,722.2000000178814,0,0,0,70522,task3,908306,false,false,1165,image-keyboard-response,8
true,17,1,1,1,true,z,false,true,0.0-2.0-0.38-0.348-3.348,0,1,0,90,false,stim,false,1,437.2000000178814,0,1,1,70522,task3,910258,false,false,1168,image-keyboard-response,9
true,17,1,1,1,true,z,false,true,0.0-2.0-0.38-0.349-3.349,0,1,0,90,false,stim,false,1,636.6000000238419,0,1,1,70522,task3,912405,false,false,1171,image-keyboard-response,10
true,17,2,1,2,true,d,false,true,0.0-2.0-0.38-0.350-3.350,0,1,0,68,false,stim,false,0,1194.199999988079,0,0,2,70522,task3,915111,false,false,1174,image-keyboard-response,11
true,17,2,1,2,true,d,false,true,0.0-2.0-0.39-0.351-3.351,0,1,0,68,false,stim,false,0,1186.7000000178814,0,0,0,70522,task3,917807,false,false,1177,image-keyboard-response,12
true,17,2,1,2,true,d,false,true,0.0-2.0-0.39-0.352-3.352,0,1,0,68,false,stim,false,0,1439.800000011921,0,0,2,70522,task3,920759,false,false,1180,image-keyboard-response,13
true,17,2,1,2,true,d,false,false,0.0-2.0-0.39-0.353-3.353,0,1,0,68,false,stim,false,0,480.90000000596046,0,0,2,70522,task3,922750,false,true,1183,image-keyboard-response,14
true,17,1,1,1,true,z,false,true,0.0-2.0-0.39-0.354-3.354,0,1,0,90,false,stim,false,1,518.2999999821186,0,1,1,70522,task3,924782,false,false,1186,image-keyboard-response,15
true,17,1,1,1,true,z,false,true,0.0-2.0-0.39-0.355-3.355,0,1,0,90,false,stim,false,1,664.1999999880791,0,1,1,70522,task3,926959,false,false,1189,image-keyboard-response,16
true,17,2,1,2,true,d,false,true,0.0-2.0-0.39-0.356-3.356,0,1,0,68,false,stim,false,0,812.4000000059605,0,0,0,70522,task3,929285,false,false,1192,image-keyboard-response,17
true,17,1,1,1,true,z,false,true,0.0-2.0-0.39-0.357-3.357,0,1,0,90,false,stim,false,1,618.8000000119209,0,1,1,70522,task3,931411,false,false,1195,image-keyboard-response,18
true,17,2,1,2,true,d,false,true,0.0-2.0-0.39-0.358-3.358,0,1,0,68,false,stim,false,0,803.8000000119209,0,0,2,70522,task3,933728,false,false,1198,image-keyboard-response,19
true,17,2,1,2,true,d,false,true,0.0-2.0-0.39-0.359-3.359,0,1,0,68,false,stim,false,0,1046.6000000238419,0,0,0,70522,task3,936294,false,false,1201,image-keyboard-response,20
true,17,1,1,1,true,z,false,true,0.0-2.0-0.40-0.360-3.360,0,1,0,90,false,stim,false,1,546.9000000059605,0,1,1,70522,task3,938353,false,false,1204,image-keyboard-response,21
true,17,2,1,2,true,d,false,true,0.0-2.0-0.40-0.361-3.361,0,1,0,68,false,stim,false,0,711.5999999940395,0,0,2,70522,task3,940574,false,false,1207,image-keyboard-response,22
true,17,2,1,2,true,d,false,true,0.0-2.0-0.40-0.362-3.362,0,1,0,68,false,stim,false,0,1063.199999988079,0,0,0,70522,task3,943143,false,false,1210,image-keyboard-response,23
true,17,2,1,2,true,d,false,true,0.0-2.0-0.40-0.363-3.363,0,1,0,68,false,stim,false,0,646.2000000178814,0,0,0,70522,task3,945304,false,false,1213,image-keyboard-response,24
true,17,2,1,2,true,d,false,true,0.0-2.0-0.40-0.364-3.364,0,1,0,68,false,stim,false,0,873.5,0,0,0,70522,task3,947691,false,false,1216,image-keyboard-response,25
true,17,1,1,1,true,z,false,true,0.0-2.0-0.40-0.365-3.365,0,1,0,90,false,stim,false,1,544.6000000238419,0,1,1,70522,task3,949746,false,false,1219,image-keyboard-response,26
true,17,2,1,2,true,d,false,true,0.0-2.0-0.40-0.366-3.366,0,1,0,68,false,stim,false,0,697.5,0,0,2,70522,task3,951954,false,false,1222,image-keyboard-response,27
true,17,2,1,2,true,d,false,true,0.0-2.0-0.40-0.367-3.367,0,1,0,68,false,stim,false,0,541.3000000119209,0,0,2,70522,task3,954010,false,false,1225,image-keyboard-response,28
true,17,1,1,1,true,z,false,true,0.0-2.0-0.40-0.368-3.368,0,1,0,90,false,stim,false,1,772.6999999880791,0,1,1,70522,task3,956298,false,false,1228,image-keyboard-response,29
true,17,1,1,1,true,z,false,true,0.0-2.0-0.41-0.369-3.369,0,1,0,90,false,stim,false,1,729.2999999821186,0,1,1,70522,task3,958542,false,false,1231,image-keyboard-response,30
true,18,2,2,2,true,d,false,true,0.0-2.0-0.41-0.370-3.370,1,1,0,68,true,stim,false,2,666.7000000178814,0,1,0,70522,task3,960720,false,false,1234,image-keyboard-response,1
true,18,1,2,1,true,z,false,true,0.0-2.0-0.41-0.371-3.371,1,1,0,90,false,stim,false,1,801.0999999940395,0,1,1,70522,task3,963035,false,false,1237,image-keyboard-response,2
true,18,2,2,0,false,q,false,false,0.0-2.0-0.41-0.372-3.372,1,1,0,68,false,stim,true,2,689.9000000059605,0,0,2,70522,task3,965241,false,false,1240,image-keyboard-response,3
true,18,1,2,0,false,q,true,true,0.0-2.0-0.41-0.373-3.373,1,1,0,90,false,stim,false,2,530.5,0,0,2,70522,task3,967284,false,true,1243,image-keyboard-response,4
true,18,2,2,2,true,d,false,true,0.0-2.0-0.41-0.374-3.374,1,1,0,68,false,stim,false,2,737.2000000178814,0,1,0,70522,task3,969531,false,false,1246,image-keyboard-response,5
true,18,1,2,1,true,z,false,true,0.0-2.0-0.41-0.375-3.375,1,1,0,90,false,stim,false,1,473.39999997615814,0,1,1,70522,task3,971515,false,false,1249,image-keyboard-response,6
true,18,1,2,0,false,q,true,false,0.0-2.0-0.41-0.376-3.376,1,1,0,90,false,stim,false,2,488.2999999821186,0,0,2,70522,task3,973514,false,false,1252,image-keyboard-response,7
true,18,2,2,2,true,d,false,true,0.0-2.0-0.41-0.377-3.377,1,1,0,68,false,stim,false,2,627.5,0,1,0,70522,task3,975649,false,false,1255,image-keyboard-response,8
true,18,1,2,1,true,z,false,true,0.0-2.0-0.42-0.378-3.378,1,1,0,90,false,stim,false,1,572.1999999880791,0,1,1,70522,task3,977736,false,false,1258,image-keyboard-response,9
true,18,0,2,0,true,q,false,true,0.0-2.0-0.42-0.379-3.379,1,1,0,81,false,stim,false,2,507.10000002384186,0,0,2,70522,task3,979757,false,false,1261,image-keyboard-response,10
true,18,0,2,0,true,q,false,true,0.0-2.0-0.42-0.380-3.380,1,1,0,81,false,stim,false,2,668.4000000059605,0,1,2,70522,task3,981938,false,false,1264,image-keyboard-response,11
true,18,1,2,1,true,z,false,true,0.0-2.0-0.42-0.381-3.381,1,1,0,90,false,stim,false,1,538.3999999761581,0,0,1,70522,task3,983990,false,false,1267,image-keyboard-response,12
true,18,0,2,0,true,q,false,true,0.0-2.0-0.42-0.382-3.382,1,1,0,81,false,stim,false,2,683.8000000119209,0,1,2,70522,task3,986189,false,false,1270,image-keyboard-response,13
true,18,2,2,2,true,d,false,true,0.0-2.0-0.42-0.383-3.383,1,1,0,68,false,stim,false,2,619.9000000059605,0,1,0,70522,task3,988322,false,false,1273,image-keyboard-response,14
true,18,1,2,1,true,z,false,true,0.0-2.0-0.42-0.384-3.384,1,1,0,90,false,stim,false,1,611.0999999940395,0,0,1,70522,task3,990446,false,false,1276,image-keyboard-response,15
true,19,2,2,2,true,d,false,true,0.0-2.0-0.42-0.385-3.385,1,0,1,68,true,stim,false,2,598.6999999880791,0,1,0,70522,task3,992556,false,false,1279,image-keyboard-response,1
true,19,2,2,2,true,d,false,true,0.0-2.0-0.42-0.386-3.386,1,0,1,68,false,stim,false,2,994.6000000238419,0,1,0,70522,task3,995065,false,false,1282,image-keyboard-response,2
true,19,0,2,0,true,q,false,true,0.0-2.0-0.43-0.387-3.387,1,0,1,81,false,stim,false,0,663.4000000059605,0,1,2,70522,task3,997239,false,false,1285,image-keyboard-response,3
true,19,1,2,2,false,d,false,false,0.0-2.0-0.43-0.388-3.388,1,0,1,90,false,stim,true,1,648.6999999880791,0,0,1,70522,task3,999401,false,false,1288,image-keyboard-response,4
true,19,0,2,0,true,q,false,true,0.0-2.0-0.43-0.389-3.389,1,0,1,81,false,stim,false,0,757.3000000119209,0,1,2,70522,task3,1001672,false,false,1291,image-keyboard-response,5
true,19,2,2,2,true,d,false,true,0.0-2.0-0.43-0.390-3.390,1,0,1,68,false,stim,false,2,1085.5,0,1,0,70522,task3,1004264,false,false,1294,image-keyboard-response,6
true,19,2,2,2,true,d,false,true,0.0-2.0-0.43-0.391-3.391,1,0,1,68,false,stim,false,2,628.0,0,1,0,70522,task3,1006404,false,false,1297,image-keyboard-response,7
true,19,2,2,2,true,d,false,true,0.0-2.0-0.43-0.392-3.392,1,0,1,68,false,stim,false,2,880.0,0,0,0,70522,task3,1008799,false,false,1300,image-keyboard-response,8
true,19,1,2,2,false,d,false,false,0.0-2.0-0.43-0.393-3.393,1,0,1,90,false,stim,true,1,652.1000000238419,0,1,1,70522,task3,1010972,false,false,1303,image-keyboard-response,9
true,19,0,2,0,true,q,false,false,0.0-2.0-0.43-0.394-3.394,1,0,1,81,false,stim,false,0,574.1999999880791,0,0,2,70522,task3,1013057,false,true,1306,image-keyboard-response,10
true,19,2,2,2,true,d,false,true,0.0-2.0-0.43-0.395-3.395,1,0,1,68,false,stim,false,1,641.0,0,1,1,70522,task3,1015208,false,false,1309,image-keyboard-response,11
true,19,2,2,2,true,d,false,true,0.0-2.0-0.44-0.396-3.396,1,0,1,68,false,stim,false,1,567.6999999880791,0,1,1,70522,task3,1017286,false,false,1312,image-keyboard-response,12
true,20,2,1,2,true,d,false,true,0.0-2.0-0.44-0.397-3.397,0,1,0,68,true,stim,false,2,638.0,0,1,1,70522,task3,1019432,false,false,1315,image-keyboard-response,1
true,20,1,1,2,false,d,true,false,0.0-2.0-0.44-0.398-3.398,0,1,0,90,false,stim,false,0,426.09999999403954,0,0,2,70522,task3,1021366,false,false,1318,image-keyboard-response,2
true,20,2,1,2,true,d,false,true,0.0-2.0-0.44-0.399-3.399,0,1,0,68,false,stim,false,0,500.90000000596046,0,0,2,70522,task3,1023375,false,false,1321,image-keyboard-response,3
true,20,2,1,2,true,d,false,true,0.0-2.0-0.44-0.400-3.400,0,1,0,68,false,stim,false,2,585.1999999880791,0,1,1,70522,task3,1025476,false,false,1324,image-keyboard-response,4
true,20,0,1,1,false,z,true,false,0.0-2.0-0.44-0.401-3.401,0,1,0,81,false,stim,false,2,763.4000000059605,0,0,0,70522,task3,1027755,false,false,1327,image-keyboard-response,5
true,20,2,1,1,false,z,false,false,0.0-2.0-0.44-0.402-3.402,0,1,0,68,false,stim,true,2,823.0,0,0,0,70522,task3,1030089,false,false,1330,image-keyboard-response,6
true,20,2,1,2,true,d,false,false,0.0-2.0-0.44-0.403-3.403,0,1,0,68,false,stim,false,0,618.0,0,0,2,70522,task3,1032217,false,true,1333,image-keyboard-response,7
true,20,1,1,1,true,z,false,true,0.0-2.0-0.44-0.404-3.404,0,1,0,90,false,stim,false,2,402.80000001192093,0,0,0,70522,task3,1034131,false,false,1336,image-keyboard-response,8
true,20,1,1,1,true,z,false,true,0.0-2.0-0.45-0.405-3.405,0,1,0,90,false,stim,false,2,556.8000000119209,0,0,0,70522,task3,1036199,false,false,1339,image-keyboard-response,9
true,20,1,1,1,true,z,false,true,0.0-2.0-0.45-0.406-3.406,0,1,0,90,false,stim,false,2,402.2999999821186,0,0,0,70522,task3,1038112,false,false,1342,image-keyboard-response,10
true,20,2,1,2,true,d,false,true,0.0-2.0-0.45-0.407-3.407,0,1,0,68,false,stim,false,2,627.0999999940395,0,0,1,70522,task3,1040247,false,false,1345,image-keyboard-response,11
true,20,2,1,2,true,d,false,true,0.0-2.0-0.45-0.408-3.408,0,1,0,68,false,stim,false,2,405.0,0,0,1,70522,task3,1042164,false,false,1348,image-keyboard-response,12
true,20,2,1,2,true,d,false,true,0.0-2.0-0.45-0.409-3.409,0,1,0,68,false,stim,false,0,510.5,0,1,2,70522,task3,1044187,false,false,1351,image-keyboard-response,13
true,20,2,1,2,true,d,false,true,0.0-2.0-0.45-0.410-3.410,0,1,0,68,false,stim,false,2,673.2000000178814,0,0,1,70522,task3,1046374,false,false,1354,image-keyboard-response,14
true,20,2,1,2,true,d,false,true,0.0-2.0-0.45-0.411-3.411,0,1,0,68,false,stim,false,0,584.4000000059605,0,1,2,70522,task3,1048469,false,false,1357,image-keyboard-response,15
true,21,2,2,2,true,d,false,true,0.0-2.0-0.45-0.412-3.412,1,0,1,68,true,stim,false,2,533.5999999940395,0,1,2,70522,task3,1050512,false,false,1360,image-keyboard-response,1
true,21,1,2,1,true,z,false,true,0.0-2.0-0.45-0.413-3.413,1,0,1,90,false,stim,false,1,629.7999999821186,0,1,0,70522,task3,1052656,false,false,1363,image-keyboard-response,2
true,21,1,2,1,true,z,false,false,0.0-2.0-0.46-0.414-3.414,1,0,1,90,false,stim,false,1,484.80000001192093,0,1,0,70522,task3,1054649,false,true,1366,image-keyboard-response,3
true,21,1,2,1,true,z,false,true,0.0-2.0-0.46-0.415-3.415,1,0,1,90,false,stim,false,1,358.30000001192093,0,1,0,70522,task3,1056518,false,false,1369,image-keyboard-response,4
true,21,2,2,2,true,d,false,true,0.0-2.0-0.46-0.416-3.416,1,0,1,68,false,stim,false,2,782.2999999821186,0,1,2,70522,task3,1058814,false,false,1372,image-keyboard-response,5
true,21,2,2,0,false,q,false,true,0.0-2.0-0.46-0.417-3.417,1,0,1,68,false,stim,true,2,1046.800000011921,0,0,1,70522,task3,1061369,false,true,1375,image-keyboard-response,6
true,21,2,2,0,false,q,false,false,0.0-2.0-0.46-0.418-3.418,1,0,1,68,false,stim,true,2,888.0,0,0,1,70522,task3,1063768,false,false,1378,image-keyboard-response,7
true,21,1,2,1,true,z,false,true,0.0-2.0-0.46-0.419-3.419,1,0,1,90,false,stim,false,1,603.4000000059605,0,0,0,70522,task3,1065880,false,false,1381,image-keyboard-response,8
true,21,2,2,2,true,d,false,true,0.0-2.0-0.46-0.420-3.420,1,0,1,68,false,stim,false,2,691.0,0,1,2,70522,task3,1068081,false,false,1384,image-keyboard-response,9
true,21,2,2,2,true,d,false,true,0.0-2.0-0.46-0.421-3.421,1,0,1,68,false,stim,false,2,498.19999998807907,0,1,2,70522,task3,1070093,false,false,1387,image-keyboard-response,10
true,21,2,2,0,false,q,false,false,0.0-2.0-0.46-0.422-3.422,1,0,1,68,false,stim,true,2,1100.7000000178814,0,1,1,70522,task3,1072707,false,false,1390,image-keyboard-response,11
true,21,1,2,0,false,q,true,false,0.0-2.0-0.47-0.423-3.423,1,0,1,90,false,stim,false,2,504.09999999403954,0,1,1,70522,task3,1074721,false,false,1393,image-keyboard-response,12
true,22,2,2,2,true,d,false,true,0.0-2.0-0.47-0.424-3.424,0,1,1,68,true,stim,false,2,842.0999999940395,0,1,2,70522,task3,1077075,false,false,1396,image-keyboard-response,1
true,22,1,2,2,false,d,false,false,0.0-2.0-0.47-0.425-3.425,0,1,1,90,false,stim,true,1,571.0999999940395,0,0,0,70522,task3,1079156,false,false,1399,image-keyboard-response,2
true,22,0,2,0,true,q,false,true,0.0-2.0-0.47-0.426-3.426,0,1,1,81,false,stim,false,0,852.5,0,1,1,70522,task3,1081528,false,false,1402,image-keyboard-response,3
true,22,2,2,2,true,d,false,true,0.0-2.0-0.47-0.427-3.427,0,1,1,68,false,stim,false,2,400.19999998807907,0,1,2,70522,task3,1083438,false,false,1405,image-keyboard-response,4
true,22,0,2,0,true,q,false,true,0.0-2.0-0.47-0.428-3.428,0,1,1,81,false,stim,false,0,599.4000000059605,0,1,1,70522,task3,1085549,false,false,1408,image-keyboard-response,5
true,22,0,2,2,false,d,true,false,0.0-2.0-0.47-0.429-3.429,0,1,1,81,false,stim,false,1,679.5,0,0,0,70522,task3,1087739,false,false,1411,image-keyboard-response,6
true,22,2,2,2,true,d,false,true,0.0-2.0-0.47-0.430-3.430,0,1,1,68,false,stim,false,2,649.6999999880791,0,1,2,70522,task3,1089901,false,false,1414,image-keyboard-response,7
true,22,2,2,2,true,d,false,true,0.0-2.0-0.47-0.431-3.431,0,1,1,68,false,stim,false,1,376.80000001192093,0,0,0,70522,task3,1091786,false,false,1417,image-keyboard-response,8
true,22,2,2,2,true,d,false,true,0.0-2.0-0.48-0.432-3.432,0,1,1,68,false,stim,false,1,442.89999997615814,0,0,0,70522,task3,1093736,false,false,1420,image-keyboard-response,9
true,22,2,2,2,true,d,false,true,0.0-2.0-0.48-0.433-3.433,0,1,1,68,false,stim,false,1,438.40000000596046,0,0,0,70522,task3,1095684,false,false,1423,image-keyboard-response,10
true,22,0,2,0,true,q,false,true,0.0-2.0-0.48-0.434-3.434,0,1,1,81,false,stim,false,0,720.1999999880791,0,1,1,70522,task3,1097918,false,false,1426,image-keyboard-response,11
true,22,2,2,2,true,d,false,true,0.0-2.0-0.48-0.435-3.435,0,1,1,68,false,stim,false,1,1250.800000011921,0,0,0,70522,task3,1100679,false,false,1429,image-keyboard-response,12
true,22,2,2,2,true,d,false,false,0.0-2.0-0.48-0.436-3.436,0,1,1,68,false,stim,false,2,1028.5999999940395,0,1,2,70522,task3,1103219,false,true,1432,image-keyboard-response,13
true,22,1,2,2,false,d,true,false,0.0-2.0-0.48-0.437-3.437,0,1,1,90,false,stim,false,2,548.7000000178814,0,1,2,70522,task3,1105278,false,false,1435,image-keyboard-response,14
true,22,0,2,2,false,d,true,false,0.0-2.0-0.48-0.438-3.438,0,1,1,81,false,stim,false,2,453.90000000596046,0,1,2,70522,task3,1107242,false,false,1438,image-keyboard-response,15
true,22,0,2,0,true,q,false,true,0.0-2.0-0.48-0.439-3.439,0,1,1,81,false,stim,false,0,532.6000000238419,0,1,1,70522,task3,1109282,false,false,1441,image-keyboard-response,16
true,22,0,2,0,true,q,false,true,0.0-2.0-0.48-0.440-3.440,0,1,1,81,false,stim,false,0,419.40000000596046,0,1,1,70522,task3,1111212,false,false,1444,image-keyboard-response,17
true,22,2,2,2,true,d,false,true,0.0-2.0-0.49-0.441-3.441,0,1,1,68,false,stim,false,1,624.1000000238419,0,0,0,70522,task3,1113347,false,false,1447,image-keyboard-response,18
true,22,2,2,2,true,d,false,true,0.0-2.0-0.49-0.442-3.442,0,1,1,68,false,stim,false,2,988.2000000178814,0,1,2,70522,task3,1115848,false,false,1450,image-keyboard-response,19
true,22,2,2,2,true,d,false,true,0.0-2.0-0.49-0.443-3.443,0,1,1,68,false,stim,false,2,415.19999998807907,0,1,2,70522,task3,1117773,false,false,1453,image-keyboard-response,20
true,22,2,2,2,true,d,false,true,0.0-2.0-0.49-0.444-3.444,0,1,1,68,false,stim,false,1,708.9000000059605,0,0,0,70522,task3,1119990,false,false,1456,image-keyboard-response,21
true,22,0,2,0,true,q,false,false,0.0-2.0-0.49-0.445-3.445,0,1,1,81,false,stim,false,0,520.4000000059605,0,1,1,70522,task3,1122018,false,true,1459,image-keyboard-response,22
true,22,1,2,0,false,q,true,false,0.0-2.0-0.49-0.446-3.446,0,1,1,90,false,stim,false,0,608.5,0,1,1,70522,task3,1124142,false,false,1462,image-keyboard-response,23
true,22,2,2,0,false,q,true,false,0.0-2.0-0.49-0.447-3.447,0,1,1,68,false,stim,false,0,375.80000001192093,0,1,1,70522,task3,1126032,false,false,1465,image-keyboard-response,24
true,22,2,2,2,true,d,false,true,0.0-2.0-0.49-0.448-3.448,0,1,1,68,false,stim,false,1,1049.9000000059605,0,0,0,70522,task3,1128594,false,false,1468,image-keyboard-response,25
true,22,2,2,2,true,d,false,true,0.0-2.0-0.49-0.449-3.449,0,1,1,68,false,stim,false,2,782.2999999821186,0,0,2,70522,task3,1130887,false,false,1471,image-keyboard-response,26
true,23,2,1,1,false,z,false,false,0.0-2.0-0.50-0.450-3.450,0,1,0,68,true,stim,true,2,871.0999999940395,0,0,0,70522,task3,1133270,false,false,1474,image-keyboard-response,1
true,23,0,1,0,true,q,false,true,0.0-2.0-0.50-0.451-3.451,0,1,0,81,false,stim,false,0,496.90000000596046,0,1,1,70522,task3,1135279,false,false,1477,image-keyboard-response,2
true,23,2,1,1,false,z,false,false,0.0-2.0-0.50-0.452-3.452,0,1,0,68,false,stim,true,2,603.5999999940395,0,0,0,70522,task3,1137390,false,false,1480,image-keyboard-response,3
true,23,2,1,0,false,q,false,false,0.0-2.0-0.50-0.453-3.453,0,1,0,68,false,stim,true,2,380.7000000178814,0,0,2,70522,task3,1139285,false,false,1483,image-keyboard-response,4
true,23,1,1,0,false,q,true,false,0.0-2.0-0.50-0.454-3.454,0,1,0,90,false,stim,false,2,578.2999999821186,0,0,2,70522,task3,1141373,false,false,1486,image-keyboard-response,5
true,23,0,1,0,true,q,false,false,0.0-2.0-0.50-0.455-3.455,0,1,0,81,false,stim,false,2,569.2999999821186,0,0,2,70522,task3,1143454,false,true,1489,image-keyboard-response,6
true,23,0,1,0,true,q,false,false,0.0-2.0-0.50-0.456-3.456,0,1,0,81,false,stim,false,0,470.7999999821186,0,1,1,70522,task3,1145433,false,true,1492,image-keyboard-response,7
true,23,1,1,0,false,q,true,false,0.0-2.0-0.50-0.457-3.457,0,1,0,90,false,stim,false,0,609.3000000119209,0,1,1,70522,task3,1147553,false,false,1495,image-keyboard-response,8
true,23,2,1,1,false,z,false,true,0.0-2.0-0.50-0.458-3.458,0,1,0,68,false,stim,true,2,625.0,0,0,0,70522,task3,1149690,false,true,1498,image-keyboard-response,9
true,23,0,1,0,true,q,false,true,0.0-2.0-0.51-0.459-3.459,0,1,0,81,false,stim,false,0,577.7000000178814,0,1,1,70522,task3,1151787,false,false,1501,image-keyboard-response,10
true,23,2,1,0,false,q,false,false,0.0-2.0-0.51-0.460-3.460,0,1,0,68,false,stim,true,2,492.5,0,0,2,70522,task3,1153788,false,false,1504,image-keyboard-response,11
true,23,2,1,1,false,z,false,false,0.0-2.0-0.51-0.461-3.461,0,1,0,68,false,stim,true,2,653.8000000119209,0,0,0,70522,task3,1155959,false,false,1507,image-keyboard-response,12
true,23,1,1,0,false,q,true,false,0.0-2.0-0.51-0.462-3.462,0,1,0,90,false,stim,false,2,764.0,0,0,2,70522,task3,1158237,false,false,1510,image-keyboard-response,13
true,23,0,1,0,true,q,false,true,0.0-2.0-0.51-0.463-3.463,0,1,0,81,false,stim,false,0,709.4000000059605,0,1,1,70522,task3,1160462,false,false,1513,image-keyboard-response,14
true,23,0,1,0,true,q,false,true,0.0-2.0-0.51-0.464-3.464,0,1,0,81,false,stim,false,2,421.0,0,0,2,70522,task3,1162396,false,false,1516,image-keyboard-response,15
true,23,0,1,0,true,q,false,true,0.0-2.0-0.51-0.465-3.465,0,1,0,81,false,stim,false,0,489.39999997615814,0,1,1,70522,task3,1164395,false,false,1519,image-keyboard-response,16
true,23,2,1,1,false,z,false,false,0.0-2.0-0.51-0.466-3.466,0,1,0,68,false,stim,true,2,889.8000000119209,0,0,0,70522,task3,1166796,false,false,1522,image-keyboard-response,17
true,23,1,1,1,true,z,false,true,0.0-2.0-0.51-0.467-3.467,0,1,0,90,false,stim,false,2,527.9000000059605,0,0,0,70522,task3,1168831,false,false,1525,image-keyboard-response,18
true,23,1,1,1,true,z,false,true,0.0-2.0-0.52-0.468-3.468,0,1,0,90,false,stim,false,2,616.3000000119209,0,0,0,70522,task3,1170958,false,false,1528,image-keyboard-response,19
true,23,1,1,1,true,z,false,true,0.0-2.0-0.52-0.469-3.469,0,1,0,90,false,stim,false,2,690.5999999940395,0,0,0,70522,task3,1173158,false,false,1531,image-keyboard-response,20
true,23,1,1,1,true,z,false,false,0.0-2.0-0.52-0.470-3.470,0,1,0,90,false,stim,false,2,658.6999999880791,0,0,0,70522,task3,1175326,false,true,1534,image-keyboard-response,21
true,23,0,1,0,true,q,false,true,0.0-2.0-0.52-0.471-3.471,0,1,0,81,false,stim,false,0,617.3000000119209,0,0,1,70522,task3,1177456,false,false,1537,image-keyboard-response,22
true,23,0,1,0,true,q,false,true,0.0-2.0-0.52-0.472-3.472,0,1,0,81,false,stim,false,0,481.89999997615814,0,0,1,70522,task3,1179449,false,false,1540,image-keyboard-response,23
true,23,0,1,0,true,q,false,true,0.0-2.0-0.52-0.473-3.473,0,1,0,81,false,stim,false,2,884.0999999940395,0,1,2,70522,task3,1181840,false,false,1543,image-keyboard-response,24
true,23,0,1,0,true,q,false,true,0.0-2.0-0.52-0.474-3.474,0,1,0,81,false,stim,false,2,705.1999999880791,0,1,2,70522,task3,1184055,false,false,1546,image-keyboard-response,25
true,24,0,1,0,true,q,false,true,0.0-2.0-0.52-0.475-3.475,0,0,1,81,true,stim,false,0,701.1999999880791,0,1,2,70522,task3,1186266,false,false,1549,image-keyboard-response,1
true,24,0,1,2,false,d,false,false,0.0-2.0-0.52-0.476-3.476,0,0,1,81,false,stim,true,0,616.1999999880791,0,0,1,70522,task3,1188393,false,false,1552,image-keyboard-response,2
true,24,0,1,0,true,q,false,true,0.0-2.0-0.53-0.477-3.477,0,0,1,81,false,stim,false,0,778.9000000059605,0,1,2,70522,task3,1190688,false,false,1555,image-keyboard-response,3
true,24,1,1,0,false,q,false,false,0.0-2.0-0.53-0.478-3.478,0,0,1,90,false,stim,true,1,690.6000000238419,0,0,0,70522,task3,1192895,false,false,1558,image-keyboard-response,4
true,24,1,1,0,false,q,true,false,0.0-2.0-0.53-0.479-3.479,0,0,1,90,false,stim,false,0,758.0999999940395,0,1,2,70522,task3,1195165,false,false,1561,image-keyboard-response,5
true,24,0,1,2,false,d,false,false,0.0-2.0-0.53-0.480-3.480,0,0,1,81,false,stim,true,0,572.3000000119209,0,0,1,70522,task3,1197247,false,false,1564,image-keyboard-response,6
true,24,1,1,0,false,q,false,false,0.0-2.0-0.53-0.481-3.481,0,0,1,90,false,stim,true,1,885.3000000119209,0,0,0,70522,task3,1199648,false,false,1567,image-keyboard-response,7
true,24,2,1,0,false,q,true,false,0.0-2.0-0.53-0.482-3.482,0,0,1,68,false,stim,false,1,414.7999999821186,0,0,0,70522,task3,1201570,false,false,1570,image-keyboard-response,8
true,24,1,1,2,false,d,true,true,0.0-2.0-0.53-0.483-3.483,0,0,1,90,false,stim,false,0,639.0,0,0,1,70522,task3,1203723,false,true,1573,image-keyboard-response,9
true,24,2,1,0,false,q,true,false,0.0-2.0-0.53-0.484-3.484,0,0,1,68,false,stim,false,0,717.2000000178814,0,1,2,70522,task3,1205956,false,false,1576,image-keyboard-response,10
true,24,1,1,2,false,d,true,false,0.0-2.0-0.53-0.485-3.485,0,0,1,90,false,stim,false,0,699.8000000119209,0,0,1,70522,task3,1208166,false,false,1579,image-keyboard-response,11
true,24,0,1,0,true,q,false,true,0.0-2.0-0.54-0.486-3.486,0,0,1,81,false,stim,false,1,525.0999999940395,0,0,0,70522,task3,1210207,false,false,1582,image-keyboard-response,12
true,24,0,1,0,true,q,false,true,0.0-2.0-0.54-0.487-3.487,0,0,1,81,false,stim,false,1,523.3000000119209,0,0,0,70522,task3,1212245,false,false,1585,image-keyboard-response,13
true,24,0,1,0,true,q,false,true,0.0-2.0-0.54-0.488-3.488,0,0,1,81,false,stim,false,0,447.2999999821186,0,1,2,70522,task3,1214204,false,false,1588,image-keyboard-response,14
true,24,1,1,2,false,d,true,false,0.0-2.0-0.54-0.489-3.489,0,0,1,90,false,stim,false,0,439.09999999403954,0,0,1,70522,task3,1216158,false,false,1591,image-keyboard-response,15
true,24,2,1,2,true,d,false,true,0.0-2.0-0.54-0.490-3.490,0,0,1,68,false,stim,false,0,623.3000000119209,0,0,1,70522,task3,1218293,false,false,1594,image-keyboard-response,16
true,24,0,1,0,true,q,false,true,0.0-2.0-0.54-0.491-3.491,0,0,1,81,false,stim,false,0,732.3000000119209,0,1,2,70522,task3,1220539,false,false,1597,image-keyboard-response,17
true,24,0,1,0,true,q,false,true,0.0-2.0-0.54-0.492-3.492,0,0,1,81,false,stim,false,0,386.0,0,1,2,70522,task3,1222434,false,false,1600,image-keyboard-response,18
true,24,0,1,0,true,q,false,true,0.0-2.0-0.54-0.493-3.493,0,0,1,81,false,stim,false,1,575.6999999880791,0,0,0,70522,task3,1224528,false,false,1603,image-keyboard-response,19
true,24,2,1,2,true,d,false,true,0.0-2.0-0.54-0.494-3.494,0,0,1,68,false,stim,false,0,515.5999999940395,0,0,1,70522,task3,1226560,false,false,1606,image-keyboard-response,20
true,24,0,1,0,true,q,false,true,0.0-2.0-0.55-0.495-3.495,0,0,1,81,false,stim,false,1,479.19999998807907,0,0,0,70522,task3,1228554,false,false,1609,image-keyboard-response,21
true,24,0,1,0,true,q,false,true,0.0-2.0-0.55-0.496-3.496,0,0,1,81,false,stim,false,0,620.8000000119209,0,1,2,70522,task3,1230690,false,false,1612,image-keyboard-response,22
true,24,0,1,0,true,q,false,true,0.0-2.0-0.55-0.497-3.497,0,0,1,81,false,stim,false,1,740.6000000238419,0,0,0,70522,task3,1232938,false,false,1615,image-keyboard-response,23
true,24,2,1,2,true,d,false,false,0.0-2.0-0.55-0.498-3.498,0,0,1,68,false,stim,false,0,916.8000000119209,0,1,1,70522,task3,1235369,false,true,1618,image-keyboard-response,24
true,24,0,1,0,true,q,false,true,0.0-2.0-0.55-0.499-3.499,0,0,1,81,false,stim,false,0,481.90000000596046,0,1,2,70522,task3,1237364,false,false,1621,image-keyboard-response,25
true,24,0,1,0,true,q,false,true,0.0-2.0-0.55-0.500-3.500,0,0,1,81,false,stim,false,0,620.0,0,1,2,70522,task3,1239496,false,false,1624,image-keyboard-response,26
true,24,0,1,0,true,q,false,true,0.0-2.0-0.55-0.501-3.501,0,0,1,81,false,stim,false,1,595.7999999821186,0,0,0,70522,task3,1241604,false,false,1627,image-keyboard-response,27
true,24,1,1,2,false,d,true,false,0.0-2.0-0.55-0.502-3.502,0,0,1,90,false,stim,false,0,780.5999999940395,0,1,1,70522,task3,1243895,false,false,1630,image-keyboard-response,28
true,25,2,2,2,true,d,false,true,0.0-2.0-0.55-0.503-3.503,0,1,1,68,true,stim,false,2,425.7999999821186,0,1,1,70522,task3,1245834,false,false,1633,image-keyboard-response,1
true,25,0,2,1,false,z,false,false,0.0-2.0-0.56-0.504-3.504,0,1,1,81,false,stim,true,0,469.5,0,0,0,70522,task3,1247816,false,false,1636,image-keyboard-response,2
true,25,0,2,0,true,q,false,true,0.0-2.0-0.56-0.505-3.505,0,1,1,81,false,stim,false,0,868.4000000059605,0,1,2,70522,task3,1250197,false,false,1639,image-keyboard-response,3
true,25,0,2,0,true,q,false,false,0.0-2.0-0.56-0.506-3.506,0,1,1,81,false,stim,false,0,653.5999999940395,0,1,2,70522,task3,1252360,false,true,1642,image-keyboard-response,4
true,25,0,2,1,false,z,false,false,0.0-2.0-0.56-0.507-3.507,0,1,1,81,false,stim,true,0,536.1999999880791,0,0,0,70522,task3,1254411,false,false,1645,image-keyboard-response,5
true,25,2,2,2,true,d,false,true,0.0-2.0-0.56-0.508-3.508,0,1,1,68,false,stim,false,2,722.9000000059605,0,1,1,70522,task3,1256648,false,false,1648,image-keyboard-response,6
true,25,1,2,1,true,z,false,true,0.0-2.0-0.56-0.509-3.509,0,1,1,90,false,stim,false,0,425.5,0,0,0,70522,task3,1258588,false,false,1651,image-keyboard-response,7
true,25,2,2,2,true,d,false,true,0.0-2.0-0.56-0.510-3.510,0,1,1,68,false,stim,false,2,803.9000000059605,0,1,1,70522,task3,1260905,false,false,1654,image-keyboard-response,8
true,25,1,2,0,false,q,true,false,0.0-2.0-0.56-0.511-3.511,0,1,1,90,false,stim,false,0,884.4000000059605,0,1,2,70522,task3,1263296,false,false,1657,image-keyboard-response,9
true,25,2,2,2,true,d,false,true,0.0-2.0-0.56-0.512-3.512,0,1,1,68,false,stim,false,2,492.5,0,1,1,70522,task3,1265300,false,false,1660,image-keyboard-response,10
true,25,2,2,0,false,q,true,false,0.0-2.0-0.57-0.513-3.513,0,1,1,68,false,stim,false,0,590.0,0,1,2,70522,task3,1267403,false,false,1663,image-keyboard-response,11
true,25,0,2,0,true,q,false,true,0.0-2.0-0.57-0.514-3.514,0,1,1,81,false,stim,false,0,540.1999999880791,0,1,2,70522,task3,1269459,false,false,1666,image-keyboard-response,12
true,25,2,2,2,true,d,false,true,0.0-2.0-0.57-0.515-3.515,0,1,1,68,false,stim,false,2,667.9000000059605,0,1,1,70522,task3,1271643,false,false,1669,image-keyboard-response,13
true,26,0,0,1,false,z,true,false,0.0-2.0-0.57-0.516-3.516,1,1,1,81,true,stim,false,1,1097.8999999761581,0,1,0,70522,task3,1284622,false,false,1683,image-keyboard-response,1
true,26,1,0,1,true,z,false,true,0.0-2.0-0.57-0.517-3.517,1,1,1,90,false,stim,false,1,427.80000001192093,0,1,0,70522,task3,1286566,false,false,1686,image-keyboard-response,2
true,26,2,0,0,false,q,true,false,0.0-2.0-0.57-0.518-3.518,1,1,1,68,false,stim,false,0,584.5,0,1,2,70522,task3,1288658,false,false,1689,image-keyboard-response,3
true,26,1,0,1,true,z,false,true,0.0-2.0-0.57-0.519-3.519,1,1,1,90,false,stim,false,1,559.1999999880791,0,1,0,70522,task3,1290728,false,false,1692,image-keyboard-response,4
true,26,0,0,2,false,d,true,false,0.0-2.0-0.57-0.520-3.520,1,1,1,81,false,stim,false,2,1024.5,0,1,1,70522,task3,1293269,false,false,1695,image-keyboard-response,5
true,26,2,0,2,true,d,false,true,0.0-2.0-0.57-0.521-3.521,1,1,1,68,false,stim,false,2,445.2000000178814,0,1,1,70522,task3,1295232,false,false,1698,image-keyboard-response,6
true,26,2,0,2,true,d,false,true,0.0-2.0-0.58-0.522-3.522,1,1,1,68,false,stim,false,2,800.1999999880791,0,1,1,70522,task3,1297554,false,false,1701,image-keyboard-response,7
true,26,1,0,0,false,q,true,true,0.0-2.0-0.58-0.523-3.523,1,1,1,90,false,stim,false,0,1075.4000000059605,0,1,2,70522,task3,1300141,false,true,1704,image-keyboard-response,8
true,26,1,0,1,true,z,false,false,0.0-2.0-0.58-0.524-3.524,1,1,1,90,false,stim,false,1,678.4000000059605,0,1,0,70522,task3,1302335,false,true,1707,image-keyboard-response,9
true,26,1,0,1,true,z,false,true,0.0-2.0-0.58-0.525-3.525,1,1,1,90,false,stim,false,1,591.4000000059605,0,0,0,70522,task3,1304441,false,false,1710,image-keyboard-response,10
true,26,1,0,0,false,q,true,false,0.0-2.0-0.58-0.526-3.526,1,1,1,90,false,stim,false,0,679.5999999940395,0,1,2,70522,task3,1306636,false,false,1713,image-keyboard-response,11
true,26,1,0,1,true,z,false,true,0.0-2.0-0.58-0.527-3.527,1,1,1,90,false,stim,false,1,619.2000000178814,0,0,0,70522,task3,1308764,false,false,1716,image-keyboard-response,12
true,26,2,0,2,true,d,false,true,0.0-2.0-0.58-0.528-3.528,1,1,1,68,false,stim,false,2,544.1999999880791,0,0,1,70522,task3,1310824,false,false,1719,image-keyboard-response,13
true,26,1,0,0,false,q,true,false,0.0-2.0-0.58-0.529-3.529,1,1,1,90,false,stim,false,0,422.5,0,1,2,70522,task3,1312758,false,false,1722,image-keyboard-response,14
true,27,2,1,0,false,q,false,false,0.0-2.0-0.58-0.530-3.530,0,0,1,68,true,stim,true,2,519.2999999821186,0,0,1,70522,task3,1314788,false,false,1725,image-keyboard-response,1
true,27,0,1,0,true,q,false,true,0.0-2.0-0.59-0.531-3.531,0,0,1,81,false,stim,false,0,624.1999999880791,0,1,2,70522,task3,1316926,false,false,1728,image-keyboard-response,2
true,27,2,1,0,false,q,false,false,0.0-2.0-0.59-0.532-3.532,0,0,1,68,false,stim,true,2,680.4000000059605,0,0,1,70522,task3,1319118,false,false,1731,image-keyboard-response,3
true,27,1,1,2,false,d,false,false,0.0-2.0-0.59-0.533-3.533,0,0,1,90,false,stim,true,1,439.59999999403954,0,0,0,70522,task3,1321066,false,false,1734,image-keyboard-response,4
true,27,0,1,0,true,q,false,true,0.0-2.0-0.59-0.534-3.534,0,0,1,81,false,stim,false,0,483.89999997615814,0,1,2,70522,task3,1323062,false,false,1737,image-keyboard-response,5
true,27,0,1,2,false,d,true,false,0.0-2.0-0.59-0.535-3.535,0,0,1,81,false,stim,false,1,639.8000000119209,0,0,0,70522,task3,1325215,false,false,1740,image-keyboard-response,6
true,27,1,1,0,false,q,true,false,0.0-2.0-0.59-0.536-3.536,0,0,1,90,false,stim,false,2,834.9000000059605,0,0,1,70522,task3,1327564,false,false,1743,image-keyboard-response,7
true,27,0,1,0,true,q,false,true,0.0-2.0-0.59-0.537-3.537,0,0,1,81,false,stim,false,0,483.59999999403954,0,0,2,70522,task3,1329560,false,false,1746,image-keyboard-response,8
true,27,0,1,0,true,q,false,true,0.0-2.0-0.59-0.538-3.538,0,0,1,81,false,stim,false,2,490.10000002384186,0,1,1,70522,task3,1331563,false,false,1749,image-keyboard-response,9
true,27,2,1,2,true,d,false,true,0.0-2.0-0.59-0.539-3.539,0,0,1,68,false,stim,false,1,468.7000000178814,0,1,0,70522,task3,1333544,false,false,1752,image-keyboard-response,10
true,27,0,1,0,true,q,false,true,0.0-2.0-0.60-0.540-3.540,0,0,1,81,false,stim,false,2,751.6999999880791,0,1,1,70522,task3,1335808,false,false,1755,image-keyboard-response,11
true,27,0,1,0,true,q,false,true,0.0-2.0-0.60-0.541-3.541,0,0,1,81,false,stim,false,2,495.80000001192093,0,1,1,70522,task3,1337815,false,false,1758,image-keyboard-response,12
true,28,0,2,1,false,z,false,false,0.0-2.0-0.60-0.542-3.542,1,1,0,81,true,stim,true,0,882.1999999880791,0,0,2,70522,task3,1340209,false,false,1761,image-keyboard-response,1
true,28,0,2,0,true,q,false,true,0.0-2.0-0.60-0.543-3.543,1,1,0,81,false,stim,false,0,535.3000000119209,0,1,1,70522,task3,1342259,false,false,1764,image-keyboard-response,2
true,28,1,2,1,true,z,false,true,0.0-2.0-0.60-0.544-3.544,1,1,0,90,false,stim,false,0,441.80000001192093,0,0,2,70522,task3,1344217,false,false,1767,image-keyboard-response,3
true,28,2,2,2,true,d,false,true,0.0-2.0-0.60-0.545-3.545,1,1,0,68,false,stim,false,2,402.19999998807907,0,1,0,70522,task3,1346135,false,false,1770,image-keyboard-response,4
true,28,2,2,2,true,d,false,true,0.0-2.0-0.60-0.546-3.546,1,1,0,68,false,stim,false,2,478.19999998807907,0,1,0,70522,task3,1348121,false,false,1773,image-keyboard-response,5
true,28,1,2,1,true,z,false,false,0.0-2.0-0.60-0.547-3.547,1,1,0,90,false,stim,false,0,460.2999999821186,0,0,2,70522,task3,1350090,false,true,1776,image-keyboard-response,6
true,28,2,2,2,true,d,false,true,0.0-2.0-0.60-0.548-3.548,1,1,0,68,false,stim,false,2,790.7000000178814,0,1,0,70522,task3,1352394,false,false,1779,image-keyboard-response,7
true,28,0,2,0,true,q,false,true,0.0-2.0-0.61-0.549-3.549,1,1,0,81,false,stim,false,0,614.6999999880791,0,0,1,70522,task3,1354524,false,false,1782,image-keyboard-response,8
true,28,2,2,1,false,z,true,false,0.0-2.0-0.61-0.550-3.550,1,1,0,68,false,stim,false,0,397.40000000596046,0,1,2,70522,task3,1356438,false,false,1785,image-keyboard-response,9
true,28,0,2,0,true,q,false,false,0.0-2.0-0.61-0.551-3.551,1,1,0,81,false,stim,false,0,574.9000000059605,0,0,1,70522,task3,1358524,false,true,1788,image-keyboard-response,10
true,28,2,2,2,true,d,false,true,0.0-2.0-0.61-0.552-3.552,1,1,0,68,false,stim,false,2,672.0,0,1,0,70522,task3,1360713,false,false,1791,image-keyboard-response,11
true,28,0,2,1,false,z,false,false,0.0-2.0-0.61-0.553-3.553,1,1,0,81,false,stim,true,0,404.40000000596046,0,1,2,70522,task3,1362632,false,false,1794,image-keyboard-response,12
true,29,2,2,2,true,d,false,true,0.0-2.0-0.61-0.554-3.554,1,0,1,68,true,stim,false,2,731.5999999940395,0,1,0,70522,task3,1364875,false,false,1797,image-keyboard-response,1
true,29,2,2,2,true,d,false,true,0.0-2.0-0.61-0.555-3.555,1,0,1,68,false,stim,false,2,548.8000000119209,0,1,0,70522,task3,1366936,false,false,1800,image-keyboard-response,2
true,29,2,2,2,true,d,false,true,0.0-2.0-0.61-0.556-3.556,1,0,1,68,false,stim,false,0,428.90000000596046,0,0,1,70522,task3,1368885,false,false,1803,image-keyboard-response,3
true,29,1,2,1,true,z,false,true,0.0-2.0-0.61-0.557-3.557,1,0,1,90,false,stim,false,1,422.80000001192093,0,1,2,70522,task3,1370821,false,false,1806,image-keyboard-response,4
true,29,1,2,1,true,z,false,true,0.0-2.0-0.62-0.558-3.558,1,0,1,90,false,stim,false,1,639.7000000178814,0,1,2,70522,task3,1372973,false,false,1809,image-keyboard-response,5
true,29,1,2,1,true,z,false,true,0.0-2.0-0.62-0.559-3.559,1,0,1,90,false,stim,false,1,377.30000001192093,0,1,2,70522,task3,1374861,false,false,1812,image-keyboard-response,6
true,29,2,2,2,true,d,false,true,0.0-2.0-0.62-0.560-3.560,1,0,1,68,false,stim,false,2,717.3000000119209,0,1,0,70522,task3,1377096,false,false,1815,image-keyboard-response,7
true,29,1,2,1,true,z,false,true,0.0-2.0-0.62-0.561-3.561,1,0,1,90,false,stim,false,1,893.2000000178814,0,1,2,70522,task3,1379499,false,false,1818,image-keyboard-response,8
true,29,2,2,2,true,d,false,true,0.0-2.0-0.62-0.562-3.562,1,0,1,68,false,stim,false,0,697.4000000059605,0,0,1,70522,task3,1381710,false,false,1821,image-keyboard-response,9
true,29,2,2,2,true,d,false,false,0.0-2.0-0.62-0.563-3.563,1,0,1,68,false,stim,false,2,781.0,0,1,0,70522,task3,1384000,false,true,1824,image-keyboard-response,10
true,29,2,2,2,true,d,false,true,0.0-2.0-0.62-0.564-3.564,1,0,1,68,false,stim,false,0,759.3000000119209,0,0,1,70522,task3,1386269,false,false,1827,image-keyboard-response,11
true,29,0,2,2,false,d,true,false,0.0-2.0-0.62-0.565-3.565,1,0,1,81,false,stim,false,2,429.69999998807907,0,1,0,70522,task3,1388214,false,false,1830,image-keyboard-response,12
true,29,2,2,2,true,d,false,true,0.0-2.0-0.62-0.566-3.566,1,0,1,68,false,stim,false,0,1817.800000011921,0,0,1,70522,task3,1391543,false,false,1833,image-keyboard-response,13
true,29,1,2,1,true,z,false,true,0.0-2.0-0.63-0.567-3.567,1,0,1,90,false,stim,false,1,389.80000001192093,0,1,2,70522,task3,1393448,false,false,1836,image-keyboard-response,14
true,29,2,2,2,true,d,false,true,0.0-2.0-0.63-0.568-3.568,1,0,1,68,false,stim,false,0,666.5999999940395,0,0,1,70522,task3,1395631,false,false,1839,image-keyboard-response,15
true,29,1,2,1,true,z,false,true,0.0-2.0-0.63-0.569-3.569,1,0,1,90,false,stim,false,1,666.7000000178814,0,1,2,70522,task3,1397812,false,false,1842,image-keyboard-response,16
true,29,1,2,1,true,z,false,true,0.0-2.0-0.63-0.570-3.570,1,0,1,90,false,stim,false,1,436.7999999821186,0,1,2,70522,task3,1399763,false,false,1845,image-keyboard-response,17
true,29,1,2,2,false,d,true,true,0.0-2.0-0.63-0.571-3.571,1,0,1,90,false,stim,false,2,409.40000000596046,0,1,0,70522,task3,1401686,false,true,1848,image-keyboard-response,18
true,29,1,2,2,false,d,true,false,0.0-2.0-0.63-0.572-3.572,1,0,1,90,false,stim,false,2,453.09999999403954,0,1,0,70522,task3,1403655,false,false,1851,image-keyboard-response,19
true,29,0,2,2,false,d,true,false,0.0-2.0-0.63-0.573-3.573,1,0,1,81,false,stim,false,2,787.4000000059605,0,1,0,70522,task3,1405956,false,false,1854,image-keyboard-response,20
true,29,2,2,2,true,d,false,false,0.0-2.0-0.63-0.574-3.574,1,0,1,68,false,stim,false,0,516.5,0,0,1,70522,task3,1407985,false,true,1857,image-keyboard-response,21
true,29,1,2,2,false,d,true,false,0.0-2.0-0.63-0.575-3.575,1,0,1,90,false,stim,false,0,596.8000000119209,0,0,1,70522,task3,1410098,false,false,1860,image-keyboard-response,22
true,29,1,2,2,false,d,true,false,0.0-2.0-0.64-0.576-3.576,1,0,1,90,false,stim,false,2,665.2000000178814,0,0,0,70522,task3,1412275,false,false,1863,image-keyboard-response,23
true,29,0,2,1,false,z,true,false,0.0-2.0-0.64-0.577-3.577,1,0,1,81,false,stim,false,1,686.8999999761581,0,1,2,70522,task3,1414476,false,false,1866,image-keyboard-response,24
true,29,2,2,2,true,d,false,true,0.0-2.0-0.64-0.578-3.578,1,0,1,68,false,stim,false,2,1183.300000011921,0,0,0,70522,task3,1417169,false,false,1869,image-keyboard-response,25
true,30,1,1,1,true,z,false,true,0.0-2.0-0.64-0.579-3.579,0,0,1,90,true,stim,false,1,533.8000000119209,0,1,2,70522,task3,1419213,false,false,1872,image-keyboard-response,1
true,30,2,1,1,false,z,false,false,0.0-2.0-0.64-0.580-3.580,0,0,1,68,false,stim,true,2,733.0999999940395,0,0,0,70522,task3,1421461,false,false,1875,image-keyboard-response,2
true,30,0,1,0,true,q,false,true,0.0-2.0-0.64-0.581-3.581,0,0,1,81,false,stim,false,2,736.5,0,0,1,70522,task3,1423714,false,false,1878,image-keyboard-response,3
true,30,0,1,0,true,q,false,true,0.0-2.0-0.64-0.582-3.582,0,0,1,81,false,stim,false,2,482.2999999821186,0,0,1,70522,task3,1425711,false,false,1881,image-keyboard-response,4
true,30,1,1,1,true,z,false,false,0.0-2.0-0.64-0.583-3.583,0,0,1,90,false,stim,false,1,519.4000000059605,0,1,2,70522,task3,1427747,false,true,1884,image-keyboard-response,5
true,30,0,1,0,true,q,false,true,0.0-2.0-0.64-0.584-3.584,0,0,1,81,false,stim,false,2,675.5,0,0,1,70522,task3,1429936,false,false,1887,image-keyboard-response,6
true,30,0,1,0,true,q,false,true,0.0-2.0-0.65-0.585-3.585,0,0,1,81,false,stim,false,2,498.90000000596046,0,0,1,70522,task3,1431948,false,false,1890,image-keyboard-response,7
true,30,2,1,1,false,z,false,false,0.0-2.0-0.65-0.586-3.586,0,0,1,68,false,stim,true,2,937.7999999821186,0,0,0,70522,task3,1434398,false,false,1893,image-keyboard-response,8
true,30,0,1,1,false,z,true,false,0.0-2.0-0.65-0.587-3.587,0,0,1,81,false,stim,false,1,459.30000001192093,0,1,2,70522,task3,1436370,false,false,1896,image-keyboard-response,9
true,30,0,1,0,true,q,false,true,0.0-2.0-0.65-0.588-3.588,0,0,1,81,false,stim,false,2,585.5999999940395,0,0,1,70522,task3,1438470,false,false,1899,image-keyboard-response,10
true,30,1,1,0,false,q,true,false,0.0-2.0-0.65-0.589-3.589,0,0,1,90,false,stim,false,2,451.30000001192093,0,0,1,70522,task3,1440445,false,false,1902,image-keyboard-response,11
true,30,2,1,1,false,z,true,false,0.0-2.0-0.65-0.590-3.590,0,0,1,68,false,stim,false,1,1377.5,0,1,2,70522,task3,1443337,false,false,1905,image-keyboard-response,12
