answered,blockNum,choice,condition,corResp,correct,correct_response,explo,fb,internal_node_id,isStable_1,isStable_2,isStable_3,key_press,newBlock,part,persev,persevResp,rt,sessNum,stableAS,stimulus,subject,task,time_elapsed,training,trap,trial_index,trial_type,trialsInBlock
true,1,0,0,0,true,q,false,true,0.0-2.0-0.0-0.0-3.0,0,0,0,81,true,stim,false,-1,704.5,1,0,0,70522,task1,1919117,false,false,79,image-keyboard-response,1
true,1,1,0,2,false,d,true,false,0.0-2.0-0.0-0.1-3.1,0,0,0,90,false,stim,false,-1,400.6000000014901,1,0,1,70522,task1,1921032,false,false,82,image-keyboard-response,2
true,1,2,0,2,true,d,false,true,0.0-2.0-0.0-0.2-3.2,0,0,0,68,false,stim,false,-1,615.2000000029802,1,0,1,70522,task1,1923160,false,false,85,image-keyboard-response,3
true,1,1,0,1,true,z,false,true,0.0-2.0-0.0-0.3-3.3,0,0,0,90,false,stim,false,-1,387.0,1,0,2,70522,task1,1925060,false,false,88,image-keyboard-response,4
true,1,1,0,1,true,z,false,false,0.0-2.0-0.0-0.4-3.4,0,0,0,90,false,stim,false,-1,496.0,1,0,2,70522,task1,1927070,false,true,91,image-keyboard-response,5
true,1,1,0,1,true,z,false,true,0.0-2.0-0.0-0.5-3.5,0,0,0,90,false,stim,false,-1,611.1999999955297,1,0,2,70522,task1,1929194,false,false,94,image-keyboard-response,6
true,1,2,0,2,true,d,false,true,0.0-2.0-0.0-0.6-3.6,0,0,0,68,false,stim,false,-1,820.6000000014901,1,0,1,70522,task1,1931524,false,false,97,image-keyboard-response,7
true,1,0,0,0,true,q,false,true,0.0-2.0-0.0-0.7-3.7,0,0,0,81,false,stim,false,-1,517.3999999985099,1,0,0,70522,task1,1933555,false,false,100,image-keyboard-response,8
true,1,0,0,0,true,q,false,false,0.0-2.0-0.0-0.8-3.8,0,0,0,81,false,stim,false,-1,592.3000000044703,1,0,0,70522,task1,1935659,false,true,103,image-keyboard-response,9
true,1,1,0,1,true,z,false,true,0.0-2.0-0.1-0.9-3.9,0,0,0,90,false,stim,false,-1,814.8999999985099,1,0,2,70522,task1,1937983,false,false,106,image-keyboard-response,10
true,1,0,0,0,true,q,false,true,0.0-2.0-0.1-0.10-3.10,0,0,0,81,false,stim,false,-1,1034.3000000044703,1,0,0,70522,task1,1940528,false,false,109,image-keyboard-response,11
true,1,0,0,0,true,q,false,true,0.0-2.0-0.1-0.11-3.11,0,0,0,81,false,stim,false,-1,533.2000000029802,1,0,0,70522,task1,1942567,false,false,112,image-keyboard-response,12
true,1,2,0,2,true,d,false,true,0.0-2.0-0.1-0.12-3.12,0,0,0,68,false,stim,false,-1,916.3000000044703,1,0,1,70522,task1,1944994,false,false,115,image-keyboard-response,13
true,1,1,0,1,true,z,false,true,0.0-2.0-0.1-0.13-3.13,0,0,0,90,false,stim,false,-1,596.1000000014901,1,0,2,70522,task1,1947100,false,false,118,image-keyboard-response,14
true,1,2,0,2,true,d,false,true,0.0-2.0-0.1-0.14-3.14,0,0,0,68,false,stim,false,-1,834.5,1,0,1,70522,task1,1949448,false,false,121,image-keyboard-response,15
true,1,1,0,1,true,z,false,true,0.0-2.0-0.1-0.15-3.15,0,0,0,90,false,stim,false,-1,724.2000000029802,1,0,2,70522,task1,1951686,false,false,124,image-keyboard-response,16
true,1,0,0,0,true,q,false,true,0.0-2.0-0.1-0.16-3.16,0,0,0,81,false,stim,false,-1,522.0,1,0,0,70522,task1,1953721,false,false,127,image-keyboard-response,17
true,1,2,0,2,true,d,false,true,0.0-2.0-0.1-0.17-3.17,0,0,0,68,false,stim,false,-1,610.3999999985099,1,0,1,70522,task1,1955840,false,false,130,image-keyboard-response,18
true,1,2,0,2,true,d,false,true,0.0-2.0-0.2-0.18-3.18,0,0,0,68,false,stim,false,-1,1022.8999999985099,1,0,1,70522,task1,1958372,false,false,133,image-keyboard-response,19
true,1,2,0,2,true,d,false,true,0.0-2.0-0.2-0.19-3.19,0,0,0,68,false,stim,false,-1,518.2999999970198,1,0,1,70522,task1,1960404,false,false,136,image-keyboard-response,20
true,1,0,0,0,true,q,false,true,0.0-2.0-0.2-0.20-3.20,0,0,0,81,false,stim,false,-1,639.5,1,0,0,70522,task1,1962551,false,false,139,image-keyboard-response,21
true,1,1,0,1,true,z,false,true,0.0-2.0-0.2-0.21-3.21,0,0,0,90,false,stim,false,-1,642.2999999970198,1,0,2,70522,task1,1964702,false,false,142,image-keyboard-response,22
true,1,1,0,1,true,z,false,true,0.0-2.0-0.2-0.22-3.22,0,0,0,90,false,stim,false,-1,530.5,1,0,2,70522,task1,1966739,false,false,145,image-keyboard-response,23
true,1,1,0,1,true,z,false,false,0.0-2.0-0.2-0.23-3.23,0,0,0,90,false,stim,false,-1,516.1000000014901,1,0,2,70522,task1,1968768,false,true,148,image-keyboard-response,24
true,1,2,0,2,true,d,false,true,0.0-2.0-0.2-0.24-3.24,0,0,0,68,false,stim,false,-1,525.1999999955297,1,0,1,70522,task1,1970805,false,false,151,image-keyboard-response,25
true,1,0,0,0,true,q,false,true,0.0-2.0-0.2-0.25-3.25,0,0,0,81,false,stim,false,-1,604.9000000059605,1,0,0,70522,task1,1972923,false,false,154,image-keyboard-response,26
true,2,0,1,1,false,z,false,false,0.0-2.0-0.2-0.26-3.26,0,0,0,81,true,stim,true,0,555.5,1,0,0,70522,task1,1974991,false,false,157,image-keyboard-response,1
true,2,2,1,0,false,q,false,false,0.0-2.0-0.3-0.27-3.27,0,0,0,68,false,stim,true,2,749.1000000014901,1,0,1,70522,task1,1977249,false,false,160,image-keyboard-response,2
true,2,1,1,0,false,q,false,false,0.0-2.0-0.3-0.28-3.28,0,0,0,90,false,stim,true,1,690.2000000029802,1,0,2,70522,task1,1979453,false,false,163,image-keyboard-response,3
true,2,1,1,0,false,q,true,false,0.0-2.0-0.3-0.29-3.29,0,0,0,90,false,stim,false,2,1222.4000000059605,1,0,1,70522,task1,1982183,false,false,166,image-keyboard-response,4
true,2,0,1,0,true,q,false,true,0.0-2.0-0.3-0.30-3.30,0,0,0,81,false,stim,false,2,650.7000000029802,1,0,1,70522,task1,1984343,false,false,169,image-keyboard-response,5
true,2,0,1,1,false,z,false,false,0.0-2.0-0.3-0.31-3.31,0,0,0,81,false,stim,true,0,1352.6999999955297,1,0,0,70522,task1,1987203,false,false,172,image-keyboard-response,6
true,2,1,1,1,true,z,false,true,0.0-2.0-0.3-0.32-3.32,0,0,0,90,false,stim,false,0,549.1999999955297,1,0,0,70522,task1,1989264,false,false,175,image-keyboard-response,7
true,2,2,1,0,false,q,true,false,0.0-2.0-0.3-0.33-3.33,0,0,0,68,false,stim,false,1,863.2999999970198,1,0,2,70522,task1,1991637,false,false,178,image-keyboard-response,8
true,2,1,1,1,true,z,false,true,0.0-2.0-0.3-0.34-3.34,0,0,0,90,false,stim,false,0,801.6000000014901,1,0,0,70522,task1,1993948,false,false,181,image-keyboard-response,9
true,2,0,1,0,true,q,false,true,0.0-2.0-0.3-0.35-3.35,0,0,0,81,false,stim,false,1,517.2000000029802,1,0,2,70522,task1,1995976,false,false,184,image-keyboard-response,10
true,2,0,1,0,true,q,false,true,0.0-2.0-0.4-0.36-3.36,0,0,0,81,false,stim,false,2,586.1999999955297,1,0,1,70522,task1,1998072,false,false,187,image-keyboard-response,11
true,2,0,1,0,true,q,false,true,0.0-2.0-0.4-0.37-3.37,0,0,0,81,false,stim,false,1,784.2000000029802,1,0,2,70522,task1,2000366,false,false,190,image-keyboard-response,12
true,2,0,1,0,true,q,false,true,0.0-2.0-0.4-0.38-3.38,0,0,0,81,false,stim,false,1,748.8000000044703,1,0,2,70522,task1,2002627,false,false,193,image-keyboard-response,13
true,2,1,1,1,true,z,false,true,0.0-2.0-0.4-0.39-3.39,0,0,0,90,false,stim,false,0,518.8999999985099,1,0,0,70522,task1,2004660,false,false,196,image-keyboard-response,14
true,2,0,1,0,true,q,false,true,0.0-2.0-0.4-0.40-3.40,0,0,0,81,false,stim,false,2,694.1999999955297,1,0,1,70522,task1,2006867,false,false,199,image-keyboard-response,15
true,2,0,1,0,true,q,false,true,0.0-2.0-0.4-0.41-3.41,0,0,0,81,false,stim,false,2,474.8999999985099,1,0,1,70522,task1,2008857,false,false,202,image-keyboard-response,16
true,2,0,1,0,true,q,false,true,0.0-2.0-0.4-0.42-3.42,0,0,0,81,false,stim,false,1,679.5,1,0,2,70522,task1,2011042,false,false,205,image-keyboard-response,17
true,2,1,1,1,true,z,false,true,0.0-2.0-0.4-0.43-3.43,0,0,0,90,false,stim,false,0,628.8999999985099,1,0,0,70522,task1,2013183,false,false,208,image-keyboard-response,18
true,2,1,1,1,true,z,false,true,0.0-2.0-0.4-0.44-3.44,0,0,0,90,false,stim,false,0,557.5,1,0,0,70522,task1,2015254,false,false,211,image-keyboard-response,19
true,2,0,1,0,true,q,false,true,0.0-2.0-0.5-0.45-3.45,0,0,0,81,false,stim,false,1,697.7000000029802,1,0,2,70522,task1,2017461,false,false,214,image-keyboard-response,20
true,2,0,1,0,true,q,false,true,0.0-2.0-0.5-0.46-3.46,0,0,0,81,false,stim,false,1,631.1000000014901,1,0,2,70522,task1,2019606,false,false,217,image-keyboard-response,21
true,2,0,1,0,true,q,false,true,0.0-2.0-0.5-0.47-3.47,0,0,0,81,false,stim,false,2,976.7000000029802,1,0,1,70522,task1,2022091,false,false,220,image-keyboard-response,22
true,2,0,1,0,true,q,false,false,0.0-2.0-0.5-0.48-3.48,0,0,0,81,false,stim,false,2,666.1999999955297,1,0,1,70522,task1,2024266,false,true,223,image-keyboard-response,23
true,2,1,1,1,true,z,false,true,0.0-2.0-0.5-0.49-3.49,0,0,0,90,false,stim,false,0,814.6999999955297,1,0,0,70522,task1,2026594,false,false,226,image-keyboard-response,24
true,2,1,1,1,true,z,false,true,0.0-2.0-0.5-0.50-3.50,0,0,0,90,false,stim,false,0,889.7999999970198,1,0,0,70522,task1,2028992,false,false,229,image-keyboard-response,25
true,2,0,1,0,true,q,false,true,0.0-2.0-0.5-0.51-3.51,0,0,0,81,false,stim,false,1,548.6000000014901,1,0,2,70522,task1,2031054,false,false,232,image-keyboard-response,26
true,2,1,1,1,true,z,false,true,0.0-2.0-0.5-0.52-3.52,0,0,0,90,false,stim,false,0,769.8000000044703,1,0,0,70522,task1,2033334,false,false,235,image-keyboard-response,27
true,2,0,1,0,true,q,false,true,0.0-2.0-0.5-0.53-3.53,0,0,0,81,false,stim,false,2,633.0,1,0,1,70522,task1,2035477,false,false,238,image-keyboard-response,28
true,2,0,1,0,true,q,false,true,0.0-2.0-0.6-0.54-3.54,0,0,0,81,false,stim,false,1,811.0,1,0,2,70522,task1,2037794,false,false,241,image-keyboard-response,29
true,2,0,1,0,true,q,false,true,0.0-2.0-0.6-0.55-3.55,0,0,0,81,false,stim,false,2,608.2999999970198,1,0,1,70522,task1,2039915,false,false,244,image-keyboard-response,30
true,2,1,1,1,true,z,false,true,0.0-2.0-0.6-0.56-3.56,0,0,0,90,false,stim,false,0,650.0,1,0,0,70522,task1,2042078,false,false,247,image-keyboard-response,31
true,2,1,1,1,true,z,false,false,0.0-2.0-0.6-0.57-3.57,0,0,0,90,false,stim,false,0,550.2999999970198,1,0,0,70522,task1,2044137,false,true,250,image-keyboard-response,32
true,2,0,1,0,true,q,false,true,0.0-2.0-0.6-0.58-3.58,0,0,0,81,false,stim,false,2,995.5,1,0,1,70522,task1,2046646,false,false,253,image-keyboard-response,33
true,2,1,1,1,true,z,false,true,0.0-2.0-0.6-0.59-3.59,0,0,0,90,false,stim,false,0,911.3999999985099,1,0,0,70522,task1,2049069,false,false,256,image-keyboard-response,34
true,2,0,1,0,true,q,false,true,0.0-2.0-0.6-0.60-3.60,0,0,0,81,false,stim,false,1,1096.8999999985099,1,0,2,70522,task1,2051674,false,false,259,image-keyboard-response,35
true,2,0,1,0,true,q,false,true,0.0-2.0-0.6-0.61-3.61,0,0,0,81,false,stim,false,2,624.1000000014901,1,0,1,70522,task1,2053809,false,false,262,image-keyboard-response,36
true,2,0,1,0,true,q,false,true,0.0-2.0-0.6-0.62-3.62,0,0,0,81,false,stim,false,1,732.2999999970198,1,0,2,70522,task1,2056054,false,false,265,image-keyboard-response,37
true,2,0,1,0,true,q,false,false,0.0-2.0-0.7-0.63-3.63,0,0,0,81,false,stim,false,2,886.2000000029802,1,0,1,70522,task1,2058455,false,true,268,image-keyboard-response,38
true,2,0,1,0,true,q,false,true,0.0-2.0-0.7-0.64-3.64,0,0,0,81,false,stim,false,1,951.3999999985099,1,0,2,70522,task1,2060913,false,false,271,image-keyboard-response,39
true,2,0,1,0,true,q,false,true,0.0-2.0-0.7-0.65-3.65,0,0,0,81,false,stim,false,2,1218.1000000014901,1,0,1,70522,task1,2063640,false,false,274,image-keyboard-response,40
true,2,0,1,0,true,q,false,true,0.0-2.0-0.7-0.66-3.66,0,0,0,81,false,stim,false,2,864.7999999970198,1,0,1,70522,task1,2066019,false,false,277,image-keyboard-response,41
true,2,0,1,0,true,q,false,true,0.0-2.0-0.7-0.67-3.67,0,0,0,81,false,stim,false,1,733.3999999985099,1,0,2,70522,task1,2068266,false,false,280,image-keyboard-response,42
true,2,1,1,1,true,z,false,true,0.0-2.0-0.7-0.68-3.68,0,0,0,90,false,stim,false,0,468.30000000447035,1,0,0,70522,task1,2070241,false,false,283,image-keyboard-response,43
true,2,1,1,1,true,z,false,true,0.0-2.0-0.7-0.69-3.69,0,0,0,90,false,stim,false,0,654.7000000029802,1,0,0,70522,task1,2072407,false,false,286,image-keyboard-response,44
true,2,1,1,1,true,z,false,true,0.0-2.0-0.7-0.70-3.70,0,0,0,90,false,stim,false,0,516.8000000044703,1,0,0,70522,task1,2074437,false,false,289,image-keyboard-response,45
true,3,0,1,2,false,d,false,false,0.0-2.0-0.7-0.71-3.71,0,0,0,81,true,stim,true,0,586.5,1,0,2,70522,task1,2076537,false,false,292,image-keyboard-response,1
true,3,0,1,2,false,d,false,true,0.0-2.0-0.8-0.72-3.72,0,0,0,81,false,stim,true,0,900.1000000014901,1,0,2,70522,task1,2078947,false,true,295,image-keyboard-response,2
true,3,0,1,2,false,d,false,false,0.0-2.0-0.8-0.73-3.73,0,0,0,81,false,stim,true,0,830.8000000044703,1,0,1,70522,task1,2081291,false,false,298,image-keyboard-response,3
true,3,0,1,2,false,d,false,false,0.0-2.0-0.8-0.74-3.74,0,0,0,81,false,stim,true,0,566.3999999985099,1,0,2,70522,task1,2083374,false,false,301,image-keyboard-response,4
true,3,0,1,2,false,d,false,false,0.0-2.0-0.8-0.75-3.75,0,0,0,81,false,stim,true,0,689.4000000059605,1,0,1,70522,task1,2085572,false,false,304,image-keyboard-response,5
true,3,1,1,0,false,q,false,false,0.0-2.0-0.8-0.76-3.76,0,0,0,90,false,stim,true,1,860.1000000014901,1,0,0,70522,task1,2087941,false,false,307,image-keyboard-response,6
true,3,2,1,0,false,q,true,false,0.0-2.0-0.8-0.77-3.77,0,0,0,68,false,stim,false,1,636.5,1,0,0,70522,task1,2090083,false,false,310,image-keyboard-response,7
true,3,1,1,2,false,d,true,false,0.0-2.0-0.8-0.78-3.78,0,0,0,90,false,stim,false,0,658.0,1,0,1,70522,task1,2092252,false,false,313,image-keyboard-response,8
true,3,1,1,2,false,d,true,false,0.0-2.0-0.8-0.79-3.79,0,0,0,90,false,stim,false,0,843.7000000029802,1,0,2,70522,task1,2094601,false,false,316,image-keyboard-response,9
true,3,0,1,0,true,q,false,true,0.0-2.0-0.8-0.80-3.80,0,0,0,81,false,stim,false,1,387.69999999552965,1,0,0,70522,task1,2096496,false,false,319,image-keyboard-response,10
true,3,0,1,0,true,q,false,false,0.0-2.0-0.9-0.81-3.81,0,0,0,81,false,stim,false,1,553.1999999955297,1,0,0,70522,task1,2098563,false,true,322,image-keyboard-response,11
true,3,2,1,2,true,d,false,true,0.0-2.0-0.9-0.82-3.82,0,0,0,68,false,stim,false,0,416.20000000298023,1,0,1,70522,task1,2100484,false,false,325,image-keyboard-response,12
true,3,2,1,2,true,d,false,true,0.0-2.0-0.9-0.83-3.83,0,0,0,68,false,stim,false,0,346.8999999985099,1,0,2,70522,task1,2102344,false,false,328,image-keyboard-response,13
true,3,0,1,0,true,q,false,true,0.0-2.0-0.9-0.84-3.84,0,0,0,81,false,stim,false,1,678.7000000029802,1,0,0,70522,task1,2104537,false,false,331,image-keyboard-response,14
true,3,2,1,2,true,d,false,true,0.0-2.0-0.9-0.85-3.85,0,0,0,68,false,stim,false,0,1159.0,1,0,1,70522,task1,2107204,false,false,334,image-keyboard-response,15
true,3,0,1,0,true,q,false,true,0.0-2.0-0.9-0.86-3.86,0,0,0,81,false,stim,false,1,569.6000000014901,1,0,0,70522,task1,2109283,false,false,337,image-keyboard-response,16
true,3,2,1,2,true,d,false,true,0.0-2.0-0.9-0.87-3.87,0,0,0,68,false,stim,false,0,709.5,1,0,1,70522,task1,2111503,false,false,340,image-keyboard-response,17
true,3,2,1,2,true,d,false,true,0.0-2.0-0.9-0.88-3.88,0,0,0,68,false,stim,false,0,754.6000000014901,1,0,2,70522,task1,2113770,false,false,343,image-keyboard-response,18
true,3,2,1,2,true,d,false,true,0.0-2.0-0.9-0.89-3.89,0,0,0,68,false,stim,false,0,523.8999999985099,1,0,2,70522,task1,2115803,false,false,346,image-keyboard-response,19
true,3,2,1,2,true,d,false,true,0.0-2.0-0.10-0.90-3.90,0,0,0,68,false,stim,false,0,410.1000000014901,1,0,2,70522,task1,2117725,false,false,349,image-keyboard-response,20
true,3,2,1,2,true,d,false,true,0.0-2.0-0.10-0.91-3.91,0,0,0,68,false,stim,false,0,793.0,1,0,1,70522,task1,2120029,false,false,352,image-keyboard-response,21
true,3,2,1,2,true,d,false,false,0.0-2.0-0.10-0.92-3.92,0,0,0,68,false,stim,false,0,541.8999999985099,1,0,1,70522,task1,2122085,false,true,355,image-keyboard-response,22
true,3,2,1,2,true,d,false,true,0.0-2.0-0.10-0.93-3.93,0,0,0,68,false,stim,false,0,468.09999999403954,1,0,2,70522,task1,2124063,false,false,358,image-keyboard-response,23
true,3,0,1,0,true,q,false,true,0.0-2.0-0.10-0.94-3.94,0,0,0,81,false,stim,false,1,945.0,1,0,0,70522,task1,2126517,false,false,361,image-keyboard-response,24
true,3,2,1,2,true,d,false,true,0.0-2.0-0.10-0.95-3.95,0,0,0,68,false,stim,false,0,636.0,1,0,1,70522,task1,2128667,false,false,364,image-keyboard-response,25
true,3,0,1,0,true,q,false,true,0.0-2.0-0.10-0.96-3.96,0,0,0,81,false,stim,false,1,688.8000000044703,1,0,0,70522,task1,2130869,false,false,367,image-keyboard-response,26
true,3,0,1,0,true,q,false,true,0.0-2.0-0.10-0.97-3.97,0,0,0,81,false,stim,false,1,433.69999999552965,1,0,0,70522,task1,2132812,false,false,370,image-keyboard-response,27
true,3,2,1,2,true,d,false,true,0.0-2.0-0.10-0.98-3.98,0,0,0,68,false,stim,false,0,604.9000000059605,1,0,2,70522,task1,2134925,false,false,373,image-keyboard-response,28
true,3,0,1,0,true,q,false,true,0.0-2.0-0.11-0.99-3.99,0,0,0,81,false,stim,false,1,633.1000000014901,1,0,0,70522,task1,2137067,false,false,376,image-keyboard-response,29
true,3,0,1,0,true,q,false,true,0.0-2.0-0.11-0.100-3.100,0,0,0,81,false,stim,false,1,510.0,1,0,0,70522,task1,2139090,false,false,379,image-keyboard-response,30
true,3,0,1,0,true,q,false,true,0.0-2.0-0.11-0.101-3.101,0,0,0,81,false,stim,false,1,456.20000000298023,1,0,0,70522,task1,2141058,false,false,382,image-keyboard-response,31
true,3,2,1,2,true,d,false,true,0.0-2.0-0.11-0.102-3.102,0,0,0,68,false,stim,false,0,545.1000000014901,1,0,1,70522,task1,2143117,false,false,385,image-keyboard-response,32
true,3,2,1,2,true,d,false,true,0.0-2.0-0.11-0.103-3.103,0,0,0,68,false,stim,false,0,466.20000000298023,1,0,2,70522,task1,2145096,false,false,388,image-keyboard-response,33
true,3,2,1,2,true,d,false,true,0.0-2.0-0.11-0.104-3.104,0,0,0,68,false,stim,false,0,463.20000000298023,1,0,2,70522,task1,2147069,false,false,391,image-keyboard-response,34
true,3,2,1,2,true,d,false,true,0.0-2.0-0.11-0.105-3.105,0,0,0,68,false,stim,false,0,870.5,1,0,1,70522,task1,2149453,false,false,394,image-keyboard-response,35
true,3,2,1,2,true,d,false,true,0.0-2.0-0.11-0.106-3.106,0,0,0,68,false,stim,false,0,476.29999999701977,1,0,1,70522,task1,2151437,false,false,397,image-keyboard-response,36
true,3,2,1,2,true,d,false,true,0.0-2.0-0.11-0.107-3.107,0,0,0,68,false,stim,false,0,598.3000000044703,1,0,2,70522,task1,2153542,false,false,400,image-keyboard-response,37
true,3,2,1,2,true,d,false,true,0.0-2.0-0.12-0.108-3.108,0,0,0,68,false,stim,false,0,721.8000000044703,1,0,2,70522,task1,2155779,false,false,403,image-keyboard-response,38
true,3,0,1,0,true,q,false,true,0.0-2.0-0.12-0.109-3.109,0,0,0,81,false,stim,false,1,508.70000000298023,1,0,0,70522,task1,2157797,false,false,406,image-keyboard-response,39
true,3,2,1,2,true,d,false,false,0.0-2.0-0.12-0.110-3.110,0,0,0,68,false,stim,false,0,794.2000000029802,1,0,1,70522,task1,2160103,false,true,409,image-keyboard-response,40
true,3,2,1,2,true,d,false,true,0.0-2.0-0.12-0.111-3.111,0,0,0,68,false,stim,false,0,511.70000000298023,1,0,1,70522,task1,2162128,false,false,412,image-keyboard-response,41
true,4,2,1,0,false,q,false,false,0.0-2.0-0.12-0.112-3.112,0,0,0,68,true,stim,true,2,534.7000000029802,1,0,2,70522,task1,2164176,false,false,415,image-keyboard-response,1
true,4,2,1,1,false,z,false,false,0.0-2.0-0.12-0.113-3.113,0,0,0,68,false,stim,true,2,507.1000000014901,1,0,1,70522,task1,2166195,false,false,418,image-keyboard-response,2
true,4,2,1,0,false,q,false,true,0.0-2.0-0.12-0.114-3.114,0,0,0,68,false,stim,true,2,523.0,1,0,2,70522,task1,2168227,false,true,421,image-keyboard-response,3
true,4,0,1,2,false,d,false,false,0.0-2.0-0.12-0.115-3.115,0,0,0,81,false,stim,true,0,724.7999999970198,1,0,0,70522,task1,2170462,false,false,424,image-keyboard-response,4
true,4,0,1,2,false,d,false,false,0.0-2.0-0.12-0.116-3.116,0,0,0,81,false,stim,true,0,441.29999999701977,1,0,0,70522,task1,2172417,false,false,427,image-keyboard-response,5
true,4,2,1,1,false,z,false,false,0.0-2.0-0.13-0.117-3.117,0,0,0,68,false,stim,true,2,1703.3000000044703,1,0,1,70522,task1,2175631,false,false,430,image-keyboard-response,6
true,4,0,1,0,true,q,false,false,0.0-2.0-0.13-0.118-3.118,0,0,0,81,false,stim,false,2,1079.1000000014901,1,0,2,70522,task1,2178221,false,true,433,image-keyboard-response,7
true,4,0,1,1,false,z,true,false,0.0-2.0-0.13-0.119-3.119,0,0,0,81,false,stim,false,2,1445.0,1,0,1,70522,task1,2181178,false,false,436,image-keyboard-response,8
true,4,0,1,2,false,d,false,true,0.0-2.0-0.13-0.120-3.120,0,0,0,81,false,stim,true,0,832.1999999955297,1,0,0,70522,task1,2183523,false,true,439,image-keyboard-response,9
true,4,1,1,0,false,q,true,false,0.0-2.0-0.13-0.121-3.121,0,0,0,90,false,stim,false,2,622.6000000014901,1,0,2,70522,task1,2185657,false,false,442,image-keyboard-response,10
true,4,0,1,2,false,d,false,false,0.0-2.0-0.13-0.122-3.122,0,0,0,81,false,stim,true,0,702.5,1,0,0,70522,task1,2187873,false,false,445,image-keyboard-response,11
true,4,1,1,0,false,q,true,false,0.0-2.0-0.13-0.123-3.123,0,0,0,90,false,stim,false,2,678.6000000014901,1,0,2,70522,task1,2190065,false,false,448,image-keyboard-response,12
true,4,0,1,2,false,d,false,false,0.0-2.0-0.13-0.124-3.124,0,0,0,81,false,stim,true,0,510.70000000298023,1,0,0,70522,task1,2192084,false,false,451,image-keyboard-response,13
true,4,2,1,1,false,z,false,false,0.0-2.0-0.13-0.125-3.125,0,0,0,68,false,stim,true,2,1238.6000000014901,1,0,1,70522,task1,2194832,false,false,454,image-keyboard-response,14
true,4,0,1,1,false,z,true,true,0.0-2.0-0.14-0.126-3.126,0,0,0,81,false,stim,false,2,609.6999999955297,1,0,1,70522,task1,2196948,false,true,457,image-keyboard-response,15
true,4,0,1,0,true,q,false,true,0.0-2.0-0.14-0.127-3.127,0,0,0,81,false,stim,false,2,585.6000000014901,1,0,2,70522,task1,2199046,false,false,460,image-keyboard-response,16
true,4,0,1,1,false,z,true,false,0.0-2.0-0.14-0.128-3.128,0,0,0,81,false,stim,false,2,748.3999999985099,1,0,1,70522,task1,2201308,false,false,463,image-keyboard-response,17
true,4,0,1,0,true,q,false,true,0.0-2.0-0.14-0.129-3.129,0,0,0,81,false,stim,false,2,439.69999999552965,1,0,2,70522,task1,2203261,false,false,466,image-keyboard-response,18
true,4,1,1,2,false,d,true,false,0.0-2.0-0.14-0.130-3.130,0,0,0,90,false,stim,false,0,758.8000000044703,1,0,0,70522,task1,2205533,false,false,469,image-keyboard-response,19
true,4,0,1,1,false,z,true,true,0.0-2.0-0.14-0.131-3.131,0,0,0,81,false,stim,false,2,656.1000000014901,1,0,1,70522,task1,2207703,false,true,472,image-keyboard-response,20
true,4,2,1,2,true,d,false,true,0.0-2.0-0.14-0.132-3.132,0,0,0,68,false,stim,false,0,610.3999999985099,1,0,0,70522,task1,2209828,false,false,475,image-keyboard-response,21
true,4,2,1,2,true,d,false,true,0.0-2.0-0.14-0.133-3.133,0,0,0,68,false,stim,false,0,567.5,1,0,0,70522,task1,2211905,false,false,478,image-keyboard-response,22
true,4,0,1,0,true,q,false,true,0.0-2.0-0.14-0.134-3.134,0,0,0,81,false,stim,false,2,776.0999999940395,1,0,2,70522,task1,2214192,false,false,481,image-keyboard-response,23
true,4,2,1,2,true,d,false,true,0.0-2.0-0.15-0.135-3.135,0,0,0,68,false,stim,false,0,656.7999999970198,1,0,0,70522,task1,2216352,false,false,484,image-keyboard-response,24
true,4,2,1,2,true,d,false,true,0.0-2.0-0.15-0.136-3.136,0,0,0,68,false,stim,false,0,445.8999999985099,1,0,0,70522,task1,2218307,false,false,487,image-keyboard-response,25
true,4,0,1,0,true,q,false,false,0.0-2.0-0.15-0.137-3.137,0,0,0,81,false,stim,false,2,577.8999999985099,1,0,2,70522,task1,2220394,false,true,490,image-keyboard-response,26
true,4,2,1,2,true,d,false,true,0.0-2.0-0.15-0.138-3.138,0,0,0,68,false,stim,false,0,612.6000000014901,1,0,0,70522,task1,2222512,false,false,493,image-keyboard-response,27
true,4,0,1,0,true,q,false,false,0.0-2.0-0.15-0.139-3.139,0,0,0,81,false,stim,false,2,761.0,1,0,2,70522,task1,2224787,false,true,496,image-keyboard-response,28
true,4,0,1,1,false,z,true,false,0.0-2.0-0.15-0.140-3.140,0,0,0,81,false,stim,false,2,755.0,1,0,1,70522,task1,2227051,false,false,499,image-keyboard-response,29
true,4,0,1,1,false,z,true,false,0.0-2.0-0.15-0.141-3.141,0,0,0,81,false,stim,false,2,460.1000000014901,1,0,1,70522,task1,2229023,false,false,502,image-keyboard-response,30
true,4,0,1,1,false,z,true,false,0.0-2.0-0.15-0.142-3.142,0,0,0,81,false,stim,false,2,428.3999999985099,1,0,1,70522,task1,2230962,false,false,505,image-keyboard-response,31
true,4,0,1,0,true,q,false,true,0.0-2.0-0.15-0.143-3.143,0,0,0,81,false,stim,false,2,1054.0,1,0,2,70522,task1,2233525,false,false,508,image-keyboard-response,32
true,4,2,1,2,true,d,false,true,0.0-2.0-0.16-0.144-3.144,0,0,0,68,false,stim,false,0,669.3999999985099,1,0,0,70522,task1,2235703,false,false,511,image-keyboard-response,33
true,4,2,1,2,true,d,false,true,0.0-2.0-0.16-0.145-3.145,0,0,0,68,false,stim,false,0,610.0,1,0,0,70522,task1,2237825,false,false,514,image-keyboard-response,34
true,4,1,1,1,true,z,false,true,0.0-2.0-0.16-0.146-3.146,0,0,0,90,false,stim,false,2,481.40000000596046,1,0,1,70522,task1,2239821,false,false,517,image-keyboard-response,35
true,4,0,1,0,true,q,false,true,0.0-2.0-0.16-0.147-3.147,0,0,0,81,false,stim,false,2,1016.5,1,0,2,70522,task1,2242351,false,false,520,image-keyboard-response,36
true,4,0,1,0,true,q,false,true,0.0-2.0-0.16-0.148-3.148,0,0,0,81,false,stim,false,2,523.2000000029802,1,0,2,70522,task1,2244388,false,false,523,image-keyboard-response,37
true,4,1,1,1,true,z,false,true,0.0-2.0-0.16-0.149-3.149,0,0,0,90,false,stim,false,2,779.1000000014901,1,0,1,70522,task1,2246676,false,false,526,image-keyboard-response,38
true,4,1,1,1,true,z,false,false,0.0-2.0-0.16-0.150-3.150,0,0,0,90,false,stim,false,2,469.1000000014901,1,0,1,70522,task1,2248659,false,true,529,image-keyboard-response,39
true,4,0,1,0,true,q,false,true,0.0-2.0-0.16-0.151-3.151,0,0,0,81,false,stim,false,2,749.6000000014901,1,0,2,70522,task1,2250917,false,false,532,image-keyboard-response,40
true,4,2,1,2,true,d,false,true,0.0-2.0-0.16-0.152-3.152,0,0,0,68,false,stim,false,0,439.19999999552965,1,0,0,70522,task1,2252866,false,false,535,image-keyboard-response,41
true,5,0,2,2,false,d,false,false,0.0-2.0-0.17-0.153-3.153,0,0,0,81,true,stim,true,0,883.8999999985099,1,0,2,70522,task1,2255258,false,false,538,image-keyboard-response,1
true,5,2,2,0,false,q,false,true,0.0-2.0-0.17-0.154-3.154,0,0,0,68,false,stim,true,2,767.1000000014901,1,0,0,70522,task1,2257539,false,true,541,image-keyboard-response,2
true,5,1,2,2,false,d,false,false,0.0-2.0-0.17-0.155-3.155,0,0,0,90,false,stim,true,1,643.5,1,0,1,70522,task1,2259689,false,false,544,image-keyboard-response,3
true,5,2,2,0,false,q,false,false,0.0-2.0-0.17-0.156-3.156,0,0,0,68,false,stim,true,2,831.5,1,0,0,70522,task1,2262033,false,false,547,image-keyboard-response,4
true,5,1,2,2,false,d,false,true,0.0-2.0-0.17-0.157-3.157,0,0,0,90,false,stim,true,1,859.2999999970198,1,0,1,70522,task1,2264401,false,true,550,image-keyboard-response,5
true,5,0,2,2,false,d,false,false,0.0-2.0-0.17-0.158-3.158,0,0,0,81,false,stim,true,0,399.6000000014901,1,0,2,70522,task1,2266314,false,false,553,image-keyboard-response,6
true,5,2,2,0,false,q,false,false,0.0-2.0-0.17-0.159-3.159,0,0,0,68,false,stim,true,2,465.5,1,0,0,70522,task1,2268288,false,false,556,image-keyboard-response,7
true,5,2,2,2,true,d,false,true,0.0-2.0-0.17-0.160-3.160,0,0,0,68,false,stim,false,0,474.0,1,0,2,70522,task1,2270270,false,false,559,image-keyboard-response,8
true,5,1,2,2,false,d,false,false,0.0-2.0-0.17-0.161-3.161,0,0,0,90,false,stim,true,1,628.1999999955297,1,0,1,70522,task1,2272409,false,false,562,image-keyboard-response,9
true,5,0,2,2,false,d,true,false,0.0-2.0-0.18-0.162-3.162,0,0,0,81,false,stim,false,1,773.1000000014901,1,0,1,70522,task1,2274691,false,false,565,image-keyboard-response,10
true,5,2,2,2,true,d,false,true,0.0-2.0-0.18-0.163-3.163,0,0,0,68,false,stim,false,0,646.5,1,0,2,70522,task1,2276845,false,false,568,image-keyboard-response,11
true,5,0,2,0,true,q,false,true,0.0-2.0-0.18-0.164-3.164,0,0,0,81,false,stim,false,2,681.5,1,0,0,70522,task1,2279035,false,false,571,image-keyboard-response,12
true,5,0,2,0,true,q,false,true,0.0-2.0-0.18-0.165-3.165,0,0,0,81,false,stim,false,2,507.19999999552965,1,0,0,70522,task1,2281052,false,false,574,image-keyboard-response,13
true,5,2,2,2,true,d,false,true,0.0-2.0-0.18-0.166-3.166,0,0,0,68,false,stim,false,1,925.5,1,0,1,70522,task1,2283491,false,false,577,image-keyboard-response,14
true,5,2,2,2,true,d,false,true,0.0-2.0-0.18-0.167-3.167,0,0,0,68,false,stim,false,0,507.8999999985099,1,0,2,70522,task1,2285510,false,false,580,image-keyboard-response,15
true,5,2,2,2,true,d,false,false,0.0-2.0-0.18-0.168-3.168,0,0,0,68,false,stim,false,0,796.5999999940395,1,0,2,70522,task1,2287818,false,true,583,image-keyboard-response,16
true,5,0,2,0,true,q,false,false,0.0-2.0-0.18-0.169-3.169,0,0,0,81,false,stim,false,2,672.5,1,0,0,70522,task1,2290000,false,true,586,image-keyboard-response,17
true,5,2,2,2,true,d,false,true,0.0-2.0-0.18-0.170-3.170,0,0,0,68,false,stim,false,1,975.3000000044703,1,0,1,70522,task1,2292489,false,false,589,image-keyboard-response,18
true,5,2,2,2,true,d,false,true,0.0-2.0-0.19-0.171-3.171,0,0,0,68,false,stim,false,0,738.6000000014901,1,0,2,70522,task1,2294741,false,false,592,image-keyboard-response,19
true,5,2,2,2,true,d,false,true,0.0-2.0-0.19-0.172-3.172,0,0,0,68,false,stim,false,1,839.2999999970198,1,0,1,70522,task1,2297090,false,false,595,image-keyboard-response,20
true,5,2,2,2,true,d,false,true,0.0-2.0-0.19-0.173-3.173,0,0,0,68,false,stim,false,0,647.7000000029802,1,0,2,70522,task1,2299245,false,false,598,image-keyboard-response,21
true,5,0,2,0,true,q,false,true,0.0-2.0-0.19-0.174-3.174,0,0,0,81,false,stim,false,2,441.5,1,0,0,70522,task1,2301199,false,false,601,image-keyboard-response,22
true,5,2,2,2,true,d,false,true,0.0-2.0-0.19-0.175-3.175,0,0,0,68,false,stim,false,0,456.80000000447035,1,0,2,70522,task1,2303165,false,false,604,image-keyboard-response,23
true,5,0,2,0,true,q,false,true,0.0-2.0-0.19-0.176-3.176,0,0,0,81,false,stim,false,2,445.1000000014901,1,0,0,70522,task1,2305117,false,false,607,image-keyboard-response,24
true,5,2,2,2,true,d,false,true,0.0-2.0-0.19-0.177-3.177,0,0,0,68,false,stim,false,1,624.6999999955297,1,0,1,70522,task1,2307254,false,false,610,image-keyboard-response,25
true,5,2,2,2,true,d,false,true,0.0-2.0-0.19-0.178-3.178,0,0,0,68,false,stim,false,1,497.3999999985099,1,0,1,70522,task1,2309263,false,false,613,image-keyboard-response,26
true,5,0,2,0,true,q,false,true,0.0-2.0-0.19-0.179-3.179,0,0,0,81,false,stim,false,2,496.6000000014901,1,0,0,70522,task1,2311273,false,false,616,image-keyboard-response,27
true,5,2,2,2,true,d,false,false,0.0-2.0-0.20-0.180-3.180,0,0,0,68,false,stim,false,0,496.6000000014901,1,0,2,70522,task1,2313282,false,true,619,image-keyboard-response,28
true,5,0,2,0,true,q,false,false,0.0-2.0-0.20-0.181-3.181,0,0,0,81,false,stim,false,2,445.69999999552965,1,0,0,70522,task1,2315236,false,true,622,image-keyboard-response,29
true,5,2,2,2,true,d,false,false,0.0-2.0-0.20-0.182-3.182,0,0,0,68,false,stim,false,0,809.1000000014901,1,0,2,70522,task1,2317554,false,true,625,image-keyboard-response,30
true,5,0,2,0,true,q,false,true,0.0-2.0-0.20-0.183-3.183,0,0,0,81,false,stim,false,2,1056.5,1,0,0,70522,task1,2320125,false,false,628,image-keyboard-response,31
true,5,2,2,2,true,d,false,true,0.0-2.0-0.20-0.184-3.184,0,0,0,68,false,stim,false,1,879.5,1,0,1,70522,task1,2322515,false,false,631,image-keyboard-response,32
true,5,0,2,0,true,q,false,true,0.0-2.0-0.20-0.185-3.185,0,0,0,81,false,stim,false,2,522.3000000044703,1,0,0,70522,task1,2324551,false,false,634,image-keyboard-response,33
true,5,2,2,2,true,d,false,true,0.0-2.0-0.20-0.186-3.186,0,0,0,68,false,stim,false,1,548.6999999955297,1,0,1,70522,task1,2326614,false,false,637,image-keyboard-response,34
true,5,2,2,2,true,d,false,true,0.0-2.0-0.20-0.187-3.187,0,0,0,68,false,stim,false,1,537.2999999970198,1,0,1,70522,task1,2328665,false,false,640,image-keyboard-response,35
true,5,2,2,2,true,d,false,false,0.0-2.0-0.20-0.188-3.188,0,0,0,68,false,stim,false,0,1075.3000000044703,1,0,2,70522,task1,2331253,false,true,643,image-keyboard-response,36
true,5,1,2,2,false,d,true,false,0.0-2.0-0.21-0.189-3.189,0,0,0,90,false,stim,false,0,647.0,1,0,2,70522,task1,2333415,false,false,646,image-keyboard-response,37
true,5,0,2,2,false,d,true,false,0.0-2.0-0.21-0.190-3.190,0,0,0,81,false,stim,false,1,377.69999999552965,1,0,1,70522,task1,2335306,false,false,649,image-keyboard-response,38
true,5,2,2,2,true,d,false,true,0.0-2.0-0.21-0.191-3.191,0,0,0,68,false,stim,false,1,672.1999999955297,1,0,1,70522,task1,2337488,false,false,652,image-keyboard-response,39
true,5,0,2,0,true,q,false,true,0.0-2.0-0.21-0.192-3.192,0,0,0,81,false,stim,false,2,611.2999999970198,1,0,0,70522,task1,2339613,false,false,655,image-keyboard-response,40
true,5,0,2,2,false,d,false,true,0.0-2.0-0.21-0.193-3.193,0,0,0,81,false,stim,true,0,351.1000000014901,1,0,2,70522,task1,2341479,false,true,658,image-keyboard-response,41
true,5,0,2,0,true,q,false,true,0.0-2.0-0.21-0.194-3.194,0,0,0,81,false,stim,false,2,510.19999999552965,1,0,0,70522,task1,2343500,false,false,661,image-keyboard-response,42
true,5,0,2,2,false,d,true,true,0.0-2.0-0.21-0.195-3.195,0,0,0,81,false,stim,false,1,519.8000000044703,1,0,1,70522,task1,2345529,false,true,664,image-keyboard-response,43
true,5,0,2,2,false,d,false,false,0.0-2.0-0.21-0.196-3.196,0,0,0,81,false,stim,true,0,597.1999999955297,1,0,2,70522,task1,2347639,false,false,667,image-keyboard-response,44
true,5,0,2,0,true,q,false,true,0.0-2.0-0.21-0.197-3.197,0,0,0,81,false,stim,false,2,573.7999999970198,1,0,0,70522,task1,2349721,false,false,670,image-keyboard-response,45
true,6,0,2,0,true,q,false,true,0.0-2.0-0.22-0.198-3.198,0,0,0,81,true,stim,false,2,379.80000000447035,1,0,2,70522,task1,2351615,false,false,673,image-keyboard-response,1
true,6,0,2,0,true,q,false,true,0.0-2.0-0.22-0.199-3.199,0,0,0,81,false,stim,false,2,472.79999999701977,1,0,2,70522,task1,2353597,false,false,676,image-keyboard-response,2
true,6,0,2,2,false,d,false,false,0.0-2.0-0.22-0.200-3.200,0,0,0,81,false,stim,true,0,476.70000000298023,1,0,0,70522,task1,2355584,false,false,679,image-keyboard-response,3
true,6,0,2,2,false,d,false,false,0.0-2.0-0.22-0.201-3.201,0,0,0,81,false,stim,true,0,421.70000000298023,1,0,0,70522,task1,2357514,false,false,682,image-keyboard-response,4
true,6,0,2,1,false,z,true,false,0.0-2.0-0.22-0.202-3.202,0,0,0,81,false,stim,false,2,1722.0,1,0,1,70522,task1,2360750,false,false,685,image-keyboard-response,5
true,6,2,2,1,false,z,false,false,0.0-2.0-0.22-0.203-3.203,0,0,0,68,false,stim,true,2,434.6000000014901,1,0,1,70522,task1,2362695,false,false,688,image-keyboard-response,6
true,6,0,2,0,true,q,false,true,0.0-2.0-0.22-0.204-3.204,0,0,0,81,false,stim,false,2,930.1000000014901,1,0,2,70522,task1,2365137,false,false,691,image-keyboard-response,7
true,6,0,2,2,false,d,false,true,0.0-2.0-0.22-0.205-3.205,0,0,0,81,false,stim,true,0,452.1000000014901,1,0,0,70522,task1,2367103,false,true,694,image-keyboard-response,8
true,6,2,2,1,false,z,false,true,0.0-2.0-0.22-0.206-3.206,0,0,0,68,false,stim,true,2,498.79999999701977,1,0,1,70522,task1,2369112,false,true,697,image-keyboard-response,9
true,6,0,2,2,false,d,false,false,0.0-2.0-0.23-0.207-3.207,0,0,0,81,false,stim,true,0,474.0,1,0,0,70522,task1,2371098,false,false,700,image-keyboard-response,10
true,6,0,2,0,true,q,false,true,0.0-2.0-0.23-0.208-3.208,0,0,0,81,false,stim,false,2,753.5,1,0,2,70522,task1,2373365,false,false,703,image-keyboard-response,11
true,6,0,2,2,false,d,false,false,0.0-2.0-0.23-0.209-3.209,0,0,0,81,false,stim,true,0,554.5999999940395,1,0,0,70522,task1,2375427,false,false,706,image-keyboard-response,12
true,6,2,2,1,false,z,false,false,0.0-2.0-0.23-0.210-3.210,0,0,0,68,false,stim,true,2,1015.1999999955297,1,0,1,70522,task1,2377952,false,false,709,image-keyboard-response,13
true,6,1,2,1,true,z,false,false,0.0-2.0-0.23-0.211-3.211,0,0,0,90,false,stim,false,2,606.1999999955297,1,0,1,70522,task1,2380072,false,true,712,image-keyboard-response,14
true,6,0,2,2,false,d,false,false,0.0-2.0-0.23-0.212-3.212,0,0,0,81,false,stim,true,0,548.3999999985099,1,0,0,70522,task1,2382126,false,false,715,image-keyboard-response,15
true,6,0,2,1,false,z,true,false,0.0-2.0-0.23-0.213-3.213,0,0,0,81,false,stim,false,2,709.7000000029802,1,0,1,70522,task1,2384350,false,false,718,image-keyboard-response,16
true,6,0,2,0,true,q,false,true,0.0-2.0-0.23-0.214-3.214,0,0,0,81,false,stim,false,2,1405.8999999985099,1,0,2,70522,task1,2387268,false,false,721,image-keyboard-response,17
true,6,0,2,0,true,q,false,true,0.0-2.0-0.23-0.215-3.215,0,0,0,81,false,stim,false,2,536.0,1,0,2,70522,task1,2389319,false,false,724,image-keyboard-response,18
true,6,0,2,0,true,q,false,true,0.0-2.0-0.24-0.216-3.216,0,0,0,81,false,stim,false,2,456.0,1,0,2,70522,task1,2391288,false,false,727,image-keyboard-response,19
true,6,0,2,0,true,q,false,true,0.0-2.0-0.24-0.217-3.217,0,0,0,81,false,stim,false,2,501.0,1,0,2,70522,task1,2393299,false,false,730,image-keyboard-response,20
true,6,0,2,0,true,q,false,true,0.0-2.0-0.24-0.218-3.218,0,0,0,81,false,stim,false,2,407.1000000014901,1,0,2,70522,task1,2395220,false,false,733,image-keyboard-response,21
true,6,1,2,2,false,d,true,false,0.0-2.0-0.24-0.219-3.219,0,0,0,90,false,stim,false,0,1020.2000000029802,1,0,0,70522,task1,2397748,false,false,736,image-keyboard-response,22
true,6,0,2,1,false,z,true,false,0.0-2.0-0.24-0.220-3.220,0,0,0,81,false,stim,false,2,672.7000000029802,1,0,1,70522,task1,2399933,false,false,739,image-keyboard-response,23
true,6,1,2,1,true,z,false,false,0.0-2.0-0.24-0.221-3.221,0,0,0,90,false,stim,false,2,753.5,1,0,1,70522,task1,2402195,false,true,742,image-keyboard-response,24
true,6,2,2,2,true,d,false,true,0.0-2.0-0.24-0.222-3.222,0,0,0,68,false,stim,false,0,794.2999999970198,1,0,0,70522,task1,2404497,false,false,745,image-keyboard-response,25
true,6,2,2,2,true,d,false,true,0.0-2.0-0.24-0.223-3.223,0,0,0,68,false,stim,false,0,579.2000000029802,1,0,0,70522,task1,2406586,false,false,748,image-keyboard-response,26
true,6,2,2,1,false,z,false,false,0.0-2.0-0.24-0.224-3.224,0,0,0,68,false,stim,true,2,432.59999999403954,1,0,1,70522,task1,2408531,false,false,751,image-keyboard-response,27
true,6,2,2,2,true,d,false,true,0.0-2.0-0.25-0.225-3.225,0,0,0,68,false,stim,false,0,603.7999999970198,1,0,0,70522,task1,2410644,false,false,754,image-keyboard-response,28
true,6,2,2,2,true,d,false,true,0.0-2.0-0.25-0.226-3.226,0,0,0,68,false,stim,false,0,426.0,1,0,0,70522,task1,2412584,false,false,757,image-keyboard-response,29
true,6,0,2,1,false,z,true,false,0.0-2.0-0.25-0.227-3.227,0,0,0,81,false,stim,false,2,1082.3000000044703,1,0,1,70522,task1,2415176,false,false,760,image-keyboard-response,30
true,6,2,2,2,true,d,false,true,0.0-2.0-0.25-0.228-3.228,0,0,0,68,false,stim,false,0,781.6000000014901,1,0,0,70522,task1,2417471,false,false,763,image-keyboard-response,31
true,6,2,2,1,false,z,false,true,0.0-2.0-0.25-0.229-3.229,0,0,0,68,false,stim,true,2,1651.2999999970198,1,0,1,70522,task1,2420632,false,true,766,image-keyboard-response,32
true,6,0,2,0,true,q,false,true,0.0-2.0-0.25-0.230-3.230,0,0,0,81,false,stim,false,2,546.1999999955297,1,0,2,70522,task1,2422693,false,false,769,image-keyboard-response,33
true,6,0,2,0,true,q,false,true,0.0-2.0-0.25-0.231-3.231,0,0,0,81,false,stim,false,2,572.1999999955297,1,0,2,70522,task1,2424780,false,false,772,image-keyboard-response,34
true,6,2,2,1,false,z,false,false,0.0-2.0-0.25-0.232-3.232,0,0,0,68,false,stim,true,2,740.5,1,0,1,70522,task1,2427034,false,false,775,image-keyboard-response,35
true,6,0,2,0,true,q,false,true,0.0-2.0-0.25-0.233-3.233,0,0,0,81,false,stim,false,2,684.3999999985099,1,0,2,70522,task1,2429229,false,false,778,image-keyboard-response,36
true,6,0,2,0,true,q,false,true,0.0-2.0-0.26-0.234-3.234,0,0,0,81,false,stim,false,2,487.79999999701977,1,0,2,70522,task1,2431230,false,false,781,image-keyboard-response,37
true,6,2,2,1,false,z,false,false,0.0-2.0-0.26-0.235-3.235,0,0,0,68,false,stim,true,2,809.0,1,0,1,70522,task1,2433553,false,false,784,image-keyboard-response,38
true,6,2,2,2,true,d,false,true,0.0-2.0-0.26-0.236-3.236,0,0,0,68,false,stim,false,0,765.3999999985099,1,0,0,70522,task1,2435826,false,false,787,image-keyboard-response,39
true,6,0,2,1,false,z,true,false,0.0-2.0-0.26-0.237-3.237,0,0,0,81,false,stim,false,2,550.8000000044703,1,0,1,70522,task1,2437888,false,false,790,image-keyboard-response,40
true,6,1,2,1,true,z,false,true,0.0-2.0-0.26-0.238-3.238,0,0,0,90,false,stim,false,2,583.0,1,0,1,70522,task1,2439983,false,false,793,image-keyboard-response,41
true,6,0,2,0,true,q,false,true,0.0-2.0-0.26-0.239-3.239,0,0,0,81,false,stim,false,2,619.8999999985099,1,0,2,70522,task1,2442112,false,false,796,image-keyboard-response,42
true,6,2,2,2,true,d,false,false,0.0-2.0-0.26-0.240-3.240,0,0,0,68,false,stim,false,0,579.5,1,0,0,70522,task1,2444206,false,true,799,image-keyboard-response,43
true,7,0,1,1,false,z,false,false,0.0-2.0-0.26-0.241-3.241,0,0,0,81,true,stim,true,0,658.2999999970198,1,0,2,70522,task1,2446382,false,false,802,image-keyboard-response,1
true,7,2,1,0,false,q,false,false,0.0-2.0-0.26-0.242-3.242,0,0,0,68,false,stim,true,2,746.2999999970198,1,0,0,70522,task1,2448638,false,false,805,image-keyboard-response,2
true,7,1,1,0,false,q,false,false,0.0-2.0-0.27-0.243-3.243,0,0,0,90,false,stim,true,1,649.3000000044703,1,0,1,70522,task1,2450802,false,false,808,image-keyboard-response,3
true,7,1,1,1,true,z,false,true,0.0-2.0-0.27-0.244-3.244,0,0,0,90,false,stim,false,0,813.6000000014901,1,0,2,70522,task1,2453127,false,false,811,image-keyboard-response,4
true,7,0,1,0,true,q,false,true,0.0-2.0-0.27-0.245-3.245,0,0,0,81,false,stim,false,2,750.8999999985099,1,0,0,70522,task1,2455389,false,false,814,image-keyboard-response,5
true,7,1,1,1,true,z,false,true,0.0-2.0-0.27-0.246-3.246,0,0,0,90,false,stim,false,0,954.9000000059605,1,0,2,70522,task1,2457855,false,false,817,image-keyboard-response,6
true,7,0,1,0,true,q,false,true,0.0-2.0-0.27-0.247-3.247,0,0,0,81,false,stim,false,2,483.30000000447035,1,0,0,70522,task1,2459851,false,false,820,image-keyboard-response,7
true,7,2,1,0,false,q,true,false,0.0-2.0-0.27-0.248-3.248,0,0,0,68,false,stim,false,1,712.1999999955297,1,0,1,70522,task1,2462075,false,false,823,image-keyboard-response,8
true,7,1,1,1,true,z,false,true,0.0-2.0-0.27-0.249-3.249,0,0,0,90,false,stim,false,0,342.1000000014901,1,0,2,70522,task1,2463930,false,false,826,image-keyboard-response,9
true,7,0,1,0,true,q,false,false,0.0-2.0-0.27-0.250-3.250,0,0,0,81,false,stim,false,2,577.9000000059605,1,0,0,70522,task1,2466021,false,true,829,image-keyboard-response,10
true,7,0,1,0,true,q,false,true,0.0-2.0-0.27-0.251-3.251,0,0,0,81,false,stim,false,1,594.6000000014901,1,0,1,70522,task1,2468122,false,false,832,image-keyboard-response,11
true,7,1,1,1,true,z,false,true,0.0-2.0-0.28-0.252-3.252,0,0,0,90,false,stim,false,0,1012.6000000014901,1,0,2,70522,task1,2470648,false,false,835,image-keyboard-response,12
true,7,0,1,0,true,q,false,true,0.0-2.0-0.28-0.253-3.253,0,0,0,81,false,stim,false,2,423.29999999701977,1,0,0,70522,task1,2472581,false,false,838,image-keyboard-response,13
true,7,0,1,0,true,q,false,true,0.0-2.0-0.28-0.254-3.254,0,0,0,81,false,stim,false,2,439.19999999552965,1,0,0,70522,task1,2474531,false,false,841,image-keyboard-response,14
true,7,0,1,0,true,q,false,false,0.0-2.0-0.28-0.255-3.255,0,0,0,81,false,stim,false,2,403.5,1,0,0,70522,task1,2476446,false,true,844,image-keyboard-response,15
true,7,1,1,1,true,z,false,true,0.0-2.0-0.28-0.256-3.256,0,0,0,90,false,stim,false,0,753.8999999985099,1,0,2,70522,task1,2478709,false,false,847,image-keyboard-response,16
true,7,0,1,0,true,q,false,false,0.0-2.0-0.28-0.257-3.257,0,0,0,81,false,stim,false,1,440.30000000447035,1,0,1,70522,task1,2480661,false,true,850,image-keyboard-response,17
true,7,1,1,0,false,q,false,false,0.0-2.0-0.28-0.258-3.258,0,0,0,90,false,stim,true,1,599.1999999955297,1,0,1,70522,task1,2482770,false,false,853,image-keyboard-response,18
true,7,1,1,1,true,z,false,true,0.0-2.0-0.28-0.259-3.259,0,0,0,90,false,stim,false,0,632.0,1,0,2,70522,task1,2484911,false,false,856,image-keyboard-response,19
true,7,2,1,0,false,q,true,false,0.0-2.0-0.28-0.260-3.260,0,0,0,68,false,stim,false,1,759.6999999955297,1,0,1,70522,task1,2487182,false,false,859,image-keyboard-response,20
true,7,0,1,0,true,q,false,true,0.0-2.0-0.29-0.261-3.261,0,0,0,81,false,stim,false,1,678.4000000059605,1,0,1,70522,task1,2489372,false,false,862,image-keyboard-response,21
true,7,0,1,0,true,q,false,true,0.0-2.0-0.29-0.262-3.262,0,0,0,81,false,stim,false,2,637.8999999985099,1,0,0,70522,task1,2491520,false,false,865,image-keyboard-response,22
true,7,1,1,1,true,z,false,false,0.0-2.0-0.29-0.263-3.263,0,0,0,90,false,stim,false,0,633.0,1,0,2,70522,task1,2493666,false,true,868,image-keyboard-response,23
true,7,1,1,0,false,q,false,false,0.0-2.0-0.29-0.264-3.264,0,0,0,90,false,stim,true,1,516.7000000029802,1,0,1,70522,task1,2495692,false,false,871,image-keyboard-response,24
true,7,1,1,1,true,z,false,true,0.0-2.0-0.29-0.265-3.265,0,0,0,90,false,stim,false,0,783.3999999985099,1,0,2,70522,task1,2497990,false,false,874,image-keyboard-response,25
true,7,0,1,0,true,q,false,true,0.0-2.0-0.29-0.266-3.266,0,0,0,81,false,stim,false,2,447.79999999701977,1,0,0,70522,task1,2499948,false,false,877,image-keyboard-response,26
true,7,0,1,0,true,q,false,true,0.0-2.0-0.29-0.267-3.267,0,0,0,81,false,stim,false,1,593.2000000029802,1,0,1,70522,task1,2502050,false,false,880,image-keyboard-response,27
true,7,1,1,1,true,z,false,true,0.0-2.0-0.29-0.268-3.268,0,0,0,90,false,stim,false,0,589.2000000029802,1,0,2,70522,task1,2504144,false,false,883,image-keyboard-response,28
true,7,0,1,0,true,q,false,true,0.0-2.0-0.29-0.269-3.269,0,0,0,81,false,stim,false,2,505.5,1,0,0,70522,task1,2506165,false,false,886,image-keyboard-response,29
true,7,0,1,0,true,q,false,true,0.0-2.0-0.30-0.270-3.270,0,0,0,81,false,stim,false,2,506.0,1,0,0,70522,task1,2508180,false,false,889,image-keyboard-response,30
true,7,1,1,1,true,z,false,true,0.0-2.0-0.30-0.271-3.271,0,0,0,90,false,stim,false,0,731.3000000044703,1,0,2,70522,task1,2510422,false,false,892,image-keyboard-response,31
true,7,0,1,0,true,q,false,true,0.0-2.0-0.30-0.272-3.272,0,0,0,81,false,stim,false,1,708.2000000029802,1,0,1,70522,task1,2512643,false,false,895,image-keyboard-response,32
true,7,1,1,1,true,z,false,false,0.0-2.0-0.30-0.273-3.273,0,0,0,90,false,stim,false,0,688.1000000014901,1,0,2,70522,task1,2514846,false,true,898,image-keyboard-response,33
true,7,0,1,0,true,q,false,true,0.0-2.0-0.30-0.274-3.274,0,0,0,81,false,stim,false,1,938.7000000029802,1,0,1,70522,task1,2517295,false,false,901,image-keyboard-response,34
true,7,0,1,0,true,q,false,true,0.0-2.0-0.30-0.275-3.275,0,0,0,81,false,stim,false,1,587.0,1,0,1,70522,task1,2519394,false,false,904,image-keyboard-response,35
true,7,1,1,1,true,z,false,true,0.0-2.0-0.30-0.276-3.276,0,0,0,90,false,stim,false,0,1573.1999999955297,1,0,2,70522,task1,2522477,false,false,907,image-keyboard-response,36
true,7,0,1,0,true,q,false,true,0.0-2.0-0.30-0.277-3.277,0,0,0,81,false,stim,false,2,640.5,1,0,0,70522,task1,2524629,false,false,910,image-keyboard-response,37
true,7,0,1,0,true,q,false,false,0.0-2.0-0.30-0.278-3.278,0,0,0,81,false,stim,false,2,531.1000000014901,1,0,0,70522,task1,2526671,false,true,913,image-keyboard-response,38
true,7,1,1,1,true,z,false,true,0.0-2.0-0.31-0.279-3.279,0,0,0,90,false,stim,false,0,711.6999999955297,1,0,2,70522,task1,2528893,false,false,916,image-keyboard-response,39
true,7,0,1,0,true,q,false,true,0.0-2.0-0.31-0.280-3.280,0,0,0,81,false,stim,false,1,1080.5,1,0,1,70522,task1,2531486,false,false,919,image-keyboard-response,40
true,7,0,1,0,true,q,false,true,0.0-2.0-0.31-0.281-3.281,0,0,0,81,false,stim,false,2,694.2000000029802,1,0,0,70522,task1,2533690,false,false,922,image-keyboard-response,41
true,7,0,1,0,true,q,false,true,0.0-2.0-0.31-0.282-3.282,0,0,0,81,false,stim,false,1,1175.6999999955297,1,0,1,70522,task1,2536376,false,false,925,image-keyboard-response,42
true,8,1,1,2,false,d,false,false,0.0-2.0-0.31-0.283-3.283,0,0,0,90,true,stim,true,1,583.5,1,0,2,70522,task1,2538469,false,false,928,image-keyboard-response,1
true,8,0,1,2,false,d,false,false,0.0-2.0-0.31-0.284-3.284,0,0,0,81,false,stim,true,0,510.3999999985099,1,0,0,70522,task1,2540491,false,false,931,image-keyboard-response,2
true,8,0,1,2,false,d,false,false,0.0-2.0-0.31-0.285-3.285,0,0,0,81,false,stim,true,0,934.8999999985099,1,0,0,70522,task1,2542937,false,false,934,image-keyboard-response,3
true,8,1,1,1,true,z,false,false,0.0-2.0-0.31-0.286-3.286,0,0,0,90,false,stim,false,0,625.6000000014901,1,0,1,70522,task1,2545071,false,true,937,image-keyboard-response,4
true,8,1,1,2,false,d,false,false,0.0-2.0-0.31-0.287-3.287,0,0,0,90,false,stim,true,1,524.3999999985099,1,0,2,70522,task1,2547111,false,false,940,image-keyboard-response,5
true,8,2,1,2,true,d,false,true,0.0-2.0-0.32-0.288-3.288,0,0,0,68,false,stim,false,0,697.6000000014901,1,0,0,70522,task1,2549323,false,false,943,image-keyboard-response,6
true,8,0,1,2,false,d,true,false,0.0-2.0-0.32-0.289-3.289,0,0,0,81,false,stim,false,1,1071.5,1,0,2,70522,task1,2551907,false,false,946,image-keyboard-response,7
true,8,2,1,2,true,d,false,true,0.0-2.0-0.32-0.290-3.290,0,0,0,68,false,stim,false,0,716.7000000029802,1,0,0,70522,task1,2554138,false,false,949,image-keyboard-response,8
true,8,2,1,2,true,d,false,true,0.0-2.0-0.32-0.291-3.291,0,0,0,68,false,stim,false,1,422.29999999701977,1,0,2,70522,task1,2556071,false,false,952,image-keyboard-response,9
true,8,2,1,2,true,d,false,true,0.0-2.0-0.32-0.292-3.292,0,0,0,68,false,stim,false,1,661.7999999970198,1,0,2,70522,task1,2558238,false,false,955,image-keyboard-response,10
true,8,1,1,1,true,z,false,true,0.0-2.0-0.32-0.293-3.293,0,0,0,90,false,stim,false,0,926.3999999985099,1,0,1,70522,task1,2560676,false,false,958,image-keyboard-response,11
true,8,1,1,1,true,z,false,true,0.0-2.0-0.32-0.294-3.294,0,0,0,90,false,stim,false,0,421.1000000014901,1,0,1,70522,task1,2562612,false,false,961,image-keyboard-response,12
true,8,1,1,1,true,z,false,true,0.0-2.0-0.32-0.295-3.295,0,0,0,90,false,stim,false,0,473.79999999701977,1,0,1,70522,task1,2564597,false,false,964,image-keyboard-response,13
true,8,2,1,2,true,d,false,true,0.0-2.0-0.32-0.296-3.296,0,0,0,68,false,stim,false,0,457.8999999985099,1,0,0,70522,task1,2566565,false,false,967,image-keyboard-response,14
true,8,2,1,2,true,d,false,false,0.0-2.0-0.33-0.297-3.297,0,0,0,68,false,stim,false,1,601.6000000014901,1,0,2,70522,task1,2568682,false,true,970,image-keyboard-response,15
true,8,2,1,2,true,d,false,true,0.0-2.0-0.33-0.298-3.298,0,0,0,68,false,stim,false,0,790.0,1,0,0,70522,task1,2570987,false,false,973,image-keyboard-response,16
true,8,2,1,2,true,d,false,true,0.0-2.0-0.33-0.299-3.299,0,0,0,68,false,stim,false,1,446.1000000014901,1,0,2,70522,task1,2572945,false,false,976,image-keyboard-response,17
true,8,1,1,1,true,z,false,true,0.0-2.0-0.33-0.300-3.300,0,0,0,90,false,stim,false,0,512.2000000029802,1,0,1,70522,task1,2574969,false,false,979,image-keyboard-response,18
true,8,2,1,2,true,d,false,true,0.0-2.0-0.33-0.301-3.301,0,0,0,68,false,stim,false,0,702.3999999985099,1,0,0,70522,task1,2577184,false,false,982,image-keyboard-response,19
true,8,2,1,2,true,d,false,false,0.0-2.0-0.33-0.302-3.302,0,0,0,68,false,stim,false,0,807.1000000014901,1,0,0,70522,task1,2579505,false,true,985,image-keyboard-response,20
true,8,1,1,1,true,z,false,true,0.0-2.0-0.33-0.303-3.303,0,0,0,90,false,stim,false,0,767.8000000044703,1,0,1,70522,task1,2581788,false,false,988,image-keyboard-response,21
true,8,1,1,1,true,z,false,true,0.0-2.0-0.33-0.304-3.304,0,0,0,90,false,stim,false,0,768.0,1,0,1,70522,task1,2584065,false,false,991,image-keyboard-response,22
true,8,2,1,2,true,d,false,true,0.0-2.0-0.33-0.305-3.305,0,0,0,68,false,stim,false,1,661.3999999985099,1,0,2,70522,task1,2586236,false,false,994,image-keyboard-response,23
true,8,2,1,2,true,d,false,true,0.0-2.0-0.34-0.306-3.306,0,0,0,68,false,stim,false,1,564.1000000014901,1,0,2,70522,task1,2588315,false,false,997,image-keyboard-response,24
true,8,1,1,2,false,d,true,false,0.0-2.0-0.34-0.307-3.307,0,0,0,90,false,stim,false,0,586.6000000014901,1,0,0,70522,task1,2590411,false,false,1000,image-keyboard-response,25
true,8,2,1,2,true,d,false,true,0.0-2.0-0.34-0.308-3.308,0,0,0,68,false,stim,false,0,558.2999999970198,1,0,0,70522,task1,2592486,false,false,1003,image-keyboard-response,26
true,8,2,1,2,true,d,false,true,0.0-2.0-0.34-0.309-3.309,0,0,0,68,false,stim,false,1,1123.6999999955297,1,0,2,70522,task1,2595127,false,false,1006,image-keyboard-response,27
true,8,1,1,1,true,z,false,true,0.0-2.0-0.34-0.310-3.310,0,0,0,90,false,stim,false,0,600.2999999970198,1,0,1,70522,task1,2597242,false,false,1009,image-keyboard-response,28
true,8,1,1,1,true,z,false,true,0.0-2.0-0.34-0.311-3.311,0,0,0,90,false,stim,false,0,591.1000000014901,1,0,1,70522,task1,2599346,false,false,1012,image-keyboard-response,29
true,8,2,1,2,true,d,false,true,0.0-2.0-0.34-0.312-3.312,0,0,0,68,false,stim,false,0,1016.5,1,0,0,70522,task1,2601878,false,false,1015,image-keyboard-response,30
true,8,1,1,1,true,z,false,true,0.0-2.0-0.34-0.313-3.313,0,0,0,90,false,stim,false,0,880.2000000029802,1,0,1,70522,task1,2604276,false,false,1018,image-keyboard-response,31
true,8,2,1,2,true,d,false,true,0.0-2.0-0.34-0.314-3.314,0,0,0,68,false,stim,false,1,984.8000000044703,1,0,2,70522,task1,2606779,false,false,1021,image-keyboard-response,32
true,8,2,1,2,true,d,false,true,0.0-2.0-0.35-0.315-3.315,0,0,0,68,false,stim,false,1,991.7999999970198,1,0,2,70522,task1,2609287,false,false,1024,image-keyboard-response,33
true,8,1,1,1,true,z,false,true,0.0-2.0-0.35-0.316-3.316,0,0,0,90,false,stim,false,0,679.9000000059605,1,0,1,70522,task1,2611481,false,false,1027,image-keyboard-response,34
true,8,2,1,2,true,d,false,true,0.0-2.0-0.35-0.317-3.317,0,0,0,68,false,stim,false,0,551.0,1,0,0,70522,task1,2613546,false,false,1030,image-keyboard-response,35
true,8,1,1,1,true,z,false,true,0.0-2.0-0.35-0.318-3.318,0,0,0,90,false,stim,false,0,626.2000000029802,1,0,1,70522,task1,2615688,false,false,1033,image-keyboard-response,36
true,8,2,1,2,true,d,false,true,0.0-2.0-0.35-0.319-3.319,0,0,0,68,false,stim,false,0,779.5999999940395,1,0,0,70522,task1,2617980,false,false,1036,image-keyboard-response,37
true,8,2,1,2,true,d,false,true,0.0-2.0-0.35-0.320-3.320,0,0,0,68,false,stim,false,1,732.2000000029802,1,0,2,70522,task1,2620225,false,false,1039,image-keyboard-response,38
true,8,1,1,1,true,z,false,false,0.0-2.0-0.35-0.321-3.321,0,0,0,90,false,stim,false,0,579.1000000014901,1,0,1,70522,task1,2622311,false,true,1042,image-keyboard-response,39
true,8,2,1,2,true,d,false,false,0.0-2.0-0.35-0.322-3.322,0,0,0,68,false,stim,false,0,517.3999999985099,1,0,0,70522,task1,2624341,false,true,1045,image-keyboard-response,40
true,8,2,1,2,true,d,false,true,0.0-2.0-0.35-0.323-3.323,0,0,0,68,false,stim,false,1,743.5,1,0,2,70522,task1,2626598,false,false,1048,image-keyboard-response,41
true,8,2,1,2,true,d,false,true,0.0-2.0-0.36-0.324-3.324,0,0,0,68,false,stim,false,1,526.0,1,0,2,70522,task1,2628640,false,false,1051,image-keyboard-response,42
true,8,1,1,1,true,z,false,true,0.0-2.0-0.36-0.325-3.325,0,0,0,90,false,stim,false,0,590.7999999970198,1,0,1,70522,task1,2630742,false,false,1054,image-keyboard-response,43
true,8,2,1,2,true,d,false,true,0.0-2.0-0.36-0.326-3.326,0,0,0,68,false,stim,false,1,686.5,1,0,2,70522,task1,2632935,false,false,1057,image-keyboard-response,44
true,8,1,1,2,false,d,true,false,0.0-2.0-0.36-0.327-3.327,0,0,0,90,false,stim,false,0,570.0,1,0,0,70522,task1,2635019,false,false,1060,image-keyboard-response,45
true,9,2,1,1,false,z,false,false,0.0-2.0-0.36-0.328-3.328,0,0,0,68,true,stim,true,2,548.6000000014901,1,0,0,70522,task1,2637077,false,false,1063,image-keyboard-response,1
true,9,1,1,2,false,d,false,false,0.0-2.0-0.36-0.329-3.329,0,0,0,90,false,stim,true,1,541.7000000029802,1,0,1,70522,task1,2639125,false,false,1066,image-keyboard-response,2
true,9,1,1,2,false,d,false,false,0.0-2.0-0.36-0.330-3.330,0,0,0,90,false,stim,true,1,426.80000000447035,1,0,1,70522,task1,2641062,false,false,1069,image-keyboard-response,3
true,9,2,1,1,false,z,false,false,0.0-2.0-0.36-0.331-3.331,0,0,0,68,false,stim,true,2,1331.3999999985099,1,0,0,70522,task1,2643907,false,false,1072,image-keyboard-response,4
true,9,2,1,1,false,z,false,false,0.0-2.0-0.36-0.332-3.332,0,0,0,68,false,stim,true,2,975.4000000059605,1,0,2,70522,task1,2646391,false,false,1075,image-keyboard-response,5
true,9,0,1,1,false,z,true,false,0.0-2.0-0.37-0.333-3.333,0,0,0,81,false,stim,false,2,693.8999999985099,1,0,0,70522,task1,2648600,false,false,1078,image-keyboard-response,6
true,9,0,1,2,false,d,true,true,0.0-2.0-0.37-0.334-3.334,0,0,0,81,false,stim,false,1,721.6999999955297,1,0,1,70522,task1,2650838,false,true,1081,image-keyboard-response,7
true,9,1,1,1,true,z,false,true,0.0-2.0-0.37-0.335-3.335,0,0,0,90,false,stim,false,2,414.70000000298023,1,0,0,70522,task1,2652762,false,false,1084,image-keyboard-response,8
true,9,0,1,2,false,d,true,false,0.0-2.0-0.37-0.336-3.336,0,0,0,81,false,stim,false,1,578.8999999985099,1,0,1,70522,task1,2654851,false,false,1087,image-keyboard-response,9
true,9,0,1,1,false,z,true,false,0.0-2.0-0.37-0.337-3.337,0,0,0,81,false,stim,false,2,866.2000000029802,1,0,2,70522,task1,2657231,false,false,1090,image-keyboard-response,10
true,9,1,1,1,true,z,false,true,0.0-2.0-0.37-0.338-3.338,0,0,0,90,false,stim,false,2,691.6999999955297,1,0,0,70522,task1,2659429,false,false,1093,image-keyboard-response,11
true,9,0,1,2,false,d,true,false,0.0-2.0-0.37-0.339-3.339,0,0,0,81,false,stim,false,1,590.6000000014901,1,0,1,70522,task1,2661529,false,false,1096,image-keyboard-response,12
true,9,1,1,1,true,z,false,true,0.0-2.0-0.37-0.340-3.340,0,0,0,90,false,stim,false,2,1579.0,1,0,2,70522,task1,2664623,false,false,1099,image-keyboard-response,13
true,9,1,1,1,true,z,false,true,0.0-2.0-0.37-0.341-3.341,0,0,0,90,false,stim,false,2,564.3000000044703,1,0,2,70522,task1,2666703,false,false,1102,image-keyboard-response,14
true,9,2,1,1,false,z,false,false,0.0-2.0-0.38-0.342-3.342,0,0,0,68,false,stim,true,2,727.1000000014901,1,0,0,70522,task1,2668946,false,false,1105,image-keyboard-response,15
true,9,1,1,1,true,z,false,true,0.0-2.0-0.38-0.343-3.343,0,0,0,90,false,stim,false,2,551.1000000014901,1,0,0,70522,task1,2671012,false,false,1108,image-keyboard-response,16
true,9,1,1,1,true,z,false,false,0.0-2.0-0.38-0.344-3.344,0,0,0,90,false,stim,false,2,740.5,1,0,2,70522,task1,2673260,false,true,1111,image-keyboard-response,17
true,9,1,1,1,true,z,false,true,0.0-2.0-0.38-0.345-3.345,0,0,0,90,false,stim,false,2,899.2999999970198,1,0,0,70522,task1,2675673,false,false,1114,image-keyboard-response,18
true,9,2,1,2,true,d,false,true,0.0-2.0-0.38-0.346-3.346,0,0,0,68,false,stim,false,1,979.7000000029802,1,0,1,70522,task1,2678168,false,false,1117,image-keyboard-response,19
true,9,1,1,1,true,z,false,true,0.0-2.0-0.38-0.347-3.347,0,0,0,90,false,stim,false,2,834.0,1,0,2,70522,task1,2680515,false,false,1120,image-keyboard-response,20
true,9,1,1,1,true,z,false,true,0.0-2.0-0.38-0.348-3.348,0,0,0,90,false,stim,false,2,636.0,1,0,2,70522,task1,2682664,false,false,1123,image-keyboard-response,21
true,9,2,1,2,true,d,false,true,0.0-2.0-0.38-0.349-3.349,0,0,0,68,false,stim,false,1,628.7000000029802,1,0,1,70522,task1,2684807,false,false,1126,image-keyboard-response,22
true,9,2,1,2,true,d,false,true,0.0-2.0-0.38-0.350-3.350,0,0,0,68,false,stim,false,1,761.8999999985099,1,0,1,70522,task1,2687083,false,false,1129,image-keyboard-response,23
true,9,1,1,1,true,z,false,true,0.0-2.0-0.39-0.351-3.351,0,0,0,90,false,stim,false,2,628.2999999970198,1,0,2,70522,task1,2689223,false,false,1132,image-keyboard-response,24
true,9,2,1,2,true,d,false,true,0.0-2.0-0.39-0.352-3.352,0,0,0,68,false,stim,false,1,750.6999999955297,1,0,1,70522,task1,2691489,false,false,1135,image-keyboard-response,25
true,9,1,1,1,true,z,false,true,0.0-2.0-0.39-0.353-3.353,0,0,0,90,false,stim,false,2,623.3999999985099,1,0,0,70522,task1,2693627,false,false,1138,image-keyboard-response,26
true,9,2,1,2,true,d,false,true,0.0-2.0-0.39-0.354-3.354,0,0,0,68,false,stim,false,1,700.8999999985099,1,0,1,70522,task1,2695843,false,false,1141,image-keyboard-response,27
true,9,1,1,1,true,z,false,true,0.0-2.0-0.39-0.355-3.355,0,0,0,90,false,stim,false,2,720.8999999985099,1,0,2,70522,task1,2698079,false,false,1144,image-keyboard-response,28
true,9,1,1,1,true,z,false,true,0.0-2.0-0.39-0.356-3.356,0,0,0,90,false,stim,false,2,1079.5,1,0,0,70522,task1,2700669,false,false,1147,image-keyboard-response,29
true,9,1,1,1,true,z,false,true,0.0-2.0-0.39-0.357-3.357,0,0,0,90,false,stim,false,2,509.6000000014901,1,0,0,70522,task1,2702694,false,false,1150,image-keyboard-response,30
true,9,1,1,1,true,z,false,true,0.0-2.0-0.39-0.358-3.358,0,0,0,90,false,stim,false,2,801.2999999970198,1,0,2,70522,task1,2705007,false,false,1153,image-keyboard-response,31
true,9,2,1,2,true,d,false,true,0.0-2.0-0.39-0.359-3.359,0,0,0,68,false,stim,false,1,1002.5,1,0,1,70522,task1,2707524,false,false,1156,image-keyboard-response,32
true,9,2,1,2,true,d,false,true,0.0-2.0-0.40-0.360-3.360,0,0,0,68,false,stim,false,1,1883.3999999985099,1,0,1,70522,task1,2710921,false,false,1159,image-keyboard-response,33
true,9,1,1,1,true,z,false,true,0.0-2.0-0.40-0.361-3.361,0,0,0,90,false,stim,false,2,769.7999999970198,1,0,2,70522,task1,2713200,false,false,1162,image-keyboard-response,34
true,9,1,1,1,true,z,false,true,0.0-2.0-0.40-0.362-3.362,0,0,0,90,false,stim,false,2,721.4000000059605,1,0,0,70522,task1,2715437,false,false,1165,image-keyboard-response,35
true,9,1,1,1,true,z,false,true,0.0-2.0-0.40-0.363-3.363,0,0,0,90,false,stim,false,2,1016.4000000059605,1,0,2,70522,task1,2717963,false,false,1168,image-keyboard-response,36
true,9,1,1,1,true,z,false,true,0.0-2.0-0.40-0.364-3.364,0,0,0,90,false,stim,false,2,705.7999999970198,1,0,0,70522,task1,2720180,false,false,1171,image-keyboard-response,37
true,9,1,1,1,true,z,false,true,0.0-2.0-0.40-0.365-3.365,0,0,0,90,false,stim,false,2,872.5,1,0,2,70522,task1,2722567,false,false,1174,image-keyboard-response,38
true,9,2,1,2,true,d,false,true,0.0-2.0-0.40-0.366-3.366,0,0,0,68,false,stim,false,1,696.0,1,0,1,70522,task1,2724774,false,false,1177,image-keyboard-response,39
true,9,2,1,2,true,d,false,false,0.0-2.0-0.40-0.367-3.367,0,0,0,68,false,stim,false,1,1004.6999999955297,1,0,1,70522,task1,2727291,false,true,1180,image-keyboard-response,40
true,10,1,2,2,false,d,false,false,0.0-2.0-0.40-0.368-3.368,0,0,0,90,true,stim,true,1,600.3999999985099,1,0,0,70522,task1,2729406,false,false,1183,image-keyboard-response,1
true,10,1,2,0,false,q,false,false,0.0-2.0-0.41-0.369-3.369,0,0,0,90,false,stim,true,1,844.1999999955297,1,0,2,70522,task1,2731757,false,false,1186,image-keyboard-response,2
true,10,1,2,0,false,q,false,false,0.0-2.0-0.41-0.370-3.370,0,0,0,90,false,stim,true,1,478.0,1,0,2,70522,task1,2733751,false,false,1189,image-keyboard-response,3
true,10,0,2,2,false,d,true,false,0.0-2.0-0.41-0.371-3.371,0,0,0,81,false,stim,false,1,940.3999999985099,1,0,0,70522,task1,2736204,false,false,1192,image-keyboard-response,4
true,10,2,2,1,false,z,false,false,0.0-2.0-0.41-0.372-3.372,0,0,0,68,false,stim,true,2,1468.0,1,0,1,70522,task1,2739183,false,false,1195,image-keyboard-response,5
true,10,0,2,0,true,q,false,true,0.0-2.0-0.41-0.373-3.373,0,0,0,81,false,stim,false,1,957.6000000014901,1,0,2,70522,task1,2741656,false,false,1198,image-keyboard-response,6
true,10,2,2,2,true,d,false,true,0.0-2.0-0.41-0.374-3.374,0,0,0,68,false,stim,false,1,677.7000000029802,1,0,0,70522,task1,2743854,false,false,1201,image-keyboard-response,7
true,10,1,2,1,true,z,false,true,0.0-2.0-0.41-0.375-3.375,0,0,0,90,false,stim,false,2,374.1000000014901,1,0,1,70522,task1,2745738,false,false,1204,image-keyboard-response,8
true,10,2,2,2,true,d,false,true,0.0-2.0-0.41-0.376-3.376,0,0,0,68,false,stim,false,1,617.7999999970198,1,0,0,70522,task1,2747866,false,false,1207,image-keyboard-response,9
true,10,1,2,1,true,z,false,true,0.0-2.0-0.41-0.377-3.377,0,0,0,90,false,stim,false,2,674.6000000014901,1,0,1,70522,task1,2750056,false,false,1210,image-keyboard-response,10
true,10,1,2,1,true,z,false,true,0.0-2.0-0.42-0.378-3.378,0,0,0,90,false,stim,false,2,633.9000000059605,1,0,1,70522,task1,2752196,false,false,1213,image-keyboard-response,11
true,10,1,2,1,true,z,false,true,0.0-2.0-0.42-0.379-3.379,0,0,0,90,false,stim,false,2,564.5,1,0,1,70522,task1,2754272,false,false,1216,image-keyboard-response,12
true,10,2,2,2,true,d,false,true,0.0-2.0-0.42-0.380-3.380,0,0,0,68,false,stim,false,1,517.2000000029802,1,0,0,70522,task1,2756299,false,false,1219,image-keyboard-response,13
true,10,2,2,2,true,d,false,true,0.0-2.0-0.42-0.381-3.381,0,0,0,68,false,stim,false,1,651.5999999940395,1,0,0,70522,task1,2758465,false,false,1222,image-keyboard-response,14
true,10,0,2,0,true,q,false,true,0.0-2.0-0.42-0.382-3.382,0,0,0,81,false,stim,false,1,684.0,1,0,2,70522,task1,2760659,false,false,1225,image-keyboard-response,15
true,10,0,2,0,true,q,false,true,0.0-2.0-0.42-0.383-3.383,0,0,0,81,false,stim,false,1,710.3999999985099,1,0,2,70522,task1,2762882,false,false,1228,image-keyboard-response,16
true,10,0,2,0,true,q,false,true,0.0-2.0-0.42-0.384-3.384,0,0,0,81,false,stim,false,1,507.5,1,0,2,70522,task1,2764902,false,false,1231,image-keyboard-response,17
true,10,2,2,2,true,d,false,true,0.0-2.0-0.42-0.385-3.385,0,0,0,68,false,stim,false,1,582.7999999970198,1,0,0,70522,task1,2767000,false,false,1234,image-keyboard-response,18
true,10,1,2,1,true,z,false,true,0.0-2.0-0.42-0.386-3.386,0,0,0,90,false,stim,false,2,777.0,1,0,1,70522,task1,2769291,false,false,1237,image-keyboard-response,19
true,10,0,2,0,true,q,false,true,0.0-2.0-0.43-0.387-3.387,0,0,0,81,false,stim,false,1,758.6999999955297,1,0,2,70522,task1,2771566,false,false,1240,image-keyboard-response,20
true,10,2,2,2,true,d,false,true,0.0-2.0-0.43-0.388-3.388,0,0,0,68,false,stim,false,1,1063.6000000014901,1,0,0,70522,task1,2774144,false,false,1243,image-keyboard-response,21
true,10,2,2,2,true,d,false,true,0.0-2.0-0.43-0.389-3.389,0,0,0,68,false,stim,false,1,534.7000000029802,1,0,0,70522,task1,2776191,false,false,1246,image-keyboard-response,22
true,10,1,2,1,true,z,false,true,0.0-2.0-0.43-0.390-3.390,0,0,0,90,false,stim,false,2,849.2999999970198,1,0,1,70522,task1,2778553,false,false,1249,image-keyboard-response,23
true,10,0,2,0,true,q,false,true,0.0-2.0-0.43-0.391-3.391,0,0,0,81,false,stim,false,1,564.5,1,0,2,70522,task1,2780633,false,false,1252,image-keyboard-response,24
true,10,1,2,1,true,z,false,true,0.0-2.0-0.43-0.392-3.392,0,0,0,90,false,stim,false,2,785.8999999985099,1,0,1,70522,task1,2782934,false,false,1255,image-keyboard-response,25
true,10,0,2,0,true,q,false,true,0.0-2.0-0.43-0.393-3.393,0,0,0,81,false,stim,false,1,609.8999999985099,1,0,2,70522,task1,2785057,false,false,1258,image-keyboard-response,26
true,10,1,2,1,true,z,false,true,0.0-2.0-0.43-0.394-3.394,0,0,0,90,false,stim,false,2,646.0,1,0,1,70522,task1,2787215,false,false,1261,image-keyboard-response,27
true,10,2,2,2,true,d,false,true,0.0-2.0-0.43-0.395-3.395,0,0,0,68,false,stim,false,1,522.5,1,0,0,70522,task1,2789253,false,false,1264,image-keyboard-response,28
true,10,2,2,2,true,d,false,true,0.0-2.0-0.44-0.396-3.396,0,0,0,68,false,stim,false,1,835.0999999940395,1,0,0,70522,task1,2791603,false,false,1267,image-keyboard-response,29
true,10,2,2,2,true,d,false,true,0.0-2.0-0.44-0.397-3.397,0,0,0,68,false,stim,false,1,602.4000000059605,1,0,0,70522,task1,2793715,false,false,1270,image-keyboard-response,30
true,10,1,2,1,true,z,false,false,0.0-2.0-0.44-0.398-3.398,0,0,0,90,false,stim,false,2,492.80000000447035,1,0,1,70522,task1,2795720,false,true,1273,image-keyboard-response,31
true,10,0,2,0,true,q,false,true,0.0-2.0-0.44-0.399-3.399,0,0,0,81,false,stim,false,1,618.1000000014901,1,0,2,70522,task1,2797851,false,false,1276,image-keyboard-response,32
true,10,1,2,1,true,z,false,true,0.0-2.0-0.44-0.400-3.400,0,0,0,90,false,stim,false,2,532.8000000044703,1,0,1,70522,task1,2799894,false,false,1279,image-keyboard-response,33
true,10,0,2,0,true,q,false,true,0.0-2.0-0.44-0.401-3.401,0,0,0,81,false,stim,false,1,715.0,1,0,2,70522,task1,2802123,false,false,1282,image-keyboard-response,34
true,10,1,2,1,true,z,false,true,0.0-2.0-0.44-0.402-3.402,0,0,0,90,false,stim,false,2,706.3000000044703,1,0,1,70522,task1,2804343,false,false,1285,image-keyboard-response,35
true,10,0,2,0,true,q,false,true,0.0-2.0-0.44-0.403-3.403,0,0,0,81,false,stim,false,1,814.8000000044703,1,0,2,70522,task1,2806670,false,false,1288,image-keyboard-response,36
true,10,2,2,2,true,d,false,true,0.0-2.0-0.44-0.404-3.404,0,0,0,68,false,stim,false,1,594.1000000014901,1,0,0,70522,task1,2808779,false,false,1291,image-keyboard-response,37
true,10,0,2,0,true,q,false,false,0.0-2.0-0.45-0.405-3.405,0,0,0,81,false,stim,false,1,817.2000000029802,1,0,2,70522,task1,2811106,false,true,1294,image-keyboard-response,38
true,10,2,2,2,true,d,false,true,0.0-2.0-0.45-0.406-3.406,0,0,0,68,false,stim,false,1,687.7999999970198,1,0,0,70522,task1,2813304,false,false,1297,image-keyboard-response,39
true,10,1,2,1,true,z,false,true,0.0-2.0-0.45-0.407-3.407,0,0,0,90,false,stim,false,2,699.8000000044703,1,0,1,70522,task1,2815520,false,false,1300,image-keyboard-response,40
true,10,1,2,1,true,z,false,true,0.0-2.0-0.45-0.408-3.408,0,0,0,90,false,stim,false,2,582.3999999985099,1,0,1,70522,task1,2817622,false,false,1303,image-keyboard-response,41
true,10,0,2,0,true,q,false,true,0.0-2.0-0.45-0.409-3.409,0,0,0,81,false,stim,false,1,445.1000000014901,1,0,2,70522,task1,2819582,false,false,1306,image-keyboard-response,42
true,10,0,2,0,true,q,false,true,0.0-2.0-0.45-0.410-3.410,0,0,0,81,false,stim,false,1,709.8999999985099,1,0,2,70522,task1,2821807,false,false,1309,image-keyboard-response,43
true,11,2,2,0,false,q,false,false,0.0-2.0-0.45-0.411-3.411,0,0,0,68,true,stim,true,2,766.1000000014901,1,0,0,70522,task1,2824084,false,false,1312,image-keyboard-response,1
true,11,2,2,0,false,q,false,false,0.0-2.0-0.45-0.412-3.412,0,0,0,68,false,stim,true,2,837.6000000014901,1,0,0,70522,task1,2826437,false,false,1315,image-keyboard-response,2
true,11,1,2,2,false,d,false,false,0.0-2.0-0.45-0.413-3.413,0,0,0,90,false,stim,true,1,1077.5,1,0,1,70522,task1,2829024,false,false,1318,image-keyboard-response,3
true,11,2,2,0,false,q,false,false,0.0-2.0-0.46-0.414-3.414,0,0,0,68,false,stim,true,2,1074.7999999970198,1,0,0,70522,task1,2831610,false,false,1321,image-keyboard-response,4
true,11,0,2,2,false,d,false,false,0.0-2.0-0.46-0.415-3.415,0,0,0,81,false,stim,true,0,946.3999999985099,1,0,2,70522,task1,2834068,false,false,1324,image-keyboard-response,5
true,11,1,2,2,false,d,true,false,0.0-2.0-0.46-0.416-3.416,0,0,0,90,false,stim,false,0,446.90000000596046,1,0,2,70522,task1,2836024,false,false,1327,image-keyboard-response,6
true,11,1,2,2,false,d,false,true,0.0-2.0-0.46-0.417-3.417,0,0,0,90,false,stim,true,1,736.2000000029802,1,0,1,70522,task1,2838275,false,true,1330,image-keyboard-response,7
true,11,2,2,0,false,q,false,false,0.0-2.0-0.46-0.418-3.418,0,0,0,68,false,stim,true,2,671.3000000044703,1,0,0,70522,task1,2840462,false,false,1333,image-keyboard-response,8
true,11,2,2,2,true,d,false,true,0.0-2.0-0.46-0.419-3.419,0,0,0,68,false,stim,false,0,697.3999999985099,1,0,2,70522,task1,2842675,false,false,1336,image-keyboard-response,9
true,11,1,2,2,false,d,false,false,0.0-2.0-0.46-0.420-3.420,0,0,0,90,false,stim,true,1,673.5999999940395,1,0,1,70522,task1,2844863,false,false,1339,image-keyboard-response,10
true,11,1,2,2,false,d,false,false,0.0-2.0-0.46-0.421-3.421,0,0,0,90,false,stim,true,1,660.2999999970198,1,0,1,70522,task1,2847035,false,false,1342,image-keyboard-response,11
true,11,1,2,0,false,q,true,true,0.0-2.0-0.46-0.422-3.422,0,0,0,90,false,stim,false,2,731.2000000029802,1,0,0,70522,task1,2849276,false,true,1345,image-keyboard-response,12
true,11,2,2,2,true,d,false,true,0.0-2.0-0.47-0.423-3.423,0,0,0,68,false,stim,false,0,681.7000000029802,1,0,2,70522,task1,2851470,false,false,1348,image-keyboard-response,13
true,11,2,2,2,true,d,false,true,0.0-2.0-0.47-0.424-3.424,0,0,0,68,false,stim,false,0,927.7000000029802,1,0,2,70522,task1,2853909,false,false,1351,image-keyboard-response,14
true,11,0,2,2,false,d,true,false,0.0-2.0-0.47-0.425-3.425,0,0,0,81,false,stim,false,1,592.2999999970198,1,0,1,70522,task1,2856014,false,false,1354,image-keyboard-response,15
true,11,1,2,0,false,q,true,false,0.0-2.0-0.47-0.426-3.426,0,0,0,90,false,stim,false,2,535.3999999985099,1,0,0,70522,task1,2858058,false,false,1357,image-keyboard-response,16
true,11,1,2,0,false,q,true,false,0.0-2.0-0.47-0.427-3.427,0,0,0,90,false,stim,false,2,661.5,1,0,0,70522,task1,2860234,false,false,1360,image-keyboard-response,17
true,11,0,2,2,false,d,true,false,0.0-2.0-0.47-0.428-3.428,0,0,0,81,false,stim,false,1,576.6000000014901,1,0,1,70522,task1,2862323,false,false,1363,image-keyboard-response,18
true,11,2,2,2,true,d,false,true,0.0-2.0-0.47-0.429-3.429,0,0,0,68,false,stim,false,0,785.6999999955297,1,0,2,70522,task1,2864623,false,false,1366,image-keyboard-response,19
true,11,0,2,0,true,q,false,true,0.0-2.0-0.47-0.430-3.430,0,0,0,81,false,stim,false,2,533.6000000014901,1,0,0,70522,task1,2866668,false,false,1369,image-keyboard-response,20
true,11,1,2,2,false,d,false,false,0.0-2.0-0.47-0.431-3.431,0,0,0,90,false,stim,true,1,456.1000000014901,1,0,1,70522,task1,2868633,false,false,1372,image-keyboard-response,21
true,11,2,2,2,true,d,false,true,0.0-2.0-0.48-0.432-3.432,0,0,0,68,false,stim,false,0,598.0,1,0,2,70522,task1,2870742,false,false,1375,image-keyboard-response,22
true,11,0,2,0,true,q,false,true,0.0-2.0-0.48-0.433-3.433,0,0,0,81,false,stim,false,2,539.2999999970198,1,0,0,70522,task1,2872796,false,false,1378,image-keyboard-response,23
true,11,2,2,2,true,d,false,true,0.0-2.0-0.48-0.434-3.434,0,0,0,68,false,stim,false,0,508.69999999552965,1,0,2,70522,task1,2874819,false,false,1381,image-keyboard-response,24
true,11,0,2,0,true,q,false,true,0.0-2.0-0.48-0.435-3.435,0,0,0,81,false,stim,false,2,501.1000000014901,1,0,0,70522,task1,2876835,false,false,1384,image-keyboard-response,25
true,11,0,2,2,false,d,true,false,0.0-2.0-0.48-0.436-3.436,0,0,0,81,false,stim,false,1,720.5,1,0,1,70522,task1,2879071,false,false,1387,image-keyboard-response,26
true,11,2,2,2,true,d,false,true,0.0-2.0-0.48-0.437-3.437,0,0,0,68,false,stim,false,1,597.8999999985099,1,0,1,70522,task1,2881178,false,false,1390,image-keyboard-response,27
true,11,0,2,0,true,q,false,true,0.0-2.0-0.48-0.438-3.438,0,0,0,81,false,stim,false,2,637.6000000014901,1,0,0,70522,task1,2883331,false,false,1393,image-keyboard-response,28
true,11,2,2,2,true,d,false,false,0.0-2.0-0.48-0.439-3.439,0,0,0,68,false,stim,false,1,658.3999999985099,1,0,1,70522,task1,2885502,false,true,1396,image-keyboard-response,29
true,11,2,2,2,true,d,false,false,0.0-2.0-0.48-0.440-3.440,0,0,0,68,false,stim,false,0,567.7000000029802,1,0,2,70522,task1,2887585,false,true,1399,image-keyboard-response,30
true,11,0,2,0,true,q,false,true,0.0-2.0-0.49-0.441-3.441,0,0,0,81,false,stim,false,2,438.20000000298023,1,0,0,70522,task1,2889549,false,false,1402,image-keyboard-response,31
true,11,2,2,2,true,d,false,true,0.0-2.0-0.49-0.442-3.442,0,0,0,68,false,stim,false,1,499.19999999552965,1,0,1,70522,task1,2891563,false,false,1405,image-keyboard-response,32
true,11,2,2,2,true,d,false,true,0.0-2.0-0.49-0.443-3.443,0,0,0,68,false,stim,false,1,611.8999999985099,1,0,1,70522,task1,2893689,false,false,1408,image-keyboard-response,33
true,11,2,2,2,true,d,false,true,0.0-2.0-0.49-0.444-3.444,0,0,0,68,false,stim,false,0,479.5,1,0,2,70522,task1,2895681,false,false,1411,image-keyboard-response,34
true,11,2,2,2,true,d,false,true,0.0-2.0-0.49-0.445-3.445,0,0,0,68,false,stim,false,0,403.79999999701977,1,0,2,70522,task1,2897592,false,false,1414,image-keyboard-response,35
true,11,0,2,0,true,q,false,true,0.0-2.0-0.49-0.446-3.446,0,0,0,81,false,stim,false,2,502.70000000298023,1,0,0,70522,task1,2899605,false,false,1417,image-keyboard-response,36
true,11,2,2,2,true,d,false,false,0.0-2.0-0.49-0.447-3.447,0,0,0,68,false,stim,false,0,717.5,1,0,2,70522,task1,2901837,false,true,1420,image-keyboard-response,37
true,11,2,2,2,true,d,false,true,0.0-2.0-0.49-0.448-3.448,0,0,0,68,false,stim,false,1,835.6000000014901,1,0,1,70522,task1,2904184,false,false,1423,image-keyboard-response,38
true,11,0,2,0,true,q,false,true,0.0-2.0-0.49-0.449-3.449,0,0,0,81,false,stim,false,2,561.8999999985099,1,0,0,70522,task1,2906259,false,false,1426,image-keyboard-response,39
true,12,2,2,0,false,q,false,false,0.0-2.0-0.50-0.450-3.450,0,0,0,68,true,stim,true,2,564.3000000044703,1,0,2,70522,task1,2908334,false,false,1429,image-keyboard-response,1
true,12,2,2,1,false,z,false,false,0.0-2.0-0.50-0.451-3.451,0,0,0,68,false,stim,true,2,760.7000000029802,1,0,1,70522,task1,2910608,false,false,1432,image-keyboard-response,2
true,12,0,2,2,false,d,false,false,0.0-2.0-0.50-0.452-3.452,0,0,0,81,false,stim,true,0,530.0,1,0,0,70522,task1,2912649,false,false,1435,image-keyboard-response,3
true,12,2,2,0,false,q,false,false,0.0-2.0-0.50-0.453-3.453,0,0,0,68,false,stim,true,2,718.5,1,0,2,70522,task1,2914879,false,false,1438,image-keyboard-response,4
true,12,1,2,1,true,z,false,true,0.0-2.0-0.50-0.454-3.454,0,0,0,90,false,stim,false,2,701.4000000059605,1,0,1,70522,task1,2917089,false,false,1441,image-keyboard-response,5
true,12,1,2,0,false,q,true,false,0.0-2.0-0.50-0.455-3.455,0,0,0,90,false,stim,false,2,1190.2999999970198,1,0,2,70522,task1,2919793,false,false,1444,image-keyboard-response,6
true,12,0,2,2,false,d,false,false,0.0-2.0-0.50-0.456-3.456,0,0,0,81,false,stim,true,0,454.0,1,0,0,70522,task1,2921759,false,false,1447,image-keyboard-response,7
true,12,2,2,2,true,d,false,true,0.0-2.0-0.50-0.457-3.457,0,0,0,68,false,stim,false,0,801.7000000029802,1,0,0,70522,task1,2924071,false,false,1450,image-keyboard-response,8
true,12,1,2,1,true,z,false,true,0.0-2.0-0.50-0.458-3.458,0,0,0,90,false,stim,false,2,823.1000000014901,1,0,1,70522,task1,2926404,false,false,1453,image-keyboard-response,9
true,12,2,2,2,true,d,false,true,0.0-2.0-0.51-0.459-3.459,0,0,0,68,false,stim,false,0,445.79999999701977,1,0,0,70522,task1,2928365,false,false,1456,image-keyboard-response,10
true,12,1,2,1,true,z,false,true,0.0-2.0-0.51-0.460-3.460,0,0,0,90,false,stim,false,2,547.5,1,0,1,70522,task1,2930423,false,false,1459,image-keyboard-response,11
true,12,2,2,2,true,d,false,true,0.0-2.0-0.51-0.461-3.461,0,0,0,68,false,stim,false,0,719.0,1,0,0,70522,task1,2932656,false,false,1462,image-keyboard-response,12
true,12,1,2,0,false,q,true,false,0.0-2.0-0.51-0.462-3.462,0,0,0,90,false,stim,false,2,1490.8999999985099,1,0,2,70522,task1,2935661,false,false,1465,image-keyboard-response,13
true,12,1,2,1,true,z,false,true,0.0-2.0-0.51-0.463-3.463,0,0,0,90,false,stim,false,2,595.5,1,0,1,70522,task1,2937772,false,false,1468,image-keyboard-response,14
true,12,2,2,0,false,q,false,false,0.0-2.0-0.51-0.464-3.464,0,0,0,68,false,stim,true,2,858.8999999985099,1,0,2,70522,task1,2940147,false,false,1471,image-keyboard-response,15
true,12,1,2,1,true,z,false,true,0.0-2.0-0.51-0.465-3.465,0,0,0,90,false,stim,false,2,715.6999999955297,1,0,1,70522,task1,2942372,false,false,1474,image-keyboard-response,16
true,12,0,2,0,true,q,false,true,0.0-2.0-0.51-0.466-3.466,0,0,0,81,false,stim,false,2,436.8999999985099,1,0,2,70522,task1,2944320,false,false,1477,image-keyboard-response,17
true,12,2,2,2,true,d,false,true,0.0-2.0-0.51-0.467-3.467,0,0,0,68,false,stim,false,0,604.6999999955297,1,0,0,70522,task1,2946440,false,false,1480,image-keyboard-response,18
true,12,0,2,0,true,q,false,true,0.0-2.0-0.52-0.468-3.468,0,0,0,81,false,stim,false,2,883.0,1,0,2,70522,task1,2948834,false,false,1483,image-keyboard-response,19
true,12,2,2,2,true,d,false,true,0.0-2.0-0.52-0.469-3.469,0,0,0,68,false,stim,false,0,641.5,1,0,0,70522,task1,2950985,false,false,1486,image-keyboard-response,20
true,12,0,2,0,true,q,false,true,0.0-2.0-0.52-0.470-3.470,0,0,0,81,false,stim,false,2,576.8000000044703,1,0,2,70522,task1,2953075,false,false,1489,image-keyboard-response,21
true,12,1,2,1,true,z,false,true,0.0-2.0-0.52-0.471-3.471,0,0,0,90,false,stim,false,2,688.6000000014901,1,0,1,70522,task1,2955275,false,false,1492,image-keyboard-response,22
true,12,2,2,2,true,d,false,true,0.0-2.0-0.52-0.472-3.472,0,0,0,68,false,stim,false,0,494.80000000447035,1,0,0,70522,task1,2957282,false,false,1495,image-keyboard-response,23
true,12,2,2,2,true,d,false,true,0.0-2.0-0.52-0.473-3.473,0,0,0,68,false,stim,false,0,643.0,1,0,0,70522,task1,2959438,false,false,1498,image-keyboard-response,24
true,12,1,2,1,true,z,false,true,0.0-2.0-0.52-0.474-3.474,0,0,0,90,false,stim,false,2,534.5999999940395,1,0,1,70522,task1,2961492,false,false,1501,image-keyboard-response,25
true,12,1,2,1,true,z,false,false,0.0-2.0-0.52-0.475-3.475,0,0,0,90,false,stim,false,2,694.2999999970198,1,0,1,70522,task1,2963698,false,true,1504,image-keyboard-response,26
true,12,0,2,0,true,q,false,true,0.0-2.0-0.52-0.476-3.476,0,0,0,81,false,stim,false,2,535.0,1,0,2,70522,task1,2965740,false,false,1507,image-keyboard-response,27
true,12,1,2,1,true,z,false,true,0.0-2.0-0.53-0.477-3.477,0,0,0,90,false,stim,false,2,514.8999999985099,1,0,1,70522,task1,2967766,false,false,1510,image-keyboard-response,28
true,12,1,2,1,true,z,false,true,0.0-2.0-0.53-0.478-3.478,0,0,0,90,false,stim,false,2,554.6000000014901,1,0,1,70522,task1,2969837,false,false,1513,image-keyboard-response,29
true,12,2,2,2,true,d,false,true,0.0-2.0-0.53-0.479-3.479,0,0,0,68,false,stim,false,0,793.2000000029802,1,0,0,70522,task1,2972139,false,false,1516,image-keyboard-response,30
true,12,0,2,0,true,q,false,true,0.0-2.0-0.53-0.480-3.480,0,0,0,81,false,stim,false,2,508.8999999985099,1,0,2,70522,task1,2974162,false,false,1519,image-keyboard-response,31
true,12,0,2,0,true,q,false,true,0.0-2.0-0.53-0.481-3.481,0,0,0,81,false,stim,false,2,983.6999999955297,1,0,2,70522,task1,2976658,false,false,1522,image-keyboard-response,32
true,12,2,2,2,true,d,false,true,0.0-2.0-0.53-0.482-3.482,0,0,0,68,false,stim,false,0,709.5,1,0,0,70522,task1,2978882,false,false,1525,image-keyboard-response,33
true,12,1,2,1,true,z,false,true,0.0-2.0-0.53-0.483-3.483,0,0,0,90,false,stim,false,2,503.29999999701977,1,0,1,70522,task1,2980896,false,false,1528,image-keyboard-response,34
true,12,0,2,0,true,q,false,true,0.0-2.0-0.53-0.484-3.484,0,0,0,81,false,stim,false,2,766.2000000029802,1,0,2,70522,task1,2983173,false,false,1531,image-keyboard-response,35
true,12,2,2,2,true,d,false,true,0.0-2.0-0.53-0.485-3.485,0,0,0,68,false,stim,false,0,580.3999999985099,1,0,0,70522,task1,2985269,false,false,1534,image-keyboard-response,36
true,12,2,2,2,true,d,false,true,0.0-2.0-0.54-0.486-3.486,0,0,0,68,false,stim,false,0,701.2999999970198,1,0,0,70522,task1,2987486,false,false,1537,image-keyboard-response,37
true,12,0,2,0,true,q,false,true,0.0-2.0-0.54-0.487-3.487,0,0,0,81,false,stim,false,2,775.3999999985099,1,0,2,70522,task1,2989772,false,false,1540,image-keyboard-response,38
true,12,1,2,1,true,z,false,true,0.0-2.0-0.54-0.488-3.488,0,0,0,90,false,stim,false,2,600.1999999955297,1,0,1,70522,task1,2991883,false,false,1543,image-keyboard-response,39
true,12,2,2,2,true,d,false,true,0.0-2.0-0.54-0.489-3.489,0,0,0,68,false,stim,false,0,443.6000000014901,1,0,0,70522,task1,2993836,false,false,1546,image-keyboard-response,40
true,12,1,2,1,true,z,false,true,0.0-2.0-0.54-0.490-3.490,0,0,0,90,false,stim,false,2,614.2000000029802,1,0,1,70522,task1,2995959,false,false,1549,image-keyboard-response,41
true,12,2,2,2,true,d,false,true,0.0-2.0-0.54-0.491-3.491,0,0,0,68,false,stim,false,0,605.7999999970198,1,0,0,70522,task1,2998076,false,false,1552,image-keyboard-response,42
true,13,0,2,2,false,d,false,false,0.0-2.0-0.54-0.492-3.492,0,0,0,81,true,stim,true,0,667.6999999955297,1,0,2,70522,task1,3000258,false,false,1555,image-keyboard-response,1
true,13,0,2,2,false,d,false,false,0.0-2.0-0.54-0.493-3.493,0,0,0,81,false,stim,true,0,568.0,1,0,2,70522,task1,3002335,false,false,1558,image-keyboard-response,2
true,13,1,2,2,false,d,false,false,0.0-2.0-0.54-0.494-3.494,0,0,0,90,false,stim,true,1,503.6000000014901,1,0,1,70522,task1,3004353,false,false,1561,image-keyboard-response,3
true,13,0,2,2,false,d,true,false,0.0-2.0-0.55-0.495-3.495,0,0,0,81,false,stim,false,1,868.8000000044703,1,0,1,70522,task1,3006737,false,false,1564,image-keyboard-response,4
true,13,2,2,0,false,q,false,false,0.0-2.0-0.55-0.496-3.496,0,0,0,68,false,stim,true,2,820.0,1,0,0,70522,task1,3009068,false,false,1567,image-keyboard-response,5
true,13,1,2,2,false,d,true,false,0.0-2.0-0.55-0.497-3.497,0,0,0,90,false,stim,false,0,783.2000000029802,1,0,2,70522,task1,3011367,false,false,1570,image-keyboard-response,6
true,13,1,2,0,false,q,true,false,0.0-2.0-0.55-0.498-3.498,0,0,0,90,false,stim,false,2,798.5,1,0,0,70522,task1,3013680,false,false,1573,image-keyboard-response,7
true,13,2,2,2,true,d,false,true,0.0-2.0-0.55-0.499-3.499,0,0,0,68,false,stim,false,0,523.5999999940395,1,0,2,70522,task1,3015715,false,false,1576,image-keyboard-response,8
true,13,0,2,2,false,d,true,false,0.0-2.0-0.55-0.500-3.500,0,0,0,81,false,stim,false,1,1014.5,1,0,1,70522,task1,3018245,false,false,1579,image-keyboard-response,9
true,13,2,2,2,true,d,false,true,0.0-2.0-0.55-0.501-3.501,0,0,0,68,false,stim,false,0,629.5999999940395,1,0,2,70522,task1,3020389,false,false,1582,image-keyboard-response,10
true,13,0,2,0,true,q,false,false,0.0-2.0-0.55-0.502-3.502,0,0,0,81,false,stim,false,2,407.5,1,0,0,70522,task1,3022312,false,true,1585,image-keyboard-response,11
true,13,0,2,2,false,d,true,false,0.0-2.0-0.55-0.503-3.503,0,0,0,81,false,stim,false,1,1055.7999999970198,1,0,1,70522,task1,3024884,false,false,1588,image-keyboard-response,12
true,13,2,2,2,true,d,false,true,0.0-2.0-0.56-0.504-3.504,0,0,0,68,false,stim,false,0,700.8999999985099,1,0,2,70522,task1,3027095,false,false,1591,image-keyboard-response,13
true,13,2,2,2,true,d,false,true,0.0-2.0-0.56-0.505-3.505,0,0,0,68,false,stim,false,0,464.3999999985099,1,0,2,70522,task1,3029074,false,false,1594,image-keyboard-response,14
true,13,2,2,2,true,d,false,true,0.0-2.0-0.56-0.506-3.506,0,0,0,68,false,stim,false,1,495.1000000014901,1,0,1,70522,task1,3031076,false,false,1597,image-keyboard-response,15
true,13,2,2,2,true,d,false,true,0.0-2.0-0.56-0.507-3.507,0,0,0,68,false,stim,false,1,700.5,1,0,1,70522,task1,3033288,false,false,1600,image-keyboard-response,16
true,13,2,2,2,true,d,false,true,0.0-2.0-0.56-0.508-3.508,0,0,0,68,false,stim,false,0,570.5999999940395,1,0,2,70522,task1,3035381,false,false,1603,image-keyboard-response,17
true,13,1,2,0,false,q,true,false,0.0-2.0-0.56-0.509-3.509,0,0,0,90,false,stim,false,2,563.5,1,0,0,70522,task1,3037460,false,false,1606,image-keyboard-response,18
true,13,0,2,0,true,q,false,true,0.0-2.0-0.56-0.510-3.510,0,0,0,81,false,stim,false,2,981.2000000029802,1,0,0,70522,task1,3039952,false,false,1609,image-keyboard-response,19
true,13,2,2,2,true,d,false,true,0.0-2.0-0.56-0.511-3.511,0,0,0,68,false,stim,false,1,770.0,1,0,1,70522,task1,3042231,false,false,1612,image-keyboard-response,20
true,13,0,2,0,true,q,false,true,0.0-2.0-0.56-0.512-3.512,0,0,0,81,false,stim,false,2,521.2999999970198,1,0,0,70522,task1,3044267,false,false,1615,image-keyboard-response,21
true,13,2,2,2,true,d,false,false,0.0-2.0-0.57-0.513-3.513,0,0,0,68,false,stim,false,0,665.3999999985099,1,0,2,70522,task1,3046444,false,true,1618,image-keyboard-response,22
true,13,0,2,0,true,q,false,true,0.0-2.0-0.57-0.514-3.514,0,0,0,81,false,stim,false,2,982.1000000014901,1,0,0,70522,task1,3048937,false,false,1621,image-keyboard-response,23
true,13,2,2,2,true,d,false,true,0.0-2.0-0.57-0.515-3.515,0,0,0,68,false,stim,false,0,689.0,1,0,2,70522,task1,3051132,false,false,1624,image-keyboard-response,24
true,13,0,2,0,true,q,false,true,0.0-2.0-0.57-0.516-3.516,0,0,0,81,false,stim,false,2,474.5,1,0,0,70522,task1,3053120,false,false,1627,image-keyboard-response,25
true,13,0,2,0,true,q,false,true,0.0-2.0-0.57-0.517-3.517,0,0,0,81,false,stim,false,2,502.5,1,0,0,70522,task1,3055137,false,false,1630,image-keyboard-response,26
true,13,2,2,2,true,d,false,true,0.0-2.0-0.57-0.518-3.518,0,0,0,68,false,stim,false,0,887.3000000044703,1,0,2,70522,task1,3057541,false,false,1633,image-keyboard-response,27
true,13,2,2,2,true,d,false,true,0.0-2.0-0.57-0.519-3.519,0,0,0,68,false,stim,false,1,900.2999999970198,1,0,1,70522,task1,3059952,false,false,1636,image-keyboard-response,28
true,13,2,2,2,true,d,false,true,0.0-2.0-0.57-0.520-3.520,0,0,0,68,false,stim,false,1,697.5999999940395,1,0,1,70522,task1,3062161,false,false,1639,image-keyboard-response,29
true,13,2,2,2,true,d,false,true,0.0-2.0-0.57-0.521-3.521,0,0,0,68,false,stim,false,1,1028.0,1,0,1,70522,task1,3064704,false,false,1642,image-keyboard-response,30
true,13,2,2,2,true,d,false,true,0.0-2.0-0.58-0.522-3.522,0,0,0,68,false,stim,false,1,544.7000000029802,1,0,1,70522,task1,3066764,false,false,1645,image-keyboard-response,31
true,13,0,2,2,false,d,false,false,0.0-2.0-0.58-0.523-3.523,0,0,0,81,false,stim,true,0,757.7000000029802,1,0,2,70522,task1,3069033,false,false,1648,image-keyboard-response,32
true,13,2,2,2,true,d,false,true,0.0-2.0-0.58-0.524-3.524,0,0,0,68,false,stim,false,1,1087.7000000029802,1,0,1,70522,task1,3071634,false,false,1651,image-keyboard-response,33
true,13,0,2,0,true,q,false,false,0.0-2.0-0.58-0.525-3.525,0,0,0,81,false,stim,false,2,597.7000000029802,1,0,0,70522,task1,3073748,false,true,1654,image-keyboard-response,34
true,13,2,2,2,true,d,false,false,0.0-2.0-0.58-0.526-3.526,0,0,0,68,false,stim,false,0,634.2000000029802,1,0,2,70522,task1,3075893,false,true,1657,image-keyboard-response,35
true,13,0,2,0,true,q,false,true,0.0-2.0-0.58-0.527-3.527,0,0,0,81,false,stim,false,2,694.2000000029802,1,0,0,70522,task1,3078103,false,false,1660,image-keyboard-response,36
true,13,2,2,2,true,d,false,true,0.0-2.0-0.58-0.528-3.528,0,0,0,68,false,stim,false,0,869.5999999940395,1,0,2,70522,task1,3080487,false,false,1663,image-keyboard-response,37
true,13,2,2,2,true,d,false,true,0.0-2.0-0.58-0.529-3.529,0,0,0,68,false,stim,false,1,1164.6999999955297,1,0,1,70522,task1,3083167,false,false,1666,image-keyboard-response,38
true,13,0,2,0,true,q,false,false,0.0-2.0-0.58-0.530-3.530,0,0,0,81,false,stim,false,2,554.6999999955297,1,1,0,70522,task1,3085239,false,true,1669,image-keyboard-response,39
true,13,2,2,2,true,d,false,true,0.0-2.0-0.59-0.531-3.531,0,0,0,68,false,stim,false,0,1168.7999999970198,1,1,2,70522,task1,3087919,false,false,1672,image-keyboard-response,40
true,13,2,2,2,true,d,false,true,0.0-2.0-0.59-0.532-3.532,0,0,0,68,false,stim,false,0,707.5,1,1,2,70522,task1,3090141,false,false,1675,image-keyboard-response,41
true,13,2,2,2,true,d,false,true,0.0-2.0-0.59-0.533-3.533,0,0,0,68,false,stim,false,1,748.0999999940395,1,1,1,70522,task1,3092399,false,false,1678,image-keyboard-response,42
true,13,2,2,2,true,d,false,true,0.0-2.0-0.59-0.534-3.534,0,0,0,68,false,stim,false,1,487.19999999552965,1,1,1,70522,task1,3094397,false,false,1681,image-keyboard-response,43
true,14,2,0,2,true,d,false,true,0.0-2.0-0.59-0.535-3.535,1,1,1,68,true,stim,false,2,2030.1000000014901,1,1,1,70522,task1,3111007,false,false,1697,image-keyboard-response,1
true,14,2,0,2,true,d,false,true,0.0-2.0-0.59-0.536-3.536,1,1,1,68,false,stim,false,2,517.3000000044703,1,1,2,70522,task1,3113040,false,false,1700,image-keyboard-response,2
true,14,0,0,0,true,q,false,true,0.0-2.0-0.59-0.537-3.537,1,1,1,81,false,stim,false,0,366.8999999985099,1,1,0,70522,task1,3114927,false,false,1703,image-keyboard-response,3
true,14,0,0,0,true,q,false,true,0.0-2.0-0.59-0.538-3.538,1,1,1,81,false,stim,false,0,557.0999999940395,1,1,0,70522,task1,3117000,false,false,1706,image-keyboard-response,4
true,14,0,0,0,true,q,false,false,0.0-2.0-0.59-0.539-3.539,1,1,1,81,false,stim,false,0,394.79999999701977,1,1,0,70522,task1,3118910,false,true,1709,image-keyboard-response,5
true,14,2,0,2,true,d,false,true,0.0-2.0-0.60-0.540-3.540,1,1,1,68,false,stim,false,2,712.5,1,1,1,70522,task1,3121138,false,false,1712,image-keyboard-response,6
true,14,0,0,0,true,q,false,false,0.0-2.0-0.60-0.541-3.541,1,1,1,81,false,stim,false,0,875.6999999955297,1,1,0,70522,task1,3123525,false,true,1715,image-keyboard-response,7
true,14,2,0,2,true,d,false,false,0.0-2.0-0.60-0.542-3.542,1,1,1,68,false,stim,false,2,606.1000000014901,1,1,2,70522,task1,3125647,false,true,1718,image-keyboard-response,8
true,14,2,0,2,true,d,false,true,0.0-2.0-0.60-0.543-3.543,1,1,1,68,false,stim,false,2,471.80000000447035,1,0,2,70522,task1,3127635,false,false,1721,image-keyboard-response,9
true,14,0,0,0,true,q,false,true,0.0-2.0-0.60-0.544-3.544,1,1,1,81,false,stim,false,0,425.8999999985099,1,0,0,70522,task1,3129573,false,false,1724,image-keyboard-response,10
true,14,2,0,2,true,d,false,true,0.0-2.0-0.60-0.545-3.545,1,1,1,68,false,stim,false,2,586.0,1,0,1,70522,task1,3131670,false,false,1727,image-keyboard-response,11
true,14,0,0,0,true,q,false,true,0.0-2.0-0.60-0.546-3.546,1,1,1,81,false,stim,false,0,614.0,1,0,0,70522,task1,3133796,false,false,1730,image-keyboard-response,12
true,14,2,0,2,true,d,false,false,0.0-2.0-0.60-0.547-3.547,1,1,1,68,false,stim,false,2,678.0,1,0,1,70522,task1,3135987,false,true,1733,image-keyboard-response,13
true,15,2,1,0,false,q,false,false,0.0-2.0-0.60-0.548-3.548,0,0,0,68,true,stim,true,2,664.1999999955297,1,0,2,70522,task1,3138164,false,false,1736,image-keyboard-response,1
true,15,0,1,2,false,d,false,false,0.0-2.0-0.61-0.549-3.549,0,0,0,81,false,stim,true,0,656.6000000014901,1,0,0,70522,task1,3140337,false,false,1739,image-keyboard-response,2
true,15,1,1,0,false,q,true,false,0.0-2.0-0.61-0.550-3.550,0,0,0,90,false,stim,false,2,724.5,1,0,1,70522,task1,3142573,false,false,1742,image-keyboard-response,3
true,15,1,1,2,false,d,true,false,0.0-2.0-0.61-0.551-3.551,0,0,0,90,false,stim,false,0,609.4000000059605,1,0,0,70522,task1,3144693,false,false,1745,image-keyboard-response,4
true,15,2,1,2,true,d,false,true,0.0-2.0-0.61-0.552-3.552,0,0,0,68,false,stim,false,0,1502.7000000029802,1,0,0,70522,task1,3147708,false,false,1748,image-keyboard-response,5
true,15,1,1,0,false,q,true,false,0.0-2.0-0.61-0.553-3.553,0,0,0,90,false,stim,false,2,1092.7000000029802,1,0,2,70522,task1,3150310,false,false,1751,image-keyboard-response,6
true,15,0,1,0,true,q,false,true,0.0-2.0-0.61-0.554-3.554,0,0,0,81,false,stim,false,2,364.20000000298023,1,0,1,70522,task1,3152190,false,false,1754,image-keyboard-response,7
true,15,0,1,0,true,q,false,true,0.0-2.0-0.61-0.555-3.555,0,0,0,81,false,stim,false,2,649.7999999970198,1,0,1,70522,task1,3154352,false,false,1757,image-keyboard-response,8
true,15,0,1,0,true,q,false,true,0.0-2.0-0.61-0.556-3.556,0,0,0,81,false,stim,false,2,409.5,1,0,2,70522,task1,3156277,false,false,1760,image-keyboard-response,9
true,15,0,1,0,true,q,false,true,0.0-2.0-0.61-0.557-3.557,0,0,0,81,false,stim,false,2,526.5999999940395,1,0,2,70522,task1,3158319,false,false,1763,image-keyboard-response,10
true,15,2,1,2,true,d,false,true,0.0-2.0-0.62-0.558-3.558,0,0,0,68,false,stim,false,0,548.1999999955297,1,0,0,70522,task1,3160379,false,false,1766,image-keyboard-response,11
true,15,2,1,2,true,d,false,true,0.0-2.0-0.62-0.559-3.559,0,0,0,68,false,stim,false,0,747.1999999955297,1,0,0,70522,task1,3162637,false,false,1769,image-keyboard-response,12
true,15,2,1,2,true,d,false,true,0.0-2.0-0.62-0.560-3.560,0,0,0,68,false,stim,false,0,544.5,1,0,0,70522,task1,3164697,false,false,1772,image-keyboard-response,13
true,15,0,1,0,true,q,false,false,0.0-2.0-0.62-0.561-3.561,0,0,0,81,false,stim,false,2,620.6000000014901,1,0,1,70522,task1,3166830,false,true,1775,image-keyboard-response,14
true,15,0,1,0,true,q,false,true,0.0-2.0-0.62-0.562-3.562,0,0,0,81,false,stim,false,2,622.8999999985099,1,0,2,70522,task1,3168967,false,false,1778,image-keyboard-response,15
true,15,0,1,0,true,q,false,true,0.0-2.0-0.62-0.563-3.563,0,0,0,81,false,stim,false,2,601.8999999985099,1,0,2,70522,task1,3171081,false,false,1781,image-keyboard-response,16
true,15,0,1,0,true,q,false,true,0.0-2.0-0.62-0.564-3.564,0,0,0,81,false,stim,false,2,593.8000000044703,1,0,1,70522,task1,3173192,false,false,1784,image-keyboard-response,17
true,15,0,1,0,true,q,false,true,0.0-2.0-0.62-0.565-3.565,0,0,0,81,false,stim,false,2,966.7000000029802,1,0,1,70522,task1,3175675,false,false,1787,image-keyboard-response,18
true,15,0,1,0,true,q,false,true,0.0-2.0-0.62-0.566-3.566,0,0,0,81,false,stim,false,2,635.0,1,0,2,70522,task1,3177826,false,false,1790,image-keyboard-response,19
true,15,2,1,2,true,d,false,true,0.0-2.0-0.63-0.567-3.567,0,0,0,68,false,stim,false,0,450.0,1,0,0,70522,task1,3179790,false,false,1793,image-keyboard-response,20
true,15,0,1,0,true,q,false,false,0.0-2.0-0.63-0.568-3.568,0,0,0,81,false,stim,false,2,688.2000000029802,1,0,2,70522,task1,3181993,false,true,1796,image-keyboard-response,21
true,15,0,1,0,true,q,false,true,0.0-2.0-0.63-0.569-3.569,0,0,0,81,false,stim,false,2,643.7999999970198,1,0,1,70522,task1,3184149,false,false,1799,image-keyboard-response,22
true,15,2,1,2,true,d,false,true,0.0-2.0-0.63-0.570-3.570,0,0,0,68,false,stim,false,0,1390.7999999970198,1,0,0,70522,task1,3187063,false,false,1802,image-keyboard-response,23
true,15,0,1,0,true,q,false,true,0.0-2.0-0.63-0.571-3.571,0,0,0,81,false,stim,false,2,1026.3000000044703,1,0,2,70522,task1,3189605,false,false,1805,image-keyboard-response,24
true,15,0,1,0,true,q,false,true,0.0-2.0-0.63-0.572-3.572,0,0,0,81,false,stim,false,2,638.7000000029802,1,0,2,70522,task1,3191756,false,false,1808,image-keyboard-response,25
true,15,0,1,0,true,q,false,true,0.0-2.0-0.63-0.573-3.573,0,0,0,81,false,stim,false,2,913.0,1,0,1,70522,task1,3194182,false,false,1811,image-keyboard-response,26
true,15,0,1,0,true,q,false,true,0.0-2.0-0.63-0.574-3.574,0,0,0,81,false,stim,false,2,653.3999999985099,1,0,1,70522,task1,3196346,false,false,1814,image-keyboard-response,27
true,15,2,1,2,true,d,false,true,0.0-2.0-0.63-0.575-3.575,0,0,0,68,false,stim,false,0,668.4000000059605,1,0,0,70522,task1,3198526,false,false,1817,image-keyboard-response,28
true,15,0,1,0,true,q,false,true,0.0-2.0-0.64-0.576-3.576,0,0,0,81,false,stim,false,2,743.1000000014901,1,0,1,70522,task1,3200783,false,false,1820,image-keyboard-response,29
true,15,0,1,0,true,q,false,true,0.0-2.0-0.64-0.577-3.577,0,0,0,81,false,stim,false,2,620.1000000014901,1,0,2,70522,task1,3202920,false,false,1823,image-keyboard-response,30
true,15,0,1,0,true,q,false,true,0.0-2.0-0.64-0.578-3.578,0,0,0,81,false,stim,false,2,609.1000000014901,1,0,1,70522,task1,3205041,false,false,1826,image-keyboard-response,31
true,15,2,1,2,true,d,false,true,0.0-2.0-0.64-0.579-3.579,0,0,0,68,false,stim,false,0,510.69999999552965,1,0,0,70522,task1,3207068,false,false,1829,image-keyboard-response,32
true,15,0,1,0,true,q,false,true,0.0-2.0-0.64-0.580-3.580,0,0,0,81,false,stim,false,2,702.2999999970198,1,0,1,70522,task1,3209286,false,false,1832,image-keyboard-response,33
true,15,0,1,0,true,q,false,true,0.0-2.0-0.64-0.581-3.581,0,0,0,81,false,stim,false,2,614.5,1,0,2,70522,task1,3211409,false,false,1835,image-keyboard-response,34
true,15,0,1,0,true,q,false,true,0.0-2.0-0.64-0.582-3.582,0,0,0,81,false,stim,false,2,958.3000000044703,1,0,2,70522,task1,3213877,false,false,1838,image-keyboard-response,35
true,15,2,1,2,true,d,false,true,0.0-2.0-0.64-0.583-3.583,0,0,0,68,false,stim,false,0,567.3000000044703,1,0,0,70522,task1,3215954,false,false,1841,image-keyboard-response,36
true,15,2,1,2,true,d,false,true,0.0-2.0-0.64-0.584-3.584,0,0,0,68,false,stim,false,0,703.3000000044703,1,0,0,70522,task1,3218173,false,false,1844,image-keyboard-response,37
true,15,0,1,0,true,q,false,true,0.0-2.0-0.65-0.585-3.585,0,0,0,81,false,stim,false,2,491.5,1,0,1,70522,task1,3220180,false,false,1847,image-keyboard-response,38
true,15,0,1,0,true,q,false,true,0.0-2.0-0.65-0.586-3.586,0,0,0,81,false,stim,false,2,606.2000000029802,1,0,2,70522,task1,3222303,false,false,1850,image-keyboard-response,39
true,15,0,1,0,true,q,false,true,0.0-2.0-0.65-0.587-3.587,0,0,0,81,false,stim,false,2,504.30000000447035,1,0,1,70522,task1,3224318,false,false,1853,image-keyboard-response,40
true,16,2,2,0,false,q,false,false,0.0-2.0-0.65-0.588-3.588,0,0,0,68,true,stim,true,2,621.6000000014901,1,0,0,70522,task1,3226455,false,false,1856,image-keyboard-response,1
true,16,0,2,2,false,d,false,false,0.0-2.0-0.65-0.589-3.589,0,0,0,81,false,stim,true,0,503.70000000298023,1,0,1,70522,task1,3228467,false,false,1859,image-keyboard-response,2
true,16,2,2,0,false,q,false,false,0.0-2.0-0.65-0.590-3.590,0,0,0,68,false,stim,true,2,861.7000000029802,1,0,0,70522,task1,3230836,false,false,1862,image-keyboard-response,3
