answered,blockNum,choice,condition,corResp,correct,correct_response,explo,fb,internal_node_id,isStable_1,isStable_2,isStable_3,key_press,newBlock,part,persev,persevResp,rt,sessNum,stableAS,stimulus,subject,task,time_elapsed,training,trap,trial_index,trial_type,trialsInBlock
true,1,0,0,0,true,q,false,true,0.0-2.0-0.0-0.0-3.0,0,0,0,81,true,stim,false,-1,994.3000000119209,1,0,0,70522,task1,549893,false,false,79,image-keyboard-response,1
true,1,1,0,2,false,d,true,false,0.0-2.0-0.0-0.1-3.1,0,0,0,90,false,stim,false,-1,900.1999999880791,1,0,1,70522,task1,552306,false,false,82,image-keyboard-response,2
true,1,0,0,0,true,q,false,false,0.0-2.0-0.0-0.2-3.2,0,0,0,81,false,stim,false,-1,526.0,1,0,0,70522,task1,554341,false,true,85,image-keyboard-response,3
true,1,1,0,0,false,q,true,false,0.0-2.0-0.0-0.3-3.3,0,0,0,90,false,stim,false,-1,1018.1999999880791,1,0,0,70522,task1,556868,false,false,88,image-keyboard-response,4
true,1,2,0,2,true,d,false,true,0.0-2.0-0.0-0.4-3.4,0,0,0,68,false,stim,false,-1,1218.8999999761581,1,0,1,70522,task1,559600,false,false,91,image-keyboard-response,5
true,1,1,0,1,true,z,false,true,0.0-2.0-0.0-0.5-3.5,0,0,0,90,false,stim,false,-1,946.3000000119209,1,0,2,70522,task1,562051,false,false,94,image-keyboard-response,6
true,1,1,0,1,true,z,false,false,0.0-2.0-0.0-0.6-3.6,0,0,0,90,false,stim,false,-1,645.0,1,0,2,70522,task1,564208,false,true,97,image-keyboard-response,7
true,1,1,0,1,true,z,false,true,0.0-2.0-0.0-0.7-3.7,0,0,0,90,false,stim,false,-1,698.6000000238419,1,0,2,70522,task1,566419,false,false,100,image-keyboard-response,8
true,1,2,0,2,true,d,false,true,0.0-2.0-0.0-0.8-3.8,0,0,0,68,false,stim,false,-1,600.3999999761581,1,0,1,70522,task1,568529,false,false,103,image-keyboard-response,9
true,1,1,0,1,true,z,false,true,0.0-2.0-0.1-0.9-3.9,0,0,0,90,false,stim,false,-1,730.3999999761581,1,0,2,70522,task1,570773,false,false,106,image-keyboard-response,10
true,1,0,0,0,true,q,false,true,0.0-2.0-0.1-0.10-3.10,0,0,0,81,false,stim,false,-1,474.89999997615814,1,0,0,70522,task1,572757,false,false,109,image-keyboard-response,11
true,1,1,0,1,true,z,false,true,0.0-2.0-0.1-0.11-3.11,0,0,0,90,false,stim,false,-1,542.2000000476837,1,0,2,70522,task1,574806,false,false,112,image-keyboard-response,12
true,1,0,0,0,true,q,false,false,0.0-2.0-0.1-0.12-3.12,0,0,0,81,false,stim,false,-1,593.1000000238419,1,0,0,70522,task1,576911,false,true,115,image-keyboard-response,13
true,1,2,0,2,true,d,false,true,0.0-2.0-0.1-0.13-3.13,0,0,0,68,false,stim,false,-1,667.6000000238419,1,0,1,70522,task1,579092,false,false,118,image-keyboard-response,14
true,1,2,0,2,true,d,false,true,0.0-2.0-0.1-0.14-3.14,0,0,0,68,false,stim,false,-1,935.0999999642372,1,0,1,70522,task1,581540,false,false,121,image-keyboard-response,15
true,1,1,0,1,true,z,false,true,0.0-2.0-0.1-0.15-3.15,0,0,0,90,false,stim,false,-1,685.6999999880791,1,0,2,70522,task1,583739,false,false,124,image-keyboard-response,16
true,1,0,0,0,true,q,false,false,0.0-2.0-0.1-0.16-3.16,0,0,0,81,false,stim,false,-1,532.3000000119209,1,0,0,70522,task1,585780,false,true,127,image-keyboard-response,17
true,1,2,0,2,true,d,false,true,0.0-2.0-0.1-0.17-3.17,0,0,0,68,false,stim,false,-1,718.6999999880791,1,0,1,70522,task1,588012,false,false,130,image-keyboard-response,18
true,1,2,0,2,true,d,false,true,0.0-2.0-0.2-0.18-3.18,0,0,0,68,false,stim,false,-1,556.6999999880791,1,0,1,70522,task1,590078,false,false,133,image-keyboard-response,19
true,1,1,0,1,true,z,false,true,0.0-2.0-0.2-0.19-3.19,0,0,0,90,false,stim,false,-1,608.0,1,0,2,70522,task1,592195,false,false,136,image-keyboard-response,20
true,1,1,0,1,true,z,false,true,0.0-2.0-0.2-0.20-3.20,0,0,0,90,false,stim,false,-1,510.5999999642372,1,0,2,70522,task1,594217,false,false,139,image-keyboard-response,21
true,1,1,0,1,true,z,false,false,0.0-2.0-0.2-0.21-3.21,0,0,0,90,false,stim,false,-1,921.0,1,0,2,70522,task1,596649,false,true,142,image-keyboard-response,22
true,1,2,0,2,true,d,false,true,0.0-2.0-0.2-0.22-3.22,0,0,0,68,false,stim,false,-1,1907.699999988079,1,0,1,70522,task1,600065,false,false,145,image-keyboard-response,23
true,1,2,0,2,true,d,false,true,0.0-2.0-0.2-0.23-3.23,0,0,0,68,false,stim,false,-1,1187.0,1,0,1,70522,task1,602765,false,false,148,image-keyboard-response,24
true,1,0,0,0,true,q,false,false,0.0-2.0-0.2-0.24-3.24,0,0,0,81,false,stim,false,-1,746.5,1,0,0,70522,task1,605018,false,true,151,image-keyboard-response,25
true,1,1,0,0,false,q,true,true,0.0-2.0-0.2-0.25-3.25,0,0,0,90,false,stim,false,-1,830.7999999523163,1,0,0,70522,task1,607357,false,true,154,image-keyboard-response,26
true,2,1,1,1,true,z,false,true,0.0-2.0-0.2-0.26-3.26,0,0,0,90,true,stim,false,0,683.7000000476837,1,0,0,70522,task1,609553,false,false,157,image-keyboard-response,1
true,2,2,1,0,false,q,false,false,0.0-2.0-0.3-0.27-3.27,0,0,0,68,false,stim,true,2,815.4000000357628,1,0,1,70522,task1,611878,false,false,160,image-keyboard-response,2
true,2,1,1,0,false,q,false,false,0.0-2.0-0.3-0.28-3.28,0,0,0,90,false,stim,true,1,1140.5,1,0,2,70522,task1,614528,false,false,163,image-keyboard-response,3
true,2,1,1,0,false,q,false,false,0.0-2.0-0.3-0.29-3.29,0,0,0,90,false,stim,true,1,569.1000000238419,1,0,2,70522,task1,616610,false,false,166,image-keyboard-response,4
true,2,0,1,1,false,z,false,false,0.0-2.0-0.3-0.30-3.30,0,0,0,81,false,stim,true,0,754.3000000119209,1,0,0,70522,task1,618873,false,false,169,image-keyboard-response,5
true,2,2,1,0,false,q,false,false,0.0-2.0-0.3-0.31-3.31,0,0,0,68,false,stim,true,2,798.3999999761581,1,0,1,70522,task1,621183,false,false,172,image-keyboard-response,6
true,2,1,1,1,true,z,false,true,0.0-2.0-0.3-0.32-3.32,0,0,0,90,false,stim,false,0,660.0,1,0,0,70522,task1,623355,false,false,175,image-keyboard-response,7
true,2,0,1,0,true,q,false,true,0.0-2.0-0.3-0.33-3.33,0,0,0,81,false,stim,false,2,970.6999999880791,1,0,1,70522,task1,625833,false,false,178,image-keyboard-response,8
true,2,2,1,0,false,q,true,false,0.0-2.0-0.3-0.34-3.34,0,0,0,68,false,stim,false,1,635.7999999523163,1,0,2,70522,task1,627975,false,false,181,image-keyboard-response,9
true,2,1,1,1,true,z,false,true,0.0-2.0-0.3-0.35-3.35,0,0,0,90,false,stim,false,0,820.1000000238419,1,0,0,70522,task1,630305,false,false,184,image-keyboard-response,10
true,2,1,1,0,false,q,false,false,0.0-2.0-0.4-0.36-3.36,0,0,0,90,false,stim,true,1,649.5999999642372,1,0,2,70522,task1,632468,false,false,187,image-keyboard-response,11
true,2,1,1,1,true,z,false,true,0.0-2.0-0.4-0.37-3.37,0,0,0,90,false,stim,false,0,829.0,1,0,0,70522,task1,634804,false,false,190,image-keyboard-response,12
true,2,1,1,1,true,z,false,true,0.0-2.0-0.4-0.38-3.38,0,0,0,90,false,stim,false,0,1031.699999988079,1,0,0,70522,task1,637347,false,false,193,image-keyboard-response,13
true,2,0,1,0,true,q,false,true,0.0-2.0-0.4-0.39-3.39,0,0,0,81,false,stim,false,2,708.6000000238419,1,0,1,70522,task1,639564,false,false,196,image-keyboard-response,14
true,2,1,1,1,true,z,false,true,0.0-2.0-0.4-0.40-3.40,0,0,0,90,false,stim,false,0,804.5999999642372,1,0,0,70522,task1,641873,false,false,199,image-keyboard-response,15
true,2,0,1,0,true,q,false,true,0.0-2.0-0.4-0.41-3.41,0,0,0,81,false,stim,false,1,483.39999997615814,1,0,2,70522,task1,643872,false,false,202,image-keyboard-response,16
true,2,0,1,0,true,q,false,true,0.0-2.0-0.4-0.42-3.42,0,0,0,81,false,stim,false,1,849.6999999880791,1,0,2,70522,task1,646234,false,false,205,image-keyboard-response,17
true,2,0,1,0,true,q,false,true,0.0-2.0-0.4-0.43-3.43,0,0,0,81,false,stim,false,2,607.6999999880791,1,0,1,70522,task1,648351,false,false,208,image-keyboard-response,18
true,2,0,1,0,true,q,false,true,0.0-2.0-0.4-0.44-3.44,0,0,0,81,false,stim,false,2,577.7000000476837,1,0,1,70522,task1,650441,false,false,211,image-keyboard-response,19
true,2,1,1,1,true,z,false,true,0.0-2.0-0.5-0.45-3.45,0,0,0,90,false,stim,false,0,708.1999999880791,1,0,0,70522,task1,652659,false,false,214,image-keyboard-response,20
true,2,1,1,1,true,z,false,true,0.0-2.0-0.5-0.46-3.46,0,0,0,90,false,stim,false,0,918.5999999642372,1,0,0,70522,task1,655090,false,false,217,image-keyboard-response,21
true,2,0,1,0,true,q,false,true,0.0-2.0-0.5-0.47-3.47,0,0,0,81,false,stim,false,1,1154.4000000357628,1,0,2,70522,task1,657755,false,false,220,image-keyboard-response,22
true,2,0,1,0,true,q,false,true,0.0-2.0-0.5-0.48-3.48,0,0,0,81,false,stim,false,2,737.8000000119209,1,0,1,70522,task1,660003,false,false,223,image-keyboard-response,23
true,2,1,1,1,true,z,false,true,0.0-2.0-0.5-0.49-3.49,0,0,0,90,false,stim,false,0,801.1999999880791,1,0,0,70522,task1,662313,false,false,226,image-keyboard-response,24
true,2,0,1,0,true,q,false,true,0.0-2.0-0.5-0.50-3.50,0,0,0,81,false,stim,false,1,979.3000000119209,1,0,2,70522,task1,664801,false,false,229,image-keyboard-response,25
true,2,0,1,0,true,q,false,true,0.0-2.0-0.5-0.51-3.51,0,0,0,81,false,stim,false,2,691.6999999880791,1,0,1,70522,task1,667004,false,false,232,image-keyboard-response,26
true,2,0,1,0,true,q,false,true,0.0-2.0-0.5-0.52-3.52,0,0,0,81,false,stim,false,1,1068.5,1,0,2,70522,task1,669576,false,false,235,image-keyboard-response,27
true,2,0,1,0,true,q,false,true,0.0-2.0-0.5-0.53-3.53,0,0,0,81,false,stim,false,2,548.3000000119209,1,0,1,70522,task1,671638,false,false,238,image-keyboard-response,28
true,2,0,1,0,true,q,false,true,0.0-2.0-0.6-0.54-3.54,0,0,0,81,false,stim,false,2,583.3000000119209,1,0,1,70522,task1,673730,false,false,241,image-keyboard-response,29
true,2,0,1,0,true,q,false,true,0.0-2.0-0.6-0.55-3.55,0,0,0,81,false,stim,false,1,673.3999999761581,1,0,2,70522,task1,675913,false,false,244,image-keyboard-response,30
true,2,0,1,0,true,q,false,true,0.0-2.0-0.6-0.56-3.56,0,0,0,81,false,stim,false,1,761.4000000357628,1,0,2,70522,task1,678185,false,false,247,image-keyboard-response,31
true,2,0,1,1,false,z,false,false,0.0-2.0-0.6-0.57-3.57,0,0,0,81,false,stim,true,0,827.3000000119209,1,0,0,70522,task1,680525,false,false,250,image-keyboard-response,32
true,2,0,1,0,true,q,false,false,0.0-2.0-0.6-0.58-3.58,0,0,0,81,false,stim,false,2,811.0,1,0,1,70522,task1,682845,false,true,253,image-keyboard-response,33
true,2,1,1,1,true,z,false,true,0.0-2.0-0.6-0.59-3.59,0,0,0,90,false,stim,false,0,619.0,1,0,0,70522,task1,684972,false,false,256,image-keyboard-response,34
true,2,0,1,0,true,q,false,true,0.0-2.0-0.6-0.60-3.60,0,0,0,81,false,stim,false,1,759.8000000119209,1,0,2,70522,task1,687241,false,false,259,image-keyboard-response,35
true,2,2,1,0,false,q,false,false,0.0-2.0-0.6-0.61-3.61,0,0,0,68,false,stim,true,2,576.0,1,0,1,70522,task1,689326,false,false,262,image-keyboard-response,36
true,2,1,1,1,true,z,false,false,0.0-2.0-0.6-0.62-3.62,0,0,0,90,false,stim,false,0,708.8000000119209,1,0,0,70522,task1,691549,false,true,265,image-keyboard-response,37
true,2,0,1,0,true,q,false,true,0.0-2.0-0.7-0.63-3.63,0,0,0,81,false,stim,false,2,617.7000000476837,1,0,1,70522,task1,693676,false,false,268,image-keyboard-response,38
true,2,1,1,1,true,z,false,true,0.0-2.0-0.7-0.64-3.64,0,0,0,90,false,stim,false,0,552.8999999761581,1,0,0,70522,task1,695737,false,false,271,image-keyboard-response,39
true,2,0,1,0,true,q,false,true,0.0-2.0-0.7-0.65-3.65,0,0,0,81,false,stim,false,2,644.0,1,0,1,70522,task1,697891,false,false,274,image-keyboard-response,40
true,2,0,1,0,true,q,false,true,0.0-2.0-0.7-0.66-3.66,0,0,0,81,false,stim,false,1,512.6000000238419,1,0,2,70522,task1,699912,false,false,277,image-keyboard-response,41
true,2,1,1,1,true,z,false,true,0.0-2.0-0.7-0.67-3.67,0,0,0,90,false,stim,false,0,679.5,1,0,0,70522,task1,702100,false,false,280,image-keyboard-response,42
true,2,0,1,0,true,q,false,true,0.0-2.0-0.7-0.68-3.68,0,0,0,81,false,stim,false,1,783.8000000119209,1,0,2,70522,task1,704393,false,false,283,image-keyboard-response,43
true,2,0,1,0,true,q,false,true,0.0-2.0-0.7-0.69-3.69,0,0,0,81,false,stim,false,2,564.3000000119209,1,0,1,70522,task1,706470,false,false,286,image-keyboard-response,44
true,2,1,1,1,true,z,false,true,0.0-2.0-0.7-0.70-3.70,0,0,0,90,false,stim,false,0,1140.1000000238419,1,0,0,70522,task1,709120,false,false,289,image-keyboard-response,45
true,3,0,1,2,false,d,false,false,0.0-2.0-0.7-0.71-3.71,0,0,0,81,true,stim,true,0,620.1999999880791,1,0,2,70522,task1,711249,false,false,292,image-keyboard-response,1
true,3,0,1,2,false,d,false,false,0.0-2.0-0.8-0.72-3.72,0,0,0,81,false,stim,true,0,706.5,1,0,2,70522,task1,713465,false,false,295,image-keyboard-response,2
true,3,1,1,0,false,q,false,false,0.0-2.0-0.8-0.73-3.73,0,0,0,90,false,stim,true,1,583.7999999523163,1,0,0,70522,task1,715555,false,false,298,image-keyboard-response,3
true,3,2,1,2,true,d,false,true,0.0-2.0-0.8-0.74-3.74,0,0,0,68,false,stim,false,0,516.3000000119209,1,0,2,70522,task1,717581,false,false,301,image-keyboard-response,4
true,3,1,1,0,false,q,false,false,0.0-2.0-0.8-0.75-3.75,0,0,0,90,false,stim,true,1,633.8999999761581,1,0,0,70522,task1,719724,false,false,304,image-keyboard-response,5
true,3,1,1,2,false,d,true,false,0.0-2.0-0.8-0.76-3.76,0,0,0,90,false,stim,false,0,951.8999999761581,1,0,1,70522,task1,722186,false,false,307,image-keyboard-response,6
true,3,0,1,2,false,d,false,false,0.0-2.0-0.8-0.77-3.77,0,0,0,81,false,stim,true,0,547.2000000476837,1,0,1,70522,task1,724240,false,false,310,image-keyboard-response,7
true,3,2,1,2,true,d,false,true,0.0-2.0-0.8-0.78-3.78,0,0,0,68,false,stim,false,0,497.0,1,0,2,70522,task1,726248,false,false,313,image-keyboard-response,8
true,3,2,1,0,false,q,true,false,0.0-2.0-0.8-0.79-3.79,0,0,0,68,false,stim,false,1,1078.0999999642372,1,0,0,70522,task1,728836,false,false,316,image-keyboard-response,9
true,3,1,1,2,false,d,true,false,0.0-2.0-0.8-0.80-3.80,0,0,0,90,false,stim,false,0,1876.6000000238419,1,0,1,70522,task1,732226,false,false,319,image-keyboard-response,10
true,3,0,1,0,true,q,false,true,0.0-2.0-0.9-0.81-3.81,0,0,0,81,false,stim,false,1,1221.199999988079,1,0,0,70522,task1,734958,false,false,322,image-keyboard-response,11
true,3,2,1,2,true,d,false,true,0.0-2.0-0.9-0.82-3.82,0,0,0,68,false,stim,false,0,813.3000000119209,1,0,2,70522,task1,737286,false,false,325,image-keyboard-response,12
true,3,2,1,2,true,d,false,true,0.0-2.0-0.9-0.83-3.83,0,0,0,68,false,stim,false,0,465.30000001192093,1,0,1,70522,task1,739265,false,false,328,image-keyboard-response,13
true,3,2,1,2,true,d,false,false,0.0-2.0-0.9-0.84-3.84,0,0,0,68,false,stim,false,0,1056.1000000238419,1,0,2,70522,task1,741827,false,true,331,image-keyboard-response,14
true,3,0,1,0,true,q,false,true,0.0-2.0-0.9-0.85-3.85,0,0,0,81,false,stim,false,1,676.6000000238419,1,0,0,70522,task1,744017,false,false,334,image-keyboard-response,15
true,3,2,1,2,true,d,false,true,0.0-2.0-0.9-0.86-3.86,0,0,0,68,false,stim,false,0,518.4000000357628,1,0,2,70522,task1,746046,false,false,337,image-keyboard-response,16
true,3,2,1,2,true,d,false,true,0.0-2.0-0.9-0.87-3.87,0,0,0,68,false,stim,false,0,435.5,1,0,1,70522,task1,747991,false,false,340,image-keyboard-response,17
true,3,2,1,2,true,d,false,true,0.0-2.0-0.9-0.88-3.88,0,0,0,68,false,stim,false,0,554.9000000357628,1,0,1,70522,task1,750055,false,false,343,image-keyboard-response,18
true,3,0,1,0,true,q,false,true,0.0-2.0-0.9-0.89-3.89,0,0,0,81,false,stim,false,1,687.1000000238419,1,0,0,70522,task1,752256,false,false,346,image-keyboard-response,19
true,3,2,1,2,true,d,false,true,0.0-2.0-0.10-0.90-3.90,0,0,0,68,false,stim,false,0,782.0,1,0,2,70522,task1,754552,false,false,349,image-keyboard-response,20
true,3,0,1,0,true,q,false,true,0.0-2.0-0.10-0.91-3.91,0,0,0,81,false,stim,false,1,730.7999999523163,1,0,0,70522,task1,756791,false,false,352,image-keyboard-response,21
true,3,2,1,2,true,d,false,true,0.0-2.0-0.10-0.92-3.92,0,0,0,68,false,stim,false,0,977.1000000238419,1,0,1,70522,task1,759278,false,false,355,image-keyboard-response,22
true,3,2,1,2,true,d,false,true,0.0-2.0-0.10-0.93-3.93,0,0,0,68,false,stim,false,0,675.6999999880791,1,0,1,70522,task1,761462,false,false,358,image-keyboard-response,23
true,3,2,1,2,true,d,false,true,0.0-2.0-0.10-0.94-3.94,0,0,0,68,false,stim,false,0,1595.699999988079,1,0,2,70522,task1,764569,false,false,361,image-keyboard-response,24
true,3,2,1,2,true,d,false,true,0.0-2.0-0.10-0.95-3.95,0,0,0,68,false,stim,false,0,1006.7999999523163,1,0,1,70522,task1,767090,false,false,364,image-keyboard-response,25
true,3,2,1,2,true,d,false,true,0.0-2.0-0.10-0.96-3.96,0,0,0,68,false,stim,false,0,1116.1000000238419,1,0,2,70522,task1,769717,false,false,367,image-keyboard-response,26
true,3,0,1,0,true,q,false,true,0.0-2.0-0.10-0.97-3.97,0,0,0,81,false,stim,false,1,627.3999999761581,1,0,0,70522,task1,771854,false,false,370,image-keyboard-response,27
true,3,0,1,0,true,q,false,true,0.0-2.0-0.10-0.98-3.98,0,0,0,81,false,stim,false,1,596.5,1,0,0,70522,task1,773960,false,false,373,image-keyboard-response,28
true,3,2,1,2,true,d,false,true,0.0-2.0-0.11-0.99-3.99,0,0,0,68,false,stim,false,0,669.8000000119209,1,0,2,70522,task1,776143,false,false,376,image-keyboard-response,29
true,3,2,1,2,true,d,false,true,0.0-2.0-0.11-0.100-3.100,0,0,0,68,false,stim,false,0,750.1999999880791,1,0,1,70522,task1,778400,false,false,379,image-keyboard-response,30
true,3,0,1,0,true,q,false,true,0.0-2.0-0.11-0.101-3.101,0,0,0,81,false,stim,false,1,504.89999997615814,1,0,0,70522,task1,780417,false,false,382,image-keyboard-response,31
true,3,2,1,2,true,d,false,true,0.0-2.0-0.11-0.102-3.102,0,0,0,68,false,stim,false,0,923.3000000119209,1,0,1,70522,task1,782851,false,false,385,image-keyboard-response,32
true,3,2,1,2,true,d,false,true,0.0-2.0-0.11-0.103-3.103,0,0,0,68,false,stim,false,0,976.0999999642372,1,0,2,70522,task1,785339,false,false,388,image-keyboard-response,33
true,3,2,1,2,true,d,false,true,0.0-2.0-0.11-0.104-3.104,0,0,0,68,false,stim,false,0,809.4000000357628,1,0,1,70522,task1,787656,false,false,391,image-keyboard-response,34
true,3,2,1,2,true,d,false,true,0.0-2.0-0.11-0.105-3.105,0,0,0,68,false,stim,false,0,918.8999999761581,1,0,2,70522,task1,790084,false,false,394,image-keyboard-response,35
true,3,0,1,0,true,q,false,true,0.0-2.0-0.11-0.106-3.106,0,0,0,81,false,stim,false,1,576.1999999880791,1,0,0,70522,task1,792170,false,false,397,image-keyboard-response,36
true,3,0,1,0,true,q,false,true,0.0-2.0-0.11-0.107-3.107,0,0,0,81,false,stim,false,1,663.6000000238419,1,0,0,70522,task1,794343,false,false,400,image-keyboard-response,37
true,3,0,1,0,true,q,false,false,0.0-2.0-0.12-0.108-3.108,0,0,0,81,false,stim,false,1,555.2000000476837,1,0,0,70522,task1,796410,false,true,403,image-keyboard-response,38
true,3,1,1,0,false,q,false,false,0.0-2.0-0.12-0.109-3.109,0,0,0,90,false,stim,true,1,580.3000000119209,1,0,0,70522,task1,798496,false,false,406,image-keyboard-response,39
true,3,2,1,2,true,d,false,true,0.0-2.0-0.12-0.110-3.110,0,0,0,68,false,stim,false,0,566.9000000357628,1,0,1,70522,task1,800572,false,false,409,image-keyboard-response,40
true,3,2,1,0,false,q,true,false,0.0-2.0-0.12-0.111-3.111,0,0,0,68,false,stim,false,1,809.0,1,0,0,70522,task1,802893,false,false,412,image-keyboard-response,41
true,4,2,1,0,false,q,false,false,0.0-2.0-0.12-0.112-3.112,0,0,0,68,true,stim,true,2,608.7999999523163,1,0,2,70522,task1,805012,false,false,415,image-keyboard-response,1
true,4,2,1,0,false,q,false,false,0.0-2.0-0.12-0.113-3.113,0,0,0,68,false,stim,true,2,538.0999999642372,1,0,2,70522,task1,807062,false,false,418,image-keyboard-response,2
true,4,2,1,1,false,z,false,false,0.0-2.0-0.12-0.114-3.114,0,0,0,68,false,stim,true,2,852.5999999642372,1,0,1,70522,task1,809419,false,false,421,image-keyboard-response,3
true,4,2,1,0,false,q,false,false,0.0-2.0-0.12-0.115-3.115,0,0,0,68,false,stim,true,2,520.6999999880791,1,0,2,70522,task1,811449,false,false,424,image-keyboard-response,4
true,4,1,1,1,true,z,false,true,0.0-2.0-0.12-0.116-3.116,0,0,0,90,false,stim,false,2,528.0999999642372,1,0,1,70522,task1,813483,false,false,427,image-keyboard-response,5
true,4,1,1,0,false,q,true,false,0.0-2.0-0.13-0.117-3.117,0,0,0,90,false,stim,false,2,1995.3999999761581,1,0,2,70522,task1,816984,false,false,430,image-keyboard-response,6
true,4,1,1,1,true,z,false,true,0.0-2.0-0.13-0.118-3.118,0,0,0,90,false,stim,false,2,730.6999999880791,1,0,1,70522,task1,819221,false,false,433,image-keyboard-response,7
true,4,0,1,2,false,d,false,false,0.0-2.0-0.13-0.119-3.119,0,0,0,81,false,stim,true,0,759.3000000119209,1,0,0,70522,task1,821487,false,false,436,image-keyboard-response,8
true,4,0,1,1,false,z,true,false,0.0-2.0-0.13-0.120-3.120,0,0,0,81,false,stim,false,2,566.1000000238419,1,0,1,70522,task1,823562,false,false,439,image-keyboard-response,9
true,4,1,1,1,true,z,false,true,0.0-2.0-0.13-0.121-3.121,0,0,0,90,false,stim,false,2,1661.800000011921,1,0,1,70522,task1,826737,false,false,442,image-keyboard-response,10
true,4,1,1,2,false,d,true,true,0.0-2.0-0.13-0.122-3.122,0,0,0,90,false,stim,false,0,847.6999999880791,1,0,0,70522,task1,829094,false,true,445,image-keyboard-response,11
true,4,0,1,0,true,q,false,true,0.0-2.0-0.13-0.123-3.123,0,0,0,81,false,stim,false,2,948.5,1,0,2,70522,task1,831550,false,false,448,image-keyboard-response,12
true,4,1,1,2,false,d,true,false,0.0-2.0-0.13-0.124-3.124,0,0,0,90,false,stim,false,0,694.6999999880791,1,0,0,70522,task1,833758,false,false,451,image-keyboard-response,13
true,4,0,1,0,true,q,false,true,0.0-2.0-0.13-0.125-3.125,0,0,0,81,false,stim,false,2,830.6000000238419,1,0,2,70522,task1,836102,false,false,454,image-keyboard-response,14
true,4,1,1,1,true,z,false,true,0.0-2.0-0.14-0.126-3.126,0,0,0,90,false,stim,false,2,528.1000000238419,1,0,1,70522,task1,838141,false,false,457,image-keyboard-response,15
true,4,0,1,0,true,q,false,true,0.0-2.0-0.14-0.127-3.127,0,0,0,81,false,stim,false,2,807.0999999642372,1,0,2,70522,task1,840458,false,false,460,image-keyboard-response,16
true,4,1,1,1,true,z,false,true,0.0-2.0-0.14-0.128-3.128,0,0,0,90,false,stim,false,2,921.1999999880791,1,0,1,70522,task1,842892,false,false,463,image-keyboard-response,17
true,4,1,1,2,false,d,true,false,0.0-2.0-0.14-0.129-3.129,0,0,0,90,false,stim,false,0,453.69999998807907,1,0,0,70522,task1,844858,false,false,466,image-keyboard-response,18
true,4,2,1,2,true,d,false,true,0.0-2.0-0.14-0.130-3.130,0,0,0,68,false,stim,false,0,562.8999999761581,1,0,0,70522,task1,846934,false,false,469,image-keyboard-response,19
true,4,0,1,0,true,q,false,true,0.0-2.0-0.14-0.131-3.131,0,0,0,81,false,stim,false,2,669.0999999642372,1,0,2,70522,task1,849112,false,false,472,image-keyboard-response,20
true,4,2,1,2,true,d,false,true,0.0-2.0-0.14-0.132-3.132,0,0,0,68,false,stim,false,0,819.9000000357628,1,0,0,70522,task1,851440,false,false,475,image-keyboard-response,21
true,4,0,1,0,true,q,false,true,0.0-2.0-0.14-0.133-3.133,0,0,0,81,false,stim,false,2,667.5,1,0,2,70522,task1,853613,false,false,478,image-keyboard-response,22
true,4,1,1,1,true,z,false,false,0.0-2.0-0.14-0.134-3.134,0,0,0,90,false,stim,false,2,550.3999999761581,1,0,1,70522,task1,855672,false,true,481,image-keyboard-response,23
true,4,2,1,2,true,d,false,true,0.0-2.0-0.15-0.135-3.135,0,0,0,68,false,stim,false,0,466.7000000476837,1,0,0,70522,task1,857649,false,false,484,image-keyboard-response,24
true,4,2,1,2,true,d,false,true,0.0-2.0-0.15-0.136-3.136,0,0,0,68,false,stim,false,0,946.6999999880791,1,0,0,70522,task1,860104,false,false,487,image-keyboard-response,25
true,4,1,1,1,true,z,false,true,0.0-2.0-0.15-0.137-3.137,0,0,0,90,false,stim,false,2,680.3000000119209,1,0,1,70522,task1,862294,false,false,490,image-keyboard-response,26
true,4,0,1,0,true,q,false,true,0.0-2.0-0.15-0.138-3.138,0,0,0,81,false,stim,false,2,577.7000000476837,1,0,2,70522,task1,864387,false,false,493,image-keyboard-response,27
true,4,0,1,0,true,q,false,true,0.0-2.0-0.15-0.139-3.139,0,0,0,81,false,stim,false,2,612.5,1,0,2,70522,task1,866510,false,false,496,image-keyboard-response,28
true,4,2,1,2,true,d,false,true,0.0-2.0-0.15-0.140-3.140,0,0,0,68,false,stim,false,0,683.5,1,0,0,70522,task1,868707,false,false,499,image-keyboard-response,29
true,4,1,1,1,true,z,false,true,0.0-2.0-0.15-0.141-3.141,0,0,0,90,false,stim,false,2,531.8000000119209,1,0,1,70522,task1,870755,false,false,502,image-keyboard-response,30
true,4,1,1,1,true,z,false,true,0.0-2.0-0.15-0.142-3.142,0,0,0,90,false,stim,false,2,615.3999999761581,1,0,1,70522,task1,872880,false,false,505,image-keyboard-response,31
true,4,0,1,0,true,q,false,true,0.0-2.0-0.15-0.143-3.143,0,0,0,81,false,stim,false,2,561.3999999761581,1,0,2,70522,task1,874950,false,false,508,image-keyboard-response,32
true,4,2,1,2,true,d,false,true,0.0-2.0-0.16-0.144-3.144,0,0,0,68,false,stim,false,0,589.8999999761581,1,0,0,70522,task1,877049,false,false,511,image-keyboard-response,33
true,4,1,1,1,true,z,false,true,0.0-2.0-0.16-0.145-3.145,0,0,0,90,false,stim,false,2,592.0,1,0,1,70522,task1,879146,false,false,514,image-keyboard-response,34
true,4,0,1,0,true,q,false,true,0.0-2.0-0.16-0.146-3.146,0,0,0,81,false,stim,false,2,686.1999999880791,1,0,2,70522,task1,881346,false,false,517,image-keyboard-response,35
true,4,2,1,2,true,d,false,true,0.0-2.0-0.16-0.147-3.147,0,0,0,68,false,stim,false,0,731.5,1,0,0,70522,task1,883587,false,false,520,image-keyboard-response,36
true,4,0,1,0,true,q,false,true,0.0-2.0-0.16-0.148-3.148,0,0,0,81,false,stim,false,2,1218.199999988079,1,0,2,70522,task1,886318,false,false,523,image-keyboard-response,37
true,4,1,1,1,true,z,false,true,0.0-2.0-0.16-0.149-3.149,0,0,0,90,false,stim,false,2,589.5999999642372,1,0,1,70522,task1,888419,false,false,526,image-keyboard-response,38
true,4,0,1,0,true,q,false,true,0.0-2.0-0.16-0.150-3.150,0,0,0,81,false,stim,false,2,799.5,1,0,2,70522,task1,890728,false,false,529,image-keyboard-response,39
true,4,2,1,2,true,d,false,true,0.0-2.0-0.16-0.151-3.151,0,0,0,68,false,stim,false,0,623.5,1,0,0,70522,task1,892860,false,false,532,image-keyboard-response,40
true,4,1,1,1,true,z,false,true,0.0-2.0-0.16-0.152-3.152,0,0,0,90,false,stim,false,2,985.3999999761581,1,0,1,70522,task1,895358,false,false,535,image-keyboard-response,41
true,5,0,2,2,false,d,false,true,0.0-2.0-0.17-0.153-3.153,0,0,0,81,true,stim,true,0,531.5,1,0,2,70522,task1,897398,false,true,538,image-keyboard-response,1
true,5,0,2,2,false,d,false,false,0.0-2.0-0.17-0.154-3.154,0,0,0,81,false,stim,true,0,663.9000000357628,1,0,2,70522,task1,899574,false,false,541,image-keyboard-response,2
true,5,2,2,0,false,q,false,false,0.0-2.0-0.17-0.155-3.155,0,0,0,68,false,stim,true,2,590.3000000119209,1,0,0,70522,task1,901674,false,false,544,image-keyboard-response,3
true,5,0,2,2,false,d,false,false,0.0-2.0-0.17-0.156-3.156,0,0,0,81,false,stim,true,0,596.1000000238419,1,0,2,70522,task1,903784,false,false,547,image-keyboard-response,4
true,5,2,2,0,false,q,false,false,0.0-2.0-0.17-0.157-3.157,0,0,0,68,false,stim,true,2,809.0999999642372,1,0,0,70522,task1,906098,false,false,550,image-keyboard-response,5
true,5,1,2,2,false,d,false,false,0.0-2.0-0.17-0.158-3.158,0,0,0,90,false,stim,true,1,499.0999999642372,1,0,1,70522,task1,908111,false,false,553,image-keyboard-response,6
true,5,2,2,0,false,q,false,false,0.0-2.0-0.17-0.159-3.159,0,0,0,68,false,stim,true,2,1149.6000000238419,1,0,0,70522,task1,910772,false,false,556,image-keyboard-response,7
true,5,0,2,2,false,d,true,false,0.0-2.0-0.17-0.160-3.160,0,0,0,81,false,stim,false,1,1114.300000011921,1,0,1,70522,task1,913397,false,false,559,image-keyboard-response,8
true,5,2,2,2,true,d,false,true,0.0-2.0-0.17-0.161-3.161,0,0,0,68,false,stim,false,1,476.69999998807907,1,0,1,70522,task1,915387,false,false,562,image-keyboard-response,9
true,5,0,2,0,true,q,false,true,0.0-2.0-0.18-0.162-3.162,0,0,0,81,false,stim,false,2,489.89999997615814,1,0,0,70522,task1,917386,false,false,565,image-keyboard-response,10
true,5,1,2,2,false,d,true,false,0.0-2.0-0.18-0.163-3.163,0,0,0,90,false,stim,false,0,386.69999998807907,1,0,2,70522,task1,919286,false,false,568,image-keyboard-response,11
true,5,2,2,2,true,d,false,true,0.0-2.0-0.18-0.164-3.164,0,0,0,68,false,stim,false,1,742.0999999642372,1,0,1,70522,task1,921539,false,false,571,image-keyboard-response,12
true,5,2,2,2,true,d,false,true,0.0-2.0-0.18-0.165-3.165,0,0,0,68,false,stim,false,0,595.5,1,0,2,70522,task1,923643,false,false,574,image-keyboard-response,13
true,5,2,2,2,true,d,false,true,0.0-2.0-0.18-0.166-3.166,0,0,0,68,false,stim,false,1,707.3999999761581,1,0,1,70522,task1,925864,false,false,577,image-keyboard-response,14
true,5,2,2,2,true,d,false,true,0.0-2.0-0.18-0.167-3.167,0,0,0,68,false,stim,false,0,820.4000000357628,1,0,2,70522,task1,928196,false,false,580,image-keyboard-response,15
true,5,2,2,2,true,d,false,false,0.0-2.0-0.18-0.168-3.168,0,0,0,68,false,stim,false,1,497.80000001192093,1,0,1,70522,task1,930203,false,true,583,image-keyboard-response,16
true,5,0,2,0,true,q,false,true,0.0-2.0-0.18-0.169-3.169,0,0,0,81,false,stim,false,2,583.8999999761581,1,0,0,70522,task1,932295,false,false,586,image-keyboard-response,17
true,5,0,2,0,true,q,false,true,0.0-2.0-0.18-0.170-3.170,0,0,0,81,false,stim,false,2,453.0999999642372,1,0,0,70522,task1,934259,false,false,589,image-keyboard-response,18
true,5,2,2,2,true,d,false,false,0.0-2.0-0.19-0.171-3.171,0,0,0,68,false,stim,false,1,586.3999999761581,1,0,1,70522,task1,936355,false,true,592,image-keyboard-response,19
true,5,1,2,2,false,d,false,false,0.0-2.0-0.19-0.172-3.172,0,0,0,90,false,stim,true,1,492.0999999642372,1,0,1,70522,task1,938357,false,false,595,image-keyboard-response,20
true,5,2,2,2,true,d,false,true,0.0-2.0-0.19-0.173-3.173,0,0,0,68,false,stim,false,0,782.7000000476837,1,0,2,70522,task1,940649,false,false,598,image-keyboard-response,21
true,5,2,2,2,true,d,false,true,0.0-2.0-0.19-0.174-3.174,0,0,0,68,false,stim,false,0,589.1999999880791,1,0,2,70522,task1,942755,false,false,601,image-keyboard-response,22
true,5,0,2,0,true,q,false,true,0.0-2.0-0.19-0.175-3.175,0,0,0,81,false,stim,false,2,592.5999999642372,1,0,0,70522,task1,944861,false,false,604,image-keyboard-response,23
true,5,0,2,2,false,d,true,false,0.0-2.0-0.19-0.176-3.176,0,0,0,81,false,stim,false,1,430.7000000476837,1,0,1,70522,task1,946800,false,false,607,image-keyboard-response,24
true,5,2,2,2,true,d,false,true,0.0-2.0-0.19-0.177-3.177,0,0,0,68,false,stim,false,0,610.7000000476837,1,0,2,70522,task1,948925,false,false,610,image-keyboard-response,25
true,5,0,2,0,true,q,false,true,0.0-2.0-0.19-0.178-3.178,0,0,0,81,false,stim,false,2,570.6999999880791,1,0,0,70522,task1,951005,false,false,613,image-keyboard-response,26
true,5,0,2,0,true,q,false,true,0.0-2.0-0.19-0.179-3.179,0,0,0,81,false,stim,false,2,504.5,1,0,0,70522,task1,953017,false,false,616,image-keyboard-response,27
true,5,0,2,0,true,q,false,false,0.0-2.0-0.20-0.180-3.180,0,0,0,81,false,stim,false,2,429.7999999523163,1,0,0,70522,task1,954961,false,true,619,image-keyboard-response,28
true,5,0,2,0,true,q,false,false,0.0-2.0-0.20-0.181-3.181,0,0,0,81,false,stim,false,2,904.8000000119209,1,0,0,70522,task1,957380,false,true,622,image-keyboard-response,29
true,5,1,2,0,false,q,true,false,0.0-2.0-0.20-0.182-3.182,0,0,0,90,false,stim,false,2,464.69999998807907,1,0,0,70522,task1,959355,false,false,625,image-keyboard-response,30
true,5,2,2,2,true,d,false,true,0.0-2.0-0.20-0.183-3.183,0,0,0,68,false,stim,false,0,804.8999999761581,1,0,2,70522,task1,961669,false,false,628,image-keyboard-response,31
true,5,2,2,2,true,d,false,true,0.0-2.0-0.20-0.184-3.184,0,0,0,68,false,stim,false,0,426.19999998807907,1,0,2,70522,task1,963607,false,false,631,image-keyboard-response,32
true,5,2,2,2,true,d,false,true,0.0-2.0-0.20-0.185-3.185,0,0,0,68,false,stim,false,0,415.80000001192093,1,0,2,70522,task1,965532,false,false,634,image-keyboard-response,33
true,5,0,2,2,false,d,true,false,0.0-2.0-0.20-0.186-3.186,0,0,0,81,false,stim,false,1,1234.1000000238419,1,0,1,70522,task1,968277,false,false,637,image-keyboard-response,34
true,5,1,2,2,false,d,false,false,0.0-2.0-0.20-0.187-3.187,0,0,0,90,false,stim,true,1,769.1999999880791,1,0,1,70522,task1,970557,false,false,640,image-keyboard-response,35
true,5,2,2,2,true,d,false,true,0.0-2.0-0.20-0.188-3.188,0,0,0,68,false,stim,false,1,435.39999997615814,1,0,1,70522,task1,972505,false,false,643,image-keyboard-response,36
true,5,2,2,2,true,d,false,true,0.0-2.0-0.21-0.189-3.189,0,0,0,68,false,stim,false,1,573.8000000119209,1,0,1,70522,task1,974589,false,false,646,image-keyboard-response,37
true,5,2,2,2,true,d,false,true,0.0-2.0-0.21-0.190-3.190,0,0,0,68,false,stim,false,0,753.3000000119209,1,0,2,70522,task1,976848,false,false,649,image-keyboard-response,38
true,5,2,2,2,true,d,false,true,0.0-2.0-0.21-0.191-3.191,0,0,0,68,false,stim,false,1,451.0999999642372,1,0,1,70522,task1,978809,false,false,652,image-keyboard-response,39
true,5,2,2,2,true,d,false,true,0.0-2.0-0.21-0.192-3.192,0,0,0,68,false,stim,false,1,426.0999999642372,1,0,1,70522,task1,980749,false,false,655,image-keyboard-response,40
true,5,2,2,2,true,d,false,true,0.0-2.0-0.21-0.193-3.193,0,0,0,68,false,stim,false,0,594.5,1,0,2,70522,task1,982858,false,false,658,image-keyboard-response,41
true,5,1,2,0,false,q,true,false,0.0-2.0-0.21-0.194-3.194,0,0,0,90,false,stim,false,2,819.3000000119209,1,0,0,70522,task1,985186,false,false,661,image-keyboard-response,42
true,5,2,2,0,false,q,false,false,0.0-2.0-0.21-0.195-3.195,0,0,0,68,false,stim,true,2,551.3000000119209,1,0,0,70522,task1,987245,false,false,664,image-keyboard-response,43
true,5,0,2,0,true,q,false,true,0.0-2.0-0.21-0.196-3.196,0,0,0,81,false,stim,false,2,392.10000002384186,1,0,0,70522,task1,989151,false,false,667,image-keyboard-response,44
true,5,2,2,2,true,d,false,true,0.0-2.0-0.21-0.197-3.197,0,0,0,68,false,stim,false,0,810.3999999761581,1,0,2,70522,task1,991476,false,false,670,image-keyboard-response,45
true,6,2,2,0,false,q,false,true,0.0-2.0-0.22-0.198-3.198,0,0,0,68,true,stim,true,2,385.10000002384186,1,0,2,70522,task1,993367,false,true,673,image-keyboard-response,1
true,6,2,2,1,false,z,false,false,0.0-2.0-0.22-0.199-3.199,0,0,0,68,false,stim,true,2,1005.5,1,0,1,70522,task1,995882,false,false,676,image-keyboard-response,2
true,6,0,2,2,false,d,false,false,0.0-2.0-0.22-0.200-3.200,0,0,0,81,false,stim,true,0,615.6999999880791,1,0,0,70522,task1,998007,false,false,679,image-keyboard-response,3
true,6,1,2,2,false,d,true,false,0.0-2.0-0.22-0.201-3.201,0,0,0,90,false,stim,false,0,503.30000001192093,1,0,0,70522,task1,1000015,false,false,682,image-keyboard-response,4
true,6,1,2,0,false,q,true,false,0.0-2.0-0.22-0.202-3.202,0,0,0,90,false,stim,false,2,816.3000000119209,1,0,2,70522,task1,1002344,false,false,685,image-keyboard-response,5
true,6,2,2,0,false,q,false,false,0.0-2.0-0.22-0.203-3.203,0,0,0,68,false,stim,true,2,816.5999999642372,1,0,2,70522,task1,1004668,false,false,688,image-keyboard-response,6
true,6,2,2,2,true,d,false,true,0.0-2.0-0.22-0.204-3.204,0,0,0,68,false,stim,false,0,659.6999999880791,1,0,0,70522,task1,1006838,false,false,691,image-keyboard-response,7
true,6,0,2,1,false,z,true,false,0.0-2.0-0.22-0.205-3.205,0,0,0,81,false,stim,false,2,550.3000000119209,1,0,1,70522,task1,1008901,false,false,694,image-keyboard-response,8
true,6,1,2,1,true,z,false,true,0.0-2.0-0.22-0.206-3.206,0,0,0,90,false,stim,false,2,591.3999999761581,1,0,1,70522,task1,1011005,false,false,697,image-keyboard-response,9
true,6,0,2,0,true,q,false,true,0.0-2.0-0.23-0.207-3.207,0,0,0,81,false,stim,false,2,792.1000000238419,1,0,2,70522,task1,1013303,false,false,700,image-keyboard-response,10
true,6,2,2,2,true,d,false,true,0.0-2.0-0.23-0.208-3.208,0,0,0,68,false,stim,false,0,875.1000000238419,1,0,0,70522,task1,1015690,false,false,703,image-keyboard-response,11
true,6,0,2,0,true,q,false,true,0.0-2.0-0.23-0.209-3.209,0,0,0,81,false,stim,false,2,626.0,1,0,2,70522,task1,1017831,false,false,706,image-keyboard-response,12
true,6,0,2,0,true,q,false,true,0.0-2.0-0.23-0.210-3.210,0,0,0,81,false,stim,false,2,1004.8000000119209,1,0,2,70522,task1,1020350,false,false,709,image-keyboard-response,13
true,6,2,2,2,true,d,false,true,0.0-2.0-0.23-0.211-3.211,0,0,0,68,false,stim,false,0,591.4000000357628,1,0,0,70522,task1,1022452,false,false,712,image-keyboard-response,14
true,6,1,2,1,true,z,false,true,0.0-2.0-0.23-0.212-3.212,0,0,0,90,false,stim,false,2,502.0,1,0,1,70522,task1,1024466,false,false,715,image-keyboard-response,15
true,6,0,2,2,false,d,false,false,0.0-2.0-0.23-0.213-3.213,0,0,0,81,false,stim,true,0,507.4000000357628,1,0,0,70522,task1,1026484,false,false,718,image-keyboard-response,16
true,6,1,2,1,true,z,false,true,0.0-2.0-0.23-0.214-3.214,0,0,0,90,false,stim,false,2,1213.199999988079,1,0,1,70522,task1,1029208,false,false,721,image-keyboard-response,17
true,6,1,2,1,true,z,false,false,0.0-2.0-0.23-0.215-3.215,0,0,0,90,false,stim,false,2,477.7000000476837,1,0,1,70522,task1,1031196,false,true,724,image-keyboard-response,18
true,6,1,2,1,true,z,false,true,0.0-2.0-0.24-0.216-3.216,0,0,0,90,false,stim,false,2,733.8999999761581,1,0,1,70522,task1,1033441,false,false,727,image-keyboard-response,19
true,6,2,2,2,true,d,false,true,0.0-2.0-0.24-0.217-3.217,0,0,0,68,false,stim,false,0,773.0999999642372,1,0,0,70522,task1,1035728,false,false,730,image-keyboard-response,20
true,6,1,2,1,true,z,false,true,0.0-2.0-0.24-0.218-3.218,0,0,0,90,false,stim,false,2,750.1000000238419,1,0,1,70522,task1,1037992,false,false,733,image-keyboard-response,21
true,6,0,2,0,true,q,false,true,0.0-2.0-0.24-0.219-3.219,0,0,0,81,false,stim,false,2,741.3999999761581,1,0,2,70522,task1,1040244,false,false,736,image-keyboard-response,22
true,6,0,2,0,true,q,false,true,0.0-2.0-0.24-0.220-3.220,0,0,0,81,false,stim,false,2,887.1999999880791,1,0,2,70522,task1,1042642,false,false,739,image-keyboard-response,23
true,6,2,2,2,true,d,false,true,0.0-2.0-0.24-0.221-3.221,0,0,0,68,false,stim,false,0,797.0,1,0,0,70522,task1,1044954,false,false,742,image-keyboard-response,24
true,6,1,2,1,true,z,false,false,0.0-2.0-0.24-0.222-3.222,0,0,0,90,false,stim,false,2,582.6000000238419,1,0,1,70522,task1,1047051,false,true,745,image-keyboard-response,25
true,6,2,2,2,true,d,false,false,0.0-2.0-0.24-0.223-3.223,0,0,0,68,false,stim,false,0,640.5999999642372,1,0,0,70522,task1,1049202,false,true,748,image-keyboard-response,26
true,6,0,2,0,true,q,false,true,0.0-2.0-0.24-0.224-3.224,0,0,0,81,false,stim,false,2,531.8999999761581,1,0,2,70522,task1,1051249,false,false,751,image-keyboard-response,27
true,6,0,2,0,true,q,false,false,0.0-2.0-0.25-0.225-3.225,0,0,0,81,false,stim,false,2,725.4000000357628,1,0,2,70522,task1,1053488,false,true,754,image-keyboard-response,28
true,6,1,2,1,true,z,false,true,0.0-2.0-0.25-0.226-3.226,0,0,0,90,false,stim,false,2,1194.5,1,0,1,70522,task1,1056192,false,false,757,image-keyboard-response,29
true,6,1,2,1,true,z,false,true,0.0-2.0-0.25-0.227-3.227,0,0,0,90,false,stim,false,2,516.2000000476837,1,0,1,70522,task1,1058218,false,false,760,image-keyboard-response,30
true,6,1,2,1,true,z,false,true,0.0-2.0-0.25-0.228-3.228,0,0,0,90,false,stim,false,2,440.69999998807907,1,0,1,70522,task1,1060167,false,false,763,image-keyboard-response,31
true,6,2,2,2,true,d,false,false,0.0-2.0-0.25-0.229-3.229,0,0,0,68,false,stim,false,0,627.6000000238419,1,0,0,70522,task1,1062301,false,true,766,image-keyboard-response,32
true,6,2,2,0,false,q,false,false,0.0-2.0-0.25-0.230-3.230,0,0,0,68,false,stim,true,2,1006.3999999761581,1,0,2,70522,task1,1064817,false,false,769,image-keyboard-response,33
true,6,1,2,0,false,q,true,false,0.0-2.0-0.25-0.231-3.231,0,0,0,90,false,stim,false,2,492.5,1,0,2,70522,task1,1066820,false,false,772,image-keyboard-response,34
true,6,1,2,2,false,d,true,false,0.0-2.0-0.25-0.232-3.232,0,0,0,90,false,stim,false,0,765.3999999761581,1,0,0,70522,task1,1069091,false,false,775,image-keyboard-response,35
true,6,0,2,2,false,d,false,false,0.0-2.0-0.25-0.233-3.233,0,0,0,81,false,stim,true,0,543.8000000119209,1,0,0,70522,task1,1071144,false,false,778,image-keyboard-response,36
true,6,0,2,0,true,q,false,true,0.0-2.0-0.26-0.234-3.234,0,0,0,81,false,stim,false,2,814.5,1,0,2,70522,task1,1073473,false,false,781,image-keyboard-response,37
true,6,0,2,0,true,q,false,true,0.0-2.0-0.26-0.235-3.235,0,0,0,81,false,stim,false,2,593.8999999761581,1,0,2,70522,task1,1075581,false,false,784,image-keyboard-response,38
true,6,2,2,2,true,d,false,true,0.0-2.0-0.26-0.236-3.236,0,0,0,68,false,stim,false,0,794.0,1,0,0,70522,task1,1077886,false,false,787,image-keyboard-response,39
true,6,1,2,1,true,z,false,true,0.0-2.0-0.26-0.237-3.237,0,0,0,90,false,stim,false,2,620.3000000119209,1,0,1,70522,task1,1080015,false,false,790,image-keyboard-response,40
true,6,1,2,1,true,z,false,true,0.0-2.0-0.26-0.238-3.238,0,0,0,90,false,stim,false,2,998.6999999880791,1,0,1,70522,task1,1082523,false,false,793,image-keyboard-response,41
true,6,2,2,2,true,d,false,true,0.0-2.0-0.26-0.239-3.239,0,0,0,68,false,stim,false,0,1059.300000011921,1,0,0,70522,task1,1085087,false,false,796,image-keyboard-response,42
true,6,0,2,0,true,q,false,true,0.0-2.0-0.26-0.240-3.240,0,0,0,81,false,stim,false,2,536.3000000119209,1,0,2,70522,task1,1087132,false,false,799,image-keyboard-response,43
true,7,2,1,0,false,q,false,false,0.0-2.0-0.26-0.241-3.241,0,0,0,68,true,stim,true,2,785.1999999880791,1,0,0,70522,task1,1089434,false,false,802,image-keyboard-response,1
true,7,1,1,0,false,q,false,false,0.0-2.0-0.26-0.242-3.242,0,0,0,90,false,stim,true,1,805.8000000119209,1,0,1,70522,task1,1091753,false,false,805,image-keyboard-response,2
true,7,0,1,1,false,z,false,false,0.0-2.0-0.27-0.243-3.243,0,0,0,81,false,stim,true,0,713.5,1,0,2,70522,task1,1093982,false,false,808,image-keyboard-response,3
true,7,2,1,0,false,q,true,false,0.0-2.0-0.27-0.244-3.244,0,0,0,68,false,stim,false,1,833.6000000238419,1,0,1,70522,task1,1096330,false,false,811,image-keyboard-response,4
true,7,0,1,0,true,q,false,true,0.0-2.0-0.27-0.245-3.245,0,0,0,81,false,stim,false,1,489.19999998807907,1,0,1,70522,task1,1098334,false,false,814,image-keyboard-response,5
true,7,1,1,0,false,q,true,false,0.0-2.0-0.27-0.246-3.246,0,0,0,90,false,stim,false,2,801.3999999761581,1,0,0,70522,task1,1100644,false,false,817,image-keyboard-response,6
true,7,1,1,1,true,z,false,true,0.0-2.0-0.27-0.247-3.247,0,0,0,90,false,stim,false,0,899.3000000119209,1,0,2,70522,task1,1103053,false,false,820,image-keyboard-response,7
true,7,2,1,0,false,q,false,false,0.0-2.0-0.27-0.248-3.248,0,0,0,68,false,stim,true,2,606.3999999761581,1,0,0,70522,task1,1105166,false,false,823,image-keyboard-response,8
true,7,1,1,1,true,z,false,true,0.0-2.0-0.27-0.249-3.249,0,0,0,90,false,stim,false,0,745.0,1,0,2,70522,task1,1107421,false,false,826,image-keyboard-response,9
true,7,0,1,0,true,q,false,true,0.0-2.0-0.27-0.250-3.250,0,0,0,81,false,stim,false,1,548.8000000119209,1,0,1,70522,task1,1109480,false,false,829,image-keyboard-response,10
true,7,0,1,0,true,q,false,true,0.0-2.0-0.27-0.251-3.251,0,0,0,81,false,stim,false,2,536.3000000119209,1,0,0,70522,task1,1111526,false,false,832,image-keyboard-response,11
true,7,0,1,0,true,q,false,true,0.0-2.0-0.28-0.252-3.252,0,0,0,81,false,stim,false,2,602.8000000119209,1,0,0,70522,task1,1113640,false,false,835,image-keyboard-response,12
true,7,0,1,0,true,q,false,true,0.0-2.0-0.28-0.253-3.253,0,0,0,81,false,stim,false,2,1124.1000000238419,1,0,0,70522,task1,1116278,false,false,838,image-keyboard-response,13
true,7,0,1,0,true,q,false,true,0.0-2.0-0.28-0.254-3.254,0,0,0,81,false,stim,false,1,657.3000000119209,1,0,1,70522,task1,1118440,false,false,841,image-keyboard-response,14
true,7,0,1,0,true,q,false,true,0.0-2.0-0.28-0.255-3.255,0,0,0,81,false,stim,false,1,541.6000000238419,1,0,1,70522,task1,1120496,false,false,844,image-keyboard-response,15
true,7,1,1,1,true,z,false,true,0.0-2.0-0.28-0.256-3.256,0,0,0,90,false,stim,false,0,479.7999999523163,1,0,2,70522,task1,1122492,false,false,847,image-keyboard-response,16
true,7,1,1,1,true,z,false,true,0.0-2.0-0.28-0.257-3.257,0,0,0,90,false,stim,false,0,587.0,1,0,2,70522,task1,1124591,false,false,850,image-keyboard-response,17
true,7,1,1,1,true,z,false,true,0.0-2.0-0.28-0.258-3.258,0,0,0,90,false,stim,false,0,762.3000000119209,1,0,2,70522,task1,1126863,false,false,853,image-keyboard-response,18
true,7,0,1,0,true,q,false,true,0.0-2.0-0.28-0.259-3.259,0,0,0,81,false,stim,false,1,708.1000000238419,1,0,1,70522,task1,1129082,false,false,856,image-keyboard-response,19
true,7,0,1,0,true,q,false,true,0.0-2.0-0.28-0.260-3.260,0,0,0,81,false,stim,false,2,1519.6000000238419,1,0,0,70522,task1,1132111,false,false,859,image-keyboard-response,20
true,7,0,1,0,true,q,false,true,0.0-2.0-0.29-0.261-3.261,0,0,0,81,false,stim,false,1,731.6000000238419,1,0,1,70522,task1,1134357,false,false,862,image-keyboard-response,21
true,7,0,1,0,true,q,false,false,0.0-2.0-0.29-0.262-3.262,0,0,0,81,false,stim,false,2,763.3000000119209,1,0,0,70522,task1,1136631,false,true,865,image-keyboard-response,22
true,7,0,1,0,true,q,false,true,0.0-2.0-0.29-0.263-3.263,0,0,0,81,false,stim,false,2,608.8000000119209,1,0,0,70522,task1,1138755,false,false,868,image-keyboard-response,23
true,7,1,1,1,true,z,false,true,0.0-2.0-0.29-0.264-3.264,0,0,0,90,false,stim,false,0,586.0,1,0,2,70522,task1,1140848,false,false,871,image-keyboard-response,24
true,7,1,1,1,true,z,false,true,0.0-2.0-0.29-0.265-3.265,0,0,0,90,false,stim,false,0,901.1000000238419,1,0,2,70522,task1,1143263,false,false,874,image-keyboard-response,25
true,7,0,1,0,true,q,false,true,0.0-2.0-0.29-0.266-3.266,0,0,0,81,false,stim,false,1,737.9000000357628,1,0,1,70522,task1,1145509,false,false,877,image-keyboard-response,26
true,7,0,1,0,true,q,false,true,0.0-2.0-0.29-0.267-3.267,0,0,0,81,false,stim,false,2,546.1999999880791,1,0,0,70522,task1,1147568,false,false,880,image-keyboard-response,27
true,7,1,1,1,true,z,false,true,0.0-2.0-0.29-0.268-3.268,0,0,0,90,false,stim,false,0,2120.2999999523163,1,0,2,70522,task1,1151198,false,false,883,image-keyboard-response,28
true,7,0,1,0,true,q,false,true,0.0-2.0-0.29-0.269-3.269,0,0,0,81,false,stim,false,1,580.6000000238419,1,0,1,70522,task1,1153285,false,false,886,image-keyboard-response,29
true,7,0,1,0,true,q,false,true,0.0-2.0-0.30-0.270-3.270,0,0,0,81,false,stim,false,2,834.8000000119209,1,0,0,70522,task1,1155626,false,false,889,image-keyboard-response,30
true,7,0,1,0,true,q,false,true,0.0-2.0-0.30-0.271-3.271,0,0,0,81,false,stim,false,1,740.0,1,0,1,70522,task1,1157880,false,false,892,image-keyboard-response,31
true,7,1,1,1,true,z,false,true,0.0-2.0-0.30-0.272-3.272,0,0,0,90,false,stim,false,0,1450.0,1,0,2,70522,task1,1160835,false,false,895,image-keyboard-response,32
true,7,0,1,0,true,q,false,true,0.0-2.0-0.30-0.273-3.273,0,0,0,81,false,stim,false,2,777.3000000119209,1,0,0,70522,task1,1163127,false,false,898,image-keyboard-response,33
true,7,1,1,1,true,z,false,true,0.0-2.0-0.30-0.274-3.274,0,0,0,90,false,stim,false,0,1136.699999988079,1,0,2,70522,task1,1165778,false,false,901,image-keyboard-response,34
true,7,0,1,0,true,q,false,true,0.0-2.0-0.30-0.275-3.275,0,0,0,81,false,stim,false,2,491.5,1,0,0,70522,task1,1167784,false,false,904,image-keyboard-response,35
true,7,0,1,0,true,q,false,false,0.0-2.0-0.30-0.276-3.276,0,0,0,81,false,stim,false,1,532.6999999880791,1,0,1,70522,task1,1169827,false,true,907,image-keyboard-response,36
true,7,1,1,1,true,z,false,true,0.0-2.0-0.30-0.277-3.277,0,0,0,90,false,stim,false,0,790.5999999642372,1,0,2,70522,task1,1172126,false,false,910,image-keyboard-response,37
true,7,0,1,0,true,q,false,true,0.0-2.0-0.30-0.278-3.278,0,0,0,81,false,stim,false,1,635.2000000476837,1,0,1,70522,task1,1174269,false,false,913,image-keyboard-response,38
true,7,1,1,1,true,z,false,true,0.0-2.0-0.31-0.279-3.279,0,0,0,90,false,stim,false,0,846.0,1,0,2,70522,task1,1176625,false,false,916,image-keyboard-response,39
true,7,0,1,0,true,q,false,true,0.0-2.0-0.31-0.280-3.280,0,0,0,81,false,stim,false,1,616.1000000238419,1,0,1,70522,task1,1178756,false,false,919,image-keyboard-response,40
true,7,0,1,0,true,q,false,true,0.0-2.0-0.31-0.281-3.281,0,0,0,81,false,stim,false,2,593.6999999880791,1,0,0,70522,task1,1180864,false,false,922,image-keyboard-response,41
true,7,1,1,1,true,z,false,true,0.0-2.0-0.31-0.282-3.282,0,0,0,90,false,stim,false,0,751.6999999880791,1,0,2,70522,task1,1183126,false,false,925,image-keyboard-response,42
true,8,1,1,2,false,d,false,false,0.0-2.0-0.31-0.283-3.283,0,0,0,90,true,stim,true,1,849.0,1,0,2,70522,task1,1185488,false,false,928,image-keyboard-response,1
true,8,0,1,2,false,d,false,false,0.0-2.0-0.31-0.284-3.284,0,0,0,81,false,stim,true,0,528.2000000476837,1,0,0,70522,task1,1187527,false,false,931,image-keyboard-response,2
true,8,0,1,1,false,z,false,false,0.0-2.0-0.31-0.285-3.285,0,0,0,81,false,stim,true,0,554.8000000119209,1,0,1,70522,task1,1189596,false,false,934,image-keyboard-response,3
true,8,0,1,1,false,z,false,false,0.0-2.0-0.31-0.286-3.286,0,0,0,81,false,stim,true,0,439.4000000357628,1,0,1,70522,task1,1191541,false,false,937,image-keyboard-response,4
true,8,0,1,2,false,d,false,false,0.0-2.0-0.31-0.287-3.287,0,0,0,81,false,stim,true,0,539.5,1,0,0,70522,task1,1193590,false,false,940,image-keyboard-response,5
true,8,1,1,2,false,d,true,false,0.0-2.0-0.32-0.288-3.288,0,0,0,90,false,stim,false,0,738.0,1,0,0,70522,task1,1195842,false,false,943,image-keyboard-response,6
true,8,1,1,2,false,d,false,false,0.0-2.0-0.32-0.289-3.289,0,0,0,90,false,stim,true,1,967.6999999880791,1,0,2,70522,task1,1198319,false,false,946,image-keyboard-response,7
true,8,2,1,2,true,d,false,true,0.0-2.0-0.32-0.290-3.290,0,0,0,68,false,stim,false,1,824.5999999642372,1,0,2,70522,task1,1200658,false,false,949,image-keyboard-response,8
true,8,2,1,2,true,d,false,true,0.0-2.0-0.32-0.291-3.291,0,0,0,68,false,stim,false,0,419.89999997615814,1,0,0,70522,task1,1202589,false,false,952,image-keyboard-response,9
true,8,1,1,1,true,z,false,false,0.0-2.0-0.32-0.292-3.292,0,0,0,90,false,stim,false,0,407.89999997615814,1,0,1,70522,task1,1204511,false,true,955,image-keyboard-response,10
true,8,2,1,2,true,d,false,true,0.0-2.0-0.32-0.293-3.293,0,0,0,68,false,stim,false,1,922.3000000119209,1,0,2,70522,task1,1206948,false,false,958,image-keyboard-response,11
true,8,2,1,2,true,d,false,true,0.0-2.0-0.32-0.294-3.294,0,0,0,68,false,stim,false,0,403.9000000357628,1,0,0,70522,task1,1208862,false,false,961,image-keyboard-response,12
true,8,0,1,1,false,z,false,true,0.0-2.0-0.32-0.295-3.295,0,0,0,81,false,stim,true,0,369.7000000476837,1,0,1,70522,task1,1210737,false,true,964,image-keyboard-response,13
true,8,0,1,1,false,z,false,false,0.0-2.0-0.32-0.296-3.296,0,0,0,81,false,stim,true,0,565.8000000119209,1,0,1,70522,task1,1212813,false,false,967,image-keyboard-response,14
true,8,2,1,2,true,d,false,true,0.0-2.0-0.33-0.297-3.297,0,0,0,68,false,stim,false,1,678.8000000119209,1,0,2,70522,task1,1215002,false,false,970,image-keyboard-response,15
true,8,0,1,1,false,z,false,false,0.0-2.0-0.33-0.298-3.298,0,0,0,81,false,stim,true,0,570.3000000119209,1,0,1,70522,task1,1217086,false,false,973,image-keyboard-response,16
true,8,2,1,2,true,d,false,true,0.0-2.0-0.33-0.299-3.299,0,0,0,68,false,stim,false,1,710.5,1,0,2,70522,task1,1219302,false,false,976,image-keyboard-response,17
true,8,2,1,2,true,d,false,false,0.0-2.0-0.33-0.300-3.300,0,0,0,68,false,stim,false,0,981.3999999761581,1,0,0,70522,task1,1221790,false,true,979,image-keyboard-response,18
true,8,2,1,2,true,d,false,true,0.0-2.0-0.33-0.301-3.301,0,0,0,68,false,stim,false,1,923.3000000119209,1,0,2,70522,task1,1224224,false,false,982,image-keyboard-response,19
true,8,2,1,2,true,d,false,true,0.0-2.0-0.33-0.302-3.302,0,0,0,68,false,stim,false,0,1745.199999988079,1,0,0,70522,task1,1227484,false,false,985,image-keyboard-response,20
true,8,0,1,1,false,z,false,false,0.0-2.0-0.33-0.303-3.303,0,0,0,81,false,stim,true,0,817.1000000238419,1,0,1,70522,task1,1229807,false,false,988,image-keyboard-response,21
true,8,0,1,1,false,z,false,false,0.0-2.0-0.33-0.304-3.304,0,0,0,81,false,stim,true,0,1236.5,1,0,1,70522,task1,1232554,false,false,991,image-keyboard-response,22
true,8,2,1,2,true,d,false,true,0.0-2.0-0.33-0.305-3.305,0,0,0,68,false,stim,false,0,866.4000000357628,1,0,0,70522,task1,1234934,false,false,994,image-keyboard-response,23
true,8,2,1,2,true,d,false,true,0.0-2.0-0.34-0.306-3.306,0,0,0,68,false,stim,false,1,1741.199999988079,1,0,2,70522,task1,1238191,false,false,997,image-keyboard-response,24
true,8,0,1,1,false,z,false,false,0.0-2.0-0.34-0.307-3.307,0,0,0,81,false,stim,true,0,961.7999999523163,1,0,1,70522,task1,1240662,false,false,1000,image-keyboard-response,25
true,8,0,1,1,false,z,false,false,0.0-2.0-0.34-0.308-3.308,0,0,0,81,false,stim,true,0,1711.5,1,0,1,70522,task1,1243891,false,false,1003,image-keyboard-response,26
true,8,2,1,2,true,d,false,true,0.0-2.0-0.34-0.309-3.309,0,0,0,68,false,stim,false,0,1200.5,1,0,0,70522,task1,1246604,false,false,1006,image-keyboard-response,27
true,8,2,1,2,true,d,false,true,0.0-2.0-0.34-0.310-3.310,0,0,0,68,false,stim,false,0,942.3000000119209,1,0,0,70522,task1,1249060,false,false,1009,image-keyboard-response,28
true,8,0,1,1,false,z,false,true,0.0-2.0-0.34-0.311-3.311,0,0,0,81,false,stim,true,0,1387.699999988079,1,0,1,70522,task1,1251963,false,true,1012,image-keyboard-response,29
true,8,2,1,2,true,d,false,false,0.0-2.0-0.34-0.312-3.312,0,0,0,68,false,stim,false,1,1126.0,1,0,2,70522,task1,1254603,false,true,1015,image-keyboard-response,30
true,8,2,1,2,true,d,false,true,0.0-2.0-0.34-0.313-3.313,0,0,0,68,false,stim,false,1,1457.699999988079,1,0,2,70522,task1,1257577,false,false,1018,image-keyboard-response,31
true,8,2,1,2,true,d,false,true,0.0-2.0-0.34-0.314-3.314,0,0,0,68,false,stim,false,0,1956.0999999642372,1,0,0,70522,task1,1261042,false,false,1021,image-keyboard-response,32
true,8,0,1,1,false,z,false,false,0.0-2.0-0.35-0.315-3.315,0,0,0,81,false,stim,true,0,700.2000000476837,1,0,1,70522,task1,1263259,false,false,1024,image-keyboard-response,33
true,8,2,1,2,true,d,false,true,0.0-2.0-0.35-0.316-3.316,0,0,0,68,false,stim,false,0,748.1999999880791,1,0,0,70522,task1,1265522,false,false,1027,image-keyboard-response,34
true,8,2,1,2,true,d,false,false,0.0-2.0-0.35-0.317-3.317,0,0,0,68,false,stim,false,1,1244.5,1,0,2,70522,task1,1268281,false,true,1030,image-keyboard-response,35
true,8,2,1,2,true,d,false,true,0.0-2.0-0.35-0.318-3.318,0,0,0,68,false,stim,false,0,2082.199999988079,1,0,0,70522,task1,1271874,false,false,1033,image-keyboard-response,36
true,8,2,1,2,true,d,false,true,0.0-2.0-0.35-0.319-3.319,0,0,0,68,false,stim,false,1,667.1999999880791,1,0,2,70522,task1,1274051,false,false,1036,image-keyboard-response,37
true,8,0,1,1,false,z,false,false,0.0-2.0-0.35-0.320-3.320,0,0,0,81,false,stim,true,0,667.4000000357628,1,0,1,70522,task1,1276225,false,false,1039,image-keyboard-response,38
true,8,2,1,2,true,d,false,true,0.0-2.0-0.35-0.321-3.321,0,0,0,68,false,stim,false,1,482.30000001192093,1,0,2,70522,task1,1278218,false,false,1042,image-keyboard-response,39
true,8,2,1,2,true,d,false,true,0.0-2.0-0.35-0.322-3.322,0,0,0,68,false,stim,false,0,968.2999999523163,1,0,0,70522,task1,1280691,false,false,1045,image-keyboard-response,40
true,8,1,1,1,true,z,false,true,0.0-2.0-0.35-0.323-3.323,0,0,0,90,false,stim,false,0,443.0999999642372,1,0,1,70522,task1,1282649,false,false,1048,image-keyboard-response,41
true,8,2,1,2,true,d,false,true,0.0-2.0-0.36-0.324-3.324,0,0,0,68,false,stim,false,1,720.5999999642372,1,0,2,70522,task1,1284884,false,false,1051,image-keyboard-response,42
true,8,1,1,1,true,z,false,true,0.0-2.0-0.36-0.325-3.325,0,0,0,90,false,stim,false,0,799.6999999880791,1,0,1,70522,task1,1287189,false,false,1054,image-keyboard-response,43
true,8,2,1,2,true,d,false,true,0.0-2.0-0.36-0.326-3.326,0,0,0,68,false,stim,false,0,902.5,1,0,0,70522,task1,1289606,false,false,1057,image-keyboard-response,44
true,8,2,1,2,true,d,false,true,0.0-2.0-0.36-0.327-3.327,0,0,0,68,false,stim,false,1,845.7999999523163,1,0,2,70522,task1,1291965,false,false,1060,image-keyboard-response,45
true,9,2,1,1,false,z,false,false,0.0-2.0-0.36-0.328-3.328,0,0,0,68,true,stim,true,2,717.5999999642372,1,0,0,70522,task1,1294193,false,false,1063,image-keyboard-response,1
true,9,2,1,1,false,z,false,false,0.0-2.0-0.36-0.329-3.329,0,0,0,68,false,stim,true,2,816.5999999642372,1,0,0,70522,task1,1296522,false,false,1066,image-keyboard-response,2
true,9,1,1,2,false,d,false,true,0.0-2.0-0.36-0.330-3.330,0,0,0,90,false,stim,true,1,440.80000001192093,1,0,1,70522,task1,1298477,false,true,1069,image-keyboard-response,3
true,9,1,1,2,false,d,false,false,0.0-2.0-0.36-0.331-3.331,0,0,0,90,false,stim,true,1,633.2000000476837,1,0,1,70522,task1,1300622,false,false,1072,image-keyboard-response,4
true,9,2,1,1,false,z,false,false,0.0-2.0-0.36-0.332-3.332,0,0,0,68,false,stim,true,2,892.1000000238419,1,0,2,70522,task1,1303026,false,false,1075,image-keyboard-response,5
true,9,2,1,1,false,z,false,false,0.0-2.0-0.37-0.333-3.333,0,0,0,68,false,stim,true,2,859.6999999880791,1,0,0,70522,task1,1305401,false,false,1078,image-keyboard-response,6
true,9,1,1,2,false,d,false,false,0.0-2.0-0.37-0.334-3.334,0,0,0,90,false,stim,true,1,441.10000002384186,1,0,1,70522,task1,1307353,false,false,1081,image-keyboard-response,7
true,9,1,1,1,true,z,false,true,0.0-2.0-0.37-0.335-3.335,0,0,0,90,false,stim,false,2,1254.699999988079,1,0,2,70522,task1,1310117,false,false,1084,image-keyboard-response,8
true,9,1,1,1,true,z,false,true,0.0-2.0-0.37-0.336-3.336,0,0,0,90,false,stim,false,2,522.6000000238419,1,0,2,70522,task1,1312150,false,false,1087,image-keyboard-response,9
true,9,0,1,1,false,z,true,false,0.0-2.0-0.37-0.337-3.337,0,0,0,81,false,stim,false,2,808.0999999642372,1,0,0,70522,task1,1314468,false,false,1090,image-keyboard-response,10
true,9,1,1,1,true,z,false,true,0.0-2.0-0.37-0.338-3.338,0,0,0,90,false,stim,false,2,535.2000000476837,1,0,0,70522,task1,1316513,false,false,1093,image-keyboard-response,11
true,9,1,1,1,true,z,false,true,0.0-2.0-0.37-0.339-3.339,0,0,0,90,false,stim,false,2,667.8999999761581,1,0,2,70522,task1,1318689,false,false,1096,image-keyboard-response,12
true,9,2,1,2,true,d,false,true,0.0-2.0-0.37-0.340-3.340,0,0,0,68,false,stim,false,1,672.2999999523163,1,0,1,70522,task1,1320876,false,false,1099,image-keyboard-response,13
true,9,2,1,2,true,d,false,true,0.0-2.0-0.37-0.341-3.341,0,0,0,68,false,stim,false,1,531.1999999880791,1,0,1,70522,task1,1322923,false,false,1102,image-keyboard-response,14
true,9,2,1,2,true,d,false,true,0.0-2.0-0.38-0.342-3.342,0,0,0,68,false,stim,false,1,771.9000000357628,1,0,1,70522,task1,1325209,false,false,1105,image-keyboard-response,15
true,9,1,1,1,true,z,false,true,0.0-2.0-0.38-0.343-3.343,0,0,0,90,false,stim,false,2,835.6000000238419,1,0,2,70522,task1,1327559,false,false,1108,image-keyboard-response,16
true,9,1,1,1,true,z,false,false,0.0-2.0-0.38-0.344-3.344,0,0,0,90,false,stim,false,2,1152.0,1,0,2,70522,task1,1330221,false,true,1111,image-keyboard-response,17
true,9,1,1,1,true,z,false,true,0.0-2.0-0.38-0.345-3.345,0,0,0,90,false,stim,false,2,624.7999999523163,1,0,0,70522,task1,1332355,false,false,1114,image-keyboard-response,18
true,9,1,1,2,false,d,false,false,0.0-2.0-0.38-0.346-3.346,0,0,0,90,false,stim,true,1,385.89999997615814,1,0,1,70522,task1,1334250,false,false,1117,image-keyboard-response,19
true,9,1,1,1,true,z,false,true,0.0-2.0-0.38-0.347-3.347,0,0,0,90,false,stim,false,2,723.8999999761581,1,0,0,70522,task1,1336487,false,false,1120,image-keyboard-response,20
true,9,1,1,1,true,z,false,true,0.0-2.0-0.38-0.348-3.348,0,0,0,90,false,stim,false,2,431.5,1,0,0,70522,task1,1338433,false,false,1123,image-keyboard-response,21
true,9,2,1,2,true,d,false,true,0.0-2.0-0.38-0.349-3.349,0,0,0,68,false,stim,false,1,872.0,1,0,1,70522,task1,1340815,false,false,1126,image-keyboard-response,22
true,9,1,1,1,true,z,false,false,0.0-2.0-0.38-0.350-3.350,0,0,0,90,false,stim,false,2,572.9000000357628,1,0,2,70522,task1,1342901,false,true,1129,image-keyboard-response,23
true,9,1,1,1,true,z,false,false,0.0-2.0-0.39-0.351-3.351,0,0,0,90,false,stim,false,2,653.7999999523163,1,0,0,70522,task1,1345071,false,true,1132,image-keyboard-response,24
true,9,1,1,1,true,z,false,true,0.0-2.0-0.39-0.352-3.352,0,0,0,90,false,stim,false,2,573.5999999642372,1,0,0,70522,task1,1347159,false,false,1135,image-keyboard-response,25
true,9,0,1,1,false,z,true,false,0.0-2.0-0.39-0.353-3.353,0,0,0,81,false,stim,false,2,525.5,1,0,2,70522,task1,1349195,false,false,1138,image-keyboard-response,26
true,9,0,1,1,false,z,true,false,0.0-2.0-0.39-0.354-3.354,0,0,0,81,false,stim,false,2,595.6000000238419,1,0,2,70522,task1,1351305,false,false,1141,image-keyboard-response,27
true,9,2,1,2,true,d,false,true,0.0-2.0-0.39-0.355-3.355,0,0,0,68,false,stim,false,1,826.3999999761581,1,0,1,70522,task1,1353642,false,false,1144,image-keyboard-response,28
true,9,1,1,1,true,z,false,true,0.0-2.0-0.39-0.356-3.356,0,0,0,90,false,stim,false,2,398.0,1,0,2,70522,task1,1355554,false,false,1147,image-keyboard-response,29
true,9,2,1,2,true,d,false,true,0.0-2.0-0.39-0.357-3.357,0,0,0,68,false,stim,false,1,559.6999999880791,1,0,1,70522,task1,1357624,false,false,1150,image-keyboard-response,30
true,9,2,1,2,true,d,false,true,0.0-2.0-0.39-0.358-3.358,0,0,0,68,false,stim,false,1,796.5,1,0,1,70522,task1,1359931,false,false,1153,image-keyboard-response,31
true,9,1,1,1,true,z,false,true,0.0-2.0-0.39-0.359-3.359,0,0,0,90,false,stim,false,2,1131.699999988079,1,0,0,70522,task1,1362578,false,false,1156,image-keyboard-response,32
true,9,2,1,1,false,z,false,false,0.0-2.0-0.40-0.360-3.360,0,0,0,68,false,stim,true,2,762.0,1,0,2,70522,task1,1364849,false,false,1159,image-keyboard-response,33
true,9,2,1,2,true,d,false,false,0.0-2.0-0.40-0.361-3.361,0,0,0,68,false,stim,false,1,833.8999999761581,1,0,1,70522,task1,1367192,false,true,1162,image-keyboard-response,34
true,9,2,1,2,true,d,false,true,0.0-2.0-0.40-0.362-3.362,0,0,0,68,false,stim,false,1,745.5999999642372,1,0,1,70522,task1,1369447,false,false,1165,image-keyboard-response,35
true,9,1,1,1,true,z,false,true,0.0-2.0-0.40-0.363-3.363,0,0,0,90,false,stim,false,2,654.3999999761581,1,0,0,70522,task1,1371616,false,false,1168,image-keyboard-response,36
true,9,1,1,1,true,z,false,false,0.0-2.0-0.40-0.364-3.364,0,0,0,90,false,stim,false,2,426.80000001192093,1,0,0,70522,task1,1373553,false,true,1171,image-keyboard-response,37
true,9,1,1,1,true,z,false,true,0.0-2.0-0.40-0.365-3.365,0,0,0,90,false,stim,false,2,779.5,1,0,2,70522,task1,1375840,false,false,1174,image-keyboard-response,38
true,9,2,1,2,true,d,false,true,0.0-2.0-0.40-0.366-3.366,0,0,0,68,false,stim,false,1,1021.4000000357628,1,0,1,70522,task1,1378372,false,false,1177,image-keyboard-response,39
true,9,1,1,1,true,z,false,true,0.0-2.0-0.40-0.367-3.367,0,0,0,90,false,stim,false,2,557.2999999523163,1,0,0,70522,task1,1380440,false,false,1180,image-keyboard-response,40
true,10,1,2,0,false,q,false,true,0.0-2.0-0.40-0.368-3.368,0,0,0,90,true,stim,true,1,759.6000000238419,1,0,2,70522,task1,1382712,false,true,1183,image-keyboard-response,1
true,10,1,2,0,false,q,false,false,0.0-2.0-0.41-0.369-3.369,0,0,0,90,false,stim,true,1,547.0999999642372,1,0,2,70522,task1,1384774,false,false,1186,image-keyboard-response,2
true,10,1,2,0,false,q,false,false,0.0-2.0-0.41-0.370-3.370,0,0,0,90,false,stim,true,1,1028.8999999761581,1,0,2,70522,task1,1387313,false,false,1189,image-keyboard-response,3
true,10,1,2,2,false,d,false,false,0.0-2.0-0.41-0.371-3.371,0,0,0,90,false,stim,true,1,1129.199999988079,1,0,0,70522,task1,1389956,false,false,1192,image-keyboard-response,4
true,10,2,2,1,false,z,false,false,0.0-2.0-0.41-0.372-3.372,0,0,0,68,false,stim,true,2,580.8000000119209,1,0,1,70522,task1,1392053,false,false,1195,image-keyboard-response,5
true,10,1,2,2,false,d,false,false,0.0-2.0-0.41-0.373-3.373,0,0,0,90,false,stim,true,1,630.2000000476837,1,0,0,70522,task1,1394192,false,false,1198,image-keyboard-response,6
true,10,0,2,1,false,z,true,false,0.0-2.0-0.41-0.374-3.374,0,0,0,81,false,stim,false,2,1149.800000011921,1,0,1,70522,task1,1396861,false,false,1201,image-keyboard-response,7
true,10,0,2,0,true,q,false,true,0.0-2.0-0.41-0.375-3.375,0,0,0,81,false,stim,false,1,999.4000000357628,1,0,2,70522,task1,1399376,false,false,1204,image-keyboard-response,8
true,10,0,2,2,false,d,true,false,0.0-2.0-0.41-0.376-3.376,0,0,0,81,false,stim,false,1,931.9000000357628,1,0,0,70522,task1,1401823,false,false,1207,image-keyboard-response,9
true,10,0,2,1,false,z,true,false,0.0-2.0-0.41-0.377-3.377,0,0,0,81,false,stim,false,2,981.1999999880791,1,0,1,70522,task1,1404315,false,false,1210,image-keyboard-response,10
true,10,2,2,2,true,d,false,true,0.0-2.0-0.42-0.378-3.378,0,0,0,68,false,stim,false,1,832.5,1,0,0,70522,task1,1406660,false,false,1213,image-keyboard-response,11
true,10,0,2,0,true,q,false,true,0.0-2.0-0.42-0.379-3.379,0,0,0,81,false,stim,false,1,760.7000000476837,1,0,2,70522,task1,1408932,false,false,1216,image-keyboard-response,12
true,10,2,2,2,true,d,false,false,0.0-2.0-0.42-0.380-3.380,0,0,0,68,false,stim,false,1,837.8999999761581,1,0,0,70522,task1,1411281,false,true,1219,image-keyboard-response,13
true,10,1,2,1,true,z,false,true,0.0-2.0-0.42-0.381-3.381,0,0,0,90,false,stim,false,2,520.8000000119209,1,0,1,70522,task1,1413312,false,false,1222,image-keyboard-response,14
true,10,1,2,1,true,z,false,true,0.0-2.0-0.42-0.382-3.382,0,0,0,90,false,stim,false,2,646.5,1,0,1,70522,task1,1415465,false,false,1225,image-keyboard-response,15
true,10,0,2,0,true,q,false,true,0.0-2.0-0.42-0.383-3.383,0,0,0,81,false,stim,false,1,613.0,1,0,2,70522,task1,1417593,false,false,1228,image-keyboard-response,16
true,10,0,2,0,true,q,false,false,0.0-2.0-0.42-0.384-3.384,0,0,0,81,false,stim,false,1,1025.5,1,0,2,70522,task1,1420139,false,true,1231,image-keyboard-response,17
true,10,1,2,1,true,z,false,true,0.0-2.0-0.42-0.385-3.385,0,0,0,90,false,stim,false,2,756.2999999523163,1,0,1,70522,task1,1422406,false,false,1234,image-keyboard-response,18
true,10,2,2,2,true,d,false,false,0.0-2.0-0.42-0.386-3.386,0,0,0,68,false,stim,false,1,442.4000000357628,1,0,0,70522,task1,1424361,false,true,1237,image-keyboard-response,19
true,10,0,2,0,true,q,false,true,0.0-2.0-0.43-0.387-3.387,0,0,0,81,false,stim,false,1,619.6000000238419,1,0,2,70522,task1,1426494,false,false,1240,image-keyboard-response,20
true,10,0,2,2,false,d,true,true,0.0-2.0-0.43-0.388-3.388,0,0,0,81,false,stim,false,1,505.30000001192093,1,0,0,70522,task1,1428512,false,true,1243,image-keyboard-response,21
true,10,0,2,0,true,q,false,true,0.0-2.0-0.43-0.389-3.389,0,0,0,81,false,stim,false,1,654.0,1,0,2,70522,task1,1430680,false,false,1246,image-keyboard-response,22
true,10,1,2,1,true,z,false,true,0.0-2.0-0.43-0.390-3.390,0,0,0,90,false,stim,false,2,783.8999999761581,1,0,1,70522,task1,1432977,false,false,1249,image-keyboard-response,23
true,10,1,2,1,true,z,false,true,0.0-2.0-0.43-0.391-3.391,0,0,0,90,false,stim,false,2,652.0,1,0,1,70522,task1,1435141,false,false,1252,image-keyboard-response,24
true,10,0,2,2,false,d,true,false,0.0-2.0-0.43-0.392-3.392,0,0,0,81,false,stim,false,1,765.0,1,0,0,70522,task1,1437423,false,false,1255,image-keyboard-response,25
true,10,1,2,1,true,z,false,false,0.0-2.0-0.43-0.393-3.393,0,0,0,90,false,stim,false,2,1388.8999999761581,1,0,1,70522,task1,1440324,false,true,1258,image-keyboard-response,26
true,10,0,2,0,true,q,false,true,0.0-2.0-0.43-0.394-3.394,0,0,0,81,false,stim,false,1,983.5,1,0,2,70522,task1,1442823,false,false,1261,image-keyboard-response,27
true,10,2,2,2,true,d,false,true,0.0-2.0-0.43-0.395-3.395,0,0,0,68,false,stim,false,1,887.5,1,0,0,70522,task1,1445227,false,false,1264,image-keyboard-response,28
true,10,0,2,0,true,q,false,true,0.0-2.0-0.44-0.396-3.396,0,0,0,81,false,stim,false,1,768.5999999642372,1,0,2,70522,task1,1447512,false,false,1267,image-keyboard-response,29
true,10,1,2,1,true,z,false,true,0.0-2.0-0.44-0.397-3.397,0,0,0,90,false,stim,false,2,719.1999999880791,1,0,1,70522,task1,1449743,false,false,1270,image-keyboard-response,30
true,10,1,2,1,true,z,false,true,0.0-2.0-0.44-0.398-3.398,0,0,0,90,false,stim,false,2,662.0,1,0,1,70522,task1,1451915,false,false,1273,image-keyboard-response,31
true,10,2,2,2,true,d,false,true,0.0-2.0-0.44-0.399-3.399,0,0,0,68,false,stim,false,1,900.6999999880791,1,0,0,70522,task1,1454329,false,false,1276,image-keyboard-response,32
true,10,0,2,0,true,q,false,true,0.0-2.0-0.44-0.400-3.400,0,0,0,81,false,stim,false,1,539.4000000357628,1,0,2,70522,task1,1456378,false,false,1279,image-keyboard-response,33
true,10,0,2,0,true,q,false,true,0.0-2.0-0.44-0.401-3.401,0,0,0,81,false,stim,false,1,708.8000000119209,1,0,2,70522,task1,1458599,false,false,1282,image-keyboard-response,34
true,10,2,2,2,true,d,false,true,0.0-2.0-0.44-0.402-3.402,0,0,0,68,false,stim,false,1,689.8000000119209,1,0,0,70522,task1,1460804,false,false,1285,image-keyboard-response,35
true,10,1,2,1,true,z,false,true,0.0-2.0-0.44-0.403-3.403,0,0,0,90,false,stim,false,2,642.2000000476837,1,0,1,70522,task1,1462957,false,false,1288,image-keyboard-response,36
true,10,2,2,2,true,d,false,true,0.0-2.0-0.44-0.404-3.404,0,0,0,68,false,stim,false,1,821.4000000357628,1,0,0,70522,task1,1465293,false,false,1291,image-keyboard-response,37
true,10,2,2,2,true,d,false,true,0.0-2.0-0.45-0.405-3.405,0,0,0,68,false,stim,false,1,916.3000000119209,1,0,0,70522,task1,1467717,false,false,1294,image-keyboard-response,38
true,10,2,2,2,true,d,false,true,0.0-2.0-0.45-0.406-3.406,0,0,0,68,false,stim,false,1,1206.5999999642372,1,0,0,70522,task1,1470432,false,false,1297,image-keyboard-response,39
true,10,1,2,1,true,z,false,true,0.0-2.0-0.45-0.407-3.407,0,0,0,90,false,stim,false,2,631.0,1,0,1,70522,task1,1472579,false,false,1300,image-keyboard-response,40
true,10,0,2,0,true,q,false,true,0.0-2.0-0.45-0.408-3.408,0,0,0,81,false,stim,false,1,917.3999999761581,1,0,2,70522,task1,1475014,false,false,1303,image-keyboard-response,41
true,10,1,2,1,true,z,false,true,0.0-2.0-0.45-0.409-3.409,0,0,0,90,false,stim,false,2,602.1000000238419,1,0,1,70522,task1,1477127,false,false,1306,image-keyboard-response,42
true,10,0,2,0,true,q,false,true,0.0-2.0-0.45-0.410-3.410,0,0,0,81,false,stim,false,1,619.0,1,0,2,70522,task1,1479261,false,false,1309,image-keyboard-response,43
true,11,0,2,2,false,d,false,false,0.0-2.0-0.45-0.411-3.411,0,0,0,81,true,stim,true,0,663.0,1,0,2,70522,task1,1481437,false,false,1312,image-keyboard-response,1
true,11,2,2,0,false,q,false,false,0.0-2.0-0.45-0.412-3.412,0,0,0,68,false,stim,true,2,673.3999999761581,1,0,0,70522,task1,1483626,false,false,1315,image-keyboard-response,2
true,11,1,2,2,false,d,false,false,0.0-2.0-0.45-0.413-3.413,0,0,0,90,false,stim,true,1,604.0999999642372,1,0,1,70522,task1,1485741,false,false,1318,image-keyboard-response,3
true,11,1,2,2,false,d,false,false,0.0-2.0-0.46-0.414-3.414,0,0,0,90,false,stim,true,1,598.8000000119209,1,0,1,70522,task1,1487850,false,false,1321,image-keyboard-response,4
true,11,2,2,0,false,q,false,false,0.0-2.0-0.46-0.415-3.415,0,0,0,68,false,stim,true,2,704.0,1,0,0,70522,task1,1490065,false,false,1324,image-keyboard-response,5
true,11,0,2,0,true,q,false,true,0.0-2.0-0.46-0.416-3.416,0,0,0,81,false,stim,false,2,422.5,1,0,0,70522,task1,1491998,false,false,1327,image-keyboard-response,6
true,11,0,2,0,true,q,false,true,0.0-2.0-0.46-0.417-3.417,0,0,0,81,false,stim,false,2,583.0,1,0,0,70522,task1,1494097,false,false,1330,image-keyboard-response,7
true,11,0,2,2,false,d,false,false,0.0-2.0-0.46-0.418-3.418,0,0,0,81,false,stim,true,0,851.0,1,0,2,70522,task1,1496461,false,false,1333,image-keyboard-response,8
true,11,1,2,2,false,d,true,false,0.0-2.0-0.46-0.419-3.419,0,0,0,90,false,stim,false,0,607.3999999761581,1,0,2,70522,task1,1498582,false,false,1336,image-keyboard-response,9
true,11,2,2,2,true,d,false,false,0.0-2.0-0.46-0.420-3.420,0,0,0,68,false,stim,false,1,777.8000000119209,1,0,1,70522,task1,1500873,false,true,1339,image-keyboard-response,10
true,11,0,2,2,false,d,true,false,0.0-2.0-0.46-0.421-3.421,0,0,0,81,false,stim,false,1,444.10000002384186,1,0,1,70522,task1,1502832,false,false,1342,image-keyboard-response,11
true,11,2,2,2,true,d,false,true,0.0-2.0-0.46-0.422-3.422,0,0,0,68,false,stim,false,0,758.6999999880791,1,0,2,70522,task1,1505099,false,false,1345,image-keyboard-response,12
true,11,0,2,0,true,q,false,true,0.0-2.0-0.47-0.423-3.423,0,0,0,81,false,stim,false,2,638.5999999642372,1,0,0,70522,task1,1507248,false,false,1348,image-keyboard-response,13
true,11,0,2,2,false,d,true,false,0.0-2.0-0.47-0.424-3.424,0,0,0,81,false,stim,false,1,1327.5999999642372,1,0,1,70522,task1,1510086,false,false,1351,image-keyboard-response,14
true,11,2,2,2,true,d,false,true,0.0-2.0-0.47-0.425-3.425,0,0,0,68,false,stim,false,0,664.6000000238419,1,0,2,70522,task1,1512260,false,false,1354,image-keyboard-response,15
true,11,0,2,0,true,q,false,true,0.0-2.0-0.47-0.426-3.426,0,0,0,81,false,stim,false,2,624.6000000238419,1,0,0,70522,task1,1514396,false,false,1357,image-keyboard-response,16
true,11,1,2,2,false,d,false,false,0.0-2.0-0.47-0.427-3.427,0,0,0,90,false,stim,true,1,627.0999999642372,1,0,1,70522,task1,1516538,false,false,1360,image-keyboard-response,17
true,11,0,2,0,true,q,false,true,0.0-2.0-0.47-0.428-3.428,0,0,0,81,false,stim,false,2,640.7999999523163,1,0,0,70522,task1,1518693,false,false,1363,image-keyboard-response,18
true,11,2,2,2,true,d,false,true,0.0-2.0-0.47-0.429-3.429,0,0,0,68,false,stim,false,0,520.5999999642372,1,0,2,70522,task1,1520724,false,false,1366,image-keyboard-response,19
true,11,2,2,2,true,d,false,true,0.0-2.0-0.47-0.430-3.430,0,0,0,68,false,stim,false,0,818.2999999523163,1,0,2,70522,task1,1523059,false,false,1369,image-keyboard-response,20
true,11,2,2,2,true,d,false,true,0.0-2.0-0.47-0.431-3.431,0,0,0,68,false,stim,false,1,750.4000000357628,1,0,1,70522,task1,1525320,false,false,1372,image-keyboard-response,21
true,11,2,2,2,true,d,false,true,0.0-2.0-0.48-0.432-3.432,0,0,0,68,false,stim,false,0,572.3000000119209,1,0,2,70522,task1,1527408,false,false,1375,image-keyboard-response,22
true,11,2,2,2,true,d,false,true,0.0-2.0-0.48-0.433-3.433,0,0,0,68,false,stim,false,1,771.0999999642372,1,0,1,70522,task1,1529690,false,false,1378,image-keyboard-response,23
true,11,2,2,2,true,d,false,true,0.0-2.0-0.48-0.434-3.434,0,0,0,68,false,stim,false,0,814.5,1,0,2,70522,task1,1532015,false,false,1381,image-keyboard-response,24
true,11,0,2,0,true,q,false,true,0.0-2.0-0.48-0.435-3.435,0,0,0,81,false,stim,false,2,513.8000000119209,1,0,0,70522,task1,1534042,false,false,1384,image-keyboard-response,25
true,11,0,2,0,true,q,false,true,0.0-2.0-0.48-0.436-3.436,0,0,0,81,false,stim,false,2,596.8999999761581,1,0,0,70522,task1,1536149,false,false,1387,image-keyboard-response,26
true,11,2,2,2,true,d,false,true,0.0-2.0-0.48-0.437-3.437,0,0,0,68,false,stim,false,1,904.5,1,0,1,70522,task1,1538567,false,false,1390,image-keyboard-response,27
true,11,0,2,0,true,q,false,false,0.0-2.0-0.48-0.438-3.438,0,0,0,81,false,stim,false,2,612.1999999880791,1,0,0,70522,task1,1540688,false,true,1393,image-keyboard-response,28
true,11,2,2,2,true,d,false,true,0.0-2.0-0.48-0.439-3.439,0,0,0,68,false,stim,false,0,733.3000000119209,1,0,2,70522,task1,1542934,false,false,1396,image-keyboard-response,29
true,11,2,2,2,true,d,false,true,0.0-2.0-0.48-0.440-3.440,0,0,0,68,false,stim,false,1,648.6000000238419,1,0,1,70522,task1,1545089,false,false,1399,image-keyboard-response,30
true,11,2,2,2,true,d,false,true,0.0-2.0-0.49-0.441-3.441,0,0,0,68,false,stim,false,0,757.5,1,0,2,70522,task1,1547367,false,false,1402,image-keyboard-response,31
true,11,2,2,2,true,d,false,true,0.0-2.0-0.49-0.442-3.442,0,0,0,68,false,stim,false,1,1507.8999999761581,1,0,1,70522,task1,1550390,false,false,1405,image-keyboard-response,32
true,11,2,2,2,true,d,false,true,0.0-2.0-0.49-0.443-3.443,0,0,0,68,false,stim,false,0,777.6999999880791,1,0,2,70522,task1,1552679,false,false,1408,image-keyboard-response,33
true,11,2,2,2,true,d,false,true,0.0-2.0-0.49-0.444-3.444,0,0,0,68,false,stim,false,0,455.19999998807907,1,0,2,70522,task1,1554644,false,false,1411,image-keyboard-response,34
true,11,2,2,2,true,d,false,false,0.0-2.0-0.49-0.445-3.445,0,0,0,68,false,stim,false,1,744.8000000119209,1,0,1,70522,task1,1556905,false,true,1414,image-keyboard-response,35
true,11,0,2,0,true,q,false,true,0.0-2.0-0.49-0.446-3.446,0,0,0,81,false,stim,false,2,649.8999999761581,1,0,0,70522,task1,1559067,false,false,1417,image-keyboard-response,36
true,11,2,2,2,true,d,false,true,0.0-2.0-0.49-0.447-3.447,0,0,0,68,false,stim,false,1,1056.7000000476837,1,0,1,70522,task1,1561636,false,false,1420,image-keyboard-response,37
true,11,0,2,0,true,q,false,true,0.0-2.0-0.49-0.448-3.448,0,0,0,81,false,stim,false,2,479.0,1,0,0,70522,task1,1563627,false,false,1423,image-keyboard-response,38
true,11,0,2,0,true,q,false,true,0.0-2.0-0.49-0.449-3.449,0,0,0,81,false,stim,false,2,779.1000000238419,1,0,0,70522,task1,1565915,false,false,1426,image-keyboard-response,39
true,12,2,2,0,false,q,false,false,0.0-2.0-0.50-0.450-3.450,0,0,0,68,true,stim,true,2,606.9000000357628,1,0,2,70522,task1,1568038,false,false,1429,image-keyboard-response,1
true,12,0,2,2,false,d,false,false,0.0-2.0-0.50-0.451-3.451,0,0,0,81,false,stim,true,0,547.6000000238419,1,0,0,70522,task1,1570100,false,false,1432,image-keyboard-response,2
true,12,0,2,2,false,d,false,false,0.0-2.0-0.50-0.452-3.452,0,0,0,81,false,stim,true,0,403.80000001192093,1,0,0,70522,task1,1572020,false,false,1435,image-keyboard-response,3
true,12,1,2,2,false,d,true,false,0.0-2.0-0.50-0.453-3.453,0,0,0,90,false,stim,false,0,414.39999997615814,1,0,0,70522,task1,1573945,false,false,1438,image-keyboard-response,4
true,12,1,2,1,true,z,false,true,0.0-2.0-0.50-0.454-3.454,0,0,0,90,false,stim,false,2,960.5,1,0,1,70522,task1,1576416,false,false,1441,image-keyboard-response,5
true,12,1,2,0,false,q,true,false,0.0-2.0-0.50-0.455-3.455,0,0,0,90,false,stim,false,2,1032.199999988079,1,0,2,70522,task1,1578959,false,false,1444,image-keyboard-response,6
true,12,0,2,0,true,q,false,true,0.0-2.0-0.50-0.456-3.456,0,0,0,81,false,stim,false,2,533.5999999642372,1,0,2,70522,task1,1581005,false,false,1447,image-keyboard-response,7
true,12,0,2,1,false,z,true,false,0.0-2.0-0.50-0.457-3.457,0,0,0,81,false,stim,false,2,689.8999999761581,1,0,1,70522,task1,1583207,false,false,1450,image-keyboard-response,8
true,12,1,2,1,true,z,false,false,0.0-2.0-0.50-0.458-3.458,0,0,0,90,false,stim,false,2,434.5,1,0,1,70522,task1,1585155,false,true,1453,image-keyboard-response,9
true,12,0,2,0,true,q,false,true,0.0-2.0-0.51-0.459-3.459,0,0,0,81,false,stim,false,2,540.6999999880791,1,0,2,70522,task1,1587205,false,false,1456,image-keyboard-response,10
true,12,2,2,2,true,d,false,true,0.0-2.0-0.51-0.460-3.460,0,0,0,68,false,stim,false,0,737.3999999761581,1,0,0,70522,task1,1589454,false,false,1459,image-keyboard-response,11
true,12,1,2,1,true,z,false,true,0.0-2.0-0.51-0.461-3.461,0,0,0,90,false,stim,false,2,501.9000000357628,1,0,1,70522,task1,1591463,false,false,1462,image-keyboard-response,12
true,12,1,2,1,true,z,false,true,0.0-2.0-0.51-0.462-3.462,0,0,0,90,false,stim,false,2,533.6999999880791,1,0,1,70522,task1,1593513,false,false,1465,image-keyboard-response,13
true,12,0,2,0,true,q,false,true,0.0-2.0-0.51-0.463-3.463,0,0,0,81,false,stim,false,2,750.9000000357628,1,0,2,70522,task1,1595778,false,false,1468,image-keyboard-response,14
true,12,2,2,2,true,d,false,true,0.0-2.0-0.51-0.464-3.464,0,0,0,68,false,stim,false,0,722.6000000238419,1,0,0,70522,task1,1598017,false,false,1471,image-keyboard-response,15
true,12,1,2,1,true,z,false,true,0.0-2.0-0.51-0.465-3.465,0,0,0,90,false,stim,false,2,781.3000000119209,1,0,1,70522,task1,1600314,false,false,1474,image-keyboard-response,16
true,12,2,2,2,true,d,false,true,0.0-2.0-0.51-0.466-3.466,0,0,0,68,false,stim,false,0,616.6999999880791,1,0,0,70522,task1,1602441,false,false,1477,image-keyboard-response,17
true,12,0,2,0,true,q,false,true,0.0-2.0-0.51-0.467-3.467,0,0,0,81,false,stim,false,2,1106.0,1,0,2,70522,task1,1605059,false,false,1480,image-keyboard-response,18
true,12,2,2,2,true,d,false,true,0.0-2.0-0.52-0.468-3.468,0,0,0,68,false,stim,false,0,782.3999999761581,1,0,0,70522,task1,1607357,false,false,1483,image-keyboard-response,19
true,12,0,2,0,true,q,false,true,0.0-2.0-0.52-0.469-3.469,0,0,0,81,false,stim,false,2,824.0999999642372,1,0,2,70522,task1,1609696,false,false,1486,image-keyboard-response,20
true,12,1,2,1,true,z,false,true,0.0-2.0-0.52-0.470-3.470,0,0,0,90,false,stim,false,2,713.4000000357628,1,0,1,70522,task1,1611920,false,false,1489,image-keyboard-response,21
true,12,0,2,0,true,q,false,true,0.0-2.0-0.52-0.471-3.471,0,0,0,81,false,stim,false,2,846.5999999642372,1,0,2,70522,task1,1614277,false,false,1492,image-keyboard-response,22
true,12,2,2,2,true,d,false,true,0.0-2.0-0.52-0.472-3.472,0,0,0,68,false,stim,false,0,640.7000000476837,1,0,0,70522,task1,1616424,false,false,1495,image-keyboard-response,23
true,12,1,2,1,true,z,false,true,0.0-2.0-0.52-0.473-3.473,0,0,0,90,false,stim,false,2,661.5,1,0,1,70522,task1,1618599,false,false,1498,image-keyboard-response,24
true,12,1,2,1,true,z,false,true,0.0-2.0-0.52-0.474-3.474,0,0,0,90,false,stim,false,2,723.8000000119209,1,0,1,70522,task1,1620849,false,false,1501,image-keyboard-response,25
true,12,0,2,0,true,q,false,true,0.0-2.0-0.52-0.475-3.475,0,0,0,81,false,stim,false,2,618.0,1,0,2,70522,task1,1622973,false,false,1504,image-keyboard-response,26
true,12,2,2,2,true,d,false,true,0.0-2.0-0.52-0.476-3.476,0,0,0,68,false,stim,false,0,649.6999999880791,1,0,0,70522,task1,1625132,false,false,1507,image-keyboard-response,27
true,12,2,2,2,true,d,false,true,0.0-2.0-0.53-0.477-3.477,0,0,0,68,false,stim,false,0,676.6000000238419,1,0,0,70522,task1,1627322,false,false,1510,image-keyboard-response,28
true,12,0,2,0,true,q,false,true,0.0-2.0-0.53-0.478-3.478,0,0,0,81,false,stim,false,2,713.3999999761581,1,0,2,70522,task1,1629551,false,false,1513,image-keyboard-response,29
true,12,1,2,1,true,z,false,true,0.0-2.0-0.53-0.479-3.479,0,0,0,90,false,stim,false,2,630.8000000119209,1,0,1,70522,task1,1631695,false,false,1516,image-keyboard-response,30
true,12,0,2,0,true,q,false,true,0.0-2.0-0.53-0.480-3.480,0,0,0,81,false,stim,false,2,969.3000000119209,1,0,2,70522,task1,1634182,false,false,1519,image-keyboard-response,31
true,12,1,2,1,true,z,false,true,0.0-2.0-0.53-0.481-3.481,0,0,0,90,false,stim,false,2,905.5,1,0,1,70522,task1,1636602,false,false,1522,image-keyboard-response,32
true,12,2,2,2,true,d,false,true,0.0-2.0-0.53-0.482-3.482,0,0,0,68,false,stim,false,0,611.6999999880791,1,0,0,70522,task1,1638730,false,false,1525,image-keyboard-response,33
true,12,0,2,0,true,q,false,true,0.0-2.0-0.53-0.483-3.483,0,0,0,81,false,stim,false,2,592.5,1,0,2,70522,task1,1640838,false,false,1528,image-keyboard-response,34
true,12,1,2,1,true,z,false,true,0.0-2.0-0.53-0.484-3.484,0,0,0,90,false,stim,false,2,508.30000001192093,1,0,1,70522,task1,1642860,false,false,1531,image-keyboard-response,35
true,12,2,2,2,true,d,false,true,0.0-2.0-0.53-0.485-3.485,0,0,0,68,false,stim,false,0,524.6999999880791,1,0,0,70522,task1,1644891,false,false,1534,image-keyboard-response,36
true,12,0,2,0,true,q,false,true,0.0-2.0-0.54-0.486-3.486,0,0,0,81,false,stim,false,2,823.8999999761581,1,0,2,70522,task1,1647231,false,false,1537,image-keyboard-response,37
true,12,1,2,1,true,z,false,true,0.0-2.0-0.54-0.487-3.487,0,0,0,90,false,stim,false,2,438.69999998807907,1,0,1,70522,task1,1649185,false,false,1540,image-keyboard-response,38
true,12,2,2,2,true,d,false,true,0.0-2.0-0.54-0.488-3.488,0,0,0,68,false,stim,false,0,452.80000001192093,1,0,0,70522,task1,1651148,false,false,1543,image-keyboard-response,39
true,12,2,2,2,true,d,false,true,0.0-2.0-0.54-0.489-3.489,0,0,0,68,false,stim,false,0,808.8000000119209,1,0,0,70522,task1,1653469,false,false,1546,image-keyboard-response,40
true,12,0,2,0,true,q,false,true,0.0-2.0-0.54-0.490-3.490,0,0,0,81,false,stim,false,2,672.6000000238419,1,0,2,70522,task1,1655654,false,false,1549,image-keyboard-response,41
true,12,1,2,1,true,z,false,true,0.0-2.0-0.54-0.491-3.491,0,0,0,90,false,stim,false,2,571.0,1,0,1,70522,task1,1657738,false,false,1552,image-keyboard-response,42
true,13,1,2,2,false,d,false,false,0.0-2.0-0.54-0.492-3.492,0,0,0,90,true,stim,true,1,682.6000000238419,1,0,1,70522,task1,1659936,false,false,1555,image-keyboard-response,1
true,13,0,2,2,false,d,false,false,0.0-2.0-0.54-0.493-3.493,0,0,0,81,false,stim,true,0,677.7999999523163,1,0,2,70522,task1,1662123,false,false,1558,image-keyboard-response,2
true,13,2,2,0,false,q,false,false,0.0-2.0-0.54-0.494-3.494,0,0,0,68,false,stim,true,2,618.4000000357628,1,0,0,70522,task1,1664254,false,false,1561,image-keyboard-response,3
true,13,1,2,0,false,q,true,false,0.0-2.0-0.55-0.495-3.495,0,0,0,90,false,stim,false,2,453.30000001192093,1,0,0,70522,task1,1666223,false,false,1564,image-keyboard-response,4
true,13,0,2,0,true,q,false,true,0.0-2.0-0.55-0.496-3.496,0,0,0,81,false,stim,false,2,427.60000002384186,1,0,0,70522,task1,1668159,false,false,1567,image-keyboard-response,5
true,13,0,2,2,false,d,true,false,0.0-2.0-0.55-0.497-3.497,0,0,0,81,false,stim,false,1,1143.800000011921,1,0,1,70522,task1,1670819,false,false,1570,image-keyboard-response,6
true,13,0,2,0,true,q,false,true,0.0-2.0-0.55-0.498-3.498,0,0,0,81,false,stim,false,2,685.6999999880791,1,0,0,70522,task1,1673020,false,false,1573,image-keyboard-response,7
true,13,1,2,2,false,d,true,false,0.0-2.0-0.55-0.499-3.499,0,0,0,90,false,stim,false,0,1697.300000011921,1,0,2,70522,task1,1676227,false,false,1576,image-keyboard-response,8
true,13,2,2,2,true,d,false,true,0.0-2.0-0.55-0.500-3.500,0,0,0,68,false,stim,false,1,423.5,1,0,1,70522,task1,1678157,false,false,1579,image-keyboard-response,9
true,13,2,2,2,true,d,false,true,0.0-2.0-0.55-0.501-3.501,0,0,0,68,false,stim,false,0,590.3000000119209,1,0,2,70522,task1,1680263,false,false,1582,image-keyboard-response,10
true,13,2,2,2,true,d,false,true,0.0-2.0-0.55-0.502-3.502,0,0,0,68,false,stim,false,0,538.3999999761581,1,0,2,70522,task1,1682312,false,false,1585,image-keyboard-response,11
true,13,2,2,2,true,d,false,true,0.0-2.0-0.55-0.503-3.503,0,0,0,68,false,stim,false,1,648.0,1,0,1,70522,task1,1684471,false,false,1588,image-keyboard-response,12
true,13,2,2,2,true,d,false,true,0.0-2.0-0.56-0.504-3.504,0,0,0,68,false,stim,false,1,560.3000000119209,1,0,1,70522,task1,1686541,false,false,1591,image-keyboard-response,13
true,13,2,2,2,true,d,false,true,0.0-2.0-0.56-0.505-3.505,0,0,0,68,false,stim,false,0,790.6000000238419,1,0,2,70522,task1,1688847,false,false,1594,image-keyboard-response,14
true,13,2,2,2,true,d,false,false,0.0-2.0-0.56-0.506-3.506,0,0,0,68,false,stim,false,0,483.5,1,0,2,70522,task1,1690842,false,true,1597,image-keyboard-response,15
true,13,0,2,0,true,q,false,true,0.0-2.0-0.56-0.507-3.507,0,0,0,81,false,stim,false,2,514.1000000238419,1,0,0,70522,task1,1692872,false,false,1600,image-keyboard-response,16
true,13,2,2,2,true,d,false,true,0.0-2.0-0.56-0.508-3.508,0,0,0,68,false,stim,false,1,718.6000000238419,1,0,1,70522,task1,1695114,false,false,1603,image-keyboard-response,17
true,13,0,2,0,true,q,false,true,0.0-2.0-0.56-0.509-3.509,0,0,0,81,false,stim,false,2,952.9000000357628,1,0,0,70522,task1,1697578,false,false,1606,image-keyboard-response,18
true,13,0,2,0,true,q,false,true,0.0-2.0-0.56-0.510-3.510,0,0,0,81,false,stim,false,2,515.0,1,0,0,70522,task1,1699608,false,false,1609,image-keyboard-response,19
true,13,2,2,2,true,d,false,true,0.0-2.0-0.56-0.511-3.511,0,0,0,68,false,stim,false,0,1273.6000000238419,1,0,2,70522,task1,1702397,false,false,1612,image-keyboard-response,20
true,13,2,2,2,true,d,false,false,0.0-2.0-0.56-0.512-3.512,0,0,0,68,false,stim,false,1,781.1999999880791,1,0,1,70522,task1,1704685,false,true,1615,image-keyboard-response,21
true,13,2,2,2,true,d,false,true,0.0-2.0-0.57-0.513-3.513,0,0,0,68,false,stim,false,1,565.5999999642372,1,0,1,70522,task1,1706764,false,false,1618,image-keyboard-response,22
true,13,2,2,2,true,d,false,true,0.0-2.0-0.57-0.514-3.514,0,0,0,68,false,stim,false,0,484.30000001192093,1,0,2,70522,task1,1708761,false,false,1621,image-keyboard-response,23
true,13,0,2,0,true,q,false,true,0.0-2.0-0.57-0.515-3.515,0,0,0,81,false,stim,false,2,461.0999999642372,1,0,0,70522,task1,1710733,false,false,1624,image-keyboard-response,24
true,13,2,2,2,true,d,false,true,0.0-2.0-0.57-0.516-3.516,0,0,0,68,false,stim,false,0,726.3000000119209,1,0,2,70522,task1,1712971,false,false,1627,image-keyboard-response,25
true,13,2,2,2,true,d,false,true,0.0-2.0-0.57-0.517-3.517,0,0,0,68,false,stim,false,0,698.5,1,0,2,70522,task1,1715179,false,false,1630,image-keyboard-response,26
true,13,2,2,2,true,d,false,true,0.0-2.0-0.57-0.518-3.518,0,0,0,68,false,stim,false,1,863.4000000357628,1,0,1,70522,task1,1717558,false,false,1633,image-keyboard-response,27
true,13,0,2,0,true,q,false,false,0.0-2.0-0.57-0.519-3.519,0,0,0,81,false,stim,false,2,929.8000000119209,1,0,0,70522,task1,1720003,false,true,1636,image-keyboard-response,28
true,13,0,2,0,true,q,false,true,0.0-2.0-0.57-0.520-3.520,0,0,0,81,false,stim,false,2,646.5999999642372,1,0,0,70522,task1,1722164,false,false,1639,image-keyboard-response,29
true,13,2,2,2,true,d,false,true,0.0-2.0-0.57-0.521-3.521,0,0,0,68,false,stim,false,1,698.3000000119209,1,0,1,70522,task1,1724373,false,false,1642,image-keyboard-response,30
true,13,2,2,2,true,d,false,true,0.0-2.0-0.58-0.522-3.522,0,0,0,68,false,stim,false,0,798.5999999642372,1,0,2,70522,task1,1726688,false,false,1645,image-keyboard-response,31
true,13,2,2,2,true,d,false,true,0.0-2.0-0.58-0.523-3.523,0,0,0,68,false,stim,false,1,1011.0,1,0,1,70522,task1,1729212,false,false,1648,image-keyboard-response,32
true,13,0,2,0,true,q,false,true,0.0-2.0-0.58-0.524-3.524,0,0,0,81,false,stim,false,2,651.6000000238419,1,0,0,70522,task1,1731380,false,false,1651,image-keyboard-response,33
true,13,2,2,2,true,d,false,false,0.0-2.0-0.58-0.525-3.525,0,0,0,68,false,stim,false,0,889.8999999761581,1,0,2,70522,task1,1733784,false,true,1654,image-keyboard-response,34
true,13,0,2,0,true,q,false,true,0.0-2.0-0.58-0.526-3.526,0,0,0,81,false,stim,false,2,556.0,1,0,0,70522,task1,1735852,false,false,1657,image-keyboard-response,35
true,13,2,2,2,true,d,false,true,0.0-2.0-0.58-0.527-3.527,0,0,0,68,false,stim,false,0,590.6000000238419,1,0,2,70522,task1,1737959,false,false,1660,image-keyboard-response,36
true,13,2,2,2,true,d,false,true,0.0-2.0-0.58-0.528-3.528,0,0,0,68,false,stim,false,1,732.4000000357628,1,0,1,70522,task1,1740204,false,false,1663,image-keyboard-response,37
true,13,2,2,2,true,d,false,true,0.0-2.0-0.58-0.529-3.529,0,0,0,68,false,stim,false,1,762.8999999761581,1,0,1,70522,task1,1742479,false,false,1666,image-keyboard-response,38
true,13,0,2,0,true,q,false,true,0.0-2.0-0.58-0.530-3.530,0,0,0,81,false,stim,false,2,706.8000000119209,1,1,0,70522,task1,1744702,false,false,1669,image-keyboard-response,39
true,13,0,2,0,true,q,false,true,0.0-2.0-0.59-0.531-3.531,0,0,0,81,false,stim,false,2,1040.800000011921,1,1,0,70522,task1,1747257,false,false,1672,image-keyboard-response,40
true,13,2,2,2,true,d,false,true,0.0-2.0-0.59-0.532-3.532,0,0,0,68,false,stim,false,1,737.8999999761581,1,1,1,70522,task1,1749506,false,false,1675,image-keyboard-response,41
true,13,2,2,2,true,d,false,true,0.0-2.0-0.59-0.533-3.533,0,0,0,68,false,stim,false,0,870.2000000476837,1,1,2,70522,task1,1751891,false,false,1678,image-keyboard-response,42
true,13,2,2,2,true,d,false,true,0.0-2.0-0.59-0.534-3.534,0,0,0,68,false,stim,false,0,762.3000000119209,1,1,2,70522,task1,1754166,false,false,1681,image-keyboard-response,43
true,14,0,0,0,true,q,false,true,0.0-2.0-0.59-0.535-3.535,1,1,1,81,true,stim,false,0,1105.300000011921,1,1,0,70522,task1,1767230,false,false,1695,image-keyboard-response,1
true,14,2,0,2,true,d,false,true,0.0-2.0-0.59-0.536-3.536,1,1,1,68,false,stim,false,2,914.0999999642372,1,1,1,70522,task1,1769661,false,false,1698,image-keyboard-response,2
true,14,1,0,2,false,d,true,false,0.0-2.0-0.59-0.537-3.537,1,1,1,90,false,stim,false,2,452.80000001192093,1,1,2,70522,task1,1771634,false,false,1701,image-keyboard-response,3
true,14,0,0,0,true,q,false,true,0.0-2.0-0.59-0.538-3.538,1,1,1,81,false,stim,false,0,618.1000000238419,1,1,0,70522,task1,1773770,false,false,1704,image-keyboard-response,4
true,14,2,0,2,true,d,false,true,0.0-2.0-0.59-0.539-3.539,1,1,1,68,false,stim,false,2,1053.8999999761581,1,1,1,70522,task1,1776336,false,false,1707,image-keyboard-response,5
true,14,0,0,0,true,q,false,true,0.0-2.0-0.60-0.540-3.540,1,1,1,81,false,stim,false,0,856.8999999761581,1,1,0,70522,task1,1778704,false,false,1710,image-keyboard-response,6
true,14,0,0,0,true,q,false,true,0.0-2.0-0.60-0.541-3.541,1,1,1,81,false,stim,false,0,610.3000000119209,1,1,0,70522,task1,1780826,false,false,1713,image-keyboard-response,7
true,14,0,0,2,false,d,true,false,0.0-2.0-0.60-0.542-3.542,1,1,1,81,false,stim,false,2,953.3999999761581,1,1,2,70522,task1,1783291,false,false,1716,image-keyboard-response,8
true,14,2,0,2,true,d,false,true,0.0-2.0-0.60-0.543-3.543,1,1,1,68,false,stim,false,2,664.5,1,0,2,70522,task1,1785466,false,false,1719,image-keyboard-response,9
true,14,2,0,2,true,d,false,true,0.0-2.0-0.60-0.544-3.544,1,1,1,68,false,stim,false,2,610.4000000357628,1,0,1,70522,task1,1787595,false,false,1722,image-keyboard-response,10
true,14,2,0,2,true,d,false,true,0.0-2.0-0.60-0.545-3.545,1,1,1,68,false,stim,false,2,597.2000000476837,1,0,1,70522,task1,1789705,false,false,1725,image-keyboard-response,11
true,14,0,0,0,true,q,false,true,0.0-2.0-0.60-0.546-3.546,1,1,1,81,false,stim,false,0,487.60000002384186,1,0,0,70522,task1,1791702,false,false,1728,image-keyboard-response,12
true,14,2,0,2,true,d,false,true,0.0-2.0-0.60-0.547-3.547,1,1,1,68,false,stim,false,2,649.7000000476837,1,0,1,70522,task1,1793864,false,false,1731,image-keyboard-response,13
true,15,2,1,0,false,q,false,false,0.0-2.0-0.60-0.548-3.548,0,0,0,68,true,stim,true,2,755.8999999761581,1,0,2,70522,task1,1796135,false,false,1734,image-keyboard-response,1
true,15,2,1,0,false,q,false,false,0.0-2.0-0.61-0.549-3.549,0,0,0,68,false,stim,true,2,720.3000000119209,1,0,1,70522,task1,1798373,false,false,1737,image-keyboard-response,2
true,15,0,1,2,false,d,false,false,0.0-2.0-0.61-0.550-3.550,0,0,0,81,false,stim,true,0,443.10000002384186,1,0,0,70522,task1,1800332,false,false,1740,image-keyboard-response,3
true,15,2,1,0,false,q,false,true,0.0-2.0-0.61-0.551-3.551,0,0,0,68,false,stim,true,2,533.8999999761581,1,0,2,70522,task1,1802381,false,true,1743,image-keyboard-response,4
true,15,0,1,2,false,d,false,false,0.0-2.0-0.61-0.552-3.552,0,0,0,81,false,stim,true,0,582.8000000119209,1,0,0,70522,task1,1804480,false,false,1746,image-keyboard-response,5
true,15,2,1,0,false,q,false,false,0.0-2.0-0.61-0.553-3.553,0,0,0,68,false,stim,true,2,470.5,1,0,2,70522,task1,1806458,false,false,1749,image-keyboard-response,6
true,15,2,1,0,false,q,false,false,0.0-2.0-0.61-0.554-3.554,0,0,0,68,false,stim,true,2,735.3000000119209,1,0,2,70522,task1,1808702,false,false,1752,image-keyboard-response,7
true,15,0,1,2,false,d,false,true,0.0-2.0-0.61-0.555-3.555,0,0,0,81,false,stim,true,0,774.3999999761581,1,0,0,70522,task1,1810988,false,true,1755,image-keyboard-response,8
true,15,2,1,0,false,q,false,false,0.0-2.0-0.61-0.556-3.556,0,0,0,68,false,stim,true,2,836.6999999880791,1,0,1,70522,task1,1813341,false,false,1758,image-keyboard-response,9
true,15,1,1,0,false,q,true,false,0.0-2.0-0.61-0.557-3.557,0,0,0,90,false,stim,false,2,709.6999999880791,1,0,1,70522,task1,1815566,false,false,1761,image-keyboard-response,10
true,15,1,1,0,false,q,true,false,0.0-2.0-0.62-0.558-3.558,0,0,0,90,false,stim,false,2,912.4000000357628,1,0,2,70522,task1,1817994,false,false,1764,image-keyboard-response,11
true,15,0,1,2,false,d,false,false,0.0-2.0-0.62-0.559-3.559,0,0,0,81,false,stim,true,0,808.3999999761581,1,0,0,70522,task1,1820316,false,false,1767,image-keyboard-response,12
true,15,1,1,2,false,d,true,false,0.0-2.0-0.62-0.560-3.560,0,0,0,90,false,stim,false,0,1546.300000011921,1,0,0,70522,task1,1823375,false,false,1770,image-keyboard-response,13
true,15,0,1,0,true,q,false,false,0.0-2.0-0.62-0.561-3.561,0,0,0,81,false,stim,false,2,474.10000002384186,1,0,1,70522,task1,1825364,false,true,1773,image-keyboard-response,14
true,15,0,1,0,true,q,false,true,0.0-2.0-0.62-0.562-3.562,0,0,0,81,false,stim,false,2,725.5,1,0,2,70522,task1,1827601,false,false,1776,image-keyboard-response,15
true,15,0,1,0,true,q,false,true,0.0-2.0-0.62-0.563-3.563,0,0,0,81,false,stim,false,2,627.3999999761581,1,0,2,70522,task1,1829745,false,false,1779,image-keyboard-response,16
true,15,0,1,2,false,d,false,false,0.0-2.0-0.62-0.564-3.564,0,0,0,81,false,stim,true,0,1554.4000000357628,1,0,0,70522,task1,1832815,false,false,1782,image-keyboard-response,17
true,15,0,1,0,true,q,false,true,0.0-2.0-0.62-0.565-3.565,0,0,0,81,false,stim,false,2,1525.2999999523163,1,0,1,70522,task1,1835848,false,false,1785,image-keyboard-response,18
true,15,0,1,0,true,q,false,false,0.0-2.0-0.62-0.566-3.566,0,0,0,81,false,stim,false,2,804.0999999642372,1,0,1,70522,task1,1838169,false,true,1788,image-keyboard-response,19
true,15,0,1,0,true,q,false,true,0.0-2.0-0.63-0.567-3.567,0,0,0,81,false,stim,false,2,456.7999999523163,1,0,1,70522,task1,1840140,false,false,1791,image-keyboard-response,20
true,15,0,1,0,true,q,false,true,0.0-2.0-0.63-0.568-3.568,0,0,0,81,false,stim,false,2,514.0,1,0,2,70522,task1,1842172,false,false,1794,image-keyboard-response,21
true,15,0,1,0,true,q,false,true,0.0-2.0-0.63-0.569-3.569,0,0,0,81,false,stim,false,2,730.6000000238419,1,0,2,70522,task1,1844412,false,false,1797,image-keyboard-response,22
true,15,2,1,2,true,d,false,true,0.0-2.0-0.63-0.570-3.570,0,0,0,68,false,stim,false,0,627.8000000119209,1,0,0,70522,task1,1846546,false,false,1800,image-keyboard-response,23
true,15,2,1,2,true,d,false,false,0.0-2.0-0.63-0.571-3.571,0,0,0,68,false,stim,false,0,514.0,1,0,0,70522,task1,1848585,false,true,1803,image-keyboard-response,24
true,15,2,1,2,true,d,false,true,0.0-2.0-0.63-0.572-3.572,0,0,0,68,false,stim,false,0,418.80000001192093,1,0,0,70522,task1,1850515,false,false,1806,image-keyboard-response,25
true,15,0,1,0,true,q,false,true,0.0-2.0-0.63-0.573-3.573,0,0,0,81,false,stim,false,2,973.3000000119209,1,0,1,70522,task1,1853000,false,false,1809,image-keyboard-response,26
true,15,0,1,0,true,q,false,true,0.0-2.0-0.63-0.574-3.574,0,0,0,81,false,stim,false,2,596.3000000119209,1,0,2,70522,task1,1855107,false,false,1812,image-keyboard-response,27
true,15,0,1,0,true,q,false,true,0.0-2.0-0.63-0.575-3.575,0,0,0,81,false,stim,false,2,704.8999999761581,1,0,1,70522,task1,1857328,false,false,1815,image-keyboard-response,28
true,15,0,1,0,true,q,false,true,0.0-2.0-0.64-0.576-3.576,0,0,0,81,false,stim,false,2,1167.1000000238419,1,0,2,70522,task1,1860011,false,false,1818,image-keyboard-response,29
true,15,0,1,0,true,q,false,true,0.0-2.0-0.64-0.577-3.577,0,0,0,81,false,stim,false,2,657.6999999880791,1,0,1,70522,task1,1862181,false,false,1821,image-keyboard-response,30
true,15,2,1,2,true,d,false,true,0.0-2.0-0.64-0.578-3.578,0,0,0,68,false,stim,false,0,1047.4000000357628,1,0,0,70522,task1,1864744,false,false,1824,image-keyboard-response,31
true,15,0,1,0,true,q,false,true,0.0-2.0-0.64-0.579-3.579,0,0,0,81,false,stim,false,2,635.0999999642372,1,0,1,70522,task1,1866894,false,false,1827,image-keyboard-response,32
true,15,2,1,2,true,d,false,true,0.0-2.0-0.64-0.580-3.580,0,0,0,68,false,stim,false,0,669.1999999880791,1,0,0,70522,task1,1869079,false,false,1830,image-keyboard-response,33
true,15,0,1,0,true,q,false,true,0.0-2.0-0.64-0.581-3.581,0,0,0,81,false,stim,false,2,780.5999999642372,1,0,2,70522,task1,1871376,false,false,1833,image-keyboard-response,34
true,15,2,1,2,true,d,false,true,0.0-2.0-0.64-0.582-3.582,0,0,0,68,false,stim,false,0,696.8999999761581,1,0,0,70522,task1,1873589,false,false,1836,image-keyboard-response,35
true,15,0,1,0,true,q,false,true,0.0-2.0-0.64-0.583-3.583,0,0,0,81,false,stim,false,2,873.6000000238419,1,0,1,70522,task1,1875978,false,false,1839,image-keyboard-response,36
true,15,0,1,0,true,q,false,true,0.0-2.0-0.64-0.584-3.584,0,0,0,81,false,stim,false,2,875.5,1,0,2,70522,task1,1878370,false,false,1842,image-keyboard-response,37
true,15,2,1,2,true,d,false,true,0.0-2.0-0.65-0.585-3.585,0,0,0,68,false,stim,false,0,1001.6999999880791,1,0,0,70522,task1,1880883,false,false,1845,image-keyboard-response,38
true,15,2,1,2,true,d,false,true,0.0-2.0-0.65-0.586-3.586,0,0,0,68,false,stim,false,0,802.1999999880791,1,0,0,70522,task1,1883201,false,false,1848,image-keyboard-response,39
true,15,0,1,0,true,q,false,true,0.0-2.0-0.65-0.587-3.587,0,0,0,81,false,stim,false,2,725.5,1,0,1,70522,task1,1885437,false,false,1851,image-keyboard-response,40
true,16,2,2,0,false,q,false,false,0.0-2.0-0.65-0.588-3.588,0,0,0,68,true,stim,true,2,1033.199999988079,1,0,0,70522,task1,1887986,false,false,1854,image-keyboard-response,1
true,16,0,2,2,false,d,false,false,0.0-2.0-0.65-0.589-3.589,0,0,0,81,false,stim,true,0,558.8999999761581,1,0,1,70522,task1,1890057,false,false,1857,image-keyboard-response,2
