answered,blockNum,choice,condition,corResp,correct,correct_response,explo,fb,internal_node_id,isStable_1,isStable_2,isStable_3,key_press,newBlock,part,persev,persevResp,rt,sessNum,stableAS,stimulus,subject,task,time_elapsed,training,trap,trial_index,trial_type,trialsInBlock
true,1,0,0,0,true,q,false,true,0.0-2.0-0.0-0.0-3.0,0,0,0,81,true,stim,false,-1,1067.4000000001397,0,0,0,70539,task2,245736,false,false,173,image-keyboard-response,1
true,1,0,0,0,true,q,false,true,0.0-2.0-0.0-0.1-3.1,0,0,0,81,false,stim,false,-1,646.1000000000931,0,0,0,70539,task2,247896,false,false,176,image-keyboard-response,2
true,1,1,0,1,true,z,false,true,0.0-2.0-0.0-0.2-3.2,0,0,0,90,false,stim,false,-1,537.5,0,0,1,70539,task2,249944,false,false,179,image-keyboard-response,3
true,1,1,0,1,true,z,false,true,0.0-2.0-0.0-0.3-3.3,0,0,0,90,false,stim,false,-1,446.30000000004657,0,0,1,70539,task2,251904,false,false,182,image-keyboard-response,4
true,1,0,0,0,true,q,false,true,0.0-2.0-0.0-0.4-3.4,0,0,0,81,false,stim,false,-1,513.1999999999534,0,0,0,70539,task2,253928,false,false,185,image-keyboard-response,5
true,1,1,0,0,false,q,true,false,0.0-2.0-0.0-0.5-3.5,0,0,0,90,false,stim,false,-1,548.1999999999534,0,0,2,70539,task2,255985,false,false,188,image-keyboard-response,6
true,1,2,0,0,false,q,true,false,0.0-2.0-0.0-0.6-3.6,0,0,0,68,false,stim,false,-1,512.5999999998603,0,0,2,70539,task2,258009,false,false,191,image-keyboard-response,7
true,1,0,0,0,true,q,false,true,0.0-2.0-0.0-0.7-3.7,0,0,0,81,false,stim,false,-1,417.60000000009313,0,0,2,70539,task2,259937,false,false,194,image-keyboard-response,8
true,1,1,0,1,true,z,false,true,0.0-2.0-0.0-0.8-3.8,0,0,0,90,false,stim,false,-1,685.0999999998603,0,0,1,70539,task2,262137,false,false,197,image-keyboard-response,9
true,1,0,0,0,true,q,false,true,0.0-2.0-0.1-0.9-3.9,0,0,0,81,false,stim,false,-1,519.0,0,0,0,70539,task2,264169,false,false,200,image-keyboard-response,10
true,1,1,0,1,true,z,false,true,0.0-2.0-0.1-0.10-3.10,0,0,0,90,false,stim,false,-1,854.3999999999069,0,0,1,70539,task2,266538,false,false,203,image-keyboard-response,11
true,1,0,0,0,true,q,false,true,0.0-2.0-0.1-0.11-3.11,0,0,0,81,false,stim,false,-1,624.1000000000931,0,0,2,70539,task2,268673,false,false,206,image-keyboard-response,12
true,1,1,0,0,false,q,true,true,0.0-2.0-0.1-0.12-3.12,0,0,0,90,false,stim,false,-1,779.8999999999069,0,0,0,70539,task2,270961,false,true,209,image-keyboard-response,13
true,1,0,0,1,false,z,true,false,0.0-2.0-0.1-0.13-3.13,0,0,0,81,false,stim,false,-1,889.5,0,0,1,70539,task2,273361,false,false,212,image-keyboard-response,14
true,1,1,0,0,false,q,true,false,0.0-2.0-0.1-0.14-3.14,0,0,0,90,false,stim,false,-1,881.0,0,0,0,70539,task2,275754,false,false,215,image-keyboard-response,15
true,1,1,0,1,true,z,false,true,0.0-2.0-0.1-0.15-3.15,0,0,0,90,false,stim,false,-1,993.8999999999069,0,0,1,70539,task2,278259,false,false,218,image-keyboard-response,16
true,1,0,0,0,true,q,false,true,0.0-2.0-0.1-0.16-3.16,0,0,0,81,false,stim,false,-1,1520.6000000000931,0,0,2,70539,task2,281290,false,false,221,image-keyboard-response,17
true,1,0,0,0,true,q,false,true,0.0-2.0-0.1-0.17-3.17,0,0,0,81,false,stim,false,-1,472.29999999981374,0,0,2,70539,task2,283274,false,false,224,image-keyboard-response,18
true,1,0,0,0,true,q,false,true,0.0-2.0-0.2-0.18-3.18,0,0,0,81,false,stim,false,-1,644.0,0,0,2,70539,task2,285426,false,false,227,image-keyboard-response,19
true,1,1,0,1,true,z,false,true,0.0-2.0-0.2-0.19-3.19,0,0,0,90,false,stim,false,-1,770.3000000000466,0,0,1,70539,task2,287706,false,false,230,image-keyboard-response,20
true,1,1,0,1,true,z,false,true,0.0-2.0-0.2-0.20-3.20,0,0,0,90,false,stim,false,-1,546.0,0,0,1,70539,task2,289763,false,false,233,image-keyboard-response,21
true,1,0,0,0,true,q,false,true,0.0-2.0-0.2-0.21-3.21,0,0,0,81,false,stim,false,-1,1697.7000000001863,0,1,0,70539,task2,292971,false,false,236,image-keyboard-response,22
true,1,0,0,0,true,q,false,true,0.0-2.0-0.2-0.22-3.22,0,0,0,81,false,stim,false,-1,553.3000000000466,0,1,0,70539,task2,295035,false,false,239,image-keyboard-response,23
true,1,0,0,0,true,q,false,true,0.0-2.0-0.2-0.23-3.23,0,0,0,81,false,stim,false,-1,951.5999999998603,0,0,2,70539,task2,297499,false,false,242,image-keyboard-response,24
true,1,0,0,0,true,q,false,true,0.0-2.0-0.2-0.24-3.24,0,0,0,81,false,stim,false,-1,562.9000000001397,0,1,0,70539,task2,299571,false,false,245,image-keyboard-response,25
true,1,1,0,1,true,z,false,true,0.0-2.0-0.2-0.25-3.25,0,0,0,90,false,stim,false,-1,557.6999999999534,0,0,1,70539,task2,301636,false,false,248,image-keyboard-response,26
true,2,0,2,1,false,z,false,false,0.0-2.0-0.2-0.26-3.26,1,0,0,81,true,stim,true,0,836.1000000000931,0,0,2,70539,task2,303988,false,false,251,image-keyboard-response,1
true,2,1,2,1,true,z,false,true,0.0-2.0-0.3-0.27-3.27,1,0,0,90,false,stim,false,0,432.80000000004657,0,0,2,70539,task2,305932,false,false,254,image-keyboard-response,2
true,2,0,2,0,true,q,false,true,0.0-2.0-0.3-0.28-3.28,1,0,0,81,false,stim,false,0,745.0,0,1,0,70539,task2,308188,false,false,257,image-keyboard-response,3
true,2,1,2,1,true,z,false,true,0.0-2.0-0.3-0.29-3.29,1,0,0,90,false,stim,false,0,463.69999999995343,0,0,2,70539,task2,310164,false,false,260,image-keyboard-response,4
true,2,0,2,0,true,q,false,true,0.0-2.0-0.3-0.30-3.30,1,0,0,81,false,stim,false,0,650.2000000001863,0,1,0,70539,task2,312325,false,false,263,image-keyboard-response,5
true,2,0,2,0,true,q,false,true,0.0-2.0-0.3-0.31-3.31,1,0,0,81,false,stim,false,0,561.9000000001397,0,1,0,70539,task2,314396,false,false,266,image-keyboard-response,6
true,2,1,2,2,false,d,false,false,0.0-2.0-0.3-0.32-3.32,1,0,0,90,false,stim,true,1,899.9000000001397,0,0,1,70539,task2,316804,false,false,269,image-keyboard-response,7
true,2,2,2,2,true,d,false,true,0.0-2.0-0.3-0.33-3.33,1,0,0,68,false,stim,false,1,641.1999999999534,0,0,1,70539,task2,318957,false,false,272,image-keyboard-response,8
true,2,2,2,2,true,d,false,true,0.0-2.0-0.3-0.34-3.34,1,0,0,68,false,stim,false,1,619.1000000000931,0,0,1,70539,task2,321085,false,false,275,image-keyboard-response,9
true,2,1,2,1,true,z,false,false,0.0-2.0-0.3-0.35-3.35,1,0,0,90,false,stim,false,0,1418.2999999998137,0,0,2,70539,task2,324014,false,true,278,image-keyboard-response,10
true,2,2,2,2,true,d,false,true,0.0-2.0-0.4-0.36-3.36,1,0,0,68,false,stim,false,1,808.5,0,0,1,70539,task2,326333,false,false,281,image-keyboard-response,11
true,2,2,2,2,true,d,false,false,0.0-2.0-0.4-0.37-3.37,1,0,0,68,false,stim,false,1,505.30000000004657,0,0,1,70539,task2,328349,false,true,284,image-keyboard-response,12
true,2,0,2,0,true,q,false,true,0.0-2.0-0.4-0.38-3.38,1,0,0,81,false,stim,false,0,783.3000000000466,0,1,0,70539,task2,330645,false,false,287,image-keyboard-response,13
true,2,0,2,1,false,z,false,false,0.0-2.0-0.4-0.39-3.39,1,0,0,81,false,stim,true,0,1464.6999999999534,0,0,2,70539,task2,333621,false,false,290,image-keyboard-response,14
true,2,0,2,0,true,q,false,false,0.0-2.0-0.4-0.40-3.40,1,0,0,81,false,stim,false,0,583.0999999998603,0,1,0,70539,task2,335711,false,true,293,image-keyboard-response,15
true,2,1,2,1,true,z,false,true,0.0-2.0-0.4-0.41-3.41,1,0,0,90,false,stim,false,0,1000.0,0,0,2,70539,task2,338222,false,false,296,image-keyboard-response,16
true,2,1,2,2,false,d,false,false,0.0-2.0-0.4-0.42-3.42,1,0,0,90,false,stim,true,1,1305.0,0,0,1,70539,task2,341038,false,false,299,image-keyboard-response,17
true,2,1,2,1,true,z,false,true,0.0-2.0-0.4-0.43-3.43,1,0,0,90,false,stim,false,0,976.3000000000466,0,0,2,70539,task2,343527,false,false,302,image-keyboard-response,18
true,2,1,2,0,false,q,true,false,0.0-2.0-0.4-0.44-3.44,1,0,0,90,false,stim,false,0,977.5999999998603,0,1,0,70539,task2,346015,false,false,305,image-keyboard-response,19
true,2,1,2,2,false,d,false,false,0.0-2.0-0.5-0.45-3.45,1,0,0,90,false,stim,true,1,1184.3000000000466,0,0,1,70539,task2,348710,false,false,308,image-keyboard-response,20
true,2,0,2,0,true,q,false,true,0.0-2.0-0.5-0.46-3.46,1,0,0,81,false,stim,false,0,804.2000000001863,0,1,0,70539,task2,351023,false,false,311,image-keyboard-response,21
true,2,2,2,1,false,z,true,false,0.0-2.0-0.5-0.47-3.47,1,0,0,68,false,stim,false,0,1448.3000000000466,0,0,2,70539,task2,353982,false,false,314,image-keyboard-response,22
true,2,0,2,2,false,d,true,false,0.0-2.0-0.5-0.48-3.48,1,0,0,81,false,stim,false,1,898.5,0,0,1,70539,task2,356392,false,false,317,image-keyboard-response,23
true,2,0,2,0,true,q,false,true,0.0-2.0-0.5-0.49-3.49,1,0,0,81,false,stim,false,0,573.3999999999069,0,1,0,70539,task2,358479,false,false,320,image-keyboard-response,24
true,2,0,2,1,false,z,false,false,0.0-2.0-0.5-0.50-3.50,1,0,0,81,false,stim,true,0,639.5,0,0,2,70539,task2,360631,false,false,323,image-keyboard-response,25
true,2,1,2,1,true,z,false,true,0.0-2.0-0.5-0.51-3.51,1,0,0,90,false,stim,false,0,809.9000000001397,0,0,2,70539,task2,362952,false,false,326,image-keyboard-response,26
true,2,0,2,2,false,d,true,false,0.0-2.0-0.5-0.52-3.52,1,0,0,81,false,stim,false,1,1232.9000000001397,0,0,1,70539,task2,365696,false,false,329,image-keyboard-response,27
true,2,0,2,0,true,q,false,true,0.0-2.0-0.5-0.53-3.53,1,0,0,81,false,stim,false,0,617.8999999999069,0,0,0,70539,task2,367825,false,false,332,image-keyboard-response,28
true,2,0,2,1,false,z,false,false,0.0-2.0-0.6-0.54-3.54,1,0,0,81,false,stim,true,0,1470.0,0,1,2,70539,task2,370808,false,false,335,image-keyboard-response,29
true,2,0,2,0,true,q,false,true,0.0-2.0-0.6-0.55-3.55,1,0,0,81,false,stim,false,0,664.3000000000466,0,0,0,70539,task2,372984,false,false,338,image-keyboard-response,30
true,2,0,2,0,true,q,false,true,0.0-2.0-0.6-0.56-3.56,1,0,0,81,false,stim,false,0,1052.0,0,0,0,70539,task2,375544,false,false,341,image-keyboard-response,31
true,3,0,2,2,false,d,false,false,0.0-2.0-0.6-0.57-3.57,0,0,1,81,true,stim,true,0,512.5999999998603,0,0,0,70539,task2,377568,false,false,344,image-keyboard-response,1
true,3,1,2,1,true,z,false,true,0.0-2.0-0.6-0.58-3.58,0,0,1,90,false,stim,false,2,1118.5,0,0,1,70539,task2,380194,false,false,347,image-keyboard-response,2
true,3,1,2,1,true,z,false,false,0.0-2.0-0.6-0.59-3.59,0,0,1,90,false,stim,false,1,638.3000000000466,0,1,2,70539,task2,382345,false,true,350,image-keyboard-response,3
true,3,1,2,1,true,z,false,true,0.0-2.0-0.6-0.60-3.60,0,0,1,90,false,stim,false,2,612.5,0,0,1,70539,task2,384473,false,false,353,image-keyboard-response,4
true,3,2,2,1,false,z,true,false,0.0-2.0-0.6-0.61-3.61,0,0,1,68,false,stim,false,1,1010.5999999998603,0,1,2,70539,task2,386993,false,false,356,image-keyboard-response,5
true,3,1,2,1,true,z,false,true,0.0-2.0-0.6-0.62-3.62,0,0,1,90,false,stim,false,2,600.4000000001397,0,0,1,70539,task2,389105,false,false,359,image-keyboard-response,6
true,3,0,2,1,false,z,true,false,0.0-2.0-0.7-0.63-3.63,0,0,1,81,false,stim,false,1,561.2000000001863,0,1,2,70539,task2,391176,false,false,362,image-keyboard-response,7
true,3,1,2,1,true,z,false,true,0.0-2.0-0.7-0.64-3.64,0,0,1,90,false,stim,false,1,1583.5999999998603,0,1,2,70539,task2,394265,false,false,365,image-keyboard-response,8
true,3,1,2,1,true,z,false,true,0.0-2.0-0.7-0.65-3.65,0,0,1,90,false,stim,false,2,561.0,0,0,1,70539,task2,396337,false,false,368,image-keyboard-response,9
true,3,0,2,2,false,d,false,false,0.0-2.0-0.7-0.66-3.66,0,0,1,81,false,stim,true,0,1564.6999999999534,0,0,0,70539,task2,399410,false,false,371,image-keyboard-response,10
true,3,1,2,1,true,z,false,false,0.0-2.0-0.7-0.67-3.67,0,0,1,90,false,stim,false,1,672.8999999999069,0,1,2,70539,task2,401595,false,true,374,image-keyboard-response,11
true,3,1,2,2,false,d,true,false,0.0-2.0-0.7-0.68-3.68,0,0,1,90,false,stim,false,0,957.5,0,0,0,70539,task2,404058,false,false,377,image-keyboard-response,12
true,3,1,2,1,true,z,false,true,0.0-2.0-0.7-0.69-3.69,0,0,1,90,false,stim,false,2,796.7999999998137,0,0,1,70539,task2,406371,false,false,380,image-keyboard-response,13
true,3,1,2,1,true,z,false,false,0.0-2.0-0.7-0.70-3.70,0,0,1,90,false,stim,false,2,563.1000000000931,0,0,1,70539,task2,408442,false,true,383,image-keyboard-response,14
true,3,2,2,2,true,d,false,true,0.0-2.0-0.7-0.71-3.71,0,0,1,68,false,stim,false,0,1001.4000000001397,0,0,0,70539,task2,410955,false,false,386,image-keyboard-response,15
true,3,2,2,2,true,d,false,true,0.0-2.0-0.8-0.72-3.72,0,0,1,68,false,stim,false,0,563.8999999999069,0,0,0,70539,task2,413027,false,false,389,image-keyboard-response,16
true,3,2,2,1,false,z,false,false,0.0-2.0-0.8-0.73-3.73,0,0,1,68,false,stim,true,2,1220.3000000000466,0,0,1,70539,task2,415763,false,false,392,image-keyboard-response,17
true,3,2,2,2,true,d,false,true,0.0-2.0-0.8-0.74-3.74,0,0,1,68,false,stim,false,0,1058.0,0,0,0,70539,task2,418331,false,false,395,image-keyboard-response,18
true,3,1,2,1,true,z,false,true,0.0-2.0-0.8-0.75-3.75,0,0,1,90,false,stim,false,1,882.6000000000931,0,1,2,70539,task2,420723,false,false,398,image-keyboard-response,19
true,3,1,2,1,true,z,false,true,0.0-2.0-0.8-0.76-3.76,0,0,1,90,false,stim,false,2,742.5999999998603,0,0,1,70539,task2,422980,false,false,401,image-keyboard-response,20
true,3,2,2,2,true,d,false,true,0.0-2.0-0.8-0.77-3.77,0,0,1,68,false,stim,false,0,781.0,0,0,0,70539,task2,425276,false,false,404,image-keyboard-response,21
true,3,1,2,1,true,z,false,true,0.0-2.0-0.8-0.78-3.78,0,0,1,90,false,stim,false,1,685.4000000001397,0,1,2,70539,task2,427468,false,false,407,image-keyboard-response,22
true,3,1,2,1,true,z,false,false,0.0-2.0-0.8-0.79-3.79,0,0,1,90,false,stim,false,2,851.7000000001863,0,0,1,70539,task2,429836,false,true,410,image-keyboard-response,23
true,3,1,2,1,true,z,false,true,0.0-2.0-0.8-0.80-3.80,0,0,1,90,false,stim,false,1,930.7000000001863,0,1,2,70539,task2,432276,false,false,413,image-keyboard-response,24
true,3,1,2,1,true,z,false,true,0.0-2.0-0.9-0.81-3.81,0,0,1,90,false,stim,false,1,777.1000000000931,0,1,2,70539,task2,434564,false,false,416,image-keyboard-response,25
true,3,2,2,2,true,d,false,true,0.0-2.0-0.9-0.82-3.82,0,0,1,68,false,stim,false,0,1124.8000000000466,0,0,0,70539,task2,437205,false,false,419,image-keyboard-response,26
true,3,1,2,1,true,z,false,true,0.0-2.0-0.9-0.83-3.83,0,0,1,90,false,stim,false,2,648.3999999999069,0,0,1,70539,task2,439365,false,false,422,image-keyboard-response,27
true,3,2,2,2,true,d,false,true,0.0-2.0-0.9-0.84-3.84,0,0,1,68,false,stim,false,0,682.9000000001397,0,0,0,70539,task2,441557,false,false,425,image-keyboard-response,28
true,3,1,2,1,true,z,false,true,0.0-2.0-0.9-0.85-3.85,0,0,1,90,false,stim,false,1,609.2000000001863,0,0,2,70539,task2,443677,false,false,428,image-keyboard-response,29
true,3,2,2,2,true,d,false,true,0.0-2.0-0.9-0.86-3.86,0,0,1,68,false,stim,false,0,788.6000000000931,0,0,0,70539,task2,445981,false,false,431,image-keyboard-response,30
true,3,1,2,1,true,z,false,true,0.0-2.0-0.9-0.87-3.87,0,0,1,90,false,stim,false,2,609.7999999998137,0,0,1,70539,task2,448102,false,false,434,image-keyboard-response,31
true,4,1,1,2,false,d,false,false,0.0-2.0-0.9-0.88-3.88,0,0,0,90,true,stim,true,1,890.3000000000466,0,0,2,70539,task2,450501,false,false,437,image-keyboard-response,1
true,4,1,1,2,false,d,false,false,0.0-2.0-0.9-0.89-3.89,0,0,0,90,false,stim,true,1,702.8999999999069,0,0,1,70539,task2,452718,false,false,440,image-keyboard-response,2
true,4,2,1,0,false,q,false,false,0.0-2.0-0.10-0.90-3.90,0,0,0,68,false,stim,true,2,551.5,0,0,0,70539,task2,454782,false,false,443,image-keyboard-response,3
true,4,1,1,2,false,d,false,false,0.0-2.0-0.10-0.91-3.91,0,0,0,90,false,stim,true,1,795.3000000000466,0,0,2,70539,task2,457086,false,false,446,image-keyboard-response,4
true,4,0,1,0,true,q,false,true,0.0-2.0-0.10-0.92-3.92,0,0,0,81,false,stim,false,2,773.7000000001863,0,0,0,70539,task2,459375,false,false,449,image-keyboard-response,5
true,4,0,1,2,false,d,true,false,0.0-2.0-0.10-0.93-3.93,0,0,0,81,false,stim,false,1,728.1999999999534,0,0,1,70539,task2,461614,false,false,452,image-keyboard-response,6
true,4,1,1,2,false,d,false,false,0.0-2.0-0.10-0.94-3.94,0,0,0,90,false,stim,true,1,721.1999999999534,0,0,1,70539,task2,463846,false,false,455,image-keyboard-response,7
true,4,0,1,0,true,q,false,true,0.0-2.0-0.10-0.95-3.95,0,0,0,81,false,stim,false,2,671.8000000000466,0,0,0,70539,task2,466030,false,false,458,image-keyboard-response,8
true,4,2,1,2,true,d,false,true,0.0-2.0-0.10-0.96-3.96,0,0,0,68,false,stim,false,1,538.4000000001397,0,0,1,70539,task2,468079,false,false,461,image-keyboard-response,9
true,4,1,1,2,false,d,false,false,0.0-2.0-0.10-0.97-3.97,0,0,0,90,false,stim,true,1,737.5,0,0,2,70539,task2,470327,false,false,464,image-keyboard-response,10
true,4,0,1,2,false,d,true,false,0.0-2.0-0.10-0.98-3.98,0,0,0,81,false,stim,false,1,666.6999999999534,0,0,2,70539,task2,472503,false,false,467,image-keyboard-response,11
true,4,2,1,2,true,d,false,true,0.0-2.0-0.11-0.99-3.99,0,0,0,68,false,stim,false,1,468.19999999995343,0,0,2,70539,task2,474479,false,false,470,image-keyboard-response,12
true,4,0,1,0,true,q,false,true,0.0-2.0-0.11-0.100-3.100,0,0,0,81,false,stim,false,2,769.6999999999534,0,0,0,70539,task2,476759,false,false,473,image-keyboard-response,13
true,4,0,1,0,true,q,false,true,0.0-2.0-0.11-0.101-3.101,0,0,0,81,false,stim,false,2,616.3000000000466,0,0,0,70539,task2,478887,false,false,476,image-keyboard-response,14
true,4,2,1,2,true,d,false,true,0.0-2.0-0.11-0.102-3.102,0,0,0,68,false,stim,false,1,633.6000000000931,0,0,1,70539,task2,481032,false,false,479,image-keyboard-response,15
true,4,0,1,0,true,q,false,true,0.0-2.0-0.11-0.103-3.103,0,0,0,81,false,stim,false,2,600.0999999998603,0,0,0,70539,task2,483143,false,false,482,image-keyboard-response,16
true,4,2,1,2,true,d,false,true,0.0-2.0-0.11-0.104-3.104,0,0,0,68,false,stim,false,1,661.5,0,0,2,70539,task2,485312,false,false,485,image-keyboard-response,17
true,4,2,1,2,true,d,false,true,0.0-2.0-0.11-0.105-3.105,0,0,0,68,false,stim,false,1,577.3000000000466,0,0,2,70539,task2,487400,false,false,488,image-keyboard-response,18
true,4,2,1,2,true,d,false,true,0.0-2.0-0.11-0.106-3.106,0,0,0,68,false,stim,false,1,592.5,0,0,1,70539,task2,489504,false,false,491,image-keyboard-response,19
true,4,2,1,2,true,d,false,true,0.0-2.0-0.11-0.107-3.107,0,0,0,68,false,stim,false,1,459.60000000009313,0,0,1,70539,task2,491473,false,false,494,image-keyboard-response,20
true,4,2,1,2,true,d,false,true,0.0-2.0-0.12-0.108-3.108,0,0,0,68,false,stim,false,1,444.9000000001397,0,0,1,70539,task2,493424,false,false,497,image-keyboard-response,21
true,4,0,1,0,true,q,false,true,0.0-2.0-0.12-0.109-3.109,0,0,0,81,false,stim,false,2,588.6999999999534,0,0,0,70539,task2,495528,false,false,500,image-keyboard-response,22
true,4,0,1,0,true,q,false,false,0.0-2.0-0.12-0.110-3.110,0,0,0,81,false,stim,false,2,506.69999999995343,0,0,0,70539,task2,497560,false,true,503,image-keyboard-response,23
true,4,2,1,2,true,d,false,true,0.0-2.0-0.12-0.111-3.111,0,0,0,68,false,stim,false,1,657.3000000000466,0,0,2,70539,task2,499729,false,false,506,image-keyboard-response,24
true,4,2,1,2,true,d,false,true,0.0-2.0-0.12-0.112-3.112,0,0,0,68,false,stim,false,1,546.1999999999534,0,0,2,70539,task2,501786,false,false,509,image-keyboard-response,25
true,4,2,1,2,true,d,false,true,0.0-2.0-0.12-0.113-3.113,0,0,0,68,false,stim,false,1,528.3000000000466,0,0,1,70539,task2,503825,false,false,512,image-keyboard-response,26
true,4,2,1,2,true,d,false,true,0.0-2.0-0.12-0.114-3.114,0,0,0,68,false,stim,false,1,577.3999999999069,0,0,2,70539,task2,505913,false,false,515,image-keyboard-response,27
true,4,0,1,0,true,q,false,true,0.0-2.0-0.12-0.115-3.115,0,0,0,81,false,stim,false,2,1420.6000000000931,0,0,0,70539,task2,508841,false,false,518,image-keyboard-response,28
true,4,2,1,2,true,d,false,true,0.0-2.0-0.12-0.116-3.116,0,0,0,68,false,stim,false,1,752.3000000000466,0,0,1,70539,task2,511105,false,false,521,image-keyboard-response,29
true,4,2,1,2,true,d,false,true,0.0-2.0-0.13-0.117-3.117,0,0,0,68,false,stim,false,1,601.6000000000931,0,0,1,70539,task2,513216,false,false,524,image-keyboard-response,30
true,4,2,1,2,true,d,false,true,0.0-2.0-0.13-0.118-3.118,0,0,0,68,false,stim,false,1,677.6000000000931,0,0,1,70539,task2,515400,false,false,527,image-keyboard-response,31
true,4,2,1,2,true,d,false,true,0.0-2.0-0.13-0.119-3.119,0,0,0,68,false,stim,false,1,636.7000000001863,0,0,2,70539,task2,517546,false,false,530,image-keyboard-response,32
true,4,2,1,2,true,d,false,true,0.0-2.0-0.13-0.120-3.120,0,0,0,68,false,stim,false,1,482.79999999981374,0,0,2,70539,task2,519544,false,false,533,image-keyboard-response,33
true,4,0,1,0,true,q,false,true,0.0-2.0-0.13-0.121-3.121,0,0,0,81,false,stim,false,2,713.2999999998137,0,0,0,70539,task2,521770,false,false,536,image-keyboard-response,34
true,4,0,1,0,true,q,false,true,0.0-2.0-0.13-0.122-3.122,0,0,0,81,false,stim,false,2,463.89999999990687,0,0,0,70539,task2,523747,false,false,539,image-keyboard-response,35
true,4,2,1,2,true,d,false,true,0.0-2.0-0.13-0.123-3.123,0,0,0,68,false,stim,false,1,560.5999999998603,0,0,1,70539,task2,525818,false,false,542,image-keyboard-response,36
true,5,2,1,1,false,z,false,true,0.0-2.0-0.13-0.124-3.124,0,0,0,68,true,stim,true,2,703.5,0,0,2,70539,task2,528034,false,true,545,image-keyboard-response,1
true,5,0,1,1,false,z,false,false,0.0-2.0-0.13-0.125-3.125,0,0,0,81,false,stim,true,0,576.1999999999534,0,0,0,70539,task2,530123,false,false,548,image-keyboard-response,2
true,5,0,1,1,false,z,false,false,0.0-2.0-0.14-0.126-3.126,0,0,0,81,false,stim,true,0,600.6000000000931,0,0,0,70539,task2,532235,false,false,551,image-keyboard-response,3
true,5,2,1,0,false,q,false,false,0.0-2.0-0.14-0.127-3.127,0,0,0,68,false,stim,true,2,521.3999999999069,0,0,1,70539,task2,534268,false,false,554,image-keyboard-response,4
true,5,1,1,0,false,q,true,true,0.0-2.0-0.14-0.128-3.128,0,0,0,90,false,stim,false,2,752.1000000000931,0,0,1,70539,task2,536531,false,true,557,image-keyboard-response,5
true,5,1,1,1,true,z,false,true,0.0-2.0-0.14-0.129-3.129,0,0,0,90,false,stim,false,2,646.3000000000466,0,0,2,70539,task2,538691,false,false,560,image-keyboard-response,6
true,5,1,1,1,true,z,false,true,0.0-2.0-0.14-0.130-3.130,0,0,0,90,false,stim,false,2,520.6999999999534,0,0,2,70539,task2,540723,false,false,563,image-keyboard-response,7
true,5,1,1,1,true,z,false,true,0.0-2.0-0.14-0.131-3.131,0,0,0,90,false,stim,false,0,424.19999999995343,0,0,0,70539,task2,542659,false,false,566,image-keyboard-response,8
true,5,1,1,1,true,z,false,true,0.0-2.0-0.14-0.132-3.132,0,0,0,90,false,stim,false,0,429.5,0,0,0,70539,task2,544596,false,false,569,image-keyboard-response,9
true,5,1,1,0,false,q,true,false,0.0-2.0-0.14-0.133-3.133,0,0,0,90,false,stim,false,2,480.39999999990687,0,0,1,70539,task2,546588,false,false,572,image-keyboard-response,10
true,5,1,1,1,true,z,false,false,0.0-2.0-0.14-0.134-3.134,0,0,0,90,false,stim,false,2,452.5,0,0,2,70539,task2,548556,false,true,575,image-keyboard-response,11
true,5,1,1,1,true,z,false,true,0.0-2.0-0.15-0.135-3.135,0,0,0,90,false,stim,false,0,483.19999999995343,0,0,0,70539,task2,550548,false,false,578,image-keyboard-response,12
true,5,1,1,1,true,z,false,true,0.0-2.0-0.15-0.136-3.136,0,0,0,90,false,stim,false,0,625.0,0,0,0,70539,task2,552684,false,false,581,image-keyboard-response,13
true,5,0,1,0,true,q,false,true,0.0-2.0-0.15-0.137-3.137,0,0,0,81,false,stim,false,2,513.0,0,0,1,70539,task2,554709,false,false,584,image-keyboard-response,14
true,5,0,1,0,true,q,false,true,0.0-2.0-0.15-0.138-3.138,0,0,0,81,false,stim,false,2,584.4000000001397,0,0,1,70539,task2,556804,false,false,587,image-keyboard-response,15
true,5,0,1,1,false,z,true,false,0.0-2.0-0.15-0.139-3.139,0,0,0,81,false,stim,false,2,633.1999999999534,0,0,2,70539,task2,558949,false,false,590,image-keyboard-response,16
true,5,2,1,1,false,z,false,false,0.0-2.0-0.15-0.140-3.140,0,0,0,68,false,stim,true,2,565.5,0,0,2,70539,task2,561028,false,false,593,image-keyboard-response,17
true,5,1,1,1,true,z,false,false,0.0-2.0-0.15-0.141-3.141,0,0,0,90,false,stim,false,2,417.39999999990687,0,0,2,70539,task2,562957,false,true,596,image-keyboard-response,18
true,5,0,1,0,true,q,false,true,0.0-2.0-0.15-0.142-3.142,0,0,0,81,false,stim,false,2,732.8999999999069,0,0,1,70539,task2,565206,false,false,599,image-keyboard-response,19
true,5,1,1,1,true,z,false,true,0.0-2.0-0.15-0.143-3.143,0,0,0,90,false,stim,false,0,517.8000000000466,0,0,0,70539,task2,567237,false,false,602,image-keyboard-response,20
true,5,0,1,0,true,q,false,true,0.0-2.0-0.16-0.144-3.144,0,0,0,81,false,stim,false,2,568.8999999999069,0,0,1,70539,task2,569317,false,false,605,image-keyboard-response,21
true,5,1,1,1,true,z,false,true,0.0-2.0-0.16-0.145-3.145,0,0,0,90,false,stim,false,0,569.1000000000931,0,0,0,70539,task2,571397,false,false,608,image-keyboard-response,22
true,5,0,1,0,true,q,false,true,0.0-2.0-0.16-0.146-3.146,0,0,0,81,false,stim,false,2,572.7000000001863,0,0,1,70539,task2,573477,false,false,611,image-keyboard-response,23
true,5,1,1,1,true,z,false,true,0.0-2.0-0.16-0.147-3.147,0,0,0,90,false,stim,false,0,472.69999999995343,0,0,0,70539,task2,575462,false,false,614,image-keyboard-response,24
true,5,0,1,1,false,z,true,false,0.0-2.0-0.16-0.148-3.148,0,0,0,81,false,stim,false,2,680.5,0,0,2,70539,task2,577654,false,false,617,image-keyboard-response,25
true,5,0,1,0,true,q,false,true,0.0-2.0-0.16-0.149-3.149,0,0,0,81,false,stim,false,2,528.7000000001863,0,0,1,70539,task2,579694,false,false,620,image-keyboard-response,26
true,5,1,1,1,true,z,false,true,0.0-2.0-0.16-0.150-3.150,0,0,0,90,false,stim,false,0,546.6999999999534,0,0,0,70539,task2,581750,false,false,623,image-keyboard-response,27
true,5,1,1,1,true,z,false,true,0.0-2.0-0.16-0.151-3.151,0,0,0,90,false,stim,false,2,500.0,0,0,2,70539,task2,583766,false,false,626,image-keyboard-response,28
true,5,1,1,1,true,z,false,false,0.0-2.0-0.16-0.152-3.152,0,0,0,90,false,stim,false,2,513.5,0,0,2,70539,task2,585791,false,true,629,image-keyboard-response,29
true,5,1,1,1,true,z,false,true,0.0-2.0-0.17-0.153-3.153,0,0,0,90,false,stim,false,0,1464.1000000000931,0,0,0,70539,task2,588766,false,false,632,image-keyboard-response,30
true,5,0,1,0,true,q,false,false,0.0-2.0-0.17-0.154-3.154,0,0,0,81,false,stim,false,2,1379.5,0,0,1,70539,task2,591654,false,true,635,image-keyboard-response,31
true,5,0,1,0,true,q,false,true,0.0-2.0-0.17-0.155-3.155,0,0,0,81,false,stim,false,2,538.0999999998603,0,0,1,70539,task2,593703,false,false,638,image-keyboard-response,32
true,5,0,1,0,true,q,false,true,0.0-2.0-0.17-0.156-3.156,0,0,0,81,false,stim,false,2,492.30000000004657,0,0,1,70539,task2,595711,false,false,641,image-keyboard-response,33
true,5,1,1,1,true,z,false,true,0.0-2.0-0.17-0.157-3.157,0,0,0,90,false,stim,false,0,953.5,0,0,0,70539,task2,598176,false,false,644,image-keyboard-response,34
true,5,1,1,1,true,z,false,true,0.0-2.0-0.17-0.158-3.158,0,0,0,90,false,stim,false,2,757.1000000000931,0,0,2,70539,task2,600447,false,false,647,image-keyboard-response,35
true,6,1,1,0,false,q,false,false,0.0-2.0-0.17-0.159-3.159,0,0,0,90,true,stim,true,1,455.0999999998603,0,0,2,70539,task2,602415,false,false,650,image-keyboard-response,1
true,6,1,1,2,false,d,false,true,0.0-2.0-0.17-0.160-3.160,0,0,0,90,false,stim,true,1,536.5,0,0,0,70539,task2,604463,false,true,653,image-keyboard-response,2
true,6,1,1,0,false,q,false,false,0.0-2.0-0.17-0.161-3.161,0,0,0,90,false,stim,true,1,457.30000000004657,0,0,2,70539,task2,606432,false,false,656,image-keyboard-response,3
true,6,1,1,2,false,d,true,false,0.0-2.0-0.18-0.162-3.162,0,0,0,90,false,stim,false,0,521.4000000001397,0,0,1,70539,task2,608464,false,false,659,image-keyboard-response,4
true,6,1,1,2,false,d,false,false,0.0-2.0-0.18-0.163-3.163,0,0,0,90,false,stim,true,1,955.9000000001397,0,0,0,70539,task2,610936,false,false,662,image-keyboard-response,5
true,6,0,1,2,false,d,false,false,0.0-2.0-0.18-0.164-3.164,0,0,0,81,false,stim,true,0,820.8000000000466,0,0,1,70539,task2,613264,false,false,665,image-keyboard-response,6
true,6,2,1,0,false,q,true,false,0.0-2.0-0.18-0.165-3.165,0,0,0,68,false,stim,false,1,880.8000000000466,0,0,2,70539,task2,615656,false,false,668,image-keyboard-response,7
true,6,0,1,2,false,d,false,false,0.0-2.0-0.18-0.166-3.166,0,0,0,81,false,stim,true,0,1081.3000000000466,0,0,1,70539,task2,618248,false,false,671,image-keyboard-response,8
true,6,0,1,2,false,d,true,false,0.0-2.0-0.18-0.167-3.167,0,0,0,81,false,stim,false,1,1013.0,0,0,0,70539,task2,620769,false,false,674,image-keyboard-response,9
true,6,2,1,2,true,d,false,true,0.0-2.0-0.18-0.168-3.168,0,0,0,68,false,stim,false,1,851.8999999999069,0,0,0,70539,task2,623129,false,false,677,image-keyboard-response,10
true,6,1,1,0,false,q,false,false,0.0-2.0-0.18-0.169-3.169,0,0,0,90,false,stim,true,1,1101.2000000001863,0,0,2,70539,task2,625745,false,false,680,image-keyboard-response,11
true,6,0,1,0,true,q,false,true,0.0-2.0-0.18-0.170-3.170,0,0,0,81,false,stim,false,1,801.0,0,0,2,70539,task2,628057,false,false,683,image-keyboard-response,12
true,6,2,1,2,true,d,false,true,0.0-2.0-0.19-0.171-3.171,0,0,0,68,false,stim,false,1,952.5999999998603,0,0,0,70539,task2,630521,false,false,686,image-keyboard-response,13
true,6,1,1,2,false,d,true,false,0.0-2.0-0.19-0.172-3.172,0,0,0,90,false,stim,false,0,633.1999999999534,0,0,1,70539,task2,632666,false,false,689,image-keyboard-response,14
true,6,2,1,2,true,d,false,true,0.0-2.0-0.19-0.173-3.173,0,0,0,68,false,stim,false,1,544.5,0,0,0,70539,task2,634722,false,false,692,image-keyboard-response,15
true,6,2,1,2,true,d,false,true,0.0-2.0-0.19-0.174-3.174,0,0,0,68,false,stim,false,1,652.3999999999069,0,0,0,70539,task2,636882,false,false,695,image-keyboard-response,16
true,6,0,1,2,false,d,false,true,0.0-2.0-0.19-0.175-3.175,0,0,0,81,false,stim,true,0,1717.1000000000931,0,0,1,70539,task2,640106,false,true,698,image-keyboard-response,17
true,6,0,1,0,true,q,false,true,0.0-2.0-0.19-0.176-3.176,0,0,0,81,false,stim,false,1,655.2000000001863,0,0,2,70539,task2,642274,false,false,701,image-keyboard-response,18
true,6,0,1,0,true,q,false,true,0.0-2.0-0.19-0.177-3.177,0,0,0,81,false,stim,false,1,497.5,0,0,2,70539,task2,644283,false,false,704,image-keyboard-response,19
true,6,0,1,0,true,q,false,true,0.0-2.0-0.19-0.178-3.178,0,0,0,81,false,stim,false,1,658.7000000001863,0,0,2,70539,task2,646450,false,false,707,image-keyboard-response,20
true,6,0,1,2,false,d,false,false,0.0-2.0-0.19-0.179-3.179,0,0,0,81,false,stim,true,0,905.0,0,0,1,70539,task2,648866,false,false,710,image-keyboard-response,21
true,6,0,1,0,true,q,false,true,0.0-2.0-0.20-0.180-3.180,0,0,0,81,false,stim,false,1,552.0,0,0,2,70539,task2,650931,false,false,713,image-keyboard-response,22
true,6,2,1,2,true,d,false,true,0.0-2.0-0.20-0.181-3.181,0,0,0,68,false,stim,false,1,636.6000000000931,0,0,0,70539,task2,653075,false,false,716,image-keyboard-response,23
true,6,2,1,2,true,d,false,true,0.0-2.0-0.20-0.182-3.182,0,0,0,68,false,stim,false,1,408.29999999981374,0,0,0,70539,task2,654996,false,false,719,image-keyboard-response,24
true,6,0,1,0,true,q,false,true,0.0-2.0-0.20-0.183-3.183,0,0,0,81,false,stim,false,1,525.9000000001397,0,0,2,70539,task2,657035,false,false,722,image-keyboard-response,25
true,6,0,1,2,false,d,false,false,0.0-2.0-0.20-0.184-3.184,0,0,0,81,false,stim,true,0,624.9000000001397,0,0,1,70539,task2,659171,false,false,725,image-keyboard-response,26
true,6,1,1,2,false,d,true,false,0.0-2.0-0.20-0.185-3.185,0,0,0,90,false,stim,false,0,621.3000000000466,0,0,1,70539,task2,661299,false,false,728,image-keyboard-response,27
true,6,0,1,0,true,q,false,true,0.0-2.0-0.20-0.186-3.186,0,0,0,81,false,stim,false,1,728.9000000001397,0,0,2,70539,task2,663539,false,false,731,image-keyboard-response,28
true,6,2,1,2,true,d,false,true,0.0-2.0-0.20-0.187-3.187,0,0,0,68,false,stim,false,1,561.8000000000466,0,0,0,70539,task2,665613,false,false,734,image-keyboard-response,29
true,6,2,1,2,true,d,false,true,0.0-2.0-0.20-0.188-3.188,0,0,0,68,false,stim,false,0,652.5999999998603,0,0,1,70539,task2,667780,false,false,737,image-keyboard-response,30
true,6,2,1,2,true,d,false,true,0.0-2.0-0.21-0.189-3.189,0,0,0,68,false,stim,false,1,623.0,0,0,0,70539,task2,669916,false,false,740,image-keyboard-response,31
true,6,2,1,2,true,d,false,true,0.0-2.0-0.21-0.190-3.190,0,0,0,68,false,stim,false,1,656.5,0,0,0,70539,task2,672084,false,false,743,image-keyboard-response,32
true,6,0,1,0,true,q,false,true,0.0-2.0-0.21-0.191-3.191,0,0,0,81,false,stim,false,1,593.0999999998603,0,0,2,70539,task2,674188,false,false,746,image-keyboard-response,33
true,6,2,1,2,true,d,false,true,0.0-2.0-0.21-0.192-3.192,0,0,0,68,false,stim,false,0,801.5999999998603,0,0,1,70539,task2,676501,false,false,749,image-keyboard-response,34
true,6,0,1,0,true,q,false,true,0.0-2.0-0.21-0.193-3.193,0,0,0,81,false,stim,false,1,703.8999999999069,0,0,2,70539,task2,678716,false,false,752,image-keyboard-response,35
true,6,2,1,2,true,d,false,true,0.0-2.0-0.21-0.194-3.194,0,0,0,68,false,stim,false,0,681.1000000000931,0,0,1,70539,task2,680908,false,false,755,image-keyboard-response,36
true,6,2,1,2,true,d,false,false,0.0-2.0-0.21-0.195-3.195,0,0,0,68,false,stim,false,0,575.4000000001397,0,0,1,70539,task2,682997,false,true,758,image-keyboard-response,37
true,6,2,1,2,true,d,false,true,0.0-2.0-0.21-0.196-3.196,0,0,0,68,false,stim,false,1,552.2000000001863,0,0,0,70539,task2,685061,false,false,761,image-keyboard-response,38
true,7,0,1,2,false,d,false,false,0.0-2.0-0.21-0.197-3.197,0,0,0,81,true,stim,true,0,593.3000000000466,0,0,2,70539,task2,687166,false,false,764,image-keyboard-response,1
true,7,2,1,1,false,z,false,false,0.0-2.0-0.22-0.198-3.198,0,0,0,68,false,stim,true,2,775.9000000001397,0,0,1,70539,task2,689453,false,false,767,image-keyboard-response,2
true,7,1,1,2,false,d,true,false,0.0-2.0-0.22-0.199-3.199,0,0,0,90,false,stim,false,0,752.3999999999069,0,0,2,70539,task2,691717,false,false,770,image-keyboard-response,3
true,7,2,1,1,false,z,false,true,0.0-2.0-0.22-0.200-3.200,0,0,0,68,false,stim,true,2,803.0,0,0,0,70539,task2,694029,false,true,773,image-keyboard-response,4
true,7,2,1,1,false,z,false,false,0.0-2.0-0.22-0.201-3.201,0,0,0,68,false,stim,true,2,491.80000000004657,0,0,0,70539,task2,696029,false,false,776,image-keyboard-response,5
true,7,2,1,2,true,d,false,true,0.0-2.0-0.22-0.202-3.202,0,0,0,68,false,stim,false,0,643.5999999998603,0,0,2,70539,task2,698182,false,false,779,image-keyboard-response,6
true,7,0,1,1,false,z,true,false,0.0-2.0-0.22-0.203-3.203,0,0,0,81,false,stim,false,2,1119.9000000001397,0,0,1,70539,task2,700814,false,false,782,image-keyboard-response,7
true,7,1,1,1,true,z,false,true,0.0-2.0-0.22-0.204-3.204,0,0,0,90,false,stim,false,2,886.9000000001397,0,0,1,70539,task2,703214,false,false,785,image-keyboard-response,8
true,7,2,1,1,false,z,false,false,0.0-2.0-0.22-0.205-3.205,0,0,0,68,false,stim,true,2,976.9000000001397,0,0,0,70539,task2,705702,false,false,788,image-keyboard-response,9
true,7,2,1,2,true,d,false,true,0.0-2.0-0.22-0.206-3.206,0,0,0,68,false,stim,false,0,1028.8000000000466,0,0,2,70539,task2,708247,false,false,791,image-keyboard-response,10
true,7,1,1,1,true,z,false,true,0.0-2.0-0.23-0.207-3.207,0,0,0,90,false,stim,false,2,615.6000000000931,0,0,1,70539,task2,710374,false,false,794,image-keyboard-response,11
true,7,2,1,2,true,d,false,true,0.0-2.0-0.23-0.208-3.208,0,0,0,68,false,stim,false,0,703.8000000000466,0,0,2,70539,task2,712591,false,false,797,image-keyboard-response,12
true,7,0,1,1,false,z,true,false,0.0-2.0-0.23-0.209-3.209,0,0,0,81,false,stim,false,2,664.8000000000466,0,0,0,70539,task2,714767,false,false,800,image-keyboard-response,13
true,7,1,1,1,true,z,false,false,0.0-2.0-0.23-0.210-3.210,0,0,0,90,false,stim,false,2,755.5,0,0,1,70539,task2,717039,false,true,803,image-keyboard-response,14
true,7,2,1,1,false,z,false,false,0.0-2.0-0.23-0.211-3.211,0,0,0,68,false,stim,true,2,918.7999999998137,0,0,0,70539,task2,719472,false,false,806,image-keyboard-response,15
true,7,1,1,1,true,z,false,true,0.0-2.0-0.23-0.212-3.212,0,0,0,90,false,stim,false,2,689.8000000000466,0,0,0,70539,task2,721671,false,false,809,image-keyboard-response,16
true,7,2,1,2,true,d,false,true,0.0-2.0-0.23-0.213-3.213,0,0,0,68,false,stim,false,0,952.3000000000466,0,0,2,70539,task2,724136,false,false,812,image-keyboard-response,17
true,7,2,1,2,true,d,false,true,0.0-2.0-0.23-0.214-3.214,0,0,0,68,false,stim,false,0,646.0,0,0,2,70539,task2,726296,false,false,815,image-keyboard-response,18
true,7,1,1,1,true,z,false,true,0.0-2.0-0.23-0.215-3.215,0,0,0,90,false,stim,false,2,584.3999999999069,0,0,1,70539,task2,728392,false,false,818,image-keyboard-response,19
true,7,2,1,2,true,d,false,true,0.0-2.0-0.24-0.216-3.216,0,0,0,68,false,stim,false,0,641.1999999999534,0,0,2,70539,task2,730545,false,false,821,image-keyboard-response,20
true,7,1,1,1,true,z,false,true,0.0-2.0-0.24-0.217-3.217,0,0,0,90,false,stim,false,2,931.1000000000931,0,0,0,70539,task2,732984,false,false,824,image-keyboard-response,21
true,7,1,1,1,true,z,false,true,0.0-2.0-0.24-0.218-3.218,0,0,0,90,false,stim,false,2,991.5,0,0,1,70539,task2,735488,false,false,827,image-keyboard-response,22
true,7,2,1,2,true,d,false,true,0.0-2.0-0.24-0.219-3.219,0,0,0,68,false,stim,false,0,544.3000000000466,0,0,2,70539,task2,737544,false,false,830,image-keyboard-response,23
true,7,1,1,1,true,z,false,true,0.0-2.0-0.24-0.220-3.220,0,0,0,90,false,stim,false,2,612.9000000001397,0,0,1,70539,task2,739665,false,false,833,image-keyboard-response,24
true,7,1,1,1,true,z,false,true,0.0-2.0-0.24-0.221-3.221,0,0,0,90,false,stim,false,2,825.0999999998603,0,0,0,70539,task2,742001,false,false,836,image-keyboard-response,25
true,7,2,1,2,true,d,false,true,0.0-2.0-0.24-0.222-3.222,0,0,0,68,false,stim,false,0,619.6999999999534,0,0,2,70539,task2,744136,false,false,839,image-keyboard-response,26
true,7,1,1,1,true,z,false,true,0.0-2.0-0.24-0.223-3.223,0,0,0,90,false,stim,false,2,843.1000000000931,0,0,1,70539,task2,746489,false,false,842,image-keyboard-response,27
true,7,1,1,1,true,z,false,true,0.0-2.0-0.24-0.224-3.224,0,0,0,90,false,stim,false,2,824.5,0,0,0,70539,task2,748825,false,false,845,image-keyboard-response,28
true,7,1,1,1,true,z,false,true,0.0-2.0-0.25-0.225-3.225,0,0,0,90,false,stim,false,2,510.9000000001397,0,0,0,70539,task2,750849,false,false,848,image-keyboard-response,29
true,7,1,1,1,true,z,false,true,0.0-2.0-0.25-0.226-3.226,0,0,0,90,false,stim,false,2,507.5999999998603,0,0,0,70539,task2,752866,false,false,851,image-keyboard-response,30
true,7,1,1,1,true,z,false,true,0.0-2.0-0.25-0.227-3.227,0,0,0,90,false,stim,false,2,872.0999999998603,0,0,1,70539,task2,755250,false,false,854,image-keyboard-response,31
true,7,1,1,1,true,z,false,true,0.0-2.0-0.25-0.228-3.228,0,0,0,90,false,stim,false,2,447.9000000001397,0,0,1,70539,task2,757210,false,false,857,image-keyboard-response,32
true,7,2,1,2,true,d,false,true,0.0-2.0-0.25-0.229-3.229,0,0,0,68,false,stim,false,0,548.6999999999534,0,0,2,70539,task2,759274,false,false,860,image-keyboard-response,33
true,7,2,1,2,true,d,false,true,0.0-2.0-0.25-0.230-3.230,0,0,0,68,false,stim,false,0,584.5,0,0,2,70539,task2,761370,false,false,863,image-keyboard-response,34
true,7,1,1,1,true,z,false,true,0.0-2.0-0.25-0.231-3.231,0,0,0,90,false,stim,false,2,622.1999999999534,0,0,1,70539,task2,763499,false,false,866,image-keyboard-response,35
true,8,2,1,1,false,z,false,false,0.0-2.0-0.25-0.232-3.232,0,0,0,68,true,stim,true,2,648.0,0,0,2,70539,task2,765658,false,false,869,image-keyboard-response,1
true,8,1,1,2,false,d,false,true,0.0-2.0-0.25-0.233-3.233,0,0,0,90,false,stim,true,1,632.5,0,0,0,70539,task2,767802,false,true,872,image-keyboard-response,2
true,8,1,1,2,false,d,false,false,0.0-2.0-0.26-0.234-3.234,0,0,0,90,false,stim,true,1,607.8999999999069,0,0,1,70539,task2,769923,false,false,875,image-keyboard-response,3
true,8,2,1,1,false,z,false,false,0.0-2.0-0.26-0.235-3.235,0,0,0,68,false,stim,true,2,611.8999999999069,0,0,2,70539,task2,772051,false,false,878,image-keyboard-response,4
true,8,1,1,2,false,d,false,false,0.0-2.0-0.26-0.236-3.236,0,0,0,90,false,stim,true,1,696.8999999999069,0,0,0,70539,task2,774259,false,false,881,image-keyboard-response,5
true,8,1,1,2,false,d,false,false,0.0-2.0-0.26-0.237-3.237,0,0,0,90,false,stim,true,1,623.3999999999069,0,0,1,70539,task2,776394,false,false,884,image-keyboard-response,6
true,8,0,1,2,false,d,true,false,0.0-2.0-0.26-0.238-3.238,0,0,0,81,false,stim,false,1,656.8000000000466,0,0,0,70539,task2,778563,false,false,887,image-keyboard-response,7
true,8,0,1,2,false,d,true,false,0.0-2.0-0.26-0.239-3.239,0,0,0,81,false,stim,false,1,713.5,0,0,1,70539,task2,780787,false,false,890,image-keyboard-response,8
true,8,1,1,2,false,d,false,true,0.0-2.0-0.26-0.240-3.240,0,0,0,90,false,stim,true,1,916.9000000001397,0,0,0,70539,task2,783211,false,true,893,image-keyboard-response,9
true,8,1,1,1,true,z,false,true,0.0-2.0-0.26-0.241-3.241,0,0,0,90,false,stim,false,2,803.8000000000466,0,0,2,70539,task2,785532,false,false,896,image-keyboard-response,10
true,8,1,1,1,true,z,false,false,0.0-2.0-0.26-0.242-3.242,0,0,0,90,false,stim,false,2,671.7000000001863,0,0,2,70539,task2,787716,false,true,899,image-keyboard-response,11
true,8,1,1,1,true,z,false,true,0.0-2.0-0.27-0.243-3.243,0,0,0,90,false,stim,false,2,698.0,0,0,2,70539,task2,789932,false,false,902,image-keyboard-response,12
true,8,2,1,2,true,d,false,true,0.0-2.0-0.27-0.244-3.244,0,0,0,68,false,stim,false,1,895.5,0,0,1,70539,task2,792340,false,false,905,image-keyboard-response,13
true,8,2,1,2,true,d,false,true,0.0-2.0-0.27-0.245-3.245,0,0,0,68,false,stim,false,1,532.0,0,0,1,70539,task2,794380,false,false,908,image-keyboard-response,14
true,8,1,1,2,false,d,false,false,0.0-2.0-0.27-0.246-3.246,0,0,0,90,false,stim,true,1,546.8000000000466,0,0,0,70539,task2,796437,false,false,911,image-keyboard-response,15
true,8,1,1,2,false,d,false,false,0.0-2.0-0.27-0.247-3.247,0,0,0,90,false,stim,true,1,536.1999999999534,0,0,0,70539,task2,798484,false,false,914,image-keyboard-response,16
true,8,0,1,2,false,d,true,false,0.0-2.0-0.27-0.248-3.248,0,0,0,81,false,stim,false,1,760.5999999998603,0,0,0,70539,task2,800756,false,false,917,image-keyboard-response,17
true,8,1,1,1,true,z,false,true,0.0-2.0-0.27-0.249-3.249,0,0,0,90,false,stim,false,2,975.8000000000466,0,0,2,70539,task2,803244,false,false,920,image-keyboard-response,18
true,8,2,1,2,true,d,false,true,0.0-2.0-0.27-0.250-3.250,0,0,0,68,false,stim,false,1,543.0999999998603,0,0,1,70539,task2,805301,false,false,923,image-keyboard-response,19
true,8,1,1,1,true,z,false,false,0.0-2.0-0.27-0.251-3.251,0,0,0,90,false,stim,false,2,798.8000000000466,0,0,2,70539,task2,807614,false,true,926,image-keyboard-response,20
true,8,2,1,2,true,d,false,true,0.0-2.0-0.28-0.252-3.252,0,0,0,68,false,stim,false,1,583.8999999999069,0,0,1,70539,task2,809709,false,false,929,image-keyboard-response,21
true,8,1,1,1,true,z,false,true,0.0-2.0-0.28-0.253-3.253,0,0,0,90,false,stim,false,2,1152.3000000000466,0,0,2,70539,task2,812373,false,false,932,image-keyboard-response,22
true,8,2,1,2,true,d,false,true,0.0-2.0-0.28-0.254-3.254,0,0,0,68,false,stim,false,1,707.5,0,0,1,70539,task2,814597,false,false,935,image-keyboard-response,23
true,8,2,1,2,true,d,false,false,0.0-2.0-0.28-0.255-3.255,0,0,0,68,false,stim,false,1,867.4000000001397,0,0,0,70539,task2,816974,false,true,938,image-keyboard-response,24
true,8,1,1,1,true,z,false,false,0.0-2.0-0.28-0.256-3.256,0,0,0,90,false,stim,false,2,806.6999999999534,0,0,2,70539,task2,819295,false,true,941,image-keyboard-response,25
true,8,1,1,2,false,d,false,false,0.0-2.0-0.28-0.257-3.257,0,0,0,90,false,stim,true,1,810.8999999999069,0,0,0,70539,task2,821614,false,false,944,image-keyboard-response,26
true,8,0,1,2,false,d,true,true,0.0-2.0-0.28-0.258-3.258,0,0,0,81,false,stim,false,1,644.8000000000466,0,0,0,70539,task2,823766,false,true,947,image-keyboard-response,27
true,8,1,1,1,true,z,false,true,0.0-2.0-0.28-0.259-3.259,0,0,0,90,false,stim,false,2,768.5,0,0,2,70539,task2,826046,false,false,950,image-keyboard-response,28
true,8,2,1,2,true,d,false,true,0.0-2.0-0.28-0.260-3.260,0,0,0,68,false,stim,false,1,512.8000000000466,0,0,1,70539,task2,828070,false,false,953,image-keyboard-response,29
true,8,0,1,2,false,d,true,false,0.0-2.0-0.29-0.261-3.261,0,0,0,81,false,stim,false,1,519.8000000000466,0,0,0,70539,task2,830103,false,false,956,image-keyboard-response,30
true,8,2,1,2,true,d,false,true,0.0-2.0-0.29-0.262-3.262,0,0,0,68,false,stim,false,1,1031.5999999998603,0,1,1,70539,task2,832646,false,false,959,image-keyboard-response,31
true,8,1,1,1,true,z,false,true,0.0-2.0-0.29-0.263-3.263,0,0,0,90,false,stim,false,2,551.9000000001397,0,0,2,70539,task2,834711,false,false,962,image-keyboard-response,32
true,8,2,1,1,false,z,false,false,0.0-2.0-0.29-0.264-3.264,0,0,0,68,false,stim,true,2,700.4000000001397,0,0,2,70539,task2,836927,false,false,965,image-keyboard-response,33
true,8,0,1,2,false,d,true,false,0.0-2.0-0.29-0.265-3.265,0,0,0,81,false,stim,false,1,656.4000000001397,0,0,0,70539,task2,839095,false,false,968,image-keyboard-response,34
true,8,0,1,2,false,d,true,false,0.0-2.0-0.29-0.266-3.266,0,0,0,81,false,stim,false,1,936.2000000001863,0,0,0,70539,task2,841544,false,false,971,image-keyboard-response,35
true,9,1,2,0,false,q,false,false,0.0-2.0-0.29-0.267-3.267,0,1,0,90,true,stim,true,1,831.2000000001863,0,0,2,70539,task2,843887,false,false,974,image-keyboard-response,1
true,9,2,2,2,true,d,false,true,0.0-2.0-0.29-0.268-3.268,0,1,0,68,false,stim,false,2,840.4000000001397,0,1,1,70539,task2,846239,false,false,977,image-keyboard-response,2
true,9,2,2,2,true,d,false,true,0.0-2.0-0.29-0.269-3.269,0,1,0,68,false,stim,false,2,544.5,0,1,1,70539,task2,848296,false,false,980,image-keyboard-response,3
true,9,1,2,0,false,q,false,false,0.0-2.0-0.30-0.270-3.270,0,1,0,90,false,stim,true,1,639.6000000000931,0,0,2,70539,task2,850448,false,false,983,image-keyboard-response,4
true,9,1,2,1,true,z,false,true,0.0-2.0-0.30-0.271-3.271,0,1,0,90,false,stim,false,2,794.3000000000466,0,0,0,70539,task2,852753,false,false,986,image-keyboard-response,5
true,9,1,2,1,true,z,false,true,0.0-2.0-0.30-0.272-3.272,0,1,0,90,false,stim,false,2,669.5,0,0,0,70539,task2,854936,false,false,989,image-keyboard-response,6
true,9,0,2,0,true,q,false,true,0.0-2.0-0.30-0.273-3.273,0,1,0,81,false,stim,false,1,560.6000000000931,0,0,2,70539,task2,857008,false,false,992,image-keyboard-response,7
true,9,0,2,0,true,q,false,false,0.0-2.0-0.30-0.274-3.274,0,1,0,81,false,stim,false,1,624.3000000000466,0,0,2,70539,task2,859144,false,true,995,image-keyboard-response,8
true,9,2,2,2,true,d,false,true,0.0-2.0-0.30-0.275-3.275,0,1,0,68,false,stim,false,2,884.8000000000466,0,1,1,70539,task2,861544,false,false,998,image-keyboard-response,9
true,9,2,2,2,true,d,false,true,0.0-2.0-0.30-0.276-3.276,0,1,0,68,false,stim,false,2,615.4000000001397,0,1,1,70539,task2,863681,false,false,1001,image-keyboard-response,10
true,9,2,2,2,true,d,false,true,0.0-2.0-0.30-0.277-3.277,0,1,0,68,false,stim,false,2,615.3999999999069,0,1,1,70539,task2,865809,false,false,1004,image-keyboard-response,11
true,9,1,2,1,true,z,false,true,0.0-2.0-0.30-0.278-3.278,0,1,0,90,false,stim,false,2,1325.7000000001863,0,0,0,70539,task2,868649,false,false,1007,image-keyboard-response,12
true,9,1,2,1,true,z,false,true,0.0-2.0-0.31-0.279-3.279,0,1,0,90,false,stim,false,2,872.0999999998603,0,0,0,70539,task2,871033,false,false,1010,image-keyboard-response,13
true,9,2,2,2,true,d,false,true,0.0-2.0-0.31-0.280-3.280,0,1,0,68,false,stim,false,2,752.8999999999069,0,1,1,70539,task2,873298,false,false,1013,image-keyboard-response,14
true,9,2,2,2,true,d,false,true,0.0-2.0-0.31-0.281-3.281,0,1,0,68,false,stim,false,2,664.0999999998603,0,1,1,70539,task2,875474,false,false,1016,image-keyboard-response,15
true,9,1,2,1,true,z,false,true,0.0-2.0-0.31-0.282-3.282,0,1,0,90,false,stim,false,2,895.0999999998603,0,0,0,70539,task2,877882,false,false,1019,image-keyboard-response,16
true,9,0,2,0,true,q,false,true,0.0-2.0-0.31-0.283-3.283,0,1,0,81,false,stim,false,1,1000.1000000000931,0,0,2,70539,task2,880394,false,false,1022,image-keyboard-response,17
true,9,0,2,0,true,q,false,true,0.0-2.0-0.31-0.284-3.284,0,1,0,81,false,stim,false,1,480.4000000001397,0,0,2,70539,task2,882386,false,false,1025,image-keyboard-response,18
true,9,2,2,2,true,d,false,true,0.0-2.0-0.31-0.285-3.285,0,1,0,68,false,stim,false,2,902.9000000001397,0,1,1,70539,task2,884802,false,false,1028,image-keyboard-response,19
true,9,1,2,1,true,z,false,true,0.0-2.0-0.31-0.286-3.286,0,1,0,90,false,stim,false,2,534.1999999999534,0,0,0,70539,task2,886843,false,false,1031,image-keyboard-response,20
true,9,0,2,0,true,q,false,true,0.0-2.0-0.31-0.287-3.287,0,1,0,81,false,stim,false,1,870.9000000001397,0,0,2,70539,task2,889226,false,false,1034,image-keyboard-response,21
true,9,2,2,2,true,d,false,true,0.0-2.0-0.32-0.288-3.288,0,1,0,68,false,stim,false,2,655.1999999999534,0,1,1,70539,task2,891394,false,false,1037,image-keyboard-response,22
true,9,1,2,1,true,z,false,false,0.0-2.0-0.32-0.289-3.289,0,1,0,90,false,stim,false,2,591.9000000001397,0,0,0,70539,task2,893499,false,true,1040,image-keyboard-response,23
true,9,1,2,1,true,z,false,true,0.0-2.0-0.32-0.290-3.290,0,1,0,90,false,stim,false,2,560.3000000000466,0,0,0,70539,task2,895570,false,false,1043,image-keyboard-response,24
true,9,2,2,2,true,d,false,true,0.0-2.0-0.32-0.291-3.291,0,1,0,68,false,stim,false,2,819.5999999998603,0,1,1,70539,task2,897900,false,false,1046,image-keyboard-response,25
true,9,2,2,2,true,d,false,true,0.0-2.0-0.32-0.292-3.292,0,1,0,68,false,stim,false,2,625.9000000001397,0,1,1,70539,task2,900035,false,false,1049,image-keyboard-response,26
true,9,1,2,1,true,z,false,false,0.0-2.0-0.32-0.293-3.293,0,1,0,90,false,stim,false,2,827.3000000000466,0,0,0,70539,task2,902379,false,true,1052,image-keyboard-response,27
true,9,0,2,0,true,q,false,true,0.0-2.0-0.32-0.294-3.294,0,1,0,81,false,stim,false,1,720.3000000000466,0,0,2,70539,task2,904611,false,false,1055,image-keyboard-response,28
true,9,0,2,0,true,q,false,true,0.0-2.0-0.32-0.295-3.295,0,1,0,81,false,stim,false,1,773.6000000000931,0,0,2,70539,task2,906899,false,false,1058,image-keyboard-response,29
true,9,0,2,0,true,q,false,true,0.0-2.0-0.32-0.296-3.296,0,1,0,81,false,stim,false,1,529.3999999999069,0,0,2,70539,task2,908940,false,false,1061,image-keyboard-response,30
true,9,0,2,0,true,q,false,true,0.0-2.0-0.33-0.297-3.297,0,1,0,81,false,stim,false,1,628.1000000000931,0,0,2,70539,task2,911076,false,false,1064,image-keyboard-response,31
true,9,1,2,1,true,z,false,true,0.0-2.0-0.33-0.298-3.298,0,1,0,90,false,stim,false,2,574.5,0,0,0,70539,task2,913164,false,false,1067,image-keyboard-response,32
true,9,2,2,2,true,d,false,true,0.0-2.0-0.33-0.299-3.299,0,1,0,68,false,stim,false,2,569.5,0,0,1,70539,task2,915244,false,false,1070,image-keyboard-response,33
true,9,0,2,0,true,q,false,false,0.0-2.0-0.33-0.300-3.300,0,1,0,81,false,stim,false,1,616.0999999998603,0,0,2,70539,task2,917372,false,true,1073,image-keyboard-response,34
true,10,2,1,1,false,z,false,false,0.0-2.0-0.33-0.301-3.301,0,0,0,68,true,stim,true,2,649.1000000000931,0,0,1,70539,task2,919533,false,false,1076,image-keyboard-response,1
true,10,0,1,1,false,z,false,false,0.0-2.0-0.33-0.302-3.302,0,0,0,81,false,stim,true,0,727.8999999999069,0,0,2,70539,task2,921773,false,false,1079,image-keyboard-response,2
true,10,1,1,0,false,q,false,false,0.0-2.0-0.33-0.303-3.303,0,0,0,90,false,stim,true,1,576.1999999999534,0,0,0,70539,task2,923860,false,false,1082,image-keyboard-response,3
true,10,2,1,0,false,q,true,false,0.0-2.0-0.33-0.304-3.304,0,0,0,68,false,stim,false,1,610.8999999999069,0,0,0,70539,task2,925981,false,false,1085,image-keyboard-response,4
true,10,1,1,1,true,z,false,true,0.0-2.0-0.33-0.305-3.305,0,0,0,90,false,stim,false,2,915.5999999998603,0,0,1,70539,task2,928405,false,false,1088,image-keyboard-response,5
true,10,0,1,0,true,q,false,false,0.0-2.0-0.34-0.306-3.306,0,0,0,81,false,stim,false,1,744.6999999999534,0,0,0,70539,task2,930662,false,true,1091,image-keyboard-response,6
true,10,2,1,0,false,q,true,false,0.0-2.0-0.34-0.307-3.307,0,0,0,68,false,stim,false,1,655.3999999999069,0,0,0,70539,task2,932829,false,false,1094,image-keyboard-response,7
true,10,1,1,1,true,z,false,true,0.0-2.0-0.34-0.308-3.308,0,0,0,90,false,stim,false,0,1048.1999999999534,0,0,2,70539,task2,935389,false,false,1097,image-keyboard-response,8
true,10,2,1,0,false,q,true,true,0.0-2.0-0.34-0.309-3.309,0,0,0,68,false,stim,false,1,697.5,0,0,0,70539,task2,937598,false,true,1100,image-keyboard-response,9
true,10,1,1,1,true,z,false,true,0.0-2.0-0.34-0.310-3.310,0,0,0,90,false,stim,false,0,569.6000000000931,0,0,2,70539,task2,939686,false,false,1103,image-keyboard-response,10
true,10,1,1,1,true,z,false,false,0.0-2.0-0.34-0.311-3.311,0,0,0,90,false,stim,false,2,568.5,0,0,1,70539,task2,941767,false,true,1106,image-keyboard-response,11
true,10,1,1,1,true,z,false,true,0.0-2.0-0.34-0.312-3.312,0,0,0,90,false,stim,false,2,543.6000000000931,0,0,1,70539,task2,943822,false,false,1109,image-keyboard-response,12
true,10,1,1,1,true,z,false,false,0.0-2.0-0.34-0.313-3.313,0,0,0,90,false,stim,false,2,464.30000000004657,0,0,1,70539,task2,945798,false,true,1112,image-keyboard-response,13
true,10,1,1,1,true,z,false,true,0.0-2.0-0.34-0.314-3.314,0,0,0,90,false,stim,false,0,617.5,0,0,2,70539,task2,947926,false,false,1115,image-keyboard-response,14
true,10,2,1,0,false,q,true,false,0.0-2.0-0.35-0.315-3.315,0,0,0,68,false,stim,false,1,516.5,0,0,0,70539,task2,949958,false,false,1118,image-keyboard-response,15
true,10,2,1,0,false,q,true,true,0.0-2.0-0.35-0.316-3.316,0,0,0,68,false,stim,false,1,545.1000000000931,0,0,0,70539,task2,952015,false,true,1121,image-keyboard-response,16
true,10,2,1,0,false,q,true,false,0.0-2.0-0.35-0.317-3.317,0,0,0,68,false,stim,false,1,545.0,0,0,0,70539,task2,954071,false,false,1124,image-keyboard-response,17
true,10,1,1,1,true,z,false,true,0.0-2.0-0.35-0.318-3.318,0,0,0,90,false,stim,false,0,730.1999999999534,0,0,2,70539,task2,956311,false,false,1127,image-keyboard-response,18
true,10,1,1,1,true,z,false,true,0.0-2.0-0.35-0.319-3.319,0,0,0,90,false,stim,false,2,836.9000000001397,0,0,1,70539,task2,958663,false,false,1130,image-keyboard-response,19
true,10,1,1,1,true,z,false,true,0.0-2.0-0.35-0.320-3.320,0,0,0,90,false,stim,false,0,728.9000000001397,0,0,2,70539,task2,960903,false,false,1133,image-keyboard-response,20
true,10,1,1,1,true,z,false,true,0.0-2.0-0.35-0.321-3.321,0,0,0,90,false,stim,false,2,522.7999999998137,0,0,1,70539,task2,962936,false,false,1136,image-keyboard-response,21
true,10,1,1,1,true,z,false,false,0.0-2.0-0.35-0.322-3.322,0,0,0,90,false,stim,false,0,719.1000000000931,0,0,2,70539,task2,965167,false,true,1139,image-keyboard-response,22
true,10,1,1,1,true,z,false,true,0.0-2.0-0.35-0.323-3.323,0,0,0,90,false,stim,false,2,492.4000000001397,0,0,1,70539,task2,967168,false,false,1142,image-keyboard-response,23
true,10,1,1,1,true,z,false,true,0.0-2.0-0.36-0.324-3.324,0,0,0,90,false,stim,false,2,529.5,0,0,1,70539,task2,969208,false,false,1145,image-keyboard-response,24
true,10,1,1,1,true,z,false,true,0.0-2.0-0.36-0.325-3.325,0,0,0,90,false,stim,false,0,520.2000000001863,0,0,2,70539,task2,971240,false,false,1148,image-keyboard-response,25
true,10,1,1,1,true,z,false,true,0.0-2.0-0.36-0.326-3.326,0,0,0,90,false,stim,false,2,564.5,0,0,1,70539,task2,973321,false,false,1151,image-keyboard-response,26
true,10,1,1,1,true,z,false,true,0.0-2.0-0.36-0.327-3.327,0,0,0,90,false,stim,false,0,579.0,0,0,2,70539,task2,975416,false,false,1154,image-keyboard-response,27
true,10,1,1,1,true,z,false,true,0.0-2.0-0.36-0.328-3.328,0,0,0,90,false,stim,false,2,527.9000000001397,0,0,1,70539,task2,977456,false,false,1157,image-keyboard-response,28
true,10,1,1,1,true,z,false,true,0.0-2.0-0.36-0.329-3.329,0,0,0,90,false,stim,false,0,553.7000000001863,0,0,2,70539,task2,979520,false,false,1160,image-keyboard-response,29
true,10,2,1,0,false,q,true,true,0.0-2.0-0.36-0.330-3.330,0,0,0,68,false,stim,false,1,671.7000000001863,0,0,0,70539,task2,981704,false,true,1163,image-keyboard-response,30
true,10,2,1,0,false,q,true,false,0.0-2.0-0.36-0.331-3.331,0,0,0,68,false,stim,false,1,460.80000000004657,0,0,0,70539,task2,983681,false,false,1166,image-keyboard-response,31
true,10,2,1,0,false,q,true,false,0.0-2.0-0.36-0.332-3.332,0,0,0,68,false,stim,false,1,482.19999999995343,0,0,0,70539,task2,985681,false,false,1169,image-keyboard-response,32
true,10,1,1,1,true,z,false,true,0.0-2.0-0.37-0.333-3.333,0,0,0,90,false,stim,false,0,560.5,0,0,2,70539,task2,987753,false,false,1172,image-keyboard-response,33
true,10,2,1,0,false,q,true,false,0.0-2.0-0.37-0.334-3.334,0,0,0,68,false,stim,false,1,773.3000000000466,0,0,0,70539,task2,990041,false,false,1175,image-keyboard-response,34
true,11,1,2,0,false,q,false,false,0.0-2.0-0.37-0.335-3.335,0,1,0,90,true,stim,true,1,439.80000000004657,0,0,2,70539,task2,991993,false,false,1178,image-keyboard-response,1
true,11,1,2,1,true,z,false,true,0.0-2.0-0.37-0.336-3.336,0,1,0,90,false,stim,false,1,575.6000000000931,0,1,1,70539,task2,994082,false,false,1181,image-keyboard-response,2
true,11,1,2,0,false,q,false,false,0.0-2.0-0.37-0.337-3.337,0,1,0,90,false,stim,true,1,519.3000000000466,0,0,2,70539,task2,996113,false,false,1184,image-keyboard-response,3
true,11,1,2,1,true,z,false,true,0.0-2.0-0.37-0.338-3.338,0,1,0,90,false,stim,false,1,491.69999999995343,0,1,1,70539,task2,998113,false,false,1187,image-keyboard-response,4
true,11,0,2,1,false,z,false,false,0.0-2.0-0.37-0.339-3.339,0,1,0,81,false,stim,true,0,619.6000000000931,0,0,0,70539,task2,1000250,false,false,1190,image-keyboard-response,5
true,11,1,2,1,true,z,false,true,0.0-2.0-0.37-0.340-3.340,0,1,0,90,false,stim,false,1,781.1000000000931,0,1,1,70539,task2,1002546,false,false,1193,image-keyboard-response,6
true,11,1,2,1,true,z,false,true,0.0-2.0-0.37-0.341-3.341,0,1,0,90,false,stim,false,0,608.1000000000931,0,0,0,70539,task2,1004667,false,false,1196,image-keyboard-response,7
true,11,1,2,1,true,z,false,true,0.0-2.0-0.38-0.342-3.342,0,1,0,90,false,stim,false,1,567.3000000000466,0,1,1,70539,task2,1006746,false,false,1199,image-keyboard-response,8
true,11,0,2,0,true,q,false,true,0.0-2.0-0.38-0.343-3.343,0,1,0,81,false,stim,false,1,598.5999999998603,0,0,2,70539,task2,1008867,false,false,1202,image-keyboard-response,9
true,11,1,2,1,true,z,false,true,0.0-2.0-0.38-0.344-3.344,0,1,0,90,false,stim,false,1,552.0,0,1,1,70539,task2,1010931,false,false,1205,image-keyboard-response,10
true,11,1,2,1,true,z,false,true,0.0-2.0-0.38-0.345-3.345,0,1,0,90,false,stim,false,0,493.20000000018626,0,0,0,70539,task2,1012939,false,false,1208,image-keyboard-response,11
true,11,1,2,1,true,z,false,true,0.0-2.0-0.38-0.346-3.346,0,1,0,90,false,stim,false,1,815.8000000000466,0,1,1,70539,task2,1015267,false,false,1211,image-keyboard-response,12
true,11,0,2,0,true,q,false,true,0.0-2.0-0.38-0.347-3.347,0,1,0,81,false,stim,false,1,1170.5,0,0,2,70539,task2,1017955,false,false,1214,image-keyboard-response,13
true,11,1,2,1,true,z,false,true,0.0-2.0-0.38-0.348-3.348,0,1,0,90,false,stim,false,0,489.80000000004657,0,0,0,70539,task2,1019955,false,false,1217,image-keyboard-response,14
true,11,0,2,0,true,q,false,true,0.0-2.0-0.38-0.349-3.349,0,1,0,81,false,stim,false,1,595.1000000000931,0,0,2,70539,task2,1022067,false,false,1220,image-keyboard-response,15
true,11,1,2,1,true,z,false,true,0.0-2.0-0.38-0.350-3.350,0,1,0,90,false,stim,false,0,568.2000000001863,0,0,0,70539,task2,1024147,false,false,1223,image-keyboard-response,16
true,11,1,2,1,true,z,false,true,0.0-2.0-0.39-0.351-3.351,0,1,0,90,false,stim,false,1,656.6999999999534,0,1,1,70539,task2,1026316,false,false,1226,image-keyboard-response,17
true,11,0,2,0,true,q,false,true,0.0-2.0-0.39-0.352-3.352,0,1,0,81,false,stim,false,1,630.3000000000466,0,0,2,70539,task2,1028460,false,false,1229,image-keyboard-response,18
true,11,1,2,1,true,z,false,true,0.0-2.0-0.39-0.353-3.353,0,1,0,90,false,stim,false,0,536.1999999999534,0,0,0,70539,task2,1030508,false,false,1232,image-keyboard-response,19
true,11,0,2,0,true,q,false,true,0.0-2.0-0.39-0.354-3.354,0,1,0,81,false,stim,false,1,696.5,0,0,2,70539,task2,1032716,false,false,1235,image-keyboard-response,20
true,11,1,2,1,true,z,false,true,0.0-2.0-0.39-0.355-3.355,0,1,0,90,false,stim,false,1,848.1999999999534,0,1,1,70539,task2,1035076,false,false,1238,image-keyboard-response,21
true,11,1,2,1,true,z,false,true,0.0-2.0-0.39-0.356-3.356,0,1,0,90,false,stim,false,1,440.4000000001397,0,1,1,70539,task2,1037029,false,false,1241,image-keyboard-response,22
true,11,1,2,1,true,z,false,true,0.0-2.0-0.39-0.357-3.357,0,1,0,90,false,stim,false,0,679.6000000000931,0,0,0,70539,task2,1039220,false,false,1244,image-keyboard-response,23
true,11,0,2,0,true,q,false,true,0.0-2.0-0.39-0.358-3.358,0,1,0,81,false,stim,false,1,632.0,0,0,2,70539,task2,1041364,false,false,1247,image-keyboard-response,24
true,11,1,2,1,true,z,false,true,0.0-2.0-0.39-0.359-3.359,0,1,0,90,false,stim,false,0,539.9000000001397,0,0,0,70539,task2,1043413,false,false,1250,image-keyboard-response,25
true,11,0,2,0,true,q,false,true,0.0-2.0-0.40-0.360-3.360,0,1,0,81,false,stim,false,1,670.8999999999069,0,0,2,70539,task2,1045597,false,false,1253,image-keyboard-response,26
true,11,1,2,1,true,z,false,true,0.0-2.0-0.40-0.361-3.361,0,1,0,90,false,stim,false,0,490.89999999990687,0,0,0,70539,task2,1047598,false,false,1256,image-keyboard-response,27
true,11,1,2,1,true,z,false,true,0.0-2.0-0.40-0.362-3.362,0,1,0,90,false,stim,false,1,632.8000000000466,0,1,1,70539,task2,1049740,false,false,1259,image-keyboard-response,28
true,11,1,2,1,true,z,false,true,0.0-2.0-0.40-0.363-3.363,0,1,0,90,false,stim,false,1,425.0,0,1,1,70539,task2,1051677,false,false,1262,image-keyboard-response,29
true,11,1,2,1,true,z,false,false,0.0-2.0-0.40-0.364-3.364,0,1,0,90,false,stim,false,0,679.0,0,0,0,70539,task2,1053869,false,true,1265,image-keyboard-response,30
true,11,1,2,1,true,z,false,true,0.0-2.0-0.40-0.365-3.365,0,1,0,90,false,stim,false,1,952.1000000000931,0,0,1,70539,task2,1056333,false,false,1268,image-keyboard-response,31
true,11,0,2,0,true,q,false,true,0.0-2.0-0.40-0.366-3.366,0,1,0,81,false,stim,false,1,480.80000000004657,0,1,2,70539,task2,1058326,false,false,1271,image-keyboard-response,32
true,11,1,2,1,true,z,false,true,0.0-2.0-0.40-0.367-3.367,0,1,0,90,false,stim,false,0,511.39999999990687,0,0,0,70539,task2,1060350,false,false,1274,image-keyboard-response,33
true,11,0,2,0,true,q,false,false,0.0-2.0-0.40-0.368-3.368,0,1,0,81,false,stim,false,1,692.8000000000466,0,1,2,70539,task2,1062558,false,true,1277,image-keyboard-response,34
true,12,1,2,2,false,d,false,false,0.0-2.0-0.41-0.369-3.369,0,0,1,90,true,stim,true,1,731.3000000000466,0,0,1,70539,task2,1064798,false,false,1280,image-keyboard-response,1
true,12,0,2,0,true,q,false,true,0.0-2.0-0.41-0.370-3.370,0,0,1,81,false,stim,false,0,772.7000000001863,0,1,2,70539,task2,1067078,false,false,1283,image-keyboard-response,2
true,12,0,2,0,true,q,false,true,0.0-2.0-0.41-0.371-3.371,0,0,1,81,false,stim,false,0,776.8999999999069,0,1,2,70539,task2,1069367,false,false,1286,image-keyboard-response,3
true,12,0,2,0,true,q,false,true,0.0-2.0-0.41-0.372-3.372,0,0,1,81,false,stim,false,0,582.0,0,1,2,70539,task2,1071462,false,false,1289,image-keyboard-response,4
true,12,1,2,0,false,q,false,false,0.0-2.0-0.41-0.373-3.373,0,0,1,90,false,stim,true,1,533.3999999999069,0,0,0,70539,task2,1073510,false,false,1292,image-keyboard-response,5
true,12,1,2,0,false,q,false,false,0.0-2.0-0.41-0.374-3.374,0,0,1,90,false,stim,true,1,591.5999999998603,0,0,0,70539,task2,1075615,false,false,1295,image-keyboard-response,6
true,12,0,2,0,true,q,false,true,0.0-2.0-0.41-0.375-3.375,0,0,1,81,false,stim,false,1,692.1000000000931,0,0,0,70539,task2,1077815,false,false,1298,image-keyboard-response,7
true,12,1,2,2,false,d,false,false,0.0-2.0-0.41-0.376-3.376,0,0,1,90,false,stim,true,1,700.0999999998603,0,0,1,70539,task2,1080040,false,false,1301,image-keyboard-response,8
true,12,2,2,2,true,d,false,true,0.0-2.0-0.41-0.377-3.377,0,0,1,68,false,stim,false,1,687.0,0,0,1,70539,task2,1082239,false,false,1304,image-keyboard-response,9
true,12,0,2,0,true,q,false,true,0.0-2.0-0.42-0.378-3.378,0,0,1,81,false,stim,false,1,600.1000000000931,0,0,0,70539,task2,1084351,false,false,1307,image-keyboard-response,10
true,12,0,2,0,true,q,false,true,0.0-2.0-0.42-0.379-3.379,0,0,1,81,false,stim,false,0,577.8000000000466,0,1,2,70539,task2,1086440,false,false,1310,image-keyboard-response,11
true,12,0,2,0,true,q,false,true,0.0-2.0-0.42-0.380-3.380,0,0,1,81,false,stim,false,1,599.0,0,0,0,70539,task2,1088551,false,false,1313,image-keyboard-response,12
true,12,0,2,0,true,q,false,true,0.0-2.0-0.42-0.381-3.381,0,0,1,81,false,stim,false,0,664.8000000000466,0,1,2,70539,task2,1090728,false,false,1316,image-keyboard-response,13
true,12,2,2,2,true,d,false,true,0.0-2.0-0.42-0.382-3.382,0,0,1,68,false,stim,false,1,503.20000000018626,0,0,1,70539,task2,1092744,false,false,1319,image-keyboard-response,14
true,12,2,2,2,true,d,false,true,0.0-2.0-0.42-0.383-3.383,0,0,1,68,false,stim,false,1,560.3000000000466,0,0,1,70539,task2,1094816,false,false,1322,image-keyboard-response,15
true,12,2,2,2,true,d,false,true,0.0-2.0-0.42-0.384-3.384,0,0,1,68,false,stim,false,1,527.2000000001863,0,0,1,70539,task2,1096856,false,false,1325,image-keyboard-response,16
true,12,2,2,0,false,q,true,false,0.0-2.0-0.42-0.385-3.385,0,0,1,68,false,stim,false,0,1008.1999999999534,0,1,2,70539,task2,1099376,false,false,1328,image-keyboard-response,17
true,12,0,2,0,true,q,false,true,0.0-2.0-0.42-0.386-3.386,0,0,1,81,false,stim,false,1,736.4000000001397,0,0,0,70539,task2,1101625,false,false,1331,image-keyboard-response,18
true,12,2,2,2,true,d,false,false,0.0-2.0-0.43-0.387-3.387,0,0,1,68,false,stim,false,1,734.9000000001397,0,0,1,70539,task2,1103873,false,true,1334,image-keyboard-response,19
true,12,0,2,0,true,q,false,true,0.0-2.0-0.43-0.388-3.388,0,0,1,81,false,stim,false,1,670.0999999998603,0,0,0,70539,task2,1106057,false,false,1337,image-keyboard-response,20
true,12,0,2,0,true,q,false,true,0.0-2.0-0.43-0.389-3.389,0,0,1,81,false,stim,false,0,1423.7000000001863,0,1,2,70539,task2,1108993,false,false,1340,image-keyboard-response,21
true,12,0,2,0,true,q,false,true,0.0-2.0-0.43-0.390-3.390,0,0,1,81,false,stim,false,1,736.1999999999534,0,0,0,70539,task2,1111241,false,false,1343,image-keyboard-response,22
true,12,2,2,2,true,d,false,true,0.0-2.0-0.43-0.391-3.391,0,0,1,68,false,stim,false,1,662.1999999999534,0,0,1,70539,task2,1113418,false,false,1346,image-keyboard-response,23
true,12,0,2,0,true,q,false,true,0.0-2.0-0.43-0.392-3.392,0,0,1,81,false,stim,false,1,550.8999999999069,0,0,0,70539,task2,1115481,false,false,1349,image-keyboard-response,24
true,12,0,2,0,true,q,false,true,0.0-2.0-0.43-0.393-3.393,0,0,1,81,false,stim,false,0,696.3000000000466,0,1,2,70539,task2,1117690,false,false,1352,image-keyboard-response,25
true,12,2,2,2,true,d,false,true,0.0-2.0-0.43-0.394-3.394,0,0,1,68,false,stim,false,1,590.9000000001397,0,0,1,70539,task2,1119794,false,false,1355,image-keyboard-response,26
true,12,0,2,0,true,q,false,true,0.0-2.0-0.43-0.395-3.395,0,0,1,81,false,stim,false,0,543.9000000001397,0,1,2,70539,task2,1121850,false,false,1358,image-keyboard-response,27
true,12,0,2,0,true,q,false,true,0.0-2.0-0.44-0.396-3.396,0,0,1,81,false,stim,false,1,518.6000000000931,0,0,0,70539,task2,1123883,false,false,1361,image-keyboard-response,28
true,12,0,2,0,true,q,false,true,0.0-2.0-0.44-0.397-3.397,0,0,1,81,false,stim,false,0,1001.1999999999534,0,1,2,70539,task2,1126394,false,false,1364,image-keyboard-response,29
true,12,2,2,2,true,d,false,true,0.0-2.0-0.44-0.398-3.398,0,0,1,68,false,stim,false,1,605.3999999999069,0,0,1,70539,task2,1128514,false,false,1367,image-keyboard-response,30
true,12,0,2,0,true,q,false,true,0.0-2.0-0.44-0.399-3.399,0,0,1,81,false,stim,false,1,639.7000000001863,0,0,0,70539,task2,1130666,false,false,1370,image-keyboard-response,31
true,12,0,2,0,true,q,false,true,0.0-2.0-0.44-0.400-3.400,0,0,1,81,false,stim,false,1,592.6999999999534,0,0,0,70539,task2,1132770,false,false,1373,image-keyboard-response,32
true,12,2,2,2,true,d,false,true,0.0-2.0-0.44-0.401-3.401,0,0,1,68,false,stim,false,1,576.6000000000931,0,1,1,70539,task2,1134859,false,false,1376,image-keyboard-response,33
true,12,0,2,0,true,q,false,true,0.0-2.0-0.44-0.402-3.402,0,0,1,81,false,stim,false,0,434.89999999990687,0,0,2,70539,task2,1136811,false,false,1379,image-keyboard-response,34
true,12,0,2,0,true,q,false,true,0.0-2.0-0.44-0.403-3.403,0,0,1,81,false,stim,false,0,348.4000000001397,0,0,2,70539,task2,1138667,false,false,1382,image-keyboard-response,35
true,13,2,2,2,true,d,false,true,0.0-2.0-0.44-0.404-3.404,0,1,0,68,true,stim,false,2,724.8000000000466,0,1,1,70539,task2,1140907,false,false,1385,image-keyboard-response,1
true,13,0,2,1,false,z,false,false,0.0-2.0-0.45-0.405-3.405,0,1,0,81,false,stim,true,0,484.0,0,0,2,70539,task2,1142899,false,false,1388,image-keyboard-response,2
true,13,2,2,2,true,d,false,true,0.0-2.0-0.45-0.406-3.406,0,1,0,68,false,stim,false,2,607.5,0,1,1,70539,task2,1145020,false,false,1391,image-keyboard-response,3
true,13,2,2,2,true,d,false,true,0.0-2.0-0.45-0.407-3.407,0,1,0,68,false,stim,false,2,564.5,0,1,1,70539,task2,1147099,false,false,1394,image-keyboard-response,4
true,13,0,2,1,false,z,false,true,0.0-2.0-0.45-0.408-3.408,0,1,0,81,false,stim,true,0,556.3000000000466,0,0,0,70539,task2,1149164,false,true,1397,image-keyboard-response,5
true,13,0,2,1,false,z,false,true,0.0-2.0-0.45-0.409-3.409,0,1,0,81,false,stim,true,0,471.9000000001397,0,0,0,70539,task2,1151148,false,true,1400,image-keyboard-response,6
true,13,0,2,1,false,z,false,false,0.0-2.0-0.45-0.410-3.410,0,1,0,81,false,stim,true,0,527.5,0,0,2,70539,task2,1153196,false,false,1403,image-keyboard-response,7
true,13,2,2,2,true,d,false,true,0.0-2.0-0.45-0.411-3.411,0,1,0,68,false,stim,false,2,600.3000000000466,0,1,1,70539,task2,1155309,false,false,1406,image-keyboard-response,8
true,13,0,2,1,false,z,false,false,0.0-2.0-0.45-0.412-3.412,0,1,0,81,false,stim,true,0,738.8000000000466,0,0,0,70539,task2,1157556,false,false,1409,image-keyboard-response,9
true,13,1,2,1,true,z,false,true,0.0-2.0-0.45-0.413-3.413,0,1,0,90,false,stim,false,0,704.5,0,0,2,70539,task2,1159771,false,false,1412,image-keyboard-response,10
true,13,2,2,2,true,d,false,true,0.0-2.0-0.46-0.414-3.414,0,1,0,68,false,stim,false,2,551.8000000000466,0,1,1,70539,task2,1161836,false,false,1415,image-keyboard-response,11
true,13,2,2,2,true,d,false,true,0.0-2.0-0.46-0.415-3.415,0,1,0,68,false,stim,false,2,841.5999999998603,0,1,1,70539,task2,1164189,false,false,1418,image-keyboard-response,12
true,13,0,2,1,false,z,false,false,0.0-2.0-0.46-0.416-3.416,0,1,0,81,false,stim,true,0,689.6000000000931,0,0,0,70539,task2,1166390,false,false,1421,image-keyboard-response,13
true,13,1,2,1,true,z,false,true,0.0-2.0-0.46-0.417-3.417,0,1,0,90,false,stim,false,0,568.8999999999069,0,0,2,70539,task2,1168469,false,false,1424,image-keyboard-response,14
true,13,1,2,1,true,z,false,true,0.0-2.0-0.46-0.418-3.418,0,1,0,90,false,stim,false,0,567.6000000000931,0,0,2,70539,task2,1170549,false,false,1427,image-keyboard-response,15
true,13,1,2,1,true,z,false,true,0.0-2.0-0.46-0.419-3.419,0,1,0,90,false,stim,false,0,607.8000000000466,0,0,2,70539,task2,1172669,false,false,1430,image-keyboard-response,16
true,13,1,2,1,true,z,false,true,0.0-2.0-0.46-0.420-3.420,0,1,0,90,false,stim,false,0,631.6000000000931,0,0,0,70539,task2,1174813,false,false,1433,image-keyboard-response,17
true,13,1,2,1,true,z,false,true,0.0-2.0-0.46-0.421-3.421,0,1,0,90,false,stim,false,0,464.19999999995343,0,0,0,70539,task2,1176790,false,false,1436,image-keyboard-response,18
true,13,2,2,2,true,d,false,true,0.0-2.0-0.46-0.422-3.422,0,1,0,68,false,stim,false,2,594.6999999999534,0,1,1,70539,task2,1178902,false,false,1439,image-keyboard-response,19
true,13,2,2,1,false,z,true,false,0.0-2.0-0.47-0.423-3.423,0,1,0,68,false,stim,false,0,630.1000000000931,0,0,2,70539,task2,1181046,false,false,1442,image-keyboard-response,20
true,13,2,2,2,true,d,false,true,0.0-2.0-0.47-0.424-3.424,0,1,0,68,false,stim,false,2,413.9000000001397,0,1,1,70539,task2,1182974,false,false,1445,image-keyboard-response,21
true,13,1,2,1,true,z,false,true,0.0-2.0-0.47-0.425-3.425,0,1,0,90,false,stim,false,0,579.3000000000466,0,0,2,70539,task2,1185062,false,false,1448,image-keyboard-response,22
true,13,1,2,1,true,z,false,true,0.0-2.0-0.47-0.426-3.426,0,1,0,90,false,stim,false,0,582.6999999999534,0,0,0,70539,task2,1187159,false,false,1451,image-keyboard-response,23
true,13,2,2,2,true,d,false,true,0.0-2.0-0.47-0.427-3.427,0,1,0,68,false,stim,false,2,846.8000000000466,0,1,1,70539,task2,1189518,false,false,1454,image-keyboard-response,24
true,13,1,2,1,true,z,false,true,0.0-2.0-0.47-0.428-3.428,0,1,0,90,false,stim,false,0,644.6999999999534,0,0,0,70539,task2,1191670,false,false,1457,image-keyboard-response,25
true,13,1,2,2,false,d,true,false,0.0-2.0-0.47-0.429-3.429,0,1,0,90,false,stim,false,2,613.5999999998603,0,1,1,70539,task2,1193799,false,false,1460,image-keyboard-response,26
true,13,1,2,1,true,z,false,true,0.0-2.0-0.47-0.430-3.430,0,1,0,90,false,stim,false,0,386.80000000004657,0,1,2,70539,task2,1195703,false,false,1463,image-keyboard-response,27
true,13,1,2,1,true,z,false,true,0.0-2.0-0.47-0.431-3.431,0,1,0,90,false,stim,false,0,544.1999999999534,0,0,0,70539,task2,1197760,false,false,1466,image-keyboard-response,28
true,13,1,2,1,true,z,false,true,0.0-2.0-0.48-0.432-3.432,0,1,0,90,false,stim,false,0,550.5999999998603,0,0,0,70539,task2,1199823,false,false,1469,image-keyboard-response,29
true,13,2,2,2,true,d,false,true,0.0-2.0-0.48-0.433-3.433,0,1,0,68,false,stim,false,2,559.8000000000466,0,0,1,70539,task2,1201895,false,false,1472,image-keyboard-response,30
true,13,2,2,2,true,d,false,true,0.0-2.0-0.48-0.434-3.434,0,1,0,68,false,stim,false,2,493.19999999995343,0,0,1,70539,task2,1203902,false,false,1475,image-keyboard-response,31
true,14,1,2,1,true,z,false,true,0.0-2.0-0.48-0.435-3.435,0,0,1,90,true,stim,false,1,824.5999999998603,0,1,2,70539,task2,1206240,false,false,1478,image-keyboard-response,1
true,14,2,2,0,false,q,false,true,0.0-2.0-0.48-0.436-3.436,0,0,1,68,false,stim,true,2,624.1999999999534,0,0,1,70539,task2,1208376,false,true,1481,image-keyboard-response,2
true,14,1,2,2,false,d,false,false,0.0-2.0-0.48-0.437-3.437,0,0,1,90,false,stim,true,1,561.6999999999534,0,0,0,70539,task2,1210447,false,false,1484,image-keyboard-response,3
true,14,1,2,1,true,z,false,true,0.0-2.0-0.48-0.438-3.438,0,0,1,90,false,stim,false,1,595.0,0,1,2,70539,task2,1212552,false,false,1487,image-keyboard-response,4
true,14,1,2,1,true,z,false,true,0.0-2.0-0.48-0.439-3.439,0,0,1,90,false,stim,false,1,498.0,0,1,2,70539,task2,1214560,false,false,1490,image-keyboard-response,5
true,14,1,2,2,false,d,false,false,0.0-2.0-0.48-0.440-3.440,0,0,1,90,false,stim,true,1,713.0,0,0,0,70539,task2,1216784,false,false,1493,image-keyboard-response,6
true,14,2,2,0,false,q,false,false,0.0-2.0-0.49-0.441-3.441,0,0,1,68,false,stim,true,2,531.6999999999534,0,0,1,70539,task2,1218826,false,false,1496,image-keyboard-response,7
true,14,1,2,1,true,z,false,true,0.0-2.0-0.49-0.442-3.442,0,0,1,90,false,stim,false,1,610.4000000001397,0,1,2,70539,task2,1220952,false,false,1499,image-keyboard-response,8
true,14,2,2,2,true,d,false,true,0.0-2.0-0.49-0.443-3.443,0,0,1,68,false,stim,false,1,579.1999999999534,0,0,0,70539,task2,1223048,false,false,1502,image-keyboard-response,9
true,14,1,2,1,true,z,false,true,0.0-2.0-0.49-0.444-3.444,0,0,1,90,false,stim,false,1,622.6999999999534,0,1,2,70539,task2,1225184,false,false,1505,image-keyboard-response,10
true,14,2,2,2,true,d,false,true,0.0-2.0-0.49-0.445-3.445,0,0,1,68,false,stim,false,1,591.9000000001397,0,0,0,70539,task2,1227289,false,false,1508,image-keyboard-response,11
true,14,2,2,2,true,d,false,true,0.0-2.0-0.49-0.446-3.446,0,0,1,68,false,stim,false,1,917.6000000000931,0,0,0,70539,task2,1229722,false,false,1511,image-keyboard-response,12
true,14,0,2,0,true,q,false,true,0.0-2.0-0.49-0.447-3.447,0,0,1,81,false,stim,false,2,895.1000000000931,0,0,1,70539,task2,1232129,false,false,1514,image-keyboard-response,13
true,14,0,2,0,true,q,false,false,0.0-2.0-0.49-0.448-3.448,0,0,1,81,false,stim,false,2,589.8000000000466,0,0,1,70539,task2,1234233,false,true,1517,image-keyboard-response,14
true,14,1,2,1,true,z,false,true,0.0-2.0-0.49-0.449-3.449,0,0,1,90,false,stim,false,1,567.8999999999069,0,1,2,70539,task2,1236313,false,false,1520,image-keyboard-response,15
true,14,1,2,1,true,z,false,true,0.0-2.0-0.50-0.450-3.450,0,0,1,90,false,stim,false,1,604.6000000000931,0,1,2,70539,task2,1238433,false,false,1523,image-keyboard-response,16
true,14,1,2,1,true,z,false,true,0.0-2.0-0.50-0.451-3.451,0,0,1,90,false,stim,false,1,623.6999999999534,0,1,2,70539,task2,1240570,false,false,1526,image-keyboard-response,17
true,14,0,2,0,true,q,false,true,0.0-2.0-0.50-0.452-3.452,0,0,1,81,false,stim,false,2,722.8999999999069,0,0,1,70539,task2,1242802,false,false,1529,image-keyboard-response,18
true,14,0,2,0,true,q,false,true,0.0-2.0-0.50-0.453-3.453,0,0,1,81,false,stim,false,2,552.5,0,0,1,70539,task2,1244864,false,false,1532,image-keyboard-response,19
true,14,1,2,1,true,z,false,true,0.0-2.0-0.50-0.454-3.454,0,0,1,90,false,stim,false,1,585.6000000000931,0,1,2,70539,task2,1246962,false,false,1535,image-keyboard-response,20
true,14,2,2,2,true,d,false,true,0.0-2.0-0.50-0.455-3.455,0,0,1,68,false,stim,false,1,543.0999999996275,0,0,0,70539,task2,1249018,false,false,1538,image-keyboard-response,21
true,14,0,2,0,true,q,false,true,0.0-2.0-0.50-0.456-3.456,0,0,1,81,false,stim,false,2,571.6999999997206,0,0,1,70539,task2,1251099,false,false,1541,image-keyboard-response,22
true,14,2,2,2,true,d,false,false,0.0-2.0-0.50-0.457-3.457,0,0,1,68,false,stim,false,1,774.7999999998137,0,0,0,70539,task2,1253386,false,true,1544,image-keyboard-response,23
true,14,2,2,2,true,d,false,true,0.0-2.0-0.50-0.458-3.458,0,0,1,68,false,stim,false,1,736.3000000002794,0,0,0,70539,task2,1255635,false,false,1547,image-keyboard-response,24
true,14,2,2,2,true,d,false,true,0.0-2.0-0.51-0.459-3.459,0,0,1,68,false,stim,false,1,549.3999999999069,0,0,0,70539,task2,1257699,false,false,1550,image-keyboard-response,25
true,14,1,2,1,true,z,false,true,0.0-2.0-0.51-0.460-3.460,0,0,1,90,false,stim,false,1,706.3999999999069,0,1,2,70539,task2,1259915,false,false,1553,image-keyboard-response,26
true,14,2,2,2,true,d,false,true,0.0-2.0-0.51-0.461-3.461,0,0,1,68,false,stim,false,1,1000.0,0,0,0,70539,task2,1262428,false,false,1556,image-keyboard-response,27
true,14,2,2,2,true,d,false,true,0.0-2.0-0.51-0.462-3.462,0,0,1,68,false,stim,false,1,681.8000000002794,0,0,0,70539,task2,1264619,false,false,1559,image-keyboard-response,28
true,14,0,2,0,true,q,false,true,0.0-2.0-0.51-0.463-3.463,0,0,1,81,false,stim,false,2,781.3999999999069,0,0,1,70539,task2,1266915,false,false,1562,image-keyboard-response,29
true,14,0,2,0,true,q,false,true,0.0-2.0-0.51-0.464-3.464,0,0,1,81,false,stim,false,2,479.90000000037253,0,0,1,70539,task2,1268908,false,false,1565,image-keyboard-response,30
true,14,1,2,1,true,z,false,true,0.0-2.0-0.51-0.465-3.465,0,0,1,90,false,stim,false,1,922.2999999998137,0,0,2,70539,task2,1271340,false,false,1568,image-keyboard-response,31
true,14,1,2,1,true,z,false,true,0.0-2.0-0.51-0.466-3.466,0,0,1,90,false,stim,false,1,473.10000000009313,0,0,2,70539,task2,1273324,false,false,1571,image-keyboard-response,32
true,14,0,2,0,true,q,false,true,0.0-2.0-0.51-0.467-3.467,0,0,1,81,false,stim,false,2,743.2000000001863,0,0,1,70539,task2,1275580,false,false,1574,image-keyboard-response,33
true,14,0,2,0,true,q,false,true,0.0-2.0-0.52-0.468-3.468,0,0,1,81,false,stim,false,2,423.3000000002794,0,0,1,70539,task2,1277516,false,false,1577,image-keyboard-response,34
true,14,0,2,0,true,q,false,true,0.0-2.0-0.52-0.469-3.469,0,0,1,81,false,stim,false,2,495.70000000018626,0,0,1,70539,task2,1279524,false,false,1580,image-keyboard-response,35
true,15,1,2,0,false,q,false,false,0.0-2.0-0.52-0.470-3.470,1,0,0,90,true,stim,true,1,686.7000000001863,0,0,2,70539,task2,1281724,false,false,1583,image-keyboard-response,1
true,15,1,2,0,false,q,false,false,0.0-2.0-0.52-0.471-3.471,1,0,0,90,false,stim,true,1,492.20000000018626,0,0,2,70539,task2,1283733,false,false,1586,image-keyboard-response,2
true,15,2,2,2,true,d,false,true,0.0-2.0-0.52-0.472-3.472,1,0,0,68,false,stim,false,2,572.0999999996275,0,1,0,70539,task2,1285813,false,false,1589,image-keyboard-response,3
true,15,2,2,0,false,q,true,false,0.0-2.0-0.52-0.473-3.473,1,0,0,68,false,stim,false,1,615.0,0,0,2,70539,task2,1287941,false,false,1592,image-keyboard-response,4
true,15,2,2,2,true,d,false,true,0.0-2.0-0.52-0.474-3.474,1,0,0,68,false,stim,false,2,598.8000000002794,0,1,0,70539,task2,1290053,false,false,1595,image-keyboard-response,5
true,15,0,2,1,false,z,false,false,0.0-2.0-0.52-0.475-3.475,1,0,0,81,false,stim,true,0,759.3999999999069,0,0,1,70539,task2,1292325,false,false,1598,image-keyboard-response,6
true,15,2,2,2,true,d,false,true,0.0-2.0-0.52-0.476-3.476,1,0,0,68,false,stim,false,2,901.3000000002794,0,1,0,70539,task2,1294750,false,false,1601,image-keyboard-response,7
true,15,0,2,1,false,z,false,false,0.0-2.0-0.53-0.477-3.477,1,0,0,81,false,stim,true,0,1157.7999999998137,0,0,1,70539,task2,1297421,false,false,1604,image-keyboard-response,8
true,15,0,2,0,true,q,false,true,0.0-2.0-0.53-0.478-3.478,1,0,0,81,false,stim,false,1,846.7000000001863,0,0,2,70539,task2,1299781,false,false,1607,image-keyboard-response,9
true,15,2,2,2,true,d,false,true,0.0-2.0-0.53-0.479-3.479,1,0,0,68,false,stim,false,2,603.6000000000931,0,1,0,70539,task2,1301894,false,false,1610,image-keyboard-response,10
true,15,1,2,1,true,z,false,true,0.0-2.0-0.53-0.480-3.480,1,0,0,90,false,stim,false,0,625.2000000001863,0,0,1,70539,task2,1304030,false,false,1613,image-keyboard-response,11
true,15,0,2,0,true,q,false,true,0.0-2.0-0.53-0.481-3.481,1,0,0,81,false,stim,false,1,624.4000000003725,0,0,2,70539,task2,1306167,false,false,1616,image-keyboard-response,12
true,15,0,2,0,true,q,false,true,0.0-2.0-0.53-0.482-3.482,1,0,0,81,false,stim,false,1,460.40000000037253,0,0,2,70539,task2,1308142,false,false,1619,image-keyboard-response,13
true,15,2,2,2,true,d,false,true,0.0-2.0-0.53-0.483-3.483,1,0,0,68,false,stim,false,2,555.0,0,1,0,70539,task2,1310214,false,false,1622,image-keyboard-response,14
true,15,1,2,1,true,z,false,true,0.0-2.0-0.53-0.484-3.484,1,0,0,90,false,stim,false,0,665.7999999998137,0,0,1,70539,task2,1312390,false,false,1625,image-keyboard-response,15
true,15,2,2,2,true,d,false,true,0.0-2.0-0.53-0.485-3.485,1,0,0,68,false,stim,false,2,1074.4000000003725,0,1,0,70539,task2,1314974,false,false,1628,image-keyboard-response,16
true,15,0,2,0,true,q,false,true,0.0-2.0-0.54-0.486-3.486,1,0,0,81,false,stim,false,1,625.8999999999069,0,0,2,70539,task2,1317111,false,false,1631,image-keyboard-response,17
true,15,1,2,1,true,z,false,true,0.0-2.0-0.54-0.487-3.487,1,0,0,90,false,stim,false,0,814.8000000002794,0,0,1,70539,task2,1319439,false,false,1634,image-keyboard-response,18
true,15,2,2,2,true,d,false,true,0.0-2.0-0.54-0.488-3.488,1,0,0,68,false,stim,false,2,466.29999999981374,0,1,0,70539,task2,1321423,false,false,1637,image-keyboard-response,19
true,15,0,2,0,true,q,false,true,0.0-2.0-0.54-0.489-3.489,1,0,0,81,false,stim,false,1,490.10000000009313,0,0,2,70539,task2,1323431,false,false,1640,image-keyboard-response,20
true,15,1,2,1,true,z,false,false,0.0-2.0-0.54-0.490-3.490,1,0,0,90,false,stim,false,0,465.0,0,0,1,70539,task2,1325407,false,true,1643,image-keyboard-response,21
true,15,2,2,2,true,d,false,true,0.0-2.0-0.54-0.491-3.491,1,0,0,68,false,stim,false,2,448.10000000009313,0,1,0,70539,task2,1327368,false,false,1646,image-keyboard-response,22
true,15,0,2,0,true,q,false,true,0.0-2.0-0.54-0.492-3.492,1,0,0,81,false,stim,false,1,454.40000000037253,0,0,2,70539,task2,1329335,false,false,1649,image-keyboard-response,23
true,15,2,2,2,true,d,false,true,0.0-2.0-0.54-0.493-3.493,1,0,0,68,false,stim,false,2,567.8999999999069,0,1,0,70539,task2,1331415,false,false,1652,image-keyboard-response,24
true,15,1,2,1,true,z,false,true,0.0-2.0-0.54-0.494-3.494,1,0,0,90,false,stim,false,0,583.7000000001863,0,0,1,70539,task2,1333512,false,false,1655,image-keyboard-response,25
true,15,2,2,2,true,d,false,false,0.0-2.0-0.55-0.495-3.495,1,0,0,68,false,stim,false,2,668.0,0,1,0,70539,task2,1335688,false,true,1658,image-keyboard-response,26
true,15,1,2,1,true,z,false,true,0.0-2.0-0.55-0.496-3.496,1,0,0,90,false,stim,false,0,705.6000000000931,0,0,1,70539,task2,1337905,false,false,1661,image-keyboard-response,27
true,15,0,2,0,true,q,false,true,0.0-2.0-0.55-0.497-3.497,1,0,0,81,false,stim,false,1,567.1000000000931,0,1,2,70539,task2,1339984,false,false,1664,image-keyboard-response,28
true,15,2,2,2,true,d,false,true,0.0-2.0-0.55-0.498-3.498,1,0,0,68,false,stim,false,2,654.6000000000931,0,1,0,70539,task2,1342152,false,false,1667,image-keyboard-response,29
true,15,2,2,2,true,d,false,true,0.0-2.0-0.55-0.499-3.499,1,0,0,68,false,stim,false,2,495.59999999962747,0,1,0,70539,task2,1344161,false,false,1670,image-keyboard-response,30
true,15,1,2,1,true,z,false,true,0.0-2.0-0.55-0.500-3.500,1,0,0,90,false,stim,false,0,647.6000000000931,0,1,1,70539,task2,1346321,false,false,1673,image-keyboard-response,31
true,15,0,2,0,true,q,false,false,0.0-2.0-0.55-0.501-3.501,1,0,0,81,false,stim,false,1,568.3999999999069,0,1,2,70539,task2,1348402,false,true,1676,image-keyboard-response,32
true,16,0,0,1,false,z,true,false,0.0-2.0-0.55-0.502-3.502,1,1,1,81,true,stim,false,1,1301.0,0,1,1,70539,task2,1435911,false,false,1764,image-keyboard-response,1
true,16,0,0,0,true,q,false,true,0.0-2.0-0.55-0.503-3.503,1,1,1,81,false,stim,false,0,598.4000000003725,0,1,2,70539,task2,1438022,false,false,1767,image-keyboard-response,2
true,16,1,0,1,true,z,false,true,0.0-2.0-0.56-0.504-3.504,1,1,1,90,false,stim,false,1,433.5,0,1,1,70539,task2,1439975,false,false,1770,image-keyboard-response,3
true,16,1,0,1,true,z,false,true,0.0-2.0-0.56-0.505-3.505,1,1,1,90,false,stim,false,1,511.79999999981374,0,1,1,70539,task2,1441999,false,false,1773,image-keyboard-response,4
true,16,0,0,0,true,q,false,true,0.0-2.0-0.56-0.506-3.506,1,1,1,81,false,stim,false,0,546.7999999998137,0,1,2,70539,task2,1444063,false,false,1776,image-keyboard-response,5
true,16,0,0,0,true,q,false,true,0.0-2.0-0.56-0.507-3.507,1,1,1,81,false,stim,false,0,474.1999999997206,0,1,2,70539,task2,1446056,false,false,1779,image-keyboard-response,6
true,16,2,0,2,true,d,false,true,0.0-2.0-0.56-0.508-3.508,1,1,1,68,false,stim,false,2,489.59999999962747,0,1,0,70539,task2,1448063,false,false,1782,image-keyboard-response,7
true,16,1,0,1,true,z,false,true,0.0-2.0-0.56-0.509-3.509,1,1,1,90,false,stim,false,1,499.0,0,1,1,70539,task2,1450079,false,false,1785,image-keyboard-response,8
true,16,2,0,2,true,d,false,true,0.0-2.0-0.56-0.510-3.510,1,1,1,68,false,stim,false,2,529.5,0,0,0,70539,task2,1452127,false,false,1788,image-keyboard-response,9
true,16,0,0,0,true,q,false,true,0.0-2.0-0.56-0.511-3.511,1,1,1,81,false,stim,false,0,538.2000000001863,0,0,2,70539,task2,1454183,false,false,1791,image-keyboard-response,10
true,16,2,0,2,true,d,false,true,0.0-2.0-0.56-0.512-3.512,1,1,1,68,false,stim,false,2,510.6999999997206,0,0,0,70539,task2,1456208,false,false,1794,image-keyboard-response,11
true,16,1,0,1,true,z,false,true,0.0-2.0-0.57-0.513-3.513,1,1,1,90,false,stim,false,1,592.5,0,0,1,70539,task2,1458312,false,false,1797,image-keyboard-response,12
true,16,0,0,0,true,q,false,true,0.0-2.0-0.57-0.514-3.514,1,1,1,81,false,stim,false,0,1060.0999999996275,0,0,2,70539,task2,1460880,false,false,1800,image-keyboard-response,13
true,17,1,1,0,false,q,false,false,0.0-2.0-0.57-0.515-3.515,0,0,0,90,true,stim,true,1,605.6000000000931,0,0,1,70539,task2,1463008,false,false,1803,image-keyboard-response,1
true,17,0,1,1,false,z,false,false,0.0-2.0-0.57-0.516-3.516,0,0,0,81,false,stim,true,0,511.39999999990687,0,0,2,70539,task2,1465032,false,false,1806,image-keyboard-response,2
true,17,0,1,1,false,z,false,false,0.0-2.0-0.57-0.517-3.517,0,0,0,81,false,stim,true,0,532.0,0,0,2,70539,task2,1467073,false,false,1809,image-keyboard-response,3
true,17,2,1,0,false,q,false,false,0.0-2.0-0.57-0.518-3.518,0,0,0,68,false,stim,true,2,594.6000000000931,0,0,0,70539,task2,1469184,false,false,1812,image-keyboard-response,4
true,17,2,1,0,false,q,true,false,0.0-2.0-0.57-0.519-3.519,0,0,0,68,false,stim,false,1,763.6000000000931,0,0,1,70539,task2,1471464,false,false,1815,image-keyboard-response,5
true,17,2,1,0,false,q,false,false,0.0-2.0-0.57-0.520-3.520,0,0,0,68,false,stim,true,2,753.2000000001863,0,0,0,70539,task2,1473729,false,false,1818,image-keyboard-response,6
true,17,1,1,0,false,q,true,false,0.0-2.0-0.57-0.521-3.521,0,0,0,90,false,stim,false,2,449.3000000002794,0,0,0,70539,task2,1475696,false,false,1821,image-keyboard-response,7
true,17,0,1,0,true,q,false,true,0.0-2.0-0.58-0.522-3.522,0,0,0,81,false,stim,false,1,875.3999999999069,0,0,1,70539,task2,1478090,false,false,1824,image-keyboard-response,8
true,17,0,1,0,true,q,false,true,0.0-2.0-0.58-0.523-3.523,0,0,0,81,false,stim,false,1,610.0,0,0,1,70539,task2,1480209,false,false,1827,image-keyboard-response,9
true,17,0,1,1,false,z,false,false,0.0-2.0-0.58-0.524-3.524,0,0,0,81,false,stim,true,0,735.4000000003725,0,0,2,70539,task2,1482457,false,false,1830,image-keyboard-response,10
true,17,1,1,1,true,z,false,true,0.0-2.0-0.58-0.525-3.525,0,0,0,90,false,stim,false,0,551.2999999998137,0,0,2,70539,task2,1484521,false,false,1833,image-keyboard-response,11
true,17,1,1,1,true,z,false,true,0.0-2.0-0.58-0.526-3.526,0,0,0,90,false,stim,false,0,512.8000000002794,0,0,2,70539,task2,1486545,false,false,1836,image-keyboard-response,12
true,17,0,1,0,true,q,false,true,0.0-2.0-0.58-0.527-3.527,0,0,0,81,false,stim,false,1,627.1999999997206,0,0,1,70539,task2,1488690,false,false,1839,image-keyboard-response,13
true,17,0,1,0,true,q,false,true,0.0-2.0-0.58-0.528-3.528,0,0,0,81,false,stim,false,2,513.7000000001863,0,0,0,70539,task2,1490714,false,false,1842,image-keyboard-response,14
true,17,0,1,0,true,q,false,true,0.0-2.0-0.58-0.529-3.529,0,0,0,81,false,stim,false,2,570.4000000003725,0,0,0,70539,task2,1492802,false,false,1845,image-keyboard-response,15
true,17,0,1,0,true,q,false,true,0.0-2.0-0.58-0.530-3.530,0,0,0,81,false,stim,false,2,635.2000000001863,0,0,0,70539,task2,1494946,false,false,1848,image-keyboard-response,16
true,17,0,1,0,true,q,false,true,0.0-2.0-0.59-0.531-3.531,0,0,0,81,false,stim,false,1,581.3999999999069,0,0,1,70539,task2,1497042,false,false,1851,image-keyboard-response,17
true,17,0,1,0,true,q,false,true,0.0-2.0-0.59-0.532-3.532,0,0,0,81,false,stim,false,2,398.59999999962747,0,0,0,70539,task2,1498955,false,false,1854,image-keyboard-response,18
true,17,0,1,0,true,q,false,true,0.0-2.0-0.59-0.533-3.533,0,0,0,81,false,stim,false,2,414.39999999990687,0,0,0,70539,task2,1500882,false,false,1857,image-keyboard-response,19
true,17,0,1,0,true,q,false,true,0.0-2.0-0.59-0.534-3.534,0,0,0,81,false,stim,false,1,570.3999999999069,0,0,1,70539,task2,1502970,false,false,1860,image-keyboard-response,20
true,17,0,1,0,true,q,false,true,0.0-2.0-0.59-0.535-3.535,0,0,0,81,false,stim,false,1,406.5,0,0,1,70539,task2,1504890,false,false,1863,image-keyboard-response,21
true,17,1,1,1,true,z,false,false,0.0-2.0-0.59-0.536-3.536,0,0,0,90,false,stim,false,0,719.2999999998137,0,0,2,70539,task2,1507122,false,true,1866,image-keyboard-response,22
true,17,1,1,1,true,z,false,true,0.0-2.0-0.59-0.537-3.537,0,0,0,90,false,stim,false,0,583.1999999997206,0,0,2,70539,task2,1509220,false,false,1869,image-keyboard-response,23
true,17,0,1,0,true,q,false,true,0.0-2.0-0.59-0.538-3.538,0,0,0,81,false,stim,false,2,429.5,0,0,0,70539,task2,1511163,false,false,1872,image-keyboard-response,24
true,17,1,1,1,true,z,false,true,0.0-2.0-0.59-0.539-3.539,0,0,0,90,false,stim,false,0,522.0,0,0,2,70539,task2,1513203,false,false,1875,image-keyboard-response,25
true,17,0,1,0,true,q,false,true,0.0-2.0-0.60-0.540-3.540,0,0,0,81,false,stim,false,2,535.0,0,0,0,70539,task2,1515251,false,false,1878,image-keyboard-response,26
true,17,0,1,0,true,q,false,true,0.0-2.0-0.60-0.541-3.541,0,0,0,81,false,stim,false,2,714.3999999999069,0,0,0,70539,task2,1517483,false,false,1881,image-keyboard-response,27
true,17,1,1,1,true,z,false,true,0.0-2.0-0.60-0.542-3.542,0,0,0,90,false,stim,false,0,464.5,0,0,2,70539,task2,1519460,false,false,1884,image-keyboard-response,28
true,17,1,1,1,true,z,false,true,0.0-2.0-0.60-0.543-3.543,0,0,0,90,false,stim,false,0,502.60000000009313,0,0,2,70539,task2,1521476,false,false,1887,image-keyboard-response,29
true,17,0,1,0,true,q,false,true,0.0-2.0-0.60-0.544-3.544,0,0,0,81,false,stim,false,1,523.8999999999069,0,0,1,70539,task2,1523508,false,false,1890,image-keyboard-response,30
true,17,1,1,1,true,z,false,true,0.0-2.0-0.60-0.545-3.545,0,0,0,90,false,stim,false,0,767.5,0,0,2,70539,task2,1525788,false,false,1893,image-keyboard-response,31
true,17,0,1,0,true,q,false,true,0.0-2.0-0.60-0.546-3.546,0,0,0,81,false,stim,false,1,585.9000000003725,0,0,1,70539,task2,1527884,false,false,1896,image-keyboard-response,32
true,17,0,1,0,true,q,false,true,0.0-2.0-0.60-0.547-3.547,0,0,0,81,false,stim,false,2,618.2999999998137,0,0,0,70539,task2,1530020,false,false,1899,image-keyboard-response,33
true,17,0,1,0,true,q,false,true,0.0-2.0-0.60-0.548-3.548,0,0,0,81,false,stim,false,1,510.10000000009313,0,0,1,70539,task2,1532052,false,false,1902,image-keyboard-response,34
true,17,1,1,1,true,z,false,true,0.0-2.0-0.61-0.549-3.549,0,0,0,90,false,stim,false,0,473.3000000002794,0,0,2,70539,task2,1534044,false,false,1905,image-keyboard-response,35
true,17,0,1,0,true,q,false,true,0.0-2.0-0.61-0.550-3.550,0,0,0,81,false,stim,false,1,519.0,0,0,1,70539,task2,1536076,false,false,1908,image-keyboard-response,36
true,17,0,1,0,true,q,false,true,0.0-2.0-0.61-0.551-3.551,0,0,0,81,false,stim,false,2,671.0,0,0,0,70539,task2,1538261,false,false,1911,image-keyboard-response,37
true,18,1,1,2,false,d,false,true,0.0-2.0-0.61-0.552-3.552,0,0,0,90,true,stim,true,1,544.1000000000931,0,0,2,70539,task2,1540317,false,true,1914,image-keyboard-response,1
true,18,0,1,2,false,d,false,true,0.0-2.0-0.61-0.553-3.553,0,0,0,81,false,stim,true,0,582.7000000001863,0,0,0,70539,task2,1542413,false,true,1917,image-keyboard-response,2
true,18,0,1,2,false,d,false,false,0.0-2.0-0.61-0.554-3.554,0,0,0,81,false,stim,true,0,462.1999999997206,0,0,0,70539,task2,1544389,false,false,1920,image-keyboard-response,3
true,18,1,1,1,true,z,false,true,0.0-2.0-0.61-0.555-3.555,0,0,0,90,false,stim,false,0,588.1999999997206,0,0,1,70539,task2,1546485,false,false,1923,image-keyboard-response,4
true,18,1,1,1,true,z,false,true,0.0-2.0-0.61-0.556-3.556,0,0,0,90,false,stim,false,0,647.0,0,0,1,70539,task2,1548645,false,false,1926,image-keyboard-response,5
true,18,1,1,2,false,d,false,false,0.0-2.0-0.61-0.557-3.557,0,0,0,90,false,stim,true,1,662.5999999996275,0,0,2,70539,task2,1550822,false,false,1929,image-keyboard-response,6
true,18,2,1,2,true,d,false,true,0.0-2.0-0.62-0.558-3.558,0,0,0,68,false,stim,false,1,619.3999999999069,0,0,2,70539,task2,1552949,false,false,1932,image-keyboard-response,7
true,18,1,1,1,true,z,false,true,0.0-2.0-0.62-0.559-3.559,0,0,0,90,false,stim,false,0,590.1999999997206,0,0,1,70539,task2,1555053,false,false,1935,image-keyboard-response,8
true,18,1,1,2,false,d,true,false,0.0-2.0-0.62-0.560-3.560,0,0,0,90,false,stim,false,0,710.3999999999069,0,0,0,70539,task2,1557278,false,false,1938,image-keyboard-response,9
true,18,1,1,1,true,z,false,true,0.0-2.0-0.62-0.561-3.561,0,0,0,90,false,stim,false,0,463.09999999962747,0,0,1,70539,task2,1559254,false,false,1941,image-keyboard-response,10
true,18,1,1,1,true,z,false,true,0.0-2.0-0.62-0.562-3.562,0,0,0,90,false,stim,false,0,490.6999999997206,0,0,1,70539,task2,1561255,false,false,1944,image-keyboard-response,11
true,18,2,1,2,true,d,false,true,0.0-2.0-0.62-0.563-3.563,0,0,0,68,false,stim,false,0,546.2000000001863,0,0,0,70539,task2,1563310,false,false,1947,image-keyboard-response,12
true,18,2,1,2,true,d,false,true,0.0-2.0-0.62-0.564-3.564,0,0,0,68,false,stim,false,1,684.8999999999069,0,0,2,70539,task2,1565510,false,false,1950,image-keyboard-response,13
true,18,2,1,2,true,d,false,true,0.0-2.0-0.62-0.565-3.565,0,0,0,68,false,stim,false,0,582.8000000002794,0,0,0,70539,task2,1567606,false,false,1953,image-keyboard-response,14
true,18,2,1,2,true,d,false,true,0.0-2.0-0.62-0.566-3.566,0,0,0,68,false,stim,false,1,818.0,0,0,2,70539,task2,1569934,false,false,1956,image-keyboard-response,15
true,18,2,1,2,true,d,false,true,0.0-2.0-0.63-0.567-3.567,0,0,0,68,false,stim,false,0,614.8999999999069,0,0,0,70539,task2,1572063,false,false,1959,image-keyboard-response,16
true,18,2,1,2,true,d,false,true,0.0-2.0-0.63-0.568-3.568,0,0,0,68,false,stim,false,1,678.1000000000931,0,0,2,70539,task2,1574255,false,false,1962,image-keyboard-response,17
true,18,1,1,1,true,z,false,true,0.0-2.0-0.63-0.569-3.569,0,0,0,90,false,stim,false,0,487.39999999990687,0,0,1,70539,task2,1576255,false,false,1965,image-keyboard-response,18
true,18,2,1,2,true,d,false,true,0.0-2.0-0.63-0.570-3.570,0,0,0,68,false,stim,false,0,641.5,0,0,0,70539,task2,1578415,false,false,1968,image-keyboard-response,19
true,18,1,1,1,true,z,false,true,0.0-2.0-0.63-0.571-3.571,0,0,0,90,false,stim,false,0,827.6000000000931,0,0,1,70539,task2,1580751,false,false,1971,image-keyboard-response,20
true,18,1,1,1,true,z,false,true,0.0-2.0-0.63-0.572-3.572,0,0,0,90,false,stim,false,0,543.7999999998137,0,0,1,70539,task2,1582808,false,false,1974,image-keyboard-response,21
true,18,2,1,2,true,d,false,true,0.0-2.0-0.63-0.573-3.573,0,0,0,68,false,stim,false,1,537.2000000001863,0,0,2,70539,task2,1584863,false,false,1977,image-keyboard-response,22
true,18,1,1,2,false,d,true,false,0.0-2.0-0.63-0.574-3.574,0,0,0,90,false,stim,false,0,607.2000000001863,0,0,0,70539,task2,1586983,false,false,1980,image-keyboard-response,23
true,18,2,1,2,true,d,false,true,0.0-2.0-0.63-0.575-3.575,0,0,0,68,false,stim,false,1,435.39999999990687,0,0,2,70539,task2,1588928,false,false,1983,image-keyboard-response,24
true,18,2,1,2,true,d,false,false,0.0-2.0-0.64-0.576-3.576,0,0,0,68,false,stim,false,1,462.6999999997206,0,0,2,70539,task2,1590904,false,true,1986,image-keyboard-response,25
true,18,2,1,2,true,d,false,true,0.0-2.0-0.64-0.577-3.577,0,0,0,68,false,stim,false,0,552.1000000000931,0,0,0,70539,task2,1592969,false,false,1989,image-keyboard-response,26
true,18,2,1,2,true,d,false,true,0.0-2.0-0.64-0.578-3.578,0,0,0,68,false,stim,false,0,473.1999999997206,0,0,0,70539,task2,1594960,false,false,1992,image-keyboard-response,27
true,18,1,1,1,true,z,false,true,0.0-2.0-0.64-0.579-3.579,0,0,0,90,false,stim,false,0,478.3000000002794,0,0,1,70539,task2,1596952,false,false,1995,image-keyboard-response,28
true,18,2,1,2,true,d,false,true,0.0-2.0-0.64-0.580-3.580,0,0,0,68,false,stim,false,0,514.3999999999069,0,0,0,70539,task2,1598984,false,false,1998,image-keyboard-response,29
true,18,1,1,1,true,z,false,true,0.0-2.0-0.64-0.581-3.581,0,0,0,90,false,stim,false,0,781.4000000003725,0,0,1,70539,task2,1601288,false,false,2001,image-keyboard-response,30
true,18,1,1,1,true,z,false,true,0.0-2.0-0.64-0.582-3.582,0,0,0,90,false,stim,false,0,487.10000000009313,0,0,1,70539,task2,1603289,false,false,2004,image-keyboard-response,31
true,18,2,1,2,true,d,false,true,0.0-2.0-0.64-0.583-3.583,0,0,0,68,false,stim,false,1,510.1999999997206,0,0,2,70539,task2,1605312,false,false,2007,image-keyboard-response,32
true,18,2,1,2,true,d,false,true,0.0-2.0-0.64-0.584-3.584,0,0,0,68,false,stim,false,1,511.60000000009313,0,0,2,70539,task2,1607336,false,false,2010,image-keyboard-response,33
true,18,2,1,2,true,d,false,true,0.0-2.0-0.65-0.585-3.585,0,0,0,68,false,stim,false,1,585.6000000000931,0,0,2,70539,task2,1609441,false,false,2013,image-keyboard-response,34
true,18,2,1,2,true,d,false,true,0.0-2.0-0.65-0.586-3.586,0,0,0,68,false,stim,false,1,430.20000000018626,0,0,2,70539,task2,1611385,false,false,2016,image-keyboard-response,35
true,18,1,1,2,false,d,true,false,0.0-2.0-0.65-0.587-3.587,0,0,0,90,false,stim,false,0,969.8999999999069,0,1,0,70539,task2,1613866,false,false,2019,image-keyboard-response,36
true,18,1,1,1,true,z,false,true,0.0-2.0-0.65-0.588-3.588,0,0,0,90,false,stim,false,0,582.3000000002794,0,0,1,70539,task2,1615961,false,false,2022,image-keyboard-response,37
true,18,2,1,2,true,d,false,true,0.0-2.0-0.65-0.589-3.589,0,0,0,68,false,stim,false,1,534.9000000003725,0,0,2,70539,task2,1618009,false,false,2025,image-keyboard-response,38
true,19,1,2,0,false,q,false,false,0.0-2.0-0.65-0.590-3.590,1,0,0,90,true,stim,true,1,874.8000000002794,0,0,1,70539,task2,1620394,false,false,2028,image-keyboard-response,1
