answered,blockNum,choice,condition,corResp,correct,correct_response,explo,fb,internal_node_id,isStable_1,isStable_2,isStable_3,key_press,newBlock,part,persev,persevResp,rt,sessNum,stableAS,stimulus,subject,task,time_elapsed,training,trap,trial_index,trial_type,trialsInBlock
true,1,1,0,1,true,z,false,true,0.0-2.0-0.0-0.0-3.0,0,0,0,90,true,stim,false,-1,1023.4000000003725,2,0,1,70539,task1,63015,false,false,79,image-keyboard-response,1
true,1,0,0,1,false,z,true,false,0.0-2.0-0.0-0.1-3.1,0,0,0,81,false,stim,false,-1,505.0,2,0,0,70539,task1,65031,false,false,82,image-keyboard-response,2
true,1,0,0,1,false,z,true,false,0.0-2.0-0.0-0.2-3.2,0,0,0,81,false,stim,false,-1,669.1000000005588,2,0,0,70539,task1,67208,false,false,85,image-keyboard-response,3
true,1,1,0,2,false,d,true,true,0.0-2.0-0.0-0.3-3.3,0,0,0,90,false,stim,false,-1,723.9000000003725,2,0,2,70539,task1,69440,false,true,88,image-keyboard-response,4
true,1,1,0,1,true,z,false,true,0.0-2.0-0.0-0.4-3.4,0,0,0,90,false,stim,false,-1,482.79999999981374,2,0,1,70539,task1,71431,false,false,91,image-keyboard-response,5
true,1,1,0,1,true,z,false,true,0.0-2.0-0.0-0.5-3.5,0,0,0,90,false,stim,false,-1,365.70000000018626,2,0,1,70539,task1,73304,false,false,94,image-keyboard-response,6
true,1,2,0,1,false,z,true,false,0.0-2.0-0.0-0.6-3.6,0,0,0,68,false,stim,false,-1,459.70000000018626,2,0,0,70539,task1,75272,false,false,97,image-keyboard-response,7
true,1,1,0,2,false,d,true,false,0.0-2.0-0.0-0.7-3.7,0,0,0,90,false,stim,false,-1,565.0999999996275,2,0,2,70539,task1,77344,false,false,100,image-keyboard-response,8
true,1,2,0,2,true,d,false,true,0.0-2.0-0.0-0.8-3.8,0,0,0,68,false,stim,false,-1,818.9000000003725,2,0,2,70539,task1,79679,false,false,103,image-keyboard-response,9
true,1,1,0,1,true,z,false,true,0.0-2.0-0.1-0.9-3.9,0,0,0,90,false,stim,false,-1,764.6000000005588,2,0,0,70539,task1,81960,false,false,106,image-keyboard-response,10
true,1,1,0,1,true,z,false,true,0.0-2.0-0.1-0.10-3.10,0,0,0,90,false,stim,false,-1,599.2999999998137,2,0,1,70539,task1,84072,false,false,109,image-keyboard-response,11
true,1,2,0,2,true,d,false,true,0.0-2.0-0.1-0.11-3.11,0,0,0,68,false,stim,false,-1,425.59999999962747,2,0,2,70539,task1,86008,false,false,112,image-keyboard-response,12
true,1,1,0,1,true,z,false,true,0.0-2.0-0.1-0.12-3.12,0,0,0,90,false,stim,false,-1,479.5,2,0,0,70539,task1,87993,false,false,115,image-keyboard-response,13
true,1,1,0,1,true,z,false,true,0.0-2.0-0.1-0.13-3.13,0,0,0,90,false,stim,false,-1,598.0,2,0,1,70539,task1,90104,false,false,118,image-keyboard-response,14
true,1,2,0,2,true,d,false,true,0.0-2.0-0.1-0.14-3.14,0,0,0,68,false,stim,false,-1,481.69999999925494,2,0,2,70539,task1,92096,false,false,121,image-keyboard-response,15
true,1,2,0,2,true,d,false,true,0.0-2.0-0.1-0.15-3.15,0,0,0,68,false,stim,false,-1,467.20000000018626,2,0,2,70539,task1,94072,false,false,124,image-keyboard-response,16
true,1,1,0,1,true,z,false,true,0.0-2.0-0.1-0.16-3.16,0,0,0,90,false,stim,false,-1,534.2000000001863,2,0,0,70539,task1,96112,false,false,127,image-keyboard-response,17
true,1,1,0,1,true,z,false,true,0.0-2.0-0.1-0.17-3.17,0,0,0,90,false,stim,false,-1,570.1000000005588,2,0,1,70539,task1,98193,false,false,130,image-keyboard-response,18
true,1,2,0,1,false,z,true,true,0.0-2.0-0.2-0.18-3.18,0,0,0,68,false,stim,false,-1,594.7000000001863,2,0,0,70539,task1,100297,false,true,133,image-keyboard-response,19
true,1,1,0,1,true,z,false,true,0.0-2.0-0.2-0.19-3.19,0,0,0,90,false,stim,false,-1,620.0999999996275,2,0,1,70539,task1,102433,false,false,136,image-keyboard-response,20
true,1,2,0,1,false,z,true,false,0.0-2.0-0.2-0.20-3.20,0,0,0,68,false,stim,false,-1,758.0,2,0,0,70539,task1,104697,false,false,139,image-keyboard-response,21
true,1,1,0,1,true,z,false,true,0.0-2.0-0.2-0.21-3.21,0,0,0,90,false,stim,false,-1,659.1000000005588,2,0,1,70539,task1,106864,false,false,142,image-keyboard-response,22
true,1,1,0,1,true,z,false,true,0.0-2.0-0.2-0.22-3.22,0,0,0,90,false,stim,false,-1,491.8999999994412,2,0,0,70539,task1,108866,false,false,145,image-keyboard-response,23
true,1,2,0,2,true,d,false,true,0.0-2.0-0.2-0.23-3.23,0,0,0,68,false,stim,false,-1,520.7000000001863,2,0,2,70539,task1,110897,false,false,148,image-keyboard-response,24
true,1,2,0,2,true,d,false,true,0.0-2.0-0.2-0.24-3.24,0,0,0,68,false,stim,false,-1,737.2000000001863,2,0,2,70539,task1,113145,false,false,151,image-keyboard-response,25
true,1,1,0,1,true,z,false,true,0.0-2.0-0.2-0.25-3.25,0,0,0,90,false,stim,false,-1,377.6000000005588,2,0,1,70539,task1,115033,false,false,154,image-keyboard-response,26
true,2,2,1,1,false,z,false,false,0.0-2.0-0.2-0.26-3.26,0,0,0,68,true,stim,true,2,747.9000000003725,2,0,2,70539,task1,117289,false,false,157,image-keyboard-response,1
true,2,1,1,2,false,d,false,true,0.0-2.0-0.3-0.27-3.27,0,0,0,90,false,stim,true,1,507.79999999981374,2,0,1,70539,task1,119306,false,true,160,image-keyboard-response,2
true,2,2,1,1,false,z,false,true,0.0-2.0-0.3-0.28-3.28,0,0,0,68,false,stim,true,2,497.1000000005588,2,0,2,70539,task1,121313,false,true,163,image-keyboard-response,3
true,2,1,1,2,false,d,false,false,0.0-2.0-0.3-0.29-3.29,0,0,0,90,false,stim,true,1,537.1999999992549,2,0,1,70539,task1,123361,false,false,166,image-keyboard-response,4
true,2,1,1,0,false,q,false,false,0.0-2.0-0.3-0.30-3.30,0,0,0,90,false,stim,true,1,540.3999999994412,2,0,0,70539,task1,125409,false,false,169,image-keyboard-response,5
true,2,1,1,2,false,d,false,false,0.0-2.0-0.3-0.31-3.31,0,0,0,90,false,stim,true,1,545.2000000001863,2,0,1,70539,task1,127465,false,false,172,image-keyboard-response,6
true,2,2,1,1,false,z,false,false,0.0-2.0-0.3-0.32-3.32,0,0,0,68,false,stim,true,2,682.4000000003725,2,0,2,70539,task1,129658,false,false,175,image-keyboard-response,7
true,2,0,1,0,true,q,false,false,0.0-2.0-0.3-0.33-3.33,0,0,0,81,false,stim,false,1,484.19999999925494,2,0,0,70539,task1,131648,false,true,178,image-keyboard-response,8
true,2,1,1,1,true,z,false,true,0.0-2.0-0.3-0.34-3.34,0,0,0,90,false,stim,false,2,674.3999999994412,2,0,2,70539,task1,133834,false,false,181,image-keyboard-response,9
true,2,1,1,0,false,q,false,false,0.0-2.0-0.3-0.35-3.35,0,0,0,90,false,stim,true,1,681.7999999998137,2,0,0,70539,task1,136026,false,false,184,image-keyboard-response,10
true,2,1,1,1,true,z,false,true,0.0-2.0-0.4-0.36-3.36,0,0,0,90,false,stim,false,2,761.0999999996275,2,0,2,70539,task1,138298,false,false,187,image-keyboard-response,11
true,2,2,1,0,false,q,true,true,0.0-2.0-0.4-0.37-3.37,0,0,0,68,false,stim,false,1,584.7999999998137,2,0,0,70539,task1,140395,false,true,190,image-keyboard-response,12
true,2,0,1,2,false,d,true,false,0.0-2.0-0.4-0.38-3.38,0,0,0,81,false,stim,false,1,548.1999999992549,2,0,1,70539,task1,142458,false,false,193,image-keyboard-response,13
true,2,1,1,1,true,z,false,true,0.0-2.0-0.4-0.39-3.39,0,0,0,90,false,stim,false,2,475.0,2,0,2,70539,task1,144442,false,false,196,image-keyboard-response,14
true,2,2,1,0,false,q,true,true,0.0-2.0-0.4-0.40-3.40,0,0,0,68,false,stim,false,1,457.79999999981374,2,0,0,70539,task1,146410,false,true,199,image-keyboard-response,15
true,2,2,1,2,true,d,false,true,0.0-2.0-0.4-0.41-3.41,0,0,0,68,false,stim,false,1,487.79999999981374,2,0,1,70539,task1,148410,false,false,202,image-keyboard-response,16
true,2,2,1,0,false,q,true,false,0.0-2.0-0.4-0.42-3.42,0,0,0,68,false,stim,false,1,614.7000000001863,2,0,0,70539,task1,150539,false,false,205,image-keyboard-response,17
true,2,1,1,1,true,z,false,true,0.0-2.0-0.4-0.43-3.43,0,0,0,90,false,stim,false,2,484.6000000005588,2,0,2,70539,task1,152530,false,false,208,image-keyboard-response,18
true,2,2,1,2,true,d,false,false,0.0-2.0-0.4-0.44-3.44,0,0,0,68,false,stim,false,1,601.7000000001863,2,0,1,70539,task1,154642,false,true,211,image-keyboard-response,19
true,2,1,1,1,true,z,false,true,0.0-2.0-0.5-0.45-3.45,0,0,0,90,false,stim,false,2,525.7000000001863,2,0,2,70539,task1,156675,false,false,214,image-keyboard-response,20
true,2,1,1,1,true,z,false,true,0.0-2.0-0.5-0.46-3.46,0,0,0,90,false,stim,false,2,584.5,2,0,2,70539,task1,158770,false,false,217,image-keyboard-response,21
true,2,2,1,0,false,q,true,false,0.0-2.0-0.5-0.47-3.47,0,0,0,68,false,stim,false,1,506.20000000018626,2,0,0,70539,task1,160787,false,false,220,image-keyboard-response,22
true,2,2,1,2,true,d,false,true,0.0-2.0-0.5-0.48-3.48,0,0,0,68,false,stim,false,1,653.2000000001863,2,0,1,70539,task1,162946,false,false,223,image-keyboard-response,23
true,2,0,1,0,true,q,false,true,0.0-2.0-0.5-0.49-3.49,0,0,0,81,false,stim,false,1,510.59999999962747,2,0,0,70539,task1,164971,false,false,226,image-keyboard-response,24
true,2,2,1,2,true,d,false,true,0.0-2.0-0.5-0.50-3.50,0,0,0,68,false,stim,false,1,619.2999999998137,2,0,1,70539,task1,167099,false,false,229,image-keyboard-response,25
true,2,0,1,0,true,q,false,true,0.0-2.0-0.5-0.51-3.51,0,0,0,81,false,stim,false,1,580.0,2,0,0,70539,task1,169195,false,false,232,image-keyboard-response,26
true,2,1,1,2,false,d,false,false,0.0-2.0-0.5-0.52-3.52,0,0,0,90,false,stim,true,1,610.5,2,0,1,70539,task1,171316,false,false,235,image-keyboard-response,27
true,2,1,1,1,true,z,false,true,0.0-2.0-0.5-0.53-3.53,0,0,0,90,false,stim,false,2,528.5999999996275,2,0,2,70539,task1,173355,false,false,238,image-keyboard-response,28
true,2,1,1,1,true,z,false,true,0.0-2.0-0.6-0.54-3.54,0,0,0,90,false,stim,false,2,517.7999999998137,2,0,2,70539,task1,175379,false,false,241,image-keyboard-response,29
true,2,1,1,1,true,z,false,true,0.0-2.0-0.6-0.55-3.55,0,0,0,90,false,stim,false,2,481.79999999981374,2,0,2,70539,task1,177371,false,false,244,image-keyboard-response,30
true,2,1,1,1,true,z,false,true,0.0-2.0-0.6-0.56-3.56,0,0,0,90,false,stim,false,2,537.0999999996275,2,0,2,70539,task1,179419,false,false,247,image-keyboard-response,31
true,2,0,1,0,true,q,false,true,0.0-2.0-0.6-0.57-3.57,0,0,0,81,false,stim,false,1,490.3999999994412,2,0,0,70539,task1,181420,false,false,250,image-keyboard-response,32
true,2,0,1,0,true,q,false,true,0.0-2.0-0.6-0.58-3.58,0,0,0,81,false,stim,false,1,576.7000000001863,2,0,0,70539,task1,183508,false,false,253,image-keyboard-response,33
true,2,0,1,0,true,q,false,true,0.0-2.0-0.6-0.59-3.59,0,0,0,81,false,stim,false,1,555.3999999994412,2,0,0,70539,task1,185587,false,false,256,image-keyboard-response,34
true,2,0,1,2,false,d,true,false,0.0-2.0-0.6-0.60-3.60,0,0,0,81,false,stim,false,1,536.9000000003725,2,0,1,70539,task1,187635,false,false,259,image-keyboard-response,35
true,2,2,1,2,true,d,false,true,0.0-2.0-0.6-0.61-3.61,0,0,0,68,false,stim,false,1,402.0,2,0,1,70539,task1,189548,false,false,262,image-keyboard-response,36
true,2,2,1,2,true,d,false,true,0.0-2.0-0.6-0.62-3.62,0,0,0,68,false,stim,false,1,418.19999999925494,2,0,1,70539,task1,191476,false,false,265,image-keyboard-response,37
true,2,1,1,1,true,z,false,false,0.0-2.0-0.7-0.63-3.63,0,0,0,90,false,stim,false,2,632.7999999998137,2,0,2,70539,task1,193620,false,true,268,image-keyboard-response,38
true,2,1,1,1,true,z,false,true,0.0-2.0-0.7-0.64-3.64,0,0,0,90,false,stim,false,2,462.59999999962747,2,0,2,70539,task1,195596,false,false,271,image-keyboard-response,39
true,2,0,1,0,true,q,false,true,0.0-2.0-0.7-0.65-3.65,0,0,0,81,false,stim,false,1,544.5999999996275,2,0,0,70539,task1,197651,false,false,274,image-keyboard-response,40
true,3,0,1,2,false,d,false,false,0.0-2.0-0.7-0.66-3.66,0,0,0,81,true,stim,true,0,437.80000000074506,2,0,0,70539,task1,199596,false,false,277,image-keyboard-response,1
true,3,2,1,0,false,q,false,true,0.0-2.0-0.7-0.67-3.67,0,0,0,68,false,stim,true,2,634.2000000001863,2,0,1,70539,task1,201741,false,true,280,image-keyboard-response,2
true,3,2,1,0,false,q,false,false,0.0-2.0-0.7-0.68-3.68,0,0,0,68,false,stim,true,2,407.79999999981374,2,0,1,70539,task1,203660,false,false,283,image-keyboard-response,3
true,3,1,1,0,false,q,false,false,0.0-2.0-0.7-0.69-3.69,0,0,0,90,false,stim,true,1,743.5,2,0,2,70539,task1,205916,false,false,286,image-keyboard-response,4
true,3,1,1,2,false,d,true,true,0.0-2.0-0.7-0.70-3.70,0,0,0,90,false,stim,false,0,720.8000000007451,2,0,0,70539,task1,208148,false,true,289,image-keyboard-response,5
true,3,0,1,0,true,q,false,true,0.0-2.0-0.7-0.71-3.71,0,0,0,81,false,stim,false,2,825.8999999994412,2,0,1,70539,task1,210485,false,false,292,image-keyboard-response,6
true,3,1,1,2,false,d,true,false,0.0-2.0-0.8-0.72-3.72,0,0,0,90,false,stim,false,0,801.6999999992549,2,0,0,70539,task1,212797,false,false,295,image-keyboard-response,7
true,3,0,1,0,true,q,false,true,0.0-2.0-0.8-0.73-3.73,0,0,0,81,false,stim,false,2,624.0,2,0,1,70539,task1,214932,false,false,298,image-keyboard-response,8
true,3,2,1,0,false,q,true,false,0.0-2.0-0.8-0.74-3.74,0,0,0,68,false,stim,false,1,823.3999999994412,2,0,2,70539,task1,217269,false,false,301,image-keyboard-response,9
true,3,1,1,2,false,d,true,false,0.0-2.0-0.8-0.75-3.75,0,0,0,90,false,stim,false,0,960.7999999998137,2,0,0,70539,task1,219740,false,false,304,image-keyboard-response,10
true,3,0,1,0,true,q,false,true,0.0-2.0-0.8-0.76-3.76,0,0,0,81,false,stim,false,2,593.7000000001863,2,0,1,70539,task1,221845,false,false,307,image-keyboard-response,11
true,3,0,1,2,false,d,false,false,0.0-2.0-0.8-0.77-3.77,0,0,0,81,false,stim,true,0,460.19999999925494,2,0,0,70539,task1,223814,false,false,310,image-keyboard-response,12
true,3,0,1,0,true,q,false,true,0.0-2.0-0.8-0.78-3.78,0,0,0,81,false,stim,false,1,1256.5999999996275,2,0,2,70539,task1,226581,false,false,313,image-keyboard-response,13
true,3,0,1,0,true,q,false,true,0.0-2.0-0.8-0.79-3.79,0,0,0,81,false,stim,false,1,508.29999999981374,2,0,2,70539,task1,228597,false,false,316,image-keyboard-response,14
true,3,0,1,0,true,q,false,true,0.0-2.0-0.8-0.80-3.80,0,0,0,81,false,stim,false,2,511.29999999981374,2,0,1,70539,task1,230621,false,false,319,image-keyboard-response,15
true,3,0,1,0,true,q,false,true,0.0-2.0-0.9-0.81-3.81,0,0,0,81,false,stim,false,2,429.40000000037253,2,0,1,70539,task1,232557,false,false,322,image-keyboard-response,16
true,3,0,1,0,true,q,false,true,0.0-2.0-0.9-0.82-3.82,0,0,0,81,false,stim,false,1,569.3999999994412,2,0,2,70539,task1,234637,false,false,325,image-keyboard-response,17
true,3,2,1,2,true,d,false,true,0.0-2.0-0.9-0.83-3.83,0,0,0,68,false,stim,false,0,737.0999999996275,2,0,0,70539,task1,236885,false,false,328,image-keyboard-response,18
true,3,2,1,2,true,d,false,true,0.0-2.0-0.9-0.84-3.84,0,0,0,68,false,stim,false,0,635.7999999998137,2,0,0,70539,task1,239029,false,false,331,image-keyboard-response,19
true,3,2,1,2,true,d,false,true,0.0-2.0-0.9-0.85-3.85,0,0,0,68,false,stim,false,0,433.0,2,0,0,70539,task1,240973,false,false,334,image-keyboard-response,20
true,3,0,1,0,true,q,false,true,0.0-2.0-0.9-0.86-3.86,0,0,0,81,false,stim,false,2,633.6000000005588,2,0,1,70539,task1,243118,false,false,337,image-keyboard-response,21
true,3,0,1,0,true,q,false,true,0.0-2.0-0.9-0.87-3.87,0,0,0,81,false,stim,false,1,745.5,2,0,2,70539,task1,245374,false,false,340,image-keyboard-response,22
true,3,0,1,0,true,q,false,true,0.0-2.0-0.9-0.88-3.88,0,0,0,81,false,stim,false,2,1542.5999999996275,2,0,1,70539,task1,248430,false,false,343,image-keyboard-response,23
true,3,0,1,0,true,q,false,true,0.0-2.0-0.9-0.89-3.89,0,0,0,81,false,stim,false,1,424.1000000005588,2,0,2,70539,task1,250366,false,false,346,image-keyboard-response,24
true,3,2,1,2,true,d,false,true,0.0-2.0-0.10-0.90-3.90,0,0,0,68,false,stim,false,0,496.19999999925494,2,0,0,70539,task1,252374,false,false,349,image-keyboard-response,25
true,3,0,1,0,true,q,false,true,0.0-2.0-0.10-0.91-3.91,0,0,0,81,false,stim,false,2,537.5,2,0,1,70539,task1,254422,false,false,352,image-keyboard-response,26
true,3,0,1,0,true,q,false,true,0.0-2.0-0.10-0.92-3.92,0,0,0,81,false,stim,false,2,581.2999999998137,2,0,1,70539,task1,256511,false,false,355,image-keyboard-response,27
true,3,0,1,0,true,q,false,true,0.0-2.0-0.10-0.93-3.93,0,0,0,81,false,stim,false,2,544.3999999994412,2,0,1,70539,task1,258566,false,false,358,image-keyboard-response,28
true,3,0,1,0,true,q,false,true,0.0-2.0-0.10-0.94-3.94,0,0,0,81,false,stim,false,1,560.1999999992549,2,0,2,70539,task1,260638,false,false,361,image-keyboard-response,29
true,3,2,1,2,true,d,false,true,0.0-2.0-0.10-0.95-3.95,0,0,0,68,false,stim,false,0,470.5,2,0,0,70539,task1,262622,false,false,364,image-keyboard-response,30
true,3,2,1,0,false,q,true,false,0.0-2.0-0.10-0.96-3.96,0,0,0,68,false,stim,false,1,474.80000000074506,2,0,2,70539,task1,264606,false,false,367,image-keyboard-response,31
true,3,2,1,2,true,d,false,true,0.0-2.0-0.10-0.97-3.97,0,0,0,68,false,stim,false,0,652.2999999998137,2,0,0,70539,task1,266767,false,false,370,image-keyboard-response,32
true,3,0,1,0,true,q,false,true,0.0-2.0-0.10-0.98-3.98,0,0,0,81,false,stim,false,1,496.40000000037253,2,0,2,70539,task1,268774,false,false,373,image-keyboard-response,33
true,3,2,1,2,true,d,false,true,0.0-2.0-0.11-0.99-3.99,0,0,0,68,false,stim,false,0,580.8999999994412,2,0,0,70539,task1,270870,false,false,376,image-keyboard-response,34
true,3,0,1,0,true,q,false,true,0.0-2.0-0.11-0.100-3.100,0,0,0,81,false,stim,false,2,513.5,2,0,1,70539,task1,272894,false,false,379,image-keyboard-response,35
true,3,0,1,0,true,q,false,false,0.0-2.0-0.11-0.101-3.101,0,0,0,81,false,stim,false,1,630.8999999994412,2,0,2,70539,task1,275039,false,true,382,image-keyboard-response,36
true,3,0,1,0,true,q,false,true,0.0-2.0-0.11-0.102-3.102,0,0,0,81,false,stim,false,1,458.09999999962747,2,0,2,70539,task1,277007,false,false,385,image-keyboard-response,37
true,3,0,1,0,true,q,false,true,0.0-2.0-0.11-0.103-3.103,0,0,0,81,false,stim,false,2,616.7999999998137,2,0,1,70539,task1,279135,false,false,388,image-keyboard-response,38
true,3,0,1,0,true,q,false,true,0.0-2.0-0.11-0.104-3.104,0,0,0,81,false,stim,false,1,561.5,2,0,2,70539,task1,281207,false,false,391,image-keyboard-response,39
true,3,2,1,2,true,d,false,true,0.0-2.0-0.11-0.105-3.105,0,0,0,68,false,stim,false,0,838.6000000005588,2,0,0,70539,task1,283559,false,false,394,image-keyboard-response,40
true,3,2,1,2,true,d,false,true,0.0-2.0-0.11-0.106-3.106,0,0,0,68,false,stim,false,0,529.0,2,0,0,70539,task1,285599,false,false,397,image-keyboard-response,41
true,3,0,1,0,true,q,false,true,0.0-2.0-0.11-0.107-3.107,0,0,0,81,false,stim,false,2,594.0,2,0,1,70539,task1,287704,false,false,400,image-keyboard-response,42
true,3,2,1,2,true,d,false,true,0.0-2.0-0.12-0.108-3.108,0,0,0,68,false,stim,false,0,794.6000000005588,2,0,0,70539,task1,290015,false,false,403,image-keyboard-response,43
true,3,0,1,0,true,q,false,false,0.0-2.0-0.12-0.109-3.109,0,0,0,81,false,stim,false,2,590.2999999998137,2,0,1,70539,task1,292119,false,true,406,image-keyboard-response,44
true,3,0,1,0,true,q,false,true,0.0-2.0-0.12-0.110-3.110,0,0,0,81,false,stim,false,1,433.20000000018626,2,0,2,70539,task1,294063,false,false,409,image-keyboard-response,45
true,4,2,1,1,false,z,false,false,0.0-2.0-0.12-0.111-3.111,0,0,0,68,true,stim,true,2,737.4000000003725,2,0,0,70539,task1,296311,false,false,412,image-keyboard-response,1
true,4,0,1,1,false,z,false,false,0.0-2.0-0.12-0.112-3.112,0,0,0,81,false,stim,true,0,677.5999999996275,2,0,2,70539,task1,298504,false,false,415,image-keyboard-response,2
true,4,1,1,2,false,d,true,false,0.0-2.0-0.12-0.113-3.113,0,0,0,90,false,stim,false,0,738.3999999994412,2,0,1,70539,task1,300752,false,false,418,image-keyboard-response,3
true,4,1,1,1,true,z,false,true,0.0-2.0-0.12-0.114-3.114,0,0,0,90,false,stim,false,0,897.0,2,0,2,70539,task1,303160,false,false,421,image-keyboard-response,4
true,4,2,1,2,true,d,false,true,0.0-2.0-0.12-0.115-3.115,0,0,0,68,false,stim,false,0,602.6000000005588,2,0,1,70539,task1,305272,false,false,424,image-keyboard-response,5
true,4,0,1,1,false,z,true,false,0.0-2.0-0.12-0.116-3.116,0,0,0,81,false,stim,false,2,456.20000000018626,2,0,0,70539,task1,307240,false,false,427,image-keyboard-response,6
true,4,1,1,1,true,z,false,true,0.0-2.0-0.13-0.117-3.117,0,0,0,90,false,stim,false,0,393.70000000018626,2,0,2,70539,task1,309145,false,false,430,image-keyboard-response,7
true,4,2,1,2,true,d,false,true,0.0-2.0-0.13-0.118-3.118,0,0,0,68,false,stim,false,0,616.2999999998137,2,0,1,70539,task1,311272,false,false,433,image-keyboard-response,8
true,4,1,1,1,true,z,false,true,0.0-2.0-0.13-0.119-3.119,0,0,0,90,false,stim,false,2,442.59999999962747,2,0,0,70539,task1,313224,false,false,436,image-keyboard-response,9
true,4,2,1,2,true,d,false,true,0.0-2.0-0.13-0.120-3.120,0,0,0,68,false,stim,false,0,545.9000000003725,2,0,1,70539,task1,315280,false,false,439,image-keyboard-response,10
true,4,1,1,1,true,z,false,true,0.0-2.0-0.13-0.121-3.121,0,0,0,90,false,stim,false,2,524.2000000001863,2,0,0,70539,task1,317312,false,false,442,image-keyboard-response,11
true,4,1,1,1,true,z,false,true,0.0-2.0-0.13-0.122-3.122,0,0,0,90,false,stim,false,0,636.4000000003725,2,0,2,70539,task1,319457,false,false,445,image-keyboard-response,12
true,4,2,1,2,true,d,false,true,0.0-2.0-0.13-0.123-3.123,0,0,0,68,false,stim,false,0,881.9000000003725,2,0,1,70539,task1,321848,false,false,448,image-keyboard-response,13
true,4,1,1,1,true,z,false,true,0.0-2.0-0.13-0.124-3.124,0,0,0,90,false,stim,false,2,464.5,2,0,0,70539,task1,323824,false,false,451,image-keyboard-response,14
true,4,1,1,1,true,z,false,true,0.0-2.0-0.13-0.125-3.125,0,0,0,90,false,stim,false,0,436.1000000005588,2,0,2,70539,task1,325768,false,false,454,image-keyboard-response,15
true,4,2,1,2,true,d,false,true,0.0-2.0-0.14-0.126-3.126,0,0,0,68,false,stim,false,0,635.0999999996275,2,0,1,70539,task1,327913,false,false,457,image-keyboard-response,16
true,4,1,1,1,true,z,false,true,0.0-2.0-0.14-0.127-3.127,0,0,0,90,false,stim,false,2,681.9000000003725,2,0,0,70539,task1,330105,false,false,460,image-keyboard-response,17
true,4,2,1,2,true,d,false,true,0.0-2.0-0.14-0.128-3.128,0,0,0,68,false,stim,false,0,722.8999999994412,2,0,1,70539,task1,332337,false,false,463,image-keyboard-response,18
true,4,2,1,2,true,d,false,true,0.0-2.0-0.14-0.129-3.129,0,0,0,68,false,stim,false,0,536.8999999994412,2,0,1,70539,task1,334385,false,false,466,image-keyboard-response,19
true,4,1,1,1,true,z,false,true,0.0-2.0-0.14-0.130-3.130,0,0,0,90,false,stim,false,0,761.3999999994412,2,0,2,70539,task1,336657,false,false,469,image-keyboard-response,20
true,4,2,1,1,false,z,false,false,0.0-2.0-0.14-0.131-3.131,0,0,0,68,false,stim,true,2,728.2999999998137,2,0,0,70539,task1,338897,false,false,472,image-keyboard-response,21
true,4,1,1,1,true,z,false,true,0.0-2.0-0.14-0.132-3.132,0,0,0,90,false,stim,false,0,510.20000000018626,2,0,2,70539,task1,340914,false,false,475,image-keyboard-response,22
true,4,1,1,1,true,z,false,true,0.0-2.0-0.14-0.133-3.133,0,0,0,90,false,stim,false,2,392.70000000018626,2,0,0,70539,task1,342817,false,false,478,image-keyboard-response,23
true,4,1,1,1,true,z,false,true,0.0-2.0-0.14-0.134-3.134,0,0,0,90,false,stim,false,0,565.4000000003725,2,0,2,70539,task1,344889,false,false,481,image-keyboard-response,24
true,4,1,1,1,true,z,false,true,0.0-2.0-0.15-0.135-3.135,0,0,0,90,false,stim,false,2,541.7999999998137,2,0,0,70539,task1,346937,false,false,484,image-keyboard-response,25
true,4,1,1,1,true,z,false,true,0.0-2.0-0.15-0.136-3.136,0,0,0,90,false,stim,false,2,448.8999999994412,2,0,0,70539,task1,348897,false,false,487,image-keyboard-response,26
true,4,2,1,2,true,d,false,true,0.0-2.0-0.15-0.137-3.137,0,0,0,68,false,stim,false,0,521.9000000003725,2,0,1,70539,task1,350930,false,false,490,image-keyboard-response,27
true,4,1,1,1,true,z,false,true,0.0-2.0-0.15-0.138-3.138,0,0,0,90,false,stim,false,0,502.1000000005588,2,0,2,70539,task1,352945,false,false,493,image-keyboard-response,28
true,4,1,1,1,true,z,false,false,0.0-2.0-0.15-0.139-3.139,0,0,0,90,false,stim,false,0,528.7999999998137,2,0,2,70539,task1,354985,false,true,496,image-keyboard-response,29
true,4,2,1,2,true,d,false,true,0.0-2.0-0.15-0.140-3.140,0,0,0,68,false,stim,false,0,580.4000000003725,2,0,1,70539,task1,357073,false,false,499,image-keyboard-response,30
true,4,2,1,2,true,d,false,true,0.0-2.0-0.15-0.141-3.141,0,0,0,68,false,stim,false,0,470.5,2,0,1,70539,task1,359057,false,false,502,image-keyboard-response,31
true,4,1,1,1,true,z,false,true,0.0-2.0-0.15-0.142-3.142,0,0,0,90,false,stim,false,0,686.9000000003725,2,0,2,70539,task1,361258,false,false,505,image-keyboard-response,32
true,4,1,1,1,true,z,false,true,0.0-2.0-0.15-0.143-3.143,0,0,0,90,false,stim,false,2,815.0999999996275,2,0,0,70539,task1,363585,false,false,508,image-keyboard-response,33
true,4,1,1,1,true,z,false,true,0.0-2.0-0.16-0.144-3.144,0,0,0,90,false,stim,false,0,526.6000000005588,2,0,2,70539,task1,365626,false,false,511,image-keyboard-response,34
true,4,1,1,1,true,z,false,true,0.0-2.0-0.16-0.145-3.145,0,0,0,90,false,stim,false,0,527.2000000001863,2,0,2,70539,task1,367666,false,false,514,image-keyboard-response,35
true,4,2,1,1,false,z,false,false,0.0-2.0-0.16-0.146-3.146,0,0,0,68,false,stim,true,2,609.2000000001863,2,0,0,70539,task1,369785,false,false,517,image-keyboard-response,36
true,4,2,1,2,true,d,false,true,0.0-2.0-0.16-0.147-3.147,0,0,0,68,false,stim,false,0,481.29999999981374,2,0,1,70539,task1,371778,false,false,520,image-keyboard-response,37
true,4,1,1,1,true,z,false,true,0.0-2.0-0.16-0.148-3.148,0,0,0,90,false,stim,false,0,472.70000000018626,2,0,2,70539,task1,373762,false,false,523,image-keyboard-response,38
true,4,1,1,1,true,z,false,true,0.0-2.0-0.16-0.149-3.149,0,0,0,90,false,stim,false,2,472.79999999981374,2,0,0,70539,task1,375746,false,false,526,image-keyboard-response,39
true,4,2,1,2,true,d,false,false,0.0-2.0-0.16-0.150-3.150,0,0,0,68,false,stim,false,0,599.2000000001863,2,0,1,70539,task1,377858,false,true,529,image-keyboard-response,40
true,4,1,1,1,true,z,false,true,0.0-2.0-0.16-0.151-3.151,0,0,0,90,false,stim,false,2,409.79999999981374,2,0,0,70539,task1,379778,false,false,532,image-keyboard-response,41
true,4,2,1,2,true,d,false,true,0.0-2.0-0.16-0.152-3.152,0,0,0,68,false,stim,false,0,600.8000000007451,2,0,1,70539,task1,381890,false,false,535,image-keyboard-response,42
true,4,1,1,1,true,z,false,true,0.0-2.0-0.17-0.153-3.153,0,0,0,90,false,stim,false,2,420.59999999962747,2,0,0,70539,task1,383818,false,false,538,image-keyboard-response,43
true,4,2,1,2,true,d,false,true,0.0-2.0-0.17-0.154-3.154,0,0,0,68,false,stim,false,0,496.79999999981374,2,0,1,70539,task1,385826,false,false,541,image-keyboard-response,44
true,5,2,1,1,false,z,false,false,0.0-2.0-0.17-0.155-3.155,0,0,0,68,true,stim,true,2,489.0,2,0,1,70539,task1,387827,false,false,544,image-keyboard-response,1
true,5,1,1,2,false,d,false,false,0.0-2.0-0.17-0.156-3.156,0,0,0,90,false,stim,true,1,467.0,2,0,0,70539,task1,389809,false,false,547,image-keyboard-response,2
true,5,1,1,0,false,q,false,false,0.0-2.0-0.17-0.157-3.157,0,0,0,90,false,stim,true,1,483.0,2,0,2,70539,task1,391801,false,false,550,image-keyboard-response,3
true,5,0,1,1,false,z,true,false,0.0-2.0-0.17-0.158-3.158,0,0,0,81,false,stim,false,2,556.2999999998137,2,0,1,70539,task1,393873,false,false,553,image-keyboard-response,4
true,5,0,1,0,true,q,false,true,0.0-2.0-0.17-0.159-3.159,0,0,0,81,false,stim,false,1,459.79999999981374,2,0,2,70539,task1,395843,false,false,556,image-keyboard-response,5
true,5,0,1,2,false,d,true,false,0.0-2.0-0.17-0.160-3.160,0,0,0,81,false,stim,false,1,501.20000000018626,2,0,0,70539,task1,397850,false,false,559,image-keyboard-response,6
true,5,0,1,0,true,q,false,true,0.0-2.0-0.17-0.161-3.161,0,0,0,81,false,stim,false,1,653.0,2,0,2,70539,task1,400018,false,false,562,image-keyboard-response,7
true,5,0,1,0,true,q,false,true,0.0-2.0-0.18-0.162-3.162,0,0,0,81,false,stim,false,1,577.6000000005588,2,0,2,70539,task1,402107,false,false,565,image-keyboard-response,8
true,5,1,1,1,true,z,false,true,0.0-2.0-0.18-0.163-3.163,0,0,0,90,false,stim,false,2,492.09999999962747,2,0,1,70539,task1,404108,false,false,568,image-keyboard-response,9
true,5,2,1,2,true,d,false,true,0.0-2.0-0.18-0.164-3.164,0,0,0,68,false,stim,false,1,831.7999999998137,2,0,0,70539,task1,406451,false,false,571,image-keyboard-response,10
true,5,1,1,1,true,z,false,true,0.0-2.0-0.18-0.165-3.165,0,0,0,90,false,stim,false,2,580.5,2,0,1,70539,task1,408547,false,false,574,image-keyboard-response,11
true,5,2,1,2,true,d,false,true,0.0-2.0-0.18-0.166-3.166,0,0,0,68,false,stim,false,1,614.0,2,0,0,70539,task1,410673,false,false,577,image-keyboard-response,12
true,5,2,1,2,true,d,false,true,0.0-2.0-0.18-0.167-3.167,0,0,0,68,false,stim,false,1,547.2999999998137,2,0,0,70539,task1,412731,false,false,580,image-keyboard-response,13
true,5,1,1,1,true,z,false,true,0.0-2.0-0.18-0.168-3.168,0,0,0,90,false,stim,false,2,754.1999999992549,2,0,1,70539,task1,414996,false,false,583,image-keyboard-response,14
true,5,0,1,0,true,q,false,true,0.0-2.0-0.18-0.169-3.169,0,0,0,81,false,stim,false,1,587.5999999996275,2,0,2,70539,task1,417099,false,false,586,image-keyboard-response,15
true,5,0,1,0,true,q,false,false,0.0-2.0-0.18-0.170-3.170,0,0,0,81,false,stim,false,1,878.9000000003725,2,0,2,70539,task1,419491,false,true,589,image-keyboard-response,16
true,5,1,1,1,true,z,false,true,0.0-2.0-0.19-0.171-3.171,0,0,0,90,false,stim,false,2,475.0,2,0,1,70539,task1,421475,false,false,592,image-keyboard-response,17
true,5,0,1,0,true,q,false,false,0.0-2.0-0.19-0.172-3.172,0,0,0,81,false,stim,false,1,486.29999999981374,2,0,2,70539,task1,423476,false,true,595,image-keyboard-response,18
true,5,2,1,2,true,d,false,true,0.0-2.0-0.19-0.173-3.173,0,0,0,68,false,stim,false,1,626.4000000003725,2,0,0,70539,task1,425613,false,false,598,image-keyboard-response,19
true,5,2,1,2,true,d,false,true,0.0-2.0-0.19-0.174-3.174,0,0,0,68,false,stim,false,1,597.0,2,0,0,70539,task1,427724,false,false,601,image-keyboard-response,20
true,5,1,1,1,true,z,false,true,0.0-2.0-0.19-0.175-3.175,0,0,0,90,false,stim,false,2,664.7999999998137,2,0,1,70539,task1,429900,false,false,604,image-keyboard-response,21
true,5,1,1,1,true,z,false,true,0.0-2.0-0.19-0.176-3.176,0,0,0,90,false,stim,false,2,471.09999999962747,2,0,1,70539,task1,431884,false,false,607,image-keyboard-response,22
true,5,0,1,0,true,q,false,true,0.0-2.0-0.19-0.177-3.177,0,0,0,81,false,stim,false,1,509.90000000037253,2,0,2,70539,task1,433900,false,false,610,image-keyboard-response,23
true,5,0,1,0,true,q,false,true,0.0-2.0-0.19-0.178-3.178,0,0,0,81,false,stim,false,1,456.70000000018626,2,0,2,70539,task1,435869,false,false,613,image-keyboard-response,24
true,5,2,1,2,true,d,false,true,0.0-2.0-0.19-0.179-3.179,0,0,0,68,false,stim,false,1,688.5,2,0,0,70539,task1,438068,false,false,616,image-keyboard-response,25
true,5,1,1,1,true,z,false,true,0.0-2.0-0.20-0.180-3.180,0,0,0,90,false,stim,false,2,520.5999999996275,2,0,1,70539,task1,440100,false,false,619,image-keyboard-response,26
true,5,0,1,0,true,q,false,true,0.0-2.0-0.20-0.181-3.181,0,0,0,81,false,stim,false,1,658.5,2,0,2,70539,task1,442268,false,false,622,image-keyboard-response,27
true,5,2,1,2,true,d,false,true,0.0-2.0-0.20-0.182-3.182,0,0,0,68,false,stim,false,1,801.1000000005588,2,0,0,70539,task1,444580,false,false,625,image-keyboard-response,28
true,5,1,1,1,true,z,false,true,0.0-2.0-0.20-0.183-3.183,0,0,0,90,false,stim,false,2,353.29999999981374,2,0,1,70539,task1,446445,false,false,628,image-keyboard-response,29
true,5,1,1,1,true,z,false,true,0.0-2.0-0.20-0.184-3.184,0,0,0,90,false,stim,false,2,416.20000000018626,2,0,1,70539,task1,448373,false,false,631,image-keyboard-response,30
true,5,0,1,0,true,q,false,true,0.0-2.0-0.20-0.185-3.185,0,0,0,81,false,stim,false,1,554.7000000001863,2,0,2,70539,task1,450437,false,false,634,image-keyboard-response,31
true,5,0,1,0,true,q,false,true,0.0-2.0-0.20-0.186-3.186,0,0,0,81,false,stim,false,1,528.8999999994412,2,0,2,70539,task1,452477,false,false,637,image-keyboard-response,32
true,5,2,1,2,true,d,false,true,0.0-2.0-0.20-0.187-3.187,0,0,0,68,false,stim,false,1,584.6999999992549,2,0,0,70539,task1,454573,false,false,640,image-keyboard-response,33
true,5,2,1,2,true,d,false,false,0.0-2.0-0.20-0.188-3.188,0,0,0,68,false,stim,false,1,411.70000000018626,2,0,0,70539,task1,456494,false,true,643,image-keyboard-response,34
true,5,1,1,1,true,z,false,true,0.0-2.0-0.21-0.189-3.189,0,0,0,90,false,stim,false,2,448.20000000018626,2,0,1,70539,task1,458453,false,false,646,image-keyboard-response,35
true,5,2,1,2,true,d,false,true,0.0-2.0-0.21-0.190-3.190,0,0,0,68,false,stim,false,1,496.29999999981374,2,0,0,70539,task1,460460,false,false,649,image-keyboard-response,36
true,5,1,1,1,true,z,false,true,0.0-2.0-0.21-0.191-3.191,0,0,0,90,false,stim,false,2,489.79999999981374,2,0,1,70539,task1,462461,false,false,652,image-keyboard-response,37
true,5,1,1,1,true,z,false,true,0.0-2.0-0.21-0.192-3.192,0,0,0,90,false,stim,false,2,430.59999999962747,2,0,1,70539,task1,464405,false,false,655,image-keyboard-response,38
true,5,0,1,0,true,q,false,true,0.0-2.0-0.21-0.193-3.193,0,0,0,81,false,stim,false,1,633.2000000001863,2,0,2,70539,task1,466550,false,false,658,image-keyboard-response,39
true,5,0,1,0,true,q,false,true,0.0-2.0-0.21-0.194-3.194,0,0,0,81,false,stim,false,1,420.1000000005588,2,0,2,70539,task1,468475,false,false,661,image-keyboard-response,40
true,5,0,1,0,true,q,false,true,0.0-2.0-0.21-0.195-3.195,0,0,0,81,false,stim,false,1,367.0,2,0,2,70539,task1,470355,false,false,664,image-keyboard-response,41
true,5,2,1,2,true,d,false,true,0.0-2.0-0.21-0.196-3.196,0,0,0,68,false,stim,false,1,680.0,2,0,0,70539,task1,472541,false,false,667,image-keyboard-response,42
true,5,2,1,2,true,d,false,true,0.0-2.0-0.21-0.197-3.197,0,0,0,68,false,stim,false,1,401.5,2,0,0,70539,task1,474452,false,false,670,image-keyboard-response,43
true,5,0,1,0,true,q,false,false,0.0-2.0-0.22-0.198-3.198,0,0,0,81,false,stim,false,1,642.0,2,0,2,70539,task1,476606,false,true,673,image-keyboard-response,44
true,5,2,1,2,true,d,false,true,0.0-2.0-0.22-0.199-3.199,0,0,0,68,false,stim,false,1,663.7999999998137,2,0,0,70539,task1,478782,false,false,676,image-keyboard-response,45
true,6,0,2,1,false,z,false,false,0.0-2.0-0.22-0.200-3.200,0,0,0,81,true,stim,true,0,535.0,2,0,2,70539,task1,480828,false,false,679,image-keyboard-response,1
true,6,1,2,2,false,d,false,false,0.0-2.0-0.22-0.201-3.201,0,0,0,90,false,stim,true,1,514.5999999996275,2,0,1,70539,task1,482854,false,false,682,image-keyboard-response,2
true,6,2,2,1,false,z,false,false,0.0-2.0-0.22-0.202-3.202,0,0,0,68,false,stim,true,2,528.4000000003725,2,0,0,70539,task1,484894,false,false,685,image-keyboard-response,3
true,6,2,2,1,false,z,false,false,0.0-2.0-0.22-0.203-3.203,0,0,0,68,false,stim,true,2,797.7000000001863,2,0,0,70539,task1,487199,false,false,688,image-keyboard-response,4
true,6,1,2,2,false,d,false,false,0.0-2.0-0.22-0.204-3.204,0,0,0,90,false,stim,true,1,424.20000000018626,2,0,1,70539,task1,489134,false,false,691,image-keyboard-response,5
true,6,0,2,2,false,d,true,false,0.0-2.0-0.22-0.205-3.205,0,0,0,81,false,stim,false,1,464.90000000037253,2,0,1,70539,task1,491110,false,false,694,image-keyboard-response,6
true,6,1,2,1,true,z,false,true,0.0-2.0-0.22-0.206-3.206,0,0,0,90,false,stim,false,0,770.7000000001863,2,0,2,70539,task1,493390,false,false,697,image-keyboard-response,7
true,6,1,2,1,true,z,false,true,0.0-2.0-0.23-0.207-3.207,0,0,0,90,false,stim,false,0,525.1000000005588,2,0,2,70539,task1,495422,false,false,700,image-keyboard-response,8
true,6,2,2,2,true,d,false,true,0.0-2.0-0.23-0.208-3.208,0,0,0,68,false,stim,false,1,728.0999999996275,2,0,1,70539,task1,497671,false,false,703,image-keyboard-response,9
true,6,1,2,1,true,z,false,true,0.0-2.0-0.23-0.209-3.209,0,0,0,90,false,stim,false,0,580.7999999998137,2,0,2,70539,task1,499766,false,false,706,image-keyboard-response,10
true,6,0,2,1,false,z,true,false,0.0-2.0-0.23-0.210-3.210,0,0,0,81,false,stim,false,2,856.2000000001863,2,0,0,70539,task1,502134,false,false,709,image-keyboard-response,11
true,6,1,2,1,true,z,false,true,0.0-2.0-0.23-0.211-3.211,0,0,0,90,false,stim,false,2,610.5,2,0,0,70539,task1,504254,false,false,712,image-keyboard-response,12
true,6,2,2,2,true,d,false,true,0.0-2.0-0.23-0.212-3.212,0,0,0,68,false,stim,false,1,654.7000000001863,2,0,1,70539,task1,506422,false,false,715,image-keyboard-response,13
true,6,2,2,2,true,d,false,true,0.0-2.0-0.23-0.213-3.213,0,0,0,68,false,stim,false,1,557.8999999994412,2,0,1,70539,task1,508495,false,false,718,image-keyboard-response,14
true,6,1,2,1,true,z,false,true,0.0-2.0-0.23-0.214-3.214,0,0,0,90,false,stim,false,2,478.90000000037253,2,0,0,70539,task1,510486,false,false,721,image-keyboard-response,15
true,6,1,2,1,true,z,false,true,0.0-2.0-0.23-0.215-3.215,0,0,0,90,false,stim,false,0,503.1000000005588,2,0,2,70539,task1,512503,false,false,724,image-keyboard-response,16
true,6,1,2,1,true,z,false,true,0.0-2.0-0.24-0.216-3.216,0,0,0,90,false,stim,false,0,440.70000000018626,2,0,2,70539,task1,514455,false,false,727,image-keyboard-response,17
true,6,1,2,2,false,d,false,false,0.0-2.0-0.24-0.217-3.217,0,0,0,90,false,stim,true,1,538.2999999998137,2,0,1,70539,task1,516503,false,false,730,image-keyboard-response,18
true,6,1,2,1,true,z,false,true,0.0-2.0-0.24-0.218-3.218,0,0,0,90,false,stim,false,2,610.2000000001863,2,0,0,70539,task1,518624,false,false,733,image-keyboard-response,19
true,6,1,2,1,true,z,false,true,0.0-2.0-0.24-0.219-3.219,0,0,0,90,false,stim,false,0,633.6000000005588,2,0,2,70539,task1,520767,false,false,736,image-keyboard-response,20
true,6,2,2,2,true,d,false,false,0.0-2.0-0.24-0.220-3.220,0,0,0,68,false,stim,false,1,471.6000000005588,2,0,1,70539,task1,522751,false,true,739,image-keyboard-response,21
true,6,2,2,2,true,d,false,false,0.0-2.0-0.24-0.221-3.221,0,0,0,68,false,stim,false,1,382.09999999962747,2,0,1,70539,task1,524647,false,true,742,image-keyboard-response,22
true,6,1,2,1,true,z,false,true,0.0-2.0-0.24-0.222-3.222,0,0,0,90,false,stim,false,0,440.8999999994412,2,0,2,70539,task1,526599,false,false,745,image-keyboard-response,23
true,6,1,2,1,true,z,false,true,0.0-2.0-0.24-0.223-3.223,0,0,0,90,false,stim,false,2,561.7999999998137,2,0,0,70539,task1,528672,false,false,748,image-keyboard-response,24
true,6,1,2,1,true,z,false,true,0.0-2.0-0.24-0.224-3.224,0,0,0,90,false,stim,false,2,472.79999999981374,2,0,0,70539,task1,530655,false,false,751,image-keyboard-response,25
true,6,1,2,1,true,z,false,true,0.0-2.0-0.25-0.225-3.225,0,0,0,90,false,stim,false,0,508.69999999925494,2,0,2,70539,task1,532679,false,false,754,image-keyboard-response,26
true,6,1,2,1,true,z,false,true,0.0-2.0-0.25-0.226-3.226,0,0,0,90,false,stim,false,0,532.7999999998137,2,0,2,70539,task1,534727,false,false,757,image-keyboard-response,27
true,6,0,2,2,false,d,true,false,0.0-2.0-0.25-0.227-3.227,0,0,0,81,false,stim,false,1,648.0,2,0,1,70539,task1,536887,false,false,760,image-keyboard-response,28
true,6,2,2,2,true,d,false,true,0.0-2.0-0.25-0.228-3.228,0,0,0,68,false,stim,false,1,813.1999999992549,2,0,1,70539,task1,539208,false,false,763,image-keyboard-response,29
true,6,1,2,1,true,z,false,true,0.0-2.0-0.25-0.229-3.229,0,0,0,90,false,stim,false,2,483.29999999981374,2,0,0,70539,task1,541208,false,false,766,image-keyboard-response,30
true,6,1,2,1,true,z,false,true,0.0-2.0-0.25-0.230-3.230,0,0,0,90,false,stim,false,2,843.9000000003725,2,0,0,70539,task1,543568,false,false,769,image-keyboard-response,31
true,6,1,2,1,true,z,false,true,0.0-2.0-0.25-0.231-3.231,0,0,0,90,false,stim,false,0,562.9000000003725,2,0,2,70539,task1,545640,false,false,772,image-keyboard-response,32
true,6,2,2,2,true,d,false,true,0.0-2.0-0.25-0.232-3.232,0,0,0,68,false,stim,false,1,509.09999999962747,2,0,1,70539,task1,547664,false,false,775,image-keyboard-response,33
true,6,1,2,1,true,z,false,true,0.0-2.0-0.25-0.233-3.233,0,0,0,90,false,stim,false,2,634.1999999992549,2,0,0,70539,task1,549809,false,false,778,image-keyboard-response,34
true,6,2,2,2,true,d,false,true,0.0-2.0-0.26-0.234-3.234,0,0,0,68,false,stim,false,1,832.2000000001863,2,0,1,70539,task1,552153,false,false,781,image-keyboard-response,35
true,6,1,2,1,true,z,false,true,0.0-2.0-0.26-0.235-3.235,0,0,0,90,false,stim,false,2,699.7000000001863,2,0,0,70539,task1,554368,false,false,784,image-keyboard-response,36
true,6,1,2,1,true,z,false,true,0.0-2.0-0.26-0.236-3.236,0,0,0,90,false,stim,false,0,509.20000000018626,2,0,2,70539,task1,556384,false,false,787,image-keyboard-response,37
true,6,1,2,1,true,z,false,true,0.0-2.0-0.26-0.237-3.237,0,0,0,90,false,stim,false,0,496.6000000005588,2,0,2,70539,task1,558392,false,false,790,image-keyboard-response,38
true,6,1,2,1,true,z,false,true,0.0-2.0-0.26-0.238-3.238,0,0,0,90,false,stim,false,2,1086.5,2,0,0,70539,task1,560985,false,false,793,image-keyboard-response,39
true,6,2,2,2,true,d,false,true,0.0-2.0-0.26-0.239-3.239,0,0,0,68,false,stim,false,1,631.2000000001863,2,0,1,70539,task1,563129,false,false,796,image-keyboard-response,40
true,7,1,2,2,false,d,false,false,0.0-2.0-0.26-0.240-3.240,0,0,0,90,true,stim,true,1,608.5999999996275,2,0,0,70539,task1,565249,false,false,799,image-keyboard-response,1
true,7,2,2,1,false,z,false,false,0.0-2.0-0.26-0.241-3.241,0,0,0,68,false,stim,true,2,797.1000000005588,2,0,1,70539,task1,567561,false,false,802,image-keyboard-response,2
true,7,1,2,0,false,q,false,false,0.0-2.0-0.26-0.242-3.242,0,0,0,90,false,stim,true,1,480.3999999994412,2,0,2,70539,task1,569552,false,false,805,image-keyboard-response,3
true,7,2,2,0,false,q,true,false,0.0-2.0-0.27-0.243-3.243,0,0,0,68,false,stim,false,1,661.5,2,0,2,70539,task1,571730,false,false,808,image-keyboard-response,4
true,7,1,2,1,true,z,false,true,0.0-2.0-0.27-0.244-3.244,0,0,0,90,false,stim,false,2,743.7999999998137,2,0,1,70539,task1,573985,false,false,811,image-keyboard-response,5
true,7,0,2,0,true,q,false,true,0.0-2.0-0.27-0.245-3.245,0,0,0,81,false,stim,false,1,672.2000000001863,2,0,2,70539,task1,576168,false,false,814,image-keyboard-response,6
true,7,1,2,1,true,z,false,true,0.0-2.0-0.27-0.246-3.246,0,0,0,90,false,stim,false,2,778.5999999996275,2,0,1,70539,task1,578457,false,false,817,image-keyboard-response,7
true,7,1,2,1,true,z,false,true,0.0-2.0-0.27-0.247-3.247,0,0,0,90,false,stim,false,2,968.1999999992549,2,0,1,70539,task1,580937,false,false,820,image-keyboard-response,8
true,7,0,2,0,true,q,false,true,0.0-2.0-0.27-0.248-3.248,0,0,0,81,false,stim,false,1,880.6999999992549,2,0,2,70539,task1,583330,false,false,823,image-keyboard-response,9
true,7,2,2,2,true,d,false,true,0.0-2.0-0.27-0.249-3.249,0,0,0,68,false,stim,false,1,612.0,2,0,0,70539,task1,585457,false,false,826,image-keyboard-response,10
true,7,2,2,2,true,d,false,true,0.0-2.0-0.27-0.250-3.250,0,0,0,68,false,stim,false,1,497.29999999981374,2,0,0,70539,task1,587465,false,false,829,image-keyboard-response,11
true,7,2,2,2,true,d,false,true,0.0-2.0-0.27-0.251-3.251,0,0,0,68,false,stim,false,1,536.3999999994412,2,0,0,70539,task1,589513,false,false,832,image-keyboard-response,12
true,7,1,2,1,true,z,false,true,0.0-2.0-0.28-0.252-3.252,0,0,0,90,false,stim,false,2,555.2999999998137,2,0,1,70539,task1,591585,false,false,835,image-keyboard-response,13
true,7,2,2,2,true,d,false,true,0.0-2.0-0.28-0.253-3.253,0,0,0,68,false,stim,false,1,585.1000000005588,2,0,0,70539,task1,593682,false,false,838,image-keyboard-response,14
true,7,0,2,0,true,q,false,true,0.0-2.0-0.28-0.254-3.254,0,0,0,81,false,stim,false,1,471.09999999962747,2,0,2,70539,task1,595666,false,false,841,image-keyboard-response,15
true,7,2,2,2,true,d,false,true,0.0-2.0-0.28-0.255-3.255,0,0,0,68,false,stim,false,1,704.2000000001863,2,0,0,70539,task1,597882,false,false,844,image-keyboard-response,16
true,7,2,2,2,true,d,false,true,0.0-2.0-0.28-0.256-3.256,0,0,0,68,false,stim,false,1,512.5999999996275,2,0,0,70539,task1,599906,false,false,847,image-keyboard-response,17
true,7,1,2,1,true,z,false,true,0.0-2.0-0.28-0.257-3.257,0,0,0,90,false,stim,false,2,1184.5999999996275,2,0,1,70539,task1,602602,false,false,850,image-keyboard-response,18
true,7,0,2,0,true,q,false,true,0.0-2.0-0.28-0.258-3.258,0,0,0,81,false,stim,false,1,780.7999999998137,2,0,2,70539,task1,604899,false,false,853,image-keyboard-response,19
true,7,1,2,1,true,z,false,true,0.0-2.0-0.28-0.259-3.259,0,0,0,90,false,stim,false,2,550.7999999998137,2,0,1,70539,task1,606962,false,false,856,image-keyboard-response,20
true,7,0,2,0,true,q,false,true,0.0-2.0-0.28-0.260-3.260,0,0,0,81,false,stim,false,1,624.2999999998137,2,0,2,70539,task1,609098,false,false,859,image-keyboard-response,21
true,7,2,2,2,true,d,false,true,0.0-2.0-0.29-0.261-3.261,0,0,0,68,false,stim,false,1,680.1000000005588,2,0,0,70539,task1,611290,false,false,862,image-keyboard-response,22
true,7,0,2,0,true,q,false,true,0.0-2.0-0.29-0.262-3.262,0,0,0,81,false,stim,false,1,644.2000000001863,2,0,2,70539,task1,613442,false,false,865,image-keyboard-response,23
true,7,1,2,1,true,z,false,true,0.0-2.0-0.29-0.263-3.263,0,0,0,90,false,stim,false,2,633.0999999996275,2,0,1,70539,task1,615587,false,false,868,image-keyboard-response,24
true,7,2,2,2,true,d,false,true,0.0-2.0-0.29-0.264-3.264,0,0,0,68,false,stim,false,1,479.20000000018626,2,0,0,70539,task1,617578,false,false,871,image-keyboard-response,25
true,7,1,2,1,true,z,false,true,0.0-2.0-0.29-0.265-3.265,0,0,0,90,false,stim,false,2,953.4000000003725,2,0,1,70539,task1,620042,false,false,874,image-keyboard-response,26
true,7,0,2,0,true,q,false,true,0.0-2.0-0.29-0.266-3.266,0,0,0,81,false,stim,false,1,796.8999999994412,2,0,2,70539,task1,622346,false,false,877,image-keyboard-response,27
true,7,0,2,0,true,q,false,true,0.0-2.0-0.29-0.267-3.267,0,0,0,81,false,stim,false,1,465.19999999925494,2,0,2,70539,task1,624323,false,false,880,image-keyboard-response,28
true,7,1,2,1,true,z,false,true,0.0-2.0-0.29-0.268-3.268,0,0,0,90,false,stim,false,2,572.0,2,0,1,70539,task1,626411,false,false,883,image-keyboard-response,29
true,7,2,2,2,true,d,false,true,0.0-2.0-0.29-0.269-3.269,0,0,0,68,false,stim,false,1,496.5,2,0,0,70539,task1,628419,false,false,886,image-keyboard-response,30
true,7,1,2,1,true,z,false,true,0.0-2.0-0.30-0.270-3.270,0,0,0,90,false,stim,false,2,591.5,2,0,1,70539,task1,630523,false,false,889,image-keyboard-response,31
true,7,1,2,1,true,z,false,true,0.0-2.0-0.30-0.271-3.271,0,0,0,90,false,stim,false,2,448.3999999994412,2,0,1,70539,task1,632483,false,false,892,image-keyboard-response,32
true,7,0,2,0,true,q,false,true,0.0-2.0-0.30-0.272-3.272,0,0,0,81,false,stim,false,1,520.1000000005588,2,0,2,70539,task1,634515,false,false,895,image-keyboard-response,33
true,7,0,2,0,true,q,false,false,0.0-2.0-0.30-0.273-3.273,0,0,0,81,false,stim,false,1,833.2999999998137,2,0,2,70539,task1,636860,false,true,898,image-keyboard-response,34
true,7,1,2,1,true,z,false,true,0.0-2.0-0.30-0.274-3.274,0,0,0,90,false,stim,false,2,482.6000000005588,2,0,1,70539,task1,638859,false,false,901,image-keyboard-response,35
true,7,0,2,0,true,q,false,true,0.0-2.0-0.30-0.275-3.275,0,0,0,81,false,stim,false,1,575.9000000003725,2,0,2,70539,task1,640947,false,false,904,image-keyboard-response,36
true,7,2,2,2,true,d,false,true,0.0-2.0-0.30-0.276-3.276,0,0,0,68,false,stim,false,1,596.5999999996275,2,0,0,70539,task1,643059,false,false,907,image-keyboard-response,37
true,7,2,2,2,true,d,false,true,0.0-2.0-0.30-0.277-3.277,0,0,0,68,false,stim,false,1,537.5,2,0,0,70539,task1,645107,false,false,910,image-keyboard-response,38
true,7,2,2,2,true,d,false,true,0.0-2.0-0.30-0.278-3.278,0,0,0,68,false,stim,false,1,520.7999999998137,2,0,0,70539,task1,647140,false,false,913,image-keyboard-response,39
true,8,2,1,0,false,q,false,false,0.0-2.0-0.31-0.279-3.279,0,0,0,68,true,stim,true,2,555.1000000005588,2,0,0,70539,task1,649203,false,false,916,image-keyboard-response,1
true,8,2,1,0,false,q,false,false,0.0-2.0-0.31-0.280-3.280,0,0,0,68,false,stim,true,2,512.7000000001863,2,0,0,70539,task1,651228,false,false,919,image-keyboard-response,2
true,8,0,1,1,false,z,false,false,0.0-2.0-0.31-0.281-3.281,0,0,0,81,false,stim,true,0,621.1999999992549,2,0,2,70539,task1,653356,false,false,922,image-keyboard-response,3
true,8,1,1,0,false,q,true,false,0.0-2.0-0.31-0.282-3.282,0,0,0,90,false,stim,false,2,757.5999999996275,2,0,0,70539,task1,655620,false,false,925,image-keyboard-response,4
true,8,2,1,0,false,q,true,false,0.0-2.0-0.31-0.283-3.283,0,0,0,68,false,stim,false,1,725.2000000001863,2,0,1,70539,task1,657852,false,false,928,image-keyboard-response,5
true,8,1,1,0,false,q,false,false,0.0-2.0-0.31-0.284-3.284,0,0,0,90,false,stim,true,1,530.5999999996275,2,0,1,70539,task1,659892,false,false,931,image-keyboard-response,6
true,8,1,1,1,true,z,false,true,0.0-2.0-0.31-0.285-3.285,0,0,0,90,false,stim,false,0,800.0999999996275,2,0,2,70539,task1,662204,false,false,934,image-keyboard-response,7
true,8,1,1,1,true,z,false,true,0.0-2.0-0.31-0.286-3.286,0,0,0,90,false,stim,false,0,632.3999999994412,2,0,2,70539,task1,664348,false,false,937,image-keyboard-response,8
true,8,0,1,0,true,q,false,true,0.0-2.0-0.31-0.287-3.287,0,0,0,81,false,stim,false,1,569.0,2,0,1,70539,task1,666428,false,false,940,image-keyboard-response,9
true,8,1,1,0,false,q,true,false,0.0-2.0-0.32-0.288-3.288,0,0,0,90,false,stim,false,2,784.5,2,0,0,70539,task1,668725,false,false,943,image-keyboard-response,10
true,8,0,1,0,true,q,false,true,0.0-2.0-0.32-0.289-3.289,0,0,0,81,false,stim,false,1,712.2000000001863,2,0,1,70539,task1,670948,false,false,946,image-keyboard-response,11
true,8,1,1,1,true,z,false,true,0.0-2.0-0.32-0.290-3.290,0,0,0,90,false,stim,false,0,537.5,2,0,2,70539,task1,672996,false,false,949,image-keyboard-response,12
true,8,0,1,0,true,q,false,true,0.0-2.0-0.32-0.291-3.291,0,0,0,81,false,stim,false,1,800.3999999994412,2,0,1,70539,task1,675308,false,false,952,image-keyboard-response,13
true,8,0,1,0,true,q,false,true,0.0-2.0-0.32-0.292-3.292,0,0,0,81,false,stim,false,2,481.09999999962747,2,0,0,70539,task1,677300,false,false,955,image-keyboard-response,14
true,8,0,1,0,true,q,false,false,0.0-2.0-0.32-0.293-3.293,0,0,0,81,false,stim,false,2,537.2999999998137,2,0,0,70539,task1,679349,false,true,958,image-keyboard-response,15
true,8,1,1,1,true,z,false,true,0.0-2.0-0.32-0.294-3.294,0,0,0,90,false,stim,false,0,391.5,2,0,2,70539,task1,681252,false,false,961,image-keyboard-response,16
true,8,0,1,0,true,q,false,true,0.0-2.0-0.32-0.295-3.295,0,0,0,81,false,stim,false,1,832.4000000003725,2,0,1,70539,task1,683597,false,false,964,image-keyboard-response,17
true,8,1,1,1,true,z,false,true,0.0-2.0-0.32-0.296-3.296,0,0,0,90,false,stim,false,0,568.5,2,0,2,70539,task1,685677,false,false,967,image-keyboard-response,18
true,8,0,1,0,true,q,false,true,0.0-2.0-0.33-0.297-3.297,0,0,0,81,false,stim,false,1,615.2999999998137,2,0,1,70539,task1,687804,false,false,970,image-keyboard-response,19
true,8,0,1,0,true,q,false,true,0.0-2.0-0.33-0.298-3.298,0,0,0,81,false,stim,false,1,441.29999999981374,2,0,1,70539,task1,689758,false,false,973,image-keyboard-response,20
true,8,0,1,0,true,q,false,true,0.0-2.0-0.33-0.299-3.299,0,0,0,81,false,stim,false,2,452.8999999994412,2,0,0,70539,task1,691717,false,false,976,image-keyboard-response,21
true,8,2,1,1,false,z,true,false,0.0-2.0-0.33-0.300-3.300,0,0,0,68,false,stim,false,0,591.7000000001863,2,0,2,70539,task1,693820,false,false,979,image-keyboard-response,22
true,8,1,1,1,true,z,false,true,0.0-2.0-0.33-0.301-3.301,0,0,0,90,false,stim,false,0,385.1000000005588,2,0,2,70539,task1,695717,false,false,982,image-keyboard-response,23
true,8,1,1,1,true,z,false,true,0.0-2.0-0.33-0.302-3.302,0,0,0,90,false,stim,false,0,490.1000000005588,2,0,2,70539,task1,697717,false,false,985,image-keyboard-response,24
true,8,0,1,0,true,q,false,true,0.0-2.0-0.33-0.303-3.303,0,0,0,81,false,stim,false,2,439.79999999981374,2,0,0,70539,task1,699669,false,false,988,image-keyboard-response,25
true,8,0,1,0,true,q,false,true,0.0-2.0-0.33-0.304-3.304,0,0,0,81,false,stim,false,1,500.09999999962747,2,0,1,70539,task1,701677,false,false,991,image-keyboard-response,26
true,8,0,1,0,true,q,false,true,0.0-2.0-0.33-0.305-3.305,0,0,0,81,false,stim,false,2,393.8999999994412,2,0,0,70539,task1,703581,false,false,994,image-keyboard-response,27
true,8,1,1,1,true,z,false,true,0.0-2.0-0.34-0.306-3.306,0,0,0,90,false,stim,false,0,576.3999999994412,2,0,2,70539,task1,705669,false,false,997,image-keyboard-response,28
true,8,1,1,1,true,z,false,true,0.0-2.0-0.34-0.307-3.307,0,0,0,90,false,stim,false,0,487.6000000005588,2,0,2,70539,task1,707669,false,false,1000,image-keyboard-response,29
true,8,0,1,0,true,q,false,true,0.0-2.0-0.34-0.308-3.308,0,0,0,81,false,stim,false,1,779.7000000001863,2,0,1,70539,task1,709965,false,false,1003,image-keyboard-response,30
true,8,0,1,0,true,q,false,true,0.0-2.0-0.34-0.309-3.309,0,0,0,81,false,stim,false,1,459.40000000037253,2,0,1,70539,task1,711934,false,false,1006,image-keyboard-response,31
true,8,0,1,0,true,q,false,true,0.0-2.0-0.34-0.310-3.310,0,0,0,81,false,stim,false,2,1506.6000000005588,2,0,0,70539,task1,714958,false,false,1009,image-keyboard-response,32
true,8,1,1,1,true,z,false,true,0.0-2.0-0.34-0.311-3.311,0,0,0,90,false,stim,false,0,528.6000000005588,2,0,2,70539,task1,716998,false,false,1012,image-keyboard-response,33
true,8,0,1,0,true,q,false,true,0.0-2.0-0.34-0.312-3.312,0,0,0,81,false,stim,false,2,583.7000000001863,2,0,0,70539,task1,719094,false,false,1015,image-keyboard-response,34
true,8,0,1,0,true,q,false,true,0.0-2.0-0.34-0.313-3.313,0,0,0,81,false,stim,false,2,435.0,2,0,0,70539,task1,721046,false,false,1018,image-keyboard-response,35
true,8,0,1,0,true,q,false,true,0.0-2.0-0.34-0.314-3.314,0,0,0,81,false,stim,false,1,624.9000000003725,2,0,1,70539,task1,723183,false,false,1021,image-keyboard-response,36
true,8,0,1,0,true,q,false,true,0.0-2.0-0.35-0.315-3.315,0,0,0,81,false,stim,false,2,567.5999999996275,2,0,0,70539,task1,725262,false,false,1024,image-keyboard-response,37
true,8,0,1,0,true,q,false,true,0.0-2.0-0.35-0.316-3.316,0,0,0,81,false,stim,false,1,528.0999999996275,2,0,1,70539,task1,727302,false,false,1027,image-keyboard-response,38
true,8,0,1,0,true,q,false,true,0.0-2.0-0.35-0.317-3.317,0,0,0,81,false,stim,false,1,449.0,2,0,1,70539,task1,729262,false,false,1030,image-keyboard-response,39
true,8,0,1,0,true,q,false,true,0.0-2.0-0.35-0.318-3.318,0,0,0,81,false,stim,false,1,502.70000000018626,2,0,1,70539,task1,731278,false,false,1033,image-keyboard-response,40
true,8,1,1,1,true,z,false,true,0.0-2.0-0.35-0.319-3.319,0,0,0,90,false,stim,false,0,412.40000000037253,2,0,2,70539,task1,733207,false,false,1036,image-keyboard-response,41
true,8,1,1,1,true,z,false,true,0.0-2.0-0.35-0.320-3.320,0,0,0,90,false,stim,false,0,623.7000000001863,2,0,2,70539,task1,735342,false,false,1039,image-keyboard-response,42
true,9,1,2,0,false,q,false,false,0.0-2.0-0.35-0.321-3.321,0,0,0,90,true,stim,true,1,506.79999999981374,2,0,2,70539,task1,737359,false,false,1042,image-keyboard-response,1
true,9,0,2,2,false,d,false,false,0.0-2.0-0.35-0.322-3.322,0,0,0,81,false,stim,true,0,442.70000000018626,2,0,0,70539,task1,739310,false,false,1045,image-keyboard-response,2
true,9,1,2,2,false,d,true,false,0.0-2.0-0.35-0.323-3.323,0,0,0,90,false,stim,false,0,473.40000000037253,2,0,0,70539,task1,741295,false,false,1048,image-keyboard-response,3
true,9,2,2,0,false,q,true,false,0.0-2.0-0.36-0.324-3.324,0,0,0,68,false,stim,false,1,913.2999999998137,2,0,2,70539,task1,743719,false,false,1051,image-keyboard-response,4
true,9,0,2,0,true,q,false,true,0.0-2.0-0.36-0.325-3.325,0,0,0,81,false,stim,false,1,462.40000000037253,2,0,2,70539,task1,745695,false,false,1054,image-keyboard-response,5
true,9,1,2,1,true,z,false,true,0.0-2.0-0.36-0.326-3.326,0,0,0,90,false,stim,false,0,567.8999999994412,2,0,1,70539,task1,747775,false,false,1057,image-keyboard-response,6
true,9,2,2,2,true,d,false,true,0.0-2.0-0.36-0.327-3.327,0,0,0,68,false,stim,false,0,471.29999999981374,2,0,0,70539,task1,749759,false,false,1060,image-keyboard-response,7
true,9,0,2,0,true,q,false,false,0.0-2.0-0.36-0.328-3.328,0,0,0,81,false,stim,false,1,435.79999999981374,2,0,2,70539,task1,751703,false,true,1063,image-keyboard-response,8
true,9,1,2,1,true,z,false,true,0.0-2.0-0.36-0.329-3.329,0,0,0,90,false,stim,false,0,417.8999999994412,2,0,1,70539,task1,753631,false,false,1066,image-keyboard-response,9
true,9,2,2,2,true,d,false,true,0.0-2.0-0.36-0.330-3.330,0,0,0,68,false,stim,false,0,452.40000000037253,2,0,0,70539,task1,755600,false,false,1069,image-keyboard-response,10
true,9,2,2,2,true,d,false,true,0.0-2.0-0.36-0.331-3.331,0,0,0,68,false,stim,false,0,875.4000000003725,2,0,0,70539,task1,757983,false,false,1072,image-keyboard-response,11
true,9,1,2,1,true,z,false,true,0.0-2.0-0.36-0.332-3.332,0,0,0,90,false,stim,false,0,552.5,2,0,1,70539,task1,760047,false,false,1075,image-keyboard-response,12
true,9,0,2,0,true,q,false,true,0.0-2.0-0.37-0.333-3.333,0,0,0,81,false,stim,false,1,440.20000000018626,2,0,2,70539,task1,761999,false,false,1078,image-keyboard-response,13
true,9,2,2,2,true,d,false,true,0.0-2.0-0.37-0.334-3.334,0,0,0,68,false,stim,false,0,576.2000000001863,2,0,0,70539,task1,764087,false,false,1081,image-keyboard-response,14
true,9,1,2,1,true,z,false,true,0.0-2.0-0.37-0.335-3.335,0,0,0,90,false,stim,false,0,576.7999999998137,2,0,1,70539,task1,766176,false,false,1084,image-keyboard-response,15
true,9,2,2,2,true,d,false,true,0.0-2.0-0.37-0.336-3.336,0,0,0,68,false,stim,false,0,564.8999999994412,2,0,0,70539,task1,768256,false,false,1087,image-keyboard-response,16
true,9,1,2,1,true,z,false,true,0.0-2.0-0.37-0.337-3.337,0,0,0,90,false,stim,false,0,564.0,2,0,1,70539,task1,770328,false,false,1090,image-keyboard-response,17
true,9,1,2,1,true,z,false,true,0.0-2.0-0.37-0.338-3.338,0,0,0,90,false,stim,false,0,515.5,2,0,1,70539,task1,772360,false,false,1093,image-keyboard-response,18
true,9,0,2,0,true,q,false,true,0.0-2.0-0.37-0.339-3.339,0,0,0,81,false,stim,false,1,614.5,2,0,2,70539,task1,774488,false,false,1096,image-keyboard-response,19
true,9,0,2,0,true,q,false,true,0.0-2.0-0.37-0.340-3.340,0,0,0,81,false,stim,false,1,481.3999999994412,2,0,2,70539,task1,776481,false,false,1099,image-keyboard-response,20
true,9,2,2,2,true,d,false,true,0.0-2.0-0.37-0.341-3.341,0,0,0,68,false,stim,false,0,656.2000000001863,2,0,0,70539,task1,778656,false,false,1102,image-keyboard-response,21
true,9,2,2,2,true,d,false,true,0.0-2.0-0.38-0.342-3.342,0,0,0,68,false,stim,false,0,608.0,2,0,0,70539,task1,780776,false,false,1105,image-keyboard-response,22
true,9,0,2,0,true,q,false,true,0.0-2.0-0.38-0.343-3.343,0,0,0,81,false,stim,false,1,608.5,2,0,2,70539,task1,782896,false,false,1108,image-keyboard-response,23
true,9,1,2,2,false,d,true,false,0.0-2.0-0.38-0.344-3.344,0,0,0,90,false,stim,false,0,536.2000000001863,2,0,0,70539,task1,784944,false,false,1111,image-keyboard-response,24
true,9,0,2,0,true,q,false,true,0.0-2.0-0.38-0.345-3.345,0,0,0,81,false,stim,false,1,848.5999999996275,2,0,2,70539,task1,787305,false,false,1114,image-keyboard-response,25
true,9,1,2,1,true,z,false,true,0.0-2.0-0.38-0.346-3.346,0,0,0,90,false,stim,false,0,617.5,2,0,1,70539,task1,789432,false,false,1117,image-keyboard-response,26
true,9,0,2,0,true,q,false,true,0.0-2.0-0.38-0.347-3.347,0,0,0,81,false,stim,false,1,599.7999999998137,2,0,2,70539,task1,791544,false,false,1120,image-keyboard-response,27
true,9,2,2,2,true,d,false,true,0.0-2.0-0.38-0.348-3.348,0,0,0,68,false,stim,false,0,616.0999999996275,2,0,0,70539,task1,793672,false,false,1123,image-keyboard-response,28
true,9,1,2,1,true,z,false,true,0.0-2.0-0.38-0.349-3.349,0,0,0,90,false,stim,false,0,513.4000000003725,2,0,1,70539,task1,795697,false,false,1126,image-keyboard-response,29
true,9,1,2,1,true,z,false,true,0.0-2.0-0.38-0.350-3.350,0,0,0,90,false,stim,false,0,529.0,2,0,1,70539,task1,797737,false,false,1129,image-keyboard-response,30
true,9,2,2,2,true,d,false,false,0.0-2.0-0.39-0.351-3.351,0,0,0,68,false,stim,false,0,672.7999999998137,2,0,0,70539,task1,799921,false,true,1132,image-keyboard-response,31
true,9,0,2,0,true,q,false,true,0.0-2.0-0.39-0.352-3.352,0,0,0,81,false,stim,false,1,600.5,2,0,2,70539,task1,802033,false,false,1135,image-keyboard-response,32
true,9,2,2,2,true,d,false,true,0.0-2.0-0.39-0.353-3.353,0,0,0,68,false,stim,false,0,520.1000000005588,2,0,0,70539,task1,804065,false,false,1138,image-keyboard-response,33
true,9,1,2,1,true,z,false,true,0.0-2.0-0.39-0.354-3.354,0,0,0,90,false,stim,false,0,608.2000000001863,2,0,1,70539,task1,806185,false,false,1141,image-keyboard-response,34
true,9,0,2,0,true,q,false,true,0.0-2.0-0.39-0.355-3.355,0,0,0,81,false,stim,false,1,640.5,2,0,2,70539,task1,808337,false,false,1144,image-keyboard-response,35
true,9,2,2,2,true,d,false,true,0.0-2.0-0.39-0.356-3.356,0,0,0,68,false,stim,false,0,828.5,2,0,0,70539,task1,810681,false,false,1147,image-keyboard-response,36
true,9,1,2,1,true,z,false,true,0.0-2.0-0.39-0.357-3.357,0,0,0,90,false,stim,false,0,800.3000000007451,2,0,1,70539,task1,812993,false,false,1150,image-keyboard-response,37
true,9,0,2,0,true,q,false,true,0.0-2.0-0.39-0.358-3.358,0,0,0,81,false,stim,false,1,608.0,2,0,2,70539,task1,815113,false,false,1153,image-keyboard-response,38
true,9,1,2,1,true,z,false,true,0.0-2.0-0.39-0.359-3.359,0,0,0,90,false,stim,false,0,642.0,2,0,1,70539,task1,817265,false,false,1156,image-keyboard-response,39
true,10,2,2,1,false,z,false,false,0.0-2.0-0.40-0.360-3.360,0,0,0,68,true,stim,true,2,551.9000000003725,2,0,0,70539,task1,819330,false,false,1159,image-keyboard-response,1
true,10,0,2,1,false,z,false,false,0.0-2.0-0.40-0.361-3.361,0,0,0,81,false,stim,true,0,559.5,2,0,2,70539,task1,821401,false,false,1162,image-keyboard-response,2
true,10,0,2,2,false,d,true,false,0.0-2.0-0.40-0.362-3.362,0,0,0,81,false,stim,false,1,744.3999999994412,2,0,1,70539,task1,823657,false,false,1165,image-keyboard-response,3
true,10,0,2,1,false,z,true,false,0.0-2.0-0.40-0.363-3.363,0,0,0,81,false,stim,false,2,776.3999999994412,2,0,0,70539,task1,825946,false,false,1168,image-keyboard-response,4
true,10,1,2,1,true,z,false,true,0.0-2.0-0.40-0.364-3.364,0,0,0,90,false,stim,false,0,728.0,2,0,2,70539,task1,828186,false,false,1171,image-keyboard-response,5
true,10,1,2,2,false,d,false,false,0.0-2.0-0.40-0.365-3.365,0,0,0,90,false,stim,true,1,690.4000000003725,2,0,1,70539,task1,830386,false,false,1174,image-keyboard-response,6
true,10,1,2,1,true,z,false,true,0.0-2.0-0.40-0.366-3.366,0,0,0,90,false,stim,false,2,607.5999999996275,2,0,0,70539,task1,832506,false,false,1177,image-keyboard-response,7
true,10,1,2,1,true,z,false,true,0.0-2.0-0.40-0.367-3.367,0,0,0,90,false,stim,false,0,696.8999999994412,2,0,2,70539,task1,834714,false,false,1180,image-keyboard-response,8
true,10,2,2,2,true,d,false,true,0.0-2.0-0.40-0.368-3.368,0,0,0,68,false,stim,false,1,583.5999999996275,2,0,1,70539,task1,836810,false,false,1183,image-keyboard-response,9
true,10,2,2,2,true,d,false,true,0.0-2.0-0.41-0.369-3.369,0,0,0,68,false,stim,false,1,516.9000000003725,2,0,1,70539,task1,838834,false,false,1186,image-keyboard-response,10
true,10,2,2,2,true,d,false,true,0.0-2.0-0.41-0.370-3.370,0,0,0,68,false,stim,false,1,532.0999999996275,2,0,1,70539,task1,840883,false,false,1189,image-keyboard-response,11
true,10,1,2,1,true,z,false,true,0.0-2.0-0.41-0.371-3.371,0,0,0,90,false,stim,false,2,407.5,2,0,0,70539,task1,842802,false,false,1192,image-keyboard-response,12
true,10,1,2,1,true,z,false,false,0.0-2.0-0.41-0.372-3.372,0,0,0,90,false,stim,false,0,631.7000000001863,2,0,2,70539,task1,844946,false,true,1195,image-keyboard-response,13
true,10,2,2,2,true,d,false,true,0.0-2.0-0.41-0.373-3.373,0,0,0,68,false,stim,false,1,879.7999999998137,2,0,1,70539,task1,847338,false,false,1198,image-keyboard-response,14
true,10,1,2,1,true,z,false,true,0.0-2.0-0.41-0.374-3.374,0,0,0,90,false,stim,false,2,536.7999999998137,2,0,0,70539,task1,849394,false,false,1201,image-keyboard-response,15
true,10,1,2,1,true,z,false,true,0.0-2.0-0.41-0.375-3.375,0,0,0,90,false,stim,false,0,688.8999999994412,2,0,2,70539,task1,851595,false,false,1204,image-keyboard-response,16
true,10,1,2,1,true,z,false,true,0.0-2.0-0.41-0.376-3.376,0,0,0,90,false,stim,false,2,551.0,2,0,0,70539,task1,853658,false,false,1207,image-keyboard-response,17
true,10,1,2,1,true,z,false,true,0.0-2.0-0.41-0.377-3.377,0,0,0,90,false,stim,false,0,615.1999999992549,2,0,2,70539,task1,855786,false,false,1210,image-keyboard-response,18
true,10,1,2,1,true,z,false,true,0.0-2.0-0.42-0.378-3.378,0,0,0,90,false,stim,false,0,728.7999999998137,2,0,2,70539,task1,858027,false,false,1213,image-keyboard-response,19
true,10,2,2,2,true,d,false,true,0.0-2.0-0.42-0.379-3.379,0,0,0,68,false,stim,false,1,1062.3999999994412,2,0,1,70539,task1,860603,false,false,1216,image-keyboard-response,20
true,10,1,2,1,true,z,false,true,0.0-2.0-0.42-0.380-3.380,0,0,0,90,false,stim,false,2,648.5999999996275,2,0,0,70539,task1,862764,false,false,1219,image-keyboard-response,21
true,10,2,2,2,true,d,false,true,0.0-2.0-0.42-0.381-3.381,0,0,0,68,false,stim,false,1,647.2000000001863,2,0,1,70539,task1,864923,false,false,1222,image-keyboard-response,22
true,10,1,2,1,true,z,false,false,0.0-2.0-0.42-0.382-3.382,0,0,0,90,false,stim,false,2,631.7000000001863,2,0,0,70539,task1,867067,false,true,1225,image-keyboard-response,23
true,10,2,2,2,true,d,false,true,0.0-2.0-0.42-0.383-3.383,0,0,0,68,false,stim,false,1,499.80000000074506,2,0,1,70539,task1,869075,false,false,1228,image-keyboard-response,24
true,10,1,2,1,true,z,false,true,0.0-2.0-0.42-0.384-3.384,0,0,0,90,false,stim,false,0,515.2000000001863,2,0,2,70539,task1,871107,false,false,1231,image-keyboard-response,25
true,10,1,2,1,true,z,false,true,0.0-2.0-0.42-0.385-3.385,0,0,0,90,false,stim,false,0,562.7999999998137,2,0,2,70539,task1,873180,false,false,1234,image-keyboard-response,26
true,10,1,2,1,true,z,false,true,0.0-2.0-0.42-0.386-3.386,0,0,0,90,false,stim,false,2,1146.5,2,0,0,70539,task1,875843,false,false,1237,image-keyboard-response,27
true,10,2,2,2,true,d,false,true,0.0-2.0-0.43-0.387-3.387,0,0,0,68,false,stim,false,1,518.5,2,0,1,70539,task1,877875,false,false,1240,image-keyboard-response,28
true,10,1,2,1,true,z,false,true,0.0-2.0-0.43-0.388-3.388,0,0,0,90,false,stim,false,0,800.8999999994412,2,0,2,70539,task1,880187,false,false,1243,image-keyboard-response,29
true,10,1,2,1,true,z,false,true,0.0-2.0-0.43-0.389-3.389,0,0,0,90,false,stim,false,2,480.0,2,0,0,70539,task1,882180,false,false,1246,image-keyboard-response,30
true,10,2,2,2,true,d,false,true,0.0-2.0-0.43-0.390-3.390,0,0,0,68,false,stim,false,1,565.3999999994412,2,0,1,70539,task1,884253,false,false,1249,image-keyboard-response,31
true,10,2,2,1,false,z,false,false,0.0-2.0-0.43-0.391-3.391,0,0,0,68,false,stim,true,2,682.7000000001863,2,0,0,70539,task1,886443,false,false,1252,image-keyboard-response,32
true,10,2,2,2,true,d,false,true,0.0-2.0-0.43-0.392-3.392,0,0,0,68,false,stim,false,1,800.2999999998137,2,0,1,70539,task1,888755,false,false,1255,image-keyboard-response,33
true,10,1,2,1,true,z,false,true,0.0-2.0-0.43-0.393-3.393,0,0,0,90,false,stim,false,2,453.1000000005588,2,0,0,70539,task1,890716,false,false,1258,image-keyboard-response,34
true,10,1,2,1,true,z,false,true,0.0-2.0-0.43-0.394-3.394,0,0,0,90,false,stim,false,0,475.0,2,0,2,70539,task1,892708,false,false,1261,image-keyboard-response,35
true,10,1,2,1,true,z,false,false,0.0-2.0-0.43-0.395-3.395,0,0,0,90,false,stim,false,0,489.70000000018626,2,0,2,70539,task1,894709,false,true,1264,image-keyboard-response,36
true,10,2,2,2,true,d,false,true,0.0-2.0-0.44-0.396-3.396,0,0,0,68,false,stim,false,1,934.8999999994412,2,0,1,70539,task1,897156,false,false,1267,image-keyboard-response,37
true,10,1,2,1,true,z,false,true,0.0-2.0-0.44-0.397-3.397,0,0,0,90,false,stim,false,2,710.3000000007451,2,0,0,70539,task1,899380,false,false,1270,image-keyboard-response,38
true,10,2,2,2,true,d,false,true,0.0-2.0-0.44-0.398-3.398,0,0,0,68,false,stim,false,1,674.8999999994412,2,0,1,70539,task1,901572,false,false,1273,image-keyboard-response,39
true,10,2,2,2,true,d,false,true,0.0-2.0-0.44-0.399-3.399,0,0,0,68,false,stim,false,1,705.0999999996275,2,0,1,70539,task1,903795,false,false,1276,image-keyboard-response,40
true,10,1,2,1,true,z,false,true,0.0-2.0-0.44-0.400-3.400,0,0,0,90,false,stim,false,0,821.5,2,0,2,70539,task1,906133,false,false,1279,image-keyboard-response,41
true,11,1,1,2,false,d,false,false,0.0-2.0-0.44-0.401-3.401,0,0,0,90,true,stim,true,1,476.20000000018626,2,0,2,70539,task1,908124,false,false,1282,image-keyboard-response,1
true,11,2,1,2,true,d,false,true,0.0-2.0-0.44-0.402-3.402,0,0,0,68,false,stim,false,1,823.9000000003725,2,0,0,70539,task1,910461,false,false,1285,image-keyboard-response,2
true,11,1,1,2,false,d,false,true,0.0-2.0-0.44-0.403-3.403,0,0,0,90,false,stim,true,1,735.7999999998137,2,0,2,70539,task1,912709,false,true,1288,image-keyboard-response,3
true,11,1,1,2,false,d,false,false,0.0-2.0-0.44-0.404-3.404,0,0,0,90,false,stim,true,1,575.7000000001863,2,0,0,70539,task1,914796,false,false,1291,image-keyboard-response,4
true,11,1,1,2,false,d,false,false,0.0-2.0-0.45-0.405-3.405,0,0,0,90,false,stim,true,1,515.0999999996275,2,0,2,70539,task1,916821,false,false,1294,image-keyboard-response,5
true,11,1,1,2,false,d,false,false,0.0-2.0-0.45-0.406-3.406,0,0,0,90,false,stim,true,1,519.0,2,0,2,70539,task1,918853,false,false,1297,image-keyboard-response,6
true,11,2,1,2,true,d,false,true,0.0-2.0-0.45-0.407-3.407,0,0,0,68,false,stim,false,1,631.7000000001863,2,0,0,70539,task1,920997,false,false,1300,image-keyboard-response,7
true,11,2,1,2,true,d,false,true,0.0-2.0-0.45-0.408-3.408,0,0,0,68,false,stim,false,1,463.09999999962747,2,0,0,70539,task1,922981,false,false,1303,image-keyboard-response,8
true,11,0,1,2,false,d,true,false,0.0-2.0-0.45-0.409-3.409,0,0,0,81,false,stim,false,1,575.5,2,0,2,70539,task1,925068,false,false,1306,image-keyboard-response,9
true,11,0,1,0,true,q,false,true,0.0-2.0-0.45-0.410-3.410,0,0,0,81,false,stim,false,2,937.4000000003725,2,0,1,70539,task1,927518,false,false,1309,image-keyboard-response,10
true,11,0,1,0,true,q,false,true,0.0-2.0-0.45-0.411-3.411,0,0,0,81,false,stim,false,2,531.2000000001863,2,0,1,70539,task1,929557,false,false,1312,image-keyboard-response,11
true,11,2,1,2,true,d,false,true,0.0-2.0-0.45-0.412-3.412,0,0,0,68,false,stim,false,1,610.7999999998137,2,0,0,70539,task1,931685,false,false,1315,image-keyboard-response,12
true,11,0,1,0,true,q,false,true,0.0-2.0-0.45-0.413-3.413,0,0,0,81,false,stim,false,2,656.2000000001863,2,0,1,70539,task1,933853,false,false,1318,image-keyboard-response,13
true,11,0,1,0,true,q,false,true,0.0-2.0-0.46-0.414-3.414,0,0,0,81,false,stim,false,2,649.6000000005588,2,0,1,70539,task1,936014,false,false,1321,image-keyboard-response,14
true,11,0,1,0,true,q,false,true,0.0-2.0-0.46-0.415-3.415,0,0,0,81,false,stim,false,2,382.59999999962747,2,0,1,70539,task1,937910,false,false,1324,image-keyboard-response,15
true,11,2,1,2,true,d,false,true,0.0-2.0-0.46-0.416-3.416,0,0,0,68,false,stim,false,1,423.20000000018626,2,0,0,70539,task1,939845,false,false,1327,image-keyboard-response,16
true,11,2,1,2,true,d,false,true,0.0-2.0-0.46-0.417-3.417,0,0,0,68,false,stim,false,1,409.0,2,0,2,70539,task1,941765,false,false,1330,image-keyboard-response,17
true,11,2,1,2,true,d,false,true,0.0-2.0-0.46-0.418-3.418,0,0,0,68,false,stim,false,1,448.20000000018626,2,0,2,70539,task1,943726,false,false,1333,image-keyboard-response,18
true,11,2,1,2,true,d,false,true,0.0-2.0-0.46-0.419-3.419,0,0,0,68,false,stim,false,1,1023.0999999996275,2,0,0,70539,task1,946261,false,false,1336,image-keyboard-response,19
true,11,2,1,2,true,d,false,true,0.0-2.0-0.46-0.420-3.420,0,0,0,68,false,stim,false,1,413.29999999981374,2,0,0,70539,task1,948190,false,false,1339,image-keyboard-response,20
true,11,0,1,0,true,q,false,true,0.0-2.0-0.46-0.421-3.421,0,0,0,81,false,stim,false,2,508.40000000037253,2,0,1,70539,task1,950206,false,false,1342,image-keyboard-response,21
true,11,2,1,2,true,d,false,true,0.0-2.0-0.46-0.422-3.422,0,0,0,68,false,stim,false,1,447.8999999994412,2,0,2,70539,task1,952166,false,false,1345,image-keyboard-response,22
true,11,2,1,2,true,d,false,true,0.0-2.0-0.47-0.423-3.423,0,0,0,68,false,stim,false,1,1270.2000000001863,2,0,0,70539,task1,954950,false,false,1348,image-keyboard-response,23
true,11,2,1,2,true,d,false,true,0.0-2.0-0.47-0.424-3.424,0,0,0,68,false,stim,false,1,686.5,2,0,2,70539,task1,957150,false,false,1351,image-keyboard-response,24
true,11,2,1,2,true,d,false,true,0.0-2.0-0.47-0.425-3.425,0,0,0,68,false,stim,false,1,435.09999999962747,2,0,0,70539,task1,959094,false,false,1354,image-keyboard-response,25
true,11,2,1,2,true,d,false,true,0.0-2.0-0.47-0.426-3.426,0,0,0,68,false,stim,false,1,450.70000000018626,2,0,0,70539,task1,961054,false,false,1357,image-keyboard-response,26
true,11,2,1,2,true,d,false,false,0.0-2.0-0.47-0.427-3.427,0,0,0,68,false,stim,false,1,696.5999999996275,2,0,2,70539,task1,963262,false,true,1360,image-keyboard-response,27
true,11,2,1,2,true,d,false,false,0.0-2.0-0.47-0.428-3.428,0,0,0,68,false,stim,false,1,563.2999999998137,2,0,2,70539,task1,965342,false,true,1363,image-keyboard-response,28
true,11,0,1,0,true,q,false,true,0.0-2.0-0.47-0.429-3.429,0,0,0,81,false,stim,false,2,613.1000000005588,2,0,1,70539,task1,967463,false,false,1366,image-keyboard-response,29
true,11,0,1,0,true,q,false,true,0.0-2.0-0.47-0.430-3.430,0,0,0,81,false,stim,false,2,548.9000000003725,2,0,1,70539,task1,969519,false,false,1369,image-keyboard-response,30
true,11,0,1,0,true,q,false,true,0.0-2.0-0.47-0.431-3.431,0,0,0,81,false,stim,false,2,510.70000000018626,2,0,1,70539,task1,971542,false,false,1372,image-keyboard-response,31
true,11,2,1,2,true,d,false,true,0.0-2.0-0.48-0.432-3.432,0,0,0,68,false,stim,false,1,604.1000000005588,2,0,0,70539,task1,973655,false,false,1375,image-keyboard-response,32
true,11,2,1,0,false,q,false,false,0.0-2.0-0.48-0.433-3.433,0,0,0,68,false,stim,true,2,438.5,2,0,1,70539,task1,975607,false,false,1378,image-keyboard-response,33
true,11,0,1,0,true,q,false,true,0.0-2.0-0.48-0.434-3.434,0,0,0,81,false,stim,false,2,495.79999999981374,2,0,1,70539,task1,977615,false,false,1381,image-keyboard-response,34
true,11,2,1,2,true,d,false,true,0.0-2.0-0.48-0.435-3.435,0,0,0,68,false,stim,false,1,785.2999999998137,2,0,0,70539,task1,979912,false,false,1384,image-keyboard-response,35
true,11,2,1,2,true,d,false,true,0.0-2.0-0.48-0.436-3.436,0,0,0,68,false,stim,false,1,766.7999999998137,2,0,2,70539,task1,982191,false,false,1387,image-keyboard-response,36
true,11,2,1,2,true,d,false,true,0.0-2.0-0.48-0.437-3.437,0,0,0,68,false,stim,false,1,591.7000000001863,2,0,2,70539,task1,984295,false,false,1390,image-keyboard-response,37
true,11,0,1,0,true,q,false,true,0.0-2.0-0.48-0.438-3.438,0,0,0,81,false,stim,false,2,759.8999999994412,2,0,1,70539,task1,986567,false,false,1393,image-keyboard-response,38
true,11,2,1,2,true,d,false,true,0.0-2.0-0.48-0.439-3.439,0,0,0,68,false,stim,false,1,847.4000000003725,2,0,2,70539,task1,988927,false,false,1396,image-keyboard-response,39
true,11,2,1,2,true,d,false,true,0.0-2.0-0.48-0.440-3.440,0,0,0,68,false,stim,false,1,923.5,2,0,0,70539,task1,991368,false,false,1399,image-keyboard-response,40
true,11,0,1,0,true,q,false,true,0.0-2.0-0.49-0.441-3.441,0,0,0,81,false,stim,false,2,619.7000000001863,2,0,1,70539,task1,993503,false,false,1402,image-keyboard-response,41
true,11,2,1,2,true,d,false,true,0.0-2.0-0.49-0.442-3.442,0,0,0,68,false,stim,false,1,614.7000000001863,2,0,2,70539,task1,995631,false,false,1405,image-keyboard-response,42
true,12,2,2,1,false,z,false,true,0.0-2.0-0.49-0.443-3.443,0,0,0,68,true,stim,true,2,770.2000000001863,2,0,0,70539,task1,997911,false,true,1408,image-keyboard-response,1
true,12,0,2,2,false,d,false,false,0.0-2.0-0.49-0.444-3.444,0,0,0,81,false,stim,true,0,620.5999999996275,2,0,1,70539,task1,1000039,false,false,1411,image-keyboard-response,2
true,12,2,2,1,false,z,false,false,0.0-2.0-0.49-0.445-3.445,0,0,0,68,false,stim,true,2,672.6999999992549,2,0,0,70539,task1,1002224,false,false,1414,image-keyboard-response,3
true,12,0,2,2,false,d,false,true,0.0-2.0-0.49-0.446-3.446,0,0,0,81,false,stim,true,0,774.9000000003725,2,0,1,70539,task1,1004511,false,true,1417,image-keyboard-response,4
true,12,2,2,1,false,z,false,false,0.0-2.0-0.49-0.447-3.447,0,0,0,68,false,stim,true,2,528.3999999994412,2,0,2,70539,task1,1006552,false,false,1420,image-keyboard-response,5
true,12,2,2,1,false,z,false,false,0.0-2.0-0.49-0.448-3.448,0,0,0,68,false,stim,true,2,410.70000000018626,2,0,0,70539,task1,1008480,false,false,1423,image-keyboard-response,6
true,12,1,2,1,true,z,false,true,0.0-2.0-0.49-0.449-3.449,0,0,0,90,false,stim,false,2,647.8000000007451,2,0,2,70539,task1,1010640,false,false,1426,image-keyboard-response,7
true,12,1,2,1,true,z,false,false,0.0-2.0-0.50-0.450-3.450,0,0,0,90,false,stim,false,2,585.2000000001863,2,0,0,70539,task1,1012743,false,true,1429,image-keyboard-response,8
true,12,1,2,1,true,z,false,true,0.0-2.0-0.50-0.451-3.451,0,0,0,90,false,stim,false,2,664.2999999998137,2,0,2,70539,task1,1014920,false,false,1432,image-keyboard-response,9
true,12,0,2,2,false,d,false,false,0.0-2.0-0.50-0.452-3.452,0,0,0,81,false,stim,true,0,897.2999999998137,2,0,1,70539,task1,1017328,false,false,1435,image-keyboard-response,10
true,12,0,2,1,false,z,true,false,0.0-2.0-0.50-0.453-3.453,0,0,0,81,false,stim,false,2,703.5,2,0,0,70539,task1,1019544,false,false,1438,image-keyboard-response,11
true,12,2,2,1,false,z,false,false,0.0-2.0-0.50-0.454-3.454,0,0,0,68,false,stim,true,2,1639.8999999994412,2,0,2,70539,task1,1022696,false,false,1441,image-keyboard-response,12
true,12,2,2,1,false,z,false,false,0.0-2.0-0.50-0.455-3.455,0,0,0,68,false,stim,true,2,711.7000000001863,2,0,0,70539,task1,1024921,false,false,1444,image-keyboard-response,13
true,12,1,2,1,true,z,false,true,0.0-2.0-0.50-0.456-3.456,0,0,0,90,false,stim,false,2,910.8999999994412,2,0,2,70539,task1,1027344,false,false,1447,image-keyboard-response,14
true,12,1,2,2,false,d,true,false,0.0-2.0-0.50-0.457-3.457,0,0,0,90,false,stim,false,0,543.7999999998137,2,0,1,70539,task1,1029400,false,false,1450,image-keyboard-response,15
true,12,1,2,2,false,d,true,false,0.0-2.0-0.50-0.458-3.458,0,0,0,90,false,stim,false,0,591.7999999998137,2,0,1,70539,task1,1031504,false,false,1453,image-keyboard-response,16
true,12,2,2,2,true,d,false,true,0.0-2.0-0.51-0.459-3.459,0,0,0,68,false,stim,false,0,607.2999999998137,2,0,1,70539,task1,1033625,false,false,1456,image-keyboard-response,17
true,12,1,2,1,true,z,false,true,0.0-2.0-0.51-0.460-3.460,0,0,0,90,false,stim,false,2,940.0,2,0,2,70539,task1,1036073,false,false,1459,image-keyboard-response,18
true,12,1,2,1,true,z,false,true,0.0-2.0-0.51-0.461-3.461,0,0,0,90,false,stim,false,2,502.3999999994412,2,0,0,70539,task1,1038089,false,false,1462,image-keyboard-response,19
true,12,1,2,1,true,z,false,true,0.0-2.0-0.51-0.462-3.462,0,0,0,90,false,stim,false,2,854.9000000003725,2,0,0,70539,task1,1040457,false,false,1465,image-keyboard-response,20
true,12,1,2,1,true,z,false,true,0.0-2.0-0.51-0.463-3.463,0,0,0,90,false,stim,false,2,487.8999999994412,2,0,0,70539,task1,1042457,false,false,1468,image-keyboard-response,21
true,12,1,2,1,true,z,false,true,0.0-2.0-0.51-0.464-3.464,0,0,0,90,false,stim,false,2,839.6999999992549,2,0,2,70539,task1,1044809,false,false,1471,image-keyboard-response,22
true,12,1,2,2,false,d,true,false,0.0-2.0-0.51-0.465-3.465,0,0,0,90,false,stim,false,0,425.0,2,0,1,70539,task1,1046746,false,false,1474,image-keyboard-response,23
true,12,2,2,2,true,d,false,true,0.0-2.0-0.51-0.466-3.466,0,0,0,68,false,stim,false,0,462.29999999981374,2,0,1,70539,task1,1048721,false,false,1477,image-keyboard-response,24
true,12,1,2,1,true,z,false,true,0.0-2.0-0.51-0.467-3.467,0,0,0,90,false,stim,false,2,474.5,2,0,2,70539,task1,1050713,false,false,1480,image-keyboard-response,25
true,12,1,2,1,true,z,false,true,0.0-2.0-0.52-0.468-3.468,0,0,0,90,false,stim,false,2,594.8000000007451,2,0,0,70539,task1,1052825,false,false,1483,image-keyboard-response,26
true,12,1,2,1,true,z,false,true,0.0-2.0-0.52-0.469-3.469,0,0,0,90,false,stim,false,2,1192.8999999994412,2,0,2,70539,task1,1055530,false,false,1486,image-keyboard-response,27
true,12,1,2,1,true,z,false,true,0.0-2.0-0.52-0.470-3.470,0,0,0,90,false,stim,false,2,888.4000000003725,2,0,0,70539,task1,1057930,false,false,1489,image-keyboard-response,28
true,12,1,2,1,true,z,false,true,0.0-2.0-0.52-0.471-3.471,0,0,0,90,false,stim,false,2,624.2000000001863,2,0,2,70539,task1,1060066,false,false,1492,image-keyboard-response,29
true,12,2,2,2,true,d,false,true,0.0-2.0-0.52-0.472-3.472,0,0,0,68,false,stim,false,0,631.9000000003725,2,0,1,70539,task1,1062210,false,false,1495,image-keyboard-response,30
true,12,1,2,1,true,z,false,true,0.0-2.0-0.52-0.473-3.473,0,0,0,90,false,stim,false,2,601.7999999998137,2,0,2,70539,task1,1064321,false,false,1498,image-keyboard-response,31
true,12,2,2,2,true,d,false,true,0.0-2.0-0.52-0.474-3.474,0,0,0,68,false,stim,false,0,700.0999999996275,2,0,1,70539,task1,1066538,false,false,1501,image-keyboard-response,32
true,12,2,2,2,true,d,false,false,0.0-2.0-0.52-0.475-3.475,0,0,0,68,false,stim,false,0,648.3000000007451,2,0,1,70539,task1,1068699,false,true,1504,image-keyboard-response,33
true,12,1,2,1,true,z,false,false,0.0-2.0-0.52-0.476-3.476,0,0,0,90,false,stim,false,2,828.2000000001863,2,0,0,70539,task1,1071042,false,true,1507,image-keyboard-response,34
true,12,1,2,1,true,z,false,true,0.0-2.0-0.53-0.477-3.477,0,0,0,90,false,stim,false,2,783.2999999998137,2,0,2,70539,task1,1073338,false,false,1510,image-keyboard-response,35
true,12,2,2,2,true,d,false,true,0.0-2.0-0.53-0.478-3.478,0,0,0,68,false,stim,false,0,561.5,2,0,1,70539,task1,1075410,false,false,1513,image-keyboard-response,36
true,12,2,2,2,true,d,false,true,0.0-2.0-0.53-0.479-3.479,0,0,0,68,false,stim,false,0,491.90000000037253,2,0,1,70539,task1,1077418,false,false,1516,image-keyboard-response,37
true,12,2,2,2,true,d,false,true,0.0-2.0-0.53-0.480-3.480,0,0,0,68,false,stim,false,0,565.5,2,0,1,70539,task1,1079498,false,false,1519,image-keyboard-response,38
true,12,1,2,1,true,z,false,true,0.0-2.0-0.53-0.481-3.481,0,0,0,90,false,stim,false,2,755.6999999992549,2,0,0,70539,task1,1081762,false,false,1522,image-keyboard-response,39
true,12,1,2,1,true,z,false,true,0.0-2.0-0.53-0.482-3.482,0,0,0,90,false,stim,false,2,515.8999999994412,2,0,2,70539,task1,1083794,false,false,1525,image-keyboard-response,40
true,12,1,2,1,true,z,false,true,0.0-2.0-0.53-0.483-3.483,0,0,0,90,false,stim,false,2,519.3999999994412,2,0,0,70539,task1,1085827,false,false,1528,image-keyboard-response,41
true,12,1,2,1,true,z,false,true,0.0-2.0-0.53-0.484-3.484,0,0,0,90,false,stim,false,2,534.7999999998137,2,0,2,70539,task1,1087874,false,false,1531,image-keyboard-response,42
true,12,1,2,1,true,z,false,true,0.0-2.0-0.53-0.485-3.485,0,0,0,90,false,stim,false,2,392.79999999981374,2,0,0,70539,task1,1089779,false,false,1534,image-keyboard-response,43
true,13,2,2,1,false,z,false,false,0.0-2.0-0.54-0.486-3.486,0,0,0,68,true,stim,true,2,422.40000000037253,2,0,1,70539,task1,1091715,false,false,1537,image-keyboard-response,1
true,13,1,2,0,false,q,false,false,0.0-2.0-0.54-0.487-3.487,0,0,0,90,false,stim,true,1,432.90000000037253,2,0,2,70539,task1,1093659,false,false,1540,image-keyboard-response,2
true,13,1,2,2,false,d,false,true,0.0-2.0-0.54-0.488-3.488,0,0,0,90,false,stim,true,1,413.70000000018626,2,0,0,70539,task1,1095587,false,true,1543,image-keyboard-response,3
true,13,2,2,1,false,z,false,false,0.0-2.0-0.54-0.489-3.489,0,0,0,68,false,stim,true,2,519.1000000005588,2,0,1,70539,task1,1097618,false,false,1546,image-keyboard-response,4
true,13,1,2,2,false,d,false,false,0.0-2.0-0.54-0.490-3.490,0,0,0,90,false,stim,true,1,488.0,2,0,0,70539,task1,1099619,false,false,1549,image-keyboard-response,5
true,13,2,2,1,false,z,false,false,0.0-2.0-0.54-0.491-3.491,0,0,0,68,false,stim,true,2,591.8999999994412,2,0,1,70539,task1,1101723,false,false,1552,image-keyboard-response,6
true,13,1,2,0,false,q,false,false,0.0-2.0-0.54-0.492-3.492,0,0,0,90,false,stim,true,1,575.3999999994412,2,0,2,70539,task1,1103811,false,false,1555,image-keyboard-response,7
true,13,0,2,0,true,q,false,true,0.0-2.0-0.54-0.493-3.493,0,0,0,81,false,stim,false,1,438.40000000037253,2,0,2,70539,task1,1105763,false,false,1558,image-keyboard-response,8
true,13,0,2,2,false,d,true,false,0.0-2.0-0.54-0.494-3.494,0,0,0,81,false,stim,false,1,535.4000000003725,2,0,0,70539,task1,1107811,false,false,1561,image-keyboard-response,9
true,13,0,2,0,true,q,false,true,0.0-2.0-0.55-0.495-3.495,0,0,0,81,false,stim,false,1,559.8999999994412,2,0,2,70539,task1,1109883,false,false,1564,image-keyboard-response,10
true,13,0,2,1,false,z,true,false,0.0-2.0-0.55-0.496-3.496,0,0,0,81,false,stim,false,2,416.09999999962747,2,0,1,70539,task1,1111812,false,false,1567,image-keyboard-response,11
true,13,1,2,2,false,d,false,false,0.0-2.0-0.55-0.497-3.497,0,0,0,90,false,stim,true,1,876.2000000001863,2,0,0,70539,task1,1114203,false,false,1570,image-keyboard-response,12
true,13,0,2,0,true,q,false,true,0.0-2.0-0.55-0.498-3.498,0,0,0,81,false,stim,false,1,617.2000000001863,2,0,2,70539,task1,1116332,false,false,1573,image-keyboard-response,13
true,13,1,2,1,true,z,false,true,0.0-2.0-0.55-0.499-3.499,0,0,0,90,false,stim,false,2,557.0,2,0,1,70539,task1,1118404,false,false,1576,image-keyboard-response,14
true,13,2,2,2,true,d,false,true,0.0-2.0-0.55-0.500-3.500,0,0,0,68,false,stim,false,1,447.3999999994412,2,0,0,70539,task1,1120364,false,false,1579,image-keyboard-response,15
true,13,0,2,0,true,q,false,true,0.0-2.0-0.55-0.501-3.501,0,0,0,81,false,stim,false,1,463.29999999981374,2,0,2,70539,task1,1122340,false,false,1582,image-keyboard-response,16
true,13,2,2,2,true,d,false,false,0.0-2.0-0.55-0.502-3.502,0,0,0,68,false,stim,false,1,555.3999999994412,2,0,0,70539,task1,1124412,false,true,1585,image-keyboard-response,17
true,13,1,2,1,true,z,false,true,0.0-2.0-0.55-0.503-3.503,0,0,0,90,false,stim,false,2,471.3999999994412,2,0,1,70539,task1,1126396,false,false,1588,image-keyboard-response,18
true,13,2,2,2,true,d,false,true,0.0-2.0-0.56-0.504-3.504,0,0,0,68,false,stim,false,1,532.0999999996275,2,0,0,70539,task1,1128436,false,false,1591,image-keyboard-response,19
true,13,2,2,2,true,d,false,true,0.0-2.0-0.56-0.505-3.505,0,0,0,68,false,stim,false,1,528.9000000003725,2,0,0,70539,task1,1130476,false,false,1594,image-keyboard-response,20
true,13,0,2,0,true,q,false,true,0.0-2.0-0.56-0.506-3.506,0,0,0,81,false,stim,false,1,769.7000000001863,2,0,2,70539,task1,1132763,false,false,1597,image-keyboard-response,21
true,13,1,2,1,true,z,false,true,0.0-2.0-0.56-0.507-3.507,0,0,0,90,false,stim,false,2,728.5,2,0,1,70539,task1,1135003,false,false,1600,image-keyboard-response,22
true,13,0,2,0,true,q,false,true,0.0-2.0-0.56-0.508-3.508,0,0,0,81,false,stim,false,1,592.5,2,0,2,70539,task1,1137116,false,false,1603,image-keyboard-response,23
true,13,1,2,1,true,z,false,true,0.0-2.0-0.56-0.509-3.509,0,0,0,90,false,stim,false,2,1047.5,2,0,1,70539,task1,1139677,false,false,1606,image-keyboard-response,24
true,13,2,2,2,true,d,false,true,0.0-2.0-0.56-0.510-3.510,0,0,0,68,false,stim,false,1,442.5,2,0,0,70539,task1,1141629,false,false,1609,image-keyboard-response,25
true,13,1,2,1,true,z,false,true,0.0-2.0-0.56-0.511-3.511,0,0,0,90,false,stim,false,2,958.4000000003725,2,0,1,70539,task1,1144101,false,false,1612,image-keyboard-response,26
true,13,0,2,0,true,q,false,true,0.0-2.0-0.56-0.512-3.512,0,0,0,81,false,stim,false,1,621.5,2,0,2,70539,task1,1146237,false,false,1615,image-keyboard-response,27
true,13,2,2,2,true,d,false,true,0.0-2.0-0.57-0.513-3.513,0,0,0,68,false,stim,false,1,772.9000000003725,2,0,0,70539,task1,1148525,false,false,1618,image-keyboard-response,28
true,13,1,2,1,true,z,false,true,0.0-2.0-0.57-0.514-3.514,0,0,0,90,false,stim,false,2,1514.2999999998137,2,0,1,70539,task1,1151557,false,false,1621,image-keyboard-response,29
true,13,2,2,2,true,d,false,true,0.0-2.0-0.57-0.515-3.515,0,0,0,68,false,stim,false,1,636.0999999996275,2,0,0,70539,task1,1153701,false,false,1624,image-keyboard-response,30
true,13,1,2,1,true,z,false,true,0.0-2.0-0.57-0.516-3.516,0,0,0,90,false,stim,false,2,855.3999999994412,2,0,1,70539,task1,1156070,false,false,1627,image-keyboard-response,31
true,13,2,2,2,true,d,false,true,0.0-2.0-0.57-0.517-3.517,0,0,0,68,false,stim,false,1,820.9000000003725,2,0,0,70539,task1,1158405,false,false,1630,image-keyboard-response,32
true,13,0,2,0,true,q,false,false,0.0-2.0-0.57-0.518-3.518,0,0,0,81,false,stim,false,1,447.79999999981374,2,0,2,70539,task1,1160365,false,true,1633,image-keyboard-response,33
true,13,0,2,0,true,q,false,false,0.0-2.0-0.57-0.519-3.519,0,0,0,81,false,stim,false,1,503.6000000005588,2,0,2,70539,task1,1162381,false,true,1636,image-keyboard-response,34
true,13,1,2,1,true,z,false,true,0.0-2.0-0.57-0.520-3.520,0,0,0,90,false,stim,false,2,569.2999999998137,2,0,1,70539,task1,1164461,false,false,1639,image-keyboard-response,35
true,13,0,2,0,true,q,false,false,0.0-2.0-0.57-0.521-3.521,0,0,0,81,false,stim,false,1,639.5999999996275,2,0,2,70539,task1,1166614,false,true,1642,image-keyboard-response,36
true,13,2,2,2,true,d,false,false,0.0-2.0-0.58-0.522-3.522,0,0,0,68,false,stim,false,1,622.0,2,0,0,70539,task1,1168749,false,true,1645,image-keyboard-response,37
true,13,1,2,0,false,q,false,false,0.0-2.0-0.58-0.523-3.523,0,0,0,90,false,stim,true,1,594.5,2,0,2,70539,task1,1170861,false,false,1648,image-keyboard-response,38
true,13,1,2,1,true,z,false,true,0.0-2.0-0.58-0.524-3.524,0,0,0,90,false,stim,false,2,719.3999999994412,2,0,1,70539,task1,1173094,false,false,1651,image-keyboard-response,39
true,13,1,2,1,true,z,false,true,0.0-2.0-0.58-0.525-3.525,0,0,0,90,false,stim,false,2,645.7000000001863,2,1,1,70539,task1,1175253,false,false,1654,image-keyboard-response,40
true,13,2,2,0,false,q,true,false,0.0-2.0-0.58-0.526-3.526,0,0,0,68,false,stim,false,1,796.0999999996275,2,1,2,70539,task1,1177566,false,false,1657,image-keyboard-response,41
true,13,1,2,2,false,d,false,false,0.0-2.0-0.58-0.527-3.527,0,0,0,90,false,stim,true,1,1303.300000000745,2,1,0,70539,task1,1180382,false,false,1660,image-keyboard-response,42
true,13,0,2,2,false,d,true,false,0.0-2.0-0.58-0.528-3.528,0,0,0,81,false,stim,false,1,886.0,2,1,0,70539,task1,1182782,false,false,1663,image-keyboard-response,43
true,13,1,2,0,false,q,false,false,0.0-2.0-0.58-0.529-3.529,0,0,0,90,false,stim,true,1,823.7000000001863,2,1,2,70539,task1,1185118,false,false,1666,image-keyboard-response,44
true,14,0,0,1,false,z,true,false,0.0-2.0-0.58-0.530-3.530,1,1,1,81,true,stim,false,1,627.8000000007451,2,1,1,70539,task1,1294874,false,false,1776,image-keyboard-response,1
true,14,0,0,2,false,d,true,false,0.0-2.0-0.59-0.531-3.531,1,1,1,81,false,stim,false,2,606.5999999996275,2,1,0,70539,task1,1296994,false,false,1779,image-keyboard-response,2
true,14,0,0,0,true,q,false,true,0.0-2.0-0.59-0.532-3.532,1,1,1,81,false,stim,false,0,444.79999999981374,2,1,2,70539,task1,1298954,false,false,1782,image-keyboard-response,3
true,14,1,0,2,false,d,true,false,0.0-2.0-0.59-0.533-3.533,1,1,1,90,false,stim,false,2,548.2000000001863,2,1,0,70539,task1,1301018,false,false,1785,image-keyboard-response,4
true,14,1,0,2,false,d,true,false,0.0-2.0-0.59-0.534-3.534,1,1,1,90,false,stim,false,2,418.6000000005588,2,1,0,70539,task1,1302954,false,false,1788,image-keyboard-response,5
true,14,0,0,0,true,q,false,true,0.0-2.0-0.59-0.535-3.535,1,1,1,81,false,stim,false,0,515.1000000005588,2,1,2,70539,task1,1304986,false,false,1791,image-keyboard-response,6
true,14,0,0,0,true,q,false,false,0.0-2.0-0.59-0.536-3.536,1,1,1,81,false,stim,false,0,549.4000000003725,2,1,2,70539,task1,1307050,false,true,1794,image-keyboard-response,7
true,14,2,0,1,false,z,true,false,0.0-2.0-0.59-0.537-3.537,1,1,1,68,false,stim,false,1,560.3999999994412,2,1,1,70539,task1,1309122,false,false,1797,image-keyboard-response,8
true,14,1,0,1,true,z,false,true,0.0-2.0-0.59-0.538-3.538,1,1,1,90,false,stim,false,1,402.09999999962747,2,0,1,70539,task1,1311042,false,false,1800,image-keyboard-response,9
true,14,1,0,1,true,z,false,true,0.0-2.0-0.59-0.539-3.539,1,1,1,90,false,stim,false,1,451.0,2,0,1,70539,task1,1313018,false,false,1803,image-keyboard-response,10
true,14,0,0,0,true,q,false,true,0.0-2.0-0.60-0.540-3.540,1,1,1,81,false,stim,false,0,482.69999999925494,2,0,2,70539,task1,1315019,false,false,1806,image-keyboard-response,11
true,14,0,0,1,false,z,true,false,0.0-2.0-0.60-0.541-3.541,1,1,1,81,false,stim,false,1,468.19999999925494,2,0,1,70539,task1,1317002,false,false,1809,image-keyboard-response,12
true,14,1,0,1,true,z,false,true,0.0-2.0-0.60-0.542-3.542,1,1,1,90,false,stim,false,1,431.20000000018626,2,0,1,70539,task1,1318947,false,false,1812,image-keyboard-response,13
true,15,2,1,0,false,q,false,false,0.0-2.0-0.60-0.543-3.543,0,0,0,68,true,stim,true,2,428.1000000005588,2,0,0,70539,task1,1320883,false,false,1815,image-keyboard-response,1
true,15,0,1,2,false,d,false,false,0.0-2.0-0.60-0.544-3.544,0,0,0,81,false,stim,true,0,511.40000000037253,2,0,2,70539,task1,1322907,false,false,1818,image-keyboard-response,2
true,15,1,1,0,false,q,false,false,0.0-2.0-0.60-0.545-3.545,0,0,0,90,false,stim,true,1,442.80000000074506,2,0,1,70539,task1,1324867,false,false,1821,image-keyboard-response,3
true,15,2,1,0,false,q,false,false,0.0-2.0-0.60-0.546-3.546,0,0,0,68,false,stim,true,2,440.59999999962747,2,0,0,70539,task1,1326820,false,false,1824,image-keyboard-response,4
true,15,1,1,0,false,q,true,false,0.0-2.0-0.60-0.547-3.547,0,0,0,90,false,stim,false,2,516.7000000001863,2,0,0,70539,task1,1328851,false,false,1827,image-keyboard-response,5
true,15,1,1,2,false,d,true,false,0.0-2.0-0.60-0.548-3.548,0,0,0,90,false,stim,false,0,727.1999999992549,2,0,2,70539,task1,1331091,false,false,1830,image-keyboard-response,6
true,15,0,1,0,true,q,false,true,0.0-2.0-0.61-0.549-3.549,0,0,0,81,false,stim,false,2,609.5999999996275,2,0,0,70539,task1,1333218,false,false,1833,image-keyboard-response,7
true,15,2,1,2,true,d,false,true,0.0-2.0-0.61-0.550-3.550,0,0,0,68,false,stim,false,0,548.2000000001863,2,0,2,70539,task1,1335283,false,false,1836,image-keyboard-response,8
true,15,2,1,2,true,d,false,true,0.0-2.0-0.61-0.551-3.551,0,0,0,68,false,stim,false,0,835.0,2,0,2,70539,task1,1337636,false,false,1839,image-keyboard-response,9
true,15,2,1,0,false,q,true,false,0.0-2.0-0.61-0.552-3.552,0,0,0,68,false,stim,false,1,616.6000000005588,2,0,1,70539,task1,1339763,false,false,1842,image-keyboard-response,10
true,15,2,1,2,true,d,false,true,0.0-2.0-0.61-0.553-3.553,0,0,0,68,false,stim,false,0,947.2999999998137,2,0,2,70539,task1,1342219,false,false,1845,image-keyboard-response,11
true,15,0,1,0,true,q,false,true,0.0-2.0-0.61-0.554-3.554,0,0,0,81,false,stim,false,1,967.0,2,0,1,70539,task1,1344700,false,false,1848,image-keyboard-response,12
true,15,0,1,0,true,q,false,true,0.0-2.0-0.61-0.555-3.555,0,0,0,81,false,stim,false,1,682.5,2,0,1,70539,task1,1346892,false,false,1851,image-keyboard-response,13
true,15,0,1,0,true,q,false,false,0.0-2.0-0.61-0.556-3.556,0,0,0,81,false,stim,false,2,620.4000000003725,2,0,0,70539,task1,1349028,false,true,1854,image-keyboard-response,14
true,15,0,1,0,true,q,false,false,0.0-2.0-0.61-0.557-3.557,0,0,0,81,false,stim,false,2,398.5,2,0,0,70539,task1,1350939,false,true,1857,image-keyboard-response,15
true,15,2,1,2,true,d,false,false,0.0-2.0-0.62-0.558-3.558,0,0,0,68,false,stim,false,0,607.3999999994412,2,0,2,70539,task1,1353060,false,true,1860,image-keyboard-response,16
true,15,1,1,2,false,d,true,false,0.0-2.0-0.62-0.559-3.559,0,0,0,90,false,stim,false,0,738.0999999996275,2,0,2,70539,task1,1355316,false,false,1863,image-keyboard-response,17
true,15,2,1,0,false,q,false,false,0.0-2.0-0.62-0.560-3.560,0,0,0,68,false,stim,true,2,1021.0,2,0,0,70539,task1,1357852,false,false,1866,image-keyboard-response,18
true,15,0,1,0,true,q,false,true,0.0-2.0-0.62-0.561-3.561,0,0,0,81,false,stim,false,2,719.7000000001863,2,0,0,70539,task1,1360085,false,false,1869,image-keyboard-response,19
true,15,1,1,2,false,d,true,false,0.0-2.0-0.62-0.562-3.562,0,0,0,90,false,stim,false,0,702.5999999996275,2,0,2,70539,task1,1362300,false,false,1872,image-keyboard-response,20
true,15,0,1,0,true,q,false,true,0.0-2.0-0.62-0.563-3.563,0,0,0,81,false,stim,false,1,1033.800000000745,2,0,1,70539,task1,1364852,false,false,1875,image-keyboard-response,21
true,15,0,1,0,true,q,false,true,0.0-2.0-0.62-0.564-3.564,0,0,0,81,false,stim,false,1,527.2999999998137,2,0,1,70539,task1,1366892,false,false,1878,image-keyboard-response,22
true,15,0,1,0,true,q,false,true,0.0-2.0-0.62-0.565-3.565,0,0,0,81,false,stim,false,1,423.09999999962747,2,0,1,70539,task1,1368828,false,false,1881,image-keyboard-response,23
true,15,0,1,0,true,q,false,true,0.0-2.0-0.62-0.566-3.566,0,0,0,81,false,stim,false,2,776.2999999998137,2,0,0,70539,task1,1371117,false,false,1884,image-keyboard-response,24
true,15,0,1,0,true,q,false,true,0.0-2.0-0.63-0.567-3.567,0,0,0,81,false,stim,false,1,581.2000000001863,2,0,1,70539,task1,1373212,false,false,1887,image-keyboard-response,25
true,15,0,1,0,true,q,false,true,0.0-2.0-0.63-0.568-3.568,0,0,0,81,false,stim,false,1,645.6999999992549,2,0,1,70539,task1,1375372,false,false,1890,image-keyboard-response,26
true,15,0,1,0,true,q,false,true,0.0-2.0-0.63-0.569-3.569,0,0,0,81,false,stim,false,2,534.2000000001863,2,0,0,70539,task1,1377421,false,false,1893,image-keyboard-response,27
true,15,2,1,2,true,d,false,false,0.0-2.0-0.63-0.570-3.570,0,0,0,68,false,stim,false,0,455.1000000005588,2,0,2,70539,task1,1379389,false,true,1896,image-keyboard-response,28
true,15,0,1,0,true,q,false,true,0.0-2.0-0.63-0.571-3.571,0,0,0,81,false,stim,false,1,551.6999999992549,2,0,1,70539,task1,1381453,false,false,1899,image-keyboard-response,29
true,15,1,1,2,false,d,true,false,0.0-2.0-0.63-0.572-3.572,0,0,0,90,false,stim,false,0,625.2000000001863,2,0,2,70539,task1,1383605,false,false,1902,image-keyboard-response,30
true,15,0,1,0,true,q,false,false,0.0-2.0-0.63-0.573-3.573,0,0,0,81,false,stim,false,2,682.0,2,0,0,70539,task1,1385804,false,true,1905,image-keyboard-response,31
true,15,2,1,2,true,d,false,true,0.0-2.0-0.63-0.574-3.574,0,0,0,68,false,stim,false,0,662.2999999998137,2,0,2,70539,task1,1387981,false,false,1908,image-keyboard-response,32
true,15,0,1,0,true,q,false,true,0.0-2.0-0.63-0.575-3.575,0,0,0,81,false,stim,false,2,575.0,2,0,0,70539,task1,1390069,false,false,1911,image-keyboard-response,33
true,15,0,1,0,true,q,false,true,0.0-2.0-0.64-0.576-3.576,0,0,0,81,false,stim,false,2,560.2000000001863,2,0,0,70539,task1,1392142,false,false,1914,image-keyboard-response,34
true,15,2,1,2,true,d,false,true,0.0-2.0-0.64-0.577-3.577,0,0,0,68,false,stim,false,0,422.5,2,0,2,70539,task1,1394077,false,false,1917,image-keyboard-response,35
true,15,1,1,0,false,q,false,false,0.0-2.0-0.64-0.578-3.578,0,0,0,90,false,stim,true,1,690.7000000001863,2,0,1,70539,task1,1396277,false,false,1920,image-keyboard-response,36
true,15,0,1,0,true,q,false,false,0.0-2.0-0.64-0.579-3.579,0,0,0,81,false,stim,false,1,402.5,2,0,1,70539,task1,1398190,false,true,1923,image-keyboard-response,37
true,15,0,1,0,true,q,false,true,0.0-2.0-0.64-0.580-3.580,0,0,0,81,false,stim,false,1,440.70000000018626,2,0,1,70539,task1,1400141,false,false,1926,image-keyboard-response,38
true,15,2,1,2,true,d,false,true,0.0-2.0-0.64-0.581-3.581,0,0,0,68,false,stim,false,0,613.0999999996275,2,0,2,70539,task1,1402262,false,false,1929,image-keyboard-response,39
true,15,2,1,2,true,d,false,true,0.0-2.0-0.64-0.582-3.582,0,0,0,68,false,stim,false,0,893.7999999998137,2,0,2,70539,task1,1404669,false,false,1932,image-keyboard-response,40
true,15,0,1,0,true,q,false,true,0.0-2.0-0.64-0.583-3.583,0,0,0,81,false,stim,false,2,571.2000000001863,2,0,0,70539,task1,1406750,false,false,1935,image-keyboard-response,41
true,16,0,2,2,false,d,false,false,0.0-2.0-0.64-0.584-3.584,0,0,0,81,true,stim,true,0,458.29999999981374,2,0,0,70539,task1,1408718,false,false,1938,image-keyboard-response,1
true,16,0,2,2,false,d,false,false,0.0-2.0-0.65-0.585-3.585,0,0,0,81,false,stim,true,0,449.6000000005588,2,0,0,70539,task1,1410686,false,false,1941,image-keyboard-response,2
true,16,2,2,0,false,q,false,false,0.0-2.0-0.65-0.586-3.586,0,0,0,68,false,stim,true,2,783.6000000005588,2,0,2,70539,task1,1412982,false,false,1944,image-keyboard-response,3
true,16,2,2,0,false,q,false,true,0.0-2.0-0.65-0.587-3.587,0,0,0,68,false,stim,true,2,472.79999999981374,2,0,2,70539,task1,1414974,false,true,1947,image-keyboard-response,4
true,16,0,2,1,false,z,false,false,0.0-2.0-0.65-0.588-3.588,0,0,0,81,false,stim,true,0,511.5,2,0,1,70539,task1,1416998,false,false,1950,image-keyboard-response,5
true,16,2,2,0,false,q,false,false,0.0-2.0-0.65-0.589-3.589,0,0,0,68,false,stim,true,2,912.0999999996275,2,0,2,70539,task1,1419422,false,false,1953,image-keyboard-response,6
true,16,1,2,1,true,z,false,true,0.0-2.0-0.65-0.590-3.590,0,0,0,90,false,stim,false,0,702.5999999996275,2,0,1,70539,task1,1421638,false,false,1956,image-keyboard-response,7
